index,stimulus,correct_answer,block.thisRepN,block.thisTrialN,block.thisN,block.thisIndex,trial.thisRepN,trial.thisTrialN,trial.thisN,trial.thisIndex,display_row.thisRepN,display_row.thisTrialN,display_row.thisN,display_row.thisIndex,pair_questions.thisRepN,pair_questions.thisTrialN,pair_questions.thisN,pair_questions.thisIndex,welcome_text.started,instructions_0_keypress.started,instructions_0_keypress.keys,instructions_0_keypress.rt,instructions_1_keypress.started,instructions_1_text.started,instructions_1_keypress.keys,instructions_1_keypress.rt,instructions_2_keypress.started,instructions_2_text.started,instructions_2_keypress.keys,instructions_2_keypress.rt,text_countdown.started,text_countdown.stopped,image.started,size_question.started,size_resp.started,keypress_options.started,size_resp.keys,size_resp.corr,size_resp.rt,fb_image.started,fb.started,fb_size_question.started,fb_image.stopped,fb.stopped,fb_size_question.stopped,block_break_text.started,block_break_keypress.started,block_break_keypress.keys,block_break_keypress.rt,seq_reveal.started,seq_reveal_adv.started,seq_reveal_adv.keys,seq_reveal_adv.rt,instruction_2afc_text.started,instruction_2afc_keypress.started,instruction_2afc_keypress.keys,instruction_2afc_keypress.rt,dist_2afc_test.started,dist_2afc_resp.started,text.started,stim_00.started,stim_01.started,stim_10.started,stim_11.started,dist_2afc_resp.keys,dist_2afc_resp.rt,graph.started,debrief_text.started,debriefing_title.started,participant,session,date,expName,psychopyVersion,frameRate,
,,,,,,,,,,,,,,,,,,,16.461301578678103,16.461301578678103,return,7.773116494278838,,,,,,,,,,,,,,,,,,,,,,,,,,,,,,,,,,,,,,,,,,,,,,,,100,001,2023-03-01_09h57.41.633,eb_01,2022.2.4,60.00499905796376,
,,,,,,,,,,,,,,,,,,,,,,,24.260802318211063,24.260802318211063,return,8.157770422861176,,,,,,,,,,,,,,,,,,,,,,,,,,,,,,,,,,,,,,,,,,,,100,001,2023-03-01_09h57.41.633,eb_01,2022.2.4,60.00499905796376,
,,,,,,,,,,,,,,,,,,,,,,,,,,,32.44362310966244,32.44362310966244,space,10.902249278244199,,,,,,,,,,,,,,,,,,,,,,,,,,,,,,,,,,,,,,,,100,001,2023-03-01_09h57.41.633,eb_01,2022.2.4,60.00499905796376,
5,stimuli/5.png,s,0,0,0,0,0,0,0,0,0,0,0,0,,,,,,,,,,,,,,,,,43.37594977210301,48.40929306649832,48.40929306649832,48.40929306649832,48.40929306649832,48.40929306649832,s,1,1.208677483140491,49.64220048899824,49.64220048899824,49.64220048899824,50.675798846931684,50.675798846931684,50.675798846931684,,,,,,,,,,,,,,,,,,,,,,,,,100,001,2023-03-01_09h57.41.633,eb_01,2022.2.4,60.00499905796376,
,,,0,0,0,0,0,0,0,0,,,,,,,,,,,,,,,,,,,,,,,,,,,,,,,,,,,,,,,,,,,,,,,,,,,,,,,,,,,,100,001,2023-03-01_09h57.41.633,eb_01,2022.2.4,60.00499905796376,
6,stimuli/6.png,s,0,0,0,0,1,0,1,0,0,0,0,0,,,,,,,,,,,,,,,,,,,50.675798846931684,50.675798846931684,50.675798846931684,50.675798846931684,s,1,0.5822006803400654,51.29243774336737,51.29243774336737,51.29243774336737,,,,,,,,,,,,,,,,,,,,,,,,,,,,100,001,2023-03-01_09h57.41.633,eb_01,2022.2.4,60.00499905796376,
,,,0,0,0,0,1,0,1,0,,,,,,,,,,,,,,,,,,,,,,,,,,,,,,,,,,,,,,,,,,,,,,,,,,,,,,,,,,,,100,001,2023-03-01_09h57.41.633,eb_01,2022.2.4,60.00499905796376,
5,stimuli/5.png,s,0,0,0,0,2,0,2,0,0,0,0,0,,,,,,,,,,,,,,,,,,,52.3090195900877,52.3090195900877,52.3090195900877,52.3090195900877,s,1,0.4210370472692375,52.75899544206004,52.75899544206004,52.75899544206004,53.77562467928419,53.77562467928419,53.77562467928419,,,,,,,,,,,,,,,,,,,,,,,,,100,001,2023-03-01_09h57.41.633,eb_01,2022.2.4,60.00499905796376,
,,,0,0,0,0,2,0,2,0,,,,,,,,,,,,,,,,,,,,,,,,,,,,,,,,,,,,,,,,,,,,,,,,,,,,,,,,,,,,100,001,2023-03-01_09h57.41.633,eb_01,2022.2.4,60.00499905796376,
6,stimuli/6.png,s,0,0,0,0,3,0,3,0,0,0,0,0,,,,,,,,,,,,,,,,,,,53.77562467928419,53.77562467928419,53.77562467928419,53.77562467928419,s,1,0.35442501551460737,54.17558815539269,54.17558815539269,54.17558815539269,,,,,,,,,,,,,,,,,,,,,,,,,,,,100,001,2023-03-01_09h57.41.633,eb_01,2022.2.4,60.00499905796376,
,,,0,0,0,0,3,0,3,0,,,,,,,,,,,,,,,,,,,,,,,,,,,,,,,,,,,,,,,,,,,,,,,,,,,,,,,,,,,,100,001,2023-03-01_09h57.41.633,eb_01,2022.2.4,60.00499905796376,
9,stimuli/9.png,l,0,0,0,0,4,0,4,0,0,0,0,0,,,,,,,,,,,,,,,,,,,55.20885840200481,55.20885840200481,55.20885840200481,55.20885840200481,s,0,0.6082733055318386,55.85878958012654,55.85878958012654,55.85878958012654,,,,,,,,,,,,,,,,,,,,,,,,,,,,100,001,2023-03-01_09h57.41.633,eb_01,2022.2.4,60.00499905796376,
,,,0,0,0,0,4,0,4,0,,,,,,,,,,,,,,,,,,,,,,,,,,,,,,,,,,,,,,,,,,,,,,,,,,,,,,,,,,,,100,001,2023-03-01_09h57.41.633,eb_01,2022.2.4,60.00499905796376,
5,stimuli/5.png,s,0,0,0,0,5,0,5,0,0,0,0,0,,,,,,,,,,,,,,,,,,,56.858459355851664,56.858459355851664,56.858459355851664,56.858459355851664,s,1,0.502686357541279,57.39204352682009,57.39204352682009,57.39204352682009,58.4086679344382,58.4086679344382,58.4086679344382,,,,,,,,,,,,,,,,,,,,,,,,,100,001,2023-03-01_09h57.41.633,eb_01,2022.2.4,60.00499905796376,
,,,0,0,0,0,5,0,5,0,,,,,,,,,,,,,,,,,,,,,,,,,,,,,,,,,,,,,,,,,,,,,,,,,,,,,,,,,,,,100,001,2023-03-01_09h57.41.633,eb_01,2022.2.4,60.00499905796376,
9,stimuli/9.png,l,0,0,0,0,6,0,6,0,0,0,0,0,,,,,,,,,,,,,,,,,,,58.4086679344382,58.4086679344382,58.4086679344382,58.4086679344382,l,1,0.6645216076240104,59.10860122551276,59.10860122551276,59.10860122551276,,,,,,,,,,,,,,,,,,,,,,,,,,,,100,001,2023-03-01_09h57.41.633,eb_01,2022.2.4,60.00499905796376,
,,,0,0,0,0,6,0,6,0,,,,,,,,,,,,,,,,,,,,,,,,,,,,,,,,,,,,,,,,,,,,,,,,,,,,,,,,,,,,100,001,2023-03-01_09h57.41.633,eb_01,2022.2.4,60.00499905796376,
5,stimuli/5.png,s,0,0,0,0,7,0,7,0,0,0,0,0,,,,,,,,,,,,,,,,,,,60.10821666817628,60.10821666817628,60.10821666817628,60.10821666817628,s,1,0.669012235171067,60.80845573364786,60.80845573364786,60.80845573364786,61.82508436717126,61.82508436717126,61.82508436717126,,,,,,,,,,,,,,,,,,,,,,,,,100,001,2023-03-01_09h57.41.633,eb_01,2022.2.4,60.00499905796376,
,,,0,0,0,0,7,0,7,0,,,,,,,,,,,,,,,,,,,,,,,,,,,,,,,,,,,,,,,,,,,,,,,,,,,,,,,,,,,,100,001,2023-03-01_09h57.41.633,eb_01,2022.2.4,60.00499905796376,
9,stimuli/9.png,l,0,0,0,0,8,0,8,0,0,0,0,0,,,,,,,,,,,,,,,,,,,61.82508436717126,61.82508436717126,61.82508436717126,61.82508436717126,l,1,0.3841708575255325,62.25841317274899,62.25841317274899,62.25841317274899,,,,,,,,,,,,,,,,,,,,,,,,,,,,100,001,2023-03-01_09h57.41.633,eb_01,2022.2.4,60.00499905796376,
,,,0,0,0,0,8,0,8,0,,,,,,,,,,,,,,,,,,,,,,,,,,,,,,,,,,,,,,,,,,,,,,,,,,,,,,,,,,,,100,001,2023-03-01_09h57.41.633,eb_01,2022.2.4,60.00499905796376,
5,stimuli/5.png,s,0,0,0,0,9,0,9,0,0,0,0,0,,,,,,,,,,,,,,,,,,,63.258009598841454,63.258009598841454,63.258009598841454,63.258009598841454,s,1,0.4153239258348549,63.69165504542889,63.69165504542889,63.69165504542889,64.70825651242194,64.70825651242194,64.70825651242194,,,,,,,,,,,,,,,,,,,,,,,,,100,001,2023-03-01_09h57.41.633,eb_01,2022.2.4,60.00499905796376,
,,,0,0,0,0,9,0,9,0,,,,,,,,,,,,,,,,,,,,,,,,,,,,,,,,,,,,,,,,,,,,,,,,,,,,,,,,,,,,100,001,2023-03-01_09h57.41.633,eb_01,2022.2.4,60.00499905796376,
6,stimuli/6.png,s,0,0,0,0,10,0,10,0,0,0,0,0,,,,,,,,,,,,,,,,,,,64.70825651242194,64.70825651242194,64.70825651242194,64.70825651242194,s,1,0.5330826870413148,65.2748772978357,65.2748772978357,65.2748772978357,,,,,,,,,,,,,,,,,,,,,,,,,,,,100,001,2023-03-01_09h57.41.633,eb_01,2022.2.4,60.00499905796376,
,,,0,0,0,0,10,0,10,0,,,,,,,,,,,,,,,,,,,,,,,,,,,,,,,,,,,,,,,,,,,,,,,,,,,,,,,,,,,,100,001,2023-03-01_09h57.41.633,eb_01,2022.2.4,60.00499905796376,
9,stimuli/9.png,l,0,0,0,0,11,0,11,0,0,0,0,0,,,,,,,,,,,,,,,,,,,66.29148027408064,66.29148027408064,66.29148027408064,66.29148027408064,l,1,0.3098767345518354,66.64144646684235,66.64144646684235,66.64144646684235,,,,,,,,,,,,,,,,,,,,,,,,,,,,100,001,2023-03-01_09h57.41.633,eb_01,2022.2.4,60.00499905796376,
,,,0,0,0,0,11,0,11,0,,,,,,,,,,,,,,,,,,,,,,,,,,,,,,,,,,,,,,,,,,,,,,,,,,,,,,,,,,,,100,001,2023-03-01_09h57.41.633,eb_01,2022.2.4,60.00499905796376,
8,stimuli/8.png,l,0,0,0,0,12,0,12,0,0,0,0,0,,,,,,,,,,,,,,,,,,,67.65804250052861,67.65804250052861,67.65804250052861,67.65804250052861,l,1,0.8233724633701058,68.50801231549394,68.50801231549394,68.50801231549394,69.5246349120107,69.5246349120107,69.5246349120107,,,,,,,,,,,,,,,,,,,,,,,,,100,001,2023-03-01_09h57.41.633,eb_01,2022.2.4,60.00499905796376,
,,,0,0,0,0,12,0,12,0,,,,,,,,,,,,,,,,,,,,,,,,,,,,,,,,,,,,,,,,,,,,,,,,,,,,,,,,,,,,100,001,2023-03-01_09h57.41.633,eb_01,2022.2.4,60.00499905796376,
9,stimuli/9.png,l,0,0,0,0,13,0,13,0,0,0,0,0,,,,,,,,,,,,,,,,,,,69.5246349120107,69.5246349120107,69.5246349120107,69.5246349120107,l,1,0.5488205602032394,70.10788765130292,70.10788765130292,70.10788765130292,,,,,,,,,,,,,,,,,,,,,,,,,,,,100,001,2023-03-01_09h57.41.633,eb_01,2022.2.4,60.00499905796376,
,,,0,0,0,0,13,0,13,0,,,,,,,,,,,,,,,,,,,,,,,,,,,,,,,,,,,,,,,,,,,,,,,,,,,,,,,,,,,,100,001,2023-03-01_09h57.41.633,eb_01,2022.2.4,60.00499905796376,
6,stimuli/6.png,s,0,0,0,0,14,0,14,0,0,0,0,0,,,,,,,,,,,,,,,,,,,71.12451085152043,71.12451085152043,71.12451085152043,71.12451085152043,s,1,0.4839994065314386,71.65785233481256,71.65785233481256,71.65785233481256,,,,,,,,,,,,,,,,,,,,,,,,,,,,100,001,2023-03-01_09h57.41.633,eb_01,2022.2.4,60.00499905796376,
,,,0,0,0,0,14,0,14,0,,,,,,,,,,,,,,,,,,,,,,,,,,,,,,,,,,,,,,,,,,,,,,,,,,,,,,,,,,,,100,001,2023-03-01_09h57.41.633,eb_01,2022.2.4,60.00499905796376,
8,stimuli/8.png,l,0,0,0,0,15,0,15,0,0,0,0,0,,,,,,,,,,,,,,,,,,,72.65747351263326,72.65747351263326,72.65747351263326,72.65747351263326,l,1,0.71106240269728,73.39104681698882,73.39104681698882,73.39104681698882,74.4076359081173,74.4076359081173,74.4076359081173,,,,,,,,,,,,,,,,,,,,,,,,,100,001,2023-03-01_09h57.41.633,eb_01,2022.2.4,60.00499905796376,
,,,0,0,0,0,15,0,15,0,,,,,,,,,,,,,,,,,,,,,,,,,,,,,,,,,,,,,,,,,,,,,,,,,,,,,,,,,,,,100,001,2023-03-01_09h57.41.633,eb_01,2022.2.4,60.00499905796376,
9,stimuli/9.png,l,0,0,0,0,16,0,16,0,0,0,0,0,,,,,,,,,,,,,,,,,,,74.4076359081173,74.4076359081173,74.4076359081173,74.4076359081173,l,1,0.42492035192663025,74.8743086117911,74.8743086117911,74.8743086117911,,,,,,,,,,,,,,,,,,,,,,,,,,,,100,001,2023-03-01_09h57.41.633,eb_01,2022.2.4,60.00499905796376,
,,,0,0,0,0,16,0,16,0,,,,,,,,,,,,,,,,,,,,,,,,,,,,,,,,,,,,,,,,,,,,,,,,,,,,,,,,,,,,100,001,2023-03-01_09h57.41.633,eb_01,2022.2.4,60.00499905796376,
8,stimuli/8.png,l,0,0,0,0,17,0,17,0,0,0,0,0,,,,,,,,,,,,,,,,,,,75.87390292493001,75.87390292493001,75.87390292493001,75.87390292493001,l,1,0.48668345977694116,76.39085001056537,76.39085001056537,76.39085001056537,77.3908137885237,77.3908137885237,77.3908137885237,,,,,,,,,,,,,,,,,,,,,,,,,100,001,2023-03-01_09h57.41.633,eb_01,2022.2.4,60.00499905796376,
,,,0,0,0,0,17,0,17,0,,,,,,,,,,,,,,,,,,,,,,,,,,,,,,,,,,,,,,,,,,,,,,,,,,,,,,,,,,,,100,001,2023-03-01_09h57.41.633,eb_01,2022.2.4,60.00499905796376,
3,stimuli/3.png,l,0,0,0,0,18,0,18,0,0,0,0,0,,,,,,,,,,,,,,,,,,,77.3908137885237,77.3908137885237,77.3908137885237,77.3908137885237,l,1,0.8098042904703107,78.22407015002045,78.22407015002045,78.22407015002045,79.24069425578818,79.24069425578818,79.24069425578818,,,,,,,,,,,,,,,,,,,,,,,,,100,001,2023-03-01_09h57.41.633,eb_01,2022.2.4,60.00499905796376,
,,,0,0,0,0,18,0,18,0,,,,,,,,,,,,,,,,,,,,,,,,,,,,,,,,,,,,,,,,,,,,,,,,,,,,,,,,,,,,100,001,2023-03-01_09h57.41.633,eb_01,2022.2.4,60.00499905796376,
8,stimuli/8.png,l,0,0,0,0,19,0,19,0,0,0,0,0,,,,,,,,,,,,,,,,,,,79.24069425578818,79.24069425578818,79.24069425578818,79.24069425578818,l,1,0.3759738096223373,79.64065682634555,79.64065682634555,79.64065682634555,80.65724591747494,80.65724591747494,80.65724591747494,,,,,,,,,,,,,,,,,,,,,,,,,100,001,2023-03-01_09h57.41.633,eb_01,2022.2.4,60.00499905796376,
,,,0,0,0,0,19,0,19,0,,,,,,,,,,,,,,,,,,,,,,,,,,,,,,,,,,,,,,,,,,,,,,,,,,,,,,,,,,,,100,001,2023-03-01_09h57.41.633,eb_01,2022.2.4,60.00499905796376,
6,stimuli/6.png,s,0,0,0,0,20,0,20,0,0,0,0,0,,,,,,,,,,,,,,,,,,,80.65724591747494,80.65724591747494,80.65724591747494,80.65724591747494,s,1,0.5195000253243052,81.22386368438583,81.22386368438583,81.22386368438583,,,,,,,,,,,,,,,,,,,,,,,,,,,,100,001,2023-03-01_09h57.41.633,eb_01,2022.2.4,60.00499905796376,
,,,0,0,0,0,20,0,20,0,,,,,,,,,,,,,,,,,,,,,,,,,,,,,,,,,,,,,,,,,,,,,,,,,,,,,,,,,,,,100,001,2023-03-01_09h57.41.633,eb_01,2022.2.4,60.00499905796376,
8,stimuli/8.png,l,0,0,0,0,21,0,21,0,0,0,0,0,,,,,,,,,,,,,,,,,,,82.22349120106264,82.22349120106264,82.22349120106264,82.22349120106264,l,1,0.5452629520650589,82.79044643665748,82.79044643665748,82.79044643665748,83.80706329801706,83.80706329801706,83.80706329801706,,,,,,,,,,,,,,,,,,,,,,,,,100,001,2023-03-01_09h57.41.633,eb_01,2022.2.4,60.00499905796376,
,,,0,0,0,0,21,0,21,0,,,,,,,,,,,,,,,,,,,,,,,,,,,,,,,,,,,,,,,,,,,,,,,,,,,,,,,,,,,,100,001,2023-03-01_09h57.41.633,eb_01,2022.2.4,60.00499905796376,
9,stimuli/9.png,l,0,0,0,0,22,0,22,0,0,0,0,0,,,,,,,,,,,,,,,,,,,83.80706329801706,83.80706329801706,83.80706329801706,83.80706329801706,l,1,0.5456722611297664,84.39036312596272,84.39036312596272,84.39036312596272,,,,,,,,,,,,,,,,,,,,,,,,,,,,100,001,2023-03-01_09h57.41.633,eb_01,2022.2.4,60.00499905796376,
,,,0,0,0,0,22,0,22,0,,,,,,,,,,,,,,,,,,,,,,,,,,,,,,,,,,,,,,,,,,,,,,,,,,,,,,,,,,,,100,001,2023-03-01_09h57.41.633,eb_01,2022.2.4,60.00499905796376,
8,stimuli/8.png,l,0,0,0,0,23,0,23,0,0,0,0,0,,,,,,,,,,,,,,,,,,,85.40698300582608,85.40698300582608,85.40698300582608,85.40698300582608,l,1,0.4738210129789877,85.90691176914515,85.90691176914515,85.90691176914515,86.92354281747157,86.92354281747157,86.92354281747157,,,,,,,,,,,,,,,,,,,,,,,,,100,001,2023-03-01_09h57.41.633,eb_01,2022.2.4,60.00499905796376,
,,,0,0,0,0,23,0,23,0,,,,,,,,,,,,,,,,,,,,,,,,,,,,,,,,,,,,,,,,,,,,,,,,,,,,,,,,,,,,100,001,2023-03-01_09h57.41.633,eb_01,2022.2.4,60.00499905796376,
9,stimuli/9.png,l,0,0,0,0,24,0,24,0,0,0,0,0,,,,,,,,,,,,,,,,,,,86.92354281747157,86.92354281747157,86.92354281747157,86.92354281747157,l,1,0.3802863454666294,87.34017205469536,87.34017205469536,87.34017205469536,,,,,,,,,,,,,,,,,,,,,,,,,,,,100,001,2023-03-01_09h57.41.633,eb_01,2022.2.4,60.00499905796376,
,,,0,0,0,0,24,0,24,0,,,,,,,,,,,,,,,,,,,,,,,,,,,,,,,,,,,,,,,,,,,,,,,,,,,,,,,,,,,,100,001,2023-03-01_09h57.41.633,eb_01,2022.2.4,60.00499905796376,
6,stimuli/6.png,s,0,0,0,0,25,0,25,0,0,0,0,0,,,,,,,,,,,,,,,,,,,88.35676386247724,88.35676386247724,88.35676386247724,88.35676386247724,s,1,0.4991284475527209,88.89009689396062,88.89009689396062,88.89009689396062,,,,,,,,,,,,,,,,,,,,,,,,,,,,100,001,2023-03-01_09h57.41.633,eb_01,2022.2.4,60.00499905796376,
,,,0,0,0,0,25,0,25,0,,,,,,,,,,,,,,,,,,,,,,,,,,,,,,,,,,,,,,,,,,,,,,,,,,,,,,,,,,,,100,001,2023-03-01_09h57.41.633,eb_01,2022.2.4,60.00499905796376,
5,stimuli/5.png,s,0,0,0,0,26,0,26,0,0,0,0,0,,,,,,,,,,,,,,,,,,,89.90666183706162,89.90666183706162,89.90666183706162,89.90666183706162,s,1,0.3652677816708092,90.28999215189106,90.28999215189106,90.28999215189106,91.30661263545608,91.30661263545608,91.30661263545608,,,,,,,,,,,,,,,,,,,,,,,,,100,001,2023-03-01_09h57.41.633,eb_01,2022.2.4,60.00499905796376,
,,,0,0,0,0,26,0,26,0,,,,,,,,,,,,,,,,,,,,,,,,,,,,,,,,,,,,,,,,,,,,,,,,,,,,,,,,,,,,100,001,2023-03-01_09h57.41.633,eb_01,2022.2.4,60.00499905796376,
9,stimuli/9.png,l,0,0,0,0,27,0,27,0,0,0,0,0,,,,,,,,,,,,,,,,,,,91.30661263545608,91.30661263545608,91.30661263545608,91.30661263545608,l,1,0.4933449949885471,91.83989525793186,91.83989525793186,91.83989525793186,,,,,,,,,,,,,,,,,,,,,,,,,,,,100,001,2023-03-01_09h57.41.633,eb_01,2022.2.4,60.00499905796376,
,,,0,0,0,0,27,0,27,0,,,,,,,,,,,,,,,,,,,,,,,,,,,,,,,,,,,,,,,,,,,,,,,,,,,,,,,,,,,,100,001,2023-03-01_09h57.41.633,eb_01,2022.2.4,60.00499905796376,
8,stimuli/8.png,l,0,0,0,0,28,0,28,0,0,0,0,0,,,,,,,,,,,,,,,,,,,92.85649702677438,92.85649702677438,92.85649702677438,92.85649702677438,l,1,0.335494169427875,93.2231407528152,93.2231407528152,93.2231407528152,94.23969030154876,94.23969030154876,94.23969030154876,,,,,,,,,,,,,,,,,,,,,,,,,100,001,2023-03-01_09h57.41.633,eb_01,2022.2.4,60.00499905796376,
,,,0,0,0,0,28,0,28,0,,,,,,,,,,,,,,,,,,,,,,,,,,,,,,,,,,,,,,,,,,,,,,,,,,,,,,,,,,,,100,001,2023-03-01_09h57.41.633,eb_01,2022.2.4,60.00499905796376,
9,stimuli/9.png,l,0,0,0,0,29,0,29,0,0,0,0,0,,,,,,,,,,,,,,,,,,,94.23969030154876,94.23969030154876,94.23969030154876,94.23969030154876,l,1,0.4883173756816177,94.77304084035131,94.77304084035131,94.77304084035131,,,,,,,,,,,,,,,,,,,,,,,,,,,,100,001,2023-03-01_09h57.41.633,eb_01,2022.2.4,60.00499905796376,
,,,0,0,0,0,29,0,29,0,,,,,,,,,,,,,,,,,,,,,,,,,,,,,,,,,,,,,,,,,,,,,,,,,,,,,,,,,,,,100,001,2023-03-01_09h57.41.633,eb_01,2022.2.4,60.00499905796376,
5,stimuli/5.png,s,0,0,0,0,30,0,30,0,0,0,0,0,,,,,,,,,,,,,,,,,,,95.78964472214739,95.78964472214739,95.78964472214739,95.78964472214739,s,1,0.5064136055707422,96.32295058709951,96.32295058709951,96.32295058709951,97.3395209635064,97.3395209635064,97.3395209635064,,,,,,,,,,,,,,,,,,,,,,,,,100,001,2023-03-01_09h57.41.633,eb_01,2022.2.4,60.00499905796376,
,,,0,0,0,0,30,0,30,0,,,,,,,,,,,,,,,,,,,,,,,,,,,,,,,,,,,,,,,,,,,,,,,,,,,,,,,,,,,,100,001,2023-03-01_09h57.41.633,eb_01,2022.2.4,60.00499905796376,
6,stimuli/6.png,s,0,0,0,0,31,0,31,0,0,0,0,0,,,,,,,,,,,,,,,,,,,97.3395209635064,97.3395209635064,97.3395209635064,97.3395209635064,s,1,0.5005661607347065,97.88950556913915,97.88950556913915,97.88950556913915,,,,,,,,,,,,,,,,,,,,,,,,,,,,100,001,2023-03-01_09h57.41.633,eb_01,2022.2.4,60.00499905796376,
,,,0,0,0,0,31,0,31,0,,,,,,,,,,,,,,,,,,,,,,,,,,,,,,,,,,,,,,,,,,,,,,,,,,,,,,,,,,,,100,001,2023-03-01_09h57.41.633,eb_01,2022.2.4,60.00499905796376,
9,stimuli/9.png,l,0,0,0,0,32,0,32,0,0,0,0,0,,,,,,,,,,,,,,,,,,,98.90611639349208,98.90611639349208,98.90611639349208,98.90611639349208,l,1,0.4459919206428822,99.3894319176552,99.3894319176552,99.3894319176552,,,,,,,,,,,,,,,,,,,,,,,,,,,,100,001,2023-03-01_09h57.41.633,eb_01,2022.2.4,60.00499905796376,
,,,0,0,0,0,32,0,32,0,,,,,,,,,,,,,,,,,,,,,,,,,,,,,,,,,,,,,,,,,,,,,,,,,,,,,,,,,,,,100,001,2023-03-01_09h57.41.633,eb_01,2022.2.4,60.00499905796376,
6,stimuli/6.png,s,0,0,0,0,33,0,33,0,0,0,0,0,,,,,,,,,,,,,,,,,,,100.4060406290564,100.4060406290564,100.4060406290564,100.4060406290564,s,1,0.45811906000744784,100.905966675723,100.905966675723,100.905966675723,,,,,,,,,,,,,,,,,,,,,,,,,,,,100,001,2023-03-01_09h57.41.633,eb_01,2022.2.4,60.00499905796376,
,,,0,0,0,0,33,0,33,0,,,,,,,,,,,,,,,,,,,,,,,,,,,,,,,,,,,,,,,,,,,,,,,,,,,,,,,,,,,,100,001,2023-03-01_09h57.41.633,eb_01,2022.2.4,60.00499905796376,
8,stimuli/8.png,l,0,0,0,0,34,0,34,0,0,0,0,0,,,,,,,,,,,,,,,,,,,101.92262458872938,101.92262458872938,101.92262458872938,101.92262458872938,l,1,0.3965944139263229,102.3392508074503,102.3392508074503,102.3392508074503,103.33916840230631,103.33916840230631,103.33916840230631,,,,,,,,,,,,,,,,,,,,,,,,,100,001,2023-03-01_09h57.41.633,eb_01,2022.2.4,60.00499905796376,
,,,0,0,0,0,34,0,34,0,,,,,,,,,,,,,,,,,,,,,,,,,,,,,,,,,,,,,,,,,,,,,,,,,,,,,,,,,,,,100,001,2023-03-01_09h57.41.633,eb_01,2022.2.4,60.00499905796376,
3,stimuli/3.png,l,0,0,0,0,35,0,35,0,0,0,0,0,,,,,,,,,,,,,,,,,,,103.33916840230631,103.33916840230631,103.33916840230631,103.33916840230631,l,1,0.5320385867062214,103.88914787648355,103.88914787648355,103.88914787648355,104.90576081378913,104.90576081378913,104.90576081378913,,,,,,,,,,,,,,,,,,,,,,,,,100,001,2023-03-01_09h57.41.633,eb_01,2022.2.4,60.00499905796376,
,,,0,0,0,0,35,0,35,0,,,,,,,,,,,,,,,,,,,,,,,,,,,,,,,,,,,,,,,,,,,,,,,,,,,,,,,,,,,,100,001,2023-03-01_09h57.41.633,eb_01,2022.2.4,60.00499905796376,
8,stimuli/8.png,l,0,0,0,0,36,0,36,0,0,0,0,0,,,,,,,,,,,,,,,,,,,104.90576081378913,104.90576081378913,104.90576081378913,104.90576081378913,l,1,0.5095223622492995,105.43903468260487,105.43903468260487,105.43903468260487,106.45564641250894,106.45564641250894,106.45564641250894,,,,,,,,,,,,,,,,,,,,,,,,,100,001,2023-03-01_09h57.41.633,eb_01,2022.2.4,60.00499905796376,
,,,0,0,0,0,36,0,36,0,,,,,,,,,,,,,,,,,,,,,,,,,,,,,,,,,,,,,,,,,,,,,,,,,,,,,,,,,,,,100,001,2023-03-01_09h57.41.633,eb_01,2022.2.4,60.00499905796376,
9,stimuli/9.png,l,0,0,0,0,37,0,37,0,0,0,0,0,,,,,,,,,,,,,,,,,,,106.45564641250894,106.45564641250894,106.45564641250894,106.45564641250894,l,1,0.4556604889667142,106.95561894412822,106.95561894412822,106.95561894412822,,,,,,,,,,,,,,,,,,,,,,,,,,,,100,001,2023-03-01_09h57.41.633,eb_01,2022.2.4,60.00499905796376,
,,,0,0,0,0,37,0,37,0,,,,,,,,,,,,,,,,,,,,,,,,,,,,,,,,,,,,,,,,,,,,,,,,,,,,,,,,,,,,100,001,2023-03-01_09h57.41.633,eb_01,2022.2.4,60.00499905796376,
6,stimuli/6.png,s,0,0,0,0,38,0,38,0,0,0,0,0,,,,,,,,,,,,,,,,,,,107.97225512391014,107.97225512391014,107.97225512391014,107.97225512391014,s,1,0.5070903540390646,108.52220622415462,108.52220622415462,108.52220622415462,,,,,,,,,,,,,,,,,,,,,,,,,,,,100,001,2023-03-01_09h57.41.633,eb_01,2022.2.4,60.00499905796376,
,,,0,0,0,0,38,0,38,0,,,,,,,,,,,,,,,,,,,,,,,,,,,,,,,,,,,,,,,,,,,,,,,,,,,,,,,,,,,,100,001,2023-03-01_09h57.41.633,eb_01,2022.2.4,60.00499905796376,
5,stimuli/5.png,s,0,0,0,0,39,0,39,0,0,0,0,0,,,,,,,,,,,,,,,,,,,109.5217984243418,109.5217984243418,109.5217984243418,109.5217984243418,s,1,0.45358134380694537,110.00541670439816,110.00541670439816,110.00541670439816,111.02202511394898,111.02202511394898,111.02202511394898,,,,,,,,,,,,,,,,,,,,,,,,,100,001,2023-03-01_09h57.41.633,eb_01,2022.2.4,60.00499905796376,
,,,0,0,0,0,39,0,39,0,,,,,,,,,,,,,,,,,,,,,,,,,,,,,,,,,,,,,,,,,,,,,,,,,,,,,,,,,,,,100,001,2023-03-01_09h57.41.633,eb_01,2022.2.4,60.00499905796376,
9,stimuli/9.png,l,0,0,0,0,40,0,40,0,0,0,0,0,,,,,,,,,,,,,,,,,,,111.02202511394898,111.02202511394898,111.02202511394898,111.02202511394898,l,1,0.4653885218076539,111.5220142473363,111.5220142473363,111.5220142473363,,,,,,,,,,,,,,,,,,,,,,,,,,,,100,001,2023-03-01_09h57.41.633,eb_01,2022.2.4,60.00499905796376,
,,,0,0,0,0,40,0,40,0,,,,,,,,,,,,,,,,,,,,,,,,,,,,,,,,,,,,,,,,,,,,,,,,,,,,,,,,,,,,100,001,2023-03-01_09h57.41.633,eb_01,2022.2.4,60.00499905796376,
6,stimuli/6.png,s,0,0,0,0,41,0,41,0,0,0,0,0,,,,,,,,,,,,,,,,,,,112.53862326058788,112.53862326058788,112.53862326058788,112.53862326058788,s,1,0.4048433800890052,112.9885662108727,112.9885662108727,112.9885662108727,,,,,,,,,,,,,,,,,,,,,,,,,,,,100,001,2023-03-01_09h57.41.633,eb_01,2022.2.4,60.00499905796376,
,,,0,0,0,0,41,0,41,0,,,,,,,,,,,,,,,,,,,,,,,,,,,,,,,,,,,,,,,,,,,,,,,,,,,,,,,,,,,,100,001,2023-03-01_09h57.41.633,eb_01,2022.2.4,60.00499905796376,
8,stimuli/8.png,l,0,0,0,0,42,0,42,0,0,0,0,0,,,,,,,,,,,,,,,,,,,114.00518488333546,114.00518488333546,114.00518488333546,114.00518488333546,l,1,0.43428646620759537,114.47178725587855,114.47178725587855,114.47178725587855,115.4717800114704,115.4717800114704,115.4717800114704,,,,,,,,,,,,,,,,,,,,,,,,,100,001,2023-03-01_09h57.41.633,eb_01,2022.2.4,60.00499905796376,
,,,0,0,0,0,42,0,42,0,,,,,,,,,,,,,,,,,,,,,,,,,,,,,,,,,,,,,,,,,,,,,,,,,,,,,,,,,,,,100,001,2023-03-01_09h57.41.633,eb_01,2022.2.4,60.00499905796376,
3,stimuli/3.png,l,0,0,0,0,43,0,43,0,0,0,0,0,,,,,,,,,,,,,,,,,,,115.4717800114704,115.4717800114704,115.4717800114704,115.4717800114704,l,1,0.423709630202211,115.9217498264361,115.9217498264361,115.9217498264361,116.9550043768304,116.9550043768304,116.9550043768304,,,,,,,,,,,,,,,,,,,,,,,,,100,001,2023-03-01_09h57.41.633,eb_01,2022.2.4,60.00499905796376,
,,,0,0,0,0,43,0,43,0,,,,,,,,,,,,,,,,,,,,,,,,,,,,,,,,,,,,,,,,,,,,,,,,,,,,,,,,,,,,100,001,2023-03-01_09h57.41.633,eb_01,2022.2.4,60.00499905796376,
4,stimuli/4.png,l,0,0,0,0,44,0,44,0,0,0,0,0,,,,,,,,,,,,,,,,,,,116.9550043768304,116.9550043768304,116.9550043768304,116.9550043768304,l,1,1.7555666135094725,118.73821546077488,118.73821546077488,118.73821546077488,119.77152313682927,119.77152313682927,119.77152313682927,,,,,,,,,,,,,,,,,,,,,,,,,100,001,2023-03-01_09h57.41.633,eb_01,2022.2.4,60.00499905796376,
,,,0,0,0,0,44,0,44,0,,,,,,,,,,,,,,,,,,,,,,,,,,,,,,,,,,,,,,,,,,,,,,,,,,,,,,,,,,,,100,001,2023-03-01_09h57.41.633,eb_01,2022.2.4,60.00499905796376,
2,stimuli/2.png,s,0,0,0,0,45,0,45,0,0,0,0,0,,,,,,,,,,,,,,,,,,,119.77152313682927,119.77152313682927,119.77152313682927,119.77152313682927,s,1,1.0190910181099753,120.82141960216177,120.82141960216177,120.82141960216177,121.83806212080071,121.83806212080071,121.83806212080071,,,,,,,,,,,,,,,,,,,,,,,,,100,001,2023-03-01_09h57.41.633,eb_01,2022.2.4,60.00499905796376,
,,,0,0,0,0,45,0,45,0,,,,,,,,,,,,,,,,,,,,,,,,,,,,,,,,,,,,,,,,,,,,,,,,,,,,,,,,,,,,100,001,2023-03-01_09h57.41.633,eb_01,2022.2.4,60.00499905796376,
4,stimuli/4.png,l,0,0,0,0,46,0,46,0,0,0,0,0,,,,,,,,,,,,,,,,,,,121.83806212080071,121.83806212080071,121.83806212080071,121.83806212080071,l,1,0.4485971909498403,122.30468290621593,122.30468290621593,122.30468290621593,123.30464366567139,123.30464366567139,123.30464366567139,,,,,,,,,,,,,,,,,,,,,,,,,100,001,2023-03-01_09h57.41.633,eb_01,2022.2.4,60.00499905796376,
,,,0,0,0,0,46,0,46,0,,,,,,,,,,,,,,,,,,,,,,,,,,,,,,,,,,,,,,,,,,,,,,,,,,,,,,,,,,,,100,001,2023-03-01_09h57.41.633,eb_01,2022.2.4,60.00499905796376,
2,stimuli/2.png,s,0,0,0,0,47,0,47,0,0,0,0,0,,,,,,,,,,,,,,,,,,,123.30464366567139,123.30464366567139,123.30464366567139,123.30464366567139,s,1,0.4140350248717368,123.73791994928979,123.73791994928979,123.73791994928979,124.73784720335698,124.73784720335698,124.73784720335698,,,,,,,,,,,,,,,,,,,,,,,,,100,001,2023-03-01_09h57.41.633,eb_01,2022.2.4,60.00499905796376,
,,,0,0,0,0,47,0,47,0,,,,,,,,,,,,,,,,,,,,,,,,,,,,,,,,,,,,,,,,,,,,,,,,,,,,,,,,,,,,100,001,2023-03-01_09h57.41.633,eb_01,2022.2.4,60.00499905796376,
3,stimuli/3.png,l,0,0,0,0,48,0,48,0,0,0,0,0,,,,,,,,,,,,,,,,,,,124.73784720335698,124.73784720335698,124.73784720335698,124.73784720335698,l,1,0.5008480889546263,125.27118415889436,125.27118415889436,125.27118415889436,126.28779166289405,126.28779166289405,126.28779166289405,,,,,,,,,,,,,,,,,,,,,,,,,100,001,2023-03-01_09h57.41.633,eb_01,2022.2.4,60.00499905796376,
,,,0,0,0,0,48,0,48,0,,,,,,,,,,,,,,,,,,,,,,,,,,,,,,,,,,,,,,,,,,,,,,,,,,,,,,,,,,,,100,001,2023-03-01_09h57.41.633,eb_01,2022.2.4,60.00499905796376,
4,stimuli/4.png,l,0,0,0,0,49,0,49,0,0,0,0,0,,,,,,,,,,,,,,,,,,,126.28779166289405,126.28779166289405,126.28779166289405,126.28779166289405,s,0,0.702979756073546,127.02074315554364,127.02074315554364,127.02074315554364,128.02103745962813,128.02103745962813,128.02103745962813,,,,,,,,,,,,,,,,,,,,,,,,,100,001,2023-03-01_09h57.41.633,eb_01,2022.2.4,60.00499905796376,
,,,0,0,0,0,49,0,49,0,,,,,,,,,,,,,,,,,,,,,,,,,,,,,,,,,,,,,,,,,,,,,,,,,,,,,,,,,,,,100,001,2023-03-01_09h57.41.633,eb_01,2022.2.4,60.00499905796376,
2,stimuli/2.png,s,0,0,0,0,50,0,50,0,0,0,0,0,,,,,,,,,,,,,,,,,,,128.02103745962813,128.02103745962813,128.02103745962813,128.02103745962813,s,1,0.5777417470790169,128.62097316550535,128.62097316550535,128.62097316550535,129.6209061547288,129.6209061547288,129.6209061547288,,,,,,,,,,,,,,,,,,,,,,,,,100,001,2023-03-01_09h57.41.633,eb_01,2022.2.4,60.00499905796376,
,,,0,0,0,0,50,0,50,0,,,,,,,,,,,,,,,,,,,,,,,,,,,,,,,,,,,,,,,,,,,,,,,,,,,,,,,,,,,,100,001,2023-03-01_09h57.41.633,eb_01,2022.2.4,60.00499905796376,
3,stimuli/3.png,l,0,0,0,0,51,0,51,0,0,0,0,0,,,,,,,,,,,,,,,,,,,129.6209061547288,129.6209061547288,129.6209061547288,129.6209061547288,l,1,0.4579110851218502,130.10417911799323,130.10417911799323,130.10417911799323,131.10413534969393,131.10413534969393,131.10413534969393,,,,,,,,,,,,,,,,,,,,,,,,,100,001,2023-03-01_09h57.41.633,eb_01,2022.2.4,60.00499905796376,
,,,0,0,0,0,51,0,51,0,,,,,,,,,,,,,,,,,,,,,,,,,,,,,,,,,,,,,,,,,,,,,,,,,,,,,,,,,,,,100,001,2023-03-01_09h57.41.633,eb_01,2022.2.4,60.00499905796376,
2,stimuli/2.png,s,0,0,0,0,52,0,52,0,0,0,0,0,,,,,,,,,,,,,,,,,,,131.10413534969393,131.10413534969393,131.10413534969393,131.10413534969393,s,1,0.4867383965402041,131.62079537565296,131.62079537565296,131.62079537565296,132.63736575206076,132.63736575206076,132.63736575206076,,,,,,,,,,,,,,,,,,,,,,,,,100,001,2023-03-01_09h57.41.633,eb_01,2022.2.4,60.00499905796376,
,,,0,0,0,0,52,0,52,0,,,,,,,,,,,,,,,,,,,,,,,,,,,,,,,,,,,,,,,,,,,,,,,,,,,,,,,,,,,,100,001,2023-03-01_09h57.41.633,eb_01,2022.2.4,60.00499905796376,
4,stimuli/4.png,l,0,0,0,0,53,0,53,0,0,0,0,0,,,,,,,,,,,,,,,,,,,132.63736575206076,132.63736575206076,132.63736575206076,132.63736575206076,l,1,0.3935436125138949,133.0540007244408,133.0540007244408,133.0540007244408,134.0539717468082,134.0539717468082,134.0539717468082,,,,,,,,,,,,,,,,,,,,,,,,,100,001,2023-03-01_09h57.41.633,eb_01,2022.2.4,60.00499905796376,
,,,0,0,0,0,53,0,53,0,,,,,,,,,,,,,,,,,,,,,,,,,,,,,,,,,,,,,,,,,,,,,,,,,,,,,,,,,,,,100,001,2023-03-01_09h57.41.633,eb_01,2022.2.4,60.00499905796376,
3,stimuli/3.png,l,0,0,0,0,54,0,54,0,0,0,0,0,,,,,,,,,,,,,,,,,,,134.0539717468082,134.0539717468082,134.0539717468082,134.0539717468082,l,1,0.43995431008988817,134.5205952488759,134.5205952488759,134.5205952488759,135.5371933955148,135.5371933955148,135.5371933955148,,,,,,,,,,,,,,,,,,,,,,,,,100,001,2023-03-01_09h57.41.633,eb_01,2022.2.4,60.00499905796376,
,,,0,0,0,0,54,0,54,0,,,,,,,,,,,,,,,,,,,,,,,,,,,,,,,,,,,,,,,,,,,,,,,,,,,,,,,,,,,,100,001,2023-03-01_09h57.41.633,eb_01,2022.2.4,60.00499905796376,
8,stimuli/8.png,l,0,0,0,0,55,0,55,0,0,0,0,0,,,,,,,,,,,,,,,,,,,135.5371933955148,135.5371933955148,135.5371933955148,135.5371933955148,l,1,0.4767697889756164,136.03715204201762,136.03715204201762,136.03715204201762,137.03709197379976,137.03709197379976,137.03709197379976,,,,,,,,,,,,,,,,,,,,,,,,,100,001,2023-03-01_09h57.41.633,eb_01,2022.2.4,60.00499905796376,
,,,0,0,0,0,55,0,55,0,,,,,,,,,,,,,,,,,,,,,,,,,,,,,,,,,,,,,,,,,,,,,,,,,,,,,,,,,,,,100,001,2023-03-01_09h57.41.633,eb_01,2022.2.4,60.00499905796376,
3,stimuli/3.png,l,0,0,0,0,56,0,56,0,0,0,0,0,,,,,,,,,,,,,,,,,,,137.03709197379976,137.03709197379976,137.03709197379976,137.03709197379976,l,1,0.43291666935238027,137.48707778683365,137.48707778683365,137.48707778683365,138.50368166862881,138.50368166862881,138.50368166862881,,,,,,,,,,,,,,,,,,,,,,,,,100,001,2023-03-01_09h57.41.633,eb_01,2022.2.4,60.00499905796376,
,,,0,0,0,0,56,0,56,0,,,,,,,,,,,,,,,,,,,,,,,,,,,,,,,,,,,,,,,,,,,,,,,,,,,,,,,,,,,,100,001,2023-03-01_09h57.41.633,eb_01,2022.2.4,60.00499905796376,
8,stimuli/8.png,l,0,0,0,0,57,0,57,0,0,0,0,0,,,,,,,,,,,,,,,,,,,138.50368166862881,138.50368166862881,138.50368166862881,138.50368166862881,l,1,0.5583532958735304,139.0869733466152,139.0869733466152,139.0869733466152,140.1035660599482,140.1035660599482,140.1035660599482,,,,,,,,,,,,,,,,,,,,,,,,,100,001,2023-03-01_09h57.41.633,eb_01,2022.2.4,60.00499905796376,
,,,0,0,0,0,57,0,57,0,,,,,,,,,,,,,,,,,,,,,,,,,,,,,,,,,,,,,,,,,,,,,,,,,,,,,,,,,,,,100,001,2023-03-01_09h57.41.633,eb_01,2022.2.4,60.00499905796376,
6,stimuli/6.png,s,0,0,0,0,58,0,58,0,0,0,0,0,,,,,,,,,,,,,,,,,,,140.1035660599482,140.1035660599482,140.1035660599482,140.1035660599482,s,1,0.5265240827975504,140.6702288025599,140.6702288025599,140.6702288025599,,,,,,,,,,,,,,,,,,,,,,,,,,,,100,001,2023-03-01_09h57.41.633,eb_01,2022.2.4,60.00499905796376,
,,,0,0,0,0,58,0,58,0,,,,,,,,,,,,,,,,,,,,,,,,,,,,,,,,,,,,,,,,,,,,,,,,,,,,,,,,,,,,100,001,2023-03-01_09h57.41.633,eb_01,2022.2.4,60.00499905796376,
5,stimuli/5.png,s,0,0,0,0,59,0,59,0,0,0,0,0,,,,,,,,,,,,,,,,,,,141.66982673790335,141.66982673790335,141.66982673790335,141.66982673790335,s,1,0.5922845947343376,142.28682272329388,142.28682272329388,142.28682272329388,143.30338827009564,143.30338827009564,143.30338827009564,,,,,,,,,,,,,,,,,,,,,,,,,100,001,2023-03-01_09h57.41.633,eb_01,2022.2.4,60.00499905796376,
,,,0,0,0,0,59,0,59,0,,,,,,,,,,,,,,,,,,,,,,,,,,,,,,,,,,,,,,,,,,,,,,,,,,,,,,,,,,,,100,001,2023-03-01_09h57.41.633,eb_01,2022.2.4,60.00499905796376,
6,stimuli/6.png,s,0,0,0,0,60,0,60,0,0,0,0,0,,,,,,,,,,,,,,,,,,,143.30338827009564,143.30338827009564,143.30338827009564,143.30338827009564,s,1,0.47075783570198837,143.82004889975633,143.82004889975633,143.82004889975633,,,,,,,,,,,,,,,,,,,,,,,,,,,,100,001,2023-03-01_09h57.41.633,eb_01,2022.2.4,60.00499905796376,
,,,0,0,0,0,60,0,60,0,,,,,,,,,,,,,,,,,,,,,,,,,,,,,,,,,,,,,,,,,,,,,,,,,,,,,,,,,,,,100,001,2023-03-01_09h57.41.633,eb_01,2022.2.4,60.00499905796376,
9,stimuli/9.png,l,0,0,0,0,61,0,61,0,0,0,0,0,,,,,,,,,,,,,,,,,,,144.83660569289805,144.83660569289805,144.83660569289805,144.83660569289805,l,1,0.47359975667768595,145.35325636149628,145.35325636149628,145.35325636149628,,,,,,,,,,,,,,,,,,,,,,,,,,,,100,001,2023-03-01_09h57.41.633,eb_01,2022.2.4,60.00499905796376,
,,,0,0,0,0,61,0,61,0,,,,,,,,,,,,,,,,,,,,,,,,,,,,,,,,,,,,,,,,,,,,,,,,,,,,,,,,,,,,100,001,2023-03-01_09h57.41.633,eb_01,2022.2.4,60.00499905796376,
6,stimuli/6.png,s,0,0,0,0,62,0,62,0,0,0,0,0,,,,,,,,,,,,,,,,,,,146.36986446919673,146.36986446919673,146.36986446919673,146.36986446919673,s,1,0.6043561936357946,147.0198125509378,147.0198125509378,147.0198125509378,,,,,,,,,,,,,,,,,,,,,,,,,,,,100,001,2023-03-01_09h57.41.633,eb_01,2022.2.4,60.00499905796376,
,,,0,0,0,0,62,0,62,0,,,,,,,,,,,,,,,,,,,,,,,,,,,,,,,,,,,,,,,,,,,,,,,,,,,,,,,,,,,,100,001,2023-03-01_09h57.41.633,eb_01,2022.2.4,60.00499905796376,
8,stimuli/8.png,l,0,0,0,0,63,0,63,0,0,0,0,0,,,,,,,,,,,,,,,,,,,148.03642699749525,148.03642699749525,148.03642699749525,148.03642699749525,l,1,0.4578247559229567,148.5197301457938,148.5197301457938,148.5197301457938,149.53632195357568,149.53632195357568,149.53632195357568,,,,,,,,,,,,,,,,,,,,,,,,,100,001,2023-03-01_09h57.41.633,eb_01,2022.2.4,60.00499905796376,
,,,0,0,0,0,63,0,63,0,,,,,,,,,,,,,,,,,,,,,,,,,,,,,,,,,,,,,,,,,,,,,,,,,,,,,,,,,,,,100,001,2023-03-01_09h57.41.633,eb_01,2022.2.4,60.00499905796376,
6,stimuli/6.png,s,0,0,0,0,64,0,64,0,0,0,0,0,,,,,,,,,,,,,,,,,,,149.53632195357568,149.53632195357568,149.53632195357568,149.53632195357568,s,1,0.6289711835242997,150.20294907784773,150.20294907784773,150.20294907784773,,,,,,,,,,,,,,,,,,,,,,,,,,,,100,001,2023-03-01_09h57.41.633,eb_01,2022.2.4,60.00499905796376,
,,,0,0,0,0,64,0,64,0,,,,,,,,,,,,,,,,,,,,,,,,,,,,,,,,,,,,,,,,,,,,,,,,,,,,,,,,,,,,100,001,2023-03-01_09h57.41.633,eb_01,2022.2.4,60.00499905796376,
8,stimuli/8.png,l,0,0,0,0,65,0,65,0,0,0,0,0,,,,,,,,,,,,,,,,,,,151.20256965196677,151.20256965196677,151.20256965196677,151.20256965196677,l,1,0.6587505309234984,151.88620272269054,151.88620272269054,151.88620272269054,152.90280026562868,152.90280026562868,152.90280026562868,,,,,,,,,,,,,,,,,,,,,,,,,100,001,2023-03-01_09h57.41.633,eb_01,2022.2.4,60.00499905796376,
,,,0,0,0,0,65,0,65,0,,,,,,,,,,,,,,,,,,,,,,,,,,,,,,,,,,,,,,,,,,,,,,,,,,,,,,,,,,,,100,001,2023-03-01_09h57.41.633,eb_01,2022.2.4,60.00499905796376,
9,stimuli/9.png,l,0,0,0,0,66,0,66,0,0,0,0,0,,,,,,,,,,,,,,,,,,,152.90280026562868,152.90280026562868,152.90280026562868,152.90280026562868,l,1,0.5585618744598833,153.5027664583904,153.5027664583904,153.5027664583904,,,,,,,,,,,,,,,,,,,,,,,,,,,,100,001,2023-03-01_09h57.41.633,eb_01,2022.2.4,60.00499905796376,
,,,0,0,0,0,66,0,66,0,,,,,,,,,,,,,,,,,,,,,,,,,,,,,,,,,,,,,,,,,,,,,,,,,,,,,,,,,,,,100,001,2023-03-01_09h57.41.633,eb_01,2022.2.4,60.00499905796376,
8,stimuli/8.png,l,0,0,0,0,67,0,67,0,0,0,0,0,,,,,,,,,,,,,,,,,,,154.5193697364848,154.5193697364848,154.5193697364848,154.5193697364848,l,1,0.39807559355722333,154.93599565335535,154.93599565335535,154.93599565335535,155.9526291164848,155.9526291164848,155.9526291164848,,,,,,,,,,,,,,,,,,,,,,,,,100,001,2023-03-01_09h57.41.633,eb_01,2022.2.4,60.00499905796376,
,,,0,0,0,0,67,0,67,0,,,,,,,,,,,,,,,,,,,,,,,,,,,,,,,,,,,,,,,,,,,,,,,,,,,,,,,,,,,,100,001,2023-03-01_09h57.41.633,eb_01,2022.2.4,60.00499905796376,
9,stimuli/9.png,l,0,0,0,0,68,0,68,0,0,0,0,0,,,,,,,,,,,,,,,,,,,155.9526291164848,155.9526291164848,155.9526291164848,155.9526291164848,l,1,0.45280800322871073,156.45258836668836,156.45258836668836,156.45258836668836,,,,,,,,,,,,,,,,,,,,,,,,,,,,100,001,2023-03-01_09h57.41.633,eb_01,2022.2.4,60.00499905796376,
,,,0,0,0,0,68,0,68,0,,,,,,,,,,,,,,,,,,,,,,,,,,,,,,,,,,,,,,,,,,,,,,,,,,,,,,,,,,,,100,001,2023-03-01_09h57.41.633,eb_01,2022.2.4,60.00499905796376,
8,stimuli/8.png,l,0,0,0,0,69,0,69,0,0,0,0,0,,,,,,,,,,,,,,,,,,,157.46919888919092,157.46919888919092,157.46919888919092,157.46919888919092,l,1,0.5203047583372609,158.01912433215693,158.01912433215693,158.01912433215693,159.0191050137346,159.0191050137346,159.0191050137346,,,,,,,,,,,,,,,,,,,,,,,,,100,001,2023-03-01_09h57.41.633,eb_01,2022.2.4,60.00499905796376,
,,,0,0,0,0,69,0,69,0,,,,,,,,,,,,,,,,,,,,,,,,,,,,,,,,,,,,,,,,,,,,,,,,,,,,,,,,,,,,100,001,2023-03-01_09h57.41.633,eb_01,2022.2.4,60.00499905796376,
3,stimuli/3.png,l,0,0,0,0,70,0,70,0,0,0,0,0,,,,,,,,,,,,,,,,,,,159.0191050137346,159.0191050137346,159.0191050137346,159.0191050137346,l,1,0.5384260418059057,159.58572489359813,159.58572489359813,159.58572489359813,160.60232756799178,160.60232756799178,160.60232756799178,,,,,,,,,,,,,,,,,,,,,,,,,100,001,2023-03-01_09h57.41.633,eb_01,2022.2.4,60.00499905796376,
,,,0,0,0,0,70,0,70,0,,,,,,,,,,,,,,,,,,,,,,,,,,,,,,,,,,,,,,,,,,,,,,,,,,,,,,,,,,,,100,001,2023-03-01_09h57.41.633,eb_01,2022.2.4,60.00499905796376,
4,stimuli/4.png,l,0,0,0,0,71,0,71,0,0,0,0,0,,,,,,,,,,,,,,,,,,,160.60232756799178,160.60232756799178,160.60232756799178,160.60232756799178,l,1,0.8512595109714312,161.48562830148876,161.48562830148876,161.48562830148876,162.48525038485968,162.48525038485968,162.48525038485968,,,,,,,,,,,,,,,,,,,,,,,,,100,001,2023-03-01_09h57.41.633,eb_01,2022.2.4,60.00499905796376,
,,,0,0,0,0,71,0,71,0,,,,,,,,,,,,,,,,,,,,,,,,,,,,,,,,,,,,,,,,,,,,,,,,,,,,,,,,,,,,100,001,2023-03-01_09h57.41.633,eb_01,2022.2.4,60.00499905796376,
3,stimuli/3.png,l,0,0,0,0,72,0,72,0,0,0,0,0,,,,,,,,,,,,,,,,,,,162.48525038485968,162.48525038485968,162.48525038485968,162.48525038485968,l,1,0.4963429725912647,163.00217090766455,163.00217090766455,163.00217090766455,164.00211355609918,164.00211355609918,164.00211355609918,,,,,,,,,,,,,,,,,,,,,,,,,100,001,2023-03-01_09h57.41.633,eb_01,2022.2.4,60.00499905796376,
,,,0,0,0,0,72,0,72,0,,,,,,,,,,,,,,,,,,,,,,,,,,,,,,,,,,,,,,,,,,,,,,,,,,,,,,,,,,,,100,001,2023-03-01_09h57.41.633,eb_01,2022.2.4,60.00499905796376,
2,stimuli/2.png,s,0,0,0,0,73,0,73,0,0,0,0,0,,,,,,,,,,,,,,,,,,,164.00211355609918,164.00211355609918,164.00211355609918,164.00211355609918,s,1,0.5155838189803035,164.535440550575,164.535440550575,164.535440550575,165.55203235835688,165.55203235835688,165.55203235835688,,,,,,,,,,,,,,,,,,,,,,,,,100,001,2023-03-01_09h57.41.633,eb_01,2022.2.4,60.00499905796376,
,,,0,0,0,0,73,0,73,0,,,,,,,,,,,,,,,,,,,,,,,,,,,,,,,,,,,,,,,,,,,,,,,,,,,,,,,,,,,,100,001,2023-03-01_09h57.41.633,eb_01,2022.2.4,60.00499905796376,
4,stimuli/4.png,l,0,0,0,0,74,0,74,0,0,0,0,0,,,,,,,,,,,,,,,,,,,165.55203235835688,165.55203235835688,165.55203235835688,165.55203235835688,l,1,0.5486400536983638,166.11866793443824,166.11866793443824,166.11866793443824,167.15191192007023,167.15191192007023,167.15191192007023,,,,,,,,,,,,,,,,,,,,,,,,,100,001,2023-03-01_09h57.41.633,eb_01,2022.2.4,60.00499905796376,
,,,0,0,0,0,74,0,74,0,,,,,,,,,,,,,,,,,,,,,,,,,,,,,,,,,,,,,,,,,,,,,,,,,,,,,,,,,,,,100,001,2023-03-01_09h57.41.633,eb_01,2022.2.4,60.00499905796376,
1,stimuli/1.png,s,0,0,0,0,75,0,75,0,0,0,0,0,,,,,,,,,,,,,,,,,,,167.15191192007023,167.15191192007023,167.15191192007023,167.15191192007023,s,1,1.0688262953599406,168.26852666847844,168.26852666847844,168.26852666847844,,,,,,,,,,,,,,,,,,,,,,,,,,,,100,001,2023-03-01_09h57.41.633,eb_01,2022.2.4,60.00499905796376,
,,,0,0,0,0,75,0,75,0,,,,,,,,,,,,,,,,,,,,,,,,,,,,,,,,,,,,,,,,,,,,,,,,,,,,,,,,,,,,100,001,2023-03-01_09h57.41.633,eb_01,2022.2.4,60.00499905796376,
4,stimuli/4.png,l,0,0,0,0,76,0,76,0,0,0,0,0,,,,,,,,,,,,,,,,,,,169.28518850553974,169.28518850553974,169.28518850553974,169.28518850553974,l,1,0.567588708954645,169.88508436717075,169.88508436717075,169.88508436717075,170.88502460080326,170.88502460080326,170.88502460080326,,,,,,,,,,,,,,,,,,,,,,,,,100,001,2023-03-01_09h57.41.633,eb_01,2022.2.4,60.00499905796376,
,,,0,0,0,0,76,0,76,0,,,,,,,,,,,,,,,,,,,,,,,,,,,,,,,,,,,,,,,,,,,,,,,,,,,,,,,,,,,,100,001,2023-03-01_09h57.41.633,eb_01,2022.2.4,60.00499905796376,
2,stimuli/2.png,s,0,0,0,0,77,0,77,0,0,0,0,0,,,,,,,,,,,,,,,,,,,170.88502460080326,170.88502460080326,170.88502460080326,170.88502460080326,s,1,0.5837262319710135,171.50167677865375,171.50167677865375,171.50167677865375,172.51823900510135,172.51823900510135,172.51823900510135,,,,,,,,,,,,,,,,,,,,,,,,,100,001,2023-03-01_09h57.41.633,eb_01,2022.2.4,60.00499905796376,
,,,0,0,0,0,77,0,77,0,,,,,,,,,,,,,,,,,,,,,,,,,,,,,,,,,,,,,,,,,,,,,,,,,,,,,,,,,,,,100,001,2023-03-01_09h57.41.633,eb_01,2022.2.4,60.00499905796376,
1,stimuli/1.png,s,0,0,0,0,78,0,78,0,0,0,0,0,,,,,,,,,,,,,,,,,,,172.51823900510135,172.51823900510135,172.51823900510135,172.51823900510135,s,1,0.3665835473148036,172.91824594765967,172.91824594765967,172.91824594765967,,,,,,,,,,,,,,,,,,,,,,,,,,,,100,001,2023-03-01_09h57.41.633,eb_01,2022.2.4,60.00499905796376,
,,,0,0,0,0,78,0,78,0,,,,,,,,,,,,,,,,,,,,,,,,,,,,,,,,,,,,,,,,,,,,,,,,,,,,,,,,,,,,100,001,2023-03-01_09h57.41.633,eb_01,2022.2.4,60.00499905796376,
4,stimuli/4.png,l,0,0,0,0,79,0,79,0,0,0,0,0,,,,,,,,,,,,,,,,,,,173.9348528479586,173.9348528479586,173.9348528479586,173.9348528479586,l,1,0.47800284762524825,174.43484077394442,174.43484077394442,174.43484077394442,175.45143077062403,175.45143077062403,175.45143077062403,,,,,,,,,,,,,,,,,,,,,,,,,100,001,2023-03-01_09h57.41.633,eb_01,2022.2.4,60.00499905796376,
,,,0,0,0,0,79,0,79,0,,,,,,,,,,,,,,,,,,,,,,,,,,,,,,,,,,,,,,,,,,,,,,,,,,,,,,,,,,,,100,001,2023-03-01_09h57.41.633,eb_01,2022.2.4,60.00499905796376,
1,stimuli/1.png,s,0,0,0,0,80,0,80,0,0,0,0,0,,,,,,,,,,,,,,,,,,,175.45143077062403,175.45143077062403,175.45143077062403,175.45143077062403,s,1,0.49747400582509727,175.98473693742653,175.98473693742653,175.98473693742653,,,,,,,,,,,,,,,,,,,,,,,,,,,,100,001,2023-03-01_09h57.41.633,eb_01,2022.2.4,60.00499905796376,
,,,0,0,0,0,80,0,80,0,,,,,,,,,,,,,,,,,,,,,,,,,,,,,,,,,,,,,,,,,,,,,,,,,,,,,,,,,,,,100,001,2023-03-01_09h57.41.633,eb_01,2022.2.4,60.00499905796376,
2,stimuli/2.png,s,0,0,0,0,81,0,81,0,0,0,0,0,,,,,,,,,,,,,,,,,,,176.98464758972568,176.98464758972568,176.98464758972568,176.98464758972568,s,1,0.5722833873333002,177.58464608047325,177.58464608047325,177.58464608047325,178.58455461981976,178.58455461981976,178.58455461981976,,,,,,,,,,,,,,,,,,,,,,,,,100,001,2023-03-01_09h57.41.633,eb_01,2022.2.4,60.00499905796376,
,,,0,0,0,0,81,0,81,0,,,,,,,,,,,,,,,,,,,,,,,,,,,,,,,,,,,,,,,,,,,,,,,,,,,,,,,,,,,,100,001,2023-03-01_09h57.41.633,eb_01,2022.2.4,60.00499905796376,
3,stimuli/3.png,l,0,0,0,0,82,0,82,0,0,0,0,0,,,,,,,,,,,,,,,,,,,178.58455461981976,178.58455461981976,178.58455461981976,178.58455461981976,l,1,0.44440901744656003,179.05120317546607,179.05120317546607,179.05120317546607,180.0678260738332,180.0678260738332,180.0678260738332,,,,,,,,,,,,,,,,,,,,,,,,,100,001,2023-03-01_09h57.41.633,eb_01,2022.2.4,60.00499905796376,
,,,0,0,0,0,82,0,82,0,,,,,,,,,,,,,,,,,,,,,,,,,,,,,,,,,,,,,,,,,,,,,,,,,,,,,,,,,,,,100,001,2023-03-01_09h57.41.633,eb_01,2022.2.4,60.00499905796376,
8,stimuli/8.png,l,0,0,0,0,83,0,83,0,0,0,0,0,,,,,,,,,,,,,,,,,,,180.0678260738332,180.0678260738332,180.0678260738332,180.0678260738332,l,1,0.41625664339335344,180.50112590177832,180.50112590177832,180.50112590177832,181.51770774849865,181.51770774849865,181.51770774849865,,,,,,,,,,,,,,,,,,,,,,,,,100,001,2023-03-01_09h57.41.633,eb_01,2022.2.4,60.00499905796376,
,,,0,0,0,0,83,0,83,0,,,,,,,,,,,,,,,,,,,,,,,,,,,,,,,,,,,,,,,,,,,,,,,,,,,,,,,,,,,,100,001,2023-03-01_09h57.41.633,eb_01,2022.2.4,60.00499905796376,
9,stimuli/9.png,l,0,0,0,0,84,0,84,0,0,0,0,0,,,,,,,,,,,,,,,,,,,181.51770774849865,181.51770774849865,181.51770774849865,181.51770774849865,l,1,0.3903219638068549,181.9510428929343,181.9510428929343,181.9510428929343,,,,,,,,,,,,,,,,,,,,,,,,,,,,100,001,2023-03-01_09h57.41.633,eb_01,2022.2.4,60.00499905796376,
,,,0,0,0,0,84,0,84,0,,,,,,,,,,,,,,,,,,,,,,,,,,,,,,,,,,,,,,,,,,,,,,,,,,,,,,,,,,,,100,001,2023-03-01_09h57.41.633,eb_01,2022.2.4,60.00499905796376,
6,stimuli/6.png,s,0,0,0,0,85,0,85,0,0,0,0,0,,,,,,,,,,,,,,,,,,,182.96764466177683,182.96764466177683,182.96764466177683,182.96764466177683,s,1,0.5564190388768111,183.56759847867488,183.56759847867488,183.56759847867488,,,,,,,,,,,,,,,,,,,,,,,,,,,,100,001,2023-03-01_09h57.41.633,eb_01,2022.2.4,60.00499905796376,
,,,0,0,0,0,85,0,85,0,,,,,,,,,,,,,,,,,,,,,,,,,,,,,,,,,,,,,,,,,,,,,,,,,,,,,,,,,,,,100,001,2023-03-01_09h57.41.633,eb_01,2022.2.4,60.00499905796376,
5,stimuli/5.png,s,0,0,0,0,86,0,86,0,0,0,0,0,,,,,,,,,,,,,,,,,,,184.56725436928446,184.56725436928446,184.56725436928446,184.56725436928446,s,1,0.4208828017435735,185.01755139002125,185.01755139002125,185.01755139002125,186.03412719973494,186.03412719973494,186.03412719973494,,,,,,,,,,,,,,,,,,,,,,,,,100,001,2023-03-01_09h57.41.633,eb_01,2022.2.4,60.00499905796376,
,,,0,0,0,0,86,0,86,0,,,,,,,,,,,,,,,,,,,,,,,,,,,,,,,,,,,,,,,,,,,,,,,,,,,,,,,,,,,,100,001,2023-03-01_09h57.41.633,eb_01,2022.2.4,60.00499905796376,
6,stimuli/6.png,s,0,0,0,0,87,0,87,0,0,0,0,0,,,,,,,,,,,,,,,,,,,186.03412719973494,186.03412719973494,186.03412719973494,186.03412719973494,s,1,0.4740790950208975,186.55074224999316,186.55074224999316,186.55074224999316,,,,,,,,,,,,,,,,,,,,,,,,,,,,100,001,2023-03-01_09h57.41.633,eb_01,2022.2.4,60.00499905796376,
,,,0,0,0,0,87,0,87,0,,,,,,,,,,,,,,,,,,,,,,,,,,,,,,,,,,,,,,,,,,,,,,,,,,,,,,,,,,,,100,001,2023-03-01_09h57.41.633,eb_01,2022.2.4,60.00499905796376,
9,stimuli/9.png,l,0,0,0,0,88,0,88,0,0,0,0,0,,,,,,,,,,,,,,,,,,,187.56736454465954,187.56736454465954,187.56736454465954,187.56736454465954,l,1,0.7808408445462192,188.38395786169258,188.38395786169258,188.38395786169258,,,,,,,,,,,,,,,,,,,,,,,,,,,,100,001,2023-03-01_09h57.41.633,eb_01,2022.2.4,60.00499905796376,
,,,0,0,0,0,88,0,88,0,,,,,,,,,,,,,,,,,,,,,,,,,,,,,,,,,,,,,,,,,,,,,,,,,,,,,,,,,,,,100,001,2023-03-01_09h57.41.633,eb_01,2022.2.4,60.00499905796376,
8,stimuli/8.png,l,0,0,0,0,89,0,89,0,0,0,0,0,,,,,,,,,,,,,,,,,,,189.40059253222262,189.40059253222262,189.40059253222262,189.40059253222262,l,1,0.4837174783115188,189.91724561562387,189.91724561562387,189.91724561562387,190.9338156901813,190.9338156901813,190.9338156901813,,,,,,,,,,,,,,,,,,,,,,,,,100,001,2023-03-01_09h57.41.633,eb_01,2022.2.4,60.00499905796376,
,,,0,0,0,0,89,0,89,0,,,,,,,,,,,,,,,,,,,,,,,,,,,,,,,,,,,,,,,,,,,,,,,,,,,,,,,,,,,,100,001,2023-03-01_09h57.41.633,eb_01,2022.2.4,60.00499905796376,
9,stimuli/9.png,l,0,0,0,0,90,0,90,0,0,0,0,0,,,,,,,,,,,,,,,,,,,190.9338156901813,190.9338156901813,190.9338156901813,190.9338156901813,l,1,0.5264326221431475,191.50044462555525,191.50044462555525,191.50044462555525,,,,,,,,,,,,,,,,,,,,,,,,,,,,100,001,2023-03-01_09h57.41.633,eb_01,2022.2.4,60.00499905796376,
,,,0,0,0,0,90,0,90,0,,,,,,,,,,,,,,,,,,,,,,,,,,,,,,,,,,,,,,,,,,,,,,,,,,,,,,,,,,,,100,001,2023-03-01_09h57.41.633,eb_01,2022.2.4,60.00499905796376,
8,stimuli/8.png,l,0,0,0,0,91,0,91,0,0,0,0,0,,,,,,,,,,,,,,,,,,,192.50005463491198,192.50005463491198,192.50005463491198,192.50005463491198,l,1,0.46424873491378094,192.98371668326854,192.98371668326854,192.98371668326854,193.98362401521354,193.98362401521354,193.98362401521354,,,,,,,,,,,,,,,,,,,,,,,,,100,001,2023-03-01_09h57.41.633,eb_01,2022.2.4,60.00499905796376,
,,,0,0,0,0,91,0,91,0,,,,,,,,,,,,,,,,,,,,,,,,,,,,,,,,,,,,,,,,,,,,,,,,,,,,,,,,,,,,100,001,2023-03-01_09h57.41.633,eb_01,2022.2.4,60.00499905796376,
3,stimuli/3.png,l,0,0,0,0,92,0,92,0,0,0,0,0,,,,,,,,,,,,,,,,,,,193.98362401521354,193.98362401521354,193.98362401521354,193.98362401521354,l,1,0.4367217947710742,194.45028162637027,194.45028162637027,194.45028162637027,195.46689818587947,195.46689818587947,195.46689818587947,,,,,,,,,,,,,,,,,,,,,,,,,100,001,2023-03-01_09h57.41.633,eb_01,2022.2.4,60.00499905796376,
,,,0,0,0,0,92,0,92,0,,,,,,,,,,,,,,,,,,,,,,,,,,,,,,,,,,,,,,,,,,,,,,,,,,,,,,,,,,,,100,001,2023-03-01_09h57.41.633,eb_01,2022.2.4,60.00499905796376,
8,stimuli/8.png,l,0,0,0,0,93,0,93,0,0,0,0,0,,,,,,,,,,,,,,,,,,,195.46689818587947,195.46689818587947,195.46689818587947,195.46689818587947,l,1,0.4174709873213942,195.91686045458664,195.91686045458664,195.91686045458664,196.91679284011025,196.91679284011025,196.91679284011025,,,,,,,,,,,,,,,,,,,,,,,,,100,001,2023-03-01_09h57.41.633,eb_01,2022.2.4,60.00499905796376,
,,,0,0,0,0,93,0,93,0,,,,,,,,,,,,,,,,,,,,,,,,,,,,,,,,,,,,,,,,,,,,,,,,,,,,,,,,,,,,100,001,2023-03-01_09h57.41.633,eb_01,2022.2.4,60.00499905796376,
3,stimuli/3.png,l,0,0,0,0,94,0,94,0,0,0,0,0,,,,,,,,,,,,,,,,,,,196.91679284011025,196.91679284011025,196.91679284011025,196.91679284011025,l,1,0.48658324546431686,197.43344139575674,197.43344139575674,197.43344139575674,198.45005644601406,198.45005644601406,198.45005644601406,,,,,,,,,,,,,,,,,,,,,,,,,100,001,2023-03-01_09h57.41.633,eb_01,2022.2.4,60.00499905796376,
,,,0,0,0,0,94,0,94,0,,,,,,,,,,,,,,,,,,,,,,,,,,,,,,,,,,,,,,,,,,,,,,,,,,,,,,,,,,,,100,001,2023-03-01_09h57.41.633,eb_01,2022.2.4,60.00499905796376,
8,stimuli/8.png,l,0,0,0,0,95,0,95,0,0,0,0,0,,,,,,,,,,,,,,,,,,,198.45005644601406,198.45005644601406,198.45005644601406,198.45005644601406,l,1,0.39338332998249825,198.86665006489784,198.86665006489784,198.86665006489784,199.86661022065255,199.86661022065255,199.86661022065255,,,,,,,,,,,,,,,,,,,,,,,,,100,001,2023-03-01_09h57.41.633,eb_01,2022.2.4,60.00499905796376,
,,,0,0,0,0,95,0,95,0,,,,,,,,,,,,,,,,,,,,,,,,,,,,,,,,,,,,,,,,,,,,,,,,,,,,,,,,,,,,100,001,2023-03-01_09h57.41.633,eb_01,2022.2.4,60.00499905796376,
3,stimuli/3.png,l,0,0,0,0,96,0,96,0,0,0,0,0,,,,,,,,,,,,,,,,,,,199.86661022065255,199.86661022065255,199.86661022065255,199.86661022065255,l,1,0.5128457345217612,200.39992906517,200.39992906517,200.39992906517,201.3998708080535,201.3998708080535,201.3998708080535,,,,,,,,,,,,,,,,,,,,,,,,,100,001,2023-03-01_09h57.41.633,eb_01,2022.2.4,60.00499905796376,
,,,0,0,0,0,96,0,96,0,,,,,,,,,,,,,,,,,,,,,,,,,,,,,,,,,,,,,,,,,,,,,,,,,,,,,,,,,,,,100,001,2023-03-01_09h57.41.633,eb_01,2022.2.4,60.00499905796376,
2,stimuli/2.png,s,0,0,0,0,97,0,97,0,0,0,0,0,,,,,,,,,,,,,,,,,,,201.3998708080535,201.3998708080535,201.3998708080535,201.3998708080535,s,1,0.5236676730055478,201.94984696187657,201.94984696187657,201.94984696187657,202.94977029188976,202.94977029188976,202.94977029188976,,,,,,,,,,,,,,,,,,,,,,,,,100,001,2023-03-01_09h57.41.633,eb_01,2022.2.4,60.00499905796376,
,,,0,0,0,0,97,0,97,0,,,,,,,,,,,,,,,,,,,,,,,,,,,,,,,,,,,,,,,,,,,,,,,,,,,,,,,,,,,,100,001,2023-03-01_09h57.41.633,eb_01,2022.2.4,60.00499905796376,
3,stimuli/3.png,l,0,0,0,0,98,0,98,0,0,0,0,0,,,,,,,,,,,,,,,,,,,202.94977029188976,202.94977029188976,202.94977029188976,202.94977029188976,l,1,0.5657803235526444,203.53303812369904,203.53303812369904,203.53303812369904,204.54965498505862,204.54965498505862,204.54965498505862,,,,,,,,,,,,,,,,,,,,,,,,,100,001,2023-03-01_09h57.41.633,eb_01,2022.2.4,60.00499905796376,
,,,0,0,0,0,98,0,98,0,,,,,,,,,,,,,,,,,,,,,,,,,,,,,,,,,,,,,,,,,,,,,,,,,,,,,,,,,,,,100,001,2023-03-01_09h57.41.633,eb_01,2022.2.4,60.00499905796376,
8,stimuli/8.png,l,0,0,0,0,99,0,99,0,0,0,0,0,,,,,,,,,,,,,,,,,,,204.54965498505862,204.54965498505862,204.54965498505862,204.54965498505862,l,1,0.4619326372358046,205.03297171662325,205.03297171662325,205.03297171662325,206.03287270971123,206.03287270971123,206.03287270971123,,,,,,,,,,,,,,,,,,,,,,,,,100,001,2023-03-01_09h57.41.633,eb_01,2022.2.4,60.00499905796376,
,,,0,0,0,0,99,0,99,0,,,,,,,,,,,,,,,,,,,,,,,,,,,,,,,,,,,,,,,,,,,,,,,,,,,,,,,,,,,,100,001,2023-03-01_09h57.41.633,eb_01,2022.2.4,60.00499905796376,
,,,0,0,0,0,,,,,,,,,,,,,,,,,,,,,,,,,,,,,,,,,,,,,,,,206.03287270971123,206.03287270971123,return,26.721354895679724,,,,,,,,,,,,,,,,,,,,,100,001,2023-03-01_09h57.41.633,eb_01,2022.2.4,60.00499905796376,
9,stimuli/9.png,l,1,0,1,0,0,0,0,0,0,0,0,0,,,,,,,,,,,,,,,,,,,232.79793353255536,232.79793353255536,232.79793353255536,232.79793353255536,l,1,1.9963115801556341,234.8311382776419,234.8311382776419,234.8311382776419,,,,,,,,,,,,,,,,,,,,,,,,,,,,100,001,2023-03-01_09h57.41.633,eb_01,2022.2.4,60.00499905796376,
,,,1,0,1,0,0,0,0,0,,,,,,,,,,,,,,,,,,,,,,,,,,,,,,,,,,,,,,,,,,,,,,,,,,,,,,,,,,,,100,001,2023-03-01_09h57.41.633,eb_01,2022.2.4,60.00499905796376,
5,stimuli/5.png,s,1,0,1,0,1,0,1,0,0,0,0,0,,,,,,,,,,,,,,,,,,,235.83078028313594,235.83078028313594,235.83078028313594,235.83078028313594,s,1,0.49153328923148365,236.34773763168232,236.34773763168232,236.34773763168232,237.36434604123315,237.36434604123315,237.36434604123315,,,,,,,,,,,,,,,,,,,,,,,,,100,001,2023-03-01_09h57.41.633,eb_01,2022.2.4,60.00499905796376,
,,,1,0,1,0,1,0,1,0,,,,,,,,,,,,,,,,,,,,,,,,,,,,,,,,,,,,,,,,,,,,,,,,,,,,,,,,,,,,100,001,2023-03-01_09h57.41.633,eb_01,2022.2.4,60.00499905796376,
6,stimuli/6.png,s,1,0,1,0,2,0,2,0,0,0,0,0,,,,,,,,,,,,,,,,,,,237.36434604123315,237.36434604123315,237.36434604123315,237.36434604123315,s,1,0.47797236074075045,237.8809740710558,237.8809740710558,237.8809740710558,,,,,,,,,,,,,,,,,,,,,,,,,,,,100,001,2023-03-01_09h57.41.633,eb_01,2022.2.4,60.00499905796376,
,,,1,0,1,0,2,0,2,0,,,,,,,,,,,,,,,,,,,,,,,,,,,,,,,,,,,,,,,,,,,,,,,,,,,,,,,,,,,,100,001,2023-03-01_09h57.41.633,eb_01,2022.2.4,60.00499905796376,
9,stimuli/9.png,l,1,0,1,0,3,0,3,0,0,0,0,0,,,,,,,,,,,,,,,,,,,238.89760723233485,238.89760723233485,238.89760723233485,238.89760723233485,l,1,0.448748417970819,239.3808943825652,239.3808943825652,239.3808943825652,,,,,,,,,,,,,,,,,,,,,,,,,,,,100,001,2023-03-01_09h57.41.633,eb_01,2022.2.4,60.00499905796376,
,,,1,0,1,0,3,0,3,0,,,,,,,,,,,,,,,,,,,,,,,,,,,,,,,,,,,,,,,,,,,,,,,,,,,,,,,,,,,,100,001,2023-03-01_09h57.41.633,eb_01,2022.2.4,60.00499905796376,
8,stimuli/8.png,l,1,0,1,0,4,0,4,0,0,0,0,0,,,,,,,,,,,,,,,,,,,240.38050650487548,240.38050650487548,240.38050650487548,240.38050650487548,l,1,0.46991597509622807,240.8808122792725,240.8808122792725,240.8808122792725,241.89738325938015,241.89738325938015,241.89738325938015,,,,,,,,,,,,,,,,,,,,,,,,,100,001,2023-03-01_09h57.41.633,eb_01,2022.2.4,60.00499905796376,
,,,1,0,1,0,4,0,4,0,,,,,,,,,,,,,,,,,,,,,,,,,,,,,,,,,,,,,,,,,,,,,,,,,,,,,,,,,,,,100,001,2023-03-01_09h57.41.633,eb_01,2022.2.4,60.00499905796376,
9,stimuli/9.png,l,1,0,1,0,5,0,5,0,0,0,0,0,,,,,,,,,,,,,,,,,,,241.89738325938015,241.89738325938015,241.89738325938015,241.89738325938015,l,1,0.38508938811901317,242.33068882248244,242.33068882248244,242.33068882248244,,,,,,,,,,,,,,,,,,,,,,,,,,,,100,001,2023-03-01_09h57.41.633,eb_01,2022.2.4,60.00499905796376,
,,,1,0,1,0,5,0,5,0,,,,,,,,,,,,,,,,,,,,,,,,,,,,,,,,,,,,,,,,,,,,,,,,,,,,,,,,,,,,100,001,2023-03-01_09h57.41.633,eb_01,2022.2.4,60.00499905796376,
5,stimuli/5.png,s,1,0,1,0,6,0,6,0,0,0,0,0,,,,,,,,,,,,,,,,,,,243.33033475203047,243.33033475203047,243.33033475203047,243.33033475203047,s,1,0.5271582703671811,243.88060641733864,243.88060641733864,243.88060641733864,244.89722207129762,244.89722207129762,244.89722207129762,,,,,,,,,,,,,,,,,,,,,,,,,100,001,2023-03-01_09h57.41.633,eb_01,2022.2.4,60.00499905796376,
,,,1,0,1,0,6,0,6,0,,,,,,,,,,,,,,,,,,,,,,,,,,,,,,,,,,,,,,,,,,,,,,,,,,,,,,,,,,,,100,001,2023-03-01_09h57.41.633,eb_01,2022.2.4,60.00499905796376,
9,stimuli/9.png,l,1,0,1,0,7,0,7,0,0,0,0,0,,,,,,,,,,,,,,,,,,,244.89722207129762,244.89722207129762,244.89722207129762,244.89722207129762,l,1,0.47223660053077765,245.41390051012786,245.41390051012786,245.41390051012786,,,,,,,,,,,,,,,,,,,,,,,,,,,,100,001,2023-03-01_09h57.41.633,eb_01,2022.2.4,60.00499905796376,
,,,1,0,1,0,7,0,7,0,,,,,,,,,,,,,,,,,,,,,,,,,,,,,,,,,,,,,,,,,,,,,,,,,,,,,,,,,,,,100,001,2023-03-01_09h57.41.633,eb_01,2022.2.4,60.00499905796376,
6,stimuli/6.png,s,1,0,1,0,8,0,8,0,0,0,0,0,,,,,,,,,,,,,,,,,,,246.4304742068889,246.4304742068889,246.4304742068889,246.4304742068889,s,1,0.34708371333181276,246.8137945606568,246.8137945606568,246.8137945606568,,,,,,,,,,,,,,,,,,,,,,,,,,,,100,001,2023-03-01_09h57.41.633,eb_01,2022.2.4,60.00499905796376,
,,,1,0,1,0,8,0,8,0,,,,,,,,,,,,,,,,,,,,,,,,,,,,,,,,,,,,,,,,,,,,,,,,,,,,,,,,,,,,100,001,2023-03-01_09h57.41.633,eb_01,2022.2.4,60.00499905796376,
9,stimuli/9.png,l,1,0,1,0,9,0,9,0,0,0,0,0,,,,,,,,,,,,,,,,,,,247.830373992575,247.830373992575,247.830373992575,247.830373992575,l,1,0.4832236511510928,248.34701892601697,248.34701892601697,248.34701892601697,,,,,,,,,,,,,,,,,,,,,,,,,,,,100,001,2023-03-01_09h57.41.633,eb_01,2022.2.4,60.00499905796376,
,,,1,0,1,0,9,0,9,0,,,,,,,,,,,,,,,,,,,,,,,,,,,,,,,,,,,,,,,,,,,,,,,,,,,,,,,,,,,,100,001,2023-03-01_09h57.41.633,eb_01,2022.2.4,60.00499905796376,
8,stimuli/8.png,l,1,0,1,0,10,0,10,0,0,0,0,0,,,,,,,,,,,,,,,,,,,249.36361978930927,249.36361978930927,249.36361978930927,249.36361978930927,l,1,0.438031825258804,249.83025566724064,249.83025566724064,249.83025566724064,250.82987956171382,250.82987956171382,250.82987956171382,,,,,,,,,,,,,,,,,,,,,,,,,100,001,2023-03-01_09h57.41.633,eb_01,2022.2.4,60.00499905796376,
,,,1,0,1,0,10,0,10,0,,,,,,,,,,,,,,,,,,,,,,,,,,,,,,,,,,,,,,,,,,,,,,,,,,,,,,,,,,,,100,001,2023-03-01_09h57.41.633,eb_01,2022.2.4,60.00499905796376,
3,stimuli/3.png,l,1,0,1,0,11,0,11,0,0,0,0,0,,,,,,,,,,,,,,,,,,,250.82987956171382,250.82987956171382,250.82987956171382,250.82987956171382,l,1,0.3797590129188393,251.23018352500912,251.23018352500912,251.23018352500912,252.2467910290079,252.2467910290079,252.2467910290079,,,,,,,,,,,,,,,,,,,,,,,,,100,001,2023-03-01_09h57.41.633,eb_01,2022.2.4,60.00499905796376,
,,,1,0,1,0,11,0,11,0,,,,,,,,,,,,,,,,,,,,,,,,,,,,,,,,,,,,,,,,,,,,,,,,,,,,,,,,,,,,100,001,2023-03-01_09h57.41.633,eb_01,2022.2.4,60.00499905796376,
8,stimuli/8.png,l,1,0,1,0,12,0,12,0,0,0,0,0,,,,,,,,,,,,,,,,,,,252.2467910290079,252.2467910290079,252.2467910290079,252.2467910290079,l,1,0.4509039312679306,252.73008995140208,252.73008995140208,252.73008995140208,253.72999939629972,253.72999939629972,253.72999939629972,,,,,,,,,,,,,,,,,,,,,,,,,100,001,2023-03-01_09h57.41.633,eb_01,2022.2.4,60.00499905796376,
,,,1,0,1,0,12,0,12,0,,,,,,,,,,,,,,,,,,,,,,,,,,,,,,,,,,,,,,,,,,,,,,,,,,,,,,,,,,,,100,001,2023-03-01_09h57.41.633,eb_01,2022.2.4,60.00499905796376,
3,stimuli/3.png,l,1,0,1,0,13,0,13,0,0,0,0,0,,,,,,,,,,,,,,,,,,,253.72999939629972,253.72999939629972,253.72999939629972,253.72999939629972,l,1,0.3757205571846498,254.12999124634007,254.12999124634007,254.12999124634007,255.12992936701994,255.12992936701994,255.12992936701994,,,,,,,,,,,,,,,,,,,,,,,,,100,001,2023-03-01_09h57.41.633,eb_01,2022.2.4,60.00499905796376,
,,,1,0,1,0,13,0,13,0,,,,,,,,,,,,,,,,,,,,,,,,,,,,,,,,,,,,,,,,,,,,,,,,,,,,,,,,,,,,100,001,2023-03-01_09h57.41.633,eb_01,2022.2.4,60.00499905796376,
2,stimuli/2.png,s,1,0,1,0,14,0,14,0,0,0,0,0,,,,,,,,,,,,,,,,,,,255.12992936701994,255.12992936701994,255.12992936701994,255.12992936701994,s,1,0.5358265066552121,255.6965676597547,255.6965676597547,255.6965676597547,256.6965115155908,256.6965115155908,256.6965115155908,,,,,,,,,,,,,,,,,,,,,,,,,100,001,2023-03-01_09h57.41.633,eb_01,2022.2.4,60.00499905796376,
,,,1,0,1,0,14,0,14,0,,,,,,,,,,,,,,,,,,,,,,,,,,,,,,,,,,,,,,,,,,,,,,,,,,,,,,,,,,,,100,001,2023-03-01_09h57.41.633,eb_01,2022.2.4,60.00499905796376,
3,stimuli/3.png,l,1,0,1,0,15,0,15,0,0,0,0,0,,,,,,,,,,,,,,,,,,,256.6965115155908,256.6965115155908,256.6965115155908,256.6965115155908,l,1,0.39327647496065765,257.1131341121072,257.1131341121072,257.1131341121072,258.12973739020254,258.12973739020254,258.12973739020254,,,,,,,,,,,,,,,,,,,,,,,,,100,001,2023-03-01_09h57.41.633,eb_01,2022.2.4,60.00499905796376,
,,,1,0,1,0,15,0,15,0,,,,,,,,,,,,,,,,,,,,,,,,,,,,,,,,,,,,,,,,,,,,,,,,,,,,,,,,,,,,100,001,2023-03-01_09h57.41.633,eb_01,2022.2.4,60.00499905796376,
8,stimuli/8.png,l,1,0,1,0,16,0,16,0,0,0,0,0,,,,,,,,,,,,,,,,,,,258.12973739020254,258.12973739020254,258.12973739020254,258.12973739020254,l,1,0.43110768024962454,258.57971807178,258.57971807178,258.57971807178,259.57963566663693,259.57963566663693,259.57963566663693,,,,,,,,,,,,,,,,,,,,,,,,,100,001,2023-03-01_09h57.41.633,eb_01,2022.2.4,60.00499905796376,
,,,1,0,1,0,16,0,16,0,,,,,,,,,,,,,,,,,,,,,,,,,,,,,,,,,,,,,,,,,,,,,,,,,,,,,,,,,,,,100,001,2023-03-01_09h57.41.633,eb_01,2022.2.4,60.00499905796376,
3,stimuli/3.png,l,1,0,1,0,17,0,17,0,0,0,0,0,,,,,,,,,,,,,,,,,,,259.57963566663693,259.57963566663693,259.57963566663693,259.57963566663693,l,1,0.3412184593253187,259.9462902592895,259.9462902592895,259.9462902592895,260.9462483020925,260.9462483020925,260.9462483020925,,,,,,,,,,,,,,,,,,,,,,,,,100,001,2023-03-01_09h57.41.633,eb_01,2022.2.4,60.00499905796376,
,,,1,0,1,0,17,0,17,0,,,,,,,,,,,,,,,,,,,,,,,,,,,,,,,,,,,,,,,,,,,,,,,,,,,,,,,,,,,,100,001,2023-03-01_09h57.41.633,eb_01,2022.2.4,60.00499905796376,
2,stimuli/2.png,s,1,0,1,0,18,0,18,0,0,0,0,0,,,,,,,,,,,,,,,,,,,260.9462483020925,260.9462483020925,260.9462483020925,260.9462483020925,s,1,0.5505851773059476,261.5295713725136,261.5295713725136,261.5295713725136,262.52947538410535,262.52947538410535,262.52947538410535,,,,,,,,,,,,,,,,,,,,,,,,,100,001,2023-03-01_09h57.41.633,eb_01,2022.2.4,60.00499905796376,
,,,1,0,1,0,18,0,18,0,,,,,,,,,,,,,,,,,,,,,,,,,,,,,,,,,,,,,,,,,,,,,,,,,,,,,,,,,,,,100,001,2023-03-01_09h57.41.633,eb_01,2022.2.4,60.00499905796376,
3,stimuli/3.png,l,1,0,1,0,19,0,19,0,0,0,0,0,,,,,,,,,,,,,,,,,,,262.52947538410535,262.52947538410535,262.52947538410535,262.52947538410535,l,1,0.3914508840880444,262.946129071207,262.946129071207,262.946129071207,263.9460747381454,263.9460747381454,263.9460747381454,,,,,,,,,,,,,,,,,,,,,,,,,100,001,2023-03-01_09h57.41.633,eb_01,2022.2.4,60.00499905796376,
,,,1,0,1,0,19,0,19,0,,,,,,,,,,,,,,,,,,,,,,,,,,,,,,,,,,,,,,,,,,,,,,,,,,,,,,,,,,,,100,001,2023-03-01_09h57.41.633,eb_01,2022.2.4,60.00499905796376,
2,stimuli/2.png,s,1,0,1,0,20,0,20,0,0,0,0,0,,,,,,,,,,,,,,,,,,,263.9460747381454,263.9460747381454,263.9460747381454,263.9460747381454,s,1,0.4788673470056892,264.4460668900365,264.4460668900365,264.4460668900365,265.4626765069879,265.4626765069879,265.4626765069879,,,,,,,,,,,,,,,,,,,,,,,,,100,001,2023-03-01_09h57.41.633,eb_01,2022.2.4,60.00499905796376,
,,,1,0,1,0,20,0,20,0,,,,,,,,,,,,,,,,,,,,,,,,,,,,,,,,,,,,,,,,,,,,,,,,,,,,,,,,,,,,100,001,2023-03-01_09h57.41.633,eb_01,2022.2.4,60.00499905796376,
1,stimuli/1.png,s,1,0,1,0,21,0,21,0,0,0,0,0,,,,,,,,,,,,,,,,,,,265.4626765069879,265.4626765069879,265.4626765069879,265.4626765069879,s,1,1.1223359092937244,266.629246581545,266.629246581545,266.629246581545,,,,,,,,,,,,,,,,,,,,,,,,,,,,100,001,2023-03-01_09h57.41.633,eb_01,2022.2.4,60.00499905796376,
,,,1,0,1,0,21,0,21,0,,,,,,,,,,,,,,,,,,,,,,,,,,,,,,,,,,,,,,,,,,,,,,,,,,,,,,,,,,,,100,001,2023-03-01_09h57.41.633,eb_01,2022.2.4,60.00499905796376,
4,stimuli/4.png,l,1,0,1,0,22,0,22,0,0,0,0,0,,,,,,,,,,,,,,,,,,,267.645873403967,267.645873403967,267.645873403967,267.645873403967,l,1,0.4431705254901317,268.11247819131313,268.11247819131313,268.11247819131313,269.1121304597182,269.1121304597182,269.1121304597182,,,,,,,,,,,,,,,,,,,,,,,,,100,001,2023-03-01_09h57.41.633,eb_01,2022.2.4,60.00499905796376,
,,,1,0,1,0,22,0,22,0,,,,,,,,,,,,,,,,,,,,,,,,,,,,,,,,,,,,,,,,,,,,,,,,,,,,,,,,,,,,100,001,2023-03-01_09h57.41.633,eb_01,2022.2.4,60.00499905796376,
3,stimuli/3.png,l,1,0,1,0,23,0,23,0,0,0,0,0,,,,,,,,,,,,,,,,,,,269.1121304597182,269.1121304597182,269.1121304597182,269.1121304597182,l,1,0.4489588076603468,269.57906848984294,269.57906848984294,269.57906848984294,270.59569712336634,270.59569712336634,270.59569712336634,,,,,,,,,,,,,,,,,,,,,,,,,100,001,2023-03-01_09h57.41.633,eb_01,2022.2.4,60.00499905796376,
,,,1,0,1,0,23,0,23,0,,,,,,,,,,,,,,,,,,,,,,,,,,,,,,,,,,,,,,,,,,,,,,,,,,,,,,,,,,,,100,001,2023-03-01_09h57.41.633,eb_01,2022.2.4,60.00499905796376,
4,stimuli/4.png,l,1,0,1,0,24,0,24,0,0,0,0,0,,,,,,,,,,,,,,,,,,,270.59569712336634,270.59569712336634,270.59569712336634,270.59569712336634,l,1,0.5574072968993278,271.17897099218226,271.17897099218226,271.17897099218226,272.1955736665768,272.1955736665768,272.1955736665768,,,,,,,,,,,,,,,,,,,,,,,,,100,001,2023-03-01_09h57.41.633,eb_01,2022.2.4,60.00499905796376,
,,,1,0,1,0,24,0,24,0,,,,,,,,,,,,,,,,,,,,,,,,,,,,,,,,,,,,,,,,,,,,,,,,,,,,,,,,,,,,100,001,2023-03-01_09h57.41.633,eb_01,2022.2.4,60.00499905796376,
1,stimuli/1.png,s,1,0,1,0,25,0,25,0,0,0,0,0,,,,,,,,,,,,,,,,,,,272.1955736665768,272.1955736665768,272.1955736665768,272.1955736665768,s,1,0.5335472347178438,272.7788719852697,272.7788719852697,272.7788719852697,,,,,,,,,,,,,,,,,,,,,,,,,,,,100,001,2023-03-01_09h57.41.633,eb_01,2022.2.4,60.00499905796376,
,,,1,0,1,0,25,0,25,0,,,,,,,,,,,,,,,,,,,,,,,,,,,,,,,,,,,,,,,,,,,,,,,,,,,,,,,,,,,,100,001,2023-03-01_09h57.41.633,eb_01,2022.2.4,60.00499905796376,
4,stimuli/4.png,l,1,0,1,0,26,0,26,0,0,0,0,0,,,,,,,,,,,,,,,,,,,273.7954909595828,273.7954909595828,273.7954909595828,273.7954909595828,l,1,0.48468732346191246,274.3121567206981,274.3121567206981,274.3121567206981,275.32872649340516,275.32872649340516,275.32872649340516,,,,,,,,,,,,,,,,,,,,,,,,,100,001,2023-03-01_09h57.41.633,eb_01,2022.2.4,60.00499905796376,
,,,1,0,1,0,26,0,26,0,,,,,,,,,,,,,,,,,,,,,,,,,,,,,,,,,,,,,,,,,,,,,,,,,,,,,,,,,,,,100,001,2023-03-01_09h57.41.633,eb_01,2022.2.4,60.00499905796376,
1,stimuli/1.png,s,1,0,1,0,27,0,27,0,0,0,0,0,,,,,,,,,,,,,,,,,,,275.32872649340516,275.32872649340516,275.32872649340516,275.32872649340516,s,1,0.47950364752796304,275.8453361103566,275.8453361103566,275.8453361103566,,,,,,,,,,,,,,,,,,,,,,,,,,,,100,001,2023-03-01_09h57.41.633,eb_01,2022.2.4,60.00499905796376,
,,,1,0,1,0,27,0,27,0,,,,,,,,,,,,,,,,,,,,,,,,,,,,,,,,,,,,,,,,,,,,,,,,,,,,,,,,,,,,100,001,2023-03-01_09h57.41.633,eb_01,2022.2.4,60.00499905796376,
4,stimuli/4.png,l,1,0,1,0,28,0,28,0,0,0,0,0,,,,,,,,,,,,,,,,,,,276.86195870687334,276.86195870687334,276.86195870687334,276.86195870687334,l,1,0.41828356844325754,277.3119487458125,277.3119487458125,277.3119487458125,278.31189894050567,278.31189894050567,278.31189894050567,,,,,,,,,,,,,,,,,,,,,,,,,100,001,2023-03-01_09h57.41.633,eb_01,2022.2.4,60.00499905796376,
,,,1,0,1,0,28,0,28,0,,,,,,,,,,,,,,,,,,,,,,,,,,,,,,,,,,,,,,,,,,,,,,,,,,,,,,,,,,,,100,001,2023-03-01_09h57.41.633,eb_01,2022.2.4,60.00499905796376,
2,stimuli/2.png,s,1,0,1,0,29,0,29,0,0,0,0,0,,,,,,,,,,,,,,,,,,,278.31189894050567,278.31189894050567,278.31189894050567,278.31189894050567,s,1,0.49636047991134546,278.8284925593898,278.8284925593898,278.8284925593898,279.8451169670079,279.8451169670079,279.8451169670079,,,,,,,,,,,,,,,,,,,,,,,,,100,001,2023-03-01_09h57.41.633,eb_01,2022.2.4,60.00499905796376,
,,,1,0,1,0,29,0,29,0,,,,,,,,,,,,,,,,,,,,,,,,,,,,,,,,,,,,,,,,,,,,,,,,,,,,,,,,,,,,100,001,2023-03-01_09h57.41.633,eb_01,2022.2.4,60.00499905796376,
4,stimuli/4.png,l,1,0,1,0,30,0,30,0,0,0,0,0,,,,,,,,,,,,,,,,,,,279.8451169670079,279.8451169670079,279.8451169670079,279.8451169670079,l,1,0.47521737266379205,280.345105194845,280.345105194845,280.345105194845,281.3616939841231,281.3616939841231,281.3616939841231,,,,,,,,,,,,,,,,,,,,,,,,,100,001,2023-03-01_09h57.41.633,eb_01,2022.2.4,60.00499905796376,
,,,1,0,1,0,30,0,30,0,,,,,,,,,,,,,,,,,,,,,,,,,,,,,,,,,,,,,,,,,,,,,,,,,,,,,,,,,,,,100,001,2023-03-01_09h57.41.633,eb_01,2022.2.4,60.00499905796376,
1,stimuli/1.png,s,1,0,1,0,31,0,31,0,0,0,0,0,,,,,,,,,,,,,,,,,,,281.3616939841231,281.3616939841231,281.3616939841231,281.3616939841231,s,1,0.5106751287075895,281.9116767786536,281.9116767786536,281.9116767786536,,,,,,,,,,,,,,,,,,,,,,,,,,,,100,001,2023-03-01_09h57.41.633,eb_01,2022.2.4,60.00499905796376,
,,,1,0,1,0,31,0,31,0,,,,,,,,,,,,,,,,,,,,,,,,,,,,,,,,,,,,,,,,,,,,,,,,,,,,,,,,,,,,100,001,2023-03-01_09h57.41.633,eb_01,2022.2.4,60.00499905796376,
2,stimuli/2.png,s,1,0,1,0,32,0,32,0,0,0,0,0,,,,,,,,,,,,,,,,,,,282.9116209363401,282.9116209363401,282.9116209363401,282.9116209363401,s,1,0.5127651404800417,283.4448984273604,283.4448984273604,283.4448984273604,284.44487759968615,284.44487759968615,284.44487759968615,,,,,,,,,,,,,,,,,,,,,,,,,100,001,2023-03-01_09h57.41.633,eb_01,2022.2.4,60.00499905796376,
,,,1,0,1,0,32,0,32,0,,,,,,,,,,,,,,,,,,,,,,,,,,,,,,,,,,,,,,,,,,,,,,,,,,,,,,,,,,,,100,001,2023-03-01_09h57.41.633,eb_01,2022.2.4,60.00499905796376,
3,stimuli/3.png,l,1,0,1,0,33,0,33,0,0,0,0,0,,,,,,,,,,,,,,,,,,,284.44487759968615,284.44487759968615,284.44487759968615,284.44487759968615,l,1,0.4195474158277648,284.89482900178155,284.89482900178155,284.89482900178155,285.9114081318485,285.9114081318485,285.9114081318485,,,,,,,,,,,,,,,,,,,,,,,,,100,001,2023-03-01_09h57.41.633,eb_01,2022.2.4,60.00499905796376,
,,,1,0,1,0,33,0,33,0,,,,,,,,,,,,,,,,,,,,,,,,,,,,,,,,,,,,,,,,,,,,,,,,,,,,,,,,,,,,100,001,2023-03-01_09h57.41.633,eb_01,2022.2.4,60.00499905796376,
8,stimuli/8.png,l,1,0,1,0,34,0,34,0,0,0,0,0,,,,,,,,,,,,,,,,,,,285.9114081318485,285.9114081318485,285.9114081318485,285.9114081318485,l,1,0.3690647571302179,286.31137734311324,286.31137734311324,286.31137734311324,287.3113178785961,287.3113178785961,287.3113178785961,,,,,,,,,,,,,,,,,,,,,,,,,100,001,2023-03-01_09h57.41.633,eb_01,2022.2.4,60.00499905796376,
,,,1,0,1,0,34,0,34,0,,,,,,,,,,,,,,,,,,,,,,,,,,,,,,,,,,,,,,,,,,,,,,,,,,,,,,,,,,,,100,001,2023-03-01_09h57.41.633,eb_01,2022.2.4,60.00499905796376,
3,stimuli/3.png,l,1,0,1,0,35,0,35,0,0,0,0,0,,,,,,,,,,,,,,,,,,,287.3113178785961,287.3113178785961,287.3113178785961,287.3113178785961,l,1,0.4171793998903013,287.76132059524934,287.76132059524934,287.76132059524934,288.7779365510587,288.7779365510587,288.7779365510587,,,,,,,,,,,,,,,,,,,,,,,,,100,001,2023-03-01_09h57.41.633,eb_01,2022.2.4,60.00499905796376,
,,,1,0,1,0,35,0,35,0,,,,,,,,,,,,,,,,,,,,,,,,,,,,,,,,,,,,,,,,,,,,,,,,,,,,,,,,,,,,100,001,2023-03-01_09h57.41.633,eb_01,2022.2.4,60.00499905796376,
4,stimuli/4.png,l,1,0,1,0,36,0,36,0,0,0,0,0,,,,,,,,,,,,,,,,,,,288.7779365510587,288.7779365510587,288.7779365510587,288.7779365510587,l,1,0.49458831654919777,289.2945346976976,289.2945346976976,289.2945346976976,290.311167255275,290.311167255275,290.311167255275,,,,,,,,,,,,,,,,,,,,,,,,,100,001,2023-03-01_09h57.41.633,eb_01,2022.2.4,60.00499905796376,
,,,1,0,1,0,36,0,36,0,,,,,,,,,,,,,,,,,,,,,,,,,,,,,,,,,,,,,,,,,,,,,,,,,,,,,,,,,,,,100,001,2023-03-01_09h57.41.633,eb_01,2022.2.4,60.00499905796376,
1,stimuli/1.png,s,1,0,1,0,37,0,37,0,0,0,0,0,,,,,,,,,,,,,,,,,,,290.311167255275,290.311167255275,290.311167255275,290.311167255275,s,1,0.4803612043524481,290.8278013221052,290.8278013221052,290.8278013221052,,,,,,,,,,,,,,,,,,,,,,,,,,,,100,001,2023-03-01_09h57.41.633,eb_01,2022.2.4,60.00499905796376,
,,,1,0,1,0,37,0,37,0,,,,,,,,,,,,,,,,,,,,,,,,,,,,,,,,,,,,,,,,,,,,,,,,,,,,,,,,,,,,100,001,2023-03-01_09h57.41.633,eb_01,2022.2.4,60.00499905796376,
4,stimuli/4.png,l,1,0,1,0,38,0,38,0,0,0,0,0,,,,,,,,,,,,,,,,,,,291.844375622567,291.844375622567,291.844375622567,291.844375622567,l,1,0.5792615635537004,292.44437562256644,292.44437562256644,292.44437562256644,293.4443122339944,293.4443122339944,293.4443122339944,,,,,,,,,,,,,,,,,,,,,,,,,100,001,2023-03-01_09h57.41.633,eb_01,2022.2.4,60.00499905796376,
,,,1,0,1,0,38,0,38,0,,,,,,,,,,,,,,,,,,,,,,,,,,,,,,,,,,,,,,,,,,,,,,,,,,,,,,,,,,,,100,001,2023-03-01_09h57.41.633,eb_01,2022.2.4,60.00499905796376,
2,stimuli/2.png,s,1,0,1,0,39,0,39,0,0,0,0,0,,,,,,,,,,,,,,,,,,,293.4443122339944,293.4443122339944,293.4443122339944,293.4443122339944,s,1,0.6193726444798813,294.09427027679703,294.09427027679703,294.09427027679703,295.110856651273,295.110856651273,295.110856651273,,,,,,,,,,,,,,,,,,,,,,,,,100,001,2023-03-01_09h57.41.633,eb_01,2022.2.4,60.00499905796376,
,,,1,0,1,0,39,0,39,0,,,,,,,,,,,,,,,,,,,,,,,,,,,,,,,,,,,,,,,,,,,,,,,,,,,,,,,,,,,,100,001,2023-03-01_09h57.41.633,eb_01,2022.2.4,60.00499905796376,
4,stimuli/4.png,l,1,0,1,0,40,0,40,0,0,0,0,0,,,,,,,,,,,,,,,,,,,295.110856651273,295.110856651273,295.110856651273,295.110856651273,l,1,0.4248225524152076,295.56085634942247,295.56085634942247,295.56085634942247,296.5607603610133,296.5607603610133,296.5607603610133,,,,,,,,,,,,,,,,,,,,,,,,,100,001,2023-03-01_09h57.41.633,eb_01,2022.2.4,60.00499905796376,
,,,1,0,1,0,40,0,40,0,,,,,,,,,,,,,,,,,,,,,,,,,,,,,,,,,,,,,,,,,,,,,,,,,,,,,,,,,,,,100,001,2023-03-01_09h57.41.633,eb_01,2022.2.4,60.00499905796376,
3,stimuli/3.png,l,1,0,1,0,41,0,41,0,0,0,0,0,,,,,,,,,,,,,,,,,,,296.5607603610133,296.5607603610133,296.5607603610133,296.5607603610133,l,1,0.43895337435424153,297.02741133146264,297.02741133146264,297.02741133146264,298.04400404479475,298.04400404479475,298.04400404479475,,,,,,,,,,,,,,,,,,,,,,,,,100,001,2023-03-01_09h57.41.633,eb_01,2022.2.4,60.00499905796376,
,,,1,0,1,0,41,0,41,0,,,,,,,,,,,,,,,,,,,,,,,,,,,,,,,,,,,,,,,,,,,,,,,,,,,,,,,,,,,,100,001,2023-03-01_09h57.41.633,eb_01,2022.2.4,60.00499905796376,
8,stimuli/8.png,l,1,0,1,0,42,0,42,0,0,0,0,0,,,,,,,,,,,,,,,,,,,298.04400404479475,298.04400404479475,298.04400404479475,298.04400404479475,l,1,0.48371506350849813,298.56068037067234,298.56068037067234,298.56068037067234,299.5772899876247,299.5772899876247,299.5772899876247,,,,,,,,,,,,,,,,,,,,,,,,,100,001,2023-03-01_09h57.41.633,eb_01,2022.2.4,60.00499905796376,
,,,1,0,1,0,42,0,42,0,,,,,,,,,,,,,,,,,,,,,,,,,,,,,,,,,,,,,,,,,,,,,,,,,,,,,,,,,,,,100,001,2023-03-01_09h57.41.633,eb_01,2022.2.4,60.00499905796376,
9,stimuli/9.png,l,1,0,1,0,43,0,43,0,0,0,0,0,,,,,,,,,,,,,,,,,,,299.5772899876247,299.5772899876247,299.5772899876247,299.5772899876247,l,1,0.5424750623005821,300.16054091581464,300.16054091581464,300.16054091581464,,,,,,,,,,,,,,,,,,,,,,,,,,,,100,001,2023-03-01_09h57.41.633,eb_01,2022.2.4,60.00499905796376,
,,,1,0,1,0,43,0,43,0,,,,,,,,,,,,,,,,,,,,,,,,,,,,,,,,,,,,,,,,,,,,,,,,,,,,,,,,,,,,100,001,2023-03-01_09h57.41.633,eb_01,2022.2.4,60.00499905796376,
6,stimuli/6.png,s,1,0,1,0,44,0,44,0,0,0,0,0,,,,,,,,,,,,,,,,,,,301.1771819252017,301.1771819252017,301.1771819252017,301.1771819252017,s,1,0.4306298511573914,301.64378912735083,301.64378912735083,301.64378912735083,,,,,,,,,,,,,,,,,,,,,,,,,,,,100,001,2023-03-01_09h57.41.633,eb_01,2022.2.4,60.00499905796376,
,,,1,0,1,0,44,0,44,0,,,,,,,,,,,,,,,,,,,,,,,,,,,,,,,,,,,,,,,,,,,,,,,,,,,,,,,,,,,,100,001,2023-03-01_09h57.41.633,eb_01,2022.2.4,60.00499905796376,
5,stimuli/5.png,s,1,0,1,0,45,0,45,0,0,0,0,0,,,,,,,,,,,,,,,,,,,302.6434103051715,302.6434103051715,302.6434103051715,302.6434103051715,s,1,0.4924409532122809,303.1603945183979,303.1603945183979,303.1603945183979,304.17698360952636,304.17698360952636,304.17698360952636,,,,,,,,,,,,,,,,,,,,,,,,,100,001,2023-03-01_09h57.41.633,eb_01,2022.2.4,60.00499905796376,
,,,1,0,1,0,45,0,45,0,,,,,,,,,,,,,,,,,,,,,,,,,,,,,,,,,,,,,,,,,,,,,,,,,,,,,,,,,,,,100,001,2023-03-01_09h57.41.633,eb_01,2022.2.4,60.00499905796376,
9,stimuli/9.png,l,1,0,1,0,46,0,46,0,0,0,0,0,,,,,,,,,,,,,,,,,,,304.17698360952636,304.17698360952636,304.17698360952636,304.17698360952636,l,1,0.5668953587182841,304.79360107458797,304.79360107458797,304.79360107458797,,,,,,,,,,,,,,,,,,,,,,,,,,,,100,001,2023-03-01_09h57.41.633,eb_01,2022.2.4,60.00499905796376,
,,,1,0,1,0,46,0,46,0,,,,,,,,,,,,,,,,,,,,,,,,,,,,,,,,,,,,,,,,,,,,,,,,,,,,,,,,,,,,100,001,2023-03-01_09h57.41.633,eb_01,2022.2.4,60.00499905796376,
6,stimuli/6.png,s,1,0,1,0,47,0,47,0,0,0,0,0,,,,,,,,,,,,,,,,,,,305.81023634881876,305.81023634881876,305.81023634881876,305.81023634881876,s,1,0.4606642620956336,306.31018201575716,306.31018201575716,306.31018201575716,,,,,,,,,,,,,,,,,,,,,,,,,,,,100,001,2023-03-01_09h57.41.633,eb_01,2022.2.4,60.00499905796376,
,,,1,0,1,0,47,0,47,0,,,,,,,,,,,,,,,,,,,,,,,,,,,,,,,,,,,,,,,,,,,,,,,,,,,,,,,,,,,,100,001,2023-03-01_09h57.41.633,eb_01,2022.2.4,60.00499905796376,
5,stimuli/5.png,s,1,0,1,0,48,0,48,0,0,0,0,0,,,,,,,,,,,,,,,,,,,307.3097974584207,307.3097974584207,307.3097974584207,307.3097974584207,s,1,0.4011683521684972,307.74337649793233,307.74337649793233,307.74337649793233,308.76006338857223,308.76006338857223,308.76006338857223,,,,,,,,,,,,,,,,,,,,,,,,,100,001,2023-03-01_09h57.41.633,eb_01,2022.2.4,60.00499905796376,
,,,1,0,1,0,48,0,48,0,,,,,,,,,,,,,,,,,,,,,,,,,,,,,,,,,,,,,,,,,,,,,,,,,,,,,,,,,,,,100,001,2023-03-01_09h57.41.633,eb_01,2022.2.4,60.00499905796376,
6,stimuli/6.png,s,1,0,1,0,49,0,49,0,0,0,0,0,,,,,,,,,,,,,,,,,,,308.76006338857223,308.76006338857223,308.76006338857223,308.76006338857223,s,1,0.4789579021089594,309.27667330737495,309.27667330737495,309.27667330737495,,,,,,,,,,,,,,,,,,,,,,,,,,,,100,001,2023-03-01_09h57.41.633,eb_01,2022.2.4,60.00499905796376,
,,,1,0,1,0,49,0,49,0,,,,,,,,,,,,,,,,,,,,,,,,,,,,,,,,,,,,,,,,,,,,,,,,,,,,,,,,,,,,100,001,2023-03-01_09h57.41.633,eb_01,2022.2.4,60.00499905796376,
8,stimuli/8.png,l,1,0,1,0,50,0,50,0,0,0,0,0,,,,,,,,,,,,,,,,,,,310.2762950888955,310.2762950888955,310.2762950888955,310.2762950888955,l,1,0.45870978112725425,310.7599381206801,310.7599381206801,310.7599381206801,311.7598611488429,311.7598611488429,311.7598611488429,,,,,,,,,,,,,,,,,,,,,,,,,100,001,2023-03-01_09h57.41.633,eb_01,2022.2.4,60.00499905796376,
,,,1,0,1,0,50,0,50,0,,,,,,,,,,,,,,,,,,,,,,,,,,,,,,,,,,,,,,,,,,,,,,,,,,,,,,,,,,,,100,001,2023-03-01_09h57.41.633,eb_01,2022.2.4,60.00499905796376,
3,stimuli/3.png,l,1,0,1,0,51,0,51,0,0,0,0,0,,,,,,,,,,,,,,,,,,,311.7598611488429,311.7598611488429,311.7598611488429,311.7598611488429,l,1,0.5112121204674622,312.29318421926473,312.29318421926473,312.29318421926473,313.29309638081486,313.29309638081486,313.29309638081486,,,,,,,,,,,,,,,,,,,,,,,,,100,001,2023-03-01_09h57.41.633,eb_01,2022.2.4,60.00499905796376,
,,,1,0,1,0,51,0,51,0,,,,,,,,,,,,,,,,,,,,,,,,,,,,,,,,,,,,,,,,,,,,,,,,,,,,,,,,,,,,100,001,2023-03-01_09h57.41.633,eb_01,2022.2.4,60.00499905796376,
2,stimuli/2.png,s,1,0,1,0,52,0,52,0,0,0,0,0,,,,,,,,,,,,,,,,,,,313.29309638081486,313.29309638081486,313.29309638081486,313.29309638081486,s,1,0.5860018817038508,313.90970992182156,313.90970992182156,313.90970992182156,314.926344894202,314.926344894202,314.926344894202,,,,,,,,,,,,,,,,,,,,,,,,,100,001,2023-03-01_09h57.41.633,eb_01,2022.2.4,60.00499905796376,
,,,1,0,1,0,52,0,52,0,,,,,,,,,,,,,,,,,,,,,,,,,,,,,,,,,,,,,,,,,,,,,,,,,,,,,,,,,,,,100,001,2023-03-01_09h57.41.633,eb_01,2022.2.4,60.00499905796376,
1,stimuli/1.png,s,1,0,1,0,53,0,53,0,0,0,0,0,,,,,,,,,,,,,,,,,,,314.926344894202,314.926344894202,314.926344894202,314.926344894202,s,1,0.47275910347343597,315.4429916387462,315.4429916387462,315.4429916387462,,,,,,,,,,,,,,,,,,,,,,,,,,,,100,001,2023-03-01_09h57.41.633,eb_01,2022.2.4,60.00499905796376,
,,,1,0,1,0,53,0,53,0,,,,,,,,,,,,,,,,,,,,,,,,,,,,,,,,,,,,,,,,,,,,,,,,,,,,,,,,,,,,100,001,2023-03-01_09h57.41.633,eb_01,2022.2.4,60.00499905796376,
4,stimuli/4.png,l,1,0,1,0,54,0,54,0,0,0,0,0,,,,,,,,,,,,,,,,,,,316.45961182045994,316.45961182045994,316.45961182045994,316.45961182045994,l,1,0.475591667088338,316.9595632225546,316.9595632225546,316.9595632225546,317.97614989888007,317.97614989888007,317.97614989888007,,,,,,,,,,,,,,,,,,,,,,,,,100,001,2023-03-01_09h57.41.633,eb_01,2022.2.4,60.00499905796376,
,,,1,0,1,0,54,0,54,0,,,,,,,,,,,,,,,,,,,,,,,,,,,,,,,,,,,,,,,,,,,,,,,,,,,,,,,,,,,,100,001,2023-03-01_09h57.41.633,eb_01,2022.2.4,60.00499905796376,
1,stimuli/1.png,s,1,0,1,0,55,0,55,0,0,0,0,0,,,,,,,,,,,,,,,,,,,317.97614989888007,317.97614989888007,317.97614989888007,317.97614989888007,s,1,0.5670677152638746,318.59277943795496,318.59277943795496,318.59277943795496,,,,,,,,,,,,,,,,,,,,,,,,,,,,100,001,2023-03-01_09h57.41.633,eb_01,2022.2.4,60.00499905796376,
,,,1,0,1,0,55,0,55,0,,,,,,,,,,,,,,,,,,,,,,,,,,,,,,,,,,,,,,,,,,,,,,,,,,,,,,,,,,,,100,001,2023-03-01_09h57.41.633,eb_01,2022.2.4,60.00499905796376,
4,stimuli/4.png,l,1,0,1,0,56,0,56,0,0,0,0,0,,,,,,,,,,,,,,,,,,,319.60938965860805,319.60938965860805,319.60938965860805,319.60938965860805,l,1,0.4288646303530186,320.05934770140993,320.05934770140993,320.05934770140993,321.0593253644847,321.0593253644847,321.0593253644847,,,,,,,,,,,,,,,,,,,,,,,,,100,001,2023-03-01_09h57.41.633,eb_01,2022.2.4,60.00499905796376,
,,,1,0,1,0,56,0,56,0,,,,,,,,,,,,,,,,,,,,,,,,,,,,,,,,,,,,,,,,,,,,,,,,,,,,,,,,,,,,100,001,2023-03-01_09h57.41.633,eb_01,2022.2.4,60.00499905796376,
3,stimuli/3.png,l,1,0,1,0,57,0,57,0,0,0,0,0,,,,,,,,,,,,,,,,,,,321.0593253644847,321.0593253644847,321.0593253644847,321.0593253644847,l,1,0.4269445603240456,321.50928401098736,321.50928401098736,321.50928401098736,322.50924567599395,322.50924567599395,322.50924567599395,,,,,,,,,,,,,,,,,,,,,,,,,100,001,2023-03-01_09h57.41.633,eb_01,2022.2.4,60.00499905796376,
,,,1,0,1,0,57,0,57,0,,,,,,,,,,,,,,,,,,,,,,,,,,,,,,,,,,,,,,,,,,,,,,,,,,,,,,,,,,,,100,001,2023-03-01_09h57.41.633,eb_01,2022.2.4,60.00499905796376,
2,stimuli/2.png,s,1,0,1,0,58,0,58,0,0,0,0,0,,,,,,,,,,,,,,,,,,,322.50924567599395,322.50924567599395,322.50924567599395,322.50924567599395,s,1,0.4490707941376968,322.9758552929461,322.9758552929461,322.9758552929461,323.9924640043473,323.9924640043473,323.9924640043473,,,,,,,,,,,,,,,,,,,,,,,,,100,001,2023-03-01_09h57.41.633,eb_01,2022.2.4,60.00499905796376,
,,,1,0,1,0,58,0,58,0,,,,,,,,,,,,,,,,,,,,,,,,,,,,,,,,,,,,,,,,,,,,,,,,,,,,,,,,,,,,100,001,2023-03-01_09h57.41.633,eb_01,2022.2.4,60.00499905796376,
1,stimuli/1.png,s,1,0,1,0,59,0,59,0,0,0,0,0,,,,,,,,,,,,,,,,,,,323.9924640043473,323.9924640043473,323.9924640043473,323.9924640043473,s,1,0.3738518017134993,324.409103504483,324.409103504483,324.409103504483,,,,,,,,,,,,,,,,,,,,,,,,,,,,100,001,2023-03-01_09h57.41.633,eb_01,2022.2.4,60.00499905796376,
,,,1,0,1,0,59,0,59,0,,,,,,,,,,,,,,,,,,,,,,,,,,,,,,,,,,,,,,,,,,,,,,,,,,,,,,,,,,,,100,001,2023-03-01_09h57.41.633,eb_01,2022.2.4,60.00499905796376,
4,stimuli/4.png,l,1,0,1,0,60,0,60,0,0,0,0,0,,,,,,,,,,,,,,,,,,,325.4257414953672,325.4257414953672,325.4257414953672,325.4257414953672,l,1,0.40462393488996895,325.8590392103597,325.8590392103597,325.8590392103597,326.8589598237195,326.8589598237195,326.8589598237195,,,,,,,,,,,,,,,,,,,,,,,,,100,001,2023-03-01_09h57.41.633,eb_01,2022.2.4,60.00499905796376,
,,,1,0,1,0,60,0,60,0,,,,,,,,,,,,,,,,,,,,,,,,,,,,,,,,,,,,,,,,,,,,,,,,,,,,,,,,,,,,100,001,2023-03-01_09h57.41.633,eb_01,2022.2.4,60.00499905796376,
2,stimuli/2.png,s,1,0,1,0,61,0,61,0,0,0,0,0,,,,,,,,,,,,,,,,,,,326.8589598237195,326.8589598237195,326.8589598237195,326.8589598237195,s,1,0.44345486851398164,327.325595097951,327.325595097951,327.325595097951,328.34221407226323,328.34221407226323,328.34221407226323,,,,,,,,,,,,,,,,,,,,,,,,,100,001,2023-03-01_09h57.41.633,eb_01,2022.2.4,60.00499905796376,
,,,1,0,1,0,61,0,61,0,,,,,,,,,,,,,,,,,,,,,,,,,,,,,,,,,,,,,,,,,,,,,,,,,,,,,,,,,,,,100,001,2023-03-01_09h57.41.633,eb_01,2022.2.4,60.00499905796376,
1,stimuli/1.png,s,1,0,1,0,62,0,62,0,0,0,0,0,,,,,,,,,,,,,,,,,,,328.34221407226323,328.34221407226323,328.34221407226323,328.34221407226323,s,1,0.4802208439423339,328.85885327054893,328.85885327054893,328.85885327054893,,,,,,,,,,,,,,,,,,,,,,,,,,,,100,001,2023-03-01_09h57.41.633,eb_01,2022.2.4,60.00499905796376,
,,,1,0,1,0,62,0,62,0,,,,,,,,,,,,,,,,,,,,,,,,,,,,,,,,,,,,,,,,,,,,,,,,,,,,,,,,,,,,100,001,2023-03-01_09h57.41.633,eb_01,2022.2.4,60.00499905796376,
4,stimuli/4.png,l,1,0,1,0,63,0,63,0,0,0,0,0,,,,,,,,,,,,,,,,,,,329.87548160222195,329.87548160222195,329.87548160222195,329.87548160222195,l,1,0.4030054133536396,330.30873675631665,330.30873675631665,330.30873675631665,331.32536116393567,331.32536116393567,331.32536116393567,,,,,,,,,,,,,,,,,,,,,,,,,100,001,2023-03-01_09h57.41.633,eb_01,2022.2.4,60.00499905796376,
,,,1,0,1,0,63,0,63,0,,,,,,,,,,,,,,,,,,,,,,,,,,,,,,,,,,,,,,,,,,,,,,,,,,,,,,,,,,,,100,001,2023-03-01_09h57.41.633,eb_01,2022.2.4,60.00499905796376,
1,stimuli/1.png,s,1,0,1,0,64,0,64,0,0,0,0,0,,,,,,,,,,,,,,,,,,,331.32536116393567,331.32536116393567,331.32536116393567,331.32536116393567,s,1,0.4651657562544642,331.8253047179214,331.8253047179214,331.8253047179214,,,,,,,,,,,,,,,,,,,,,,,,,,,,100,001,2023-03-01_09h57.41.633,eb_01,2022.2.4,60.00499905796376,
,,,1,0,1,0,64,0,64,0,,,,,,,,,,,,,,,,,,,,,,,,,,,,,,,,,,,,,,,,,,,,,,,,,,,,,,,,,,,,100,001,2023-03-01_09h57.41.633,eb_01,2022.2.4,60.00499905796376,
4,stimuli/4.png,l,1,0,1,0,65,0,65,0,0,0,0,0,,,,,,,,,,,,,,,,,,,332.8419418032545,332.8419418032545,332.8419418032545,332.8419418032545,l,1,0.40462363303959137,333.2752337830907,333.2752337830907,333.2752337830907,334.27517582782457,334.27517582782457,334.27517582782457,,,,,,,,,,,,,,,,,,,,,,,,,100,001,2023-03-01_09h57.41.633,eb_01,2022.2.4,60.00499905796376,
,,,1,0,1,0,65,0,65,0,,,,,,,,,,,,,,,,,,,,,,,,,,,,,,,,,,,,,,,,,,,,,,,,,,,,,,,,,,,,100,001,2023-03-01_09h57.41.633,eb_01,2022.2.4,60.00499905796376,
2,stimuli/2.png,s,1,0,1,0,66,0,66,0,0,0,0,0,,,,,,,,,,,,,,,,,,,334.27517582782457,334.27517582782457,334.27517582782457,334.27517582782457,s,1,0.49145148779007286,334.7918014428451,334.7918014428451,334.7918014428451,335.8084237375115,335.8084237375115,335.8084237375115,,,,,,,,,,,,,,,,,,,,,,,,,100,001,2023-03-01_09h57.41.633,eb_01,2022.2.4,60.00499905796376,
,,,1,0,1,0,66,0,66,0,,,,,,,,,,,,,,,,,,,,,,,,,,,,,,,,,,,,,,,,,,,,,,,,,,,,,,,,,,,,100,001,2023-03-01_09h57.41.633,eb_01,2022.2.4,60.00499905796376,
4,stimuli/4.png,l,1,0,1,0,67,0,67,0,0,0,0,0,,,,,,,,,,,,,,,,,,,335.8084237375115,335.8084237375115,335.8084237375115,335.8084237375115,l,1,0.35719720906035946,336.1917410727765,336.1917410727765,336.1917410727765,337.2083645748444,337.2083645748444,337.2083645748444,,,,,,,,,,,,,,,,,,,,,,,,,100,001,2023-03-01_09h57.41.633,eb_01,2022.2.4,60.00499905796376,
,,,1,0,1,0,67,0,67,0,,,,,,,,,,,,,,,,,,,,,,,,,,,,,,,,,,,,,,,,,,,,,,,,,,,,,,,,,,,,100,001,2023-03-01_09h57.41.633,eb_01,2022.2.4,60.00499905796376,
1,stimuli/1.png,s,1,0,1,0,68,0,68,0,0,0,0,0,,,,,,,,,,,,,,,,,,,337.2083645748444,337.2083645748444,337.2083645748444,337.2083645748444,s,1,0.605246048447043,337.85826979383637,337.85826979383637,337.85826979383637,,,,,,,,,,,,,,,,,,,,,,,,,,,,100,001,2023-03-01_09h57.41.633,eb_01,2022.2.4,60.00499905796376,
,,,1,0,1,0,68,0,68,0,,,,,,,,,,,,,,,,,,,,,,,,,,,,,,,,,,,,,,,,,,,,,,,,,,,,,,,,,,,,100,001,2023-03-01_09h57.41.633,eb_01,2022.2.4,60.00499905796376,
2,stimuli/2.png,s,1,0,1,0,69,0,69,0,0,0,0,0,,,,,,,,,,,,,,,,,,,338.8582534939178,338.8582534939178,338.8582534939178,338.8582534939178,s,1,0.5154504011279641,339.39154879410853,339.39154879410853,339.39154879410853,340.4081581092096,340.4081581092096,340.4081581092096,,,,,,,,,,,,,,,,,,,,,,,,,100,001,2023-03-01_09h57.41.633,eb_01,2022.2.4,60.00499905796376,
,,,1,0,1,0,69,0,69,0,,,,,,,,,,,,,,,,,,,,,,,,,,,,,,,,,,,,,,,,,,,,,,,,,,,,,,,,,,,,100,001,2023-03-01_09h57.41.633,eb_01,2022.2.4,60.00499905796376,
4,stimuli/4.png,l,1,0,1,0,70,0,70,0,0,0,0,0,,,,,,,,,,,,,,,,,,,340.4081581092096,340.4081581092096,340.4081581092096,340.4081581092096,l,1,0.5815408354910687,341.0081626369647,341.0081626369647,341.0081626369647,342.02470977089615,342.02470977089615,342.02470977089615,,,,,,,,,,,,,,,,,,,,,,,,,100,001,2023-03-01_09h57.41.633,eb_01,2022.2.4,60.00499905796376,
,,,1,0,1,0,70,0,70,0,,,,,,,,,,,,,,,,,,,,,,,,,,,,,,,,,,,,,,,,,,,,,,,,,,,,,,,,,,,,100,001,2023-03-01_09h57.41.633,eb_01,2022.2.4,60.00499905796376,
1,stimuli/1.png,s,1,0,1,0,71,0,71,0,0,0,0,0,,,,,,,,,,,,,,,,,,,342.02470977089615,342.02470977089615,342.02470977089615,342.02470977089615,s,1,0.4450610141866491,342.5079966192761,342.5079966192761,342.5079966192761,,,,,,,,,,,,,,,,,,,,,,,,,,,,100,001,2023-03-01_09h57.41.633,eb_01,2022.2.4,60.00499905796376,
,,,1,0,1,0,71,0,71,0,,,,,,,,,,,,,,,,,,,,,,,,,,,,,,,,,,,,,,,,,,,,,,,,,,,,,,,,,,,,100,001,2023-03-01_09h57.41.633,eb_01,2022.2.4,60.00499905796376,
2,stimuli/2.png,s,1,0,1,0,72,0,72,0,0,0,0,0,,,,,,,,,,,,,,,,,,,343.5079745842013,343.5079745842013,343.5079745842013,343.5079745842013,s,1,0.4978353206843167,344.02457967339797,344.02457967339797,344.02457967339797,345.0412303419971,345.0412303419971,345.0412303419971,,,,,,,,,,,,,,,,,,,,,,,,,100,001,2023-03-01_09h57.41.633,eb_01,2022.2.4,60.00499905796376,
,,,1,0,1,0,72,0,72,0,,,,,,,,,,,,,,,,,,,,,,,,,,,,,,,,,,,,,,,,,,,,,,,,,,,,,,,,,,,,100,001,2023-03-01_09h57.41.633,eb_01,2022.2.4,60.00499905796376,
4,stimuli/4.png,l,1,0,1,0,73,0,73,0,0,0,0,0,,,,,,,,,,,,,,,,,,,345.0412303419971,345.0412303419971,345.0412303419971,345.0412303419971,l,1,0.41259187838386424,345.4745174922282,345.4745174922282,345.4745174922282,346.47446738507097,346.47446738507097,346.47446738507097,,,,,,,,,,,,,,,,,,,,,,,,,100,001,2023-03-01_09h57.41.633,eb_01,2022.2.4,60.00499905796376,
,,,1,0,1,0,73,0,73,0,,,,,,,,,,,,,,,,,,,,,,,,,,,,,,,,,,,,,,,,,,,,,,,,,,,,,,,,,,,,100,001,2023-03-01_09h57.41.633,eb_01,2022.2.4,60.00499905796376,
2,stimuli/2.png,s,1,0,1,0,74,0,74,0,0,0,0,0,,,,,,,,,,,,,,,,,,,346.47446738507097,346.47446738507097,346.47446738507097,346.47446738507097,s,1,0.5073743952116274,347.0077503093971,347.0077503093971,347.0077503093971,348.0243659633561,348.0243659633561,348.0243659633561,,,,,,,,,,,,,,,,,,,,,,,,,100,001,2023-03-01_09h57.41.633,eb_01,2022.2.4,60.00499905796376,
,,,1,0,1,0,74,0,74,0,,,,,,,,,,,,,,,,,,,,,,,,,,,,,,,,,,,,,,,,,,,,,,,,,,,,,,,,,,,,100,001,2023-03-01_09h57.41.633,eb_01,2022.2.4,60.00499905796376,
4,stimuli/4.png,l,1,0,1,0,75,0,75,0,0,0,0,0,,,,,,,,,,,,,,,,,,,348.0243659633561,348.0243659633561,348.0243659633561,348.0243659633561,l,1,0.3335559883771566,348.3910335355731,348.3910335355731,348.3910335355731,349.39064746898566,349.39064746898566,349.39064746898566,,,,,,,,,,,,,,,,,,,,,,,,,100,001,2023-03-01_09h57.41.633,eb_01,2022.2.4,60.00499905796376,
,,,1,0,1,0,75,0,75,0,,,,,,,,,,,,,,,,,,,,,,,,,,,,,,,,,,,,,,,,,,,,,,,,,,,,,,,,,,,,100,001,2023-03-01_09h57.41.633,eb_01,2022.2.4,60.00499905796376,
3,stimuli/3.png,l,1,0,1,0,76,0,76,0,0,0,0,0,,,,,,,,,,,,,,,,,,,349.39064746898566,349.39064746898566,349.39064746898566,349.39064746898566,l,1,0.4392983892958,349.85760330828,349.85760330828,349.85760330828,350.87419119200695,350.87419119200695,350.87419119200695,,,,,,,,,,,,,,,,,,,,,,,,,100,001,2023-03-01_09h57.41.633,eb_01,2022.2.4,60.00499905796376,
,,,1,0,1,0,76,0,76,0,,,,,,,,,,,,,,,,,,,,,,,,,,,,,,,,,,,,,,,,,,,,,,,,,,,,,,,,,,,,100,001,2023-03-01_09h57.41.633,eb_01,2022.2.4,60.00499905796376,
8,stimuli/8.png,l,1,0,1,0,77,0,77,0,0,0,0,0,,,,,,,,,,,,,,,,,,,350.87419119200695,350.87419119200695,350.87419119200695,350.87419119200695,l,1,0.4028052865751306,351.30747683298614,351.30747683298614,351.30747683298614,352.30710948111937,352.30710948111937,352.30710948111937,,,,,,,,,,,,,,,,,,,,,,,,,100,001,2023-03-01_09h57.41.633,eb_01,2022.2.4,60.00499905796376,
,,,1,0,1,0,77,0,77,0,,,,,,,,,,,,,,,,,,,,,,,,,,,,,,,,,,,,,,,,,,,,,,,,,,,,,,,,,,,,100,001,2023-03-01_09h57.41.633,eb_01,2022.2.4,60.00499905796376,
3,stimuli/3.png,l,1,0,1,0,78,0,78,0,0,0,0,0,,,,,,,,,,,,,,,,,,,352.30710948111937,352.30710948111937,352.30710948111937,352.30710948111937,l,1,0.40187770047305094,352.7407229315713,352.7407229315713,352.7407229315713,353.75734975399246,353.75734975399246,353.75734975399246,,,,,,,,,,,,,,,,,,,,,,,,,100,001,2023-03-01_09h57.41.633,eb_01,2022.2.4,60.00499905796376,
,,,1,0,1,0,78,0,78,0,,,,,,,,,,,,,,,,,,,,,,,,,,,,,,,,,,,,,,,,,,,,,,,,,,,,,,,,,,,,100,001,2023-03-01_09h57.41.633,eb_01,2022.2.4,60.00499905796376,
8,stimuli/8.png,l,1,0,1,0,79,0,79,0,0,0,0,0,,,,,,,,,,,,,,,,,,,353.75734975399246,353.75734975399246,353.75734975399246,353.75734975399246,l,1,0.3916836107027848,354.1739943855837,354.1739943855837,354.1739943855837,355.19057713785514,355.19057713785514,355.19057713785514,,,,,,,,,,,,,,,,,,,,,,,,,100,001,2023-03-01_09h57.41.633,eb_01,2022.2.4,60.00499905796376,
,,,1,0,1,0,79,0,79,0,,,,,,,,,,,,,,,,,,,,,,,,,,,,,,,,,,,,,,,,,,,,,,,,,,,,,,,,,,,,100,001,2023-03-01_09h57.41.633,eb_01,2022.2.4,60.00499905796376,
9,stimuli/9.png,l,1,0,1,0,80,0,80,0,0,0,0,0,,,,,,,,,,,,,,,,,,,355.19057713785514,355.19057713785514,355.19057713785514,355.19057713785514,l,1,0.5424850233621328,355.7738769658008,355.7738769658008,355.7738769658008,,,,,,,,,,,,,,,,,,,,,,,,,,,,100,001,2023-03-01_09h57.41.633,eb_01,2022.2.4,60.00499905796376,
,,,1,0,1,0,80,0,80,0,,,,,,,,,,,,,,,,,,,,,,,,,,,,,,,,,,,,,,,,,,,,,,,,,,,,,,,,,,,,100,001,2023-03-01_09h57.41.633,eb_01,2022.2.4,60.00499905796376,
6,stimuli/6.png,s,1,0,1,0,81,0,81,0,0,0,0,0,,,,,,,,,,,,,,,,,,,356.79052521959693,356.79052521959693,356.79052521959693,356.79052521959693,s,1,0.32659260282434843,357.15712487548717,357.15712487548717,357.15712487548717,,,,,,,,,,,,,,,,,,,,,,,,,,,,100,001,2023-03-01_09h57.41.633,eb_01,2022.2.4,60.00499905796376,
,,,1,0,1,0,81,0,81,0,,,,,,,,,,,,,,,,,,,,,,,,,,,,,,,,,,,,,,,,,,,,,,,,,,,,,,,,,,,,100,001,2023-03-01_09h57.41.633,eb_01,2022.2.4,60.00499905796376,
9,stimuli/9.png,l,1,0,1,0,82,0,82,0,0,0,0,0,,,,,,,,,,,,,,,,,,,358.17371245736376,358.17371245736376,358.17371245736376,358.17371245736376,l,1,0.3994372404531532,358.60703673518674,358.60703673518674,358.60703673518674,,,,,,,,,,,,,,,,,,,,,,,,,,,,100,001,2023-03-01_09h57.41.633,eb_01,2022.2.4,60.00499905796376,
,,,1,0,1,0,82,0,82,0,,,,,,,,,,,,,,,,,,,,,,,,,,,,,,,,,,,,,,,,,,,,,,,,,,,,,,,,,,,,100,001,2023-03-01_09h57.41.633,eb_01,2022.2.4,60.00499905796376,
6,stimuli/6.png,s,1,0,1,0,83,0,83,0,0,0,0,0,,,,,,,,,,,,,,,,,,,359.623654200248,359.623654200248,359.623654200248,359.623654200248,s,1,0.38955254728443833,360.05697998732285,360.05697998732285,360.05697998732285,,,,,,,,,,,,,,,,,,,,,,,,,,,,100,001,2023-03-01_09h57.41.633,eb_01,2022.2.4,60.00499905796376,
,,,1,0,1,0,83,0,83,0,,,,,,,,,,,,,,,,,,,,,,,,,,,,,,,,,,,,,,,,,,,,,,,,,,,,,,,,,,,,100,001,2023-03-01_09h57.41.633,eb_01,2022.2.4,60.00499905796376,
8,stimuli/8.png,l,1,0,1,0,84,0,84,0,0,0,0,0,,,,,,,,,,,,,,,,,,,361.0735708895536,361.0735708895536,361.0735708895536,361.0735708895536,l,1,0.31559136523810594,361.40687856560726,361.40687856560726,361.40687856560726,362.40684294726725,362.40684294726725,362.40684294726725,,,,,,,,,,,,,,,,,,,,,,,,,100,001,2023-03-01_09h57.41.633,eb_01,2022.2.4,60.00499905796376,
,,,1,0,1,0,84,0,84,0,,,,,,,,,,,,,,,,,,,,,,,,,,,,,,,,,,,,,,,,,,,,,,,,,,,,,,,,,,,,100,001,2023-03-01_09h57.41.633,eb_01,2022.2.4,60.00499905796376,
3,stimuli/3.png,l,1,0,1,0,85,0,85,0,0,0,0,0,,,,,,,,,,,,,,,,,,,362.40684294726725,362.40684294726725,362.40684294726725,362.40684294726725,l,1,0.3903835412775152,362.8234806363007,362.8234806363007,362.8234806363007,363.8401029309671,363.8401029309671,363.8401029309671,,,,,,,,,,,,,,,,,,,,,,,,,100,001,2023-03-01_09h57.41.633,eb_01,2022.2.4,60.00499905796376,
,,,1,0,1,0,85,0,85,0,,,,,,,,,,,,,,,,,,,,,,,,,,,,,,,,,,,,,,,,,,,,,,,,,,,,,,,,,,,,100,001,2023-03-01_09h57.41.633,eb_01,2022.2.4,60.00499905796376,
4,stimuli/4.png,l,1,0,1,0,86,0,86,0,0,0,0,0,,,,,,,,,,,,,,,,,,,363.8401029309671,363.8401029309671,363.8401029309671,363.8401029309671,s,0,0.3571739665840141,364.223093060461,364.223093060461,364.223093060461,365.24001116846284,365.24001116846284,365.24001116846284,,,,,,,,,,,,,,,,,,,,,,,,,100,001,2023-03-01_09h57.41.633,eb_01,2022.2.4,60.00499905796376,
,,,1,0,1,0,86,0,86,0,,,,,,,,,,,,,,,,,,,,,,,,,,,,,,,,,,,,,,,,,,,,,,,,,,,,,,,,,,,,100,001,2023-03-01_09h57.41.633,eb_01,2022.2.4,60.00499905796376,
1,stimuli/1.png,s,1,0,1,0,87,0,87,0,0,0,0,0,,,,,,,,,,,,,,,,,,,365.24001116846284,365.24001116846284,365.24001116846284,365.24001116846284,s,1,0.4292902393362965,365.70665308340176,365.70665308340176,365.70665308340176,,,,,,,,,,,,,,,,,,,,,,,,,,,,100,001,2023-03-01_09h57.41.633,eb_01,2022.2.4,60.00499905796376,
,,,1,0,1,0,87,0,87,0,,,,,,,,,,,,,,,,,,,,,,,,,,,,,,,,,,,,,,,,,,,,,,,,,,,,,,,,,,,,100,001,2023-03-01_09h57.41.633,eb_01,2022.2.4,60.00499905796376,
4,stimuli/4.png,l,1,0,1,0,88,0,88,0,0,0,0,0,,,,,,,,,,,,,,,,,,,366.7232219505577,366.7232219505577,366.7232219505577,366.7232219505577,l,1,0.394100224545582,367.1398602432919,367.1398602432919,367.1398602432919,368.1565094026382,368.1565094026382,368.1565094026382,,,,,,,,,,,,,,,,,,,,,,,,,100,001,2023-03-01_09h57.41.633,eb_01,2022.2.4,60.00499905796376,
,,,1,0,1,0,88,0,88,0,,,,,,,,,,,,,,,,,,,,,,,,,,,,,,,,,,,,,,,,,,,,,,,,,,,,,,,,,,,,100,001,2023-03-01_09h57.41.633,eb_01,2022.2.4,60.00499905796376,
1,stimuli/1.png,s,1,0,1,0,89,0,89,0,0,0,0,0,,,,,,,,,,,,,,,,,,,368.1565094026382,368.1565094026382,368.1565094026382,368.1565094026382,s,1,0.35188615228253184,368.5564439011141,368.5564439011141,368.5564439011141,,,,,,,,,,,,,,,,,,,,,,,,,,,,100,001,2023-03-01_09h57.41.633,eb_01,2022.2.4,60.00499905796376,
,,,1,0,1,0,89,0,89,0,,,,,,,,,,,,,,,,,,,,,,,,,,,,,,,,,,,,,,,,,,,,,,,,,,,,,,,,,,,,100,001,2023-03-01_09h57.41.633,eb_01,2022.2.4,60.00499905796376,
2,stimuli/2.png,s,1,0,1,0,90,0,90,0,0,0,0,0,,,,,,,,,,,,,,,,,,,369.55641281052885,369.55641281052885,369.55641281052885,369.55641281052885,l,0,0.38397616405563895,369.9730224274808,369.9730224274808,369.9730224274808,370.9896619276169,370.9896619276169,370.9896619276169,,,,,,,,,,,,,,,,,,,,,,,,,100,001,2023-03-01_09h57.41.633,eb_01,2022.2.4,60.00499905796376,
,,,1,0,1,0,90,0,90,0,,,,,,,,,,,,,,,,,,,,,,,,,,,,,,,,,,,,,,,,,,,,,,,,,,,,,,,,,,,,100,001,2023-03-01_09h57.41.633,eb_01,2022.2.4,60.00499905796376,
1,stimuli/1.png,s,1,0,1,0,91,0,91,0,0,0,0,0,,,,,,,,,,,,,,,,,,,370.9896619276169,370.9896619276169,370.9896619276169,370.9896619276169,s,1,0.5267601297646252,371.55626399831,371.55626399831,371.55626399831,,,,,,,,,,,,,,,,,,,,,,,,,,,,100,001,2023-03-01_09h57.41.633,eb_01,2022.2.4,60.00499905796376,
,,,1,0,1,0,91,0,91,0,,,,,,,,,,,,,,,,,,,,,,,,,,,,,,,,,,,,,,,,,,,,,,,,,,,,,,,,,,,,100,001,2023-03-01_09h57.41.633,eb_01,2022.2.4,60.00499905796376,
4,stimuli/4.png,l,1,0,1,0,92,0,92,0,0,0,0,0,,,,,,,,,,,,,,,,,,,372.5728763319148,372.5728763319148,372.5728763319148,372.5728763319148,l,1,0.4315972815047644,373.02285912644584,373.02285912644584,373.02285912644584,374.02283739322047,374.02283739322047,374.02283739322047,,,,,,,,,,,,,,,,,,,,,,,,,100,001,2023-03-01_09h57.41.633,eb_01,2022.2.4,60.00499905796376,
,,,1,0,1,0,92,0,92,0,,,,,,,,,,,,,,,,,,,,,,,,,,,,,,,,,,,,,,,,,,,,,,,,,,,,,,,,,,,,100,001,2023-03-01_09h57.41.633,eb_01,2022.2.4,60.00499905796376,
3,stimuli/3.png,l,1,0,1,0,93,0,93,0,0,0,0,0,,,,,,,,,,,,,,,,,,,374.02283739322047,374.02283739322047,374.02283739322047,374.02283739322047,l,1,0.46166006637668033,374.5060865103087,374.5060865103087,374.5060865103087,375.5227202752876,375.5227202752876,375.5227202752876,,,,,,,,,,,,,,,,,,,,,,,,,100,001,2023-03-01_09h57.41.633,eb_01,2022.2.4,60.00499905796376,
,,,1,0,1,0,93,0,93,0,,,,,,,,,,,,,,,,,,,,,,,,,,,,,,,,,,,,,,,,,,,,,,,,,,,,,,,,,,,,100,001,2023-03-01_09h57.41.633,eb_01,2022.2.4,60.00499905796376,
8,stimuli/8.png,l,1,0,1,0,94,0,94,0,0,0,0,0,,,,,,,,,,,,,,,,,,,375.5227202752876,375.5227202752876,375.5227202752876,375.5227202752876,l,1,0.4498311551506049,375.98933140149165,375.98933140149165,375.98933140149165,376.988956201516,376.988956201516,376.988956201516,,,,,,,,,,,,,,,,,,,,,,,,,100,001,2023-03-01_09h57.41.633,eb_01,2022.2.4,60.00499905796376,
,,,1,0,1,0,94,0,94,0,,,,,,,,,,,,,,,,,,,,,,,,,,,,,,,,,,,,,,,,,,,,,,,,,,,,,,,,,,,,100,001,2023-03-01_09h57.41.633,eb_01,2022.2.4,60.00499905796376,
3,stimuli/3.png,l,1,0,1,0,95,0,95,0,0,0,0,0,,,,,,,,,,,,,,,,,,,376.988956201516,376.988956201516,376.988956201516,376.988956201516,l,1,0.47965819490400463,377.48927737028043,377.48927737028043,377.48927737028043,378.5058601225519,378.5058601225519,378.5058601225519,,,,,,,,,,,,,,,,,,,,,,,,,100,001,2023-03-01_09h57.41.633,eb_01,2022.2.4,60.00499905796376,
,,,1,0,1,0,95,0,95,0,,,,,,,,,,,,,,,,,,,,,,,,,,,,,,,,,,,,,,,,,,,,,,,,,,,,,,,,,,,,100,001,2023-03-01_09h57.41.633,eb_01,2022.2.4,60.00499905796376,
8,stimuli/8.png,l,1,0,1,0,96,0,96,0,0,0,0,0,,,,,,,,,,,,,,,,,,,378.5058601225519,378.5058601225519,378.5058601225519,378.5058601225519,l,1,0.5227515572150878,379.05584442633335,379.05584442633335,379.05584442633335,380.05578465996587,380.05578465996587,380.05578465996587,,,,,,,,,,,,,,,,,,,,,,,,,100,001,2023-03-01_09h57.41.633,eb_01,2022.2.4,60.00499905796376,
,,,1,0,1,0,96,0,96,0,,,,,,,,,,,,,,,,,,,,,,,,,,,,,,,,,,,,,,,,,,,,,,,,,,,,,,,,,,,,100,001,2023-03-01_09h57.41.633,eb_01,2022.2.4,60.00499905796376,
3,stimuli/3.png,l,1,0,1,0,97,0,97,0,0,0,0,0,,,,,,,,,,,,,,,,,,,380.05578465996587,380.05578465996587,380.05578465996587,380.05578465996587,l,1,0.5008511074584021,380.5890971656254,380.5890971656254,380.5890971656254,381.6056829364006,381.6056829364006,381.6056829364006,,,,,,,,,,,,,,,,,,,,,,,,,100,001,2023-03-01_09h57.41.633,eb_01,2022.2.4,60.00499905796376,
,,,1,0,1,0,97,0,97,0,,,,,,,,,,,,,,,,,,,,,,,,,,,,,,,,,,,,,,,,,,,,,,,,,,,,,,,,,,,,100,001,2023-03-01_09h57.41.633,eb_01,2022.2.4,60.00499905796376,
4,stimuli/4.png,l,1,0,1,0,98,0,98,0,0,0,0,0,,,,,,,,,,,,,,,,,,,381.6056829364006,381.6056829364006,381.6056829364006,381.6056829364006,l,1,0.5180236752985365,382.1556536569169,382.1556536569169,382.1556536569169,383.1722650849715,383.1722650849715,383.1722650849715,,,,,,,,,,,,,,,,,,,,,,,,,100,001,2023-03-01_09h57.41.633,eb_01,2022.2.4,60.00499905796376,
,,,1,0,1,0,98,0,98,0,,,,,,,,,,,,,,,,,,,,,,,,,,,,,,,,,,,,,,,,,,,,,,,,,,,,,,,,,,,,100,001,2023-03-01_09h57.41.633,eb_01,2022.2.4,60.00499905796376,
1,stimuli/1.png,s,1,0,1,0,99,0,99,0,0,0,0,0,,,,,,,,,,,,,,,,,,,383.1722650849715,383.1722650849715,383.1722650849715,383.1722650849715,s,1,0.5034473222540328,383.7222149778145,383.7222149778145,383.7222149778145,,,,,,,,,,,,,,,,,,,,,,,,,,,,100,001,2023-03-01_09h57.41.633,eb_01,2022.2.4,60.00499905796376,
,,,1,0,1,0,99,0,99,0,,,,,,,,,,,,,,,,,,,,,,,,,,,,,,,,,,,,,,,,,,,,,,,,,,,,,,,,,,,,100,001,2023-03-01_09h57.41.633,eb_01,2022.2.4,60.00499905796376,
,,,1,0,1,0,,,,,,,,,,,,,,,,,,,,,,,,,,,,,,,,,,,,,,,,384.72213287452087,384.72213287452087,return,25.985225522623296,,,,,,,,,,,,,,,,,,,,,100,001,2023-03-01_09h57.41.633,eb_01,2022.2.4,60.00499905796376,
