index,stimulus,correct_answer,block.thisRepN,block.thisTrialN,block.thisN,block.thisIndex,trial.thisRepN,trial.thisTrialN,trial.thisN,trial.thisIndex,display_row.thisRepN,display_row.thisTrialN,display_row.thisN,display_row.thisIndex,pair_questions.thisRepN,pair_questions.thisTrialN,pair_questions.thisN,pair_questions.thisIndex,welcome_text.started,instructions_0_keypress.started,instructions_0_keypress.keys,instructions_0_keypress.rt,instructions_1_keypress.started,instructions_1_text.started,instructions_1_keypress.keys,instructions_1_keypress.rt,instructions_2_keypress.started,instructions_2_text.started,instructions_2_keypress.keys,instructions_2_keypress.rt,text_countdown.started,image.started,size_question.started,size_resp.started,keypress_options.started,size_resp.keys,size_resp.corr,size_resp.rt,fb_image.started,fb.started,fb_size_question.started,fb_image.stopped,fb.stopped,fb_size_question.stopped,block_break_text.started,block_break_keypress.started,block_break_keypress.keys,block_break_keypress.rt,seq_reveal.started,seq_reveal_adv.started,seq_reveal_adv.keys,seq_reveal_adv.rt,instruction_2afc_text.started,instruction_2afc_keypress.started,instruction_2afc_keypress.keys,instruction_2afc_keypress.rt,dist_2afc_test.started,dist_2afc_resp.started,text.started,stim_00.started,stim_01.started,stim_10.started,stim_11.started,dist_2afc_resp.keys,dist_2afc_resp.rt,graph.started,debrief_text.started,debriefing_title.started,participant,session,date,expName,psychopyVersion,frameRate,
,,,,,,,,,,,,,,,,,,,12.918342706236217,12.918342706236217,return,7.194921471191265,,,,,,,,,,,,,,,,,,,,,,,,,,,,,,,,,,,,,,,,,,,,,,,101,001,2023-03-01_11h21.10.942,eb_01,2022.2.4,99.9215507666799,
,,,,,,,,,,,,,,,,,,,,,,,20.13301894794313,20.13301894794313,return,9.268371803058471,,,,,,,,,,,,,,,,,,,,,,,,,,,,,,,,,,,,,,,,,,,101,001,2023-03-01_11h21.10.942,eb_01,2022.2.4,99.9215507666799,
,,,,,,,,,,,,,,,,,,,,,,,,,,,29.41856079185709,29.41856079185709,space,6.725916343086283,,,,,,,,,,,,,,,,,,,,,,,,,,,,,,,,,,,,,,,101,001,2023-03-01_11h21.10.942,eb_01,2022.2.4,99.9215507666799,
6,stimuli/6.png,s,0,0,0,0,0,0,0,0,0,0,0,0,,,,,,,,,,,,,,,,,36.17266132978148,41.20535847692008,41.20535847692008,41.20535847692008,41.20535847692008,s,1,1.8512363403460768,43.08676909999849,43.08676909999849,43.08676909999849,,,,,,,,,,,,,,,,,,,,,,,,,,,,101,001,2023-03-01_11h21.10.942,eb_01,2022.2.4,99.9215507666799,
,,,0,0,0,0,0,0,0,0,,,,,,,,,,,,,,,,,,,,,,,,,,,,,,,,,,,,,,,,,,,,,,,,,,,,,,,,,,,101,001,2023-03-01_11h21.10.942,eb_01,2022.2.4,99.9215507666799,
9,stimuli/9.png,l,0,0,0,0,1,0,1,0,0,0,0,0,,,,,,,,,,,,,,,,,,44.09745937042135,44.09745937042135,44.09745937042135,44.09745937042135,l,1,1.2071626397791988,45.32788154494483,45.32788154494483,45.32788154494483,,,,,,,,,,,,,,,,,,,,,,,,,,,,101,001,2023-03-01_11h21.10.942,eb_01,2022.2.4,99.9215507666799,
,,,0,0,0,0,1,0,1,0,,,,,,,,,,,,,,,,,,,,,,,,,,,,,,,,,,,,,,,,,,,,,,,,,,,,,,,,,,,101,001,2023-03-01_11h21.10.942,eb_01,2022.2.4,99.9215507666799,
8,stimuli/8.png,l,0,0,0,0,2,0,2,0,0,0,0,0,,,,,,,,,,,,,,,,,,46.35882102761934,46.35882102761934,46.35882102761934,46.35882102761934,l,1,0.6818310515354824,47.06923531785651,47.06923531785651,47.06923531785651,,,,,,,,,,,,,,,,,,,,,,,,,,,,101,001,2023-03-01_11h21.10.942,eb_01,2022.2.4,99.9215507666799,
,,,0,0,0,0,2,0,2,0,,,,,,,,,,,,,,,,,,,,,,,,,,,,,,,,,,,,,,,,,,,,,,,,,,,,,,,,,,,101,001,2023-03-01_11h21.10.942,eb_01,2022.2.4,99.9215507666799,
3,stimuli/3.png,l,0,0,0,0,3,0,3,0,0,0,0,0,,,,,,,,,,,,,,,,,,48.079854352006805,48.079854352006805,48.079854352006805,48.079854352006805,l,1,0.6488326594808314,48.739930254860155,48.739930254860155,48.739930254860155,49.75053962985476,49.75053962985476,49.75053962985476,,,,,,,,,,,,,,,,,,,,,,,,,101,001,2023-03-01_11h21.10.942,eb_01,2022.2.4,99.9215507666799,
,,,0,0,0,0,3,0,3,0,,,,,,,,,,,,,,,,,,,,,,,,,,,,,,,,,,,,,,,,,,,,,,,,,,,,,,,,,,,101,001,2023-03-01_11h21.10.942,eb_01,2022.2.4,99.9215507666799,
8,stimuli/8.png,l,0,0,0,0,4,0,4,0,0,0,0,0,,,,,,,,,,,,,,,,,,49.75053962985476,49.75053962985476,49.75053962985476,49.75053962985476,l,1,0.8732154469871602,50.65140590518422,50.65140590518422,50.65140590518422,,,,,,,,,,,,,,,,,,,,,,,,,,,,101,001,2023-03-01_11h21.10.942,eb_01,2022.2.4,99.9215507666799,
,,,0,0,0,0,4,0,4,0,,,,,,,,,,,,,,,,,,,,,,,,,,,,,,,,,,,,,,,,,,,,,,,,,,,,,,,,,,,101,001,2023-03-01_11h21.10.942,eb_01,2022.2.4,99.9215507666799,
6,stimuli/6.png,s,0,0,0,0,5,0,5,0,0,0,0,0,,,,,,,,,,,,,,,,,,51.671718203795535,51.671718203795535,51.671718203795535,51.671718203795535,s,1,1.0480612551709783,52.752653475679836,52.752653475679836,52.752653475679836,,,,,,,,,,,,,,,,,,,,,,,,,,,,101,001,2023-03-01_11h21.10.942,eb_01,2022.2.4,99.9215507666799,
,,,0,0,0,0,5,0,5,0,,,,,,,,,,,,,,,,,,,,,,,,,,,,,,,,,,,,,,,,,,,,,,,,,,,,,,,,,,,101,001,2023-03-01_11h21.10.942,eb_01,2022.2.4,99.9215507666799,
5,stimuli/5.png,s,0,0,0,0,6,0,6,0,0,0,0,0,,,,,,,,,,,,,,,,,,53.76331839082013,53.76331839082013,53.76331839082013,53.76331839082013,s,1,1.1004594574824296,54.88395641426723,54.88395641426723,54.88395641426723,,,,,,,,,,,,,,,,,,,,,,,,,,,,101,001,2023-03-01_11h21.10.942,eb_01,2022.2.4,99.9215507666799,
,,,0,0,0,0,6,0,6,0,,,,,,,,,,,,,,,,,,,,,,,,,,,,,,,,,,,,,,,,,,,,,,,,,,,,,,,,,,,101,001,2023-03-01_11h21.10.942,eb_01,2022.2.4,99.9215507666799,
6,stimuli/6.png,s,0,0,0,0,7,0,7,0,0,0,0,0,,,,,,,,,,,,,,,,,,55.904561506031314,55.904561506031314,55.904561506031314,55.904561506031314,s,1,0.9432657560955704,56.88516622350289,56.88516622350289,56.88516622350289,,,,,,,,,,,,,,,,,,,,,,,,,,,,101,001,2023-03-01_11h21.10.942,eb_01,2022.2.4,99.9215507666799,
,,,0,0,0,0,7,0,7,0,,,,,,,,,,,,,,,,,,,,,,,,,,,,,,,,,,,,,,,,,,,,,,,,,,,,,,,,,,,101,001,2023-03-01_11h21.10.942,eb_01,2022.2.4,99.9215507666799,
5,stimuli/5.png,s,0,0,0,0,8,0,8,0,0,0,0,0,,,,,,,,,,,,,,,,,,57.885768713331345,57.885768713331345,57.885768713331345,57.885768713331345,s,1,0.7381095177443058,58.64621380721837,58.64621380721837,58.64621380721837,,,,,,,,,,,,,,,,,,,,,,,,,,,,101,001,2023-03-01_11h21.10.942,eb_01,2022.2.4,99.9215507666799,
,,,0,0,0,0,8,0,8,0,,,,,,,,,,,,,,,,,,,,,,,,,,,,,,,,,,,,,,,,,,,,,,,,,,,,,,,,,,,101,001,2023-03-01_11h21.10.942,eb_01,2022.2.4,99.9215507666799,
6,stimuli/6.png,s,0,0,0,0,9,0,9,0,0,0,0,0,,,,,,,,,,,,,,,,,,59.666821011922366,59.666821011922366,59.666821011922366,59.666821011922366,s,1,0.6210650020166213,60.32720148002409,60.32720148002409,60.32720148002409,,,,,,,,,,,,,,,,,,,,,,,,,,,,101,001,2023-03-01_11h21.10.942,eb_01,2022.2.4,99.9215507666799,
,,,0,0,0,0,9,0,9,0,,,,,,,,,,,,,,,,,,,,,,,,,,,,,,,,,,,,,,,,,,,,,,,,,,,,,,,,,,,101,001,2023-03-01_11h21.10.942,eb_01,2022.2.4,99.9215507666799,
9,stimuli/9.png,l,0,0,0,0,10,0,10,0,0,0,0,0,,,,,,,,,,,,,,,,,,61.33785251012705,61.33785251012705,61.33785251012705,61.33785251012705,l,1,0.7980515205526899,62.15805457362512,62.15805457362512,62.15805457362512,,,,,,,,,,,,,,,,,,,,,,,,,,,,101,001,2023-03-01_11h21.10.942,eb_01,2022.2.4,99.9215507666799,
,,,0,0,0,0,10,0,10,0,,,,,,,,,,,,,,,,,,,,,,,,,,,,,,,,,,,,,,,,,,,,,,,,,,,,,,,,,,,101,001,2023-03-01_11h21.10.942,eb_01,2022.2.4,99.9215507666799,
6,stimuli/6.png,s,0,0,0,0,11,0,11,0,0,0,0,0,,,,,,,,,,,,,,,,,,63.178655439507565,63.178655439507565,63.178655439507565,63.178655439507565,s,1,0.9732939578116202,64.18956183353657,64.18956183353657,64.18956183353657,,,,,,,,,,,,,,,,,,,,,,,,,,,,101,001,2023-03-01_11h21.10.942,eb_01,2022.2.4,99.9215507666799,
,,,0,0,0,0,11,0,11,0,,,,,,,,,,,,,,,,,,,,,,,,,,,,,,,,,,,,,,,,,,,,,,,,,,,,,,,,,,,101,001,2023-03-01_11h21.10.942,eb_01,2022.2.4,99.9215507666799,
8,stimuli/8.png,l,0,0,0,0,12,0,12,0,0,0,0,0,,,,,,,,,,,,,,,,,,65.19017820840054,65.19017820840054,65.19017820840054,65.19017820840054,l,1,0.6497991787364299,65.8605700893986,65.8605700893986,65.8605700893986,,,,,,,,,,,,,,,,,,,,,,,,,,,,101,001,2023-03-01_11h21.10.942,eb_01,2022.2.4,99.9215507666799,
,,,0,0,0,0,12,0,12,0,,,,,,,,,,,,,,,,,,,,,,,,,,,,,,,,,,,,,,,,,,,,,,,,,,,,,,,,,,,101,001,2023-03-01_11h21.10.942,eb_01,2022.2.4,99.9215507666799,
9,stimuli/9.png,l,0,0,0,0,13,0,13,0,0,0,0,0,,,,,,,,,,,,,,,,,,66.87119425497622,66.87119425497622,66.87119425497622,66.87119425497622,l,1,2.3038924421089177,69.20228505435807,69.20228505435807,69.20228505435807,,,,,,,,,,,,,,,,,,,,,,,,,,,,101,001,2023-03-01_11h21.10.942,eb_01,2022.2.4,99.9215507666799,
,,,0,0,0,0,13,0,13,0,,,,,,,,,,,,,,,,,,,,,,,,,,,,,,,,,,,,,,,,,,,,,,,,,,,,,,,,,,,101,001,2023-03-01_11h21.10.942,eb_01,2022.2.4,99.9215507666799,
5,stimuli/5.png,s,0,0,0,0,14,0,14,0,0,0,0,0,,,,,,,,,,,,,,,,,,70.21320654081683,70.21320654081683,70.21320654081683,70.21320654081683,s,1,0.8018949589222757,71.04371099927266,71.04371099927266,71.04371099927266,,,,,,,,,,,,,,,,,,,,,,,,,,,,101,001,2023-03-01_11h21.10.942,eb_01,2022.2.4,99.9215507666799,
,,,0,0,0,0,14,0,14,0,,,,,,,,,,,,,,,,,,,,,,,,,,,,,,,,,,,,,,,,,,,,,,,,,,,,,,,,,,,101,001,2023-03-01_11h21.10.942,eb_01,2022.2.4,99.9215507666799,
6,stimuli/6.png,s,0,0,0,0,15,0,15,0,0,0,0,0,,,,,,,,,,,,,,,,,,72.06433148531505,72.06433148531505,72.06433148531505,72.06433148531505,s,1,0.8787827427786397,72.97481345001142,72.97481345001142,72.97481345001142,,,,,,,,,,,,,,,,,,,,,,,,,,,,101,001,2023-03-01_11h21.10.942,eb_01,2022.2.4,99.9215507666799,
,,,0,0,0,0,15,0,15,0,,,,,,,,,,,,,,,,,,,,,,,,,,,,,,,,,,,,,,,,,,,,,,,,,,,,,,,,,,,101,001,2023-03-01_11h21.10.942,eb_01,2022.2.4,99.9215507666799,
5,stimuli/5.png,s,0,0,0,0,16,0,16,0,0,0,0,0,,,,,,,,,,,,,,,,,,73.97548627056676,73.97548627056676,73.97548627056676,73.97548627056676,s,1,0.7436505527057307,74.74593251449733,74.74593251449733,74.74593251449733,,,,,,,,,,,,,,,,,,,,,,,,,,,,101,001,2023-03-01_11h21.10.942,eb_01,2022.2.4,99.9215507666799,
,,,0,0,0,0,16,0,16,0,,,,,,,,,,,,,,,,,,,,,,,,,,,,,,,,,,,,,,,,,,,,,,,,,,,,,,,,,,,101,001,2023-03-01_11h21.10.942,eb_01,2022.2.4,99.9215507666799,
9,stimuli/9.png,l,0,0,0,0,17,0,17,0,0,0,0,0,,,,,,,,,,,,,,,,,,75.76657503548995,75.76657503548995,75.76657503548995,75.76657503548995,l,1,1.1606369022065337,76.94697334888042,76.94697334888042,76.94697334888042,,,,,,,,,,,,,,,,,,,,,,,,,,,,101,001,2023-03-01_11h21.10.942,eb_01,2022.2.4,99.9215507666799,
,,,0,0,0,0,17,0,17,0,,,,,,,,,,,,,,,,,,,,,,,,,,,,,,,,,,,,,,,,,,,,,,,,,,,,,,,,,,,101,001,2023-03-01_11h21.10.942,eb_01,2022.2.4,99.9215507666799,
8,stimuli/8.png,l,0,0,0,0,18,0,18,0,0,0,0,0,,,,,,,,,,,,,,,,,,77.95788638357772,77.95788638357772,77.95788638357772,77.95788638357772,l,1,0.7133235208639235,78.69833702544383,78.69833702544383,78.69833702544383,,,,,,,,,,,,,,,,,,,,,,,,,,,,101,001,2023-03-01_11h21.10.942,eb_01,2022.2.4,99.9215507666799,
,,,0,0,0,0,18,0,18,0,,,,,,,,,,,,,,,,,,,,,,,,,,,,,,,,,,,,,,,,,,,,,,,,,,,,,,,,,,,101,001,2023-03-01_11h21.10.942,eb_01,2022.2.4,99.9215507666799,
3,stimuli/3.png,l,0,0,0,0,19,0,19,0,0,0,0,0,,,,,,,,,,,,,,,,,,79.70894519304602,79.70894519304602,79.70894519304602,79.70894519304602,l,1,0.6342787268331449,80.35898100738268,80.35898100738268,80.35898100738268,81.3799766912507,81.3799766912507,81.3799766912507,,,,,,,,,,,,,,,,,,,,,,,,,101,001,2023-03-01_11h21.10.942,eb_01,2022.2.4,99.9215507666799,
,,,0,0,0,0,19,0,19,0,,,,,,,,,,,,,,,,,,,,,,,,,,,,,,,,,,,,,,,,,,,,,,,,,,,,,,,,,,,101,001,2023-03-01_11h21.10.942,eb_01,2022.2.4,99.9215507666799,
4,stimuli/4.png,l,0,0,0,0,20,0,20,0,0,0,0,0,,,,,,,,,,,,,,,,,,81.3799766912507,81.3799766912507,81.3799766912507,81.3799766912507,l,1,3.1543303791677317,84.56188032366663,84.56188032366663,84.56188032366663,,,,,,,,,,,,,,,,,,,,,,,,,,,,101,001,2023-03-01_11h21.10.942,eb_01,2022.2.4,99.9215507666799,
,,,0,0,0,0,20,0,20,0,,,,,,,,,,,,,,,,,,,,,,,,,,,,,,,,,,,,,,,,,,,,,,,,,,,,,,,,,,,101,001,2023-03-01_11h21.10.942,eb_01,2022.2.4,99.9215507666799,
1,stimuli/1.png,s,0,0,0,0,21,0,21,0,0,0,0,0,,,,,,,,,,,,,,,,,,85.59219588525957,85.59219588525957,85.59219588525957,85.59219588525957,s,1,1.166180653804986,86.79322192905965,86.79322192905965,86.79322192905965,,,,,,,,,,,,,,,,,,,,,,,,,,,,101,001,2023-03-01_11h21.10.942,eb_01,2022.2.4,99.9215507666799,
,,,0,0,0,0,21,0,21,0,,,,,,,,,,,,,,,,,,,,,,,,,,,,,,,,,,,,,,,,,,,,,,,,,,,,,,,,,,,101,001,2023-03-01_11h21.10.942,eb_01,2022.2.4,99.9215507666799,
2,stimuli/2.png,s,0,0,0,0,22,0,22,0,0,0,0,0,,,,,,,,,,,,,,,,,,87.81384965946927,87.81384965946927,87.81384965946927,87.81384965946927,l,0,0.9925500881308835,88.83445837341606,88.83445837341606,88.83445837341606,,,,,,,,,,,,,,,,,,,,,,,,,,,,101,001,2023-03-01_11h21.10.942,eb_01,2022.2.4,99.9215507666799,
,,,0,0,0,0,22,0,22,0,,,,,,,,,,,,,,,,,,,,,,,,,,,,,,,,,,,,,,,,,,,,,,,,,,,,,,,,,,,101,001,2023-03-01_11h21.10.942,eb_01,2022.2.4,99.9215507666799,
3,stimuli/3.png,l,0,0,0,0,23,0,23,0,0,0,0,0,,,,,,,,,,,,,,,,,,89.84507318168653,89.84507318168653,89.84507318168653,89.84507318168653,l,1,1.9373745767461514,91.80594545172971,91.80594545172971,91.80594545172971,,,,,,,,,,,,,,,,,,,,,,,,,,,,101,001,2023-03-01_11h21.10.942,eb_01,2022.2.4,99.9215507666799,
,,,0,0,0,0,23,0,23,0,,,,,,,,,,,,,,,,,,,,,,,,,,,,,,,,,,,,,,,,,,,,,,,,,,,,,,,,,,,101,001,2023-03-01_11h21.10.942,eb_01,2022.2.4,99.9215507666799,
4,stimuli/4.png,l,0,0,0,0,24,0,24,0,0,0,0,0,,,,,,,,,,,,,,,,,,92.81658953931583,92.81658953931583,92.81658953931583,92.81658953931583,s,0,1.3019135226131766,94.14767430172651,94.14767430172651,94.14767430172651,,,,,,,,,,,,,,,,,,,,,,,,,,,,101,001,2023-03-01_11h21.10.942,eb_01,2022.2.4,99.9215507666799,
,,,0,0,0,0,24,0,24,0,,,,,,,,,,,,,,,,,,,,,,,,,,,,,,,,,,,,,,,,,,,,,,,,,,,,,,,,,,,101,001,2023-03-01_11h21.10.942,eb_01,2022.2.4,99.9215507666799,
1,stimuli/1.png,s,0,0,0,0,25,0,25,0,0,0,0,0,,,,,,,,,,,,,,,,,,95.16829146743294,95.16829146743294,95.16829146743294,95.16829146743294,s,1,2.741302472357347,97.94001634208325,97.94001634208325,97.94001634208325,,,,,,,,,,,,,,,,,,,,,,,,,,,,101,001,2023-03-01_11h21.10.942,eb_01,2022.2.4,99.9215507666799,
,,,0,0,0,0,25,0,25,0,,,,,,,,,,,,,,,,,,,,,,,,,,,,,,,,,,,,,,,,,,,,,,,,,,,,,,,,,,,101,001,2023-03-01_11h21.10.942,eb_01,2022.2.4,99.9215507666799,
2,stimuli/2.png,s,0,0,0,0,26,0,26,0,0,0,0,0,,,,,,,,,,,,,,,,,,98.94056812134477,98.94056812134477,98.94056812134477,98.94056812134477,s,1,1.2010103613811225,100.16100001237464,100.16100001237464,100.16100001237464,101.18192355442443,101.18192355442443,101.18192355442443,,,,,,,,,,,,,,,,,,,,,,,,,101,001,2023-03-01_11h21.10.942,eb_01,2022.2.4,99.9215507666799,
,,,0,0,0,0,26,0,26,0,,,,,,,,,,,,,,,,,,,,,,,,,,,,,,,,,,,,,,,,,,,,,,,,,,,,,,,,,,,101,001,2023-03-01_11h21.10.942,eb_01,2022.2.4,99.9215507666799,
4,stimuli/4.png,l,0,0,0,0,27,0,27,0,0,0,0,0,,,,,,,,,,,,,,,,,,101.18192355442443,101.18192355442443,101.18192355442443,101.18192355442443,l,1,3.0637428942318365,104.27381381796476,104.27381381796476,104.27381381796476,,,,,,,,,,,,,,,,,,,,,,,,,,,,101,001,2023-03-01_11h21.10.942,eb_01,2022.2.4,99.9215507666799,
,,,0,0,0,0,27,0,27,0,,,,,,,,,,,,,,,,,,,,,,,,,,,,,,,,,,,,,,,,,,,,,,,,,,,,,,,,,,,101,001,2023-03-01_11h21.10.942,eb_01,2022.2.4,99.9215507666799,
1,stimuli/1.png,s,0,0,0,0,28,0,28,0,0,0,0,0,,,,,,,,,,,,,,,,,,105.2944192115774,105.2944192115774,105.2944192115774,105.2944192115774,s,1,0.8312787138529529,106.16495000330542,106.16495000330542,106.16495000330542,,,,,,,,,,,,,,,,,,,,,,,,,,,,101,001,2023-03-01_11h21.10.942,eb_01,2022.2.4,99.9215507666799,
,,,0,0,0,0,28,0,28,0,,,,,,,,,,,,,,,,,,,,,,,,,,,,,,,,,,,,,,,,,,,,,,,,,,,,,,,,,,,101,001,2023-03-01_11h21.10.942,eb_01,2022.2.4,99.9215507666799,
4,stimuli/4.png,l,0,0,0,0,29,0,29,0,0,0,0,0,,,,,,,,,,,,,,,,,,107.1652397779726,107.1652397779726,107.1652397779726,107.1652397779726,l,1,1.1524875933937437,108.34626472907985,108.34626472907985,108.34626472907985,,,,,,,,,,,,,,,,,,,,,,,,,,,,101,001,2023-03-01_11h21.10.942,eb_01,2022.2.4,99.9215507666799,
,,,0,0,0,0,29,0,29,0,,,,,,,,,,,,,,,,,,,,,,,,,,,,,,,,,,,,,,,,,,,,,,,,,,,,,,,,,,,101,001,2023-03-01_11h21.10.942,eb_01,2022.2.4,99.9215507666799,
2,stimuli/2.png,s,0,0,0,0,30,0,30,0,0,0,0,0,,,,,,,,,,,,,,,,,,109.35688436692726,109.35688436692726,109.35688436692726,109.35688436692726,s,1,2.9759737697841047,112.34835865289824,112.34835865289824,112.34835865289824,113.35929583548568,113.35929583548568,113.35929583548568,,,,,,,,,,,,,,,,,,,,,,,,,101,001,2023-03-01_11h21.10.942,eb_01,2022.2.4,99.9215507666799,
,,,0,0,0,0,30,0,30,0,,,,,,,,,,,,,,,,,,,,,,,,,,,,,,,,,,,,,,,,,,,,,,,,,,,,,,,,,,,101,001,2023-03-01_11h21.10.942,eb_01,2022.2.4,99.9215507666799,
3,stimuli/3.png,l,0,0,0,0,31,0,31,0,0,0,0,0,,,,,,,,,,,,,,,,,,113.35929583548568,113.35929583548568,113.35929583548568,113.35929583548568,l,1,0.6695473222916917,114.03938369757816,114.03938369757816,114.03938369757816,115.05032359680263,115.05032359680263,115.05032359680263,,,,,,,,,,,,,,,,,,,,,,,,,101,001,2023-03-01_11h21.10.942,eb_01,2022.2.4,99.9215507666799,
,,,0,0,0,0,31,0,31,0,,,,,,,,,,,,,,,,,,,,,,,,,,,,,,,,,,,,,,,,,,,,,,,,,,,,,,,,,,,101,001,2023-03-01_11h21.10.942,eb_01,2022.2.4,99.9215507666799,
2,stimuli/2.png,s,0,0,0,0,32,0,32,0,0,0,0,0,,,,,,,,,,,,,,,,,,115.05032359680263,115.05032359680263,115.05032359680263,115.05032359680263,s,1,1.906549494695355,116.971180098275,116.971180098275,116.971180098275,117.98177528638553,117.98177528638553,117.98177528638553,,,,,,,,,,,,,,,,,,,,,,,,,101,001,2023-03-01_11h21.10.942,eb_01,2022.2.4,99.9215507666799,
,,,0,0,0,0,32,0,32,0,,,,,,,,,,,,,,,,,,,,,,,,,,,,,,,,,,,,,,,,,,,,,,,,,,,,,,,,,,,101,001,2023-03-01_11h21.10.942,eb_01,2022.2.4,99.9215507666799,
4,stimuli/4.png,l,0,0,0,0,33,0,33,0,0,0,0,0,,,,,,,,,,,,,,,,,,117.98177528638553,117.98177528638553,117.98177528638553,117.98177528638553,l,1,0.4711180820959271,118.48237943638196,118.48237943638196,118.48237943638196,,,,,,,,,,,,,,,,,,,,,,,,,,,,101,001,2023-03-01_11h21.10.942,eb_01,2022.2.4,99.9215507666799,
,,,0,0,0,0,33,0,33,0,,,,,,,,,,,,,,,,,,,,,,,,,,,,,,,,,,,,,,,,,,,,,,,,,,,,,,,,,,,101,001,2023-03-01_11h21.10.942,eb_01,2022.2.4,99.9215507666799,
3,stimuli/3.png,l,0,0,0,0,34,0,34,0,0,0,0,0,,,,,,,,,,,,,,,,,,119.49300571489948,119.49300571489948,119.49300571489948,119.49300571489948,l,1,0.6559215741217486,120.16309303064736,120.16309303064736,120.16309303064736,121.17368761506077,121.17368761506077,121.17368761506077,,,,,,,,,,,,,,,,,,,,,,,,,101,001,2023-03-01_11h21.10.942,eb_01,2022.2.4,99.9215507666799,
,,,0,0,0,0,34,0,34,0,,,,,,,,,,,,,,,,,,,,,,,,,,,,,,,,,,,,,,,,,,,,,,,,,,,,,,,,,,,101,001,2023-03-01_11h21.10.942,eb_01,2022.2.4,99.9215507666799,
4,stimuli/4.png,l,0,0,0,0,35,0,35,0,0,0,0,0,,,,,,,,,,,,,,,,,,121.17368761506077,121.17368761506077,121.17368761506077,121.17368761506077,l,1,1.447304037745198,122.64490348239633,122.64490348239633,122.64490348239633,,,,,,,,,,,,,,,,,,,,,,,,,,,,101,001,2023-03-01_11h21.10.942,eb_01,2022.2.4,99.9215507666799,
,,,0,0,0,0,35,0,35,0,,,,,,,,,,,,,,,,,,,,,,,,,,,,,,,,,,,,,,,,,,,,,,,,,,,,,,,,,,,101,001,2023-03-01_11h21.10.942,eb_01,2022.2.4,99.9215507666799,
1,stimuli/1.png,s,0,0,0,0,36,0,36,0,0,0,0,0,,,,,,,,,,,,,,,,,,123.66554721078319,123.66554721078319,123.66554721078319,123.66554721078319,s,1,2.6754867974195804,126.37719515629578,126.37719515629578,126.37719515629578,,,,,,,,,,,,,,,,,,,,,,,,,,,,101,001,2023-03-01_11h21.10.942,eb_01,2022.2.4,99.9215507666799,
,,,0,0,0,0,36,0,36,0,,,,,,,,,,,,,,,,,,,,,,,,,,,,,,,,,,,,,,,,,,,,,,,,,,,,,,,,,,,101,001,2023-03-01_11h21.10.942,eb_01,2022.2.4,99.9215507666799,
4,stimuli/4.png,l,0,0,0,0,37,0,37,0,0,0,0,0,,,,,,,,,,,,,,,,,,127.37744206846037,127.37744206846037,127.37744206846037,127.37744206846037,l,1,1.1316292506453465,128.53848524518617,128.53848524518617,128.53848524518617,,,,,,,,,,,,,,,,,,,,,,,,,,,,101,001,2023-03-01_11h21.10.942,eb_01,2022.2.4,99.9215507666799,
,,,0,0,0,0,37,0,37,0,,,,,,,,,,,,,,,,,,,,,,,,,,,,,,,,,,,,,,,,,,,,,,,,,,,,,,,,,,,101,001,2023-03-01_11h21.10.942,eb_01,2022.2.4,99.9215507666799,
2,stimuli/2.png,s,0,0,0,0,38,0,38,0,0,0,0,0,,,,,,,,,,,,,,,,,,129.5491024682451,129.5491024682451,129.5491024682451,129.5491024682451,s,1,1.127024550078204,130.68946358181347,130.68946358181347,130.68946358181347,131.70036725920545,131.70036725920545,131.70036725920545,,,,,,,,,,,,,,,,,,,,,,,,,101,001,2023-03-01_11h21.10.942,eb_01,2022.2.4,99.9215507666799,
,,,0,0,0,0,38,0,38,0,,,,,,,,,,,,,,,,,,,,,,,,,,,,,,,,,,,,,,,,,,,,,,,,,,,,,,,,,,,101,001,2023-03-01_11h21.10.942,eb_01,2022.2.4,99.9215507666799,
3,stimuli/3.png,l,0,0,0,0,39,0,39,0,0,0,0,0,,,,,,,,,,,,,,,,,,131.70036725920545,131.70036725920545,131.70036725920545,131.70036725920545,l,1,0.7277775416241639,132.44054714286722,132.44054714286722,132.44054714286722,133.45116828995742,133.45116828995742,133.45116828995742,,,,,,,,,,,,,,,,,,,,,,,,,101,001,2023-03-01_11h21.10.942,eb_01,2022.2.4,99.9215507666799,
,,,0,0,0,0,39,0,39,0,,,,,,,,,,,,,,,,,,,,,,,,,,,,,,,,,,,,,,,,,,,,,,,,,,,,,,,,,,,101,001,2023-03-01_11h21.10.942,eb_01,2022.2.4,99.9215507666799,
8,stimuli/8.png,l,0,0,0,0,40,0,40,0,0,0,0,0,,,,,,,,,,,,,,,,,,133.45116828995742,133.45116828995742,133.45116828995742,133.45116828995742,l,1,0.6010956034297124,134.08183840292986,134.08183840292986,134.08183840292986,,,,,,,,,,,,,,,,,,,,,,,,,,,,101,001,2023-03-01_11h21.10.942,eb_01,2022.2.4,99.9215507666799,
,,,0,0,0,0,40,0,40,0,,,,,,,,,,,,,,,,,,,,,,,,,,,,,,,,,,,,,,,,,,,,,,,,,,,,,,,,,,,101,001,2023-03-01_11h21.10.942,eb_01,2022.2.4,99.9215507666799,
6,stimuli/6.png,s,0,0,0,0,41,0,41,0,0,0,0,0,,,,,,,,,,,,,,,,,,135.10244409839106,135.10244409839106,135.10244409839106,135.10244409839106,s,1,1.9898132267699111,137.12369907021457,137.12369907021457,137.12369907021457,,,,,,,,,,,,,,,,,,,,,,,,,,,,101,001,2023-03-01_11h21.10.942,eb_01,2022.2.4,99.9215507666799,
,,,0,0,0,0,41,0,41,0,,,,,,,,,,,,,,,,,,,,,,,,,,,,,,,,,,,,,,,,,,,,,,,,,,,,,,,,,,,101,001,2023-03-01_11h21.10.942,eb_01,2022.2.4,99.9215507666799,
8,stimuli/8.png,l,0,0,0,0,42,0,42,0,0,0,0,0,,,,,,,,,,,,,,,,,,138.12428978794742,138.12428978794742,138.12428978794742,138.12428978794742,l,1,0.8639671073815407,139.01483706664658,139.01483706664658,139.01483706664658,,,,,,,,,,,,,,,,,,,,,,,,,,,,101,001,2023-03-01_11h21.10.942,eb_01,2022.2.4,99.9215507666799,
,,,0,0,0,0,42,0,42,0,,,,,,,,,,,,,,,,,,,,,,,,,,,,,,,,,,,,,,,,,,,,,,,,,,,,,,,,,,,101,001,2023-03-01_11h21.10.942,eb_01,2022.2.4,99.9215507666799,
6,stimuli/6.png,s,0,0,0,0,43,0,43,0,0,0,0,0,,,,,,,,,,,,,,,,,,140.03546268411628,140.03546268411628,140.03546268411628,140.03546268411628,s,1,0.544823777889178,140.61582489641296,140.61582489641296,140.61582489641296,,,,,,,,,,,,,,,,,,,,,,,,,,,,101,001,2023-03-01_11h21.10.942,eb_01,2022.2.4,99.9215507666799,
,,,0,0,0,0,43,0,43,0,,,,,,,,,,,,,,,,,,,,,,,,,,,,,,,,,,,,,,,,,,,,,,,,,,,,,,,,,,,101,001,2023-03-01_11h21.10.942,eb_01,2022.2.4,99.9215507666799,
8,stimuli/8.png,l,0,0,0,0,44,0,44,0,0,0,0,0,,,,,,,,,,,,,,,,,,141.61642165111698,141.61642165111698,141.61642165111698,141.61642165111698,l,1,0.6518928007044451,142.29682585055707,142.29682585055707,142.29682585055707,,,,,,,,,,,,,,,,,,,,,,,,,,,,101,001,2023-03-01_11h21.10.942,eb_01,2022.2.4,99.9215507666799,
,,,0,0,0,0,44,0,44,0,,,,,,,,,,,,,,,,,,,,,,,,,,,,,,,,,,,,,,,,,,,,,,,,,,,,,,,,,,,101,001,2023-03-01_11h21.10.942,eb_01,2022.2.4,99.9215507666799,
9,stimuli/9.png,l,0,0,0,0,45,0,45,0,0,0,0,0,,,,,,,,,,,,,,,,,,143.3174363755952,143.3174363755952,143.3174363755952,143.3174363755952,l,1,0.621963303485245,143.96750629882627,143.96750629882627,143.96750629882627,,,,,,,,,,,,,,,,,,,,,,,,,,,,101,001,2023-03-01_11h21.10.942,eb_01,2022.2.4,99.9215507666799,
,,,0,0,0,0,45,0,45,0,,,,,,,,,,,,,,,,,,,,,,,,,,,,,,,,,,,,,,,,,,,,,,,,,,,,,,,,,,,101,001,2023-03-01_11h21.10.942,eb_01,2022.2.4,99.9215507666799,
6,stimuli/6.png,s,0,0,0,0,46,0,46,0,0,0,0,0,,,,,,,,,,,,,,,,,,144.98842682238865,144.98842682238865,144.98842682238865,144.98842682238865,s,1,0.6549538474737346,145.67887231773602,145.67887231773602,145.67887231773602,,,,,,,,,,,,,,,,,,,,,,,,,,,,101,001,2023-03-01_11h21.10.942,eb_01,2022.2.4,99.9215507666799,
,,,0,0,0,0,46,0,46,0,,,,,,,,,,,,,,,,,,,,,,,,,,,,,,,,,,,,,,,,,,,,,,,,,,,,,,,,,,,101,001,2023-03-01_11h21.10.942,eb_01,2022.2.4,99.9215507666799,
9,stimuli/9.png,l,0,0,0,0,47,0,47,0,0,0,0,0,,,,,,,,,,,,,,,,,,146.6894626762678,146.6894626762678,146.6894626762678,146.6894626762678,l,1,0.737958291590985,147.4496273527966,147.4496273527966,147.4496273527966,,,,,,,,,,,,,,,,,,,,,,,,,,,,101,001,2023-03-01_11h21.10.942,eb_01,2022.2.4,99.9215507666799,
,,,0,0,0,0,47,0,47,0,,,,,,,,,,,,,,,,,,,,,,,,,,,,,,,,,,,,,,,,,,,,,,,,,,,,,,,,,,,101,001,2023-03-01_11h21.10.942,eb_01,2022.2.4,99.9215507666799,
8,stimuli/8.png,l,0,0,0,0,48,0,48,0,0,0,0,0,,,,,,,,,,,,,,,,,,148.46056393168692,148.46056393168692,148.46056393168692,148.46056393168692,l,1,0.6628713365516887,149.15097954402154,149.15097954402154,149.15097954402154,,,,,,,,,,,,,,,,,,,,,,,,,,,,101,001,2023-03-01_11h21.10.942,eb_01,2022.2.4,99.9215507666799,
,,,0,0,0,0,48,0,48,0,,,,,,,,,,,,,,,,,,,,,,,,,,,,,,,,,,,,,,,,,,,,,,,,,,,,,,,,,,,101,001,2023-03-01_11h21.10.942,eb_01,2022.2.4,99.9215507666799,
6,stimuli/6.png,s,0,0,0,0,49,0,49,0,0,0,0,0,,,,,,,,,,,,,,,,,,150.1715559601671,150.1715559601671,150.1715559601671,150.1715559601671,s,1,2.0079292748832813,152.2128521705472,152.2128521705472,152.2128521705472,,,,,,,,,,,,,,,,,,,,,,,,,,,,101,001,2023-03-01_11h21.10.942,eb_01,2022.2.4,99.9215507666799,
,,,0,0,0,0,49,0,49,0,,,,,,,,,,,,,,,,,,,,,,,,,,,,,,,,,,,,,,,,,,,,,,,,,,,,,,,,,,,101,001,2023-03-01_11h21.10.942,eb_01,2022.2.4,99.9215507666799,
8,stimuli/8.png,l,0,0,0,0,50,0,50,0,0,0,0,0,,,,,,,,,,,,,,,,,,153.2134579807116,153.2134579807116,153.2134579807116,153.2134579807116,l,1,0.7820589774219115,154.02392603018598,154.02392603018598,154.02392603018598,,,,,,,,,,,,,,,,,,,,,,,,,,,,101,001,2023-03-01_11h21.10.942,eb_01,2022.2.4,99.9215507666799,
,,,0,0,0,0,50,0,50,0,,,,,,,,,,,,,,,,,,,,,,,,,,,,,,,,,,,,,,,,,,,,,,,,,,,,,,,,,,,101,001,2023-03-01_11h21.10.942,eb_01,2022.2.4,99.9215507666799,
3,stimuli/3.png,l,0,0,0,0,51,0,51,0,0,0,0,0,,,,,,,,,,,,,,,,,,155.03454898836935,155.03454898836935,155.03454898836935,155.03454898836935,l,1,0.6410002917127713,155.69461764685366,155.69461764685366,155.69461764685366,156.70555030171272,156.70555030171272,156.70555030171272,,,,,,,,,,,,,,,,,,,,,,,,,101,001,2023-03-01_11h21.10.942,eb_01,2022.2.4,99.9215507666799,
,,,0,0,0,0,51,0,51,0,,,,,,,,,,,,,,,,,,,,,,,,,,,,,,,,,,,,,,,,,,,,,,,,,,,,,,,,,,,101,001,2023-03-01_11h21.10.942,eb_01,2022.2.4,99.9215507666799,
2,stimuli/2.png,s,0,0,0,0,52,0,52,0,0,0,0,0,,,,,,,,,,,,,,,,,,156.70555030171272,156.70555030171272,156.70555030171272,156.70555030171272,s,1,1.0500284025729343,157.76586750234492,157.76586750234492,157.76586750234492,158.77648532910098,158.77648532910098,158.77648532910098,,,,,,,,,,,,,,,,,,,,,,,,,101,001,2023-03-01_11h21.10.942,eb_01,2022.2.4,99.9215507666799,
,,,0,0,0,0,52,0,52,0,,,,,,,,,,,,,,,,,,,,,,,,,,,,,,,,,,,,,,,,,,,,,,,,,,,,,,,,,,,101,001,2023-03-01_11h21.10.942,eb_01,2022.2.4,99.9215507666799,
4,stimuli/4.png,l,0,0,0,0,53,0,53,0,0,0,0,0,,,,,,,,,,,,,,,,,,158.77648532910098,158.77648532910098,158.77648532910098,158.77648532910098,l,1,0.6742036389732675,159.4772434822571,159.4772434822571,159.4772434822571,,,,,,,,,,,,,,,,,,,,,,,,,,,,101,001,2023-03-01_11h21.10.942,eb_01,2022.2.4,99.9215507666799,
,,,0,0,0,0,53,0,53,0,,,,,,,,,,,,,,,,,,,,,,,,,,,,,,,,,,,,,,,,,,,,,,,,,,,,,,,,,,,101,001,2023-03-01_11h21.10.942,eb_01,2022.2.4,99.9215507666799,
2,stimuli/2.png,s,0,0,0,0,54,0,54,0,0,0,0,0,,,,,,,,,,,,,,,,,,160.48785285725353,160.48785285725353,160.48785285725353,160.48785285725353,s,1,0.882801253341313,161.38807649688897,161.38807649688897,161.38807649688897,162.4090329404371,162.4090329404371,162.4090329404371,,,,,,,,,,,,,,,,,,,,,,,,,101,001,2023-03-01_11h21.10.942,eb_01,2022.2.4,99.9215507666799,
,,,0,0,0,0,54,0,54,0,,,,,,,,,,,,,,,,,,,,,,,,,,,,,,,,,,,,,,,,,,,,,,,,,,,,,,,,,,,101,001,2023-03-01_11h21.10.942,eb_01,2022.2.4,99.9215507666799,
1,stimuli/1.png,s,0,0,0,0,55,0,55,0,0,0,0,0,,,,,,,,,,,,,,,,,,162.4090329404371,162.4090329404371,162.4090329404371,162.4090329404371,s,1,0.8816506064358691,163.32956223801375,163.32956223801375,163.32956223801375,,,,,,,,,,,,,,,,,,,,,,,,,,,,101,001,2023-03-01_11h21.10.942,eb_01,2022.2.4,99.9215507666799,
,,,0,0,0,0,55,0,55,0,,,,,,,,,,,,,,,,,,,,,,,,,,,,,,,,,,,,,,,,,,,,,,,,,,,,,,,,,,,101,001,2023-03-01_11h21.10.942,eb_01,2022.2.4,99.9215507666799,
2,stimuli/2.png,s,0,0,0,0,56,0,56,0,0,0,0,0,,,,,,,,,,,,,,,,,,164.3301804239709,164.3301804239709,164.3301804239709,164.3301804239709,s,1,0.7685301226556476,165.11029940665503,165.11029940665503,165.11029940665503,166.1312356263461,166.1312356263461,166.1312356263461,,,,,,,,,,,,,,,,,,,,,,,,,101,001,2023-03-01_11h21.10.942,eb_01,2022.2.4,99.9215507666799,
,,,0,0,0,0,56,0,56,0,,,,,,,,,,,,,,,,,,,,,,,,,,,,,,,,,,,,,,,,,,,,,,,,,,,,,,,,,,,101,001,2023-03-01_11h21.10.942,eb_01,2022.2.4,99.9215507666799,
1,stimuli/1.png,s,0,0,0,0,57,0,57,0,0,0,0,0,,,,,,,,,,,,,,,,,,166.1312356263461,166.1312356263461,166.1312356263461,166.1312356263461,s,1,0.6155106857167993,166.78167078639672,166.78167078639672,166.78167078639672,,,,,,,,,,,,,,,,,,,,,,,,,,,,101,001,2023-03-01_11h21.10.942,eb_01,2022.2.4,99.9215507666799,
,,,0,0,0,0,57,0,57,0,,,,,,,,,,,,,,,,,,,,,,,,,,,,,,,,,,,,,,,,,,,,,,,,,,,,,,,,,,,101,001,2023-03-01_11h21.10.942,eb_01,2022.2.4,99.9215507666799,
2,stimuli/2.png,s,0,0,0,0,58,0,58,0,0,0,0,0,,,,,,,,,,,,,,,,,,167.78226573000939,167.78226573000939,167.78226573000939,167.78226573000939,s,1,0.6525064589313843,168.4523445939958,168.4523445939958,168.4523445939958,169.47326934343982,169.47326934343982,169.47326934343982,,,,,,,,,,,,,,,,,,,,,,,,,101,001,2023-03-01_11h21.10.942,eb_01,2022.2.4,99.9215507666799,
,,,0,0,0,0,58,0,58,0,,,,,,,,,,,,,,,,,,,,,,,,,,,,,,,,,,,,,,,,,,,,,,,,,,,,,,,,,,,101,001,2023-03-01_11h21.10.942,eb_01,2022.2.4,99.9215507666799,
1,stimuli/1.png,s,0,0,0,0,59,0,59,0,0,0,0,0,,,,,,,,,,,,,,,,,,169.47326934343982,169.47326934343982,169.47326934343982,169.47326934343982,s,1,1.0895494412689004,170.59396109593945,170.59396109593945,170.59396109593945,,,,,,,,,,,,,,,,,,,,,,,,,,,,101,001,2023-03-01_11h21.10.942,eb_01,2022.2.4,99.9215507666799,
,,,0,0,0,0,59,0,59,0,,,,,,,,,,,,,,,,,,,,,,,,,,,,,,,,,,,,,,,,,,,,,,,,,,,,,,,,,,,101,001,2023-03-01_11h21.10.942,eb_01,2022.2.4,99.9215507666799,
2,stimuli/2.png,s,0,0,0,0,60,0,60,0,0,0,0,0,,,,,,,,,,,,,,,,,,171.59457052828657,171.59457052828657,171.59457052828657,171.59457052828657,s,1,0.8642638245673879,172.47482507118366,172.47482507118366,172.47482507118366,173.49573261525438,173.49573261525438,173.49573261525438,,,,,,,,,,,,,,,,,,,,,,,,,101,001,2023-03-01_11h21.10.942,eb_01,2022.2.4,99.9215507666799,
,,,0,0,0,0,60,0,60,0,,,,,,,,,,,,,,,,,,,,,,,,,,,,,,,,,,,,,,,,,,,,,,,,,,,,,,,,,,,101,001,2023-03-01_11h21.10.942,eb_01,2022.2.4,99.9215507666799,
1,stimuli/1.png,s,0,0,0,0,61,0,61,0,0,0,0,0,,,,,,,,,,,,,,,,,,173.49573261525438,173.49573261525438,173.49573261525438,173.49573261525438,s,1,0.6431515667663916,174.17612594814454,174.17612594814454,174.17612594814454,,,,,,,,,,,,,,,,,,,,,,,,,,,,101,001,2023-03-01_11h21.10.942,eb_01,2022.2.4,99.9215507666799,
,,,0,0,0,0,61,0,61,0,,,,,,,,,,,,,,,,,,,,,,,,,,,,,,,,,,,,,,,,,,,,,,,,,,,,,,,,,,,101,001,2023-03-01_11h21.10.942,eb_01,2022.2.4,99.9215507666799,
2,stimuli/2.png,s,0,0,0,0,62,0,62,0,0,0,0,0,,,,,,,,,,,,,,,,,,175.17672813612444,175.17672813612444,175.17672813612444,175.17672813612444,s,1,0.5131746491297235,175.70674562221393,175.70674562221393,175.70674562221393,176.71736284527287,176.71736284527287,176.71736284527287,,,,,,,,,,,,,,,,,,,,,,,,,101,001,2023-03-01_11h21.10.942,eb_01,2022.2.4,99.9215507666799,
,,,0,0,0,0,62,0,62,0,,,,,,,,,,,,,,,,,,,,,,,,,,,,,,,,,,,,,,,,,,,,,,,,,,,,,,,,,,,101,001,2023-03-01_11h21.10.942,eb_01,2022.2.4,99.9215507666799,
4,stimuli/4.png,l,0,0,0,0,63,0,63,0,0,0,0,0,,,,,,,,,,,,,,,,,,176.71736284527287,176.71736284527287,176.71736284527287,176.71736284527287,l,1,0.6045719938865659,177.34806585974366,177.34806585974366,177.34806585974366,,,,,,,,,,,,,,,,,,,,,,,,,,,,101,001,2023-03-01_11h21.10.942,eb_01,2022.2.4,99.9215507666799,
,,,0,0,0,0,63,0,63,0,,,,,,,,,,,,,,,,,,,,,,,,,,,,,,,,,,,,,,,,,,,,,,,,,,,,,,,,,,,101,001,2023-03-01_11h21.10.942,eb_01,2022.2.4,99.9215507666799,
3,stimuli/3.png,l,0,0,0,0,64,0,64,0,0,0,0,0,,,,,,,,,,,,,,,,,,178.3586779513771,178.3586779513771,178.3586779513771,178.3586779513771,l,1,0.7232869398321782,179.09880501153202,179.09880501153202,179.09880501153202,180.10973857193494,180.10973857193494,180.10973857193494,,,,,,,,,,,,,,,,,,,,,,,,,101,001,2023-03-01_11h21.10.942,eb_01,2022.2.4,99.9215507666799,
,,,0,0,0,0,64,0,64,0,,,,,,,,,,,,,,,,,,,,,,,,,,,,,,,,,,,,,,,,,,,,,,,,,,,,,,,,,,,101,001,2023-03-01_11h21.10.942,eb_01,2022.2.4,99.9215507666799,
2,stimuli/2.png,s,0,0,0,0,65,0,65,0,0,0,0,0,,,,,,,,,,,,,,,,,,180.10973857193494,180.10973857193494,180.10973857193494,180.10973857193494,s,1,0.5562568977438787,180.679766393323,180.679766393323,180.679766393323,181.7007186109895,181.7007186109895,181.7007186109895,,,,,,,,,,,,,,,,,,,,,,,,,101,001,2023-03-01_11h21.10.942,eb_01,2022.2.4,99.9215507666799,
,,,0,0,0,0,65,0,65,0,,,,,,,,,,,,,,,,,,,,,,,,,,,,,,,,,,,,,,,,,,,,,,,,,,,,,,,,,,,101,001,2023-03-01_11h21.10.942,eb_01,2022.2.4,99.9215507666799,
1,stimuli/1.png,s,0,0,0,0,66,0,66,0,0,0,0,0,,,,,,,,,,,,,,,,,,181.7007186109895,181.7007186109895,181.7007186109895,181.7007186109895,s,1,0.8133259658388852,182.55121691776912,182.55121691776912,182.55121691776912,,,,,,,,,,,,,,,,,,,,,,,,,,,,101,001,2023-03-01_11h21.10.942,eb_01,2022.2.4,99.9215507666799,
,,,0,0,0,0,66,0,66,0,,,,,,,,,,,,,,,,,,,,,,,,,,,,,,,,,,,,,,,,,,,,,,,,,,,,,,,,,,,101,001,2023-03-01_11h21.10.942,eb_01,2022.2.4,99.9215507666799,
2,stimuli/2.png,s,0,0,0,0,67,0,67,0,0,0,0,0,,,,,,,,,,,,,,,,,,183.5518369148176,183.5518369148176,183.5518369148176,183.5518369148176,s,1,0.7462223028760491,184.3119469567464,184.3119469567464,184.3119469567464,185.32255965207696,185.32255965207696,185.32255965207696,,,,,,,,,,,,,,,,,,,,,,,,,101,001,2023-03-01_11h21.10.942,eb_01,2022.2.4,99.9215507666799,
,,,0,0,0,0,67,0,67,0,,,,,,,,,,,,,,,,,,,,,,,,,,,,,,,,,,,,,,,,,,,,,,,,,,,,,,,,,,,101,001,2023-03-01_11h21.10.942,eb_01,2022.2.4,99.9215507666799,
4,stimuli/4.png,l,0,0,0,0,68,0,68,0,0,0,0,0,,,,,,,,,,,,,,,,,,185.32255965207696,185.32255965207696,185.32255965207696,185.32255965207696,l,1,0.5354930336106918,185.88325461624663,185.88325461624663,185.88325461624663,,,,,,,,,,,,,,,,,,,,,,,,,,,,101,001,2023-03-01_11h21.10.942,eb_01,2022.2.4,99.9215507666799,
,,,0,0,0,0,68,0,68,0,,,,,,,,,,,,,,,,,,,,,,,,,,,,,,,,,,,,,,,,,,,,,,,,,,,,,,,,,,,101,001,2023-03-01_11h21.10.942,eb_01,2022.2.4,99.9215507666799,
1,stimuli/1.png,s,0,0,0,0,69,0,69,0,0,0,0,0,,,,,,,,,,,,,,,,,,186.90385880246322,186.90385880246322,186.90385880246322,186.90385880246322,s,1,0.7702597152001545,187.70430940207007,187.70430940207007,187.70430940207007,,,,,,,,,,,,,,,,,,,,,,,,,,,,101,001,2023-03-01_11h21.10.942,eb_01,2022.2.4,99.9215507666799,
,,,0,0,0,0,69,0,69,0,,,,,,,,,,,,,,,,,,,,,,,,,,,,,,,,,,,,,,,,,,,,,,,,,,,,,,,,,,,101,001,2023-03-01_11h21.10.942,eb_01,2022.2.4,99.9215507666799,
2,stimuli/2.png,s,0,0,0,0,70,0,70,0,0,0,0,0,,,,,,,,,,,,,,,,,,188.70494811373283,188.70494811373283,188.70494811373283,188.70494811373283,s,1,0.7612241788647225,189.485130484627,189.485130484627,189.485130484627,190.49571873021887,190.49571873021887,190.49571873021887,,,,,,,,,,,,,,,,,,,,,,,,,101,001,2023-03-01_11h21.10.942,eb_01,2022.2.4,99.9215507666799,
,,,0,0,0,0,70,0,70,0,,,,,,,,,,,,,,,,,,,,,,,,,,,,,,,,,,,,,,,,,,,,,,,,,,,,,,,,,,,101,001,2023-03-01_11h21.10.942,eb_01,2022.2.4,99.9215507666799,
4,stimuli/4.png,l,0,0,0,0,71,0,71,0,0,0,0,0,,,,,,,,,,,,,,,,,,190.49571873021887,190.49571873021887,190.49571873021887,190.49571873021887,l,1,0.6654448978133587,191.18645973535604,191.18645973535604,191.18645973535604,,,,,,,,,,,,,,,,,,,,,,,,,,,,101,001,2023-03-01_11h21.10.942,eb_01,2022.2.4,99.9215507666799,
,,,0,0,0,0,71,0,71,0,,,,,,,,,,,,,,,,,,,,,,,,,,,,,,,,,,,,,,,,,,,,,,,,,,,,,,,,,,,101,001,2023-03-01_11h21.10.942,eb_01,2022.2.4,99.9215507666799,
2,stimuli/2.png,s,0,0,0,0,72,0,72,0,0,0,0,0,,,,,,,,,,,,,,,,,,192.19706760110967,192.19706760110967,192.19706760110967,192.19706760110967,s,1,0.5641266947422992,192.7771080427865,192.7771080427865,192.7771080427865,193.7980557327228,193.7980557327228,193.7980557327228,,,,,,,,,,,,,,,,,,,,,,,,,101,001,2023-03-01_11h21.10.942,eb_01,2022.2.4,99.9215507666799,
,,,0,0,0,0,72,0,72,0,,,,,,,,,,,,,,,,,,,,,,,,,,,,,,,,,,,,,,,,,,,,,,,,,,,,,,,,,,,101,001,2023-03-01_11h21.10.942,eb_01,2022.2.4,99.9215507666799,
1,stimuli/1.png,s,0,0,0,0,73,0,73,0,0,0,0,0,,,,,,,,,,,,,,,,,,193.7980557327228,193.7980557327228,193.7980557327228,193.7980557327228,s,1,0.7392103596321249,194.5685098247195,194.5685098247195,194.5685098247195,,,,,,,,,,,,,,,,,,,,,,,,,,,,101,001,2023-03-01_11h21.10.942,eb_01,2022.2.4,99.9215507666799,
,,,0,0,0,0,73,0,73,0,,,,,,,,,,,,,,,,,,,,,,,,,,,,,,,,,,,,,,,,,,,,,,,,,,,,,,,,,,,101,001,2023-03-01_11h21.10.942,eb_01,2022.2.4,99.9215507666799,
2,stimuli/2.png,s,0,0,0,0,74,0,74,0,0,0,0,0,,,,,,,,,,,,,,,,,,195.56912408664357,195.56912408664357,195.56912408664357,195.56912408664357,s,1,0.5361353674561542,196.11913783584714,196.11913783584714,196.11913783584714,197.12974268311336,197.12974268311336,197.12974268311336,,,,,,,,,,,,,,,,,,,,,,,,,101,001,2023-03-01_11h21.10.942,eb_01,2022.2.4,99.9215507666799,
,,,0,0,0,0,74,0,74,0,,,,,,,,,,,,,,,,,,,,,,,,,,,,,,,,,,,,,,,,,,,,,,,,,,,,,,,,,,,101,001,2023-03-01_11h21.10.942,eb_01,2022.2.4,99.9215507666799,
4,stimuli/4.png,l,0,0,0,0,75,0,75,0,0,0,0,0,,,,,,,,,,,,,,,,,,197.12974268311336,197.12974268311336,197.12974268311336,197.12974268311336,l,1,0.48757637763446837,197.64038179019735,197.64038179019735,197.64038179019735,,,,,,,,,,,,,,,,,,,,,,,,,,,,101,001,2023-03-01_11h21.10.942,eb_01,2022.2.4,99.9215507666799,
,,,0,0,0,0,75,0,75,0,,,,,,,,,,,,,,,,,,,,,,,,,,,,,,,,,,,,,,,,,,,,,,,,,,,,,,,,,,,101,001,2023-03-01_11h21.10.942,eb_01,2022.2.4,99.9215507666799,
1,stimuli/1.png,s,0,0,0,0,76,0,76,0,0,0,0,0,,,,,,,,,,,,,,,,,,198.6610055965739,198.6610055965739,198.6610055965739,198.6610055965739,s,1,0.5163491909752338,199.21132330733053,199.21132330733053,199.21132330733053,,,,,,,,,,,,,,,,,,,,,,,,,,,,101,001,2023-03-01_11h21.10.942,eb_01,2022.2.4,99.9215507666799,
,,,0,0,0,0,76,0,76,0,,,,,,,,,,,,,,,,,,,,,,,,,,,,,,,,,,,,,,,,,,,,,,,,,,,,,,,,,,,101,001,2023-03-01_11h21.10.942,eb_01,2022.2.4,99.9215507666799,
4,stimuli/4.png,l,0,0,0,0,77,0,77,0,0,0,0,0,,,,,,,,,,,,,,,,,,200.21162394854764,200.21162394854764,200.21162394854764,200.21162394854764,l,1,0.7017382693084073,200.94239098511025,200.94239098511025,200.94239098511025,,,,,,,,,,,,,,,,,,,,,,,,,,,,101,001,2023-03-01_11h21.10.942,eb_01,2022.2.4,99.9215507666799,
,,,0,0,0,0,77,0,77,0,,,,,,,,,,,,,,,,,,,,,,,,,,,,,,,,,,,,,,,,,,,,,,,,,,,,,,,,,,,101,001,2023-03-01_11h21.10.942,eb_01,2022.2.4,99.9215507666799,
2,stimuli/2.png,s,0,0,0,0,78,0,78,0,0,0,0,0,,,,,,,,,,,,,,,,,,201.95299432313368,201.95299432313368,201.95299432313368,201.95299432313368,s,1,0.6006509804246889,202.56301135041213,202.56301135041213,202.56301135041213,203.58363847712462,203.58363847712462,203.58363847712462,,,,,,,,,,,,,,,,,,,,,,,,,101,001,2023-03-01_11h21.10.942,eb_01,2022.2.4,99.9215507666799,
,,,0,0,0,0,78,0,78,0,,,,,,,,,,,,,,,,,,,,,,,,,,,,,,,,,,,,,,,,,,,,,,,,,,,,,,,,,,,101,001,2023-03-01_11h21.10.942,eb_01,2022.2.4,99.9215507666799,
1,stimuli/1.png,s,0,0,0,0,79,0,79,0,0,0,0,0,,,,,,,,,,,,,,,,,,203.58363847712462,203.58363847712462,203.58363847712462,203.58363847712462,s,1,0.6097520179082494,204.22433509542498,204.22433509542498,204.22433509542498,,,,,,,,,,,,,,,,,,,,,,,,,,,,101,001,2023-03-01_11h21.10.942,eb_01,2022.2.4,99.9215507666799,
,,,0,0,0,0,79,0,79,0,,,,,,,,,,,,,,,,,,,,,,,,,,,,,,,,,,,,,,,,,,,,,,,,,,,,,,,,,,,101,001,2023-03-01_11h21.10.942,eb_01,2022.2.4,99.9215507666799,
4,stimuli/4.png,l,0,0,0,0,80,0,80,0,0,0,0,0,,,,,,,,,,,,,,,,,,205.22466984553466,205.22466984553466,205.22466984553466,205.22466984553466,l,1,0.5997777323937044,205.8453342807352,205.8453342807352,205.8453342807352,,,,,,,,,,,,,,,,,,,,,,,,,,,,101,001,2023-03-01_11h21.10.942,eb_01,2022.2.4,99.9215507666799,
,,,0,0,0,0,80,0,80,0,,,,,,,,,,,,,,,,,,,,,,,,,,,,,,,,,,,,,,,,,,,,,,,,,,,,,,,,,,,101,001,2023-03-01_11h21.10.942,eb_01,2022.2.4,99.9215507666799,
3,stimuli/3.png,l,0,0,0,0,81,0,81,0,0,0,0,0,,,,,,,,,,,,,,,,,,206.85595059824846,206.85595059824846,206.85595059824846,206.85595059824846,l,1,0.5124861324475205,207.3859729139167,207.3859729139167,207.3859729139167,208.39657776118293,208.39657776118293,208.39657776118293,,,,,,,,,,,,,,,,,,,,,,,,,101,001,2023-03-01_11h21.10.942,eb_01,2022.2.4,99.9215507666799,
,,,0,0,0,0,81,0,81,0,,,,,,,,,,,,,,,,,,,,,,,,,,,,,,,,,,,,,,,,,,,,,,,,,,,,,,,,,,,101,001,2023-03-01_11h21.10.942,eb_01,2022.2.4,99.9215507666799,
4,stimuli/4.png,l,0,0,0,0,82,0,82,0,0,0,0,0,,,,,,,,,,,,,,,,,,208.39657776118293,208.39657776118293,208.39657776118293,208.39657776118293,s,0,0.7638937279843958,209.187357131279,209.187357131279,209.187357131279,,,,,,,,,,,,,,,,,,,,,,,,,,,,101,001,2023-03-01_11h21.10.942,eb_01,2022.2.4,99.9215507666799,
,,,0,0,0,0,82,0,82,0,,,,,,,,,,,,,,,,,,,,,,,,,,,,,,,,,,,,,,,,,,,,,,,,,,,,,,,,,,,101,001,2023-03-01_11h21.10.942,eb_01,2022.2.4,99.9215507666799,
1,stimuli/1.png,s,0,0,0,0,83,0,83,0,0,0,0,0,,,,,,,,,,,,,,,,,,210.2079803339584,210.2079803339584,210.2079803339584,210.2079803339584,s,1,0.8165367295168835,211.058515768118,211.058515768118,211.058515768118,,,,,,,,,,,,,,,,,,,,,,,,,,,,101,001,2023-03-01_11h21.10.942,eb_01,2022.2.4,99.9215507666799,
,,,0,0,0,0,83,0,83,0,,,,,,,,,,,,,,,,,,,,,,,,,,,,,,,,,,,,,,,,,,,,,,,,,,,,,,,,,,,101,001,2023-03-01_11h21.10.942,eb_01,2022.2.4,99.9215507666799,
4,stimuli/4.png,l,0,0,0,0,84,0,84,0,0,0,0,0,,,,,,,,,,,,,,,,,,212.05878079119975,212.05878079119975,212.05878079119975,212.05878079119975,l,1,0.5577582927380718,212.6394735277263,212.6394735277263,212.6394735277263,,,,,,,,,,,,,,,,,,,,,,,,,,,,101,001,2023-03-01_11h21.10.942,eb_01,2022.2.4,99.9215507666799,
,,,0,0,0,0,84,0,84,0,,,,,,,,,,,,,,,,,,,,,,,,,,,,,,,,,,,,,,,,,,,,,,,,,,,,,,,,,,,101,001,2023-03-01_11h21.10.942,eb_01,2022.2.4,99.9215507666799,
2,stimuli/2.png,s,0,0,0,0,85,0,85,0,0,0,0,0,,,,,,,,,,,,,,,,,,213.6500792805382,213.6500792805382,213.6500792805382,213.6500792805382,s,1,0.6304787546632724,214.29016193876123,214.29016193876123,214.29016193876123,215.31108880114516,215.31108880114516,215.31108880114516,,,,,,,,,,,,,,,,,,,,,,,,,101,001,2023-03-01_11h21.10.942,eb_01,2022.2.4,99.9215507666799,
,,,0,0,0,0,85,0,85,0,,,,,,,,,,,,,,,,,,,,,,,,,,,,,,,,,,,,,,,,,,,,,,,,,,,,,,,,,,,101,001,2023-03-01_11h21.10.942,eb_01,2022.2.4,99.9215507666799,
1,stimuli/1.png,s,0,0,0,0,86,0,86,0,0,0,0,0,,,,,,,,,,,,,,,,,,215.31108880114516,215.31108880114516,215.31108880114516,215.31108880114516,s,1,3.4095735650098504,218.7532004253644,218.7532004253644,218.7532004253644,,,,,,,,,,,,,,,,,,,,,,,,,,,,101,001,2023-03-01_11h21.10.942,eb_01,2022.2.4,99.9215507666799,
,,,0,0,0,0,86,0,86,0,,,,,,,,,,,,,,,,,,,,,,,,,,,,,,,,,,,,,,,,,,,,,,,,,,,,,,,,,,,101,001,2023-03-01_11h21.10.942,eb_01,2022.2.4,99.9215507666799,
2,stimuli/2.png,s,0,0,0,0,87,0,87,0,0,0,0,0,,,,,,,,,,,,,,,,,,219.75378540797283,219.75378540797283,219.75378540797283,219.75378540797283,s,1,1.6309221702722425,221.39447327266316,221.39447327266316,221.39447327266316,222.41541824596425,222.41541824596425,222.41541824596425,,,,,,,,,,,,,,,,,,,,,,,,,101,001,2023-03-01_11h21.10.942,eb_01,2022.2.4,99.9215507666799,
,,,0,0,0,0,87,0,87,0,,,,,,,,,,,,,,,,,,,,,,,,,,,,,,,,,,,,,,,,,,,,,,,,,,,,,,,,,,,101,001,2023-03-01_11h21.10.942,eb_01,2022.2.4,99.9215507666799,
1,stimuli/1.png,s,0,0,0,0,88,0,88,0,0,0,0,0,,,,,,,,,,,,,,,,,,222.41541824596425,222.41541824596425,222.41541824596425,222.41541824596425,s,1,0.6162988124433468,223.06580692132775,223.06580692132775,223.06580692132775,,,,,,,,,,,,,,,,,,,,,,,,,,,,101,001,2023-03-01_11h21.10.942,eb_01,2022.2.4,99.9215507666799,
,,,0,0,0,0,88,0,88,0,,,,,,,,,,,,,,,,,,,,,,,,,,,,,,,,,,,,,,,,,,,,,,,,,,,,,,,,,,,101,001,2023-03-01_11h21.10.942,eb_01,2022.2.4,99.9215507666799,
2,stimuli/2.png,s,0,0,0,0,89,0,89,0,0,0,0,0,,,,,,,,,,,,,,,,,,224.06638224478047,224.06638224478047,224.06638224478047,224.06638224478047,s,1,0.917375898841783,224.99666306360086,224.99666306360086,224.99666306360086,226.0176038110203,226.0176038110203,226.0176038110203,,,,,,,,,,,,,,,,,,,,,,,,,101,001,2023-03-01_11h21.10.942,eb_01,2022.2.4,99.9215507666799,
,,,0,0,0,0,89,0,89,0,,,,,,,,,,,,,,,,,,,,,,,,,,,,,,,,,,,,,,,,,,,,,,,,,,,,,,,,,,,101,001,2023-03-01_11h21.10.942,eb_01,2022.2.4,99.9215507666799,
1,stimuli/1.png,s,0,0,0,0,90,0,90,0,0,0,0,0,,,,,,,,,,,,,,,,,,226.0176038110203,226.0176038110203,226.0176038110203,226.0176038110203,s,1,0.48617308344000776,226.5379183734949,226.5379183734949,226.5379183734949,,,,,,,,,,,,,,,,,,,,,,,,,,,,101,001,2023-03-01_11h21.10.942,eb_01,2022.2.4,99.9215507666799,
,,,0,0,0,0,90,0,90,0,,,,,,,,,,,,,,,,,,,,,,,,,,,,,,,,,,,,,,,,,,,,,,,,,,,,,,,,,,,101,001,2023-03-01_11h21.10.942,eb_01,2022.2.4,99.9215507666799,
2,stimuli/2.png,s,0,0,0,0,91,0,91,0,0,0,0,0,,,,,,,,,,,,,,,,,,227.53852448550606,227.53852448550606,227.53852448550606,227.53852448550606,s,1,0.5092856316205143,228.0584834703168,228.0584834703168,228.0584834703168,229.0694179362672,229.0694179362672,229.0694179362672,,,,,,,,,,,,,,,,,,,,,,,,,101,001,2023-03-01_11h21.10.942,eb_01,2022.2.4,99.9215507666799,
,,,0,0,0,0,91,0,91,0,,,,,,,,,,,,,,,,,,,,,,,,,,,,,,,,,,,,,,,,,,,,,,,,,,,,,,,,,,,101,001,2023-03-01_11h21.10.942,eb_01,2022.2.4,99.9215507666799,
3,stimuli/3.png,l,0,0,0,0,92,0,92,0,0,0,0,0,,,,,,,,,,,,,,,,,,229.0694179362672,229.0694179362672,229.0694179362672,229.0694179362672,l,1,0.46643037316061964,229.54940642979818,229.54940642979818,229.54940642979818,230.56002787873695,230.56002787873695,230.56002787873695,,,,,,,,,,,,,,,,,,,,,,,,,101,001,2023-03-01_11h21.10.942,eb_01,2022.2.4,99.9215507666799,
,,,0,0,0,0,92,0,92,0,,,,,,,,,,,,,,,,,,,,,,,,,,,,,,,,,,,,,,,,,,,,,,,,,,,,,,,,,,,101,001,2023-03-01_11h21.10.942,eb_01,2022.2.4,99.9215507666799,
4,stimuli/4.png,l,0,0,0,0,93,0,93,0,0,0,0,0,,,,,,,,,,,,,,,,,,230.56002787873695,230.56002787873695,230.56002787873695,230.56002787873695,l,1,0.6318322438364703,231.22076030231983,231.22076030231983,231.22076030231983,,,,,,,,,,,,,,,,,,,,,,,,,,,,101,001,2023-03-01_11h21.10.942,eb_01,2022.2.4,99.9215507666799,
,,,0,0,0,0,93,0,93,0,,,,,,,,,,,,,,,,,,,,,,,,,,,,,,,,,,,,,,,,,,,,,,,,,,,,,,,,,,,101,001,2023-03-01_11h21.10.942,eb_01,2022.2.4,99.9215507666799,
3,stimuli/3.png,l,0,0,0,0,94,0,94,0,0,0,0,0,,,,,,,,,,,,,,,,,,232.2313527737915,232.2313527737915,232.2313527737915,232.2313527737915,l,1,0.38455122066625336,232.63129222296084,232.63129222296084,232.63129222296084,233.64190884232266,233.64190884232266,233.64190884232266,,,,,,,,,,,,,,,,,,,,,,,,,101,001,2023-03-01_11h21.10.942,eb_01,2022.2.4,99.9215507666799,
,,,0,0,0,0,94,0,94,0,,,,,,,,,,,,,,,,,,,,,,,,,,,,,,,,,,,,,,,,,,,,,,,,,,,,,,,,,,,101,001,2023-03-01_11h21.10.942,eb_01,2022.2.4,99.9215507666799,
4,stimuli/4.png,l,0,0,0,0,95,0,95,0,0,0,0,0,,,,,,,,,,,,,,,,,,233.64190884232266,233.64190884232266,233.64190884232266,233.64190884232266,l,1,0.3979955578215595,234.0624714941714,234.0624714941714,234.0624714941714,,,,,,,,,,,,,,,,,,,,,,,,,,,,101,001,2023-03-01_11h21.10.942,eb_01,2022.2.4,99.9215507666799,
,,,0,0,0,0,95,0,95,0,,,,,,,,,,,,,,,,,,,,,,,,,,,,,,,,,,,,,,,,,,,,,,,,,,,,,,,,,,,101,001,2023-03-01_11h21.10.942,eb_01,2022.2.4,99.9215507666799,
2,stimuli/2.png,s,0,0,0,0,96,0,96,0,0,0,0,0,,,,,,,,,,,,,,,,,,235.0731016967202,235.0731016967202,235.0731016967202,235.0731016967202,s,1,0.39882443410715496,235.48299339645746,235.48299339645746,235.48299339645746,236.49396861197056,236.49396861197056,236.49396861197056,,,,,,,,,,,,,,,,,,,,,,,,,101,001,2023-03-01_11h21.10.942,eb_01,2022.2.4,99.9215507666799,
,,,0,0,0,0,96,0,96,0,,,,,,,,,,,,,,,,,,,,,,,,,,,,,,,,,,,,,,,,,,,,,,,,,,,,,,,,,,,101,001,2023-03-01_11h21.10.942,eb_01,2022.2.4,99.9215507666799,
3,stimuli/3.png,l,0,0,0,0,97,0,97,0,0,0,0,0,,,,,,,,,,,,,,,,,,236.49396861197056,236.49396861197056,236.49396861197056,236.49396861197056,l,1,0.5050359050183033,237.01396321491666,237.01396321491666,237.01396321491666,238.02455447899592,238.02455447899592,238.02455447899592,,,,,,,,,,,,,,,,,,,,,,,,,101,001,2023-03-01_11h21.10.942,eb_01,2022.2.4,99.9215507666799,
,,,0,0,0,0,97,0,97,0,,,,,,,,,,,,,,,,,,,,,,,,,,,,,,,,,,,,,,,,,,,,,,,,,,,,,,,,,,,101,001,2023-03-01_11h21.10.942,eb_01,2022.2.4,99.9215507666799,
4,stimuli/4.png,l,0,0,0,0,98,0,98,0,0,0,0,0,,,,,,,,,,,,,,,,,,238.02455447899592,238.02455447899592,238.02455447899592,238.02455447899592,l,1,0.4064379616338556,238.45515118238654,238.45515118238654,238.45515118238654,,,,,,,,,,,,,,,,,,,,,,,,,,,,101,001,2023-03-01_11h21.10.942,eb_01,2022.2.4,99.9215507666799,
,,,0,0,0,0,98,0,98,0,,,,,,,,,,,,,,,,,,,,,,,,,,,,,,,,,,,,,,,,,,,,,,,,,,,,,,,,,,,101,001,2023-03-01_11h21.10.942,eb_01,2022.2.4,99.9215507666799,
1,stimuli/1.png,s,0,0,0,0,99,0,99,0,0,0,0,0,,,,,,,,,,,,,,,,,,239.47576985733758,239.47576985733758,239.47576985733758,239.47576985733758,s,1,0.539262820921067,240.0460660221397,240.0460660221397,240.0460660221397,,,,,,,,,,,,,,,,,,,,,,,,,,,,101,001,2023-03-01_11h21.10.942,eb_01,2022.2.4,99.9215507666799,
,,,0,0,0,0,99,0,99,0,,,,,,,,,,,,,,,,,,,,,,,,,,,,,,,,,,,,,,,,,,,,,,,,,,,,,,,,,,,101,001,2023-03-01_11h21.10.942,eb_01,2022.2.4,99.9215507666799,
,,,0,0,0,0,,,,,,,,,,,,,,,,,,,,,,,,,,,,,,,,,,,,,,,241.03670388560568,241.03670388560568,return,7.626484693837483,,,,,,,,,,,,,,,,,,,,,101,001,2023-03-01_11h21.10.942,eb_01,2022.2.4,99.9215507666799,
2,stimuli/2.png,s,1,0,1,0,0,0,0,0,0,0,0,0,,,,,,,,,,,,,,,,,,248.6913332321128,248.6913332321128,248.6913332321128,248.6913332321128,s,1,5.602952576087773,254.30445718715055,254.30445718715055,254.30445718715055,255.31504664013846,255.31504664013846,255.31504664013846,,,,,,,,,,,,,,,,,,,,,,,,,101,001,2023-03-01_11h21.10.942,eb_01,2022.2.4,99.9215507666799,
,,,1,0,1,0,0,0,0,0,,,,,,,,,,,,,,,,,,,,,,,,,,,,,,,,,,,,,,,,,,,,,,,,,,,,,,,,,,,101,001,2023-03-01_11h21.10.942,eb_01,2022.2.4,99.9215507666799,
4,stimuli/4.png,l,1,0,1,0,1,0,1,0,0,0,0,0,,,,,,,,,,,,,,,,,,255.31504664013846,255.31504664013846,255.31504664013846,255.31504664013846,l,1,0.6992661291806144,256.03579683052885,256.03579683052885,256.03579683052885,,,,,,,,,,,,,,,,,,,,,,,,,,,,101,001,2023-03-01_11h21.10.942,eb_01,2022.2.4,99.9215507666799,
,,,1,0,1,0,1,0,1,0,,,,,,,,,,,,,,,,,,,,,,,,,,,,,,,,,,,,,,,,,,,,,,,,,,,,,,,,,,,101,001,2023-03-01_11h21.10.942,eb_01,2022.2.4,99.9215507666799,
2,stimuli/2.png,s,1,0,1,0,2,0,2,0,0,0,0,0,,,,,,,,,,,,,,,,,,257.0464324663535,257.0464324663535,257.0464324663535,257.0464324663535,s,1,0.6079086284389632,257.6664648305614,257.6664648305614,257.6664648305614,258.6770726963132,258.6770726963132,258.6770726963132,,,,,,,,,,,,,,,,,,,,,,,,,101,001,2023-03-01_11h21.10.942,eb_01,2022.2.4,99.9215507666799,
,,,1,0,1,0,2,0,2,0,,,,,,,,,,,,,,,,,,,,,,,,,,,,,,,,,,,,,,,,,,,,,,,,,,,,,,,,,,,101,001,2023-03-01_11h21.10.942,eb_01,2022.2.4,99.9215507666799,
4,stimuli/4.png,l,1,0,1,0,3,0,3,0,0,0,0,0,,,,,,,,,,,,,,,,,,258.6770726963132,258.6770726963132,258.6770726963132,258.6770726963132,l,1,0.5213097710566217,259.2277260627252,259.2277260627252,259.2277260627252,,,,,,,,,,,,,,,,,,,,,,,,,,,,101,001,2023-03-01_11h21.10.942,eb_01,2022.2.4,99.9215507666799,
,,,1,0,1,0,3,0,3,0,,,,,,,,,,,,,,,,,,,,,,,,,,,,,,,,,,,,,,,,,,,,,,,,,,,,,,,,,,,101,001,2023-03-01_11h21.10.942,eb_01,2022.2.4,99.9215507666799,
3,stimuli/3.png,l,1,0,1,0,4,0,4,0,0,0,0,0,,,,,,,,,,,,,,,,,,260.23836169854985,260.23836169854985,260.23836169854985,260.23836169854985,l,1,0.5040250140191347,260.75833788873206,260.75833788873206,260.75833788873206,261.7689632617039,261.7689632617039,261.7689632617039,,,,,,,,,,,,,,,,,,,,,,,,,101,001,2023-03-01_11h21.10.942,eb_01,2022.2.4,99.9215507666799,
,,,1,0,1,0,4,0,4,0,,,,,,,,,,,,,,,,,,,,,,,,,,,,,,,,,,,,,,,,,,,,,,,,,,,,,,,,,,,101,001,2023-03-01_11h21.10.942,eb_01,2022.2.4,99.9215507666799,
8,stimuli/8.png,l,1,0,1,0,5,0,5,0,0,0,0,0,,,,,,,,,,,,,,,,,,261.7689632617039,261.7689632617039,261.7689632617039,261.7689632617039,l,1,0.7334438437574136,262.5297578962836,262.5297578962836,262.5297578962836,,,,,,,,,,,,,,,,,,,,,,,,,,,,101,001,2023-03-01_11h21.10.942,eb_01,2022.2.4,99.9215507666799,
,,,1,0,1,0,5,0,5,0,,,,,,,,,,,,,,,,,,,,,,,,,,,,,,,,,,,,,,,,,,,,,,,,,,,,,,,,,,,101,001,2023-03-01_11h21.10.942,eb_01,2022.2.4,99.9215507666799,
6,stimuli/6.png,s,1,0,1,0,6,0,6,0,0,0,0,0,,,,,,,,,,,,,,,,,,263.55006264867916,263.55006264867916,263.55006264867916,263.55006264867916,s,1,0.6003744870977243,264.18076777608985,264.18076777608985,264.18076777608985,,,,,,,,,,,,,,,,,,,,,,,,,,,,101,001,2023-03-01_11h21.10.942,eb_01,2022.2.4,99.9215507666799,
,,,1,0,1,0,6,0,6,0,,,,,,,,,,,,,,,,,,,,,,,,,,,,,,,,,,,,,,,,,,,,,,,,,,,,,,,,,,,101,001,2023-03-01_11h21.10.942,eb_01,2022.2.4,99.9215507666799,
5,stimuli/5.png,s,1,0,1,0,7,0,7,0,0,0,0,0,,,,,,,,,,,,,,,,,,265.18134340139295,265.18134340139295,265.18134340139295,265.18134340139295,s,1,0.6011294104737317,265.8117518116196,265.8117518116196,265.8117518116196,,,,,,,,,,,,,,,,,,,,,,,,,,,,101,001,2023-03-01_11h21.10.942,eb_01,2022.2.4,99.9215507666799,
,,,1,0,1,0,7,0,7,0,,,,,,,,,,,,,,,,,,,,,,,,,,,,,,,,,,,,,,,,,,,,,,,,,,,,,,,,,,,101,001,2023-03-01_11h21.10.942,eb_01,2022.2.4,99.9215507666799,
9,stimuli/9.png,l,1,0,1,0,8,0,8,0,0,0,0,0,,,,,,,,,,,,,,,,,,266.8323744106019,266.8323744106019,266.8323744106019,266.8323744106019,l,1,0.6212107948958874,267.48240539536164,267.48240539536164,267.48240539536164,,,,,,,,,,,,,,,,,,,,,,,,,,,,101,001,2023-03-01_11h21.10.942,eb_01,2022.2.4,99.9215507666799,
,,,1,0,1,0,8,0,8,0,,,,,,,,,,,,,,,,,,,,,,,,,,,,,,,,,,,,,,,,,,,,,,,,,,,,,,,,,,,101,001,2023-03-01_11h21.10.942,eb_01,2022.2.4,99.9215507666799,
8,stimuli/8.png,l,1,0,1,0,9,0,9,0,0,0,0,0,,,,,,,,,,,,,,,,,,268.4930277498479,268.4930277498479,268.4930277498479,268.4930277498479,l,1,0.5524934492568718,269.07373376771284,269.07373376771284,269.07373376771284,,,,,,,,,,,,,,,,,,,,,,,,,,,,101,001,2023-03-01_11h21.10.942,eb_01,2022.2.4,99.9215507666799,
,,,1,0,1,0,9,0,9,0,,,,,,,,,,,,,,,,,,,,,,,,,,,,,,,,,,,,,,,,,,,,,,,,,,,,,,,,,,,101,001,2023-03-01_11h21.10.942,eb_01,2022.2.4,99.9215507666799,
6,stimuli/6.png,s,1,0,1,0,10,0,10,0,0,0,0,0,,,,,,,,,,,,,,,,,,270.09435395190667,270.09435395190667,270.09435395190667,270.09435395190667,s,1,1.0792232002713718,271.2050361026031,271.2050361026031,271.2050361026031,,,,,,,,,,,,,,,,,,,,,,,,,,,,101,001,2023-03-01_11h21.10.942,eb_01,2022.2.4,99.9215507666799,
,,,1,0,1,0,10,0,10,0,,,,,,,,,,,,,,,,,,,,,,,,,,,,,,,,,,,,,,,,,,,,,,,,,,,,,,,,,,,101,001,2023-03-01_11h21.10.942,eb_01,2022.2.4,99.9215507666799,
9,stimuli/9.png,l,1,0,1,0,11,0,11,0,0,0,0,0,,,,,,,,,,,,,,,,,,272.215633101805,272.215633101805,272.215633101805,272.215633101805,l,1,0.5339530019973608,272.7756715452433,272.7756715452433,272.7756715452433,,,,,,,,,,,,,,,,,,,,,,,,,,,,101,001,2023-03-01_11h21.10.942,eb_01,2022.2.4,99.9215507666799,
,,,1,0,1,0,11,0,11,0,,,,,,,,,,,,,,,,,,,,,,,,,,,,,,,,,,,,,,,,,,,,,,,,,,,,,,,,,,,101,001,2023-03-01_11h21.10.942,eb_01,2022.2.4,99.9215507666799,
5,stimuli/5.png,s,1,0,1,0,12,0,12,0,0,0,0,0,,,,,,,,,,,,,,,,,,273.78661174631816,273.78661174631816,273.78661174631816,273.78661174631816,s,1,0.6030035885032703,274.41696371085345,274.41696371085345,274.41696371085345,,,,,,,,,,,,,,,,,,,,,,,,,,,,101,001,2023-03-01_11h21.10.942,eb_01,2022.2.4,99.9215507666799,
,,,1,0,1,0,12,0,12,0,,,,,,,,,,,,,,,,,,,,,,,,,,,,,,,,,,,,,,,,,,,,,,,,,,,,,,,,,,,101,001,2023-03-01_11h21.10.942,eb_01,2022.2.4,99.9215507666799,
6,stimuli/6.png,s,1,0,1,0,13,0,13,0,0,0,0,0,,,,,,,,,,,,,,,,,,275.4375247327207,275.4375247327207,275.4375247327207,275.4375247327207,s,1,0.6481347854933119,276.11797179466157,276.11797179466157,276.11797179466157,,,,,,,,,,,,,,,,,,,,,,,,,,,,101,001,2023-03-01_11h21.10.942,eb_01,2022.2.4,99.9215507666799,
,,,1,0,1,0,13,0,13,0,,,,,,,,,,,,,,,,,,,,,,,,,,,,,,,,,,,,,,,,,,,,,,,,,,,,,,,,,,,101,001,2023-03-01_11h21.10.942,eb_01,2022.2.4,99.9215507666799,
9,stimuli/9.png,l,1,0,1,0,14,0,14,0,0,0,0,0,,,,,,,,,,,,,,,,,,277.1285971676334,277.1285971676334,277.1285971676334,277.1285971676334,l,1,0.5650726882904564,277.7186792070679,277.7186792070679,277.7186792070679,,,,,,,,,,,,,,,,,,,,,,,,,,,,101,001,2023-03-01_11h21.10.942,eb_01,2022.2.4,99.9215507666799,
,,,1,0,1,0,14,0,14,0,,,,,,,,,,,,,,,,,,,,,,,,,,,,,,,,,,,,,,,,,,,,,,,,,,,,,,,,,,,101,001,2023-03-01_11h21.10.942,eb_01,2022.2.4,99.9215507666799,
5,stimuli/5.png,s,1,0,1,0,15,0,15,0,0,0,0,0,,,,,,,,,,,,,,,,,,278.7295961657983,278.7295961657983,278.7295961657983,278.7295961657983,s,1,0.5081298532859364,279.25990040806937,279.25990040806937,279.25990040806937,,,,,,,,,,,,,,,,,,,,,,,,,,,,101,001,2023-03-01_11h21.10.942,eb_01,2022.2.4,99.9215507666799,
,,,1,0,1,0,15,0,15,0,,,,,,,,,,,,,,,,,,,,,,,,,,,,,,,,,,,,,,,,,,,,,,,,,,,,,,,,,,,101,001,2023-03-01_11h21.10.942,eb_01,2022.2.4,99.9215507666799,
6,stimuli/6.png,s,1,0,1,0,16,0,16,0,0,0,0,0,,,,,,,,,,,,,,,,,,280.28020184012894,280.28020184012894,280.28020184012894,280.28020184012894,s,1,0.605525533652326,280.92092230446906,280.92092230446906,280.92092230446906,,,,,,,,,,,,,,,,,,,,,,,,,,,,101,001,2023-03-01_11h21.10.942,eb_01,2022.2.4,99.9215507666799,
,,,1,0,1,0,16,0,16,0,,,,,,,,,,,,,,,,,,,,,,,,,,,,,,,,,,,,,,,,,,,,,,,,,,,,,,,,,,,101,001,2023-03-01_11h21.10.942,eb_01,2022.2.4,99.9215507666799,
8,stimuli/8.png,l,1,0,1,0,17,0,17,0,0,0,0,0,,,,,,,,,,,,,,,,,,281.92150819262315,281.92150819262315,281.92150819262315,281.92150819262315,l,1,1.0442516238454118,282.99217034886715,282.99217034886715,282.99217034886715,,,,,,,,,,,,,,,,,,,,,,,,,,,,101,001,2023-03-01_11h21.10.942,eb_01,2022.2.4,99.9215507666799,
,,,1,0,1,0,17,0,17,0,,,,,,,,,,,,,,,,,,,,,,,,,,,,,,,,,,,,,,,,,,,,,,,,,,,,,,,,,,,101,001,2023-03-01_11h21.10.942,eb_01,2022.2.4,99.9215507666799,
9,stimuli/9.png,l,1,0,1,0,18,0,18,0,0,0,0,0,,,,,,,,,,,,,,,,,,284.0128155864968,284.0128155864968,284.0128155864968,284.0128155864968,l,1,0.583982900099727,284.62283050083533,284.62283050083533,284.62283050083533,,,,,,,,,,,,,,,,,,,,,,,,,,,,101,001,2023-03-01_11h21.10.942,eb_01,2022.2.4,99.9215507666799,
,,,1,0,1,0,18,0,18,0,,,,,,,,,,,,,,,,,,,,,,,,,,,,,,,,,,,,,,,,,,,,,,,,,,,,,,,,,,,101,001,2023-03-01_11h21.10.942,eb_01,2022.2.4,99.9215507666799,
5,stimuli/5.png,s,1,0,1,0,19,0,19,0,0,0,0,0,,,,,,,,,,,,,,,,,,285.6337734185472,285.6337734185472,285.6337734185472,285.6337734185472,s,1,0.9390338385637733,286.59437764702307,286.59437764702307,286.59437764702307,,,,,,,,,,,,,,,,,,,,,,,,,,,,101,001,2023-03-01_11h21.10.942,eb_01,2022.2.4,99.9215507666799,
,,,1,0,1,0,19,0,19,0,,,,,,,,,,,,,,,,,,,,,,,,,,,,,,,,,,,,,,,,,,,,,,,,,,,,,,,,,,,101,001,2023-03-01_11h21.10.942,eb_01,2022.2.4,99.9215507666799,
6,stimuli/6.png,s,1,0,1,0,20,0,20,0,0,0,0,0,,,,,,,,,,,,,,,,,,287.61464889422314,287.61464889422314,287.61464889422314,287.61464889422314,s,1,0.8782188895711442,288.5255437878186,288.5255437878186,288.5255437878186,,,,,,,,,,,,,,,,,,,,,,,,,,,,101,001,2023-03-01_11h21.10.942,eb_01,2022.2.4,99.9215507666799,
,,,1,0,1,0,20,0,20,0,,,,,,,,,,,,,,,,,,,,,,,,,,,,,,,,,,,,,,,,,,,,,,,,,,,,,,,,,,,101,001,2023-03-01_11h21.10.942,eb_01,2022.2.4,99.9215507666799,
9,stimuli/9.png,l,1,0,1,0,21,0,21,0,0,0,0,0,,,,,,,,,,,,,,,,,,289.53615799239196,289.53615799239196,289.53615799239196,289.53615799239196,l,1,0.6207208945997991,290.1862079936145,290.1862079936145,290.1862079936145,,,,,,,,,,,,,,,,,,,,,,,,,,,,101,001,2023-03-01_11h21.10.942,eb_01,2022.2.4,99.9215507666799,
,,,1,0,1,0,21,0,21,0,,,,,,,,,,,,,,,,,,,,,,,,,,,,,,,,,,,,,,,,,,,,,,,,,,,,,,,,,,,101,001,2023-03-01_11h21.10.942,eb_01,2022.2.4,99.9215507666799,
8,stimuli/8.png,l,1,0,1,0,22,0,22,0,0,0,0,0,,,,,,,,,,,,,,,,,,291.1971581556918,291.1971581556918,291.1971581556918,291.1971581556918,l,1,0.5917980624999473,291.8175020276685,291.8175020276685,291.8175020276685,,,,,,,,,,,,,,,,,,,,,,,,,,,,101,001,2023-03-01_11h21.10.942,eb_01,2022.2.4,99.9215507666799,
,,,1,0,1,0,22,0,22,0,,,,,,,,,,,,,,,,,,,,,,,,,,,,,,,,,,,,,,,,,,,,,,,,,,,,,,,,,,,101,001,2023-03-01_11h21.10.942,eb_01,2022.2.4,99.9215507666799,
3,stimuli/3.png,l,1,0,1,0,23,0,23,0,0,0,0,0,,,,,,,,,,,,,,,,,,292.8281551707114,292.8281551707114,292.8281551707114,292.8281551707114,l,1,0.5048068019241327,293.3481549050848,293.3481549050848,293.3481549050848,294.35902266249104,294.35902266249104,294.35902266249104,,,,,,,,,,,,,,,,,,,,,,,,,101,001,2023-03-01_11h21.10.942,eb_01,2022.2.4,99.9215507666799,
,,,1,0,1,0,23,0,23,0,,,,,,,,,,,,,,,,,,,,,,,,,,,,,,,,,,,,,,,,,,,,,,,,,,,,,,,,,,,101,001,2023-03-01_11h21.10.942,eb_01,2022.2.4,99.9215507666799,
2,stimuli/2.png,s,1,0,1,0,24,0,24,0,0,0,0,0,,,,,,,,,,,,,,,,,,294.35902266249104,294.35902266249104,294.35902266249104,294.35902266249104,s,1,0.6459542311222322,295.01913146684274,295.01913146684274,295.01913146684274,296.03009672134976,296.03009672134976,296.03009672134976,,,,,,,,,,,,,,,,,,,,,,,,,101,001,2023-03-01_11h21.10.942,eb_01,2022.2.4,99.9215507666799,
,,,1,0,1,0,24,0,24,0,,,,,,,,,,,,,,,,,,,,,,,,,,,,,,,,,,,,,,,,,,,,,,,,,,,,,,,,,,,101,001,2023-03-01_11h21.10.942,eb_01,2022.2.4,99.9215507666799,
3,stimuli/3.png,l,1,0,1,0,25,0,25,0,0,0,0,0,,,,,,,,,,,,,,,,,,296.03009672134976,296.03009672134976,296.03009672134976,296.03009672134976,l,1,0.510908067904893,296.56011662222954,296.56011662222954,296.56011662222954,297.5710471641469,297.5710471641469,297.5710471641469,,,,,,,,,,,,,,,,,,,,,,,,,101,001,2023-03-01_11h21.10.942,eb_01,2022.2.4,99.9215507666799,
,,,1,0,1,0,25,0,25,0,,,,,,,,,,,,,,,,,,,,,,,,,,,,,,,,,,,,,,,,,,,,,,,,,,,,,,,,,,,101,001,2023-03-01_11h21.10.942,eb_01,2022.2.4,99.9215507666799,
2,stimuli/2.png,s,1,0,1,0,26,0,26,0,0,0,0,0,,,,,,,,,,,,,,,,,,297.5710471641469,297.5710471641469,297.5710471641469,297.5710471641469,s,1,0.8739893868278159,298.46123524299765,298.46123524299765,298.46123524299765,299.4721899328051,299.4721899328051,299.4721899328051,,,,,,,,,,,,,,,,,,,,,,,,,101,001,2023-03-01_11h21.10.942,eb_01,2022.2.4,99.9215507666799,
,,,1,0,1,0,26,0,26,0,,,,,,,,,,,,,,,,,,,,,,,,,,,,,,,,,,,,,,,,,,,,,,,,,,,,,,,,,,,101,001,2023-03-01_11h21.10.942,eb_01,2022.2.4,99.9215507666799,
3,stimuli/3.png,l,1,0,1,0,27,0,27,0,0,0,0,0,,,,,,,,,,,,,,,,,,299.4721899328051,299.4721899328051,299.4721899328051,299.4721899328051,l,1,0.611876428436517,300.10221227865804,300.10221227865804,300.10221227865804,301.1128331238997,301.1128331238997,301.1128331238997,,,,,,,,,,,,,,,,,,,,,,,,,101,001,2023-03-01_11h21.10.942,eb_01,2022.2.4,99.9215507666799,
,,,1,0,1,0,27,0,27,0,,,,,,,,,,,,,,,,,,,,,,,,,,,,,,,,,,,,,,,,,,,,,,,,,,,,,,,,,,,101,001,2023-03-01_11h21.10.942,eb_01,2022.2.4,99.9215507666799,
4,stimuli/4.png,l,1,0,1,0,28,0,28,0,0,0,0,0,,,,,,,,,,,,,,,,,,301.1128331238997,301.1128331238997,301.1128331238997,301.1128331238997,l,1,0.6112645813009294,301.753565662184,301.753565662184,301.753565662184,,,,,,,,,,,,,,,,,,,,,,,,,,,,101,001,2023-03-01_11h21.10.942,eb_01,2022.2.4,99.9215507666799,
,,,1,0,1,0,28,0,28,0,,,,,,,,,,,,,,,,,,,,,,,,,,,,,,,,,,,,,,,,,,,,,,,,,,,,,,,,,,,101,001,2023-03-01_11h21.10.942,eb_01,2022.2.4,99.9215507666799,
2,stimuli/2.png,s,1,0,1,0,29,0,29,0,0,0,0,0,,,,,,,,,,,,,,,,,,302.7641862055789,302.7641862055789,302.7641862055789,302.7641862055789,s,1,0.5839330950802832,303.36422019373276,303.36422019373276,303.36422019373276,304.3851763354305,304.3851763354305,304.3851763354305,,,,,,,,,,,,,,,,,,,,,,,,,101,001,2023-03-01_11h21.10.942,eb_01,2022.2.4,99.9215507666799,
,,,1,0,1,0,29,0,29,0,,,,,,,,,,,,,,,,,,,,,,,,,,,,,,,,,,,,,,,,,,,,,,,,,,,,,,,,,,,101,001,2023-03-01_11h21.10.942,eb_01,2022.2.4,99.9215507666799,
1,stimuli/1.png,s,1,0,1,0,30,0,30,0,0,0,0,0,,,,,,,,,,,,,,,,,,304.3851763354305,304.3851763354305,304.3851763354305,304.3851763354305,s,1,1.2349994205760595,305.65591854192644,305.65591854192644,305.65591854192644,,,,,,,,,,,,,,,,,,,,,,,,,,,,101,001,2023-03-01_11h21.10.942,eb_01,2022.2.4,99.9215507666799,
,,,1,0,1,0,30,0,30,0,,,,,,,,,,,,,,,,,,,,,,,,,,,,,,,,,,,,,,,,,,,,,,,,,,,,,,,,,,,101,001,2023-03-01_11h21.10.942,eb_01,2022.2.4,99.9215507666799,
4,stimuli/4.png,l,1,0,1,0,31,0,31,0,0,0,0,0,,,,,,,,,,,,,,,,,,306.65621857944643,306.65621857944643,306.65621857944643,306.65621857944643,l,1,0.5879682073173171,307.2669226141661,307.2669226141661,307.2669226141661,,,,,,,,,,,,,,,,,,,,,,,,,,,,101,001,2023-03-01_11h21.10.942,eb_01,2022.2.4,99.9215507666799,
,,,1,0,1,0,31,0,31,0,,,,,,,,,,,,,,,,,,,,,,,,,,,,,,,,,,,,,,,,,,,,,,,,,,,,,,,,,,,101,001,2023-03-01_11h21.10.942,eb_01,2022.2.4,99.9215507666799,
1,stimuli/1.png,s,1,0,1,0,32,0,32,0,0,0,0,0,,,,,,,,,,,,,,,,,,308.28754642054264,308.28754642054264,308.28754642054264,308.28754642054264,s,1,0.4846849697860307,308.80781570572617,308.80781570572617,308.80781570572617,,,,,,,,,,,,,,,,,,,,,,,,,,,,101,001,2023-03-01_11h21.10.942,eb_01,2022.2.4,99.9215507666799,
,,,1,0,1,0,32,0,32,0,,,,,,,,,,,,,,,,,,,,,,,,,,,,,,,,,,,,,,,,,,,,,,,,,,,,,,,,,,,101,001,2023-03-01_11h21.10.942,eb_01,2022.2.4,99.9215507666799,
2,stimuli/2.png,s,1,0,1,0,33,0,33,0,0,0,0,0,,,,,,,,,,,,,,,,,,309.8084411360487,309.8084411360487,309.8084411360487,309.8084411360487,s,1,1.0598261066497798,310.8787797105815,310.8787797105815,310.8787797105815,311.8997150247251,311.8997150247251,311.8997150247251,,,,,,,,,,,,,,,,,,,,,,,,,101,001,2023-03-01_11h21.10.942,eb_01,2022.2.4,99.9215507666799,
,,,1,0,1,0,33,0,33,0,,,,,,,,,,,,,,,,,,,,,,,,,,,,,,,,,,,,,,,,,,,,,,,,,,,,,,,,,,,101,001,2023-03-01_11h21.10.942,eb_01,2022.2.4,99.9215507666799,
1,stimuli/1.png,s,1,0,1,0,34,0,34,0,0,0,0,0,,,,,,,,,,,,,,,,,,311.8997150247251,311.8997150247251,311.8997150247251,311.8997150247251,s,1,0.5605642774298758,312.5001012702087,312.5001012702087,312.5001012702087,,,,,,,,,,,,,,,,,,,,,,,,,,,,101,001,2023-03-01_11h21.10.942,eb_01,2022.2.4,99.9215507666799,
,,,1,0,1,0,34,0,34,0,,,,,,,,,,,,,,,,,,,,,,,,,,,,,,,,,,,,,,,,,,,,,,,,,,,,,,,,,,,101,001,2023-03-01_11h21.10.942,eb_01,2022.2.4,99.9215507666799,
2,stimuli/2.png,s,1,0,1,0,35,0,35,0,0,0,0,0,,,,,,,,,,,,,,,,,,313.5007076840684,313.5007076840684,313.5007076840684,313.5007076840684,s,1,0.5196160984978633,314.0307076629397,314.0307076629397,314.0307076629397,315.0516514288447,315.0516514288447,315.0516514288447,,,,,,,,,,,,,,,,,,,,,,,,,101,001,2023-03-01_11h21.10.942,eb_01,2022.2.4,99.9215507666799,
,,,1,0,1,0,35,0,35,0,,,,,,,,,,,,,,,,,,,,,,,,,,,,,,,,,,,,,,,,,,,,,,,,,,,,,,,,,,,101,001,2023-03-01_11h21.10.942,eb_01,2022.2.4,99.9215507666799,
1,stimuli/1.png,s,1,0,1,0,36,0,36,0,0,0,0,0,,,,,,,,,,,,,,,,,,315.0516514288447,315.0516514288447,315.0516514288447,315.0516514288447,s,1,0.4316824665547756,315.5218932307125,315.5218932307125,315.5218932307125,,,,,,,,,,,,,,,,,,,,,,,,,,,,101,001,2023-03-01_11h21.10.942,eb_01,2022.2.4,99.9215507666799,
,,,1,0,1,0,36,0,36,0,,,,,,,,,,,,,,,,,,,,,,,,,,,,,,,,,,,,,,,,,,,,,,,,,,,,,,,,,,,101,001,2023-03-01_11h21.10.942,eb_01,2022.2.4,99.9215507666799,
4,stimuli/4.png,l,1,0,1,0,37,0,37,0,0,0,0,0,,,,,,,,,,,,,,,,,,316.52220986990505,316.52220986990505,316.52220986990505,316.52220986990505,l,1,0.4651568738681817,317.012830377078,317.012830377078,317.012830377078,,,,,,,,,,,,,,,,,,,,,,,,,,,,101,001,2023-03-01_11h21.10.942,eb_01,2022.2.4,99.9215507666799,
,,,1,0,1,0,37,0,37,0,,,,,,,,,,,,,,,,,,,,,,,,,,,,,,,,,,,,,,,,,,,,,,,,,,,,,,,,,,,101,001,2023-03-01_11h21.10.942,eb_01,2022.2.4,99.9215507666799,
2,stimuli/2.png,s,1,0,1,0,38,0,38,0,0,0,0,0,,,,,,,,,,,,,,,,,,318.02344971307684,318.02344971307684,318.02344971307684,318.02344971307684,s,1,0.5719349146220338,318.6134780234588,318.6134780234588,318.6134780234588,319.62443060032456,319.62443060032456,319.62443060032456,,,,,,,,,,,,,,,,,,,,,,,,,101,001,2023-03-01_11h21.10.942,eb_01,2022.2.4,99.9215507666799,
,,,1,0,1,0,38,0,38,0,,,,,,,,,,,,,,,,,,,,,,,,,,,,,,,,,,,,,,,,,,,,,,,,,,,,,,,,,,,101,001,2023-03-01_11h21.10.942,eb_01,2022.2.4,99.9215507666799,
3,stimuli/3.png,l,1,0,1,0,39,0,39,0,0,0,0,0,,,,,,,,,,,,,,,,,,319.62443060032456,319.62443060032456,319.62443060032456,319.62443060032456,l,1,0.5870053102462407,320.2244271592517,320.2244271592517,320.2244271592517,321.23536886956754,321.23536886956754,321.23536886956754,,,,,,,,,,,,,,,,,,,,,,,,,101,001,2023-03-01_11h21.10.942,eb_01,2022.2.4,99.9215507666799,
,,,1,0,1,0,39,0,39,0,,,,,,,,,,,,,,,,,,,,,,,,,,,,,,,,,,,,,,,,,,,,,,,,,,,,,,,,,,,101,001,2023-03-01_11h21.10.942,eb_01,2022.2.4,99.9215507666799,
2,stimuli/2.png,s,1,0,1,0,40,0,40,0,0,0,0,0,,,,,,,,,,,,,,,,,,321.23536886956754,321.23536886956754,321.23536886956754,321.23536886956754,s,1,0.4320655124447512,321.6853222188638,321.6853222188638,321.6853222188638,322.705959004732,322.705959004732,322.705959004732,,,,,,,,,,,,,,,,,,,,,,,,,101,001,2023-03-01_11h21.10.942,eb_01,2022.2.4,99.9215507666799,
,,,1,0,1,0,40,0,40,0,,,,,,,,,,,,,,,,,,,,,,,,,,,,,,,,,,,,,,,,,,,,,,,,,,,,,,,,,,,101,001,2023-03-01_11h21.10.942,eb_01,2022.2.4,99.9215507666799,
1,stimuli/1.png,s,1,0,1,0,41,0,41,0,0,0,0,0,,,,,,,,,,,,,,,,,,322.705959004732,322.705959004732,322.705959004732,322.705959004732,s,1,0.5855187058350566,323.32666026546394,323.32666026546394,323.32666026546394,,,,,,,,,,,,,,,,,,,,,,,,,,,,101,001,2023-03-01_11h21.10.942,eb_01,2022.2.4,99.9215507666799,
,,,1,0,1,0,41,0,41,0,,,,,,,,,,,,,,,,,,,,,,,,,,,,,,,,,,,,,,,,,,,,,,,,,,,,,,,,,,,101,001,2023-03-01_11h21.10.942,eb_01,2022.2.4,99.9215507666799,
4,stimuli/4.png,l,1,0,1,0,42,0,42,0,0,0,0,0,,,,,,,,,,,,,,,,,,324.3269669436522,324.3269669436522,324.3269669436522,324.3269669436522,l,1,0.6045478460000595,324.9576346418362,324.9576346418362,324.9576346418362,,,,,,,,,,,,,,,,,,,,,,,,,,,,101,001,2023-03-01_11h21.10.942,eb_01,2022.2.4,99.9215507666799,
,,,1,0,1,0,42,0,42,0,,,,,,,,,,,,,,,,,,,,,,,,,,,,,,,,,,,,,,,,,,,,,,,,,,,,,,,,,,,101,001,2023-03-01_11h21.10.942,eb_01,2022.2.4,99.9215507666799,
3,stimuli/3.png,l,1,0,1,0,43,0,43,0,0,0,0,0,,,,,,,,,,,,,,,,,,325.9682745035425,325.9682745035425,325.9682745035425,325.9682745035425,l,1,0.5472587906369881,326.5282791399368,326.5282791399368,326.5282791399368,327.53921602067567,327.53921602067567,327.53921602067567,,,,,,,,,,,,,,,,,,,,,,,,,101,001,2023-03-01_11h21.10.942,eb_01,2022.2.4,99.9215507666799,
,,,1,0,1,0,43,0,43,0,,,,,,,,,,,,,,,,,,,,,,,,,,,,,,,,,,,,,,,,,,,,,,,,,,,,,,,,,,,101,001,2023-03-01_11h21.10.942,eb_01,2022.2.4,99.9215507666799,
2,stimuli/2.png,s,1,0,1,0,44,0,44,0,0,0,0,0,,,,,,,,,,,,,,,,,,327.53921602067567,327.53921602067567,327.53921602067567,327.53921602067567,s,1,0.5603345706367691,328.10924052172595,328.10924052172595,328.10924052172595,329.12015234903083,329.12015234903083,329.12015234903083,,,,,,,,,,,,,,,,,,,,,,,,,101,001,2023-03-01_11h21.10.942,eb_01,2022.2.4,99.9215507666799,
,,,1,0,1,0,44,0,44,0,,,,,,,,,,,,,,,,,,,,,,,,,,,,,,,,,,,,,,,,,,,,,,,,,,,,,,,,,,,101,001,2023-03-01_11h21.10.942,eb_01,2022.2.4,99.9215507666799,
3,stimuli/3.png,l,1,0,1,0,45,0,45,0,0,0,0,0,,,,,,,,,,,,,,,,,,329.12015234903083,329.12015234903083,329.12015234903083,329.12015234903083,l,1,0.6905571930437873,329.82026273506744,329.82026273506744,329.82026273506744,330.83087814703504,330.83087814703504,330.83087814703504,,,,,,,,,,,,,,,,,,,,,,,,,101,001,2023-03-01_11h21.10.942,eb_01,2022.2.4,99.9215507666799,
,,,1,0,1,0,45,0,45,0,,,,,,,,,,,,,,,,,,,,,,,,,,,,,,,,,,,,,,,,,,,,,,,,,,,,,,,,,,,101,001,2023-03-01_11h21.10.942,eb_01,2022.2.4,99.9215507666799,
4,stimuli/4.png,l,1,0,1,0,46,0,46,0,0,0,0,0,,,,,,,,,,,,,,,,,,330.83087814703504,330.83087814703504,330.83087814703504,330.83087814703504,l,1,0.643715419972068,331.50162711493977,331.50162711493977,331.50162711493977,,,,,,,,,,,,,,,,,,,,,,,,,,,,101,001,2023-03-01_11h21.10.942,eb_01,2022.2.4,99.9215507666799,
,,,1,0,1,0,46,0,46,0,,,,,,,,,,,,,,,,,,,,,,,,,,,,,,,,,,,,,,,,,,,,,,,,,,,,,,,,,,,101,001,2023-03-01_11h21.10.942,eb_01,2022.2.4,99.9215507666799,
3,stimuli/3.png,l,1,0,1,0,47,0,47,0,0,0,0,0,,,,,,,,,,,,,,,,,,332.51224856387853,332.51224856387853,332.51224856387853,332.51224856387853,l,1,0.5384052690133103,333.0622608038411,333.0622608038411,333.0622608038411,334.07316267013994,334.07316267013994,334.07316267013994,,,,,,,,,,,,,,,,,,,,,,,,,101,001,2023-03-01_11h21.10.942,eb_01,2022.2.4,99.9215507666799,
,,,1,0,1,0,47,0,47,0,,,,,,,,,,,,,,,,,,,,,,,,,,,,,,,,,,,,,,,,,,,,,,,,,,,,,,,,,,,101,001,2023-03-01_11h21.10.942,eb_01,2022.2.4,99.9215507666799,
2,stimuli/2.png,s,1,0,1,0,48,0,48,0,0,0,0,0,,,,,,,,,,,,,,,,,,334.07316267013994,334.07316267013994,334.07316267013994,334.07316267013994,s,1,0.6175022828556394,334.7032384431968,334.7032384431968,334.7032384431968,335.7242292974861,335.7242292974861,335.7242292974861,,,,,,,,,,,,,,,,,,,,,,,,,101,001,2023-03-01_11h21.10.942,eb_01,2022.2.4,99.9215507666799,
,,,1,0,1,0,48,0,48,0,,,,,,,,,,,,,,,,,,,,,,,,,,,,,,,,,,,,,,,,,,,,,,,,,,,,,,,,,,,101,001,2023-03-01_11h21.10.942,eb_01,2022.2.4,99.9215507666799,
1,stimuli/1.png,s,1,0,1,0,49,0,49,0,0,0,0,0,,,,,,,,,,,,,,,,,,335.7242292974861,335.7242292974861,335.7242292974861,335.7242292974861,s,1,0.5505558830191148,336.31454074186513,336.31454074186513,336.31454074186513,,,,,,,,,,,,,,,,,,,,,,,,,,,,101,001,2023-03-01_11h21.10.942,eb_01,2022.2.4,99.9215507666799,
,,,1,0,1,0,49,0,49,0,,,,,,,,,,,,,,,,,,,,,,,,,,,,,,,,,,,,,,,,,,,,,,,,,,,,,,,,,,,101,001,2023-03-01_11h21.10.942,eb_01,2022.2.4,99.9215507666799,
4,stimuli/4.png,l,1,0,1,0,50,0,50,0,0,0,0,0,,,,,,,,,,,,,,,,,,337.3148534570264,337.3148534570264,337.3148534570264,337.3148534570264,l,1,0.6638746813368925,338.00558601040393,338.00558601040393,338.00558601040393,,,,,,,,,,,,,,,,,,,,,,,,,,,,101,001,2023-03-01_11h21.10.942,eb_01,2022.2.4,99.9215507666799,
,,,1,0,1,0,50,0,50,0,,,,,,,,,,,,,,,,,,,,,,,,,,,,,,,,,,,,,,,,,,,,,,,,,,,,,,,,,,,101,001,2023-03-01_11h21.10.942,eb_01,2022.2.4,99.9215507666799,
3,stimuli/3.png,l,1,0,1,0,51,0,51,0,0,0,0,0,,,,,,,,,,,,,,,,,,339.01621530740704,339.01621530740704,339.01621530740704,339.01621530740704,l,1,0.4505205365476286,339.48613201831904,339.48613201831904,339.48613201831904,340.49678636875797,340.49678636875797,340.49678636875797,,,,,,,,,,,,,,,,,,,,,,,,,101,001,2023-03-01_11h21.10.942,eb_01,2022.2.4,99.9215507666799,
,,,1,0,1,0,51,0,51,0,,,,,,,,,,,,,,,,,,,,,,,,,,,,,,,,,,,,,,,,,,,,,,,,,,,,,,,,,,,101,001,2023-03-01_11h21.10.942,eb_01,2022.2.4,99.9215507666799,
8,stimuli/8.png,l,1,0,1,0,52,0,52,0,0,0,0,0,,,,,,,,,,,,,,,,,,340.49678636875797,340.49678636875797,340.49678636875797,340.49678636875797,l,1,0.5779893940725742,341.0974472964772,341.0974472964772,341.0974472964772,,,,,,,,,,,,,,,,,,,,,,,,,,,,101,001,2023-03-01_11h21.10.942,eb_01,2022.2.4,99.9215507666799,
,,,1,0,1,0,52,0,52,0,,,,,,,,,,,,,,,,,,,,,,,,,,,,,,,,,,,,,,,,,,,,,,,,,,,,,,,,,,,101,001,2023-03-01_11h21.10.942,eb_01,2022.2.4,99.9215507666799,
3,stimuli/3.png,l,1,0,1,0,53,0,53,0,0,0,0,0,,,,,,,,,,,,,,,,,,342.10807629163173,342.10807629163173,342.10807629163173,342.10807629163173,l,1,0.5347586359384877,342.65807494840556,342.65807494840556,342.65807494840556,343.66902661972745,343.66902661972745,343.66902661972745,,,,,,,,,,,,,,,,,,,,,,,,,101,001,2023-03-01_11h21.10.942,eb_01,2022.2.4,99.9215507666799,
,,,1,0,1,0,53,0,53,0,,,,,,,,,,,,,,,,,,,,,,,,,,,,,,,,,,,,,,,,,,,,,,,,,,,,,,,,,,,101,001,2023-03-01_11h21.10.942,eb_01,2022.2.4,99.9215507666799,
2,stimuli/2.png,s,1,0,1,0,54,0,54,0,0,0,0,0,,,,,,,,,,,,,,,,,,343.66902661972745,343.66902661972745,343.66902661972745,343.66902661972745,s,1,1.61385685717687,345.29968073472264,345.29968073472264,345.29968073472264,346.3206414041506,346.3206414041506,346.3206414041506,,,,,,,,,,,,,,,,,,,,,,,,,101,001,2023-03-01_11h21.10.942,eb_01,2022.2.4,99.9215507666799,
,,,1,0,1,0,54,0,54,0,,,,,,,,,,,,,,,,,,,,,,,,,,,,,,,,,,,,,,,,,,,,,,,,,,,,,,,,,,,101,001,2023-03-01_11h21.10.942,eb_01,2022.2.4,99.9215507666799,
1,stimuli/1.png,s,1,0,1,0,55,0,55,0,0,0,0,0,,,,,,,,,,,,,,,,,,346.3206414041506,346.3206414041506,346.3206414041506,346.3206414041506,s,1,0.6972238214748359,347.05107852018045,347.05107852018045,347.05107852018045,,,,,,,,,,,,,,,,,,,,,,,,,,,,101,001,2023-03-01_11h21.10.942,eb_01,2022.2.4,99.9215507666799,
,,,1,0,1,0,55,0,55,0,,,,,,,,,,,,,,,,,,,,,,,,,,,,,,,,,,,,,,,,,,,,,,,,,,,,,,,,,,,101,001,2023-03-01_11h21.10.942,eb_01,2022.2.4,99.9215507666799,
4,stimuli/4.png,l,1,0,1,0,56,0,56,0,0,0,0,0,,,,,,,,,,,,,,,,,,348.051353806115,348.051353806115,348.051353806115,348.051353806115,l,1,0.5265344686722528,348.6019730636326,348.6019730636326,348.6019730636326,,,,,,,,,,,,,,,,,,,,,,,,,,,,101,001,2023-03-01_11h21.10.942,eb_01,2022.2.4,99.9215507666799,
,,,1,0,1,0,56,0,56,0,,,,,,,,,,,,,,,,,,,,,,,,,,,,,,,,,,,,,,,,,,,,,,,,,,,,,,,,,,,101,001,2023-03-01_11h21.10.942,eb_01,2022.2.4,99.9215507666799,
2,stimuli/2.png,s,1,0,1,0,57,0,57,0,0,0,0,0,,,,,,,,,,,,,,,,,,349.6126352621359,349.6126352621359,349.6126352621359,349.6126352621359,s,1,0.49330184209793515,350.1226069819386,350.1226069819386,350.1226069819386,351.14353565541387,351.14353565541387,351.14353565541387,,,,,,,,,,,,,,,,,,,,,,,,,101,001,2023-03-01_11h21.10.942,eb_01,2022.2.4,99.9215507666799,
,,,1,0,1,0,57,0,57,0,,,,,,,,,,,,,,,,,,,,,,,,,,,,,,,,,,,,,,,,,,,,,,,,,,,,,,,,,,,101,001,2023-03-01_11h21.10.942,eb_01,2022.2.4,99.9215507666799,
1,stimuli/1.png,s,1,0,1,0,58,0,58,0,0,0,0,0,,,,,,,,,,,,,,,,,,351.14353565541387,351.14353565541387,351.14353565541387,351.14353565541387,s,1,0.3224253431544639,351.50376691974634,351.50376691974634,351.50376691974634,,,,,,,,,,,,,,,,,,,,,,,,,,,,101,001,2023-03-01_11h21.10.942,eb_01,2022.2.4,99.9215507666799,
,,,1,0,1,0,58,0,58,0,,,,,,,,,,,,,,,,,,,,,,,,,,,,,,,,,,,,,,,,,,,,,,,,,,,,,,,,,,,101,001,2023-03-01_11h21.10.942,eb_01,2022.2.4,99.9215507666799,
4,stimuli/4.png,l,1,0,1,0,59,0,59,0,0,0,0,0,,,,,,,,,,,,,,,,,,352.5144270053079,352.5144270053079,352.5144270053079,352.5144270053079,l,1,0.5196043264004402,353.05471217376544,353.05471217376544,353.05471217376544,,,,,,,,,,,,,,,,,,,,,,,,,,,,101,001,2023-03-01_11h21.10.942,eb_01,2022.2.4,99.9215507666799,
,,,1,0,1,0,59,0,59,0,,,,,,,,,,,,,,,,,,,,,,,,,,,,,,,,,,,,,,,,,,,,,,,,,,,,,,,,,,,101,001,2023-03-01_11h21.10.942,eb_01,2022.2.4,99.9215507666799,
1,stimuli/1.png,s,1,0,1,0,60,0,60,0,0,0,0,0,,,,,,,,,,,,,,,,,,354.0753559021505,354.0753559021505,354.0753559021505,354.0753559021505,s,1,0.5906425860157469,354.7057033389592,354.7057033389592,354.7057033389592,,,,,,,,,,,,,,,,,,,,,,,,,,,,101,001,2023-03-01_11h21.10.942,eb_01,2022.2.4,99.9215507666799,
,,,1,0,1,0,60,0,60,0,,,,,,,,,,,,,,,,,,,,,,,,,,,,,,,,,,,,,,,,,,,,,,,,,,,,,,,,,,,101,001,2023-03-01_11h21.10.942,eb_01,2022.2.4,99.9215507666799,
4,stimuli/4.png,l,1,0,1,0,61,0,61,0,0,0,0,0,,,,,,,,,,,,,,,,,,355.7060033764774,355.7060033764774,355.7060033764774,355.7060033764774,l,1,0.76807372755502,356.49679602791366,356.49679602791366,356.49679602791366,,,,,,,,,,,,,,,,,,,,,,,,,,,,101,001,2023-03-01_11h21.10.942,eb_01,2022.2.4,99.9215507666799,
,,,1,0,1,0,61,0,61,0,,,,,,,,,,,,,,,,,,,,,,,,,,,,,,,,,,,,,,,,,,,,,,,,,,,,,,,,,,,101,001,2023-03-01_11h21.10.942,eb_01,2022.2.4,99.9215507666799,
2,stimuli/2.png,s,1,0,1,0,62,0,62,0,0,0,0,0,,,,,,,,,,,,,,,,,,357.50739876224,357.50739876224,357.50739876224,357.50739876224,s,1,0.5986913792385167,358.1174420503485,358.1174420503485,358.1174420503485,359.1384078512019,359.1384078512019,359.1384078512019,,,,,,,,,,,,,,,,,,,,,,,,,101,001,2023-03-01_11h21.10.942,eb_01,2022.2.4,99.9215507666799,
,,,1,0,1,0,62,0,62,0,,,,,,,,,,,,,,,,,,,,,,,,,,,,,,,,,,,,,,,,,,,,,,,,,,,,,,,,,,,101,001,2023-03-01_11h21.10.942,eb_01,2022.2.4,99.9215507666799,
1,stimuli/1.png,s,1,0,1,0,63,0,63,0,0,0,0,0,,,,,,,,,,,,,,,,,,359.1384078512019,359.1384078512019,359.1384078512019,359.1384078512019,s,1,0.6237360603809066,359.79880733576647,359.79880733576647,359.79880733576647,,,,,,,,,,,,,,,,,,,,,,,,,,,,101,001,2023-03-01_11h21.10.942,eb_01,2022.2.4,99.9215507666799,
,,,1,0,1,0,63,0,63,0,,,,,,,,,,,,,,,,,,,,,,,,,,,,,,,,,,,,,,,,,,,,,,,,,,,,,,,,,,,101,001,2023-03-01_11h21.10.942,eb_01,2022.2.4,99.9215507666799,
2,stimuli/2.png,s,1,0,1,0,64,0,64,0,0,0,0,0,,,,,,,,,,,,,,,,,,360.7994158625661,360.7994158625661,360.7994158625661,360.7994158625661,s,1,0.506709353719998,361.31941891727547,361.31941891727547,361.31941891727547,362.34036087208915,362.34036087208915,362.34036087208915,,,,,,,,,,,,,,,,,,,,,,,,,101,001,2023-03-01_11h21.10.942,eb_01,2022.2.4,99.9215507666799,
,,,1,0,1,0,64,0,64,0,,,,,,,,,,,,,,,,,,,,,,,,,,,,,,,,,,,,,,,,,,,,,,,,,,,,,,,,,,,101,001,2023-03-01_11h21.10.942,eb_01,2022.2.4,99.9215507666799,
1,stimuli/1.png,s,1,0,1,0,65,0,65,0,0,0,0,0,,,,,,,,,,,,,,,,,,362.34036087208915,362.34036087208915,362.34036087208915,362.34036087208915,s,1,0.46879384778731037,362.8406655882627,362.8406655882627,362.8406655882627,,,,,,,,,,,,,,,,,,,,,,,,,,,,101,001,2023-03-01_11h21.10.942,eb_01,2022.2.4,99.9215507666799,
,,,1,0,1,0,65,0,65,0,,,,,,,,,,,,,,,,,,,,,,,,,,,,,,,,,,,,,,,,,,,,,,,,,,,,,,,,,,,101,001,2023-03-01_11h21.10.942,eb_01,2022.2.4,99.9215507666799,
2,stimuli/2.png,s,1,0,1,0,66,0,66,0,0,0,0,0,,,,,,,,,,,,,,,,,,363.8412427228068,363.8412427228068,363.8412427228068,363.8412427228068,s,1,0.5359506361073727,364.39130899367046,364.39130899367046,364.39130899367046,365.41221744328686,365.41221744328686,365.41221744328686,,,,,,,,,,,,,,,,,,,,,,,,,101,001,2023-03-01_11h21.10.942,eb_01,2022.2.4,99.9215507666799,
,,,1,0,1,0,66,0,66,0,,,,,,,,,,,,,,,,,,,,,,,,,,,,,,,,,,,,,,,,,,,,,,,,,,,,,,,,,,,101,001,2023-03-01_11h21.10.942,eb_01,2022.2.4,99.9215507666799,
1,stimuli/1.png,s,1,0,1,0,67,0,67,0,0,0,0,0,,,,,,,,,,,,,,,,,,365.41221744328686,365.41221744328686,365.41221744328686,365.41221744328686,s,1,0.5089816700674419,365.95254819088586,365.95254819088586,365.95254819088586,,,,,,,,,,,,,,,,,,,,,,,,,,,,101,001,2023-03-01_11h21.10.942,eb_01,2022.2.4,99.9215507666799,
,,,1,0,1,0,67,0,67,0,,,,,,,,,,,,,,,,,,,,,,,,,,,,,,,,,,,,,,,,,,,,,,,,,,,,,,,,,,,101,001,2023-03-01_11h21.10.942,eb_01,2022.2.4,99.9215507666799,
2,stimuli/2.png,s,1,0,1,0,68,0,68,0,0,0,0,0,,,,,,,,,,,,,,,,,,366.95316667868974,366.95316667868974,366.95316667868974,366.95316667868974,s,1,0.5280920075074391,367.49316629835994,367.49316629835994,367.49316629835994,368.50378533251205,368.50378533251205,368.50378533251205,,,,,,,,,,,,,,,,,,,,,,,,,101,001,2023-03-01_11h21.10.942,eb_01,2022.2.4,99.9215507666799,
,,,1,0,1,0,68,0,68,0,,,,,,,,,,,,,,,,,,,,,,,,,,,,,,,,,,,,,,,,,,,,,,,,,,,,,,,,,,,101,001,2023-03-01_11h21.10.942,eb_01,2022.2.4,99.9215507666799,
4,stimuli/4.png,l,1,0,1,0,69,0,69,0,0,0,0,0,,,,,,,,,,,,,,,,,,368.50378533251205,368.50378533251205,368.50378533251205,368.50378533251205,l,1,0.5774844013449183,369.104464672997,369.104464672997,369.104464672997,,,,,,,,,,,,,,,,,,,,,,,,,,,,101,001,2023-03-01_11h21.10.942,eb_01,2022.2.4,99.9215507666799,
,,,1,0,1,0,69,0,69,0,,,,,,,,,,,,,,,,,,,,,,,,,,,,,,,,,,,,,,,,,,,,,,,,,,,,,,,,,,,101,001,2023-03-01_11h21.10.942,eb_01,2022.2.4,99.9215507666799,
2,stimuli/2.png,s,1,0,1,0,70,0,70,0,0,0,0,0,,,,,,,,,,,,,,,,,,370.11508612193575,370.11508612193575,370.11508612193575,370.11508612193575,s,1,0.42221015527866257,370.55501115481457,370.55501115481457,370.55501115481457,371.5659335468208,371.5659335468208,371.5659335468208,,,,,,,,,,,,,,,,,,,,,,,,,101,001,2023-03-01_11h21.10.942,eb_01,2022.2.4,99.9215507666799,
,,,1,0,1,0,70,0,70,0,,,,,,,,,,,,,,,,,,,,,,,,,,,,,,,,,,,,,,,,,,,,,,,,,,,,,,,,,,,101,001,2023-03-01_11h21.10.942,eb_01,2022.2.4,99.9215507666799,
3,stimuli/3.png,l,1,0,1,0,71,0,71,0,0,0,0,0,,,,,,,,,,,,,,,,,,371.5659335468208,371.5659335468208,371.5659335468208,371.5659335468208,l,1,0.46738632771302946,372.0459072497688,372.0459072497688,372.0459072497688,373.05653020795216,373.05653020795216,373.05653020795216,,,,,,,,,,,,,,,,,,,,,,,,,101,001,2023-03-01_11h21.10.942,eb_01,2022.2.4,99.9215507666799,
,,,1,0,1,0,71,0,71,0,,,,,,,,,,,,,,,,,,,,,,,,,,,,,,,,,,,,,,,,,,,,,,,,,,,,,,,,,,,101,001,2023-03-01_11h21.10.942,eb_01,2022.2.4,99.9215507666799,
8,stimuli/8.png,l,1,0,1,0,72,0,72,0,0,0,0,0,,,,,,,,,,,,,,,,,,373.05653020795216,373.05653020795216,373.05653020795216,373.05653020795216,l,1,0.44883833423773467,373.527139661428,373.527139661428,373.527139661428,,,,,,,,,,,,,,,,,,,,,,,,,,,,101,001,2023-03-01_11h21.10.942,eb_01,2022.2.4,99.9215507666799,
,,,1,0,1,0,72,0,72,0,,,,,,,,,,,,,,,,,,,,,,,,,,,,,,,,,,,,,,,,,,,,,,,,,,,,,,,,,,,101,001,2023-03-01_11h21.10.942,eb_01,2022.2.4,99.9215507666799,
9,stimuli/9.png,l,1,0,1,0,73,0,73,0,0,0,0,0,,,,,,,,,,,,,,,,,,374.54782776156026,374.54782776156026,374.54782776156026,374.54782776156026,l,1,0.4855561048789241,375.0680925190136,375.0680925190136,375.0680925190136,,,,,,,,,,,,,,,,,,,,,,,,,,,,101,001,2023-03-01_11h21.10.942,eb_01,2022.2.4,99.9215507666799,
,,,1,0,1,0,73,0,73,0,,,,,,,,,,,,,,,,,,,,,,,,,,,,,,,,,,,,,,,,,,,,,,,,,,,,,,,,,,,101,001,2023-03-01_11h21.10.942,eb_01,2022.2.4,99.9215507666799,
8,stimuli/8.png,l,1,0,1,0,74,0,74,0,0,0,0,0,,,,,,,,,,,,,,,,,,376.06869289590213,376.06869289590213,376.06869289590213,376.06869289590213,l,1,0.5007016608069534,376.5990031751444,376.5990031751444,376.5990031751444,,,,,,,,,,,,,,,,,,,,,,,,,,,,101,001,2023-03-01_11h21.10.942,eb_01,2022.2.4,99.9215507666799,
,,,1,0,1,0,74,0,74,0,,,,,,,,,,,,,,,,,,,,,,,,,,,,,,,,,,,,,,,,,,,,,,,,,,,,,,,,,,,101,001,2023-03-01_11h21.10.942,eb_01,2022.2.4,99.9215507666799,
6,stimuli/6.png,s,1,0,1,0,75,0,75,0,0,0,0,0,,,,,,,,,,,,,,,,,,377.61930400350866,377.61930400350866,377.61930400350866,377.61930400350866,s,1,0.549107613382148,378.1999632348379,378.1999632348379,378.1999632348379,,,,,,,,,,,,,,,,,,,,,,,,,,,,101,001,2023-03-01_11h21.10.942,eb_01,2022.2.4,99.9215507666799,
,,,1,0,1,0,75,0,75,0,,,,,,,,,,,,,,,,,,,,,,,,,,,,,,,,,,,,,,,,,,,,,,,,,,,,,,,,,,,101,001,2023-03-01_11h21.10.942,eb_01,2022.2.4,99.9215507666799,
5,stimuli/5.png,s,1,0,1,0,76,0,76,0,0,0,0,0,,,,,,,,,,,,,,,,,,379.20060073910645,379.20060073910645,379.20060073910645,379.20060073910645,s,1,0.7838915003412694,380.0110721089168,380.0110721089168,380.0110721089168,,,,,,,,,,,,,,,,,,,,,,,,,,,,101,001,2023-03-01_11h21.10.942,eb_01,2022.2.4,99.9215507666799,
,,,1,0,1,0,76,0,76,0,,,,,,,,,,,,,,,,,,,,,,,,,,,,,,,,,,,,,,,,,,,,,,,,,,,,,,,,,,,101,001,2023-03-01_11h21.10.942,eb_01,2022.2.4,99.9215507666799,
9,stimuli/9.png,l,1,0,1,0,77,0,77,0,0,0,0,0,,,,,,,,,,,,,,,,,,381.0313599577894,381.0313599577894,381.0313599577894,381.0313599577894,l,1,0.68120350827121,381.7418044328879,381.7418044328879,381.7418044328879,,,,,,,,,,,,,,,,,,,,,,,,,,,,101,001,2023-03-01_11h21.10.942,eb_01,2022.2.4,99.9215507666799,
,,,1,0,1,0,77,0,77,0,,,,,,,,,,,,,,,,,,,,,,,,,,,,,,,,,,,,,,,,,,,,,,,,,,,,,,,,,,,101,001,2023-03-01_11h21.10.942,eb_01,2022.2.4,99.9215507666799,
8,stimuli/8.png,l,1,0,1,0,78,0,78,0,0,0,0,0,,,,,,,,,,,,,,,,,,382.7527491616911,382.7527491616911,382.7527491616911,382.7527491616911,l,1,0.9597789880826895,383.7333505588267,383.7333505588267,383.7333505588267,,,,,,,,,,,,,,,,,,,,,,,,,,,,101,001,2023-03-01_11h21.10.942,eb_01,2022.2.4,99.9215507666799,
,,,1,0,1,0,78,0,78,0,,,,,,,,,,,,,,,,,,,,,,,,,,,,,,,,,,,,,,,,,,,,,,,,,,,,,,,,,,,101,001,2023-03-01_11h21.10.942,eb_01,2022.2.4,99.9215507666799,
6,stimuli/6.png,s,1,0,1,0,79,0,79,0,0,0,0,0,,,,,,,,,,,,,,,,,,384.7539459914351,384.7539459914351,384.7539459914351,384.7539459914351,s,1,0.5346068060880498,385.3243191276324,385.3243191276324,385.3243191276324,,,,,,,,,,,,,,,,,,,,,,,,,,,,101,001,2023-03-01_11h21.10.942,eb_01,2022.2.4,99.9215507666799,
,,,1,0,1,0,79,0,79,0,,,,,,,,,,,,,,,,,,,,,,,,,,,,,,,,,,,,,,,,,,,,,,,,,,,,,,,,,,,101,001,2023-03-01_11h21.10.942,eb_01,2022.2.4,99.9215507666799,
8,stimuli/8.png,l,1,0,1,0,80,0,80,0,0,0,0,0,,,,,,,,,,,,,,,,,,386.3246104115424,386.3246104115424,386.3246104115424,386.3246104115424,l,1,0.5239681517778081,386.875241743006,386.875241743006,386.875241743006,,,,,,,,,,,,,,,,,,,,,,,,,,,,101,001,2023-03-01_11h21.10.942,eb_01,2022.2.4,99.9215507666799,
,,,1,0,1,0,80,0,80,0,,,,,,,,,,,,,,,,,,,,,,,,,,,,,,,,,,,,,,,,,,,,,,,,,,,,,,,,,,,101,001,2023-03-01_11h21.10.942,eb_01,2022.2.4,99.9215507666799,
9,stimuli/9.png,l,1,0,1,0,81,0,81,0,0,0,0,0,,,,,,,,,,,,,,,,,,387.8958782270256,387.8958782270256,387.8958782270256,387.8958782270256,l,1,0.5047313397699327,388.4258676411937,388.4258676411937,388.4258676411937,,,,,,,,,,,,,,,,,,,,,,,,,,,,101,001,2023-03-01_11h21.10.942,eb_01,2022.2.4,99.9215507666799,
,,,1,0,1,0,81,0,81,0,,,,,,,,,,,,,,,,,,,,,,,,,,,,,,,,,,,,,,,,,,,,,,,,,,,,,,,,,,,101,001,2023-03-01_11h21.10.942,eb_01,2022.2.4,99.9215507666799,
5,stimuli/5.png,s,1,0,1,0,82,0,82,0,0,0,0,0,,,,,,,,,,,,,,,,,,389.43678852395715,389.43678852395715,389.43678852395715,389.43678852395715,s,1,0.5878643713949714,390.03686597831074,390.03686597831074,390.03686597831074,391.0574484314275,391.0574484314275,391.0574484314275,,,,,,,,,,,,,,,,,,,,,,,,,101,001,2023-03-01_11h21.10.942,eb_01,2022.2.4,99.9215507666799,
,,,1,0,1,0,82,0,82,0,,,,,,,,,,,,,,,,,,,,,,,,,,,,,,,,,,,,,,,,,,,,,,,,,,,,,,,,,,,101,001,2023-03-01_11h21.10.942,eb_01,2022.2.4,99.9215507666799,
6,stimuli/6.png,s,1,0,1,0,83,0,83,0,0,0,0,0,,,,,,,,,,,,,,,,,,391.0574484314275,391.0574484314275,391.0574484314275,391.0574484314275,s,1,0.5992084459103353,391.6878743488742,391.6878743488742,391.6878743488742,,,,,,,,,,,,,,,,,,,,,,,,,,,,101,001,2023-03-01_11h21.10.942,eb_01,2022.2.4,99.9215507666799,
,,,1,0,1,0,83,0,83,0,,,,,,,,,,,,,,,,,,,,,,,,,,,,,,,,,,,,,,,,,,,,,,,,,,,,,,,,,,,101,001,2023-03-01_11h21.10.942,eb_01,2022.2.4,99.9215507666799,
5,stimuli/5.png,s,1,0,1,0,84,0,84,0,0,0,0,0,,,,,,,,,,,,,,,,,,392.6787705947536,392.6787705947536,392.6787705947536,392.6787705947536,s,1,0.4409558595962153,393.1490788033152,393.1490788033152,393.1490788033152,,,,,,,,,,,,,,,,,,,,,,,,,,,,101,001,2023-03-01_11h21.10.942,eb_01,2022.2.4,99.9215507666799,
,,,1,0,1,0,84,0,84,0,,,,,,,,,,,,,,,,,,,,,,,,,,,,,,,,,,,,,,,,,,,,,,,,,,,,,,,,,,,101,001,2023-03-01_11h21.10.942,eb_01,2022.2.4,99.9215507666799,
9,stimuli/9.png,l,1,0,1,0,85,0,85,0,0,0,0,0,,,,,,,,,,,,,,,,,,394.16970562817914,394.16970562817914,394.16970562817914,394.16970562817914,l,1,0.6300380556895107,394.8300710038493,394.8300710038493,394.8300710038493,,,,,,,,,,,,,,,,,,,,,,,,,,,,101,001,2023-03-01_11h21.10.942,eb_01,2022.2.4,99.9215507666799,
,,,1,0,1,0,85,0,85,0,,,,,,,,,,,,,,,,,,,,,,,,,,,,,,,,,,,,,,,,,,,,,,,,,,,,,,,,,,,101,001,2023-03-01_11h21.10.942,eb_01,2022.2.4,99.9215507666799,
6,stimuli/6.png,s,1,0,1,0,86,0,86,0,0,0,0,0,,,,,,,,,,,,,,,,,,395.84071237479657,395.84071237479657,395.84071237479657,395.84071237479657,s,1,0.5030183488997864,396.38102621887265,396.38102621887265,396.38102621887265,,,,,,,,,,,,,,,,,,,,,,,,,,,,101,001,2023-03-01_11h21.10.942,eb_01,2022.2.4,99.9215507666799,
,,,1,0,1,0,86,0,86,0,,,,,,,,,,,,,,,,,,,,,,,,,,,,,,,,,,,,,,,,,,,,,,,,,,,,,,,,,,,101,001,2023-03-01_11h21.10.942,eb_01,2022.2.4,99.9215507666799,
9,stimuli/9.png,l,1,0,1,0,87,0,87,0,0,0,0,0,,,,,,,,,,,,,,,,,,397.3916485733571,397.3916485733571,397.3916485733571,397.3916485733571,l,1,0.5521218736175797,397.9716582264755,397.9716582264755,397.9716582264755,,,,,,,,,,,,,,,,,,,,,,,,,,,,101,001,2023-03-01_11h21.10.942,eb_01,2022.2.4,99.9215507666799,
,,,1,0,1,0,87,0,87,0,,,,,,,,,,,,,,,,,,,,,,,,,,,,,,,,,,,,,,,,,,,,,,,,,,,,,,,,,,,101,001,2023-03-01_11h21.10.942,eb_01,2022.2.4,99.9215507666799,
6,stimuli/6.png,s,1,0,1,0,88,0,88,0,0,0,0,0,,,,,,,,,,,,,,,,,,398.9922778069722,398.9922778069722,398.9922778069722,398.9922778069722,s,1,0.4395169472645648,399.4628884678441,399.4628884678441,399.4628884678441,,,,,,,,,,,,,,,,,,,,,,,,,,,,101,001,2023-03-01_11h21.10.942,eb_01,2022.2.4,99.9215507666799,
,,,1,0,1,0,88,0,88,0,,,,,,,,,,,,,,,,,,,,,,,,,,,,,,,,,,,,,,,,,,,,,,,,,,,,,,,,,,,101,001,2023-03-01_11h21.10.942,eb_01,2022.2.4,99.9215507666799,
5,stimuli/5.png,s,1,0,1,0,89,0,89,0,0,0,0,0,,,,,,,,,,,,,,,,,,400.4634942780067,400.4634942780067,400.4634942780067,400.4634942780067,s,1,0.5123527153609757,401.0037773335225,401.0037773335225,401.0037773335225,,,,,,,,,,,,,,,,,,,,,,,,,,,,101,001,2023-03-01_11h21.10.942,eb_01,2022.2.4,99.9215507666799,
,,,1,0,1,0,89,0,89,0,,,,,,,,,,,,,,,,,,,,,,,,,,,,,,,,,,,,,,,,,,,,,,,,,,,,,,,,,,,101,001,2023-03-01_11h21.10.942,eb_01,2022.2.4,99.9215507666799,
6,stimuli/6.png,s,1,0,1,0,90,0,90,0,0,0,0,0,,,,,,,,,,,,,,,,,,402.0244283062766,402.0244283062766,402.0244283062766,402.0244283062766,s,1,0.5354459452282754,402.59477910567693,402.59477910567693,402.59477910567693,,,,,,,,,,,,,,,,,,,,,,,,,,,,101,001,2023-03-01_11h21.10.942,eb_01,2022.2.4,99.9215507666799,
,,,1,0,1,0,90,0,90,0,,,,,,,,,,,,,,,,,,,,,,,,,,,,,,,,,,,,,,,,,,,,,,,,,,,,,,,,,,,101,001,2023-03-01_11h21.10.942,eb_01,2022.2.4,99.9215507666799,
5,stimuli/5.png,s,1,0,1,0,91,0,91,0,0,0,0,0,,,,,,,,,,,,,,,,,,403.59533601636394,403.59533601636394,403.59533601636394,403.59533601636394,s,1,0.4845509490023687,404.1057085911234,404.1057085911234,404.1057085911234,,,,,,,,,,,,,,,,,,,,,,,,,,,,101,001,2023-03-01_11h21.10.942,eb_01,2022.2.4,99.9215507666799,
,,,1,0,1,0,91,0,91,0,,,,,,,,,,,,,,,,,,,,,,,,,,,,,,,,,,,,,,,,,,,,,,,,,,,,,,,,,,,101,001,2023-03-01_11h21.10.942,eb_01,2022.2.4,99.9215507666799,
6,stimuli/6.png,s,1,0,1,0,92,0,92,0,0,0,0,0,,,,,,,,,,,,,,,,,,405.1263290771676,405.1263290771676,405.1263290771676,405.1263290771676,s,1,0.39358615330456814,405.55659314338845,405.55659314338845,405.55659314338845,,,,,,,,,,,,,,,,,,,,,,,,,,,,101,001,2023-03-01_11h21.10.942,eb_01,2022.2.4,99.9215507666799,
,,,1,0,1,0,92,0,92,0,,,,,,,,,,,,,,,,,,,,,,,,,,,,,,,,,,,,,,,,,,,,,,,,,,,,,,,,,,,101,001,2023-03-01_11h21.10.942,eb_01,2022.2.4,99.9215507666799,
9,stimuli/9.png,l,1,0,1,0,93,0,93,0,0,0,0,0,,,,,,,,,,,,,,,,,,406.5671659947002,406.5671659947002,406.5671659947002,406.5671659947002,l,1,0.4567621621354192,407.04716143074984,407.04716143074984,407.04716143074984,,,,,,,,,,,,,,,,,,,,,,,,,,,,101,001,2023-03-01_11h21.10.942,eb_01,2022.2.4,99.9215507666799,
,,,1,0,1,0,93,0,93,0,,,,,,,,,,,,,,,,,,,,,,,,,,,,,,,,,,,,,,,,,,,,,,,,,,,,,,,,,,,101,001,2023-03-01_11h21.10.942,eb_01,2022.2.4,99.9215507666799,
8,stimuli/8.png,l,1,0,1,0,94,0,94,0,0,0,0,0,,,,,,,,,,,,,,,,,,408.05809287821285,408.05809287821285,408.05809287821285,408.05809287821285,l,1,0.6288807681139588,408.7084984571011,408.7084984571011,408.7084984571011,,,,,,,,,,,,,,,,,,,,,,,,,,,,101,001,2023-03-01_11h21.10.942,eb_01,2022.2.4,99.9215507666799,
,,,1,0,1,0,94,0,94,0,,,,,,,,,,,,,,,,,,,,,,,,,,,,,,,,,,,,,,,,,,,,,,,,,,,,,,,,,,,101,001,2023-03-01_11h21.10.942,eb_01,2022.2.4,99.9215507666799,
9,stimuli/9.png,l,1,0,1,0,95,0,95,0,0,0,0,0,,,,,,,,,,,,,,,,,,409.7291283004506,409.7291283004506,409.7291283004506,409.7291283004506,l,1,0.4538885633537575,410.20908087399584,410.20908087399584,410.20908087399584,,,,,,,,,,,,,,,,,,,,,,,,,,,,101,001,2023-03-01_11h21.10.942,eb_01,2022.2.4,99.9215507666799,
,,,1,0,1,0,95,0,95,0,,,,,,,,,,,,,,,,,,,,,,,,,,,,,,,,,,,,,,,,,,,,,,,,,,,,,,,,,,,101,001,2023-03-01_11h21.10.942,eb_01,2022.2.4,99.9215507666799,
5,stimuli/5.png,s,1,0,1,0,96,0,96,0,0,0,0,0,,,,,,,,,,,,,,,,,,411.220030432376,411.220030432376,411.220030432376,411.220030432376,s,1,0.6189982445739588,411.8601858361162,411.8601858361162,411.8601858361162,,,,,,,,,,,,,,,,,,,,,,,,,,,,101,001,2023-03-01_11h21.10.942,eb_01,2022.2.4,99.9215507666799,
,,,1,0,1,0,96,0,96,0,,,,,,,,,,,,,,,,,,,,,,,,,,,,,,,,,,,,,,,,,,,,,,,,,,,,,,,,,,,101,001,2023-03-01_11h21.10.942,eb_01,2022.2.4,99.9215507666799,
9,stimuli/9.png,l,1,0,1,0,97,0,97,0,0,0,0,0,,,,,,,,,,,,,,,,,,412.8807190879088,412.8807190879088,412.8807190879088,412.8807190879088,l,1,0.4543232253545284,413.3609919228329,413.3609919228329,413.3609919228329,,,,,,,,,,,,,,,,,,,,,,,,,,,,101,001,2023-03-01_11h21.10.942,eb_01,2022.2.4,99.9215507666799,
,,,1,0,1,0,97,0,97,0,,,,,,,,,,,,,,,,,,,,,,,,,,,,,,,,,,,,,,,,,,,,,,,,,,,,,,,,,,,101,001,2023-03-01_11h21.10.942,eb_01,2022.2.4,99.9215507666799,
6,stimuli/6.png,s,1,0,1,0,98,0,98,0,0,0,0,0,,,,,,,,,,,,,,,,,,414.38163112348957,414.38163112348957,414.38163112348957,414.38163112348957,s,1,0.5374553514357103,414.95228437519836,414.95228437519836,414.95228437519836,,,,,,,,,,,,,,,,,,,,,,,,,,,,101,001,2023-03-01_11h21.10.942,eb_01,2022.2.4,99.9215507666799,
,,,1,0,1,0,98,0,98,0,,,,,,,,,,,,,,,,,,,,,,,,,,,,,,,,,,,,,,,,,,,,,,,,,,,,,,,,,,,101,001,2023-03-01_11h21.10.942,eb_01,2022.2.4,99.9215507666799,
9,stimuli/9.png,l,1,0,1,0,99,0,99,0,0,0,0,0,,,,,,,,,,,,,,,,,,415.9628816762488,415.9628816762488,415.9628816762488,415.9628816762488,l,1,0.7322322234304011,416.72303790101614,416.72303790101614,416.72303790101614,,,,,,,,,,,,,,,,,,,,,,,,,,,,101,001,2023-03-01_11h21.10.942,eb_01,2022.2.4,99.9215507666799,
,,,1,0,1,0,99,0,99,0,,,,,,,,,,,,,,,,,,,,,,,,,,,,,,,,,,,,,,,,,,,,,,,,,,,,,,,,,,,101,001,2023-03-01_11h21.10.942,eb_01,2022.2.4,99.9215507666799,
,,,1,0,1,0,,,,,,,,,,,,,,,,,,,,,,,,,,,,,,,,,,,,,,,417.7239455597919,417.7239455597919,return,11.330369093062473,,,,,,,,,,,,,,,,,,,,,101,001,2023-03-01_11h21.10.942,eb_01,2022.2.4,99.9215507666799,
6,stimuli/6.png,s,2,0,2,0,0,0,0,0,0,0,0,0,,,,,,,,,,,,,,,,,,429.0905554889814,429.0905554889814,429.0905554889814,429.0905554889814,s,1,4.411850710934232,433.53356571651784,433.53356571651784,433.53356571651784,,,,,,,,,,,,,,,,,,,,,,,,,,,,101,001,2023-03-01_11h21.10.942,eb_01,2022.2.4,99.9215507666799,
,,,2,0,2,0,0,0,0,0,,,,,,,,,,,,,,,,,,,,,,,,,,,,,,,,,,,,,,,,,,,,,,,,,,,,,,,,,,,101,001,2023-03-01_11h21.10.942,eb_01,2022.2.4,99.9215507666799,
9,stimuli/9.png,l,2,0,2,0,1,0,1,0,0,0,0,0,,,,,,,,,,,,,,,,,,434.54419561721807,434.54419561721807,434.54419561721807,434.54419561721807,l,1,0.5422248613449483,435.1142177034817,435.1142177034817,435.1142177034817,,,,,,,,,,,,,,,,,,,,,,,,,,,,101,001,2023-03-01_11h21.10.942,eb_01,2022.2.4,99.9215507666799,
,,,2,0,2,0,1,0,1,0,,,,,,,,,,,,,,,,,,,,,,,,,,,,,,,,,,,,,,,,,,,,,,,,,,,,,,,,,,,101,001,2023-03-01_11h21.10.942,eb_01,2022.2.4,99.9215507666799,
8,stimuli/8.png,l,2,0,2,0,2,0,2,0,0,0,0,0,,,,,,,,,,,,,,,,,,436.12512289011465,436.12512289011465,436.12512289011465,436.12512289011465,l,1,0.5133086699115665,436.6654563543507,436.6654563543507,436.6654563543507,,,,,,,,,,,,,,,,,,,,,,,,,,,,101,001,2023-03-01_11h21.10.942,eb_01,2022.2.4,99.9215507666799,
,,,2,0,2,0,2,0,2,0,,,,,,,,,,,,,,,,,,,,,,,,,,,,,,,,,,,,,,,,,,,,,,,,,,,,,,,,,,,101,001,2023-03-01_11h21.10.942,eb_01,2022.2.4,99.9215507666799,
3,stimuli/3.png,l,2,0,2,0,3,0,3,0,0,0,0,0,,,,,,,,,,,,,,,,,,437.676098932694,437.676098932694,437.676098932694,437.676098932694,l,1,0.45837222262889554,438.1460569968658,438.1460569968658,438.1460569968658,439.15667120143917,439.15667120143917,439.15667120143917,,,,,,,,,,,,,,,,,,,,,,,,,101,001,2023-03-01_11h21.10.942,eb_01,2022.2.4,99.9215507666799,
,,,2,0,2,0,3,0,3,0,,,,,,,,,,,,,,,,,,,,,,,,,,,,,,,,,,,,,,,,,,,,,,,,,,,,,,,,,,,101,001,2023-03-01_11h21.10.942,eb_01,2022.2.4,99.9215507666799,
8,stimuli/8.png,l,2,0,2,0,4,0,4,0,0,0,0,0,,,,,,,,,,,,,,,,,,439.15667120143917,439.15667120143917,439.15667120143917,439.15667120143917,l,1,0.6018281900105649,439.7873826676714,439.7873826676714,439.7873826676714,,,,,,,,,,,,,,,,,,,,,,,,,,,,101,001,2023-03-01_11h21.10.942,eb_01,2022.2.4,99.9215507666799,
,,,2,0,2,0,4,0,4,0,,,,,,,,,,,,,,,,,,,,,,,,,,,,,,,,,,,,,,,,,,,,,,,,,,,,,,,,,,,101,001,2023-03-01_11h21.10.942,eb_01,2022.2.4,99.9215507666799,
9,stimuli/9.png,l,2,0,2,0,5,0,5,0,0,0,0,0,,,,,,,,,,,,,,,,,,440.8079729688525,440.8079729688525,440.8079729688525,440.8079729688525,l,1,0.5415529463352868,441.38835148097496,441.38835148097496,441.38835148097496,,,,,,,,,,,,,,,,,,,,,,,,,,,,101,001,2023-03-01_11h21.10.942,eb_01,2022.2.4,99.9215507666799,
,,,2,0,2,0,5,0,5,0,,,,,,,,,,,,,,,,,,,,,,,,,,,,,,,,,,,,,,,,,,,,,,,,,,,,,,,,,,,101,001,2023-03-01_11h21.10.942,eb_01,2022.2.4,99.9215507666799,
6,stimuli/6.png,s,2,0,2,0,6,0,6,0,0,0,0,0,,,,,,,,,,,,,,,,,,442.399025451572,442.399025451572,442.399025451572,442.399025451572,s,1,0.6065291802842694,443.0393610589326,443.0393610589326,443.0393610589326,,,,,,,,,,,,,,,,,,,,,,,,,,,,101,001,2023-03-01_11h21.10.942,eb_01,2022.2.4,99.9215507666799,
,,,2,0,2,0,6,0,6,0,,,,,,,,,,,,,,,,,,,,,,,,,,,,,,,,,,,,,,,,,,,,,,,,,,,,,,,,,,,101,001,2023-03-01_11h21.10.942,eb_01,2022.2.4,99.9215507666799,
9,stimuli/9.png,l,2,0,2,0,7,0,7,0,0,0,0,0,,,,,,,,,,,,,,,,,,444.0499671135931,444.0499671135931,444.0499671135931,444.0499671135931,l,1,0.4356282316039142,444.5099201036901,444.5099201036901,444.5099201036901,,,,,,,,,,,,,,,,,,,,,,,,,,,,101,001,2023-03-01_11h21.10.942,eb_01,2022.2.4,99.9215507666799,
,,,2,0,2,0,7,0,7,0,,,,,,,,,,,,,,,,,,,,,,,,,,,,,,,,,,,,,,,,,,,,,,,,,,,,,,,,,,,101,001,2023-03-01_11h21.10.942,eb_01,2022.2.4,99.9215507666799,
8,stimuli/8.png,l,2,0,2,0,8,0,8,0,0,0,0,0,,,,,,,,,,,,,,,,,,445.52085638073186,445.52085638073186,445.52085638073186,445.52085638073186,l,1,0.5408049654761271,446.0911975209765,446.0911975209765,446.0911975209765,,,,,,,,,,,,,,,,,,,,,,,,,,,,101,001,2023-03-01_11h21.10.942,eb_01,2022.2.4,99.9215507666799,
,,,2,0,2,0,8,0,8,0,,,,,,,,,,,,,,,,,,,,,,,,,,,,,,,,,,,,,,,,,,,,,,,,,,,,,,,,,,,101,001,2023-03-01_11h21.10.942,eb_01,2022.2.4,99.9215507666799,
6,stimuli/6.png,s,2,0,2,0,9,0,9,0,0,0,0,0,,,,,,,,,,,,,,,,,,447.1118210255063,447.1118210255063,447.1118210255063,447.1118210255063,s,1,0.4378187469774275,447.5821180656694,447.5821180656694,447.5821180656694,,,,,,,,,,,,,,,,,,,,,,,,,,,,101,001,2023-03-01_11h21.10.942,eb_01,2022.2.4,99.9215507666799,
