index,stimulus,correct_answer,block.thisRepN,block.thisTrialN,block.thisN,block.thisIndex,trial.thisRepN,trial.thisTrialN,trial.thisN,trial.thisIndex,display_row.thisRepN,display_row.thisTrialN,display_row.thisN,display_row.thisIndex,pair_questions.thisRepN,pair_questions.thisTrialN,pair_questions.thisN,pair_questions.thisIndex,welcome_text.started,instructions_0_keypress.started,instructions_0_keypress.keys,instructions_0_keypress.rt,instructions_1_keypress.started,instructions_1_text.started,instructions_1_keypress.keys,instructions_1_keypress.rt,instructions_2_keypress.started,instructions_2_text.started,instructions_2_keypress.keys,instructions_2_keypress.rt,text_countdown.started,text_countdown.stopped,image.started,size_question.started,size_resp.started,keypress_options.started,size_resp.keys,size_resp.corr,size_resp.rt,fb_image.started,fb.started,fb_size_question.started,fb_image.stopped,fb.stopped,fb_size_question.stopped,block_break_text.started,block_break_keypress.started,block_break_keypress.keys,block_break_keypress.rt,seq_reveal.started,seq_reveal_adv.started,seq_reveal_adv.keys,seq_reveal_adv.rt,instruction_2afc_text.started,instruction_2afc_keypress.started,instruction_2afc_keypress.keys,instruction_2afc_keypress.rt,dist_2afc_test.started,dist_2afc_resp.started,text.started,stim_00.started,stim_01.started,stim_10.started,stim_11.started,dist_2afc_resp.keys,dist_2afc_resp.rt,graph.started,debrief_text.started,debriefing_title.started,participant,session,date,expName,psychopyVersion,frameRate,
,,,,,,,,,,,,,,,,,,,727.4981378852362,727.4981378852362,return,11.505843651061696,,,,,,,,,,,,,,,,,,,,,,,,,,,,,,,,,,,,,,,,,,,,,,,,102,001,2023-03-01_11h03.32.844,eb_01,2022.2.4,60.00630329691549,
,,,,,,,,,,,,,,,,,,,,,,,739.0307259500742,739.0307259500742,return,12.884540261281472,,,,,,,,,,,,,,,,,,,,,,,,,,,,,,,,,,,,,,,,,,,,102,001,2023-03-01_11h03.32.844,eb_01,2022.2.4,60.00630329691549,
,,,,,,,,,,,,,,,,,,,,,,,,,,,751.9465827522718,751.9465827522718,space,16.216068831417033,,,,,,,,,,,,,,,,,,,,,,,,,,,,,,,,,,,,,,,,102,001,2023-03-01_11h03.32.844,eb_01,2022.2.4,60.00630329691549,
6,stimuli/6.png,s,0,0,0,0,0,0,0,0,0,0,0,0,,,,,,,,,,,,,,,,,768.195251290409,773.2286102810222,773.2286102810222,773.2286102810222,773.2286102810222,773.2286102810222,s,1,1.1741551002442066,774.445201485104,774.445201485104,774.445201485104,,,,,,,,,,,,,,,,,,,,,,,,,,,,102,001,2023-03-01_11h03.32.844,eb_01,2022.2.4,60.00630329691549,
,,,0,0,0,0,0,0,0,0,,,,,,,,,,,,,,,,,,,,,,,,,,,,,,,,,,,,,,,,,,,,,,,,,,,,,,,,,,,,102,001,2023-03-01_11h03.32.844,eb_01,2022.2.4,60.00630329691549,
5,stimuli/5.png,s,0,0,0,0,1,0,1,0,0,0,0,0,,,,,,,,,,,,,,,,,,,775.4448329258348,775.4448329258348,775.4448329258348,775.4448329258348,s,1,0.8219959647440191,776.2950725950077,776.2950725950077,776.2950725950077,777.3116656101893,777.3116656101893,777.3116656101893,,,,,,,,,,,,,,,,,,,,,,,,,102,001,2023-03-01_11h03.32.844,eb_01,2022.2.4,60.00630329691549,
,,,0,0,0,0,1,0,1,0,,,,,,,,,,,,,,,,,,,,,,,,,,,,,,,,,,,,,,,,,,,,,,,,,,,,,,,,,,,,102,001,2023-03-01_11h03.32.844,eb_01,2022.2.4,60.00630329691549,
9,stimuli/9.png,l,0,0,0,0,2,0,2,0,0,0,0,0,,,,,,,,,,,,,,,,,,,777.3116656101893,777.3116656101893,777.3116656101893,777.3116656101893,s,0,0.5872270311820103,777.9449663436872,777.9449663436872,777.9449663436872,,,,,,,,,,,,,,,,,,,,,,,,,,,,102,001,2023-03-01_11h03.32.844,eb_01,2022.2.4,60.00630329691549,
,,,0,0,0,0,2,0,2,0,,,,,,,,,,,,,,,,,,,,,,,,,,,,,,,,,,,,,,,,,,,,,,,,,,,,,,,,,,,,102,001,2023-03-01_11h03.32.844,eb_01,2022.2.4,60.00630329691549,
8,stimuli/8.png,l,0,0,0,0,3,0,3,0,0,0,0,0,,,,,,,,,,,,,,,,,,,778.9615472848554,778.9615472848554,778.9615472848554,778.9615472848554,l,1,1.6164111297066484,780.5948003259973,780.5948003259973,780.5948003259973,781.6114060188947,781.6114060188947,781.6114060188947,,,,,,,,,,,,,,,,,,,,,,,,,102,001,2023-03-01_11h03.32.844,eb_01,2022.2.4,60.00630329691549,
,,,0,0,0,0,3,0,3,0,,,,,,,,,,,,,,,,,,,,,,,,,,,,,,,,,,,,,,,,,,,,,,,,,,,,,,,,,,,,102,001,2023-03-01_11h03.32.844,eb_01,2022.2.4,60.00630329691549,
6,stimuli/6.png,s,0,0,0,0,4,0,4,0,0,0,0,0,,,,,,,,,,,,,,,,,,,781.6114060188947,781.6114060188947,781.6114060188947,781.6114060188947,s,1,0.8865723177887048,782.5446717377517,782.5446717377517,782.5446717377517,,,,,,,,,,,,,,,,,,,,,,,,,,,,102,001,2023-03-01_11h03.32.844,eb_01,2022.2.4,60.00630329691549,
,,,0,0,0,0,4,0,4,0,,,,,,,,,,,,,,,,,,,,,,,,,,,,,,,,,,,,,,,,,,,,,,,,,,,,,,,,,,,,102,001,2023-03-01_11h03.32.844,eb_01,2022.2.4,60.00630329691549,
9,stimuli/9.png,l,0,0,0,0,5,0,5,0,0,0,0,0,,,,,,,,,,,,,,,,,,,783.5612680732893,783.5612680732893,783.5612680732893,783.5612680732893,l,1,0.6807731690050787,784.2779093845265,784.2779093845265,784.2779093845265,,,,,,,,,,,,,,,,,,,,,,,,,,,,102,001,2023-03-01_11h03.32.844,eb_01,2022.2.4,60.00630329691549,
,,,0,0,0,0,5,0,5,0,,,,,,,,,,,,,,,,,,,,,,,,,,,,,,,,,,,,,,,,,,,,,,,,,,,,,,,,,,,,102,001,2023-03-01_11h03.32.844,eb_01,2022.2.4,60.00630329691549,
8,stimuli/8.png,l,0,0,0,0,6,0,6,0,0,0,0,0,,,,,,,,,,,,,,,,,,,785.2944972682535,785.2944972682535,785.2944972682535,785.2944972682535,l,1,1.0835649828250098,786.4110936037914,786.4110936037914,786.4110936037914,787.427691448579,787.427691448579,787.427691448579,,,,,,,,,,,,,,,,,,,,,,,,,102,001,2023-03-01_11h03.32.844,eb_01,2022.2.4,60.00630329691549,
,,,0,0,0,0,6,0,6,0,,,,,,,,,,,,,,,,,,,,,,,,,,,,,,,,,,,,,,,,,,,,,,,,,,,,,,,,,,,,102,001,2023-03-01_11h03.32.844,eb_01,2022.2.4,60.00630329691549,
6,stimuli/6.png,s,0,0,0,0,7,0,7,0,0,0,0,0,,,,,,,,,,,,,,,,,,,787.427691448579,787.427691448579,787.427691448579,787.427691448579,s,1,0.7984268862937824,788.2609994264849,788.2609994264849,788.2609994264849,,,,,,,,,,,,,,,,,,,,,,,,,,,,102,001,2023-03-01_11h03.32.844,eb_01,2022.2.4,60.00630329691549,
,,,0,0,0,0,7,0,7,0,,,,,,,,,,,,,,,,,,,,,,,,,,,,,,,,,,,,,,,,,,,,,,,,,,,,,,,,,,,,102,001,2023-03-01_11h03.32.844,eb_01,2022.2.4,60.00630329691549,
5,stimuli/5.png,s,0,0,0,0,8,0,8,0,0,0,0,0,,,,,,,,,,,,,,,,,,,789.2605898155698,789.2605898155698,789.2605898155698,789.2605898155698,s,1,0.933652821274336,790.2108466902109,790.2108466902109,790.2108466902109,791.2274499683053,791.2274499683053,791.2274499683053,,,,,,,,,,,,,,,,,,,,,,,,,102,001,2023-03-01_11h03.32.844,eb_01,2022.2.4,60.00630329691549,
,,,0,0,0,0,8,0,8,0,,,,,,,,,,,,,,,,,,,,,,,,,,,,,,,,,,,,,,,,,,,,,,,,,,,,,,,,,,,,102,001,2023-03-01_11h03.32.844,eb_01,2022.2.4,60.00630329691549,
9,stimuli/9.png,l,0,0,0,0,9,0,9,0,0,0,0,0,,,,,,,,,,,,,,,,,,,791.2274499683053,791.2274499683053,791.2274499683053,791.2274499683053,l,1,0.4627641738652528,791.7274614386179,791.7274614386179,791.7274614386179,,,,,,,,,,,,,,,,,,,,,,,,,,,,102,001,2023-03-01_11h03.32.844,eb_01,2022.2.4,60.00630329691549,
,,,0,0,0,0,9,0,9,0,,,,,,,,,,,,,,,,,,,,,,,,,,,,,,,,,,,,,,,,,,,,,,,,,,,,,,,,,,,,102,001,2023-03-01_11h03.32.844,eb_01,2022.2.4,60.00630329691549,
8,stimuli/8.png,l,0,0,0,0,10,0,10,0,0,0,0,0,,,,,,,,,,,,,,,,,,,792.7440375501819,792.7440375501819,792.7440375501819,792.7440375501819,l,1,0.946190477106029,793.7106960668889,793.7106960668889,793.7106960668889,794.7272540674339,794.7272540674339,794.7272540674339,,,,,,,,,,,,,,,,,,,,,,,,,102,001,2023-03-01_11h03.32.844,eb_01,2022.2.4,60.00630329691549,
,,,0,0,0,0,10,0,10,0,,,,,,,,,,,,,,,,,,,,,,,,,,,,,,,,,,,,,,,,,,,,,,,,,,,,,,,,,,,,102,001,2023-03-01_11h03.32.844,eb_01,2022.2.4,60.00630329691549,
6,stimuli/6.png,s,0,0,0,0,11,0,11,0,0,0,0,0,,,,,,,,,,,,,,,,,,,794.7272540674339,794.7272540674339,794.7272540674339,794.7272540674339,s,1,0.7630213503589403,795.5271979232684,795.5271979232684,795.5271979232684,,,,,,,,,,,,,,,,,,,,,,,,,,,,102,001,2023-03-01_11h03.32.844,eb_01,2022.2.4,60.00630329691549,
,,,0,0,0,0,11,0,11,0,,,,,,,,,,,,,,,,,,,,,,,,,,,,,,,,,,,,,,,,,,,,,,,,,,,,,,,,,,,,102,001,2023-03-01_11h03.32.844,eb_01,2022.2.4,60.00630329691549,
9,stimuli/9.png,l,0,0,0,0,12,0,12,0,0,0,0,0,,,,,,,,,,,,,,,,,,,796.5438075402208,796.5438075402208,796.5438075402208,796.5438075402208,l,1,0.9774869243274225,797.5604047813094,797.5604047813094,797.5604047813094,,,,,,,,,,,,,,,,,,,,,,,,,,,,102,001,2023-03-01_11h03.32.844,eb_01,2022.2.4,60.00630329691549,
,,,0,0,0,0,12,0,12,0,,,,,,,,,,,,,,,,,,,,,,,,,,,,,,,,,,,,,,,,,,,,,,,,,,,,,,,,,,,,102,001,2023-03-01_11h03.32.844,eb_01,2022.2.4,60.00630329691549,
8,stimuli/8.png,l,0,0,0,0,13,0,13,0,0,0,0,0,,,,,,,,,,,,,,,,,,,798.5770261704247,798.5770261704247,798.5770261704247,798.5770261704247,l,1,1.256357098493936,799.8602354432669,799.8602354432669,799.8602354432669,800.8768601527363,800.8768601527363,800.8768601527363,,,,,,,,,,,,,,,,,,,,,,,,,102,001,2023-03-01_11h03.32.844,eb_01,2022.2.4,60.00630329691549,
,,,0,0,0,0,13,0,13,0,,,,,,,,,,,,,,,,,,,,,,,,,,,,,,,,,,,,,,,,,,,,,,,,,,,,,,,,,,,,102,001,2023-03-01_11h03.32.844,eb_01,2022.2.4,60.00630329691549,
9,stimuli/9.png,l,0,0,0,0,14,0,14,0,0,0,0,0,,,,,,,,,,,,,,,,,,,800.8768601527363,800.8768601527363,800.8768601527363,800.8768601527363,l,1,1.2045496186410674,802.1267714087344,802.1267714087344,802.1267714087344,,,,,,,,,,,,,,,,,,,,,,,,,,,,102,001,2023-03-01_11h03.32.844,eb_01,2022.2.4,60.00630329691549,
,,,0,0,0,0,14,0,14,0,,,,,,,,,,,,,,,,,,,,,,,,,,,,,,,,,,,,,,,,,,,,,,,,,,,,,,,,,,,,102,001,2023-03-01_11h03.32.844,eb_01,2022.2.4,60.00630329691549,
5,stimuli/5.png,s,0,0,0,0,15,0,15,0,0,0,0,0,,,,,,,,,,,,,,,,,,,803.1263943976564,803.1263943976564,803.1263943976564,803.1263943976564,s,1,0.6670706727045399,803.8100012074019,803.8100012074019,803.8100012074019,804.8266117299036,804.8266117299036,804.8266117299036,,,,,,,,,,,,,,,,,,,,,,,,,102,001,2023-03-01_11h03.32.844,eb_01,2022.2.4,60.00630329691549,
,,,0,0,0,0,15,0,15,0,,,,,,,,,,,,,,,,,,,,,,,,,,,,,,,,,,,,,,,,,,,,,,,,,,,,,,,,,,,,102,001,2023-03-01_11h03.32.844,eb_01,2022.2.4,60.00630329691549,
9,stimuli/9.png,l,0,0,0,0,16,0,16,0,0,0,0,0,,,,,,,,,,,,,,,,,,,804.8266117299036,804.8266117299036,804.8266117299036,804.8266117299036,l,1,0.5109056813062125,805.3766111262039,805.3766111262039,805.3766111262039,,,,,,,,,,,,,,,,,,,,,,,,,,,,102,001,2023-03-01_11h03.32.844,eb_01,2022.2.4,60.00630329691549,
,,,0,0,0,0,16,0,16,0,,,,,,,,,,,,,,,,,,,,,,,,,,,,,,,,,,,,,,,,,,,,,,,,,,,,,,,,,,,,102,001,2023-03-01_11h03.32.844,eb_01,2022.2.4,60.00630329691549,
5,stimuli/5.png,s,0,0,0,0,17,0,17,0,0,0,0,0,,,,,,,,,,,,,,,,,,,806.3762226448116,806.3762226448116,806.3762226448116,806.3762226448116,s,1,0.6173516953740545,807.0264629176845,807.0264629176845,807.0264629176845,808.0430818919967,808.0430818919967,808.0430818919967,,,,,,,,,,,,,,,,,,,,,,,,,102,001,2023-03-01_11h03.32.844,eb_01,2022.2.4,60.00630329691549,
,,,0,0,0,0,17,0,17,0,,,,,,,,,,,,,,,,,,,,,,,,,,,,,,,,,,,,,,,,,,,,,,,,,,,,,,,,,,,,102,001,2023-03-01_11h03.32.844,eb_01,2022.2.4,60.00630329691549,
6,stimuli/6.png,s,0,0,0,0,18,0,18,0,0,0,0,0,,,,,,,,,,,,,,,,,,,808.0430818919967,808.0430818919967,808.0430818919967,808.0430818919967,s,1,0.678505669232436,808.759690905249,808.759690905249,808.759690905249,,,,,,,,,,,,,,,,,,,,,,,,,,,,102,001,2023-03-01_11h03.32.844,eb_01,2022.2.4,60.00630329691549,
,,,0,0,0,0,18,0,18,0,,,,,,,,,,,,,,,,,,,,,,,,,,,,,,,,,,,,,,,,,,,,,,,,,,,,,,,,,,,,102,001,2023-03-01_11h03.32.844,eb_01,2022.2.4,60.00630329691549,
8,stimuli/8.png,l,0,0,0,0,19,0,19,0,0,0,0,0,,,,,,,,,,,,,,,,,,,809.776342177548,809.776342177548,809.776342177548,809.776342177548,l,1,0.9523705610199613,810.7595894835331,810.7595894835331,810.7595894835331,811.7762102689476,811.7762102689476,811.7762102689476,,,,,,,,,,,,,,,,,,,,,,,,,102,001,2023-03-01_11h03.32.844,eb_01,2022.2.4,60.00630329691549,
,,,0,0,0,0,19,0,19,0,,,,,,,,,,,,,,,,,,,,,,,,,,,,,,,,,,,,,,,,,,,,,,,,,,,,,,,,,,,,102,001,2023-03-01_11h03.32.844,eb_01,2022.2.4,60.00630329691549,
9,stimuli/9.png,l,0,0,0,0,20,0,20,0,0,0,0,0,,,,,,,,,,,,,,,,,,,811.7762102689476,811.7762102689476,811.7762102689476,811.7762102689476,l,1,0.3284456010142094,812.1428210933018,812.1428210933018,812.1428210933018,,,,,,,,,,,,,,,,,,,,,,,,,,,,102,001,2023-03-01_11h03.32.844,eb_01,2022.2.4,60.00630329691549,
,,,0,0,0,0,20,0,20,0,,,,,,,,,,,,,,,,,,,,,,,,,,,,,,,,,,,,,,,,,,,,,,,,,,,,,,,,,,,,102,001,2023-03-01_11h03.32.844,eb_01,2022.2.4,60.00630329691549,
6,stimuli/6.png,s,0,0,0,0,21,0,21,0,0,0,0,0,,,,,,,,,,,,,,,,,,,813.1594234658451,813.1594234658451,813.1594234658451,813.1594234658451,s,1,0.3613095570644873,813.559398412267,813.559398412267,813.559398412267,,,,,,,,,,,,,,,,,,,,,,,,,,,,102,001,2023-03-01_11h03.32.844,eb_01,2022.2.4,60.00630329691549,
,,,0,0,0,0,21,0,21,0,,,,,,,,,,,,,,,,,,,,,,,,,,,,,,,,,,,,,,,,,,,,,,,,,,,,,,,,,,,,102,001,2023-03-01_11h03.32.844,eb_01,2022.2.4,60.00630329691549,
8,stimuli/8.png,l,0,0,0,0,22,0,22,0,0,0,0,0,,,,,,,,,,,,,,,,,,,814.5760575326758,814.5760575326758,814.5760575326758,814.5760575326758,l,1,0.40866263141197123,815.0092689184703,815.0092689184703,815.0092689184703,816.0089377886443,816.0089377886443,816.0089377886443,,,,,,,,,,,,,,,,,,,,,,,,,102,001,2023-03-01_11h03.32.844,eb_01,2022.2.4,60.00630329691549,
,,,0,0,0,0,22,0,22,0,,,,,,,,,,,,,,,,,,,,,,,,,,,,,,,,,,,,,,,,,,,,,,,,,,,,,,,,,,,,102,001,2023-03-01_11h03.32.844,eb_01,2022.2.4,60.00630329691549,
3,stimuli/3.png,l,0,0,0,0,23,0,23,0,0,0,0,0,,,,,,,,,,,,,,,,,,,816.0089377886443,816.0089377886443,816.0089377886443,816.0089377886443,l,1,0.7678277133627489,816.8092200187139,816.8092200187139,816.8092200187139,817.8088737963708,817.8088737963708,817.8088737963708,,,,,,,,,,,,,,,,,,,,,,,,,102,001,2023-03-01_11h03.32.844,eb_01,2022.2.4,60.00630329691549,
,,,0,0,0,0,23,0,23,0,,,,,,,,,,,,,,,,,,,,,,,,,,,,,,,,,,,,,,,,,,,,,,,,,,,,,,,,,,,,102,001,2023-03-01_11h03.32.844,eb_01,2022.2.4,60.00630329691549,
8,stimuli/8.png,l,0,0,0,0,24,0,24,0,0,0,0,0,,,,,,,,,,,,,,,,,,,817.8088737963708,817.8088737963708,817.8088737963708,817.8088737963708,l,1,0.5599361380072878,818.3924661172996,818.3924661172996,818.3924661172996,819.3924048416784,819.3924048416784,819.3924048416784,,,,,,,,,,,,,,,,,,,,,,,,,102,001,2023-03-01_11h03.32.844,eb_01,2022.2.4,60.00630329691549,
,,,0,0,0,0,24,0,24,0,,,,,,,,,,,,,,,,,,,,,,,,,,,,,,,,,,,,,,,,,,,,,,,,,,,,,,,,,,,,102,001,2023-03-01_11h03.32.844,eb_01,2022.2.4,60.00630329691549,
3,stimuli/3.png,l,0,0,0,0,25,0,25,0,0,0,0,0,,,,,,,,,,,,,,,,,,,819.3924048416784,819.3924048416784,819.3924048416784,819.3924048416784,l,1,0.440446566936771,819.8590084216239,819.8590084216239,819.8590084216239,820.8756110960176,820.8756110960176,820.8756110960176,,,,,,,,,,,,,,,,,,,,,,,,,102,001,2023-03-01_11h03.32.844,eb_01,2022.2.4,60.00630329691549,
,,,0,0,0,0,25,0,25,0,,,,,,,,,,,,,,,,,,,,,,,,,,,,,,,,,,,,,,,,,,,,,,,,,,,,,,,,,,,,102,001,2023-03-01_11h03.32.844,eb_01,2022.2.4,60.00630329691549,
4,stimuli/4.png,l,0,0,0,0,26,0,26,0,0,0,0,0,,,,,,,,,,,,,,,,,,,820.8756110960176,820.8756110960176,820.8756110960176,820.8756110960176,l,1,1.8292983282326531,822.7255392556372,822.7255392556372,822.7255392556372,823.7254583597451,823.7254583597451,823.7254583597451,,,,,,,,,,,,,,,,,,,,,,,,,102,001,2023-03-01_11h03.32.844,eb_01,2022.2.4,60.00630329691549,
,,,0,0,0,0,26,0,26,0,,,,,,,,,,,,,,,,,,,,,,,,,,,,,,,,,,,,,,,,,,,,,,,,,,,,,,,,,,,,102,001,2023-03-01_11h03.32.844,eb_01,2022.2.4,60.00630329691549,
3,stimuli/3.png,l,0,0,0,0,27,0,27,0,0,0,0,0,,,,,,,,,,,,,,,,,,,823.7254583597451,823.7254583597451,823.7254583597451,823.7254583597451,l,1,0.4514867432162646,824.2087403785199,824.2087403785199,824.2087403785199,825.225369615745,825.225369615745,825.225369615745,,,,,,,,,,,,,,,,,,,,,,,,,102,001,2023-03-01_11h03.32.844,eb_01,2022.2.4,60.00630329691549,
,,,0,0,0,0,27,0,27,0,,,,,,,,,,,,,,,,,,,,,,,,,,,,,,,,,,,,,,,,,,,,,,,,,,,,,,,,,,,,102,001,2023-03-01_11h03.32.844,eb_01,2022.2.4,60.00630329691549,
8,stimuli/8.png,l,0,0,0,0,28,0,28,0,0,0,0,0,,,,,,,,,,,,,,,,,,,825.225369615745,825.225369615745,825.225369615745,825.225369615745,l,1,0.5276257754821927,825.7753098493768,825.7753098493768,825.7753098493768,826.7752929457574,826.7752929457574,826.7752929457574,,,,,,,,,,,,,,,,,,,,,,,,,102,001,2023-03-01_11h03.32.844,eb_01,2022.2.4,60.00630329691549,
,,,0,0,0,0,28,0,28,0,,,,,,,,,,,,,,,,,,,,,,,,,,,,,,,,,,,,,,,,,,,,,,,,,,,,,,,,,,,,102,001,2023-03-01_11h03.32.844,eb_01,2022.2.4,60.00630329691549,
3,stimuli/3.png,l,0,0,0,0,29,0,29,0,0,0,0,0,,,,,,,,,,,,,,,,,,,826.7752929457574,826.7752929457574,826.7752929457574,826.7752929457574,l,1,0.5207749801074897,827.3252232183286,827.3252232183286,827.3252232183286,828.3251906184914,828.3251906184914,828.3251906184914,,,,,,,,,,,,,,,,,,,,,,,,,102,001,2023-03-01_11h03.32.844,eb_01,2022.2.4,60.00630329691549,
,,,0,0,0,0,29,0,29,0,,,,,,,,,,,,,,,,,,,,,,,,,,,,,,,,,,,,,,,,,,,,,,,,,,,,,,,,,,,,102,001,2023-03-01_11h03.32.844,eb_01,2022.2.4,60.00630329691549,
2,stimuli/2.png,s,0,0,0,0,30,0,30,0,0,0,0,0,,,,,,,,,,,,,,,,,,,828.3251906184914,828.3251906184914,828.3251906184914,828.3251906184914,s,1,0.7708884758367276,829.1250529747349,829.1250529747349,829.1250529747349,830.1250683691023,830.1250683691023,830.1250683691023,,,,,,,,,,,,,,,,,,,,,,,,,102,001,2023-03-01_11h03.32.844,eb_01,2022.2.4,60.00630329691549,
,,,0,0,0,0,30,0,30,0,,,,,,,,,,,,,,,,,,,,,,,,,,,,,,,,,,,,,,,,,,,,,,,,,,,,,,,,,,,,102,001,2023-03-01_11h03.32.844,eb_01,2022.2.4,60.00630329691549,
3,stimuli/3.png,l,0,0,0,0,31,0,31,0,0,0,0,0,,,,,,,,,,,,,,,,,,,830.1250683691023,830.1250683691023,830.1250683691023,830.1250683691023,l,1,0.4270362617653518,830.5750336563133,830.5750336563133,830.5750336563133,831.5916444806653,831.5916444806653,831.5916444806653,,,,,,,,,,,,,,,,,,,,,,,,,102,001,2023-03-01_11h03.32.844,eb_01,2022.2.4,60.00630329691549,
,,,0,0,0,0,31,0,31,0,,,,,,,,,,,,,,,,,,,,,,,,,,,,,,,,,,,,,,,,,,,,,,,,,,,,,,,,,,,,102,001,2023-03-01_11h03.32.844,eb_01,2022.2.4,60.00630329691549,
4,stimuli/4.png,l,0,0,0,0,32,0,32,0,0,0,0,0,,,,,,,,,,,,,,,,,,,831.5916444806653,831.5916444806653,831.5916444806653,831.5916444806653,l,1,0.7524725864359425,832.3749008421628,832.3749008421628,832.3749008421628,833.3748809200397,833.3748809200397,833.3748809200397,,,,,,,,,,,,,,,,,,,,,,,,,102,001,2023-03-01_11h03.32.844,eb_01,2022.2.4,60.00630329691549,
,,,0,0,0,0,32,0,32,0,,,,,,,,,,,,,,,,,,,,,,,,,,,,,,,,,,,,,,,,,,,,,,,,,,,,,,,,,,,,102,001,2023-03-01_11h03.32.844,eb_01,2022.2.4,60.00630329691549,
3,stimuli/3.png,l,0,0,0,0,33,0,33,0,0,0,0,0,,,,,,,,,,,,,,,,,,,833.3748809200397,833.3748809200397,833.3748809200397,833.3748809200397,l,1,0.47331293778825057,833.8748247758749,833.8748247758749,833.8748247758749,834.891458842706,834.891458842706,834.891458842706,,,,,,,,,,,,,,,,,,,,,,,,,102,001,2023-03-01_11h03.32.844,eb_01,2022.2.4,60.00630329691549,
,,,0,0,0,0,33,0,33,0,,,,,,,,,,,,,,,,,,,,,,,,,,,,,,,,,,,,,,,,,,,,,,,,,,,,,,,,,,,,102,001,2023-03-01_11h03.32.844,eb_01,2022.2.4,60.00630329691549,
8,stimuli/8.png,l,0,0,0,0,34,0,34,0,0,0,0,0,,,,,,,,,,,,,,,,,,,834.891458842706,834.891458842706,834.891458842706,834.891458842706,l,1,0.4527445535941297,835.3747674243104,835.3747674243104,835.3747674243104,836.3913598357931,836.3913598357931,836.3913598357931,,,,,,,,,,,,,,,,,,,,,,,,,102,001,2023-03-01_11h03.32.844,eb_01,2022.2.4,60.00630329691549,
,,,0,0,0,0,34,0,34,0,,,,,,,,,,,,,,,,,,,,,,,,,,,,,,,,,,,,,,,,,,,,,,,,,,,,,,,,,,,,102,001,2023-03-01_11h03.32.844,eb_01,2022.2.4,60.00630329691549,
6,stimuli/6.png,s,0,0,0,0,35,0,35,0,0,0,0,0,,,,,,,,,,,,,,,,,,,836.3913598357931,836.3913598357931,836.3913598357931,836.3913598357931,s,1,0.5768771866341922,837.0079555676284,837.0079555676284,837.0079555676284,,,,,,,,,,,,,,,,,,,,,,,,,,,,102,001,2023-03-01_11h03.32.844,eb_01,2022.2.4,60.00630329691549,
,,,0,0,0,0,35,0,35,0,,,,,,,,,,,,,,,,,,,,,,,,,,,,,,,,,,,,,,,,,,,,,,,,,,,,,,,,,,,,102,001,2023-03-01_11h03.32.844,eb_01,2022.2.4,60.00630329691549,
9,stimuli/9.png,l,0,0,0,0,36,0,36,0,0,0,0,0,,,,,,,,,,,,,,,,,,,838.024601104772,838.024601104772,838.024601104772,838.024601104772,l,1,0.4877287064509801,838.5579015364174,838.5579015364174,838.5579015364174,,,,,,,,,,,,,,,,,,,,,,,,,,,,102,001,2023-03-01_11h03.32.844,eb_01,2022.2.4,60.00630329691549,
,,,0,0,0,0,36,0,36,0,,,,,,,,,,,,,,,,,,,,,,,,,,,,,,,,,,,,,,,,,,,,,,,,,,,,,,,,,,,,102,001,2023-03-01_11h03.32.844,eb_01,2022.2.4,60.00630329691549,
8,stimuli/8.png,l,0,0,0,0,37,0,37,0,0,0,0,0,,,,,,,,,,,,,,,,,,,839.5575009810136,839.5575009810136,839.5575009810136,839.5575009810136,l,1,0.4588428360648322,840.0411301276827,840.0411301276827,840.0411301276827,841.0577165021577,841.0577165021577,841.0577165021577,,,,,,,,,,,,,,,,,,,,,,,,,102,001,2023-03-01_11h03.32.844,eb_01,2022.2.4,60.00630329691549,
,,,0,0,0,0,37,0,37,0,,,,,,,,,,,,,,,,,,,,,,,,,,,,,,,,,,,,,,,,,,,,,,,,,,,,,,,,,,,,102,001,2023-03-01_11h03.32.844,eb_01,2022.2.4,60.00630329691549,
9,stimuli/9.png,l,0,0,0,0,38,0,38,0,0,0,0,0,,,,,,,,,,,,,,,,,,,841.0577165021577,841.0577165021577,841.0577165021577,841.0577165021577,l,1,0.5337246616554694,841.641018443056,841.641018443056,841.641018443056,,,,,,,,,,,,,,,,,,,,,,,,,,,,102,001,2023-03-01_11h03.32.844,eb_01,2022.2.4,60.00630329691549,
,,,0,0,0,0,38,0,38,0,,,,,,,,,,,,,,,,,,,,,,,,,,,,,,,,,,,,,,,,,,,,,,,,,,,,,,,,,,,,102,001,2023-03-01_11h03.32.844,eb_01,2022.2.4,60.00630329691549,
5,stimuli/5.png,s,0,0,0,0,39,0,39,0,0,0,0,0,,,,,,,,,,,,,,,,,,,842.640638111624,842.640638111624,842.640638111624,842.640638111624,s,1,0.49474672691667365,843.1576090434364,843.1576090434364,843.1576090434364,844.1741945123604,844.1741945123604,844.1741945123604,,,,,,,,,,,,,,,,,,,,,,,,,102,001,2023-03-01_11h03.32.844,eb_01,2022.2.4,60.00630329691549,
,,,0,0,0,0,39,0,39,0,,,,,,,,,,,,,,,,,,,,,,,,,,,,,,,,,,,,,,,,,,,,,,,,,,,,,,,,,,,,102,001,2023-03-01_11h03.32.844,eb_01,2022.2.4,60.00630329691549,
6,stimuli/6.png,s,0,0,0,0,40,0,40,0,0,0,0,0,,,,,,,,,,,,,,,,,,,844.1741945123604,844.1741945123604,844.1741945123604,844.1741945123604,s,1,0.5852411577770908,844.8074913218015,844.8074913218015,844.8074913218015,,,,,,,,,,,,,,,,,,,,,,,,,,,,102,001,2023-03-01_11h03.32.844,eb_01,2022.2.4,60.00630329691549,
,,,0,0,0,0,40,0,40,0,,,,,,,,,,,,,,,,,,,,,,,,,,,,,,,,,,,,,,,,,,,,,,,,,,,,,,,,,,,,102,001,2023-03-01_11h03.32.844,eb_01,2022.2.4,60.00630329691549,
9,stimuli/9.png,l,0,0,0,0,41,0,41,0,0,0,0,0,,,,,,,,,,,,,,,,,,,845.8241187479243,845.8241187479243,845.8241187479243,845.8241187479243,l,1,0.5113427606020196,846.3740973165504,846.3740973165504,846.3740973165504,,,,,,,,,,,,,,,,,,,,,,,,,,,,102,001,2023-03-01_11h03.32.844,eb_01,2022.2.4,60.00630329691549,
,,,0,0,0,0,41,0,41,0,,,,,,,,,,,,,,,,,,,,,,,,,,,,,,,,,,,,,,,,,,,,,,,,,,,,,,,,,,,,102,001,2023-03-01_11h03.32.844,eb_01,2022.2.4,60.00630329691549,
8,stimuli/8.png,l,0,0,0,0,42,0,42,0,0,0,0,0,,,,,,,,,,,,,,,,,,,847.3906948594877,847.3906948594877,847.3906948594877,847.3906948594877,l,1,0.48080214663877996,847.8906414319781,847.8906414319781,847.8906414319781,848.9072290138547,848.9072290138547,848.9072290138547,,,,,,,,,,,,,,,,,,,,,,,,,102,001,2023-03-01_11h03.32.844,eb_01,2022.2.4,60.00630329691549,
,,,0,0,0,0,42,0,42,0,,,,,,,,,,,,,,,,,,,,,,,,,,,,,,,,,,,,,,,,,,,,,,,,,,,,,,,,,,,,102,001,2023-03-01_11h03.32.844,eb_01,2022.2.4,60.00630329691549,
9,stimuli/9.png,l,0,0,0,0,43,0,43,0,0,0,0,0,,,,,,,,,,,,,,,,,,,848.9072290138547,848.9072290138547,848.9072290138547,848.9072290138547,l,1,0.5083037313534078,849.4572109028331,849.4572109028331,849.4572109028331,,,,,,,,,,,,,,,,,,,,,,,,,,,,102,001,2023-03-01_11h03.32.844,eb_01,2022.2.4,60.00630329691549,
,,,0,0,0,0,43,0,43,0,,,,,,,,,,,,,,,,,,,,,,,,,,,,,,,,,,,,,,,,,,,,,,,,,,,,,,,,,,,,102,001,2023-03-01_11h03.32.844,eb_01,2022.2.4,60.00630329691549,
8,stimuli/8.png,l,0,0,0,0,44,0,44,0,0,0,0,0,,,,,,,,,,,,,,,,,,,850.4738024087646,850.4738024087646,850.4738024087646,850.4738024087646,l,1,0.885791129102472,851.3904087053643,851.3904087053643,851.3904087053643,852.4070466962485,852.4070466962485,852.4070466962485,,,,,,,,,,,,,,,,,,,,,,,,,102,001,2023-03-01_11h03.32.844,eb_01,2022.2.4,60.00630329691549,
,,,0,0,0,0,44,0,44,0,,,,,,,,,,,,,,,,,,,,,,,,,,,,,,,,,,,,,,,,,,,,,,,,,,,,,,,,,,,,102,001,2023-03-01_11h03.32.844,eb_01,2022.2.4,60.00630329691549,
6,stimuli/6.png,s,0,0,0,0,45,0,45,0,0,0,0,0,,,,,,,,,,,,,,,,,,,852.4070466962485,852.4070466962485,852.4070466962485,852.4070466962485,s,1,0.5285950169354692,852.9736478613895,852.9736478613895,852.9736478613895,,,,,,,,,,,,,,,,,,,,,,,,,,,,102,001,2023-03-01_11h03.32.844,eb_01,2022.2.4,60.00630329691549,
,,,0,0,0,0,45,0,45,0,,,,,,,,,,,,,,,,,,,,,,,,,,,,,,,,,,,,,,,,,,,,,,,,,,,,,,,,,,,,102,001,2023-03-01_11h03.32.844,eb_01,2022.2.4,60.00630329691549,
9,stimuli/9.png,l,0,0,0,0,46,0,46,0,0,0,0,0,,,,,,,,,,,,,,,,,,,853.9902674394025,853.9902674394025,853.9902674394025,853.9902674394025,l,1,0.4893716778669841,854.5235790395118,854.5235790395118,854.5235790395118,,,,,,,,,,,,,,,,,,,,,,,,,,,,102,001,2023-03-01_11h03.32.844,eb_01,2022.2.4,60.00630329691549,
,,,0,0,0,0,46,0,46,0,,,,,,,,,,,,,,,,,,,,,,,,,,,,,,,,,,,,,,,,,,,,,,,,,,,,,,,,,,,,102,001,2023-03-01_11h03.32.844,eb_01,2022.2.4,60.00630329691549,
8,stimuli/8.png,l,0,0,0,0,47,0,47,0,0,0,0,0,,,,,,,,,,,,,,,,,,,855.5401693380418,855.5401693380418,855.5401693380418,855.5401693380418,l,1,0.507533409278949,856.0734899936606,856.0734899936606,856.0734899936606,857.0900531256602,857.0900531256602,857.0900531256602,,,,,,,,,,,,,,,,,,,,,,,,,102,001,2023-03-01_11h03.32.844,eb_01,2022.2.4,60.00630329691549,
,,,0,0,0,0,47,0,47,0,,,,,,,,,,,,,,,,,,,,,,,,,,,,,,,,,,,,,,,,,,,,,,,,,,,,,,,,,,,,102,001,2023-03-01_11h03.32.844,eb_01,2022.2.4,60.00630329691549,
9,stimuli/9.png,l,0,0,0,0,48,0,48,0,0,0,0,0,,,,,,,,,,,,,,,,,,,857.0900531256602,857.0900531256602,857.0900531256602,857.0900531256602,l,1,0.5976894659061145,857.723363820217,857.723363820217,857.723363820217,,,,,,,,,,,,,,,,,,,,,,,,,,,,102,001,2023-03-01_11h03.32.844,eb_01,2022.2.4,60.00630329691549,
,,,0,0,0,0,48,0,48,0,,,,,,,,,,,,,,,,,,,,,,,,,,,,,,,,,,,,,,,,,,,,,,,,,,,,,,,,,,,,102,001,2023-03-01_11h03.32.844,eb_01,2022.2.4,60.00630329691549,
8,stimuli/8.png,l,0,0,0,0,49,0,49,0,0,0,0,0,,,,,,,,,,,,,,,,,,,858.7229919405954,858.7229919405954,858.7229919405954,858.7229919405954,l,1,0.5237965020378397,859.2732771891688,859.2732771891688,859.2732771891688,860.2898786561627,860.2898786561627,860.2898786561627,,,,,,,,,,,,,,,,,,,,,,,,,102,001,2023-03-01_11h03.32.844,eb_01,2022.2.4,60.00630329691549,
,,,0,0,0,0,49,0,49,0,,,,,,,,,,,,,,,,,,,,,,,,,,,,,,,,,,,,,,,,,,,,,,,,,,,,,,,,,,,,102,001,2023-03-01_11h03.32.844,eb_01,2022.2.4,60.00630329691549,
6,stimuli/6.png,s,0,0,0,0,50,0,50,0,0,0,0,0,,,,,,,,,,,,,,,,,,,860.2898786561627,860.2898786561627,860.2898786561627,860.2898786561627,s,1,0.5089282597136844,860.8398442452226,860.8398442452226,860.8398442452226,,,,,,,,,,,,,,,,,,,,,,,,,,,,102,001,2023-03-01_11h03.32.844,eb_01,2022.2.4,60.00630329691549,
,,,0,0,0,0,50,0,50,0,,,,,,,,,,,,,,,,,,,,,,,,,,,,,,,,,,,,,,,,,,,,,,,,,,,,,,,,,,,,102,001,2023-03-01_11h03.32.844,eb_01,2022.2.4,60.00630329691549,
9,stimuli/9.png,l,0,0,0,0,51,0,51,0,0,0,0,0,,,,,,,,,,,,,,,,,,,861.8564505418208,861.8564505418208,861.8564505418208,861.8564505418208,l,1,0.4864084130522315,862.3897461438619,862.3897461438619,862.3897461438619,,,,,,,,,,,,,,,,,,,,,,,,,,,,102,001,2023-03-01_11h03.32.844,eb_01,2022.2.4,60.00630329691549,
,,,0,0,0,0,51,0,51,0,,,,,,,,,,,,,,,,,,,,,,,,,,,,,,,,,,,,,,,,,,,,,,,,,,,,,,,,,,,,102,001,2023-03-01_11h03.32.844,eb_01,2022.2.4,60.00630329691549,
6,stimuli/6.png,s,0,0,0,0,52,0,52,0,0,0,0,0,,,,,,,,,,,,,,,,,,,863.4063696459298,863.4063696459298,863.4063696459298,863.4063696459298,s,1,0.5205072388534973,863.9729919405954,863.9729919405954,863.9729919405954,,,,,,,,,,,,,,,,,,,,,,,,,,,,102,001,2023-03-01_11h03.32.844,eb_01,2022.2.4,60.00630329691549,
,,,0,0,0,0,52,0,52,0,,,,,,,,,,,,,,,,,,,,,,,,,,,,,,,,,,,,,,,,,,,,,,,,,,,,,,,,,,,,102,001,2023-03-01_11h03.32.844,eb_01,2022.2.4,60.00630329691549,
5,stimuli/5.png,s,0,0,0,0,53,0,53,0,0,0,0,0,,,,,,,,,,,,,,,,,,,864.9896477406501,864.9896477406501,864.9896477406501,864.9896477406501,s,1,0.5452610798993192,865.5562096652475,865.5562096652475,865.5562096652475,866.5728044915331,866.5728044915331,866.5728044915331,,,,,,,,,,,,,,,,,,,,,,,,,102,001,2023-03-01_11h03.32.844,eb_01,2022.2.4,60.00630329691549,
,,,0,0,0,0,53,0,53,0,,,,,,,,,,,,,,,,,,,,,,,,,,,,,,,,,,,,,,,,,,,,,,,,,,,,,,,,,,,,102,001,2023-03-01_11h03.32.844,eb_01,2022.2.4,60.00630329691549,
9,stimuli/9.png,l,0,0,0,0,54,0,54,0,0,0,0,0,,,,,,,,,,,,,,,,,,,866.5728044915331,866.5728044915331,866.5728044915331,866.5728044915331,l,1,0.4661575754171281,867.0727830601581,867.0727830601581,867.0727830601581,,,,,,,,,,,,,,,,,,,,,,,,,,,,102,001,2023-03-01_11h03.32.844,eb_01,2022.2.4,60.00630329691549,
,,,0,0,0,0,54,0,54,0,,,,,,,,,,,,,,,,,,,,,,,,,,,,,,,,,,,,,,,,,,,,,,,,,,,,,,,,,,,,102,001,2023-03-01_11h03.32.844,eb_01,2022.2.4,60.00630329691549,
8,stimuli/8.png,l,0,0,0,0,55,0,55,0,0,0,0,0,,,,,,,,,,,,,,,,,,,868.0893923752601,868.0893923752601,868.0893923752601,868.0893923752601,l,1,0.605601265236146,868.7226982402126,868.7226982402126,868.7226982402126,869.7226647348243,869.7226647348243,869.7226647348243,,,,,,,,,,,,,,,,,,,,,,,,,102,001,2023-03-01_11h03.32.844,eb_01,2022.2.4,60.00630329691549,
,,,0,0,0,0,55,0,55,0,,,,,,,,,,,,,,,,,,,,,,,,,,,,,,,,,,,,,,,,,,,,,,,,,,,,,,,,,,,,102,001,2023-03-01_11h03.32.844,eb_01,2022.2.4,60.00630329691549,
3,stimuli/3.png,l,0,0,0,0,56,0,56,0,0,0,0,0,,,,,,,,,,,,,,,,,,,869.7226647348243,869.7226647348243,869.7226647348243,869.7226647348243,l,1,0.48433802155250305,870.2392695221706,870.2392695221706,870.2392695221706,871.2558598207006,871.2558598207006,871.2558598207006,,,,,,,,,,,,,,,,,,,,,,,,,102,001,2023-03-01_11h03.32.844,eb_01,2022.2.4,60.00630329691549,
,,,0,0,0,0,56,0,56,0,,,,,,,,,,,,,,,,,,,,,,,,,,,,,,,,,,,,,,,,,,,,,,,,,,,,,,,,,,,,102,001,2023-03-01_11h03.32.844,eb_01,2022.2.4,60.00630329691549,
4,stimuli/4.png,l,0,0,0,0,57,0,57,0,0,0,0,0,,,,,,,,,,,,,,,,,,,871.2558598207006,871.2558598207006,871.2558598207006,871.2558598207006,l,1,0.5752067468374662,871.8558438226328,871.8558438226328,871.8558438226328,872.8557644359926,872.8557644359926,872.8557644359926,,,,,,,,,,,,,,,,,,,,,,,,,102,001,2023-03-01_11h03.32.844,eb_01,2022.2.4,60.00630329691549,
,,,0,0,0,0,57,0,57,0,,,,,,,,,,,,,,,,,,,,,,,,,,,,,,,,,,,,,,,,,,,,,,,,,,,,,,,,,,,,102,001,2023-03-01_11h03.32.844,eb_01,2022.2.4,60.00630329691549,
3,stimuli/3.png,l,0,0,0,0,58,0,58,0,0,0,0,0,,,,,,,,,,,,,,,,,,,872.8557644359926,872.8557644359926,872.8557644359926,872.8557644359926,l,1,0.47928323571522924,873.3557731896517,873.3557731896517,873.3557731896517,874.3557025566724,874.3557025566724,874.3557025566724,,,,,,,,,,,,,,,,,,,,,,,,,102,001,2023-03-01_11h03.32.844,eb_01,2022.2.4,60.00630329691549,
,,,0,0,0,0,58,0,58,0,,,,,,,,,,,,,,,,,,,,,,,,,,,,,,,,,,,,,,,,,,,,,,,,,,,,,,,,,,,,102,001,2023-03-01_11h03.32.844,eb_01,2022.2.4,60.00630329691549,
2,stimuli/2.png,s,0,0,0,0,59,0,59,0,0,0,0,0,,,,,,,,,,,,,,,,,,,874.3557025566724,874.3557025566724,874.3557025566724,874.3557025566724,s,1,0.7064177704114627,875.0889555978147,875.0889555978147,875.0889555978147,876.105585740589,876.105585740589,876.105585740589,,,,,,,,,,,,,,,,,,,,,,,,,102,001,2023-03-01_11h03.32.844,eb_01,2022.2.4,60.00630329691549,
,,,0,0,0,0,59,0,59,0,,,,,,,,,,,,,,,,,,,,,,,,,,,,,,,,,,,,,,,,,,,,,,,,,,,,,,,,,,,,102,001,2023-03-01_11h03.32.844,eb_01,2022.2.4,60.00630329691549,
1,stimuli/1.png,s,0,0,0,0,60,0,60,0,0,0,0,0,,,,,,,,,,,,,,,,,,,876.105585740589,876.105585740589,876.105585740589,876.105585740589,s,1,1.1405766644338655,877.2888523649972,877.2888523649972,877.2888523649972,,,,,,,,,,,,,,,,,,,,,,,,,,,,102,001,2023-03-01_11h03.32.844,eb_01,2022.2.4,60.00630329691549,
,,,0,0,0,0,60,0,60,0,,,,,,,,,,,,,,,,,,,,,,,,,,,,,,,,,,,,,,,,,,,,,,,,,,,,,,,,,,,,102,001,2023-03-01_11h03.32.844,eb_01,2022.2.4,60.00630329691549,
4,stimuli/4.png,l,0,0,0,0,61,0,61,0,0,0,0,0,,,,,,,,,,,,,,,,,,,878.3053898397166,878.3053898397166,878.3053898397166,878.3053898397166,l,1,0.5488630600384568,878.8720655618936,878.8720655618936,878.8720655618936,879.8720024751719,879.8720024751719,879.8720024751719,,,,,,,,,,,,,,,,,,,,,,,,,102,001,2023-03-01_11h03.32.844,eb_01,2022.2.4,60.00630329691549,
,,,0,0,0,0,61,0,61,0,,,,,,,,,,,,,,,,,,,,,,,,,,,,,,,,,,,,,,,,,,,,,,,,,,,,,,,,,,,,102,001,2023-03-01_11h03.32.844,eb_01,2022.2.4,60.00630329691549,
3,stimuli/3.png,l,0,0,0,0,62,0,62,0,0,0,0,0,,,,,,,,,,,,,,,,,,,879.8720024751719,879.8720024751719,879.8720024751719,879.8720024751719,l,1,0.47024613830853923,880.3719922122609,880.3719922122609,880.3719922122609,881.388610281022,881.388610281022,881.388610281022,,,,,,,,,,,,,,,,,,,,,,,,,102,001,2023-03-01_11h03.32.844,eb_01,2022.2.4,60.00630329691549,
,,,0,0,0,0,62,0,62,0,,,,,,,,,,,,,,,,,,,,,,,,,,,,,,,,,,,,,,,,,,,,,,,,,,,,,,,,,,,,102,001,2023-03-01_11h03.32.844,eb_01,2022.2.4,60.00630329691549,
8,stimuli/8.png,l,0,0,0,0,63,0,63,0,0,0,0,0,,,,,,,,,,,,,,,,,,,881.388610281022,881.388610281022,881.388610281022,881.388610281022,l,1,0.48168354963945603,881.8885197259197,881.8885197259197,881.8885197259197,882.9051806574289,882.9051806574289,882.9051806574289,,,,,,,,,,,,,,,,,,,,,,,,,102,001,2023-03-01_11h03.32.844,eb_01,2022.2.4,60.00630329691549,
,,,0,0,0,0,63,0,63,0,,,,,,,,,,,,,,,,,,,,,,,,,,,,,,,,,,,,,,,,,,,,,,,,,,,,,,,,,,,,102,001,2023-03-01_11h03.32.844,eb_01,2022.2.4,60.00630329691549,
9,stimuli/9.png,l,0,0,0,0,64,0,64,0,0,0,0,0,,,,,,,,,,,,,,,,,,,882.9051806574289,882.9051806574289,882.9051806574289,882.9051806574289,l,1,0.5011586318933041,883.455142624286,883.455142624286,883.455142624286,,,,,,,,,,,,,,,,,,,,,,,,,,,,102,001,2023-03-01_11h03.32.844,eb_01,2022.2.4,60.00630329691549,
,,,0,0,0,0,64,0,64,0,,,,,,,,,,,,,,,,,,,,,,,,,,,,,,,,,,,,,,,,,,,,,,,,,,,,,,,,,,,,102,001,2023-03-01_11h03.32.844,eb_01,2022.2.4,60.00630329691549,
6,stimuli/6.png,s,0,0,0,0,65,0,65,0,0,0,0,0,,,,,,,,,,,,,,,,,,,884.471739261674,884.471739261674,884.471739261674,884.471739261674,s,1,0.31861101500271616,884.8383678951968,884.8383678951968,884.8383678951968,,,,,,,,,,,,,,,,,,,,,,,,,,,,102,001,2023-03-01_11h03.32.844,eb_01,2022.2.4,60.00630329691549,
,,,0,0,0,0,65,0,65,0,,,,,,,,,,,,,,,,,,,,,,,,,,,,,,,,,,,,,,,,,,,,,,,,,,,,,,,,,,,,102,001,2023-03-01_11h03.32.844,eb_01,2022.2.4,60.00630329691549,
5,stimuli/5.png,s,0,0,0,0,66,0,66,0,0,0,0,0,,,,,,,,,,,,,,,,,,,885.838023483956,885.838023483956,885.838023483956,885.838023483956,s,1,0.5923919923943686,886.4549575900264,886.4549575900264,886.4549575900264,887.4715672069788,887.4715672069788,887.4715672069788,,,,,,,,,,,,,,,,,,,,,,,,,102,001,2023-03-01_11h03.32.844,eb_01,2022.2.4,60.00630329691549,
,,,0,0,0,0,66,0,66,0,,,,,,,,,,,,,,,,,,,,,,,,,,,,,,,,,,,,,,,,,,,,,,,,,,,,,,,,,,,,102,001,2023-03-01_11h03.32.844,eb_01,2022.2.4,60.00630329691549,
6,stimuli/6.png,s,0,0,0,0,67,0,67,0,0,0,0,0,,,,,,,,,,,,,,,,,,,887.4715672069788,887.4715672069788,887.4715672069788,887.4715672069788,s,1,0.502847182709047,888.0215029128549,888.0215029128549,888.0215029128549,,,,,,,,,,,,,,,,,,,,,,,,,,,,102,001,2023-03-01_11h03.32.844,eb_01,2022.2.4,60.00630329691549,
,,,0,0,0,0,67,0,67,0,,,,,,,,,,,,,,,,,,,,,,,,,,,,,,,,,,,,,,,,,,,,,,,,,,,,,,,,,,,,102,001,2023-03-01_11h03.32.844,eb_01,2022.2.4,60.00630329691549,
5,stimuli/5.png,s,0,0,0,0,68,0,68,0,0,0,0,0,,,,,,,,,,,,,,,,,,,889.0211334480364,889.0211334480364,889.0211334480364,889.0211334480364,s,1,0.5683665162241596,889.621450390895,889.621450390895,889.621450390895,890.6380277098606,890.6380277098606,890.6380277098606,,,,,,,,,,,,,,,,,,,,,,,,,102,001,2023-03-01_11h03.32.844,eb_01,2022.2.4,60.00630329691549,
,,,0,0,0,0,68,0,68,0,,,,,,,,,,,,,,,,,,,,,,,,,,,,,,,,,,,,,,,,,,,,,,,,,,,,,,,,,,,,102,001,2023-03-01_11h03.32.844,eb_01,2022.2.4,60.00630329691549,
6,stimuli/6.png,s,0,0,0,0,69,0,69,0,0,0,0,0,,,,,,,,,,,,,,,,,,,890.6380277098606,890.6380277098606,890.6380277098606,890.6380277098606,s,1,0.583520007124207,891.2713109360384,891.2713109360384,891.2713109360384,,,,,,,,,,,,,,,,,,,,,,,,,,,,102,001,2023-03-01_11h03.32.844,eb_01,2022.2.4,60.00630329691549,
,,,0,0,0,0,69,0,69,0,,,,,,,,,,,,,,,,,,,,,,,,,,,,,,,,,,,,,,,,,,,,,,,,,,,,,,,,,,,,102,001,2023-03-01_11h03.32.844,eb_01,2022.2.4,60.00630329691549,
8,stimuli/8.png,l,0,0,0,0,70,0,70,0,0,0,0,0,,,,,,,,,,,,,,,,,,,892.2879628120381,892.2879628120381,892.2879628120381,892.2879628120381,l,1,0.3655158415886035,892.6712393975058,892.6712393975058,892.6712393975058,893.6878550514657,893.6878550514657,893.6878550514657,,,,,,,,,,,,,,,,,,,,,,,,,102,001,2023-03-01_11h03.32.844,eb_01,2022.2.4,60.00630329691549,
,,,0,0,0,0,70,0,70,0,,,,,,,,,,,,,,,,,,,,,,,,,,,,,,,,,,,,,,,,,,,,,,,,,,,,,,,,,,,,102,001,2023-03-01_11h03.32.844,eb_01,2022.2.4,60.00630329691549,
6,stimuli/6.png,s,0,0,0,0,71,0,71,0,0,0,0,0,,,,,,,,,,,,,,,,,,,893.6878550514657,893.6878550514657,893.6878550514657,893.6878550514657,s,1,0.4857207979703162,894.2211563886622,894.2211563886622,894.2211563886622,,,,,,,,,,,,,,,,,,,,,,,,,,,,102,001,2023-03-01_11h03.32.844,eb_01,2022.2.4,60.00630329691549,
,,,0,0,0,0,71,0,71,0,,,,,,,,,,,,,,,,,,,,,,,,,,,,,,,,,,,,,,,,,,,,,,,,,,,,,,,,,,,,102,001,2023-03-01_11h03.32.844,eb_01,2022.2.4,60.00630329691549,
5,stimuli/5.png,s,0,0,0,0,72,0,72,0,0,0,0,0,,,,,,,,,,,,,,,,,,,895.2207881312434,895.2207881312434,895.2207881312434,895.2207881312434,s,1,0.5128332975937155,895.7543674726066,895.7543674726066,895.7543674726066,896.7709710525514,896.7709710525514,896.7709710525514,,,,,,,,,,,,,,,,,,,,,,,,,102,001,2023-03-01_11h03.32.844,eb_01,2022.2.4,60.00630329691549,
,,,0,0,0,0,72,0,72,0,,,,,,,,,,,,,,,,,,,,,,,,,,,,,,,,,,,,,,,,,,,,,,,,,,,,,,,,,,,,102,001,2023-03-01_11h03.32.844,eb_01,2022.2.4,60.00630329691549,
6,stimuli/6.png,s,0,0,0,0,73,0,73,0,0,0,0,0,,,,,,,,,,,,,,,,,,,896.7709710525514,896.7709710525514,896.7709710525514,896.7709710525514,s,1,0.45866444251350913,897.270955658184,897.270955658184,897.270955658184,,,,,,,,,,,,,,,,,,,,,,,,,,,,102,001,2023-03-01_11h03.32.844,eb_01,2022.2.4,60.00630329691549,
,,,0,0,0,0,73,0,73,0,,,,,,,,,,,,,,,,,,,,,,,,,,,,,,,,,,,,,,,,,,,,,,,,,,,,,,,,,,,,102,001,2023-03-01_11h03.32.844,eb_01,2022.2.4,60.00630329691549,
9,stimuli/9.png,l,0,0,0,0,74,0,74,0,0,0,0,0,,,,,,,,,,,,,,,,,,,898.2875453530132,898.2875453530132,898.2875453530132,898.2875453530132,l,1,0.3981784634625001,898.7208279754896,898.7208279754896,898.7208279754896,,,,,,,,,,,,,,,,,,,,,,,,,,,,102,001,2023-03-01_11h03.32.844,eb_01,2022.2.4,60.00630329691549,
,,,0,0,0,0,74,0,74,0,,,,,,,,,,,,,,,,,,,,,,,,,,,,,,,,,,,,,,,,,,,,,,,,,,,,,,,,,,,,102,001,2023-03-01_11h03.32.844,eb_01,2022.2.4,60.00630329691549,
5,stimuli/5.png,s,0,0,0,0,75,0,75,0,0,0,0,0,,,,,,,,,,,,,,,,,,,899.7205086178265,899.7205086178265,899.7205086178265,899.7205086178265,s,1,0.5172514810592475,900.2707944701006,900.2707944701006,900.2707944701006,901.2873799390263,901.2873799390263,901.2873799390263,,,,,,,,,,,,,,,,,,,,,,,,,102,001,2023-03-01_11h03.32.844,eb_01,2022.2.4,60.00630329691549,
,,,0,0,0,0,75,0,75,0,,,,,,,,,,,,,,,,,,,,,,,,,,,,,,,,,,,,,,,,,,,,,,,,,,,,,,,,,,,,102,001,2023-03-01_11h03.32.844,eb_01,2022.2.4,60.00630329691549,
6,stimuli/6.png,s,0,0,0,0,76,0,76,0,0,0,0,0,,,,,,,,,,,,,,,,,,,901.2873799390263,901.2873799390263,901.2873799390263,901.2873799390263,s,1,0.4463649466024435,901.7706845965758,901.7706845965758,901.7706845965758,,,,,,,,,,,,,,,,,,,,,,,,,,,,102,001,2023-03-01_11h03.32.844,eb_01,2022.2.4,60.00630329691549,
,,,0,0,0,0,76,0,76,0,,,,,,,,,,,,,,,,,,,,,,,,,,,,,,,,,,,,,,,,,,,,,,,,,,,,,,,,,,,,102,001,2023-03-01_11h03.32.844,eb_01,2022.2.4,60.00630329691549,
5,stimuli/5.png,s,0,0,0,0,77,0,77,0,0,0,0,0,,,,,,,,,,,,,,,,,,,902.7702952096342,902.7702952096342,902.7702952096342,902.7702952096342,s,1,0.5394797402886979,903.3372637266448,903.3372637266448,903.3372637266448,904.3538597603301,904.3538597603301,904.3538597603301,,,,,,,,,,,,,,,,,,,,,,,,,102,001,2023-03-01_11h03.32.844,eb_01,2022.2.4,60.00630329691549,
,,,0,0,0,0,77,0,77,0,,,,,,,,,,,,,,,,,,,,,,,,,,,,,,,,,,,,,,,,,,,,,,,,,,,,,,,,,,,,102,001,2023-03-01_11h03.32.844,eb_01,2022.2.4,60.00630329691549,
6,stimuli/6.png,s,0,0,0,0,78,0,78,0,0,0,0,0,,,,,,,,,,,,,,,,,,,904.3538597603301,904.3538597603301,904.3538597603301,904.3538597603301,s,1,0.4829742617048396,904.8704793383431,904.8704793383431,904.8704793383431,,,,,,,,,,,,,,,,,,,,,,,,,,,,102,001,2023-03-01_11h03.32.844,eb_01,2022.2.4,60.00630329691549,
,,,0,0,0,0,78,0,78,0,,,,,,,,,,,,,,,,,,,,,,,,,,,,,,,,,,,,,,,,,,,,,,,,,,,,,,,,,,,,102,001,2023-03-01_11h03.32.844,eb_01,2022.2.4,60.00630329691549,
5,stimuli/5.png,s,0,0,0,0,79,0,79,0,0,0,0,0,,,,,,,,,,,,,,,,,,,905.8701403604091,905.8701403604091,905.8701403604091,905.8701403604091,s,1,0.5106949897681261,906.4037529053085,906.4037529053085,906.4037529053085,907.4203471278934,907.4203471278934,907.4203471278934,,,,,,,,,,,,,,,,,,,,,,,,,102,001,2023-03-01_11h03.32.844,eb_01,2022.2.4,60.00630329691549,
,,,0,0,0,0,79,0,79,0,,,,,,,,,,,,,,,,,,,,,,,,,,,,,,,,,,,,,,,,,,,,,,,,,,,,,,,,,,,,102,001,2023-03-01_11h03.32.844,eb_01,2022.2.4,60.00630329691549,
9,stimuli/9.png,l,0,0,0,0,80,0,80,0,0,0,0,0,,,,,,,,,,,,,,,,,,,907.4203471278934,907.4203471278934,907.4203471278934,907.4203471278934,l,1,0.3925628396873435,907.8536590298527,907.8536590298527,907.8536590298527,,,,,,,,,,,,,,,,,,,,,,,,,,,,102,001,2023-03-01_11h03.32.844,eb_01,2022.2.4,60.00630329691549,
,,,0,0,0,0,80,0,80,0,,,,,,,,,,,,,,,,,,,,,,,,,,,,,,,,,,,,,,,,,,,,,,,,,,,,,,,,,,,,102,001,2023-03-01_11h03.32.844,eb_01,2022.2.4,60.00630329691549,
8,stimuli/8.png,l,0,0,0,0,81,0,81,0,0,0,0,0,,,,,,,,,,,,,,,,,,,908.8702354432671,908.8702354432671,908.8702354432671,908.8702354432671,l,1,0.5346679439762738,909.4369178061506,909.4369178061506,909.4369178061506,910.4534969362185,910.4534969362185,910.4534969362185,,,,,,,,,,,,,,,,,,,,,,,,,102,001,2023-03-01_11h03.32.844,eb_01,2022.2.4,60.00630329691549,
,,,0,0,0,0,81,0,81,0,,,,,,,,,,,,,,,,,,,,,,,,,,,,,,,,,,,,,,,,,,,,,,,,,,,,,,,,,,,,102,001,2023-03-01_11h03.32.844,eb_01,2022.2.4,60.00630329691549,
6,stimuli/6.png,s,0,0,0,0,82,0,82,0,0,0,0,0,,,,,,,,,,,,,,,,,,,910.4534969362185,910.4534969362185,910.4534969362185,910.4534969362185,s,1,0.6474763595642798,911.1367982734164,911.1367982734164,911.1367982734164,,,,,,,,,,,,,,,,,,,,,,,,,,,,102,001,2023-03-01_11h03.32.844,eb_01,2022.2.4,60.00630329691549,
,,,0,0,0,0,82,0,82,0,,,,,,,,,,,,,,,,,,,,,,,,,,,,,,,,,,,,,,,,,,,,,,,,,,,,,,,,,,,,102,001,2023-03-01_11h03.32.844,eb_01,2022.2.4,60.00630329691549,
9,stimuli/9.png,l,0,0,0,0,83,0,83,0,0,0,0,0,,,,,,,,,,,,,,,,,,,912.1533867608441,912.1533867608441,912.1533867608441,912.1533867608441,l,1,0.3556217910581836,912.5533692535237,912.5533692535237,912.5533692535237,,,,,,,,,,,,,,,,,,,,,,,,,,,,102,001,2023-03-01_11h03.32.844,eb_01,2022.2.4,60.00630329691549,
,,,0,0,0,0,83,0,83,0,,,,,,,,,,,,,,,,,,,,,,,,,,,,,,,,,,,,,,,,,,,,,,,,,,,,,,,,,,,,102,001,2023-03-01_11h03.32.844,eb_01,2022.2.4,60.00630329691549,
5,stimuli/5.png,s,0,0,0,0,84,0,84,0,0,0,0,0,,,,,,,,,,,,,,,,,,,913.552981375834,913.552981375834,913.552981375834,913.552981375834,s,1,0.5800263912597075,914.1532617948023,914.1532617948023,914.1532617948023,915.1698741284063,915.1698741284063,915.1698741284063,,,,,,,,,,,,,,,,,,,,,,,,,102,001,2023-03-01_11h03.32.844,eb_01,2022.2.4,60.00630329691549,
,,,0,0,0,0,84,0,84,0,,,,,,,,,,,,,,,,,,,,,,,,,,,,,,,,,,,,,,,,,,,,,,,,,,,,,,,,,,,,102,001,2023-03-01_11h03.32.844,eb_01,2022.2.4,60.00630329691549,
6,stimuli/6.png,s,0,0,0,0,85,0,85,0,0,0,0,0,,,,,,,,,,,,,,,,,,,915.1698741284063,915.1698741284063,915.1698741284063,915.1698741284063,s,1,0.7791996231708254,915.9865178544469,915.9865178544469,915.9865178544469,,,,,,,,,,,,,,,,,,,,,,,,,,,,102,001,2023-03-01_11h03.32.844,eb_01,2022.2.4,60.00630329691549,
,,,0,0,0,0,85,0,85,0,,,,,,,,,,,,,,,,,,,,,,,,,,,,,,,,,,,,,,,,,,,,,,,,,,,,,,,,,,,,102,001,2023-03-01_11h03.32.844,eb_01,2022.2.4,60.00630329691549,
5,stimuli/5.png,s,0,0,0,0,86,0,86,0,0,0,0,0,,,,,,,,,,,,,,,,,,,916.9861299767572,916.9861299767572,916.9861299767572,916.9861299767572,s,1,0.4829778839093706,917.4863925865548,917.4863925865548,917.4863925865548,918.5029898276434,918.5029898276434,918.5029898276434,,,,,,,,,,,,,,,,,,,,,,,,,102,001,2023-03-01_11h03.32.844,eb_01,2022.2.4,60.00630329691549,
,,,0,0,0,0,86,0,86,0,,,,,,,,,,,,,,,,,,,,,,,,,,,,,,,,,,,,,,,,,,,,,,,,,,,,,,,,,,,,102,001,2023-03-01_11h03.32.844,eb_01,2022.2.4,60.00630329691549,
6,stimuli/6.png,s,0,0,0,0,87,0,87,0,0,0,0,0,,,,,,,,,,,,,,,,,,,918.5029898276434,918.5029898276434,918.5029898276434,918.5029898276434,s,1,0.4381413358687496,918.9862959944448,918.9862959944448,918.9862959944448,,,,,,,,,,,,,,,,,,,,,,,,,,,,102,001,2023-03-01_11h03.32.844,eb_01,2022.2.4,60.00630329691549,
,,,0,0,0,0,87,0,87,0,,,,,,,,,,,,,,,,,,,,,,,,,,,,,,,,,,,,,,,,,,,,,,,,,,,,,,,,,,,,102,001,2023-03-01_11h03.32.844,eb_01,2022.2.4,60.00630329691549,
5,stimuli/5.png,s,0,0,0,0,88,0,88,0,0,0,0,0,,,,,,,,,,,,,,,,,,,920.0029137613574,920.0029137613574,920.0029137613574,920.0029137613574,s,1,0.5613001997035099,920.586227776269,920.586227776269,920.586227776269,921.6028440339278,921.6028440339278,921.6028440339278,,,,,,,,,,,,,,,,,,,,,,,,,102,001,2023-03-01_11h03.32.844,eb_01,2022.2.4,60.00630329691549,
,,,0,0,0,0,88,0,88,0,,,,,,,,,,,,,,,,,,,,,,,,,,,,,,,,,,,,,,,,,,,,,,,,,,,,,,,,,,,,102,001,2023-03-01_11h03.32.844,eb_01,2022.2.4,60.00630329691549,
6,stimuli/6.png,s,0,0,0,0,89,0,89,0,0,0,0,0,,,,,,,,,,,,,,,,,,,921.6028440339278,921.6028440339278,921.6028440339278,921.6028440339278,s,1,0.36933907802904287,922.0194687433968,922.0194687433968,922.0194687433968,,,,,,,,,,,,,,,,,,,,,,,,,,,,102,001,2023-03-01_11h03.32.844,eb_01,2022.2.4,60.00630329691549,
,,,0,0,0,0,89,0,89,0,,,,,,,,,,,,,,,,,,,,,,,,,,,,,,,,,,,,,,,,,,,,,,,,,,,,,,,,,,,,102,001,2023-03-01_11h03.32.844,eb_01,2022.2.4,60.00630329691549,
9,stimuli/9.png,l,0,0,0,0,90,0,90,0,0,0,0,0,,,,,,,,,,,,,,,,,,,923.036079869601,923.036079869601,923.036079869601,923.036079869601,l,1,0.45617236608359235,923.5360614567298,923.5360614567298,923.5360614567298,,,,,,,,,,,,,,,,,,,,,,,,,,,,102,001,2023-03-01_11h03.32.844,eb_01,2022.2.4,60.00630329691549,
,,,0,0,0,0,90,0,90,0,,,,,,,,,,,,,,,,,,,,,,,,,,,,,,,,,,,,,,,,,,,,,,,,,,,,,,,,,,,,102,001,2023-03-01_11h03.32.844,eb_01,2022.2.4,60.00630329691549,
8,stimuli/8.png,l,0,0,0,0,91,0,91,0,0,0,0,0,,,,,,,,,,,,,,,,,,,924.5526635274227,924.5526635274227,924.5526635274227,924.5526635274227,l,1,0.5236386343085542,925.1026104017628,925.1026104017628,925.1026104017628,926.1191949651356,926.1191949651356,926.1191949651356,,,,,,,,,,,,,,,,,,,,,,,,,102,001,2023-03-01_11h03.32.844,eb_01,2022.2.4,60.00630329691549,
,,,0,0,0,0,91,0,91,0,,,,,,,,,,,,,,,,,,,,,,,,,,,,,,,,,,,,,,,,,,,,,,,,,,,,,,,,,,,,102,001,2023-03-01_11h03.32.844,eb_01,2022.2.4,60.00630329691549,
6,stimuli/6.png,s,0,0,0,0,92,0,92,0,0,0,0,0,,,,,,,,,,,,,,,,,,,926.1191949651356,926.1191949651356,926.1191949651356,926.1191949651356,s,1,0.5891428753066066,926.7525026411904,926.7525026411904,926.7525026411904,,,,,,,,,,,,,,,,,,,,,,,,,,,,102,001,2023-03-01_11h03.32.844,eb_01,2022.2.4,60.00630329691549,
,,,0,0,0,0,92,0,92,0,,,,,,,,,,,,,,,,,,,,,,,,,,,,,,,,,,,,,,,,,,,,,,,,,,,,,,,,,,,,102,001,2023-03-01_11h03.32.844,eb_01,2022.2.4,60.00630329691549,
8,stimuli/8.png,l,0,0,0,0,93,0,93,0,0,0,0,0,,,,,,,,,,,,,,,,,,,927.7691080322375,927.7691080322375,927.7691080322375,927.7691080322375,l,1,0.40326433988320787,928.2024522321835,928.2024522321835,928.2024522321835,929.202382806604,929.202382806604,929.202382806604,,,,,,,,,,,,,,,,,,,,,,,,,102,001,2023-03-01_11h03.32.844,eb_01,2022.2.4,60.00630329691549,
,,,0,0,0,0,93,0,93,0,,,,,,,,,,,,,,,,,,,,,,,,,,,,,,,,,,,,,,,,,,,,,,,,,,,,,,,,,,,,102,001,2023-03-01_11h03.32.844,eb_01,2022.2.4,60.00630329691549,
3,stimuli/3.png,l,0,0,0,0,94,0,94,0,0,0,0,0,,,,,,,,,,,,,,,,,,,929.202382806604,929.202382806604,929.202382806604,929.202382806604,l,1,0.7220125665126034,929.9522967792573,929.9522967792573,929.9522967792573,930.9522424461948,930.9522424461948,930.9522424461948,,,,,,,,,,,,,,,,,,,,,,,,,102,001,2023-03-01_11h03.32.844,eb_01,2022.2.4,60.00630329691549,
,,,0,0,0,0,94,0,94,0,,,,,,,,,,,,,,,,,,,,,,,,,,,,,,,,,,,,,,,,,,,,,,,,,,,,,,,,,,,,102,001,2023-03-01_11h03.32.844,eb_01,2022.2.4,60.00630329691549,
2,stimuli/2.png,s,0,0,0,0,95,0,95,0,0,0,0,0,,,,,,,,,,,,,,,,,,,930.9522424461948,930.9522424461948,930.9522424461948,930.9522424461948,s,1,0.5881923485767402,931.5688885870377,931.5688885870377,931.5688885870377,932.5855075613499,932.5855075613499,932.5855075613499,,,,,,,,,,,,,,,,,,,,,,,,,102,001,2023-03-01_11h03.32.844,eb_01,2022.2.4,60.00630329691549,
,,,0,0,0,0,95,0,95,0,,,,,,,,,,,,,,,,,,,,,,,,,,,,,,,,,,,,,,,,,,,,,,,,,,,,,,,,,,,,102,001,2023-03-01_11h03.32.844,eb_01,2022.2.4,60.00630329691549,
1,stimuli/1.png,s,0,0,0,0,96,0,96,0,0,0,0,0,,,,,,,,,,,,,,,,,,,932.5855075613499,932.5855075613499,932.5855075613499,932.5855075613499,s,1,0.4909470348038667,933.1187775061126,933.1187775061126,933.1187775061126,,,,,,,,,,,,,,,,,,,,,,,,,,,,102,001,2023-03-01_11h03.32.844,eb_01,2022.2.4,60.00630329691549,
,,,0,0,0,0,96,0,96,0,,,,,,,,,,,,,,,,,,,,,,,,,,,,,,,,,,,,,,,,,,,,,,,,,,,,,,,,,,,,102,001,2023-03-01_11h03.32.844,eb_01,2022.2.4,60.00630329691549,
4,stimuli/4.png,l,0,0,0,0,97,0,97,0,0,0,0,0,,,,,,,,,,,,,,,,,,,934.1354082525877,934.1354082525877,934.1354082525877,934.1354082525877,l,1,0.42111516544446204,934.5853515047229,934.5853515047229,934.5853515047229,935.6019656494309,935.6019656494309,935.6019656494309,,,,,,,,,,,,,,,,,,,,,,,,,102,001,2023-03-01_11h03.32.844,eb_01,2022.2.4,60.00630329691549,
,,,0,0,0,0,97,0,97,0,,,,,,,,,,,,,,,,,,,,,,,,,,,,,,,,,,,,,,,,,,,,,,,,,,,,,,,,,,,,102,001,2023-03-01_11h03.32.844,eb_01,2022.2.4,60.00630329691549,
1,stimuli/1.png,s,0,0,0,0,98,0,98,0,0,0,0,0,,,,,,,,,,,,,,,,,,,935.6019656494309,935.6019656494309,935.6019656494309,935.6019656494309,s,1,0.5296318728605911,936.1686250716893,936.1686250716893,936.1686250716893,,,,,,,,,,,,,,,,,,,,,,,,,,,,102,001,2023-03-01_11h03.32.844,eb_01,2022.2.4,60.00630329691549,
,,,0,0,0,0,98,0,98,0,,,,,,,,,,,,,,,,,,,,,,,,,,,,,,,,,,,,,,,,,,,,,,,,,,,,,,,,,,,,102,001,2023-03-01_11h03.32.844,eb_01,2022.2.4,60.00630329691549,
2,stimuli/2.png,s,0,0,0,0,99,0,99,0,0,0,0,0,,,,,,,,,,,,,,,,,,,937.1685514202063,937.1685514202063,937.1685514202063,937.1685514202063,s,1,0.5630316132692315,937.7518581907088,937.7518581907088,937.7518581907088,938.7518032539456,938.7518032539456,938.7518032539456,,,,,,,,,,,,,,,,,,,,,,,,,102,001,2023-03-01_11h03.32.844,eb_01,2022.2.4,60.00630329691549,
,,,0,0,0,0,99,0,99,0,,,,,,,,,,,,,,,,,,,,,,,,,,,,,,,,,,,,,,,,,,,,,,,,,,,,,,,,,,,,102,001,2023-03-01_11h03.32.844,eb_01,2022.2.4,60.00630329691549,
,,,0,0,0,0,,,,,,,,,,,,,,,,,,,,,,,,,,,,,,,,,,,,,,,,938.7518032539456,938.7518032539456,return,7.251959440852261,,,,,,,,,,,,,,,,,,,,,102,001,2023-03-01_11h03.32.844,eb_01,2022.2.4,60.00630329691549,
1,stimuli/1.png,s,1,0,1,0,0,0,0,0,0,0,0,0,,,,,,,,,,,,,,,,,,,946.051326632255,946.051326632255,946.051326632255,946.051326632255,s,1,2.272459606870143,948.3678767846895,948.3678767846895,948.3678767846895,,,,,,,,,,,,,,,,,,,,,,,,,,,,102,001,2023-03-01_11h03.32.844,eb_01,2022.2.4,60.00630329691549,
,,,1,0,1,0,0,0,0,0,,,,,,,,,,,,,,,,,,,,,,,,,,,,,,,,,,,,,,,,,,,,,,,,,,,,,,,,,,,,102,001,2023-03-01_11h03.32.844,eb_01,2022.2.4,60.00630329691549,
2,stimuli/2.png,s,1,0,1,0,1,0,1,0,0,0,0,0,,,,,,,,,,,,,,,,,,,949.3678375441459,949.3678375441459,949.3678375441459,949.3678375441459,s,1,0.5000535577901246,949.8844592351115,949.8844592351115,949.8844592351115,950.9010757946207,950.9010757946207,950.9010757946207,,,,,,,,,,,,,,,,,,,,,,,,,102,001,2023-03-01_11h03.32.844,eb_01,2022.2.4,60.00630329691549,
,,,1,0,1,0,1,0,1,0,,,,,,,,,,,,,,,,,,,,,,,,,,,,,,,,,,,,,,,,,,,,,,,,,,,,,,,,,,,,102,001,2023-03-01_11h03.32.844,eb_01,2022.2.4,60.00630329691549,
1,stimuli/1.png,s,1,0,1,0,2,0,2,0,0,0,0,0,,,,,,,,,,,,,,,,,,,950.9010757946207,950.9010757946207,950.9010757946207,950.9010757946207,s,1,0.4698615809711555,951.4176944670826,951.4176944670826,951.4176944670826,,,,,,,,,,,,,,,,,,,,,,,,,,,,102,001,2023-03-01_11h03.32.844,eb_01,2022.2.4,60.00630329691549,
,,,1,0,1,0,2,0,2,0,,,,,,,,,,,,,,,,,,,,,,,,,,,,,,,,,,,,,,,,,,,,,,,,,,,,,,,,,,,,102,001,2023-03-01_11h03.32.844,eb_01,2022.2.4,60.00630329691549,
4,stimuli/4.png,l,1,0,1,0,3,0,3,0,0,0,0,0,,,,,,,,,,,,,,,,,,,952.4343074043891,952.4343074043891,952.4343074043891,952.4343074043891,l,1,0.5685944132337681,953.0342443176678,953.0342443176678,953.0342443176678,954.0341975308647,954.0341975308647,954.0341975308647,,,,,,,,,,,,,,,,,,,,,,,,,102,001,2023-03-01_11h03.32.844,eb_01,2022.2.4,60.00630329691549,
,,,1,0,1,0,3,0,3,0,,,,,,,,,,,,,,,,,,,,,,,,,,,,,,,,,,,,,,,,,,,,,,,,,,,,,,,,,,,,102,001,2023-03-01_11h03.32.844,eb_01,2022.2.4,60.00630329691549,
3,stimuli/3.png,l,1,0,1,0,4,0,4,0,0,0,0,0,,,,,,,,,,,,,,,,,,,954.0341975308647,954.0341975308647,954.0341975308647,954.0341975308647,l,1,0.5687712975332033,954.6341549699655,954.6341549699655,954.6341549699655,955.650765492469,955.650765492469,955.650765492469,,,,,,,,,,,,,,,,,,,,,,,,,102,001,2023-03-01_11h03.32.844,eb_01,2022.2.4,60.00630329691549,
,,,1,0,1,0,4,0,4,0,,,,,,,,,,,,,,,,,,,,,,,,,,,,,,,,,,,,,,,,,,,,,,,,,,,,,,,,,,,,102,001,2023-03-01_11h03.32.844,eb_01,2022.2.4,60.00630329691549,
8,stimuli/8.png,l,1,0,1,0,5,0,5,0,0,0,0,0,,,,,,,,,,,,,,,,,,,955.650765492469,955.650765492469,955.650765492469,955.650765492469,l,1,0.6482421538830749,956.317429744332,956.317429744332,956.317429744332,957.3339934800324,957.3339934800324,957.3339934800324,,,,,,,,,,,,,,,,,,,,,,,,,102,001,2023-03-01_11h03.32.844,eb_01,2022.2.4,60.00630329691549,
,,,1,0,1,0,5,0,5,0,,,,,,,,,,,,,,,,,,,,,,,,,,,,,,,,,,,,,,,,,,,,,,,,,,,,,,,,,,,,102,001,2023-03-01_11h03.32.844,eb_01,2022.2.4,60.00630329691549,
6,stimuli/6.png,s,1,0,1,0,6,0,6,0,0,0,0,0,,,,,,,,,,,,,,,,,,,957.3339934800324,957.3339934800324,957.3339934800324,957.3339934800324,s,1,0.6450410309998915,958.0172824413648,958.0172824413648,958.0172824413648,,,,,,,,,,,,,,,,,,,,,,,,,,,,102,001,2023-03-01_11h03.32.844,eb_01,2022.2.4,60.00630329691549,
,,,1,0,1,0,6,0,6,0,,,,,,,,,,,,,,,,,,,,,,,,,,,,,,,,,,,,,,,,,,,,,,,,,,,,,,,,,,,,102,001,2023-03-01_11h03.32.844,eb_01,2022.2.4,60.00630329691549,
8,stimuli/8.png,l,1,0,1,0,7,0,7,0,0,0,0,0,,,,,,,,,,,,,,,,,,,959.0169078450899,959.0169078450899,959.0169078450899,959.0169078450899,l,1,0.5141985666950859,959.5505732137999,959.5505732137999,959.5505732137999,960.5671191403299,960.5671191403299,960.5671191403299,,,,,,,,,,,,,,,,,,,,,,,,,102,001,2023-03-01_11h03.32.844,eb_01,2022.2.4,60.00630329691549,
,,,1,0,1,0,7,0,7,0,,,,,,,,,,,,,,,,,,,,,,,,,,,,,,,,,,,,,,,,,,,,,,,,,,,,,,,,,,,,102,001,2023-03-01_11h03.32.844,eb_01,2022.2.4,60.00630329691549,
6,stimuli/6.png,s,1,0,1,0,8,0,8,0,0,0,0,0,,,,,,,,,,,,,,,,,,,960.5671191403299,960.5671191403299,960.5671191403299,960.5671191403299,s,1,0.5639902899574736,961.1671094811181,961.1671094811181,961.1671094811181,,,,,,,,,,,,,,,,,,,,,,,,,,,,102,001,2023-03-01_11h03.32.844,eb_01,2022.2.4,60.00630329691549,
,,,1,0,1,0,8,0,8,0,,,,,,,,,,,,,,,,,,,,,,,,,,,,,,,,,,,,,,,,,,,,,,,,,,,,,,,,,,,,102,001,2023-03-01_11h03.32.844,eb_01,2022.2.4,60.00630329691549,
5,stimuli/5.png,s,1,0,1,0,9,0,9,0,0,0,0,0,,,,,,,,,,,,,,,,,,,962.1667273385856,962.1667273385856,962.1667273385856,962.1667273385856,s,1,0.5644195211452825,962.7503468260429,962.7503468260429,962.7503468260429,963.7669519152396,963.7669519152396,963.7669519152396,,,,,,,,,,,,,,,,,,,,,,,,,102,001,2023-03-01_11h03.32.844,eb_01,2022.2.4,60.00630329691549,
,,,1,0,1,0,9,0,9,0,,,,,,,,,,,,,,,,,,,,,,,,,,,,,,,,,,,,,,,,,,,,,,,,,,,,,,,,,,,,102,001,2023-03-01_11h03.32.844,eb_01,2022.2.4,60.00630329691549,
9,stimuli/9.png,l,1,0,1,0,10,0,10,0,0,0,0,0,,,,,,,,,,,,,,,,,,,963.7669519152396,963.7669519152396,963.7669519152396,963.7669519152396,l,1,0.5082391353798812,964.3168978840285,964.3168978840285,964.3168978840285,,,,,,,,,,,,,,,,,,,,,,,,,,,,102,001,2023-03-01_11h03.32.844,eb_01,2022.2.4,60.00630329691549,
,,,1,0,1,0,10,0,10,0,,,,,,,,,,,,,,,,,,,,,,,,,,,,,,,,,,,,,,,,,,,,,,,,,,,,,,,,,,,,102,001,2023-03-01_11h03.32.844,eb_01,2022.2.4,60.00630329691549,
8,stimuli/8.png,l,1,0,1,0,11,0,11,0,0,0,0,0,,,,,,,,,,,,,,,,,,,965.3334987473199,965.3334987473199,965.3334987473199,965.3334987473199,l,1,0.5488090288281455,965.9001617917829,965.9001617917829,965.9001617917829,966.9001026291162,966.9001026291162,966.9001026291162,,,,,,,,,,,,,,,,,,,,,,,,,102,001,2023-03-01_11h03.32.844,eb_01,2022.2.4,60.00630329691549,
,,,1,0,1,0,11,0,11,0,,,,,,,,,,,,,,,,,,,,,,,,,,,,,,,,,,,,,,,,,,,,,,,,,,,,,,,,,,,,102,001,2023-03-01_11h03.32.844,eb_01,2022.2.4,60.00630329691549,
3,stimuli/3.png,l,1,0,1,0,12,0,12,0,0,0,0,0,,,,,,,,,,,,,,,,,,,966.9001026291162,966.9001026291162,966.9001026291162,966.9001026291162,l,1,0.5101833534363323,967.4333774034831,967.4333774034831,967.4333774034831,968.4330390292498,968.4330390292498,968.4330390292498,,,,,,,,,,,,,,,,,,,,,,,,,102,001,2023-03-01_11h03.32.844,eb_01,2022.2.4,60.00630329691549,
,,,1,0,1,0,12,0,12,0,,,,,,,,,,,,,,,,,,,,,,,,,,,,,,,,,,,,,,,,,,,,,,,,,,,,,,,,,,,,102,001,2023-03-01_11h03.32.844,eb_01,2022.2.4,60.00630329691549,
8,stimuli/8.png,l,1,0,1,0,13,0,13,0,0,0,0,0,,,,,,,,,,,,,,,,,,,968.4330390292498,968.4330390292498,968.4330390292498,968.4330390292498,l,1,0.5052592687961805,968.9666108243537,968.9666108243537,968.9666108243537,969.9832515318894,969.9832515318894,969.9832515318894,,,,,,,,,,,,,,,,,,,,,,,,,102,001,2023-03-01_11h03.32.844,eb_01,2022.2.4,60.00630329691549,
,,,1,0,1,0,13,0,13,0,,,,,,,,,,,,,,,,,,,,,,,,,,,,,,,,,,,,,,,,,,,,,,,,,,,,,,,,,,,,102,001,2023-03-01_11h03.32.844,eb_01,2022.2.4,60.00630329691549,
9,stimuli/9.png,l,1,0,1,0,14,0,14,0,0,0,0,0,,,,,,,,,,,,,,,,,,,969.9832515318894,969.9832515318894,969.9832515318894,969.9832515318894,l,1,0.4670709745541899,970.4998753358077,970.4998753358077,970.4998753358077,,,,,,,,,,,,,,,,,,,,,,,,,,,,102,001,2023-03-01_11h03.32.844,eb_01,2022.2.4,60.00630329691549,
,,,1,0,1,0,14,0,14,0,,,,,,,,,,,,,,,,,,,,,,,,,,,,,,,,,,,,,,,,,,,,,,,,,,,,,,,,,,,,102,001,2023-03-01_11h03.32.844,eb_01,2022.2.4,60.00630329691549,
6,stimuli/6.png,s,1,0,1,0,15,0,15,0,0,0,0,0,,,,,,,,,,,,,,,,,,,971.5164605028831,971.5164605028831,971.5164605028831,971.5164605028831,s,1,0.8619223132600382,972.4164378641062,972.4164378641062,972.4164378641062,,,,,,,,,,,,,,,,,,,,,,,,,,,,102,001,2023-03-01_11h03.32.844,eb_01,2022.2.4,60.00630329691549,
,,,1,0,1,0,15,0,15,0,,,,,,,,,,,,,,,,,,,,,,,,,,,,,,,,,,,,,,,,,,,,,,,,,,,,,,,,,,,,102,001,2023-03-01_11h03.32.844,eb_01,2022.2.4,60.00630329691549,
5,stimuli/5.png,s,1,0,1,0,16,0,16,0,0,0,0,0,,,,,,,,,,,,,,,,,,,973.4160816807025,973.4160816807025,973.4160816807025,973.4160816807025,s,1,0.5063592114465791,973.9496564943101,973.9496564943101,973.9496564943101,974.9662519242947,974.9662519242947,974.9662519242947,,,,,,,,,,,,,,,,,,,,,,,,,102,001,2023-03-01_11h03.32.844,eb_01,2022.2.4,60.00630329691549,
,,,1,0,1,0,16,0,16,0,,,,,,,,,,,,,,,,,,,,,,,,,,,,,,,,,,,,,,,,,,,,,,,,,,,,,,,,,,,,102,001,2023-03-01_11h03.32.844,eb_01,2022.2.4,60.00630329691549,
6,stimuli/6.png,s,1,0,1,0,17,0,17,0,0,0,0,0,,,,,,,,,,,,,,,,,,,974.9662519242947,974.9662519242947,974.9662519242947,974.9662519242947,s,1,0.45219488412021747,975.4662404539822,975.4662404539822,975.4662404539822,,,,,,,,,,,,,,,,,,,,,,,,,,,,102,001,2023-03-01_11h03.32.844,eb_01,2022.2.4,60.00630329691549,
,,,1,0,1,0,17,0,17,0,,,,,,,,,,,,,,,,,,,,,,,,,,,,,,,,,,,,,,,,,,,,,,,,,,,,,,,,,,,,102,001,2023-03-01_11h03.32.844,eb_01,2022.2.4,60.00630329691549,
8,stimuli/8.png,l,1,0,1,0,18,0,18,0,0,0,0,0,,,,,,,,,,,,,,,,,,,976.4828168673967,976.4828168673967,976.4828168673967,976.4828168673967,l,1,0.4236845155601259,976.932821998852,976.932821998852,976.932821998852,977.9327782305527,977.9327782305527,977.9327782305527,,,,,,,,,,,,,,,,,,,,,,,,,102,001,2023-03-01_11h03.32.844,eb_01,2022.2.4,60.00630329691549,
,,,1,0,1,0,18,0,18,0,,,,,,,,,,,,,,,,,,,,,,,,,,,,,,,,,,,,,,,,,,,,,,,,,,,,,,,,,,,,102,001,2023-03-01_11h03.32.844,eb_01,2022.2.4,60.00630329691549,
3,stimuli/3.png,l,1,0,1,0,19,0,19,0,0,0,0,0,,,,,,,,,,,,,,,,,,,977.9327782305527,977.9327782305527,977.9327782305527,977.9327782305527,l,1,0.5417686714363299,978.4993990159683,978.4993990159683,978.4993990159683,979.5159923330002,979.5159923330002,979.5159923330002,,,,,,,,,,,,,,,,,,,,,,,,,102,001,2023-03-01_11h03.32.844,eb_01,2022.2.4,60.00630329691549,
,,,1,0,1,0,19,0,19,0,,,,,,,,,,,,,,,,,,,,,,,,,,,,,,,,,,,,,,,,,,,,,,,,,,,,,,,,,,,,102,001,2023-03-01_11h03.32.844,eb_01,2022.2.4,60.00630329691549,
4,stimuli/4.png,l,1,0,1,0,20,0,20,0,0,0,0,0,,,,,,,,,,,,,,,,,,,979.5159923330002,979.5159923330002,979.5159923330002,979.5159923330002,l,1,0.6625676692938214,980.1992888405921,980.1992888405921,980.1992888405921,981.215902079749,981.215902079749,981.215902079749,,,,,,,,,,,,,,,,,,,,,,,,,102,001,2023-03-01_11h03.32.844,eb_01,2022.2.4,60.00630329691549,
,,,1,0,1,0,20,0,20,0,,,,,,,,,,,,,,,,,,,,,,,,,,,,,,,,,,,,,,,,,,,,,,,,,,,,,,,,,,,,102,001,2023-03-01_11h03.32.844,eb_01,2022.2.4,60.00630329691549,
1,stimuli/1.png,s,1,0,1,0,21,0,21,0,0,0,0,0,,,,,,,,,,,,,,,,,,,981.215902079749,981.215902079749,981.215902079749,981.215902079749,s,1,0.5707134026370113,981.8325479187415,981.8325479187415,981.8325479187415,,,,,,,,,,,,,,,,,,,,,,,,,,,,102,001,2023-03-01_11h03.32.844,eb_01,2022.2.4,60.00630329691549,
,,,1,0,1,0,21,0,21,0,,,,,,,,,,,,,,,,,,,,,,,,,,,,,,,,,,,,,,,,,,,,,,,,,,,,,,,,,,,,102,001,2023-03-01_11h03.32.844,eb_01,2022.2.4,60.00630329691549,
4,stimuli/4.png,l,1,0,1,0,22,0,22,0,0,0,0,0,,,,,,,,,,,,,,,,,,,982.8491312747128,982.8491312747128,982.8491312747128,982.8491312747128,l,1,0.6564953459501339,983.5324308008085,983.5324308008085,983.5324308008085,984.5323834103046,984.5323834103046,984.5323834103046,,,,,,,,,,,,,,,,,,,,,,,,,102,001,2023-03-01_11h03.32.844,eb_01,2022.2.4,60.00630329691549,
,,,1,0,1,0,22,0,22,0,,,,,,,,,,,,,,,,,,,,,,,,,,,,,,,,,,,,,,,,,,,,,,,,,,,,,,,,,,,,102,001,2023-03-01_11h03.32.844,eb_01,2022.2.4,60.00630329691549,
3,stimuli/3.png,l,1,0,1,0,23,0,23,0,0,0,0,0,,,,,,,,,,,,,,,,,,,984.5323834103046,984.5323834103046,984.5323834103046,984.5323834103046,l,1,0.4933102211352889,985.0489960457608,985.0489960457608,985.0489960457608,986.0656092849158,986.0656092849158,986.0656092849158,,,,,,,,,,,,,,,,,,,,,,,,,102,001,2023-03-01_11h03.32.844,eb_01,2022.2.4,60.00630329691549,
,,,1,0,1,0,23,0,23,0,,,,,,,,,,,,,,,,,,,,,,,,,,,,,,,,,,,,,,,,,,,,,,,,,,,,,,,,,,,,102,001,2023-03-01_11h03.32.844,eb_01,2022.2.4,60.00630329691549,
4,stimuli/4.png,l,1,0,1,0,24,0,24,0,0,0,0,0,,,,,,,,,,,,,,,,,,,986.0656092849158,986.0656092849158,986.0656092849158,986.0656092849158,s,0,0.48809424721639516,986.5823016088625,986.5823016088625,986.5823016088625,987.5821733224666,987.5821733224666,987.5821733224666,,,,,,,,,,,,,,,,,,,,,,,,,102,001,2023-03-01_11h03.32.844,eb_01,2022.2.4,60.00630329691549,
,,,1,0,1,0,24,0,24,0,,,,,,,,,,,,,,,,,,,,,,,,,,,,,,,,,,,,,,,,,,,,,,,,,,,,,,,,,,,,102,001,2023-03-01_11h03.32.844,eb_01,2022.2.4,60.00630329691549,
2,stimuli/2.png,s,1,0,1,0,25,0,25,0,0,0,0,0,,,,,,,,,,,,,,,,,,,987.5821733224666,987.5821733224666,987.5821733224666,987.5821733224666,s,1,0.7796013859760933,988.3821141597991,988.3821141597991,988.3821141597991,989.3987180415943,989.3987180415943,989.3987180415943,,,,,,,,,,,,,,,,,,,,,,,,,102,001,2023-03-01_11h03.32.844,eb_01,2022.2.4,60.00630329691549,
,,,1,0,1,0,25,0,25,0,,,,,,,,,,,,,,,,,,,,,,,,,,,,,,,,,,,,,,,,,,,,,,,,,,,,,,,,,,,,102,001,2023-03-01_11h03.32.844,eb_01,2022.2.4,60.00630329691549,
4,stimuli/4.png,l,1,0,1,0,26,0,26,0,0,0,0,0,,,,,,,,,,,,,,,,,,,989.3987180415943,989.3987180415943,989.3987180415943,989.3987180415943,l,1,0.66710598919326,990.0987026472276,990.0987026472276,990.0987026472276,991.0986172235798,991.0986172235798,991.0986172235798,,,,,,,,,,,,,,,,,,,,,,,,,102,001,2023-03-01_11h03.32.844,eb_01,2022.2.4,60.00630329691549,
,,,1,0,1,0,26,0,26,0,,,,,,,,,,,,,,,,,,,,,,,,,,,,,,,,,,,,,,,,,,,,,,,,,,,,,,,,,,,,102,001,2023-03-01_11h03.32.844,eb_01,2022.2.4,60.00630329691549,
2,stimuli/2.png,s,1,0,1,0,27,0,27,0,0,0,0,0,,,,,,,,,,,,,,,,,,,991.0986172235798,991.0986172235798,991.0986172235798,991.0986172235798,s,1,0.6071980535480179,991.7318630203144,991.7318630203144,991.7318630203144,992.7485785867366,992.7485785867366,992.7485785867366,,,,,,,,,,,,,,,,,,,,,,,,,102,001,2023-03-01_11h03.32.844,eb_01,2022.2.4,60.00630329691549,
,,,1,0,1,0,27,0,27,0,,,,,,,,,,,,,,,,,,,,,,,,,,,,,,,,,,,,,,,,,,,,,,,,,,,,,,,,,,,,102,001,2023-03-01_11h03.32.844,eb_01,2022.2.4,60.00630329691549,
4,stimuli/4.png,l,1,0,1,0,28,0,28,0,0,0,0,0,,,,,,,,,,,,,,,,,,,992.7485785867366,992.7485785867366,992.7485785867366,992.7485785867366,l,1,0.32528009647194267,993.098540553593,993.098540553593,993.098540553593,994.0984469799869,994.0984469799869,994.0984469799869,,,,,,,,,,,,,,,,,,,,,,,,,102,001,2023-03-01_11h03.32.844,eb_01,2022.2.4,60.00630329691549,
,,,1,0,1,0,28,0,28,0,,,,,,,,,,,,,,,,,,,,,,,,,,,,,,,,,,,,,,,,,,,,,,,,,,,,,,,,,,,,102,001,2023-03-01_11h03.32.844,eb_01,2022.2.4,60.00630329691549,
3,stimuli/3.png,l,1,0,1,0,29,0,29,0,0,0,0,0,,,,,,,,,,,,,,,,,,,994.0984469799869,994.0984469799869,994.0984469799869,994.0984469799869,l,1,0.4474531170881164,994.5650695765044,994.5650695765044,994.5650695765044,995.5816891545173,995.5816891545173,995.5816891545173,,,,,,,,,,,,,,,,,,,,,,,,,102,001,2023-03-01_11h03.32.844,eb_01,2022.2.4,60.00630329691549,
,,,1,0,1,0,29,0,29,0,,,,,,,,,,,,,,,,,,,,,,,,,,,,,,,,,,,,,,,,,,,,,,,,,,,,,,,,,,,,102,001,2023-03-01_11h03.32.844,eb_01,2022.2.4,60.00630329691549,
8,stimuli/8.png,l,1,0,1,0,30,0,30,0,0,0,0,0,,,,,,,,,,,,,,,,,,,995.5816891545173,995.5816891545173,995.5816891545173,995.5816891545173,l,1,0.6442218091715404,996.2483186935906,996.2483186935906,996.2483186935906,997.2482571161208,997.2482571161208,997.2482571161208,,,,,,,,,,,,,,,,,,,,,,,,,102,001,2023-03-01_11h03.32.844,eb_01,2022.2.4,60.00630329691549,
,,,1,0,1,0,30,0,30,0,,,,,,,,,,,,,,,,,,,,,,,,,,,,,,,,,,,,,,,,,,,,,,,,,,,,,,,,,,,,102,001,2023-03-01_11h03.32.844,eb_01,2022.2.4,60.00630329691549,
3,stimuli/3.png,l,1,0,1,0,31,0,31,0,0,0,0,0,,,,,,,,,,,,,,,,,,,997.2482571161208,997.2482571161208,997.2482571161208,997.2482571161208,l,1,0.5297438593379411,997.7982236107337,997.7982236107337,997.7982236107337,998.814796703794,998.814796703794,998.814796703794,,,,,,,,,,,,,,,,,,,,,,,,,102,001,2023-03-01_11h03.32.844,eb_01,2022.2.4,60.00630329691549,
,,,1,0,1,0,31,0,31,0,,,,,,,,,,,,,,,,,,,,,,,,,,,,,,,,,,,,,,,,,,,,,,,,,,,,,,,,,,,,102,001,2023-03-01_11h03.32.844,eb_01,2022.2.4,60.00630329691549,
4,stimuli/4.png,l,1,0,1,0,32,0,32,0,0,0,0,0,,,,,,,,,,,,,,,,,,,998.814796703794,998.814796703794,998.814796703794,998.814796703794,l,1,0.6182231373122704,999.4647375411269,999.4647375411269,999.4647375411269,1000.481411150352,1000.481411150352,1000.481411150352,,,,,,,,,,,,,,,,,,,,,,,,,102,001,2023-03-01_11h03.32.844,eb_01,2022.2.4,60.00630329691549,
,,,1,0,1,0,32,0,32,0,,,,,,,,,,,,,,,,,,,,,,,,,,,,,,,,,,,,,,,,,,,,,,,,,,,,,,,,,,,,102,001,2023-03-01_11h03.32.844,eb_01,2022.2.4,60.00630329691549,
1,stimuli/1.png,s,1,0,1,0,33,0,33,0,0,0,0,0,,,,,,,,,,,,,,,,,,,1000.481411150352,1000.481411150352,1000.481411150352,1000.481411150352,s,1,0.6876221532793352,1001.2147010172348,1001.2147010172348,1001.2147010172348,,,,,,,,,,,,,,,,,,,,,,,,,,,,102,001,2023-03-01_11h03.32.844,eb_01,2022.2.4,60.00630329691549,
,,,1,0,1,0,33,0,33,0,,,,,,,,,,,,,,,,,,,,,,,,,,,,,,,,,,,,,,,,,,,,,,,,,,,,,,,,,,,,102,001,2023-03-01_11h03.32.844,eb_01,2022.2.4,60.00630329691549,
4,stimuli/4.png,l,1,0,1,0,34,0,34,0,0,0,0,0,,,,,,,,,,,,,,,,,,,1002.23127803435,1002.23127803435,1002.23127803435,1002.23127803435,l,1,0.46580169386379566,1002.7145851067044,1002.7145851067044,1002.7145851067044,1003.7311862718461,1003.7311862718461,1003.7311862718461,,,,,,,,,,,,,,,,,,,,,,,,,102,001,2023-03-01_11h03.32.844,eb_01,2022.2.4,60.00630329691549,
,,,1,0,1,0,34,0,34,0,,,,,,,,,,,,,,,,,,,,,,,,,,,,,,,,,,,,,,,,,,,,,,,,,,,,,,,,,,,,102,001,2023-03-01_11h03.32.844,eb_01,2022.2.4,60.00630329691549,
1,stimuli/1.png,s,1,0,1,0,35,0,35,0,0,0,0,0,,,,,,,,,,,,,,,,,,,1003.7311862718461,1003.7311862718461,1003.7311862718461,1003.7311862718461,s,1,0.7019615538056314,1004.481168764526,1004.481168764526,1004.481168764526,,,,,,,,,,,,,,,,,,,,,,,,,,,,102,001,2023-03-01_11h03.32.844,eb_01,2022.2.4,60.00630329691549,
,,,1,0,1,0,35,0,35,0,,,,,,,,,,,,,,,,,,,,,,,,,,,,,,,,,,,,,,,,,,,,,,,,,,,,,,,,,,,,102,001,2023-03-01_11h03.32.844,eb_01,2022.2.4,60.00630329691549,
4,stimuli/4.png,l,1,0,1,0,36,0,36,0,0,0,0,0,,,,,,,,,,,,,,,,,,,1005.4977602704575,1005.4977602704575,1005.4977602704575,1005.4977602704575,l,1,0.30342100021243823,1005.8310682483616,1005.8310682483616,1005.8310682483616,1006.8477053336946,1006.8477053336946,1006.8477053336946,,,,,,,,,,,,,,,,,,,,,,,,,102,001,2023-03-01_11h03.32.844,eb_01,2022.2.4,60.00630329691549,
,,,1,0,1,0,36,0,36,0,,,,,,,,,,,,,,,,,,,,,,,,,,,,,,,,,,,,,,,,,,,,,,,,,,,,,,,,,,,,102,001,2023-03-01_11h03.32.844,eb_01,2022.2.4,60.00630329691549,
1,stimuli/1.png,s,1,0,1,0,37,0,37,0,0,0,0,0,,,,,,,,,,,,,,,,,,,1006.8477053336946,1006.8477053336946,1006.8477053336946,1006.8477053336946,s,1,0.4014988172302765,1007.2976446617768,1007.2976446617768,1007.2976446617768,,,,,,,,,,,,,,,,,,,,,,,,,,,,102,001,2023-03-01_11h03.32.844,eb_01,2022.2.4,60.00630329691549,
,,,1,0,1,0,37,0,37,0,,,,,,,,,,,,,,,,,,,,,,,,,,,,,,,,,,,,,,,,,,,,,,,,,,,,,,,,,,,,102,001,2023-03-01_11h03.32.844,eb_01,2022.2.4,60.00630329691549,
2,stimuli/2.png,s,1,0,1,0,38,0,38,0,0,0,0,0,,,,,,,,,,,,,,,,,,,1008.2976021008772,1008.2976021008772,1008.2976021008772,1008.2976021008772,s,1,0.5596693023026091,1008.8809037399251,1008.8809037399251,1008.8809037399251,1009.8808478976125,1009.8808478976125,1009.8808478976125,,,,,,,,,,,,,,,,,,,,,,,,,102,001,2023-03-01_11h03.32.844,eb_01,2022.2.4,60.00630329691549,
,,,1,0,1,0,38,0,38,0,,,,,,,,,,,,,,,,,,,,,,,,,,,,,,,,,,,,,,,,,,,,,,,,,,,,,,,,,,,,102,001,2023-03-01_11h03.32.844,eb_01,2022.2.4,60.00630329691549,
3,stimuli/3.png,l,1,0,1,0,39,0,39,0,0,0,0,0,,,,,,,,,,,,,,,,,,,1009.8808478976125,1009.8808478976125,1009.8808478976125,1009.8808478976125,l,1,0.4723938034958337,1010.3807727368776,1010.3807727368776,1010.3807727368776,1011.3804539829152,1011.3804539829152,1011.3804539829152,,,,,,,,,,,,,,,,,,,,,,,,,102,001,2023-03-01_11h03.32.844,eb_01,2022.2.4,60.00630329691549,
,,,1,0,1,0,39,0,39,0,,,,,,,,,,,,,,,,,,,,,,,,,,,,,,,,,,,,,,,,,,,,,,,,,,,,,,,,,,,,102,001,2023-03-01_11h03.32.844,eb_01,2022.2.4,60.00630329691549,
8,stimuli/8.png,l,1,0,1,0,40,0,40,0,0,0,0,0,,,,,,,,,,,,,,,,,,,1011.3804539829152,1011.3804539829152,1011.3804539829152,1011.3804539829152,l,1,0.4928046218110467,1011.8973874852845,1011.8973874852845,1011.8973874852845,1012.9140149114073,1012.9140149114073,1012.9140149114073,,,,,,,,,,,,,,,,,,,,,,,,,102,001,2023-03-01_11h03.32.844,eb_01,2022.2.4,60.00630329691549,
,,,1,0,1,0,40,0,40,0,,,,,,,,,,,,,,,,,,,,,,,,,,,,,,,,,,,,,,,,,,,,,,,,,,,,,,,,,,,,102,001,2023-03-01_11h03.32.844,eb_01,2022.2.4,60.00630329691549,
6,stimuli/6.png,s,1,0,1,0,41,0,41,0,0,0,0,0,,,,,,,,,,,,,,,,,,,1012.9140149114073,1012.9140149114073,1012.9140149114073,1012.9140149114073,s,1,0.5663646447510473,1013.5139328081141,1013.5139328081141,1013.5139328081141,,,,,,,,,,,,,,,,,,,,,,,,,,,,102,001,2023-03-01_11h03.32.844,eb_01,2022.2.4,60.00630329691549,
,,,1,0,1,0,41,0,41,0,,,,,,,,,,,,,,,,,,,,,,,,,,,,,,,,,,,,,,,,,,,,,,,,,,,,,,,,,,,,102,001,2023-03-01_11h03.32.844,eb_01,2022.2.4,60.00630329691549,
5,stimuli/5.png,s,1,0,1,0,42,0,42,0,0,0,0,0,,,,,,,,,,,,,,,,,,,1014.5135886987237,1014.5135886987237,1014.5135886987237,1014.5135886987237,s,1,0.5027741349267671,1015.0471958103162,1015.0471958103162,1015.0471958103162,1016.0638012013633,1016.0638012013633,1016.0638012013633,,,,,,,,,,,,,,,,,,,,,,,,,102,001,2023-03-01_11h03.32.844,eb_01,2022.2.4,60.00630329691549,
,,,1,0,1,0,42,0,42,0,,,,,,,,,,,,,,,,,,,,,,,,,,,,,,,,,,,,,,,,,,,,,,,,,,,,,,,,,,,,102,001,2023-03-01_11h03.32.844,eb_01,2022.2.4,60.00630329691549,
9,stimuli/9.png,l,1,0,1,0,43,0,43,0,0,0,0,0,,,,,,,,,,,,,,,,,,,1016.0638012013633,1016.0638012013633,1016.0638012013633,1016.0638012013633,l,1,0.5926020802316998,1016.6970702405752,1016.6970702405752,1016.6970702405752,,,,,,,,,,,,,,,,,,,,,,,,,,,,102,001,2023-03-01_11h03.32.844,eb_01,2022.2.4,60.00630329691549,
,,,1,0,1,0,43,0,43,0,,,,,,,,,,,,,,,,,,,,,,,,,,,,,,,,,,,,,,,,,,,,,,,,,,,,,,,,,,,,102,001,2023-03-01_11h03.32.844,eb_01,2022.2.4,60.00630329691549,
5,stimuli/5.png,s,1,0,1,0,44,0,44,0,0,0,0,0,,,,,,,,,,,,,,,,,,,1017.6966989646526,1017.6966989646526,1017.6966989646526,1017.6966989646526,s,1,0.6317351660482018,1018.3470083612547,1018.3470083612547,1018.3470083612547,1019.363613148601,1019.363613148601,1019.363613148601,,,,,,,,,,,,,,,,,,,,,,,,,102,001,2023-03-01_11h03.32.844,eb_01,2022.2.4,60.00630329691549,
,,,1,0,1,0,44,0,44,0,,,,,,,,,,,,,,,,,,,,,,,,,,,,,,,,,,,,,,,,,,,,,,,,,,,,,,,,,,,,102,001,2023-03-01_11h03.32.844,eb_01,2022.2.4,60.00630329691549,
9,stimuli/9.png,l,1,0,1,0,45,0,45,0,0,0,0,0,,,,,,,,,,,,,,,,,,,1019.363613148601,1019.363613148601,1019.363613148601,1019.363613148601,l,1,0.43685877376356075,1019.8468957710766,1019.8468957710766,1019.8468957710766,,,,,,,,,,,,,,,,,,,,,,,,,,,,102,001,2023-03-01_11h03.32.844,eb_01,2022.2.4,60.00630329691549,
,,,1,0,1,0,45,0,45,0,,,,,,,,,,,,,,,,,,,,,,,,,,,,,,,,,,,,,,,,,,,,,,,,,,,,,,,,,,,,102,001,2023-03-01_11h03.32.844,eb_01,2022.2.4,60.00630329691549,
8,stimuli/8.png,l,1,0,1,0,46,0,46,0,0,0,0,0,,,,,,,,,,,,,,,,,,,1020.8465121192903,1020.8465121192903,1020.8465121192903,1020.8465121192903,l,1,0.5619950591944871,1021.4301460955658,1021.4301460955658,1021.4301460955658,1022.4467433366526,1022.4467433366526,1022.4467433366526,,,,,,,,,,,,,,,,,,,,,,,,,102,001,2023-03-01_11h03.32.844,eb_01,2022.2.4,60.00630329691549,
,,,1,0,1,0,46,0,46,0,,,,,,,,,,,,,,,,,,,,,,,,,,,,,,,,,,,,,,,,,,,,,,,,,,,,,,,,,,,,102,001,2023-03-01_11h03.32.844,eb_01,2022.2.4,60.00630329691549,
9,stimuli/9.png,l,1,0,1,0,47,0,47,0,0,0,0,0,,,,,,,,,,,,,,,,,,,1022.4467433366526,1022.4467433366526,1022.4467433366526,1022.4467433366526,l,1,0.521815156388584,1023.0133840441913,1023.0133840441913,1023.0133840441913,,,,,,,,,,,,,,,,,,,,,,,,,,,,102,001,2023-03-01_11h03.32.844,eb_01,2022.2.4,60.00630329691549,
,,,1,0,1,0,47,0,47,0,,,,,,,,,,,,,,,,,,,,,,,,,,,,,,,,,,,,,,,,,,,,,,,,,,,,,,,,,,,,102,001,2023-03-01_11h03.32.844,eb_01,2022.2.4,60.00630329691549,
5,stimuli/5.png,s,1,0,1,0,48,0,48,0,0,0,0,0,,,,,,,,,,,,,,,,,,,1024.0130290681873,1024.0130290681873,1024.0130290681873,1024.0130290681873,s,1,0.803564982826174,1024.846586374476,1024.846586374476,1024.846586374476,1025.863238552326,1025.863238552326,1025.863238552326,,,,,,,,,,,,,,,,,,,,,,,,,102,001,2023-03-01_11h03.32.844,eb_01,2022.2.4,60.00630329691549,
,,,1,0,1,0,48,0,48,0,,,,,,,,,,,,,,,,,,,,,,,,,,,,,,,,,,,,,,,,,,,,,,,,,,,,,,,,,,,,102,001,2023-03-01_11h03.32.844,eb_01,2022.2.4,60.00630329691549,
9,stimuli/9.png,l,1,0,1,0,49,0,49,0,0,0,0,0,,,,,,,,,,,,,,,,,,,1025.863238552326,1025.863238552326,1025.863238552326,1025.863238552326,l,1,0.44939099628845725,1026.346478010203,1026.346478010203,1026.346478010203,,,,,,,,,,,,,,,,,,,,,,,,,,,,102,001,2023-03-01_11h03.32.844,eb_01,2022.2.4,60.00630329691549,
,,,1,0,1,0,49,0,49,0,,,,,,,,,,,,,,,,,,,,,,,,,,,,,,,,,,,,,,,,,,,,,,,,,,,,,,,,,,,,102,001,2023-03-01_11h03.32.844,eb_01,2022.2.4,60.00630329691549,
5,stimuli/5.png,s,1,0,1,0,50,0,50,0,0,0,0,0,,,,,,,,,,,,,,,,,,,1027.3461658969472,1027.3461658969472,1027.3461658969472,1027.3461658969472,s,1,0.670501805546337,1028.046429714147,1028.046429714147,1028.046429714147,1029.0630031090577,1029.0630031090577,1029.0630031090577,,,,,,,,,,,,,,,,,,,,,,,,,102,001,2023-03-01_11h03.32.844,eb_01,2022.2.4,60.00630329691549,
,,,1,0,1,0,50,0,50,0,,,,,,,,,,,,,,,,,,,,,,,,,,,,,,,,,,,,,,,,,,,,,,,,,,,,,,,,,,,,102,001,2023-03-01_11h03.32.844,eb_01,2022.2.4,60.00630329691549,
6,stimuli/6.png,s,1,0,1,0,51,0,51,0,0,0,0,0,,,,,,,,,,,,,,,,,,,1029.0630031090577,1029.0630031090577,1029.0630031090577,1029.0630031090577,s,1,0.6327007852951283,1029.7296244981726,1029.7296244981726,1029.7296244981726,,,,,,,,,,,,,,,,,,,,,,,,,,,,102,001,2023-03-01_11h03.32.844,eb_01,2022.2.4,60.00630329691549,
,,,1,0,1,0,51,0,51,0,,,,,,,,,,,,,,,,,,,,,,,,,,,,,,,,,,,,,,,,,,,,,,,,,,,,,,,,,,,,102,001,2023-03-01_11h03.32.844,eb_01,2022.2.4,60.00630329691549,
8,stimuli/8.png,l,1,0,1,0,52,0,52,0,0,0,0,0,,,,,,,,,,,,,,,,,,,1030.7462344169753,1030.7462344169753,1030.7462344169753,1030.7462344169753,l,1,0.5015256819106071,1031.2795454133839,1031.2795454133839,1031.2795454133839,1032.2961550303362,1032.2961550303362,1032.2961550303362,,,,,,,,,,,,,,,,,,,,,,,,,102,001,2023-03-01_11h03.32.844,eb_01,2022.2.4,60.00630329691549,
,,,1,0,1,0,52,0,52,0,,,,,,,,,,,,,,,,,,,,,,,,,,,,,,,,,,,,,,,,,,,,,,,,,,,,,,,,,,,,102,001,2023-03-01_11h03.32.844,eb_01,2022.2.4,60.00630329691549,
9,stimuli/9.png,l,1,0,1,0,53,0,53,0,0,0,0,0,,,,,,,,,,,,,,,,,,,1032.2961550303362,1032.2961550303362,1032.2961550303362,1032.2961550303362,l,1,0.543643463913213,1032.8794331250565,1032.8794331250565,1032.8794331250565,,,,,,,,,,,,,,,,,,,,,,,,,,,,102,001,2023-03-01_11h03.32.844,eb_01,2022.2.4,60.00630329691549,
,,,1,0,1,0,53,0,53,0,,,,,,,,,,,,,,,,,,,,,,,,,,,,,,,,,,,,,,,,,,,,,,,,,,,,,,,,,,,,102,001,2023-03-01_11h03.32.844,eb_01,2022.2.4,60.00630329691549,
5,stimuli/5.png,s,1,0,1,0,54,0,54,0,0,0,0,0,,,,,,,,,,,,,,,,,,,1033.8791059192854,1033.8791059192854,1033.8791059192854,1033.8791059192854,s,1,0.5287344717917222,1034.4293709438853,1034.4293709438853,1034.4293709438853,1035.4459721090288,1035.4459721090288,1035.4459721090288,,,,,,,,,,,,,,,,,,,,,,,,,102,001,2023-03-01_11h03.32.844,eb_01,2022.2.4,60.00630329691549,
,,,1,0,1,0,54,0,54,0,,,,,,,,,,,,,,,,,,,,,,,,,,,,,,,,,,,,,,,,,,,,,,,,,,,,,,,,,,,,102,001,2023-03-01_11h03.32.844,eb_01,2022.2.4,60.00630329691549,
9,stimuli/9.png,l,1,0,1,0,55,0,55,0,0,0,0,0,,,,,,,,,,,,,,,,,,,1035.4459721090288,1035.4459721090288,1035.4459721090288,1035.4459721090288,l,1,0.5698775790397121,1036.0625756889722,1036.0625756889722,1036.0625756889722,,,,,,,,,,,,,,,,,,,,,,,,,,,,102,001,2023-03-01_11h03.32.844,eb_01,2022.2.4,60.00630329691549,
,,,1,0,1,0,55,0,55,0,,,,,,,,,,,,,,,,,,,,,,,,,,,,,,,,,,,,,,,,,,,,,,,,,,,,,,,,,,,,102,001,2023-03-01_11h03.32.844,eb_01,2022.2.4,60.00630329691549,
8,stimuli/8.png,l,1,0,1,0,56,0,56,0,0,0,0,0,,,,,,,,,,,,,,,,,,,1037.0622173926158,1037.0622173926158,1037.0622173926158,1037.0622173926158,l,1,0.5536866285137876,1037.6458715928648,1037.6458715928648,1037.6458715928648,1038.6624314045084,1038.6624314045084,1038.6624314045084,,,,,,,,,,,,,,,,,,,,,,,,,102,001,2023-03-01_11h03.32.844,eb_01,2022.2.4,60.00630329691549,
,,,1,0,1,0,56,0,56,0,,,,,,,,,,,,,,,,,,,,,,,,,,,,,,,,,,,,,,,,,,,,,,,,,,,,,,,,,,,,102,001,2023-03-01_11h03.32.844,eb_01,2022.2.4,60.00630329691549,
9,stimuli/9.png,l,1,0,1,0,57,0,57,0,0,0,0,0,,,,,,,,,,,,,,,,,,,1038.6624314045084,1038.6624314045084,1038.6624314045084,1038.6624314045084,l,1,0.5535133664170644,1039.2623846177057,1039.2623846177057,1039.2623846177057,,,,,,,,,,,,,,,,,,,,,,,,,,,,102,001,2023-03-01_11h03.32.844,eb_01,2022.2.4,60.00630329691549,
,,,1,0,1,0,57,0,57,0,,,,,,,,,,,,,,,,,,,,,,,,,,,,,,,,,,,,,,,,,,,,,,,,,,,,,,,,,,,,102,001,2023-03-01_11h03.32.844,eb_01,2022.2.4,60.00630329691549,
8,stimuli/8.png,l,1,0,1,0,58,0,58,0,0,0,0,0,,,,,,,,,,,,,,,,,,,1040.2620344713096,1040.2620344713096,1040.2620344713096,1040.2620344713096,l,1,0.5619398205790276,1040.8456566754203,1040.8456566754203,1040.8456566754203,1041.8622345980866,1041.8622345980866,1041.8622345980866,,,,,,,,,,,,,,,,,,,,,,,,,102,001,2023-03-01_11h03.32.844,eb_01,2022.2.4,60.00630329691549,
,,,1,0,1,0,58,0,58,0,,,,,,,,,,,,,,,,,,,,,,,,,,,,,,,,,,,,,,,,,,,,,,,,,,,,,,,,,,,,102,001,2023-03-01_11h03.32.844,eb_01,2022.2.4,60.00630329691549,
9,stimuli/9.png,l,1,0,1,0,59,0,59,0,0,0,0,0,,,,,,,,,,,,,,,,,,,1041.8622345980866,1041.8622345980866,1041.8622345980866,1041.8622345980866,l,1,0.5217789343487311,1042.4288731926708,1042.4288731926708,1042.4288731926708,,,,,,,,,,,,,,,,,,,,,,,,,,,,102,001,2023-03-01_11h03.32.844,eb_01,2022.2.4,60.00630329691549,
,,,1,0,1,0,59,0,59,0,,,,,,,,,,,,,,,,,,,,,,,,,,,,,,,,,,,,,,,,,,,,,,,,,,,,,,,,,,,,102,001,2023-03-01_11h03.32.844,eb_01,2022.2.4,60.00630329691549,
5,stimuli/5.png,s,1,0,1,0,60,0,60,0,0,0,0,0,,,,,,,,,,,,,,,,,,,1043.445500920644,1043.445500920644,1043.445500920644,1043.445500920644,s,1,0.5945239613620288,1044.0621132542483,1044.0621132542483,1044.0621132542483,1045.0787077786836,1045.0787077786836,1045.0787077786836,,,,,,,,,,,,,,,,,,,,,,,,,102,001,2023-03-01_11h03.32.844,eb_01,2022.2.4,60.00630329691549,
,,,1,0,1,0,60,0,60,0,,,,,,,,,,,,,,,,,,,,,,,,,,,,,,,,,,,,,,,,,,,,,,,,,,,,,,,,,,,,102,001,2023-03-01_11h03.32.844,eb_01,2022.2.4,60.00630329691549,
9,stimuli/9.png,l,1,0,1,0,61,0,61,0,0,0,0,0,,,,,,,,,,,,,,,,,,,1045.0787077786836,1045.0787077786836,1045.0787077786836,1045.0787077786836,l,1,0.40842477333990246,1045.5287168341938,1045.5287168341938,1045.5287168341938,,,,,,,,,,,,,,,,,,,,,,,,,,,,102,001,2023-03-01_11h03.32.844,eb_01,2022.2.4,60.00630329691549,
,,,1,0,1,0,61,0,61,0,,,,,,,,,,,,,,,,,,,,,,,,,,,,,,,,,,,,,,,,,,,,,,,,,,,,,,,,,,,,102,001,2023-03-01_11h03.32.844,eb_01,2022.2.4,60.00630329691549,
8,stimuli/8.png,l,1,0,1,0,62,0,62,0,0,0,0,0,,,,,,,,,,,,,,,,,,,1046.5283355972106,1046.5283355972106,1046.5283355972106,1046.5283355972106,l,1,0.462801603308435,1047.0119185607773,1047.0119185607773,1047.0119185607773,1048.0118959220008,1048.0118959220008,1048.0118959220008,,,,,,,,,,,,,,,,,,,,,,,,,102,001,2023-03-01_11h03.32.844,eb_01,2022.2.4,60.00630329691549,
,,,1,0,1,0,62,0,62,0,,,,,,,,,,,,,,,,,,,,,,,,,,,,,,,,,,,,,,,,,,,,,,,,,,,,,,,,,,,,102,001,2023-03-01_11h03.32.844,eb_01,2022.2.4,60.00630329691549,
3,stimuli/3.png,l,1,0,1,0,63,0,63,0,0,0,0,0,,,,,,,,,,,,,,,,,,,1048.0118959220008,1048.0118959220008,1048.0118959220008,1048.0118959220008,l,1,0.5312648832141349,1048.5618467203958,1048.5618467203958,1048.5618467203958,1049.561733526517,1049.561733526517,1049.561733526517,,,,,,,,,,,,,,,,,,,,,,,,,102,001,2023-03-01_11h03.32.844,eb_01,2022.2.4,60.00630329691549,
,,,1,0,1,0,63,0,63,0,,,,,,,,,,,,,,,,,,,,,,,,,,,,,,,,,,,,,,,,,,,,,,,,,,,,,,,,,,,,102,001,2023-03-01_11h03.32.844,eb_01,2022.2.4,60.00630329691549,
2,stimuli/2.png,s,1,0,1,0,64,0,64,0,0,0,0,0,,,,,,,,,,,,,,,,,,,1049.561733526517,1049.561733526517,1049.561733526517,1049.561733526517,s,1,0.5574648892516052,1050.1450683691028,1050.1450683691028,1050.1450683691028,1051.1450387877694,1051.1450387877694,1051.1450387877694,,,,,,,,,,,,,,,,,,,,,,,,,102,001,2023-03-01_11h03.32.844,eb_01,2022.2.4,60.00630329691549,
,,,1,0,1,0,64,0,64,0,,,,,,,,,,,,,,,,,,,,,,,,,,,,,,,,,,,,,,,,,,,,,,,,,,,,,,,,,,,,102,001,2023-03-01_11h03.32.844,eb_01,2022.2.4,60.00630329691549,
3,stimuli/3.png,l,1,0,1,0,65,0,65,0,0,0,0,0,,,,,,,,,,,,,,,,,,,1051.1450387877694,1051.1450387877694,1051.1450387877694,1051.1450387877694,l,1,0.4301586017072623,1051.595010111986,1051.595010111986,1051.595010111986,1052.6115826013456,1052.6115826013456,1052.6115826013456,,,,,,,,,,,,,,,,,,,,,,,,,102,001,2023-03-01_11h03.32.844,eb_01,2022.2.4,60.00630329691549,
,,,1,0,1,0,65,0,65,0,,,,,,,,,,,,,,,,,,,,,,,,,,,,,,,,,,,,,,,,,,,,,,,,,,,,,,,,,,,,102,001,2023-03-01_11h03.32.844,eb_01,2022.2.4,60.00630329691549,
8,stimuli/8.png,l,1,0,1,0,66,0,66,0,0,0,0,0,,,,,,,,,,,,,,,,,,,1052.6115826013456,1052.6115826013456,1052.6115826013456,1052.6115826013456,l,1,0.4837328116163917,1053.1282275347885,1053.1282275347885,1053.1282275347885,1054.1448296054814,1054.1448296054814,1054.1448296054814,,,,,,,,,,,,,,,,,,,,,,,,,102,001,2023-03-01_11h03.32.844,eb_01,2022.2.4,60.00630329691549,
,,,1,0,1,0,66,0,66,0,,,,,,,,,,,,,,,,,,,,,,,,,,,,,,,,,,,,,,,,,,,,,,,,,,,,,,,,,,,,102,001,2023-03-01_11h03.32.844,eb_01,2022.2.4,60.00630329691549,
9,stimuli/9.png,l,1,0,1,0,67,0,67,0,0,0,0,0,,,,,,,,,,,,,,,,,,,1054.1448296054814,1054.1448296054814,1054.1448296054814,1054.1448296054814,l,1,0.5024535698639738,1054.6947967037931,1054.6947967037931,1054.6947967037931,,,,,,,,,,,,,,,,,,,,,,,,,,,,102,001,2023-03-01_11h03.32.844,eb_01,2022.2.4,60.00630329691549,
,,,1,0,1,0,67,0,67,0,,,,,,,,,,,,,,,,,,,,,,,,,,,,,,,,,,,,,,,,,,,,,,,,,,,,,,,,,,,,102,001,2023-03-01_11h03.32.844,eb_01,2022.2.4,60.00630329691549,
5,stimuli/5.png,s,1,0,1,0,68,0,68,0,0,0,0,0,,,,,,,,,,,,,,,,,,,1055.6944193908648,1055.6944193908648,1055.6944193908648,1055.6944193908648,s,1,0.6408975313470364,1056.3613655709496,1056.3613655709496,1056.3613655709496,1057.3779990340781,1057.3779990340781,1057.3779990340781,,,,,,,,,,,,,,,,,,,,,,,,,102,001,2023-03-01_11h03.32.844,eb_01,2022.2.4,60.00630329691549,
,,,1,0,1,0,68,0,68,0,,,,,,,,,,,,,,,,,,,,,,,,,,,,,,,,,,,,,,,,,,,,,,,,,,,,,,,,,,,,102,001,2023-03-01_11h03.32.844,eb_01,2022.2.4,60.00630329691549,
9,stimuli/9.png,l,1,0,1,0,69,0,69,0,0,0,0,0,,,,,,,,,,,,,,,,,,,1057.3779990340781,1057.3779990340781,1057.3779990340781,1057.3779990340781,l,1,0.3813801900460021,1057.794610160282,1057.794610160282,1057.794610160282,,,,,,,,,,,,,,,,,,,,,,,,,,,,102,001,2023-03-01_11h03.32.844,eb_01,2022.2.4,60.00630329691549,
,,,1,0,1,0,69,0,69,0,,,,,,,,,,,,,,,,,,,,,,,,,,,,,,,,,,,,,,,,,,,,,,,,,,,,,,,,,,,,102,001,2023-03-01_11h03.32.844,eb_01,2022.2.4,60.00630329691549,
8,stimuli/8.png,l,1,0,1,0,70,0,70,0,0,0,0,0,,,,,,,,,,,,,,,,,,,1058.8112149476283,1058.8112149476283,1058.8112149476283,1058.8112149476283,l,1,0.4201803349342299,1059.2611941199548,1059.2611941199548,1059.2611941199548,1060.2611328443354,1060.2611328443354,1060.2611328443354,,,,,,,,,,,,,,,,,,,,,,,,,102,001,2023-03-01_11h03.32.844,eb_01,2022.2.4,60.00630329691549,
,,,1,0,1,0,70,0,70,0,,,,,,,,,,,,,,,,,,,,,,,,,,,,,,,,,,,,,,,,,,,,,,,,,,,,,,,,,,,,102,001,2023-03-01_11h03.32.844,eb_01,2022.2.4,60.00630329691549,
3,stimuli/3.png,l,1,0,1,0,71,0,71,0,0,0,0,0,,,,,,,,,,,,,,,,,,,1060.2611328443354,1060.2611328443354,1060.2611328443354,1060.2611328443354,l,1,0.4253054519003854,1060.7111195629195,1060.7111195629195,1060.7111195629195,1061.711044704035,1061.711044704035,1061.711044704035,,,,,,,,,,,,,,,,,,,,,,,,,102,001,2023-03-01_11h03.32.844,eb_01,2022.2.4,60.00630329691549,
,,,1,0,1,0,71,0,71,0,,,,,,,,,,,,,,,,,,,,,,,,,,,,,,,,,,,,,,,,,,,,,,,,,,,,,,,,,,,,102,001,2023-03-01_11h03.32.844,eb_01,2022.2.4,60.00630329691549,
2,stimuli/2.png,s,1,0,1,0,72,0,72,0,0,0,0,0,,,,,,,,,,,,,,,,,,,1061.711044704035,1061.711044704035,1061.711044704035,1061.711044704035,s,1,0.43943174608375557,1062.177683600471,1062.177683600471,1062.177683600471,1063.194320685804,1063.194320685804,1063.194320685804,,,,,,,,,,,,,,,,,,,,,,,,,102,001,2023-03-01_11h03.32.844,eb_01,2022.2.4,60.00630329691549,
,,,1,0,1,0,72,0,72,0,,,,,,,,,,,,,,,,,,,,,,,,,,,,,,,,,,,,,,,,,,,,,,,,,,,,,,,,,,,,102,001,2023-03-01_11h03.32.844,eb_01,2022.2.4,60.00630329691549,
4,stimuli/4.png,l,1,0,1,0,73,0,73,0,0,0,0,0,,,,,,,,,,,,,,,,,,,1063.194320685804,1063.194320685804,1063.194320685804,1063.194320685804,l,1,0.500159507258104,1063.7276362099665,1063.7276362099665,1063.7276362099665,1064.727555012224,1064.727555012224,1064.727555012224,,,,,,,,,,,,,,,,,,,,,,,,,102,001,2023-03-01_11h03.32.844,eb_01,2022.2.4,60.00630329691549,
,,,1,0,1,0,73,0,73,0,,,,,,,,,,,,,,,,,,,,,,,,,,,,,,,,,,,,,,,,,,,,,,,,,,,,,,,,,,,,102,001,2023-03-01_11h03.32.844,eb_01,2022.2.4,60.00630329691549,
3,stimuli/3.png,l,1,0,1,0,74,0,74,0,0,0,0,0,,,,,,,,,,,,,,,,,,,1064.727555012224,1064.727555012224,1064.727555012224,1064.727555012224,l,1,0.5509467329529798,1065.3108270699386,1065.3108270699386,1065.3108270699386,1066.3107793775844,1066.3107793775844,1066.3107793775844,,,,,,,,,,,,,,,,,,,,,,,,,102,001,2023-03-01_11h03.32.844,eb_01,2022.2.4,60.00630329691549,
,,,1,0,1,0,74,0,74,0,,,,,,,,,,,,,,,,,,,,,,,,,,,,,,,,,,,,,,,,,,,,,,,,,,,,,,,,,,,,102,001,2023-03-01_11h03.32.844,eb_01,2022.2.4,60.00630329691549,
2,stimuli/2.png,s,1,0,1,0,75,0,75,0,0,0,0,0,,,,,,,,,,,,,,,,,,,1066.3107793775844,1066.3107793775844,1066.3107793775844,1066.3107793775844,s,1,0.4798132849164176,1066.8107748498287,1066.8107748498287,1066.8107748498287,1067.827389296387,1067.827389296387,1067.827389296387,,,,,,,,,,,,,,,,,,,,,,,,,102,001,2023-03-01_11h03.32.844,eb_01,2022.2.4,60.00630329691549,
,,,1,0,1,0,75,0,75,0,,,,,,,,,,,,,,,,,,,,,,,,,,,,,,,,,,,,,,,,,,,,,,,,,,,,,,,,,,,,102,001,2023-03-01_11h03.32.844,eb_01,2022.2.4,60.00630329691549,
1,stimuli/1.png,s,1,0,1,0,76,0,76,0,0,0,0,0,,,,,,,,,,,,,,,,,,,1067.827389296387,1067.827389296387,1067.827389296387,1067.827389296387,s,1,0.8432193641810954,1068.71063509312,1068.71063509312,1068.71063509312,,,,,,,,,,,,,,,,,,,,,,,,,,,,102,001,2023-03-01_11h03.32.844,eb_01,2022.2.4,60.00630329691549,
,,,1,0,1,0,76,0,76,0,,,,,,,,,,,,,,,,,,,,,,,,,,,,,,,,,,,,,,,,,,,,,,,,,,,,,,,,,,,,102,001,2023-03-01_11h03.32.844,eb_01,2022.2.4,60.00630329691549,
2,stimuli/2.png,s,1,0,1,0,77,0,77,0,0,0,0,0,,,,,,,,,,,,,,,,,,,1069.7105463491198,1069.7105463491198,1069.7105463491198,1069.7105463491198,s,1,0.5920964809074576,1070.3272190527941,1070.3272190527941,1070.3272190527941,1071.3268332880552,1071.3268332880552,1071.3268332880552,,,,,,,,,,,,,,,,,,,,,,,,,102,001,2023-03-01_11h03.32.844,eb_01,2022.2.4,60.00630329691549,
,,,1,0,1,0,77,0,77,0,,,,,,,,,,,,,,,,,,,,,,,,,,,,,,,,,,,,,,,,,,,,,,,,,,,,,,,,,,,,102,001,2023-03-01_11h03.32.844,eb_01,2022.2.4,60.00630329691549,
3,stimuli/3.png,l,1,0,1,0,78,0,78,0,0,0,0,0,,,,,,,,,,,,,,,,,,,1071.3268332880552,1071.3268332880552,1071.3268332880552,1071.3268332880552,l,1,0.4398754660878694,1071.7938150864802,1071.7938150864802,1071.7938150864802,1072.810402064656,1072.810402064656,1072.810402064656,,,,,,,,,,,,,,,,,,,,,,,,,102,001,2023-03-01_11h03.32.844,eb_01,2022.2.4,60.00630329691549,
,,,1,0,1,0,78,0,78,0,,,,,,,,,,,,,,,,,,,,,,,,,,,,,,,,,,,,,,,,,,,,,,,,,,,,,,,,,,,,102,001,2023-03-01_11h03.32.844,eb_01,2022.2.4,60.00630329691549,
8,stimuli/8.png,l,1,0,1,0,79,0,79,0,0,0,0,0,,,,,,,,,,,,,,,,,,,1072.810402064656,1072.810402064656,1072.810402064656,1072.810402064656,l,1,0.4923150205568163,1073.3270726553774,1073.3270726553774,1073.3270726553774,1074.3269661022068,1074.3269661022068,1074.3269661022068,,,,,,,,,,,,,,,,,,,,,,,,,102,001,2023-03-01_11h03.32.844,eb_01,2022.2.4,60.00630329691549,
,,,1,0,1,0,79,0,79,0,,,,,,,,,,,,,,,,,,,,,,,,,,,,,,,,,,,,,,,,,,,,,,,,,,,,,,,,,,,,102,001,2023-03-01_11h03.32.844,eb_01,2022.2.4,60.00630329691549,
3,stimuli/3.png,l,1,0,1,0,80,0,80,0,0,0,0,0,,,,,,,,,,,,,,,,,,,1074.3269661022068,1074.3269661022068,1074.3269661022068,1074.3269661022068,l,1,0.5669094846207372,1074.9102777023154,1074.9102777023154,1074.9102777023154,1075.9268809804098,1075.9268809804098,1075.9268809804098,,,,,,,,,,,,,,,,,,,,,,,,,102,001,2023-03-01_11h03.32.844,eb_01,2022.2.4,60.00630329691549,
,,,1,0,1,0,80,0,80,0,,,,,,,,,,,,,,,,,,,,,,,,,,,,,,,,,,,,,,,,,,,,,,,,,,,,,,,,,,,,102,001,2023-03-01_11h03.32.844,eb_01,2022.2.4,60.00630329691549,
8,stimuli/8.png,l,1,0,1,0,81,0,81,0,0,0,0,0,,,,,,,,,,,,,,,,,,,1075.9268809804098,1075.9268809804098,1075.9268809804098,1075.9268809804098,l,1,0.518901998732872,1076.4768420417158,1076.4768420417158,1076.4768420417158,1077.4934755048444,1077.4934755048444,1077.4934755048444,,,,,,,,,,,,,,,,,,,,,,,,,102,001,2023-03-01_11h03.32.844,eb_01,2022.2.4,60.00630329691549,
,,,1,0,1,0,81,0,81,0,,,,,,,,,,,,,,,,,,,,,,,,,,,,,,,,,,,,,,,,,,,,,,,,,,,,,,,,,,,,102,001,2023-03-01_11h03.32.844,eb_01,2022.2.4,60.00630329691549,
9,stimuli/9.png,l,1,0,1,0,82,0,82,0,0,0,0,0,,,,,,,,,,,,,,,,,,,1077.4934755048444,1077.4934755048444,1077.4934755048444,1077.4934755048444,l,1,0.6483345200877011,1078.1767388088983,1078.1767388088983,1078.1767388088983,,,,,,,,,,,,,,,,,,,,,,,,,,,,102,001,2023-03-01_11h03.32.844,eb_01,2022.2.4,60.00630329691549,
,,,1,0,1,0,82,0,82,0,,,,,,,,,,,,,,,,,,,,,,,,,,,,,,,,,,,,,,,,,,,,,,,,,,,,,,,,,,,,102,001,2023-03-01_11h03.32.844,eb_01,2022.2.4,60.00630329691549,
5,stimuli/5.png,s,1,0,1,0,83,0,83,0,0,0,0,0,,,,,,,,,,,,,,,,,,,1079.1763506293582,1079.1763506293582,1079.1763506293582,1079.1763506293582,s,1,0.6775385407336216,1079.8766488574956,1079.8766488574956,1079.8766488574956,1080.8932288931146,1080.8932288931146,1080.8932288931146,,,,,,,,,,,,,,,,,,,,,,,,,102,001,2023-03-01_11h03.32.844,eb_01,2022.2.4,60.00630329691549,
,,,1,0,1,0,83,0,83,0,,,,,,,,,,,,,,,,,,,,,,,,,,,,,,,,,,,,,,,,,,,,,,,,,,,,,,,,,,,,102,001,2023-03-01_11h03.32.844,eb_01,2022.2.4,60.00630329691549,
6,stimuli/6.png,s,1,0,1,0,84,0,84,0,0,0,0,0,,,,,,,,,,,,,,,,,,,1080.8932288931146,1080.8932288931146,1080.8932288931146,1080.8932288931146,s,1,0.8966960764291798,1081.8265356636175,1081.8265356636175,1081.8265356636175,,,,,,,,,,,,,,,,,,,,,,,,,,,,102,001,2023-03-01_11h03.32.844,eb_01,2022.2.4,60.00630329691549,
,,,1,0,1,0,84,0,84,0,,,,,,,,,,,,,,,,,,,,,,,,,,,,,,,,,,,,,,,,,,,,,,,,,,,,,,,,,,,,102,001,2023-03-01_11h03.32.844,eb_01,2022.2.4,60.00630329691549,
9,stimuli/9.png,l,1,0,1,0,85,0,85,0,0,0,0,0,,,,,,,,,,,,,,,,,,,1082.8431132844335,1082.8431132844335,1082.8431132844335,1082.8431132844335,l,1,0.5388645692901264,1083.4264481270175,1083.4264481270175,1083.4264481270175,,,,,,,,,,,,,,,,,,,,,,,,,,,,102,001,2023-03-01_11h03.32.844,eb_01,2022.2.4,60.00630329691549,
,,,1,0,1,0,85,0,85,0,,,,,,,,,,,,,,,,,,,,,,,,,,,,,,,,,,,,,,,,,,,,,,,,,,,,,,,,,,,,102,001,2023-03-01_11h03.32.844,eb_01,2022.2.4,60.00630329691549,
8,stimuli/8.png,l,1,0,1,0,86,0,86,0,0,0,0,0,,,,,,,,,,,,,,,,,,,1084.426059645627,1084.426059645627,1084.426059645627,1084.426059645627,l,1,0.4599518342247393,1084.9096613239153,1084.9096613239153,1084.9096613239153,1085.926270337167,1085.926270337167,1085.926270337167,,,,,,,,,,,,,,,,,,,,,,,,,102,001,2023-03-01_11h03.32.844,eb_01,2022.2.4,60.00630329691549,
,,,1,0,1,0,86,0,86,0,,,,,,,,,,,,,,,,,,,,,,,,,,,,,,,,,,,,,,,,,,,,,,,,,,,,,,,,,,,,102,001,2023-03-01_11h03.32.844,eb_01,2022.2.4,60.00630329691549,
9,stimuli/9.png,l,1,0,1,0,87,0,87,0,0,0,0,0,,,,,,,,,,,,,,,,,,,1085.926270337167,1085.926270337167,1085.926270337167,1085.926270337167,l,1,0.5037608836964864,1086.4762697334654,1086.4762697334654,1086.4762697334654,,,,,,,,,,,,,,,,,,,,,,,,,,,,102,001,2023-03-01_11h03.32.844,eb_01,2022.2.4,60.00630329691549,
,,,1,0,1,0,87,0,87,0,,,,,,,,,,,,,,,,,,,,,,,,,,,,,,,,,,,,,,,,,,,,,,,,,,,,,,,,,,,,102,001,2023-03-01_11h03.32.844,eb_01,2022.2.4,60.00630329691549,
8,stimuli/8.png,l,1,0,1,0,88,0,88,0,0,0,0,0,,,,,,,,,,,,,,,,,,,1087.4758999667965,1087.4758999667965,1087.4758999667965,1087.4758999667965,l,1,0.4901564887559289,1087.9928053970843,1087.9928053970843,1087.9928053970843,1089.009406562226,1089.009406562226,1089.009406562226,,,,,,,,,,,,,,,,,,,,,,,,,102,001,2023-03-01_11h03.32.844,eb_01,2022.2.4,60.00630329691549,
,,,1,0,1,0,88,0,88,0,,,,,,,,,,,,,,,,,,,,,,,,,,,,,,,,,,,,,,,,,,,,,,,,,,,,,,,,,,,,102,001,2023-03-01_11h03.32.844,eb_01,2022.2.4,60.00630329691549,
6,stimuli/6.png,s,1,0,1,0,89,0,89,0,0,0,0,0,,,,,,,,,,,,,,,,,,,1089.009406562226,1089.009406562226,1089.009406562226,1089.009406562226,s,1,0.46868225168236677,1089.5260469679133,1089.5260469679133,1089.5260469679133,,,,,,,,,,,,,,,,,,,,,,,,,,,,102,001,2023-03-01_11h03.32.844,eb_01,2022.2.4,60.00630329691549,
,,,1,0,1,0,89,0,89,0,,,,,,,,,,,,,,,,,,,,,,,,,,,,,,,,,,,,,,,,,,,,,,,,,,,,,,,,,,,,102,001,2023-03-01_11h03.32.844,eb_01,2022.2.4,60.00630329691549,
9,stimuli/9.png,l,1,0,1,0,90,0,90,0,0,0,0,0,,,,,,,,,,,,,,,,,,,1090.542683751396,1090.542683751396,1090.542683751396,1090.542683751396,l,1,0.6074636818493673,1091.1926345497895,1091.1926345497895,1091.1926345497895,,,,,,,,,,,,,,,,,,,,,,,,,,,,102,001,2023-03-01_11h03.32.844,eb_01,2022.2.4,60.00630329691549,
,,,1,0,1,0,90,0,90,0,,,,,,,,,,,,,,,,,,,,,,,,,,,,,,,,,,,,,,,,,,,,,,,,,,,,,,,,,,,,102,001,2023-03-01_11h03.32.844,eb_01,2022.2.4,60.00630329691549,
6,stimuli/6.png,s,1,0,1,0,91,0,91,0,0,0,0,0,,,,,,,,,,,,,,,,,,,1092.2092160946604,1092.2092160946604,1092.2092160946604,1092.2092160946604,s,1,0.4760081594968142,1092.7258785354215,1092.7258785354215,1092.7258785354215,,,,,,,,,,,,,,,,,,,,,,,,,,,,102,001,2023-03-01_11h03.32.844,eb_01,2022.2.4,60.00630329691549,
,,,1,0,1,0,91,0,91,0,,,,,,,,,,,,,,,,,,,,,,,,,,,,,,,,,,,,,,,,,,,,,,,,,,,,,,,,,,,,102,001,2023-03-01_11h03.32.844,eb_01,2022.2.4,60.00630329691549,
8,stimuli/8.png,l,1,0,1,0,92,0,92,0,0,0,0,0,,,,,,,,,,,,,,,,,,,1093.7424950949307,1093.7424950949307,1093.7424950949307,1093.7424950949307,l,1,0.44670362268789177,1094.2091173895978,1094.2091173895978,1094.2091173895978,1095.225723686196,1095.225723686196,1095.225723686196,,,,,,,,,,,,,,,,,,,,,,,,,102,001,2023-03-01_11h03.32.844,eb_01,2022.2.4,60.00630329691549,
,,,1,0,1,0,92,0,92,0,,,,,,,,,,,,,,,,,,,,,,,,,,,,,,,,,,,,,,,,,,,,,,,,,,,,,,,,,,,,102,001,2023-03-01_11h03.32.844,eb_01,2022.2.4,60.00630329691549,
9,stimuli/9.png,l,1,0,1,0,93,0,93,0,0,0,0,0,,,,,,,,,,,,,,,,,,,1095.225723686196,1095.225723686196,1095.225723686196,1095.225723686196,l,1,0.45152809671253635,1095.7256732771884,1095.7256732771884,1095.7256732771884,,,,,,,,,,,,,,,,,,,,,,,,,,,,102,001,2023-03-01_11h03.32.844,eb_01,2022.2.4,60.00630329691549,
,,,1,0,1,0,93,0,93,0,,,,,,,,,,,,,,,,,,,,,,,,,,,,,,,,,,,,,,,,,,,,,,,,,,,,,,,,,,,,102,001,2023-03-01_11h03.32.844,eb_01,2022.2.4,60.00630329691549,
5,stimuli/5.png,s,1,0,1,0,94,0,94,0,0,0,0,0,,,,,,,,,,,,,,,,,,,1096.725354523228,1096.725354523228,1096.725354523228,1096.725354523228,s,1,0.5039250902837011,1097.2589220924265,1097.2589220924265,1097.2589220924265,1098.2755664221668,1098.2755664221668,1098.2755664221668,,,,,,,,,,,,,,,,,,,,,,,,,102,001,2023-03-01_11h03.32.844,eb_01,2022.2.4,60.00630329691549,
,,,1,0,1,0,94,0,94,0,,,,,,,,,,,,,,,,,,,,,,,,,,,,,,,,,,,,,,,,,,,,,,,,,,,,,,,,,,,,102,001,2023-03-01_11h03.32.844,eb_01,2022.2.4,60.00630329691549,
9,stimuli/9.png,l,1,0,1,0,95,0,95,0,0,0,0,0,,,,,,,,,,,,,,,,,,,1098.2755664221668,1098.2755664221668,1098.2755664221668,1098.2755664221668,l,1,0.4337802021191237,1098.7588568927522,1098.7588568927522,1098.7588568927522,,,,,,,,,,,,,,,,,,,,,,,,,,,,102,001,2023-03-01_11h03.32.844,eb_01,2022.2.4,60.00630329691549,
,,,1,0,1,0,95,0,95,0,,,,,,,,,,,,,,,,,,,,,,,,,,,,,,,,,,,,,,,,,,,,,,,,,,,,,,,,,,,,102,001,2023-03-01_11h03.32.844,eb_01,2022.2.4,60.00630329691549,
5,stimuli/5.png,s,1,0,1,0,96,0,96,0,0,0,0,0,,,,,,,,,,,,,,,,,,,1099.7584847112803,1099.7584847112803,1099.7584847112803,1099.7584847112803,s,1,0.5028453716086005,1100.2921084246436,1100.2921084246436,1100.2921084246436,1101.3086718584918,1101.3086718584918,1101.3086718584918,,,,,,,,,,,,,,,,,,,,,,,,,102,001,2023-03-01_11h03.32.844,eb_01,2022.2.4,60.00630329691549,
,,,1,0,1,0,96,0,96,0,,,,,,,,,,,,,,,,,,,,,,,,,,,,,,,,,,,,,,,,,,,,,,,,,,,,,,,,,,,,102,001,2023-03-01_11h03.32.844,eb_01,2022.2.4,60.00630329691549,
9,stimuli/9.png,l,1,0,1,0,97,0,97,0,0,0,0,0,,,,,,,,,,,,,,,,,,,1101.3086718584918,1101.3086718584918,1101.3086718584918,1101.3086718584918,l,1,0.4007004230743405,1101.758657973377,1101.758657973377,1101.758657973377,,,,,,,,,,,,,,,,,,,,,,,,,,,,102,001,2023-03-01_11h03.32.844,eb_01,2022.2.4,60.00630329691549,
,,,1,0,1,0,97,0,97,0,,,,,,,,,,,,,,,,,,,,,,,,,,,,,,,,,,,,,,,,,,,,,,,,,,,,,,,,,,,,102,001,2023-03-01_11h03.32.844,eb_01,2022.2.4,60.00630329691549,
8,stimuli/8.png,l,1,0,1,0,98,0,98,0,0,0,0,0,,,,,,,,,,,,,,,,,,,1102.7583032992234,1102.7583032992234,1102.7583032992234,1102.7583032992234,l,1,0.43114353937653505,1103.2085782848853,1103.2085782848853,1103.2085782848853,1104.225177940777,1104.225177940777,1104.225177940777,,,,,,,,,,,,,,,,,,,,,,,,,102,001,2023-03-01_11h03.32.844,eb_01,2022.2.4,60.00630329691549,
,,,1,0,1,0,98,0,98,0,,,,,,,,,,,,,,,,,,,,,,,,,,,,,,,,,,,,,,,,,,,,,,,,,,,,,,,,,,,,102,001,2023-03-01_11h03.32.844,eb_01,2022.2.4,60.00630329691549,
9,stimuli/9.png,l,1,0,1,0,99,0,99,0,0,0,0,0,,,,,,,,,,,,,,,,,,,1104.225177940777,1104.225177940777,1104.225177940777,1104.225177940777,l,1,0.5562789192545097,1104.8251423224365,1104.8251423224365,1104.8251423224365,,,,,,,,,,,,,,,,,,,,,,,,,,,,102,001,2023-03-01_11h03.32.844,eb_01,2022.2.4,60.00630329691549,
,,,1,0,1,0,99,0,99,0,,,,,,,,,,,,,,,,,,,,,,,,,,,,,,,,,,,,,,,,,,,,,,,,,,,,,,,,,,,,102,001,2023-03-01_11h03.32.844,eb_01,2022.2.4,60.00630329691549,
,,,1,0,1,0,,,,,,,,,,,,,,,,,,,,,,,,,,,,,,,,,,,,,,,,1105.8250882912243,1105.8250882912243,return,10.931699849556935,,,,,,,,,,,,,,,,,,,,,102,001,2023-03-01_11h03.32.844,eb_01,2022.2.4,60.00630329691549,
8,stimuli/8.png,l,2,0,2,0,0,0,0,0,0,0,0,0,,,,,,,,,,,,,,,,,,,1116.7911195629213,1116.7911195629213,1116.7911195629213,1116.7911195629213,l,1,0.9257256275768668,1117.7410610039542,1117.7410610039542,1117.7410610039542,1118.7576654894501,1118.7576654894501,1118.7576654894501,,,,,,,,,,,,,,,,,,,,,,,,,102,001,2023-03-01_11h03.32.844,eb_01,2022.2.4,60.00630329691549,
,,,2,0,2,0,0,0,0,0,,,,,,,,,,,,,,,,,,,,,,,,,,,,,,,,,,,,,,,,,,,,,,,,,,,,,,,,,,,,102,001,2023-03-01_11h03.32.844,eb_01,2022.2.4,60.00630329691549,
6,stimuli/6.png,s,2,0,2,0,1,0,1,0,0,0,0,0,,,,,,,,,,,,,,,,,,,1118.7576654894501,1118.7576654894501,1118.7576654894501,1118.7576654894501,s,1,0.5031321294327427,1119.307592441667,1119.307592441667,1119.307592441667,,,,,,,,,,,,,,,,,,,,,,,,,,,,102,001,2023-03-01_11h03.32.844,eb_01,2022.2.4,60.00630329691549,
,,,2,0,2,0,1,0,1,0,,,,,,,,,,,,,,,,,,,,,,,,,,,,,,,,,,,,,,,,,,,,,,,,,,,,,,,,,,,,102,001,2023-03-01_11h03.32.844,eb_01,2022.2.4,60.00630329691549,
