index,stimulus,correct_answer,block.thisRepN,block.thisTrialN,block.thisN,block.thisIndex,trial.thisRepN,trial.thisTrialN,trial.thisN,trial.thisIndex,display_row.thisRepN,display_row.thisTrialN,display_row.thisN,display_row.thisIndex,pair_questions.thisRepN,pair_questions.thisTrialN,pair_questions.thisN,pair_questions.thisIndex,welcome_text.started,instructions_0_keypress.started,instructions_0_keypress.keys,instructions_0_keypress.rt,instructions_1_keypress.started,instructions_1_text.started,instructions_1_keypress.keys,instructions_1_keypress.rt,instructions_2_keypress.started,instructions_2_text.started,instructions_2_keypress.keys,instructions_2_keypress.rt,text_countdown.started,image.started,size_question.started,size_resp.started,keypress_options.started,size_resp.keys,size_resp.corr,size_resp.rt,fb_image.started,fb.started,fb_size_question.started,fb_image.stopped,fb.stopped,fb_size_question.stopped,block_break_text.started,block_break_keypress.started,block_break_keypress.keys,block_break_keypress.rt,seq_reveal.started,seq_reveal_adv.started,seq_reveal_adv.keys,seq_reveal_adv.rt,instruction_2afc_text.started,instruction_2afc_keypress.started,instruction_2afc_keypress.keys,instruction_2afc_keypress.rt,dist_2afc_test.started,dist_2afc_resp.started,text.started,stim_00.started,stim_01.started,stim_10.started,stim_11.started,dist_2afc_resp.keys,dist_2afc_resp.rt,graph.started,debrief_text.started,debriefing_title.started,participant,session,date,expName,psychopyVersion,frameRate,
,,,,,,,,,,,,,,,,,,,26.974846664841607,26.974846664841607,return,50.64217137106607,,,,,,,,,,,,,,,,,,,,,,,,,,,,,,,,,,,,,,,,,,,,,,,103,001,2023-03-01_12h13.05.836,eb_01,2022.2.4,120.00438310615382,
,,,,,,,,,,,,,,,,,,,,,,,77.62962695764872,77.62962695764872,return,10.61182068414928,,,,,,,,,,,,,,,,,,,,,,,,,,,,,,,,,,,,,,,,,,,103,001,2023-03-01_12h13.05.836,eb_01,2022.2.4,120.00438310615382,
,,,,,,,,,,,,,,,,,,,,,,,,,,,88.25569986606752,88.25569986606752,space,7.457033599588613,,,,,,,,,,,,,,,,,,,,,,,,,,,,,,,,,,,,,,,103,001,2023-03-01_12h13.05.836,eb_01,2022.2.4,120.00438310615382,
5,stimuli/5.png,s,0,0,0,0,0,0,0,0,0,0,0,0,,,,,,,,,,,,,,,,,95.73146885105598,100.75697324441535,100.75697324441535,100.75697324441535,100.75697324441535,s,1,1.2120167092525662,101.99042906073737,101.99042906073737,101.99042906073737,,,,,,,,,,,,,,,,,,,,,,,,,,,,103,001,2023-03-01_12h13.05.836,eb_01,2022.2.4,120.00438310615382,
,,,0,0,0,0,0,0,0,0,,,,,,,,,,,,,,,,,,,,,,,,,,,,,,,,,,,,,,,,,,,,,,,,,,,,,,,,,,,103,001,2023-03-01_12h13.05.836,eb_01,2022.2.4,120.00438310615382,
6,stimuli/6.png,s,0,0,0,0,1,0,1,0,0,0,0,0,,,,,,,,,,,,,,,,,,103.02387376876868,103.02387376876868,103.02387376876868,103.02387376876868,s,1,0.8331950271985988,103.88229649415734,103.88229649415734,103.88229649415734,,,,,,,,,,,,,,,,,,,,,,,,,,,,103,001,2023-03-01_12h13.05.836,eb_01,2022.2.4,120.00438310615382,
,,,0,0,0,0,1,0,1,0,,,,,,,,,,,,,,,,,,,,,,,,,,,,,,,,,,,,,,,,,,,,,,,,,,,,,,,,,,,103,001,2023-03-01_12h13.05.836,eb_01,2022.2.4,120.00438310615382,
9,stimuli/9.png,l,0,0,0,0,2,0,2,0,0,0,0,0,,,,,,,,,,,,,,,,,,104.89073366334196,104.89073366334196,104.89073366334196,104.89073366334196,l,1,0.5983859916905203,105.51578479015552,105.51578479015552,105.51578479015552,,,,,,,,,,,,,,,,,,,,,,,,,,,,103,001,2023-03-01_12h13.05.836,eb_01,2022.2.4,120.00438310615382,
,,,0,0,0,0,2,0,2,0,,,,,,,,,,,,,,,,,,,,,,,,,,,,,,,,,,,,,,,,,,,,,,,,,,,,,,,,,,,103,001,2023-03-01_12h13.05.836,eb_01,2022.2.4,120.00438310615382,
6,stimuli/6.png,s,0,0,0,0,3,0,3,0,0,0,0,0,,,,,,,,,,,,,,,,,,106.53256555325243,106.53256555325243,106.53256555325243,106.53256555325243,s,1,0.6766076751337096,107.24097624969,107.24097624969,107.24097624969,,,,,,,,,,,,,,,,,,,,,,,,,,,,103,001,2023-03-01_12h13.05.836,eb_01,2022.2.4,120.00438310615382,
,,,0,0,0,0,3,0,3,0,,,,,,,,,,,,,,,,,,,,,,,,,,,,,,,,,,,,,,,,,,,,,,,,,,,,,,,,,,,103,001,2023-03-01_12h13.05.836,eb_01,2022.2.4,120.00438310615382,
8,stimuli/8.png,l,0,0,0,0,4,0,4,0,0,0,0,0,,,,,,,,,,,,,,,,,,108.26608189164654,108.26608189164654,108.26608189164654,108.26608189164654,l,1,0.782228198424491,109.06616164192565,109.06616164192565,109.06616164192565,,,,,,,,,,,,,,,,,,,,,,,,,,,,103,001,2023-03-01_12h13.05.836,eb_01,2022.2.4,120.00438310615382,
,,,0,0,0,0,4,0,4,0,,,,,,,,,,,,,,,,,,,,,,,,,,,,,,,,,,,,,,,,,,,,,,,,,,,,,,,,,,,103,001,2023-03-01_12h13.05.836,eb_01,2022.2.4,120.00438310615382,
3,stimuli/3.png,l,0,0,0,0,5,0,5,0,0,0,0,0,,,,,,,,,,,,,,,,,,110.08293244378547,110.08293244378547,110.08293244378547,110.08293244378547,l,1,0.7094027896600892,110.80799591649702,110.80799591649702,110.80799591649702,111.83310970855564,111.83310970855564,111.83310970855564,,,,,,,,,,,,,,,,,,,,,,,,,103,001,2023-03-01_12h13.05.836,eb_01,2022.2.4,120.00438310615382,
,,,0,0,0,0,5,0,5,0,,,,,,,,,,,,,,,,,,,,,,,,,,,,,,,,,,,,,,,,,,,,,,,,,,,,,,,,,,,103,001,2023-03-01_12h13.05.836,eb_01,2022.2.4,120.00438310615382,
4,stimuli/4.png,l,0,0,0,0,6,0,6,0,0,0,0,0,,,,,,,,,,,,,,,,,,111.83310970855564,111.83310970855564,111.83310970855564,111.83310970855564,l,1,1.3913256468094914,113.24157392401321,113.24157392401321,113.24157392401321,,,,,,,,,,,,,,,,,,,,,,,,,,,,103,001,2023-03-01_12h13.05.836,eb_01,2022.2.4,120.00438310615382,
,,,0,0,0,0,6,0,6,0,,,,,,,,,,,,,,,,,,,,,,,,,,,,,,,,,,,,,,,,,,,,,,,,,,,,,,,,,,,103,001,2023-03-01_12h13.05.836,eb_01,2022.2.4,120.00438310615382,
3,stimuli/3.png,l,0,0,0,0,7,0,7,0,0,0,0,0,,,,,,,,,,,,,,,,,,114.25002558227243,114.25002558227243,114.25002558227243,114.25002558227243,l,1,0.5744889800334931,114.84174580065883,114.84174580065883,114.84174580065883,,,,,,,,,,,,,,,,,,,,,,,,,,,,103,001,2023-03-01_12h13.05.836,eb_01,2022.2.4,120.00438310615382,
,,,0,0,0,0,7,0,7,0,,,,,,,,,,,,,,,,,,,,,,,,,,,,,,,,,,,,,,,,,,,,,,,,,,,,,,,,,,,103,001,2023-03-01_12h13.05.836,eb_01,2022.2.4,120.00438310615382,
4,stimuli/4.png,l,0,0,0,0,8,0,8,0,0,0,0,0,,,,,,,,,,,,,,,,,,115.8585335064381,115.8585335064381,115.8585335064381,115.8585335064381,l,1,0.5340478601592622,116.41691164773692,116.41691164773692,116.41691164773692,,,,,,,,,,,,,,,,,,,,,,,,,,,,103,001,2023-03-01_12h13.05.836,eb_01,2022.2.4,120.00438310615382,
,,,0,0,0,0,8,0,8,0,,,,,,,,,,,,,,,,,,,,,,,,,,,,,,,,,,,,,,,,,,,,,,,,,,,,,,,,,,,103,001,2023-03-01_12h13.05.836,eb_01,2022.2.4,120.00438310615382,
2,stimuli/2.png,s,0,0,0,0,9,0,9,0,0,0,0,0,,,,,,,,,,,,,,,,,,117.44201517670263,117.44201517670263,117.44201517670263,117.44201517670263,l,0,3.054721505528505,120.51733330999014,120.51733330999014,120.51733330999014,,,,,,,,,,,,,,,,,,,,,,,,,,,,103,001,2023-03-01_12h13.05.836,eb_01,2022.2.4,120.00438310615382,
,,,0,0,0,0,9,0,9,0,,,,,,,,,,,,,,,,,,,,,,,,,,,,,,,,,,,,,,,,,,,,,,,,,,,,,,,,,,,103,001,2023-03-01_12h13.05.836,eb_01,2022.2.4,120.00438310615382,
4,stimuli/4.png,l,0,0,0,0,10,0,10,0,0,0,0,0,,,,,,,,,,,,,,,,,,121.53409837659092,121.53409837659092,121.53409837659092,121.53409837659092,l,1,0.8267286739974224,122.38418928043939,122.38418928043939,122.38418928043939,,,,,,,,,,,,,,,,,,,,,,,,,,,,103,001,2023-03-01_12h13.05.836,eb_01,2022.2.4,120.00438310615382,
,,,0,0,0,0,10,0,10,0,,,,,,,,,,,,,,,,,,,,,,,,,,,,,,,,,,,,,,,,,,,,,,,,,,,,,,,,,,,103,001,2023-03-01_12h13.05.836,eb_01,2022.2.4,120.00438310615382,
2,stimuli/2.png,s,0,0,0,0,11,0,11,0,0,0,0,0,,,,,,,,,,,,,,,,,,123.39262735519151,123.39262735519151,123.39262735519151,123.39262735519151,s,1,0.735257335651113,124.14270591314198,124.14270591314198,124.14270591314198,125.1594703760311,125.1594703760311,125.1594703760311,,,,,,,,,,,,,,,,,,,,,,,,,103,001,2023-03-01_12h13.05.836,eb_01,2022.2.4,120.00438310615382,
,,,0,0,0,0,11,0,11,0,,,,,,,,,,,,,,,,,,,,,,,,,,,,,,,,,,,,,,,,,,,,,,,,,,,,,,,,,,,103,001,2023-03-01_12h13.05.836,eb_01,2022.2.4,120.00438310615382,
4,stimuli/4.png,l,0,0,0,0,12,0,12,0,0,0,0,0,,,,,,,,,,,,,,,,,,125.1594703760311,125.1594703760311,125.1594703760311,125.1594703760311,l,1,1.8405210654836992,127.01800690102573,127.01800690102573,127.01800690102573,,,,,,,,,,,,,,,,,,,,,,,,,,,,103,001,2023-03-01_12h13.05.836,eb_01,2022.2.4,120.00438310615382,
,,,0,0,0,0,12,0,12,0,,,,,,,,,,,,,,,,,,,,,,,,,,,,,,,,,,,,,,,,,,,,,,,,,,,,,,,,,,,103,001,2023-03-01_12h13.05.836,eb_01,2022.2.4,120.00438310615382,
3,stimuli/3.png,l,0,0,0,0,13,0,13,0,0,0,0,0,,,,,,,,,,,,,,,,,,128.02643410897144,128.02643410897144,128.02643410897144,128.02643410897144,l,1,0.6296350012253242,128.6681917423757,128.6681917423757,128.6681917423757,129.68494050876689,129.68494050876689,129.68494050876689,,,,,,,,,,,,,,,,,,,,,,,,,103,001,2023-03-01_12h13.05.836,eb_01,2022.2.4,120.00438310615382,
,,,0,0,0,0,13,0,13,0,,,,,,,,,,,,,,,,,,,,,,,,,,,,,,,,,,,,,,,,,,,,,,,,,,,,,,,,,,,103,001,2023-03-01_12h13.05.836,eb_01,2022.2.4,120.00438310615382,
4,stimuli/4.png,l,0,0,0,0,14,0,14,0,0,0,0,0,,,,,,,,,,,,,,,,,,129.68494050876689,129.68494050876689,129.68494050876689,129.68494050876689,l,1,0.9472231378131255,130.65170649602624,130.65170649602624,130.65170649602624,,,,,,,,,,,,,,,,,,,,,,,,,,,,103,001,2023-03-01_12h13.05.836,eb_01,2022.2.4,120.00438310615382,
,,,0,0,0,0,14,0,14,0,,,,,,,,,,,,,,,,,,,,,,,,,,,,,,,,,,,,,,,,,,,,,,,,,,,,,,,,,,,103,001,2023-03-01_12h13.05.836,eb_01,2022.2.4,120.00438310615382,
3,stimuli/3.png,l,0,0,0,0,15,0,15,0,0,0,0,0,,,,,,,,,,,,,,,,,,131.6601439670667,131.6601439670667,131.6601439670667,131.6601439670667,l,1,0.6280822554108454,132.30187715015563,132.30187715015563,132.30187715015563,133.31031794161026,133.31031794161026,133.31031794161026,,,,,,,,,,,,,,,,,,,,,,,,,103,001,2023-03-01_12h13.05.836,eb_01,2022.2.4,120.00438310615382,
,,,0,0,0,0,15,0,15,0,,,,,,,,,,,,,,,,,,,,,,,,,,,,,,,,,,,,,,,,,,,,,,,,,,,,,,,,,,,103,001,2023-03-01_12h13.05.836,eb_01,2022.2.4,120.00438310615382,
8,stimuli/8.png,l,0,0,0,0,16,0,16,0,0,0,0,0,,,,,,,,,,,,,,,,,,133.31031794161026,133.31031794161026,133.31031794161026,133.31031794161026,l,1,0.5779784321366606,133.91038990401285,133.91038990401285,133.91038990401285,,,,,,,,,,,,,,,,,,,,,,,,,,,,103,001,2023-03-01_12h13.05.836,eb_01,2022.2.4,120.00438310615382,
,,,0,0,0,0,16,0,16,0,,,,,,,,,,,,,,,,,,,,,,,,,,,,,,,,,,,,,,,,,,,,,,,,,,,,,,,,,,,103,001,2023-03-01_12h13.05.836,eb_01,2022.2.4,120.00438310615382,
3,stimuli/3.png,l,0,0,0,0,17,0,17,0,0,0,0,0,,,,,,,,,,,,,,,,,,134.91881137670134,134.91881137670134,134.91881137670134,134.91881137670134,l,1,0.5135500457454327,135.4521705086372,135.4521705086372,135.4521705086372,,,,,,,,,,,,,,,,,,,,,,,,,,,,103,001,2023-03-01_12h13.05.836,eb_01,2022.2.4,120.00438310615382,
,,,0,0,0,0,17,0,17,0,,,,,,,,,,,,,,,,,,,,,,,,,,,,,,,,,,,,,,,,,,,,,,,,,,,,,,,,,,,103,001,2023-03-01_12h13.05.836,eb_01,2022.2.4,120.00438310615382,
8,stimuli/8.png,l,0,0,0,0,18,0,18,0,0,0,0,0,,,,,,,,,,,,,,,,,,136.46064148566256,136.46064148566256,136.46064148566256,136.46064148566256,l,1,0.48376956428000994,136.96901390679523,136.96901390679523,136.96901390679523,,,,,,,,,,,,,,,,,,,,,,,,,,,,103,001,2023-03-01_12h13.05.836,eb_01,2022.2.4,120.00438310615382,
,,,0,0,0,0,18,0,18,0,,,,,,,,,,,,,,,,,,,,,,,,,,,,,,,,,,,,,,,,,,,,,,,,,,,,,,,,,,,103,001,2023-03-01_12h13.05.836,eb_01,2022.2.4,120.00438310615382,
9,stimuli/9.png,l,0,0,0,0,19,0,19,0,0,0,0,0,,,,,,,,,,,,,,,,,,137.9857979903063,137.9857979903063,137.9857979903063,137.9857979903063,l,1,0.6137410902283591,138.62753570123095,138.62753570123095,138.62753570123095,,,,,,,,,,,,,,,,,,,,,,,,,,,,103,001,2023-03-01_12h13.05.836,eb_01,2022.2.4,120.00438310615382,
,,,0,0,0,0,19,0,19,0,,,,,,,,,,,,,,,,,,,,,,,,,,,,,,,,,,,,,,,,,,,,,,,,,,,,,,,,,,,103,001,2023-03-01_12h13.05.836,eb_01,2022.2.4,120.00438310615382,
8,stimuli/8.png,l,0,0,0,0,20,0,20,0,0,0,0,0,,,,,,,,,,,,,,,,,,139.6276265598026,139.6276265598026,139.6276265598026,139.6276265598026,l,1,0.49993122129853873,140.14435072495144,140.14435072495144,140.14435072495144,,,,,,,,,,,,,,,,,,,,,,,,,,,,103,001,2023-03-01_12h13.05.836,eb_01,2022.2.4,120.00438310615382,
,,,0,0,0,0,20,0,20,0,,,,,,,,,,,,,,,,,,,,,,,,,,,,,,,,,,,,,,,,,,,,,,,,,,,,,,,,,,,103,001,2023-03-01_12h13.05.836,eb_01,2022.2.4,120.00438310615382,
3,stimuli/3.png,l,0,0,0,0,21,0,21,0,0,0,0,0,,,,,,,,,,,,,,,,,,141.15279212011774,141.15279212011774,141.15279212011774,141.15279212011774,l,1,0.5508295288236695,141.71951294976134,141.71951294976134,141.71951294976134,142.73628254419782,142.73628254419782,142.73628254419782,,,,,,,,,,,,,,,,,,,,,,,,,103,001,2023-03-01_12h13.05.836,eb_01,2022.2.4,120.00438310615382,
,,,0,0,0,0,21,0,21,0,,,,,,,,,,,,,,,,,,,,,,,,,,,,,,,,,,,,,,,,,,,,,,,,,,,,,,,,,,,103,001,2023-03-01_12h13.05.836,eb_01,2022.2.4,120.00438310615382,
4,stimuli/4.png,l,0,0,0,0,22,0,22,0,0,0,0,0,,,,,,,,,,,,,,,,,,142.73628254419782,142.73628254419782,142.73628254419782,142.73628254419782,l,1,0.44738991309895937,143.20300310217135,143.20300310217135,143.20300310217135,,,,,,,,,,,,,,,,,,,,,,,,,,,,103,001,2023-03-01_12h13.05.836,eb_01,2022.2.4,120.00438310615382,
,,,0,0,0,0,22,0,22,0,,,,,,,,,,,,,,,,,,,,,,,,,,,,,,,,,,,,,,,,,,,,,,,,,,,,,,,,,,,103,001,2023-03-01_12h13.05.836,eb_01,2022.2.4,120.00438310615382,
3,stimuli/3.png,l,0,0,0,0,23,0,23,0,0,0,0,0,,,,,,,,,,,,,,,,,,144.21144087506764,144.21144087506764,144.21144087506764,144.21144087506764,l,1,0.4202980605150515,144.64482146894443,144.64482146894443,144.64482146894443,145.65325833627503,145.65325833627503,145.65325833627503,,,,,,,,,,,,,,,,,,,,,,,,,103,001,2023-03-01_12h13.05.836,eb_01,2022.2.4,120.00438310615382,
,,,0,0,0,0,23,0,23,0,,,,,,,,,,,,,,,,,,,,,,,,,,,,,,,,,,,,,,,,,,,,,,,,,,,,,,,,,,,103,001,2023-03-01_12h13.05.836,eb_01,2022.2.4,120.00438310615382,
8,stimuli/8.png,l,0,0,0,0,24,0,24,0,0,0,0,0,,,,,,,,,,,,,,,,,,145.65325833627503,145.65325833627503,145.65325833627503,145.65325833627503,l,1,0.48251776861616236,146.15330799154071,146.15330799154071,146.15330799154071,,,,,,,,,,,,,,,,,,,,,,,,,,,,103,001,2023-03-01_12h13.05.836,eb_01,2022.2.4,120.00438310615382,
,,,0,0,0,0,24,0,24,0,,,,,,,,,,,,,,,,,,,,,,,,,,,,,,,,,,,,,,,,,,,,,,,,,,,,,,,,,,,103,001,2023-03-01_12h13.05.836,eb_01,2022.2.4,120.00438310615382,
6,stimuli/6.png,s,0,0,0,0,25,0,25,0,0,0,0,0,,,,,,,,,,,,,,,,,,147.17841031308308,147.17841031308308,147.17841031308308,147.17841031308308,s,1,0.7414622817977943,147.94515975864851,147.94515975864851,147.94515975864851,,,,,,,,,,,,,,,,,,,,,,,,,,,,103,001,2023-03-01_12h13.05.836,eb_01,2022.2.4,120.00438310615382,
,,,0,0,0,0,25,0,25,0,,,,,,,,,,,,,,,,,,,,,,,,,,,,,,,,,,,,,,,,,,,,,,,,,,,,,,,,,,,103,001,2023-03-01_12h13.05.836,eb_01,2022.2.4,120.00438310615382,
5,stimuli/5.png,s,0,0,0,0,26,0,26,0,0,0,0,0,,,,,,,,,,,,,,,,,,148.94526480443892,148.94526480443892,148.94526480443892,148.94526480443892,s,1,0.5346859831479378,149.50365049213178,149.50365049213178,149.50365049213178,,,,,,,,,,,,,,,,,,,,,,,,,,,,103,001,2023-03-01_12h13.05.836,eb_01,2022.2.4,120.00438310615382,
,,,0,0,0,0,26,0,26,0,,,,,,,,,,,,,,,,,,,,,,,,,,,,,,,,,,,,,,,,,,,,,,,,,,,,,,,,,,,103,001,2023-03-01_12h13.05.836,eb_01,2022.2.4,120.00438310615382,
6,stimuli/6.png,s,0,0,0,0,27,0,27,0,0,0,0,0,,,,,,,,,,,,,,,,,,150.52875643594234,150.52875643594234,150.52875643594234,150.52875643594234,s,1,0.5032458989408042,151.06216477035923,151.06216477035923,151.06216477035923,,,,,,,,,,,,,,,,,,,,,,,,,,,,103,001,2023-03-01_12h13.05.836,eb_01,2022.2.4,120.00438310615382,
,,,0,0,0,0,27,0,27,0,,,,,,,,,,,,,,,,,,,,,,,,,,,,,,,,,,,,,,,,,,,,,,,,,,,,,,,,,,,103,001,2023-03-01_12h13.05.836,eb_01,2022.2.4,120.00438310615382,
5,stimuli/5.png,s,0,0,0,0,28,0,28,0,0,0,0,0,,,,,,,,,,,,,,,,,,152.0622559307867,152.0622559307867,152.0622559307867,152.0622559307867,s,1,0.42578519376547774,152.51229805475123,152.51229805475123,152.51229805475123,,,,,,,,,,,,,,,,,,,,,,,,,,,,103,001,2023-03-01_12h13.05.836,eb_01,2022.2.4,120.00438310615382,
,,,0,0,0,0,28,0,28,0,,,,,,,,,,,,,,,,,,,,,,,,,,,,,,,,,,,,,,,,,,,,,,,,,,,,,,,,,,,103,001,2023-03-01_12h13.05.836,eb_01,2022.2.4,120.00438310615382,
9,stimuli/9.png,l,0,0,0,0,29,0,29,0,0,0,0,0,,,,,,,,,,,,,,,,,,153.5290821382623,153.5290821382623,153.5290821382623,153.5290821382623,l,1,0.6060645974539511,154.16246780331494,154.16246780331494,154.16246780331494,,,,,,,,,,,,,,,,,,,,,,,,,,,,103,001,2023-03-01_12h13.05.836,eb_01,2022.2.4,120.00438310615382,
,,,0,0,0,0,29,0,29,0,,,,,,,,,,,,,,,,,,,,,,,,,,,,,,,,,,,,,,,,,,,,,,,,,,,,,,,,,,,103,001,2023-03-01_12h13.05.836,eb_01,2022.2.4,120.00438310615382,
5,stimuli/5.png,s,0,0,0,0,30,0,30,0,0,0,0,0,,,,,,,,,,,,,,,,,,155.16257948993007,155.16257948993007,155.16257948993007,155.16257948993007,s,1,0.6366172258494771,155.8209708826962,155.8209708826962,155.8209708826962,,,,,,,,,,,,,,,,,,,,,,,,,,,,103,001,2023-03-01_12h13.05.836,eb_01,2022.2.4,120.00438310615382,
,,,0,0,0,0,30,0,30,0,,,,,,,,,,,,,,,,,,,,,,,,,,,,,,,,,,,,,,,,,,,,,,,,,,,,,,,,,,,103,001,2023-03-01_12h13.05.836,eb_01,2022.2.4,120.00438310615382,
9,stimuli/9.png,l,0,0,0,0,31,0,31,0,0,0,0,0,,,,,,,,,,,,,,,,,,156.83774953280408,156.83774953280408,156.83774953280408,156.83774953280408,l,1,0.5535450228653644,157.4211397407853,157.4211397407853,157.4211397407853,,,,,,,,,,,,,,,,,,,,,,,,,,,,103,001,2023-03-01_12h13.05.836,eb_01,2022.2.4,120.00438310615382,
,,,0,0,0,0,31,0,31,0,,,,,,,,,,,,,,,,,,,,,,,,,,,,,,,,,,,,,,,,,,,,,,,,,,,,,,,,,,,103,001,2023-03-01_12h13.05.836,eb_01,2022.2.4,120.00438310615382,
6,stimuli/6.png,s,0,0,0,0,32,0,32,0,0,0,0,0,,,,,,,,,,,,,,,,,,158.4379141649115,158.4379141649115,158.4379141649115,158.4379141649115,s,1,0.6013948894924397,159.0713167338854,159.0713167338854,159.0713167338854,,,,,,,,,,,,,,,,,,,,,,,,,,,,103,001,2023-03-01_12h13.05.836,eb_01,2022.2.4,120.00438310615382,
,,,0,0,0,0,32,0,32,0,,,,,,,,,,,,,,,,,,,,,,,,,,,,,,,,,,,,,,,,,,,,,,,,,,,,,,,,,,,103,001,2023-03-01_12h13.05.836,eb_01,2022.2.4,120.00438310615382,
5,stimuli/5.png,s,0,0,0,0,33,0,33,0,0,0,0,0,,,,,,,,,,,,,,,,,,160.07144140029777,160.07144140029777,160.07144140029777,160.07144140029777,s,1,0.7519556921379262,160.84649308554253,160.84649308554253,160.84649308554253,,,,,,,,,,,,,,,,,,,,,,,,,,,,103,001,2023-03-01_12h13.05.836,eb_01,2022.2.4,120.00438310615382,
,,,0,0,0,0,33,0,33,0,,,,,,,,,,,,,,,,,,,,,,,,,,,,,,,,,,,,,,,,,,,,,,,,,,,,,,,,,,,103,001,2023-03-01_12h13.05.836,eb_01,2022.2.4,120.00438310615382,
6,stimuli/6.png,s,0,0,0,0,34,0,34,0,0,0,0,0,,,,,,,,,,,,,,,,,,161.87160597203547,161.87160597203547,161.87160597203547,161.87160597203547,s,1,0.6558647538768128,162.55497834034395,162.55497834034395,162.55497834034395,,,,,,,,,,,,,,,,,,,,,,,,,,,,103,001,2023-03-01_12h13.05.836,eb_01,2022.2.4,120.00438310615382,
,,,0,0,0,0,34,0,34,0,,,,,,,,,,,,,,,,,,,,,,,,,,,,,,,,,,,,,,,,,,,,,,,,,,,,,,,,,,,103,001,2023-03-01_12h13.05.836,eb_01,2022.2.4,120.00438310615382,
8,stimuli/8.png,l,0,0,0,0,35,0,35,0,0,0,0,0,,,,,,,,,,,,,,,,,,163.56343875241873,163.56343875241873,163.56343875241873,163.56343875241873,l,1,0.6520689182179922,164.23852729424652,164.23852729424652,164.23852729424652,,,,,,,,,,,,,,,,,,,,,,,,,,,,103,001,2023-03-01_12h13.05.836,eb_01,2022.2.4,120.00438310615382,
,,,0,0,0,0,35,0,35,0,,,,,,,,,,,,,,,,,,,,,,,,,,,,,,,,,,,,,,,,,,,,,,,,,,,,,,,,,,,103,001,2023-03-01_12h13.05.836,eb_01,2022.2.4,120.00438310615382,
3,stimuli/3.png,l,0,0,0,0,36,0,36,0,0,0,0,0,,,,,,,,,,,,,,,,,,165.24695691703891,165.24695691703891,165.24695691703891,165.24695691703891,l,1,0.8806585185047879,166.13874043456963,166.13874043456963,166.13874043456963,167.14716009612312,167.14716009612312,167.14716009612312,,,,,,,,,,,,,,,,,,,,,,,,,103,001,2023-03-01_12h13.05.836,eb_01,2022.2.4,120.00438310615382,
,,,0,0,0,0,36,0,36,0,,,,,,,,,,,,,,,,,,,,,,,,,,,,,,,,,,,,,,,,,,,,,,,,,,,,,,,,,,,103,001,2023-03-01_12h13.05.836,eb_01,2022.2.4,120.00438310615382,
2,stimuli/2.png,s,0,0,0,0,37,0,37,0,0,0,0,0,,,,,,,,,,,,,,,,,,167.14716009612312,167.14716009612312,167.14716009612312,167.14716009612312,s,1,1.4525591922756576,168.61397724792732,168.61397724792732,168.61397724792732,169.6474162206996,169.6474162206996,169.6474162206996,,,,,,,,,,,,,,,,,,,,,,,,,103,001,2023-03-01_12h13.05.836,eb_01,2022.2.4,120.00438310615382,
,,,0,0,0,0,37,0,37,0,,,,,,,,,,,,,,,,,,,,,,,,,,,,,,,,,,,,,,,,,,,,,,,,,,,,,,,,,,,103,001,2023-03-01_12h13.05.836,eb_01,2022.2.4,120.00438310615382,
1,stimuli/1.png,s,0,0,0,0,38,0,38,0,0,0,0,0,,,,,,,,,,,,,,,,,,169.6474162206996,169.6474162206996,169.6474162206996,169.6474162206996,s,1,1.0233511499936867,170.6975281940795,170.6975281940795,170.6975281940795,,,,,,,,,,,,,,,,,,,,,,,,,,,,103,001,2023-03-01_12h13.05.836,eb_01,2022.2.4,120.00438310615382,
,,,0,0,0,0,38,0,38,0,,,,,,,,,,,,,,,,,,,,,,,,,,,,,,,,,,,,,,,,,,,,,,,,,,,,,,,,,,,103,001,2023-03-01_12h13.05.836,eb_01,2022.2.4,120.00438310615382,
2,stimuli/2.png,s,0,0,0,0,39,0,39,0,0,0,0,0,,,,,,,,,,,,,,,,,,171.69763474914726,171.69763474914726,171.69763474914726,171.69763474914726,s,1,0.7812359986801312,172.4893799611873,172.4893799611873,172.4893799611873,173.5144862068537,173.5144862068537,173.5144862068537,,,,,,,,,,,,,,,,,,,,,,,,,103,001,2023-03-01_12h13.05.836,eb_01,2022.2.4,120.00438310615382,
,,,0,0,0,0,39,0,39,0,,,,,,,,,,,,,,,,,,,,,,,,,,,,,,,,,,,,,,,,,,,,,,,,,,,,,,,,,,,103,001,2023-03-01_12h13.05.836,eb_01,2022.2.4,120.00438310615382,
1,stimuli/1.png,s,0,0,0,0,40,0,40,0,0,0,0,0,,,,,,,,,,,,,,,,,,173.5144862068537,173.5144862068537,173.5144862068537,173.5144862068537,s,1,0.43644371918162506,173.9812019351375,173.9812019351375,173.9812019351375,,,,,,,,,,,,,,,,,,,,,,,,,,,,103,001,2023-03-01_12h13.05.836,eb_01,2022.2.4,120.00438310615382,
,,,0,0,0,0,40,0,40,0,,,,,,,,,,,,,,,,,,,,,,,,,,,,,,,,,,,,,,,,,,,,,,,,,,,,,,,,,,,103,001,2023-03-01_12h13.05.836,eb_01,2022.2.4,120.00438310615382,
4,stimuli/4.png,l,0,0,0,0,41,0,41,0,0,0,0,0,,,,,,,,,,,,,,,,,,174.98964121731296,174.98964121731296,174.98964121731296,174.98964121731296,l,1,0.7773737547613564,175.78972730656278,175.78972730656278,175.78972730656278,,,,,,,,,,,,,,,,,,,,,,,,,,,,103,001,2023-03-01_12h13.05.836,eb_01,2022.2.4,120.00438310615382,
,,,0,0,0,0,41,0,41,0,,,,,,,,,,,,,,,,,,,,,,,,,,,,,,,,,,,,,,,,,,,,,,,,,,,,,,,,,,,103,001,2023-03-01_12h13.05.836,eb_01,2022.2.4,120.00438310615382,
1,stimuli/1.png,s,0,0,0,0,42,0,42,0,0,0,0,0,,,,,,,,,,,,,,,,,,176.81482992996098,176.81482992996098,176.81482992996098,176.81482992996098,s,1,0.4882491031403333,177.33155439696748,177.33155439696748,177.33155439696748,,,,,,,,,,,,,,,,,,,,,,,,,,,,103,001,2023-03-01_12h13.05.836,eb_01,2022.2.4,120.00438310615382,
,,,0,0,0,0,42,0,42,0,,,,,,,,,,,,,,,,,,,,,,,,,,,,,,,,,,,,,,,,,,,,,,,,,,,,,,,,,,,103,001,2023-03-01_12h13.05.836,eb_01,2022.2.4,120.00438310615382,
4,stimuli/4.png,l,0,0,0,0,43,0,43,0,0,0,0,0,,,,,,,,,,,,,,,,,,178.3399906605846,178.3399906605846,178.3399906605846,178.3399906605846,l,1,0.7631672172301478,179.12340737149862,179.12340737149862,179.12340737149862,,,,,,,,,,,,,,,,,,,,,,,,,,,,103,001,2023-03-01_12h13.05.836,eb_01,2022.2.4,120.00438310615382,
,,,0,0,0,0,43,0,43,0,,,,,,,,,,,,,,,,,,,,,,,,,,,,,,,,,,,,,,,,,,,,,,,,,,,,,,,,,,,103,001,2023-03-01_12h13.05.836,eb_01,2022.2.4,120.00438310615382,
3,stimuli/3.png,l,0,0,0,0,44,0,44,0,0,0,0,0,,,,,,,,,,,,,,,,,,180.13184816295143,180.13184816295143,180.13184816295143,180.13184816295143,l,1,0.5073665313539095,180.65689599953657,180.65689599953657,180.65689599953657,,,,,,,,,,,,,,,,,,,,,,,,,,,,103,001,2023-03-01_12h13.05.836,eb_01,2022.2.4,120.00438310615382,
,,,0,0,0,0,44,0,44,0,,,,,,,,,,,,,,,,,,,,,,,,,,,,,,,,,,,,,,,,,,,,,,,,,,,,,,,,,,,103,001,2023-03-01_12h13.05.836,eb_01,2022.2.4,120.00438310615382,
4,stimuli/4.png,l,0,0,0,0,45,0,45,0,0,0,0,0,,,,,,,,,,,,,,,,,,181.67367434778862,181.67367434778862,181.67367434778862,181.67367434778862,l,1,0.6135859363912459,182.30707299263668,182.30707299263668,182.30707299263668,,,,,,,,,,,,,,,,,,,,,,,,,,,,103,001,2023-03-01_12h13.05.836,eb_01,2022.2.4,120.00438310615382,
,,,0,0,0,0,45,0,45,0,,,,,,,,,,,,,,,,,,,,,,,,,,,,,,,,,,,,,,,,,,,,,,,,,,,,,,,,,,,103,001,2023-03-01_12h13.05.836,eb_01,2022.2.4,120.00438310615382,
3,stimuli/3.png,l,0,0,0,0,46,0,46,0,0,0,0,0,,,,,,,,,,,,,,,,,,183.315516500792,183.315516500792,183.315516500792,183.315516500792,l,1,0.5398308120129514,183.8989112366089,183.8989112366089,183.8989112366089,,,,,,,,,,,,,,,,,,,,,,,,,,,,103,001,2023-03-01_12h13.05.836,eb_01,2022.2.4,120.00438310615382,
,,,0,0,0,0,46,0,46,0,,,,,,,,,,,,,,,,,,,,,,,,,,,,,,,,,,,,,,,,,,,,,,,,,,,,,,,,,,,103,001,2023-03-01_12h13.05.836,eb_01,2022.2.4,120.00438310615382,
4,stimuli/4.png,l,0,0,0,0,47,0,47,0,0,0,0,0,,,,,,,,,,,,,,,,,,184.91568294403623,184.91568294403623,184.91568294403623,184.91568294403623,l,1,0.7147516729892232,185.64909151993743,185.64909151993743,185.64909151993743,,,,,,,,,,,,,,,,,,,,,,,,,,,,103,001,2023-03-01_12h13.05.836,eb_01,2022.2.4,120.00438310615382,
,,,0,0,0,0,47,0,47,0,,,,,,,,,,,,,,,,,,,,,,,,,,,,,,,,,,,,,,,,,,,,,,,,,,,,,,,,,,,103,001,2023-03-01_12h13.05.836,eb_01,2022.2.4,120.00438310615382,
2,stimuli/2.png,s,0,0,0,0,48,0,48,0,0,0,0,0,,,,,,,,,,,,,,,,,,186.65754559304332,186.65754559304332,186.65754559304332,186.65754559304332,s,1,2.0129929710165015,188.68274450841454,188.68274450841454,188.68274450841454,189.7078477355244,189.7078477355244,189.7078477355244,,,,,,,,,,,,,,,,,,,,,,,,,103,001,2023-03-01_12h13.05.836,eb_01,2022.2.4,120.00438310615382,
,,,0,0,0,0,48,0,48,0,,,,,,,,,,,,,,,,,,,,,,,,,,,,,,,,,,,,,,,,,,,,,,,,,,,,,,,,,,,103,001,2023-03-01_12h13.05.836,eb_01,2022.2.4,120.00438310615382,
1,stimuli/1.png,s,0,0,0,0,49,0,49,0,0,0,0,0,,,,,,,,,,,,,,,,,,189.7078477355244,189.7078477355244,189.7078477355244,189.7078477355244,s,1,0.4907487703458173,190.22457099510757,190.22457099510757,190.22457099510757,,,,,,,,,,,,,,,,,,,,,,,,,,,,103,001,2023-03-01_12h13.05.836,eb_01,2022.2.4,120.00438310615382,
,,,0,0,0,0,49,0,49,0,,,,,,,,,,,,,,,,,,,,,,,,,,,,,,,,,,,,,,,,,,,,,,,,,,,,,,,,,,,103,001,2023-03-01_12h13.05.836,eb_01,2022.2.4,120.00438310615382,
2,stimuli/2.png,s,0,0,0,0,50,0,50,0,0,0,0,0,,,,,,,,,,,,,,,,,,191.22467513533047,191.22467513533047,191.22467513533047,191.22467513533047,s,1,0.5099914686816192,191.74974772408314,191.74974772408314,191.74974772408314,192.77484702706897,192.77484702706897,192.77484702706897,,,,,,,,,,,,,,,,,,,,,,,,,103,001,2023-03-01_12h13.05.836,eb_01,2022.2.4,120.00438310615382,
,,,0,0,0,0,50,0,50,0,,,,,,,,,,,,,,,,,,,,,,,,,,,,,,,,,,,,,,,,,,,,,,,,,,,,,,,,,,,103,001,2023-03-01_12h13.05.836,eb_01,2022.2.4,120.00438310615382,
1,stimuli/1.png,s,0,0,0,0,51,0,51,0,0,0,0,0,,,,,,,,,,,,,,,,,,192.77484702706897,192.77484702706897,192.77484702706897,192.77484702706897,s,1,0.4958742804428766,193.29991297499691,193.29991297499691,193.29991297499691,,,,,,,,,,,,,,,,,,,,,,,,,,,,103,001,2023-03-01_12h13.05.836,eb_01,2022.2.4,120.00438310615382,
,,,0,0,0,0,51,0,51,0,,,,,,,,,,,,,,,,,,,,,,,,,,,,,,,,,,,,,,,,,,,,,,,,,,,,,,,,,,,103,001,2023-03-01_12h13.05.836,eb_01,2022.2.4,120.00438310615382,
2,stimuli/2.png,s,0,0,0,0,52,0,52,0,0,0,0,0,,,,,,,,,,,,,,,,,,194.29998994820562,194.29998994820562,194.29998994820562,194.29998994820562,s,1,0.5308068353115232,194.8417192373563,194.8417192373563,194.8417192373563,195.85849849117403,195.85849849117403,195.85849849117403,,,,,,,,,,,,,,,,,,,,,,,,,103,001,2023-03-01_12h13.05.836,eb_01,2022.2.4,120.00438310615382,
,,,0,0,0,0,52,0,52,0,,,,,,,,,,,,,,,,,,,,,,,,,,,,,,,,,,,,,,,,,,,,,,,,,,,,,,,,,,,103,001,2023-03-01_12h13.05.836,eb_01,2022.2.4,120.00438310615382,
4,stimuli/4.png,l,0,0,0,0,53,0,53,0,0,0,0,0,,,,,,,,,,,,,,,,,,195.85849849117403,195.85849849117403,195.85849849117403,195.85849849117403,l,1,0.564403678623421,196.44874293695466,196.44874293695466,196.44874293695466,,,,,,,,,,,,,,,,,,,,,,,,,,,,103,001,2023-03-01_12h13.05.836,eb_01,2022.2.4,120.00438310615382,
,,,0,0,0,0,53,0,53,0,,,,,,,,,,,,,,,,,,,,,,,,,,,,,,,,,,,,,,,,,,,,,,,,,,,,,,,,,,,103,001,2023-03-01_12h13.05.836,eb_01,2022.2.4,120.00438310615382,
2,stimuli/2.png,s,0,0,0,0,54,0,54,0,0,0,0,0,,,,,,,,,,,,,,,,,,197.45032949060987,197.45032949060987,197.45032949060987,197.45032949060987,s,1,0.9726439171390666,198.43376515806267,198.43376515806267,198.43376515806267,199.44225364271915,199.44225364271915,199.44225364271915,,,,,,,,,,,,,,,,,,,,,,,,,103,001,2023-03-01_12h13.05.836,eb_01,2022.2.4,120.00438310615382,
,,,0,0,0,0,54,0,54,0,,,,,,,,,,,,,,,,,,,,,,,,,,,,,,,,,,,,,,,,,,,,,,,,,,,,,,,,,,,103,001,2023-03-01_12h13.05.836,eb_01,2022.2.4,120.00438310615382,
3,stimuli/3.png,l,0,0,0,0,55,0,55,0,0,0,0,0,,,,,,,,,,,,,,,,,,199.44225364271915,199.44225364271915,199.44225364271915,199.44225364271915,l,1,0.5327353914963169,199.98391954217004,199.98391954217004,199.98391954217004,201.0007000034111,201.0007000034111,201.0007000034111,,,,,,,,,,,,,,,,,,,,,,,,,103,001,2023-03-01_12h13.05.836,eb_01,2022.2.4,120.00438310615382,
,,,0,0,0,0,55,0,55,0,,,,,,,,,,,,,,,,,,,,,,,,,,,,,,,,,,,,,,,,,,,,,,,,,,,,,,,,,,,103,001,2023-03-01_12h13.05.836,eb_01,2022.2.4,120.00438310615382,
4,stimuli/4.png,l,0,0,0,0,56,0,56,0,0,0,0,0,,,,,,,,,,,,,,,,,,201.0007000034111,201.0007000034111,201.0007000034111,201.0007000034111,l,1,1.3494003023679397,202.36751084643038,202.36751084643038,202.36751084643038,,,,,,,,,,,,,,,,,,,,,,,,,,,,103,001,2023-03-01_12h13.05.836,eb_01,2022.2.4,120.00438310615382,
,,,0,0,0,0,56,0,56,0,,,,,,,,,,,,,,,,,,,,,,,,,,,,,,,,,,,,,,,,,,,,,,,,,,,,,,,,,,,103,001,2023-03-01_12h13.05.836,eb_01,2022.2.4,120.00438310615382,
3,stimuli/3.png,l,0,0,0,0,57,0,57,0,0,0,0,0,,,,,,,,,,,,,,,,,,203.3759552601532,203.3759552601532,203.3759552601532,203.3759552601532,l,1,0.5342117678137583,203.92601154115255,203.92601154115255,203.92601154115255,204.9344517288937,204.9344517288937,204.9344517288937,,,,,,,,,,,,,,,,,,,,,,,,,103,001,2023-03-01_12h13.05.836,eb_01,2022.2.4,120.00438310615382,
,,,0,0,0,0,57,0,57,0,,,,,,,,,,,,,,,,,,,,,,,,,,,,,,,,,,,,,,,,,,,,,,,,,,,,,,,,,,,103,001,2023-03-01_12h13.05.836,eb_01,2022.2.4,120.00438310615382,
8,stimuli/8.png,l,0,0,0,0,58,0,58,0,0,0,0,0,,,,,,,,,,,,,,,,,,204.9344517288937,204.9344517288937,204.9344517288937,204.9344517288937,l,1,0.5437534270731703,205.50119640514094,205.50119640514094,205.50119640514094,,,,,,,,,,,,,,,,,,,,,,,,,,,,103,001,2023-03-01_12h13.05.836,eb_01,2022.2.4,120.00438310615382,
,,,0,0,0,0,58,0,58,0,,,,,,,,,,,,,,,,,,,,,,,,,,,,,,,,,,,,,,,,,,,,,,,,,,,,,,,,,,,103,001,2023-03-01_12h13.05.836,eb_01,2022.2.4,120.00438310615382,
3,stimuli/3.png,l,0,0,0,0,59,0,59,0,0,0,0,0,,,,,,,,,,,,,,,,,,206.50961274628025,206.50961274628025,206.50961274628025,206.50961274628025,l,1,0.48067584502314276,207.00133480598743,207.00133480598743,207.00133480598743,208.01809262805,208.01809262805,208.01809262805,,,,,,,,,,,,,,,,,,,,,,,,,103,001,2023-03-01_12h13.05.836,eb_01,2022.2.4,120.00438310615382,
,,,0,0,0,0,59,0,59,0,,,,,,,,,,,,,,,,,,,,,,,,,,,,,,,,,,,,,,,,,,,,,,,,,,,,,,,,,,,103,001,2023-03-01_12h13.05.836,eb_01,2022.2.4,120.00438310615382,
4,stimuli/4.png,l,0,0,0,0,60,0,60,0,0,0,0,0,,,,,,,,,,,,,,,,,,208.01809262805,208.01809262805,208.01809262805,208.01809262805,l,1,0.8442622652582941,208.88485985291845,208.88485985291845,208.88485985291845,,,,,,,,,,,,,,,,,,,,,,,,,,,,103,001,2023-03-01_12h13.05.836,eb_01,2022.2.4,120.00438310615382,
,,,0,0,0,0,60,0,60,0,,,,,,,,,,,,,,,,,,,,,,,,,,,,,,,,,,,,,,,,,,,,,,,,,,,,,,,,,,,103,001,2023-03-01_12h13.05.836,eb_01,2022.2.4,120.00438310615382,
2,stimuli/2.png,s,0,0,0,0,61,0,61,0,0,0,0,0,,,,,,,,,,,,,,,,,,209.8933036629296,209.8933036629296,209.8933036629296,209.8933036629296,s,1,1.3291617820159445,211.23508130936534,211.23508130936534,211.23508130936534,212.25188471164256,212.25188471164256,212.25188471164256,,,,,,,,,,,,,,,,,,,,,,,,,103,001,2023-03-01_12h13.05.836,eb_01,2022.2.4,120.00438310615382,
,,,0,0,0,0,61,0,61,0,,,,,,,,,,,,,,,,,,,,,,,,,,,,,,,,,,,,,,,,,,,,,,,,,,,,,,,,,,,103,001,2023-03-01_12h13.05.836,eb_01,2022.2.4,120.00438310615382,
4,stimuli/4.png,l,0,0,0,0,62,0,62,0,0,0,0,0,,,,,,,,,,,,,,,,,,212.25188471164256,212.25188471164256,212.25188471164256,212.25188471164256,l,1,0.6266351590966224,212.9019460940017,212.9019460940017,212.9019460940017,,,,,,,,,,,,,,,,,,,,,,,,,,,,103,001,2023-03-01_12h13.05.836,eb_01,2022.2.4,120.00438310615382,
,,,0,0,0,0,62,0,62,0,,,,,,,,,,,,,,,,,,,,,,,,,,,,,,,,,,,,,,,,,,,,,,,,,,,,,,,,,,,103,001,2023-03-01_12h13.05.836,eb_01,2022.2.4,120.00438310615382,
2,stimuli/2.png,s,0,0,0,0,63,0,63,0,0,0,0,0,,,,,,,,,,,,,,,,,,213.9103829613323,213.9103829613323,213.9103829613323,213.9103829613323,l,0,0.4802158169077302,214.41044861494993,214.41044861494993,214.41044861494993,,,,,,,,,,,,,,,,,,,,,,,,,,,,103,001,2023-03-01_12h13.05.836,eb_01,2022.2.4,120.00438310615382,
,,,0,0,0,0,63,0,63,0,,,,,,,,,,,,,,,,,,,,,,,,,,,,,,,,,,,,,,,,,,,,,,,,,,,,,,,,,,,103,001,2023-03-01_12h13.05.836,eb_01,2022.2.4,120.00438310615382,
1,stimuli/1.png,s,0,0,0,0,64,0,64,0,0,0,0,0,,,,,,,,,,,,,,,,,,215.43555244577146,215.43555244577146,215.43555244577146,215.43555244577146,s,1,0.6681158700630476,216.13563132067065,216.13563132067065,216.13563132067065,,,,,,,,,,,,,,,,,,,,,,,,,,,,103,001,2023-03-01_12h13.05.836,eb_01,2022.2.4,120.00438310615382,
,,,0,0,0,0,64,0,64,0,,,,,,,,,,,,,,,,,,,,,,,,,,,,,,,,,,,,,,,,,,,,,,,,,,,,,,,,,,,103,001,2023-03-01_12h13.05.836,eb_01,2022.2.4,120.00438310615382,
2,stimuli/2.png,s,0,0,0,0,65,0,65,0,0,0,0,0,,,,,,,,,,,,,,,,,,217.1357366683169,217.1357366683169,217.1357366683169,217.1357366683169,s,1,1.070018647769757,218.219181964967,218.219181964967,218.219181964967,219.24428519207504,219.24428519207504,219.24428519207504,,,,,,,,,,,,,,,,,,,,,,,,,103,001,2023-03-01_12h13.05.836,eb_01,2022.2.4,120.00438310615382,
,,,0,0,0,0,65,0,65,0,,,,,,,,,,,,,,,,,,,,,,,,,,,,,,,,,,,,,,,,,,,,,,,,,,,,,,,,,,,103,001,2023-03-01_12h13.05.836,eb_01,2022.2.4,120.00438310615382,
1,stimuli/1.png,s,0,0,0,0,66,0,66,0,0,0,0,0,,,,,,,,,,,,,,,,,,219.24428519207504,219.24428519207504,219.24428519207504,219.24428519207504,s,1,0.6175384351663524,219.89436830804698,219.89436830804698,219.89436830804698,,,,,,,,,,,,,,,,,,,,,,,,,,,,103,001,2023-03-01_12h13.05.836,eb_01,2022.2.4,120.00438310615382,
,,,0,0,0,0,66,0,66,0,,,,,,,,,,,,,,,,,,,,,,,,,,,,,,,,,,,,,,,,,,,,,,,,,,,,,,,,,,,103,001,2023-03-01_12h13.05.836,eb_01,2022.2.4,120.00438310615382,
2,stimuli/2.png,s,0,0,0,0,67,0,67,0,0,0,0,0,,,,,,,,,,,,,,,,,,220.8944615814653,220.8944615814653,220.8944615814653,220.8944615814653,s,1,0.40742029185821593,221.3111740044278,221.3111740044278,221.3111740044278,222.32795114525652,222.32795114525652,222.32795114525652,,,,,,,,,,,,,,,,,,,,,,,,,103,001,2023-03-01_12h13.05.836,eb_01,2022.2.4,120.00438310615382,
,,,0,0,0,0,67,0,67,0,,,,,,,,,,,,,,,,,,,,,,,,,,,,,,,,,,,,,,,,,,,,,,,,,,,,,,,,,,,103,001,2023-03-01_12h13.05.836,eb_01,2022.2.4,120.00438310615382,
4,stimuli/4.png,l,0,0,0,0,68,0,68,0,0,0,0,0,,,,,,,,,,,,,,,,,,222.32795114525652,222.32795114525652,222.32795114525652,222.32795114525652,s,0,0.43797020354941196,222.78635769117864,222.78635769117864,222.78635769117864,,,,,,,,,,,,,,,,,,,,,,,,,,,,103,001,2023-03-01_12h13.05.836,eb_01,2022.2.4,120.00438310615382,
,,,0,0,0,0,68,0,68,0,,,,,,,,,,,,,,,,,,,,,,,,,,,,,,,,,,,,,,,,,,,,,,,,,,,,,,,,,,,103,001,2023-03-01_12h13.05.836,eb_01,2022.2.4,120.00438310615382,
1,stimuli/1.png,s,0,0,0,0,69,0,69,0,0,0,0,0,,,,,,,,,,,,,,,,,,223.8291777359682,223.8291777359682,223.8291777359682,223.8291777359682,s,1,0.44085352937145217,224.3031597351037,224.3031597351037,224.3031597351037,,,,,,,,,,,,,,,,,,,,,,,,,,,,103,001,2023-03-01_12h13.05.836,eb_01,2022.2.4,120.00438310615382,
,,,0,0,0,0,69,0,69,0,,,,,,,,,,,,,,,,,,,,,,,,,,,,,,,,,,,,,,,,,,,,,,,,,,,,,,,,,,,103,001,2023-03-01_12h13.05.836,eb_01,2022.2.4,120.00438310615382,
4,stimuli/4.png,l,0,0,0,0,70,0,70,0,0,0,0,0,,,,,,,,,,,,,,,,,,225.3115902634636,225.3115902634636,225.3115902634636,225.3115902634636,l,1,0.5744744909570727,225.90332768762528,225.90332768762528,225.90332768762528,,,,,,,,,,,,,,,,,,,,,,,,,,,,103,001,2023-03-01_12h13.05.836,eb_01,2022.2.4,120.00438310615382,
,,,0,0,0,0,70,0,70,0,,,,,,,,,,,,,,,,,,,,,,,,,,,,,,,,,,,,,,,,,,,,,,,,,,,,,,,,,,,103,001,2023-03-01_12h13.05.836,eb_01,2022.2.4,120.00438310615382,
3,stimuli/3.png,l,0,0,0,0,71,0,71,0,0,0,0,0,,,,,,,,,,,,,,,,,,226.91176274382087,226.91176274382087,226.91176274382087,226.91176274382087,l,1,0.5103696938967914,227.44514813720343,227.44514813720343,227.44514813720343,,,,,,,,,,,,,,,,,,,,,,,,,,,,103,001,2023-03-01_12h13.05.836,eb_01,2022.2.4,120.00438310615382,
,,,0,0,0,0,71,0,71,0,,,,,,,,,,,,,,,,,,,,,,,,,,,,,,,,,,,,,,,,,,,,,,,,,,,,,,,,,,,103,001,2023-03-01_12h13.05.836,eb_01,2022.2.4,120.00438310615382,
4,stimuli/4.png,l,0,0,0,0,72,0,72,0,0,0,0,0,,,,,,,,,,,,,,,,,,228.4619258817438,228.4619258817438,228.4619258817438,228.4619258817438,l,1,0.592273111536997,229.07865424268857,229.07865424268857,229.07865424268857,,,,,,,,,,,,,,,,,,,,,,,,,,,,103,001,2023-03-01_12h13.05.836,eb_01,2022.2.4,120.00438310615382,
,,,0,0,0,0,72,0,72,0,,,,,,,,,,,,,,,,,,,,,,,,,,,,,,,,,,,,,,,,,,,,,,,,,,,,,,,,,,,103,001,2023-03-01_12h13.05.836,eb_01,2022.2.4,120.00438310615382,
3,stimuli/3.png,l,0,0,0,0,73,0,73,0,0,0,0,0,,,,,,,,,,,,,,,,,,230.08710167496793,230.08710167496793,230.08710167496793,230.08710167496793,l,1,0.4231472766423394,230.5288014124435,230.5288014124435,230.5288014124435,,,,,,,,,,,,,,,,,,,,,,,,,,,,103,001,2023-03-01_12h13.05.836,eb_01,2022.2.4,120.00438310615382,
,,,0,0,0,0,73,0,73,0,,,,,,,,,,,,,,,,,,,,,,,,,,,,,,,,,,,,,,,,,,,,,,,,,,,,,,,,,,,103,001,2023-03-01_12h13.05.836,eb_01,2022.2.4,120.00438310615382,
8,stimuli/8.png,l,0,0,0,0,74,0,74,0,0,0,0,0,,,,,,,,,,,,,,,,,,231.53726605049997,231.53726605049997,231.53726605049997,231.53726605049997,l,1,0.4280409615494136,231.98730938188783,231.98730938188783,231.98730938188783,,,,,,,,,,,,,,,,,,,,,,,,,,,,103,001,2023-03-01_12h13.05.836,eb_01,2022.2.4,120.00438310615382,
,,,0,0,0,0,74,0,74,0,,,,,,,,,,,,,,,,,,,,,,,,,,,,,,,,,,,,,,,,,,,,,,,,,,,,,,,,,,,103,001,2023-03-01_12h13.05.836,eb_01,2022.2.4,120.00438310615382,
9,stimuli/9.png,l,0,0,0,0,75,0,75,0,0,0,0,0,,,,,,,,,,,,,,,,,,233.00407988189,233.00407988189,233.00407988189,233.00407988189,l,1,0.825285199953214,233.86252071862145,233.86252071862145,233.86252071862145,,,,,,,,,,,,,,,,,,,,,,,,,,,,103,001,2023-03-01_12h13.05.836,eb_01,2022.2.4,120.00438310615382,
,,,0,0,0,0,75,0,75,0,,,,,,,,,,,,,,,,,,,,,,,,,,,,,,,,,,,,,,,,,,,,,,,,,,,,,,,,,,,103,001,2023-03-01_12h13.05.836,eb_01,2022.2.4,120.00438310615382,
5,stimuli/5.png,s,0,0,0,0,76,0,76,0,0,0,0,0,,,,,,,,,,,,,,,,,,234.8626061437899,234.8626061437899,234.8626061437899,234.8626061437899,s,1,0.7188599293167499,235.60434623937545,235.60434623937545,235.60434623937545,,,,,,,,,,,,,,,,,,,,,,,,,,,,103,001,2023-03-01_12h13.05.836,eb_01,2022.2.4,120.00438310615382,
,,,0,0,0,0,76,0,76,0,,,,,,,,,,,,,,,,,,,,,,,,,,,,,,,,,,,,,,,,,,,,,,,,,,,,,,,,,,,103,001,2023-03-01_12h13.05.836,eb_01,2022.2.4,120.00438310615382,
9,stimuli/9.png,l,0,0,0,0,77,0,77,0,0,0,0,0,,,,,,,,,,,,,,,,,,236.62112519133916,236.62112519133916,236.62112519133916,236.62112519133916,l,1,2.2484790689013607,238.89635482053018,238.89635482053018,238.89635482053018,,,,,,,,,,,,,,,,,,,,,,,,,,,,103,001,2023-03-01_12h13.05.836,eb_01,2022.2.4,120.00438310615382,
,,,0,0,0,0,77,0,77,0,,,,,,,,,,,,,,,,,,,,,,,,,,,,,,,,,,,,,,,,,,,,,,,,,,,,,,,,,,,103,001,2023-03-01_12h13.05.836,eb_01,2022.2.4,120.00438310615382,
5,stimuli/5.png,s,0,0,0,0,78,0,78,0,0,0,0,0,,,,,,,,,,,,,,,,,,239.89647344982768,239.89647344982768,239.89647344982768,239.89647344982768,s,1,0.7892034803644492,240.704886832782,240.704886832782,240.704886832782,,,,,,,,,,,,,,,,,,,,,,,,,,,,103,001,2023-03-01_12h13.05.836,eb_01,2022.2.4,120.00438310615382,
,,,0,0,0,0,78,0,78,0,,,,,,,,,,,,,,,,,,,,,,,,,,,,,,,,,,,,,,,,,,,,,,,,,,,,,,,,,,,103,001,2023-03-01_12h13.05.836,eb_01,2022.2.4,120.00438310615382,
9,stimuli/9.png,l,0,0,0,0,79,0,79,0,0,0,0,0,,,,,,,,,,,,,,,,,,241.72168087753198,241.72168087753198,241.72168087753198,241.72168087753198,l,1,0.716040295050334,242.4634061821871,242.4634061821871,242.4634061821871,,,,,,,,,,,,,,,,,,,,,,,,,,,,103,001,2023-03-01_12h13.05.836,eb_01,2022.2.4,120.00438310615382,
,,,0,0,0,0,79,0,79,0,,,,,,,,,,,,,,,,,,,,,,,,,,,,,,,,,,,,,,,,,,,,,,,,,,,,,,,,,,,103,001,2023-03-01_12h13.05.836,eb_01,2022.2.4,120.00438310615382,
6,stimuli/6.png,s,0,0,0,0,80,0,80,0,0,0,0,0,,,,,,,,,,,,,,,,,,243.48018181373664,243.48018181373664,243.48018181373664,243.48018181373664,s,1,0.773629536430235,244.28027665680384,244.28027665680384,244.28027665680384,,,,,,,,,,,,,,,,,,,,,,,,,,,,103,001,2023-03-01_12h13.05.836,eb_01,2022.2.4,120.00438310615382,
,,,0,0,0,0,80,0,80,0,,,,,,,,,,,,,,,,,,,,,,,,,,,,,,,,,,,,,,,,,,,,,,,,,,,,,,,,,,,103,001,2023-03-01_12h13.05.836,eb_01,2022.2.4,120.00438310615382,
5,stimuli/5.png,s,0,0,0,0,81,0,81,0,0,0,0,0,,,,,,,,,,,,,,,,,,245.2803741562002,245.2803741562002,245.2803741562002,245.2803741562002,s,1,0.7574977631284128,246.05544365093374,246.05544365093374,246.05544365093374,,,,,,,,,,,,,,,,,,,,,,,,,,,,103,001,2023-03-01_12h13.05.836,eb_01,2022.2.4,120.00438310615382,
,,,0,0,0,0,81,0,81,0,,,,,,,,,,,,,,,,,,,,,,,,,,,,,,,,,,,,,,,,,,,,,,,,,,,,,,,,,,,103,001,2023-03-01_12h13.05.836,eb_01,2022.2.4,120.00438310615382,
6,stimuli/6.png,s,0,0,0,0,82,0,82,0,0,0,0,0,,,,,,,,,,,,,,,,,,247.08055895227153,247.08055895227153,247.08055895227153,247.08055895227153,s,1,0.6204184405760316,247.73063482370526,247.73063482370526,247.73063482370526,,,,,,,,,,,,,,,,,,,,,,,,,,,,103,001,2023-03-01_12h13.05.836,eb_01,2022.2.4,120.00438310615382,
,,,0,0,0,0,82,0,82,0,,,,,,,,,,,,,,,,,,,,,,,,,,,,,,,,,,,,,,,,,,,,,,,,,,,,,,,,,,,103,001,2023-03-01_12h13.05.836,eb_01,2022.2.4,120.00438310615382,
9,stimuli/9.png,l,0,0,0,0,83,0,83,0,0,0,0,0,,,,,,,,,,,,,,,,,,248.73906987990085,248.73906987990085,248.73906987990085,248.73906987990085,l,1,0.8259625641858293,249.59749652941355,249.59749652941355,249.59749652941355,,,,,,,,,,,,,,,,,,,,,,,,,,,,103,001,2023-03-01_12h13.05.836,eb_01,2022.2.4,120.00438310615382,
,,,0,0,0,0,83,0,83,0,,,,,,,,,,,,,,,,,,,,,,,,,,,,,,,,,,,,,,,,,,,,,,,,,,,,,,,,,,,103,001,2023-03-01_12h13.05.836,eb_01,2022.2.4,120.00438310615382,
8,stimuli/8.png,l,0,0,0,0,84,0,84,0,0,0,0,0,,,,,,,,,,,,,,,,,,250.597609121598,250.597609121598,250.597609121598,250.597609121598,l,1,0.8955086124260561,251.5143612385873,251.5143612385873,251.5143612385873,,,,,,,,,,,,,,,,,,,,,,,,,,,,103,001,2023-03-01_12h13.05.836,eb_01,2022.2.4,120.00438310615382,
,,,0,0,0,0,84,0,84,0,,,,,,,,,,,,,,,,,,,,,,,,,,,,,,,,,,,,,,,,,,,,,,,,,,,,,,,,,,,103,001,2023-03-01_12h13.05.836,eb_01,2022.2.4,120.00438310615382,
9,stimuli/9.png,l,0,0,0,0,85,0,85,0,0,0,0,0,,,,,,,,,,,,,,,,,,252.5311528684906,252.5311528684906,252.5311528684906,252.5311528684906,l,1,0.8980426911821269,253.45624103299815,253.45624103299815,253.45624103299815,,,,,,,,,,,,,,,,,,,,,,,,,,,,103,001,2023-03-01_12h13.05.836,eb_01,2022.2.4,120.00438310615382,
,,,0,0,0,0,85,0,85,0,,,,,,,,,,,,,,,,,,,,,,,,,,,,,,,,,,,,,,,,,,,,,,,,,,,,,,,,,,,103,001,2023-03-01_12h13.05.836,eb_01,2022.2.4,120.00438310615382,
8,stimuli/8.png,l,0,0,0,0,86,0,86,0,0,0,0,0,,,,,,,,,,,,,,,,,,254.45636932167872,254.45636932167872,254.45636932167872,254.45636932167872,l,1,0.5728876354442036,255.04807354171317,255.04807354171317,255.04807354171317,,,,,,,,,,,,,,,,,,,,,,,,,,,,103,001,2023-03-01_12h13.05.836,eb_01,2022.2.4,120.00438310615382,
,,,0,0,0,0,86,0,86,0,,,,,,,,,,,,,,,,,,,,,,,,,,,,,,,,,,,,,,,,,,,,,,,,,,,,,,,,,,,103,001,2023-03-01_12h13.05.836,eb_01,2022.2.4,120.00438310615382,
3,stimuli/3.png,l,0,0,0,0,87,0,87,0,0,0,0,0,,,,,,,,,,,,,,,,,,256.0565152387335,256.0565152387335,256.0565152387335,256.0565152387335,l,1,0.49280440778784396,256.564893696981,256.564893696981,256.564893696981,257.5733568257583,257.5733568257583,257.5733568257583,,,,,,,,,,,,,,,,,,,,,,,,,103,001,2023-03-01_12h13.05.836,eb_01,2022.2.4,120.00438310615382,
,,,0,0,0,0,87,0,87,0,,,,,,,,,,,,,,,,,,,,,,,,,,,,,,,,,,,,,,,,,,,,,,,,,,,,,,,,,,,103,001,2023-03-01_12h13.05.836,eb_01,2022.2.4,120.00438310615382,
2,stimuli/2.png,s,0,0,0,0,88,0,88,0,0,0,0,0,,,,,,,,,,,,,,,,,,257.5733568257583,257.5733568257583,257.5733568257583,257.5733568257583,s,1,1.1680465941772127,258.75680299779015,258.75680299779015,258.75680299779015,259.7818971692286,259.7818971692286,259.7818971692286,,,,,,,,,,,,,,,,,,,,,,,,,103,001,2023-03-01_12h13.05.836,eb_01,2022.2.4,120.00438310615382,
,,,0,0,0,0,88,0,88,0,,,,,,,,,,,,,,,,,,,,,,,,,,,,,,,,,,,,,,,,,,,,,,,,,,,,,,,,,,,103,001,2023-03-01_12h13.05.836,eb_01,2022.2.4,120.00438310615382,
1,stimuli/1.png,s,0,0,0,0,89,0,89,0,0,0,0,0,,,,,,,,,,,,,,,,,,259.7818971692286,259.7818971692286,259.7818971692286,259.7818971692286,s,1,0.6315653685451252,260.44027618590917,260.44027618590917,260.44027618590917,,,,,,,,,,,,,,,,,,,,,,,,,,,,103,001,2023-03-01_12h13.05.836,eb_01,2022.2.4,120.00438310615382,
,,,0,0,0,0,89,0,89,0,,,,,,,,,,,,,,,,,,,,,,,,,,,,,,,,,,,,,,,,,,,,,,,,,,,,,,,,,,,103,001,2023-03-01_12h13.05.836,eb_01,2022.2.4,120.00438310615382,
4,stimuli/4.png,l,0,0,0,0,90,0,90,0,0,0,0,0,,,,,,,,,,,,,,,,,,261.44875380375925,261.44875380375925,261.44875380375925,261.44875380375925,l,1,0.6367916984545445,262.1071442909579,262.1071442909579,262.1071442909579,,,,,,,,,,,,,,,,,,,,,,,,,,,,103,001,2023-03-01_12h13.05.836,eb_01,2022.2.4,120.00438310615382,
,,,0,0,0,0,90,0,90,0,,,,,,,,,,,,,,,,,,,,,,,,,,,,,,,,,,,,,,,,,,,,,,,,,,,,,,,,,,,103,001,2023-03-01_12h13.05.836,eb_01,2022.2.4,120.00438310615382,
3,stimuli/3.png,l,0,0,0,0,91,0,91,0,0,0,0,0,,,,,,,,,,,,,,,,,,263.11560349561114,263.11560349561114,263.11560349561114,263.11560349561114,l,1,0.8650124310515821,263.9990174596369,263.9990174596369,263.9990174596369,,,,,,,,,,,,,,,,,,,,,,,,,,,,103,001,2023-03-01_12h13.05.836,eb_01,2022.2.4,120.00438310615382,
,,,0,0,0,0,91,0,91,0,,,,,,,,,,,,,,,,,,,,,,,,,,,,,,,,,,,,,,,,,,,,,,,,,,,,,,,,,,,103,001,2023-03-01_12h13.05.836,eb_01,2022.2.4,120.00438310615382,
4,stimuli/4.png,l,0,0,0,0,92,0,92,0,0,0,0,0,,,,,,,,,,,,,,,,,,265.01580969325187,265.01580969325187,265.01580969325187,265.01580969325187,l,1,0.8208880677029811,265.85755579576653,265.85755579576653,265.85755579576653,,,,,,,,,,,,,,,,,,,,,,,,,,,,103,001,2023-03-01_12h13.05.836,eb_01,2022.2.4,120.00438310615382,
,,,0,0,0,0,92,0,92,0,,,,,,,,,,,,,,,,,,,,,,,,,,,,,,,,,,,,,,,,,,,,,,,,,,,,,,,,,,,103,001,2023-03-01_12h13.05.836,eb_01,2022.2.4,120.00438310615382,
1,stimuli/1.png,s,0,0,0,0,93,0,93,0,0,0,0,0,,,,,,,,,,,,,,,,,,266.88266053215375,266.88266053215375,266.88266053215375,266.88266053215375,s,1,0.8181167303519032,267.7327719621917,267.7327719621917,267.7327719621917,,,,,,,,,,,,,,,,,,,,,,,,,,,,103,001,2023-03-01_12h13.05.836,eb_01,2022.2.4,120.00438310615382,
,,,0,0,0,0,93,0,93,0,,,,,,,,,,,,,,,,,,,,,,,,,,,,,,,,,,,,,,,,,,,,,,,,,,,,,,,,,,,103,001,2023-03-01_12h13.05.836,eb_01,2022.2.4,120.00438310615382,
4,stimuli/4.png,l,0,0,0,0,94,0,94,0,0,0,0,0,,,,,,,,,,,,,,,,,,268.74118498292046,268.74118498292046,268.74118498292046,268.74118498292046,l,1,0.6796654735626362,269.4412714042119,269.4412714042119,269.4412714042119,,,,,,,,,,,,,,,,,,,,,,,,,,,,103,001,2023-03-01_12h13.05.836,eb_01,2022.2.4,120.00438310615382,
,,,0,0,0,0,94,0,94,0,,,,,,,,,,,,,,,,,,,,,,,,,,,,,,,,,,,,,,,,,,,,,,,,,,,,,,,,,,,103,001,2023-03-01_12h13.05.836,eb_01,2022.2.4,120.00438310615382,
2,stimuli/2.png,s,0,0,0,0,95,0,95,0,0,0,0,0,,,,,,,,,,,,,,,,,,270.4497179309237,270.4497179309237,270.4497179309237,270.4497179309237,s,1,0.8112051399675693,271.27479706994745,271.27479706994745,271.27479706994745,272.29157149407547,272.29157149407547,272.29157149407547,,,,,,,,,,,,,,,,,,,,,,,,,103,001,2023-03-01_12h13.05.836,eb_01,2022.2.4,120.00438310615382,
,,,0,0,0,0,95,0,95,0,,,,,,,,,,,,,,,,,,,,,,,,,,,,,,,,,,,,,,,,,,,,,,,,,,,,,,,,,,,103,001,2023-03-01_12h13.05.836,eb_01,2022.2.4,120.00438310615382,
4,stimuli/4.png,l,0,0,0,0,96,0,96,0,0,0,0,0,,,,,,,,,,,,,,,,,,272.29157149407547,272.29157149407547,272.29157149407547,272.29157149407547,l,1,0.7694095934875804,273.08332334694023,273.08332334694023,273.08332334694023,,,,,,,,,,,,,,,,,,,,,,,,,,,,103,001,2023-03-01_12h13.05.836,eb_01,2022.2.4,120.00438310615382,
,,,0,0,0,0,96,0,96,0,,,,,,,,,,,,,,,,,,,,,,,,,,,,,,,,,,,,,,,,,,,,,,,,,,,,,,,,,,,103,001,2023-03-01_12h13.05.836,eb_01,2022.2.4,120.00438310615382,
3,stimuli/3.png,l,0,0,0,0,97,0,97,0,0,0,0,0,,,,,,,,,,,,,,,,,,274.0917710810754,274.0917710810754,274.0917710810754,274.0917710810754,l,1,0.7132843523431802,274.8251639604805,274.8251639604805,274.8251639604805,,,,,,,,,,,,,,,,,,,,,,,,,,,,103,001,2023-03-01_12h13.05.836,eb_01,2022.2.4,120.00438310615382,
,,,0,0,0,0,97,0,97,0,,,,,,,,,,,,,,,,,,,,,,,,,,,,,,,,,,,,,,,,,,,,,,,,,,,,,,,,,,,103,001,2023-03-01_12h13.05.836,eb_01,2022.2.4,120.00438310615382,
4,stimuli/4.png,l,0,0,0,0,98,0,98,0,0,0,0,0,,,,,,,,,,,,,,,,,,275.84194411986573,275.84194411986573,275.84194411986573,275.84194411986573,l,1,0.8352053862836328,276.7003746935043,276.7003746935043,276.7003746935043,,,,,,,,,,,,,,,,,,,,,,,,,,,,103,001,2023-03-01_12h13.05.836,eb_01,2022.2.4,120.00438310615382,
,,,0,0,0,0,98,0,98,0,,,,,,,,,,,,,,,,,,,,,,,,,,,,,,,,,,,,,,,,,,,,,,,,,,,,,,,,,,,103,001,2023-03-01_12h13.05.836,eb_01,2022.2.4,120.00438310615382,
2,stimuli/2.png,s,0,0,0,0,99,0,99,0,0,0,0,0,,,,,,,,,,,,,,,,,,277.70881065526555,277.70881065526555,277.70881065526555,277.70881065526555,s,1,0.6884102337244258,278.40888681346405,278.40888681346405,278.40888681346405,279.4089843128604,279.4089843128604,279.4089843128604,,,,,,,,,,,,,,,,,,,,,,,,,103,001,2023-03-01_12h13.05.836,eb_01,2022.2.4,120.00438310615382,
,,,0,0,0,0,99,0,99,0,,,,,,,,,,,,,,,,,,,,,,,,,,,,,,,,,,,,,,,,,,,,,,,,,,,,,,,,,,,103,001,2023-03-01_12h13.05.836,eb_01,2022.2.4,120.00438310615382,
,,,0,0,0,0,,,,,,,,,,,,,,,,,,,,,,,,,,,,,,,,,,,,,,,279.4089843128604,279.4089843128604,return,69.3701103213516,,,,,,,,,,,,,,,,,,,,,103,001,2023-03-01_12h13.05.836,eb_01,2022.2.4,120.00438310615382,
3,stimuli/3.png,l,1,0,1,0,0,0,0,0,0,0,0,0,,,,,,,,,,,,,,,,,,348.799712693728,348.799712693728,348.799712693728,348.799712693728,l,1,2.55552217782315,351.36664150196157,351.36664150196157,351.36664150196157,352.3750943676441,352.3750943676441,352.3750943676441,,,,,,,,,,,,,,,,,,,,,,,,,103,001,2023-03-01_12h13.05.836,eb_01,2022.2.4,120.00438310615382,
,,,1,0,1,0,0,0,0,0,,,,,,,,,,,,,,,,,,,,,,,,,,,,,,,,,,,,,,,,,,,,,,,,,,,,,,,,,,,103,001,2023-03-01_12h13.05.836,eb_01,2022.2.4,120.00438310615382,
8,stimuli/8.png,l,1,0,1,0,1,0,1,0,0,0,0,0,,,,,,,,,,,,,,,,,,352.3750943676441,352.3750943676441,352.3750943676441,352.3750943676441,l,1,0.5001675743260421,352.891804345576,352.891804345576,352.891804345576,,,,,,,,,,,,,,,,,,,,,,,,,,,,103,001,2023-03-01_12h13.05.836,eb_01,2022.2.4,120.00438310615382,
,,,1,0,1,0,1,0,1,0,,,,,,,,,,,,,,,,,,,,,,,,,,,,,,,,,,,,,,,,,,,,,,,,,,,,,,,,,,,103,001,2023-03-01_12h13.05.836,eb_01,2022.2.4,120.00438310615382,
9,stimuli/9.png,l,1,0,1,0,2,0,2,0,0,0,0,0,,,,,,,,,,,,,,,,,,353.90858812722945,353.90858812722945,353.90858812722945,353.90858812722945,l,1,0.47874487398985366,354.4169756411502,354.4169756411502,354.4169756411502,,,,,,,,,,,,,,,,,,,,,,,,,,,,103,001,2023-03-01_12h13.05.836,eb_01,2022.2.4,120.00438310615382,
,,,1,0,1,0,2,0,2,0,,,,,,,,,,,,,,,,,,,,,,,,,,,,,,,,,,,,,,,,,,,,,,,,,,,,,,,,,,,103,001,2023-03-01_12h13.05.836,eb_01,2022.2.4,120.00438310615382,
5,stimuli/5.png,s,1,0,1,0,3,0,3,0,0,0,0,0,,,,,,,,,,,,,,,,,,355.41707012199004,355.41707012199004,355.41707012199004,355.41707012199004,s,1,0.7383335472786712,356.17550917777226,356.17550917777226,356.17550917777226,,,,,,,,,,,,,,,,,,,,,,,,,,,,103,001,2023-03-01_12h13.05.836,eb_01,2022.2.4,120.00438310615382,
,,,1,0,1,0,3,0,3,0,,,,,,,,,,,,,,,,,,,,,,,,,,,,,,,,,,,,,,,,,,,,,,,,,,,,,,,,,,,103,001,2023-03-01_12h13.05.836,eb_01,2022.2.4,120.00438310615382,
9,stimuli/9.png,l,1,0,1,0,4,0,4,0,0,0,0,0,,,,,,,,,,,,,,,,,,357.19227364066137,357.19227364066137,357.19227364066137,357.19227364066137,l,1,0.47417749511623697,357.6923248052062,357.6923248052062,357.6923248052062,,,,,,,,,,,,,,,,,,,,,,,,,,,,103,001,2023-03-01_12h13.05.836,eb_01,2022.2.4,120.00438310615382,
,,,1,0,1,0,4,0,4,0,,,,,,,,,,,,,,,,,,,,,,,,,,,,,,,,,,,,,,,,,,,,,,,,,,,,,,,,,,,103,001,2023-03-01_12h13.05.836,eb_01,2022.2.4,120.00438310615382,
6,stimuli/6.png,s,1,0,1,0,5,0,5,0,0,0,0,0,,,,,,,,,,,,,,,,,,358.7090998330441,358.7090998330441,358.7090998330441,358.7090998330441,s,1,0.6454323183934321,359.38417358394327,359.38417358394327,359.38417358394327,,,,,,,,,,,,,,,,,,,,,,,,,,,,103,001,2023-03-01_12h13.05.836,eb_01,2022.2.4,120.00438310615382,
,,,1,0,1,0,5,0,5,0,,,,,,,,,,,,,,,,,,,,,,,,,,,,,,,,,,,,,,,,,,,,,,,,,,,,,,,,,,,103,001,2023-03-01_12h13.05.836,eb_01,2022.2.4,120.00438310615382,
9,stimuli/9.png,l,1,0,1,0,6,0,6,0,0,0,0,0,,,,,,,,,,,,,,,,,,360.3926101494162,360.3926101494162,360.3926101494162,360.3926101494162,l,1,0.5219893279208918,360.94268454175835,360.94268454175835,360.94268454175835,,,,,,,,,,,,,,,,,,,,,,,,,,,,103,001,2023-03-01_12h13.05.836,eb_01,2022.2.4,120.00438310615382,
,,,1,0,1,0,6,0,6,0,,,,,,,,,,,,,,,,,,,,,,,,,,,,,,,,,,,,,,,,,,,,,,,,,,,,,,,,,,,103,001,2023-03-01_12h13.05.836,eb_01,2022.2.4,120.00438310615382,
6,stimuli/6.png,s,1,0,1,0,7,0,7,0,0,0,0,0,,,,,,,,,,,,,,,,,,361.95944357124426,361.95944357124426,361.95944357124426,361.95944357124426,s,1,0.6672090954853047,362.659505844078,362.659505844078,362.659505844078,,,,,,,,,,,,,,,,,,,,,,,,,,,,103,001,2023-03-01_12h13.05.836,eb_01,2022.2.4,120.00438310615382,
,,,1,0,1,0,7,0,7,0,,,,,,,,,,,,,,,,,,,,,,,,,,,,,,,,,,,,,,,,,,,,,,,,,,,,,,,,,,,103,001,2023-03-01_12h13.05.836,eb_01,2022.2.4,120.00438310615382,
8,stimuli/8.png,l,1,0,1,0,8,0,8,0,0,0,0,0,,,,,,,,,,,,,,,,,,363.65963564203776,363.65963564203776,363.65963564203776,363.65963564203776,l,1,1.6391356081076083,365.31813721213985,365.31813721213985,365.31813721213985,,,,,,,,,,,,,,,,,,,,,,,,,,,,103,001,2023-03-01_12h13.05.836,eb_01,2022.2.4,120.00438310615382,
,,,1,0,1,0,8,0,8,0,,,,,,,,,,,,,,,,,,,,,,,,,,,,,,,,,,,,,,,,,,,,,,,,,,,,,,,,,,,103,001,2023-03-01_12h13.05.836,eb_01,2022.2.4,120.00438310615382,
3,stimuli/3.png,l,1,0,1,0,9,0,9,0,0,0,0,0,,,,,,,,,,,,,,,,,,366.32658041843933,366.32658041843933,366.32658041843933,366.32658041843933,l,1,1.092283827416395,367.4350401966167,367.4350401966167,367.4350401966167,368.45180496136163,368.45180496136163,368.45180496136163,,,,,,,,,,,,,,,,,,,,,,,,,103,001,2023-03-01_12h13.05.836,eb_01,2022.2.4,120.00438310615382,
,,,1,0,1,0,9,0,9,0,,,,,,,,,,,,,,,,,,,,,,,,,,,,,,,,,,,,,,,,,,,,,,,,,,,,,,,,,,,103,001,2023-03-01_12h13.05.836,eb_01,2022.2.4,120.00438310615382,
4,stimuli/4.png,l,1,0,1,0,10,0,10,0,0,0,0,0,,,,,,,,,,,,,,,,,,368.45180496136163,368.45180496136163,368.45180496136163,368.45180496136163,l,1,0.6711051472429972,369.14354959987577,369.14354959987577,369.14354959987577,,,,,,,,,,,,,,,,,,,,,,,,,,,,103,001,2023-03-01_12h13.05.836,eb_01,2022.2.4,120.00438310615382,
,,,1,0,1,0,10,0,10,0,,,,,,,,,,,,,,,,,,,,,,,,,,,,,,,,,,,,,,,,,,,,,,,,,,,,,,,,,,,103,001,2023-03-01_12h13.05.836,eb_01,2022.2.4,120.00438310615382,
3,stimuli/3.png,l,1,0,1,0,11,0,11,0,0,0,0,0,,,,,,,,,,,,,,,,,,370.15199099504025,370.15199099504025,370.15199099504025,370.15199099504025,l,1,0.5630048792245361,370.72706356870185,370.72706356870185,370.72706356870185,371.7354925877826,371.7354925877826,371.7354925877826,,,,,,,,,,,,,,,,,,,,,,,,,103,001,2023-03-01_12h13.05.836,eb_01,2022.2.4,120.00438310615382,
,,,1,0,1,0,11,0,11,0,,,,,,,,,,,,,,,,,,,,,,,,,,,,,,,,,,,,,,,,,,,,,,,,,,,,,,,,,,,103,001,2023-03-01_12h13.05.836,eb_01,2022.2.4,120.00438310615382,
8,stimuli/8.png,l,1,0,1,0,12,0,12,0,0,0,0,0,,,,,,,,,,,,,,,,,,371.7354925877826,371.7354925877826,371.7354925877826,371.7354925877826,l,1,0.5145839015804086,372.26888160343333,372.26888160343333,372.26888160343333,,,,,,,,,,,,,,,,,,,,,,,,,,,,103,001,2023-03-01_12h13.05.836,eb_01,2022.2.4,120.00438310615382,
,,,1,0,1,0,12,0,12,0,,,,,,,,,,,,,,,,,,,,,,,,,,,,,,,,,,,,,,,,,,,,,,,,,,,,,,,,,,,103,001,2023-03-01_12h13.05.836,eb_01,2022.2.4,120.00438310615382,
6,stimuli/6.png,s,1,0,1,0,13,0,13,0,0,0,0,0,,,,,,,,,,,,,,,,,,373.2939884528114,373.2939884528114,373.2939884528114,373.2939884528114,s,1,0.6041405691066757,373.92738347539125,373.92738347539125,373.92738347539125,,,,,,,,,,,,,,,,,,,,,,,,,,,,103,001,2023-03-01_12h13.05.836,eb_01,2022.2.4,120.00438310615382,
,,,1,0,1,0,13,0,13,0,,,,,,,,,,,,,,,,,,,,,,,,,,,,,,,,,,,,,,,,,,,,,,,,,,,,,,,,,,,103,001,2023-03-01_12h13.05.836,eb_01,2022.2.4,120.00438310615382,
5,stimuli/5.png,s,1,0,1,0,14,0,14,0,0,0,0,0,,,,,,,,,,,,,,,,,,374.9275060288146,374.9275060288146,374.9275060288146,374.9275060288146,s,1,0.6026768707270094,375.5525604760387,375.5525604760387,375.5525604760387,,,,,,,,,,,,,,,,,,,,,,,,,,,,103,001,2023-03-01_12h13.05.836,eb_01,2022.2.4,120.00438310615382,
,,,1,0,1,0,14,0,14,0,,,,,,,,,,,,,,,,,,,,,,,,,,,,,,,,,,,,,,,,,,,,,,,,,,,,,,,,,,,103,001,2023-03-01_12h13.05.836,eb_01,2022.2.4,120.00438310615382,
9,stimuli/9.png,l,1,0,1,0,15,0,15,0,0,0,0,0,,,,,,,,,,,,,,,,,,376.569346370683,376.569346370683,376.569346370683,376.569346370683,l,1,0.5609003411573212,377.16106266494535,377.16106266494535,377.16106266494535,,,,,,,,,,,,,,,,,,,,,,,,,,,,103,001,2023-03-01_12h13.05.836,eb_01,2022.2.4,120.00438310615382,
,,,1,0,1,0,15,0,15,0,,,,,,,,,,,,,,,,,,,,,,,,,,,,,,,,,,,,,,,,,,,,,,,,,,,,,,,,,,,103,001,2023-03-01_12h13.05.836,eb_01,2022.2.4,120.00438310615382,
8,stimuli/8.png,l,1,0,1,0,16,0,16,0,0,0,0,0,,,,,,,,,,,,,,,,,,378.1611806905312,378.1611806905312,378.1611806905312,378.1611806905312,l,1,1.5531852108488238,379.7363519710125,379.7363519710125,379.7363519710125,,,,,,,,,,,,,,,,,,,,,,,,,,,,103,001,2023-03-01_12h13.05.836,eb_01,2022.2.4,120.00438310615382,
,,,1,0,1,0,16,0,16,0,,,,,,,,,,,,,,,,,,,,,,,,,,,,,,,,,,,,,,,,,,,,,,,,,,,,,,,,,,,103,001,2023-03-01_12h13.05.836,eb_01,2022.2.4,120.00438310615382,
9,stimuli/9.png,l,1,0,1,0,17,0,17,0,0,0,0,0,,,,,,,,,,,,,,,,,,380.75312337658215,380.75312337658215,380.75312337658215,380.75312337658215,l,1,0.7533049871999538,381.5365376726513,381.5365376726513,381.5365376726513,,,,,,,,,,,,,,,,,,,,,,,,,,,,103,001,2023-03-01_12h13.05.836,eb_01,2022.2.4,120.00438310615382,
,,,1,0,1,0,17,0,17,0,,,,,,,,,,,,,,,,,,,,,,,,,,,,,,,,,,,,,,,,,,,,,,,,,,,,,,,,,,,103,001,2023-03-01_12h13.05.836,eb_01,2022.2.4,120.00438310615382,
5,stimuli/5.png,s,1,0,1,0,18,0,18,0,0,0,0,0,,,,,,,,,,,,,,,,,,382.536656000093,382.536656000093,382.536656000093,382.536656000093,s,1,0.6018549176060333,383.1617086361839,383.1617086361839,383.1617086361839,,,,,,,,,,,,,,,,,,,,,,,,,,,,103,001,2023-03-01_12h13.05.836,eb_01,2022.2.4,120.00438310615382,
,,,1,0,1,0,18,0,18,0,,,,,,,,,,,,,,,,,,,,,,,,,,,,,,,,,,,,,,,,,,,,,,,,,,,,,,,,,,,103,001,2023-03-01_12h13.05.836,eb_01,2022.2.4,120.00438310615382,
6,stimuli/6.png,s,1,0,1,0,19,0,19,0,0,0,0,0,,,,,,,,,,,,,,,,,,384.1868185041185,384.1868185041185,384.1868185041185,384.1868185041185,s,1,0.607759819169587,384.82022167680225,384.82022167680225,384.82022167680225,,,,,,,,,,,,,,,,,,,,,,,,,,,,103,001,2023-03-01_12h13.05.836,eb_01,2022.2.4,120.00438310615382,
,,,1,0,1,0,19,0,19,0,,,,,,,,,,,,,,,,,,,,,,,,,,,,,,,,,,,,,,,,,,,,,,,,,,,,,,,,,,,103,001,2023-03-01_12h13.05.836,eb_01,2022.2.4,120.00438310615382,
8,stimuli/8.png,l,1,0,1,0,20,0,20,0,0,0,0,0,,,,,,,,,,,,,,,,,,385.82033125042835,385.82033125042835,385.82033125042835,385.82033125042835,l,1,0.5022914311593922,386.34538512412837,386.34538512412837,386.34538512412837,,,,,,,,,,,,,,,,,,,,,,,,,,,,103,001,2023-03-01_12h13.05.836,eb_01,2022.2.4,120.00438310615382,
,,,1,0,1,0,20,0,20,0,,,,,,,,,,,,,,,,,,,,,,,,,,,,,,,,,,,,,,,,,,,,,,,,,,,,,,,,,,,103,001,2023-03-01_12h13.05.836,eb_01,2022.2.4,120.00438310615382,
3,stimuli/3.png,l,1,0,1,0,21,0,21,0,0,0,0,0,,,,,,,,,,,,,,,,,,387.35383285826356,387.35383285826356,387.35383285826356,387.35383285826356,l,1,0.7598954031000176,388.1372326652563,388.1372326652563,388.1372326652563,,,,,,,,,,,,,,,,,,,,,,,,,,,,103,001,2023-03-01_12h13.05.836,eb_01,2022.2.4,120.00438310615382,
,,,1,0,1,0,21,0,21,0,,,,,,,,,,,,,,,,,,,,,,,,,,,,,,,,,,,,,,,,,,,,,,,,,,,,,,,,,,,103,001,2023-03-01_12h13.05.836,eb_01,2022.2.4,120.00438310615382,
8,stimuli/8.png,l,1,0,1,0,22,0,22,0,0,0,0,0,,,,,,,,,,,,,,,,,,389.1456876439297,389.1456876439297,389.1456876439297,389.1456876439297,l,1,0.7600925148835813,389.9290971103055,389.9290971103055,389.9290971103055,,,,,,,,,,,,,,,,,,,,,,,,,,,,103,001,2023-03-01_12h13.05.836,eb_01,2022.2.4,120.00438310615382,
,,,1,0,1,0,22,0,22,0,,,,,,,,,,,,,,,,,,,,,,,,,,,,,,,,,,,,,,,,,,,,,,,,,,,,,,,,,,,103,001,2023-03-01_12h13.05.836,eb_01,2022.2.4,120.00438310615382,
6,stimuli/6.png,s,1,0,1,0,23,0,23,0,0,0,0,0,,,,,,,,,,,,,,,,,,390.9542015448369,390.9542015448369,390.9542015448369,390.9542015448369,s,1,0.6956529598301131,391.6792822233256,391.6792822233256,391.6792822233256,,,,,,,,,,,,,,,,,,,,,,,,,,,,103,001,2023-03-01_12h13.05.836,eb_01,2022.2.4,120.00438310615382,
,,,1,0,1,0,23,0,23,0,,,,,,,,,,,,,,,,,,,,,,,,,,,,,,,,,,,,,,,,,,,,,,,,,,,,,,,,,,,103,001,2023-03-01_12h13.05.836,eb_01,2022.2.4,120.00438310615382,
8,stimuli/8.png,l,1,0,1,0,24,0,24,0,0,0,0,0,,,,,,,,,,,,,,,,,,392.6877260333349,392.6877260333349,392.6877260333349,392.6877260333349,l,1,0.4822279871259525,393.1877750848889,393.1877750848889,393.1877750848889,,,,,,,,,,,,,,,,,,,,,,,,,,,,103,001,2023-03-01_12h13.05.836,eb_01,2022.2.4,120.00438310615382,
,,,1,0,1,0,24,0,24,0,,,,,,,,,,,,,,,,,,,,,,,,,,,,,,,,,,,,,,,,,,,,,,,,,,,,,,,,,,,103,001,2023-03-01_12h13.05.836,eb_01,2022.2.4,120.00438310615382,
3,stimuli/3.png,l,1,0,1,0,25,0,25,0,0,0,0,0,,,,,,,,,,,,,,,,,,394.1962234227358,394.1962234227358,394.1962234227358,394.1962234227358,l,1,0.5177624422958615,394.7296148532332,394.7296148532332,394.7296148532332,395.7380541354087,395.7380541354087,395.7380541354087,,,,,,,,,,,,,,,,,,,,,,,,,103,001,2023-03-01_12h13.05.836,eb_01,2022.2.4,120.00438310615382,
,,,1,0,1,0,25,0,25,0,,,,,,,,,,,,,,,,,,,,,,,,,,,,,,,,,,,,,,,,,,,,,,,,,,,,,,,,,,,103,001,2023-03-01_12h13.05.836,eb_01,2022.2.4,120.00438310615382,
2,stimuli/2.png,s,1,0,1,0,26,0,26,0,0,0,0,0,,,,,,,,,,,,,,,,,,395.7380541354087,395.7380541354087,395.7380541354087,395.7380541354087,s,1,0.6239987512526568,396.3714624396398,396.3714624396398,396.3714624396398,397.39655630922243,397.39655630922243,397.39655630922243,,,,,,,,,,,,,,,,,,,,,,,,,103,001,2023-03-01_12h13.05.836,eb_01,2022.2.4,120.00438310615382,
,,,1,0,1,0,26,0,26,0,,,,,,,,,,,,,,,,,,,,,,,,,,,,,,,,,,,,,,,,,,,,,,,,,,,,,,,,,,,103,001,2023-03-01_12h13.05.836,eb_01,2022.2.4,120.00438310615382,
1,stimuli/1.png,s,1,0,1,0,27,0,27,0,0,0,0,0,,,,,,,,,,,,,,,,,,397.39655630922243,397.39655630922243,397.39655630922243,397.39655630922243,s,1,0.6295408222431433,398.0549652096197,398.0549652096197,398.0549652096197,,,,,,,,,,,,,,,,,,,,,,,,,,,,103,001,2023-03-01_12h13.05.836,eb_01,2022.2.4,120.00438310615382,
,,,1,0,1,0,27,0,27,0,,,,,,,,,,,,,,,,,,,,,,,,,,,,,,,,,,,,,,,,,,,,,,,,,,,,,,,,,,,103,001,2023-03-01_12h13.05.836,eb_01,2022.2.4,120.00438310615382,
4,stimuli/4.png,l,1,0,1,0,28,0,28,0,0,0,0,0,,,,,,,,,,,,,,,,,,399.06340811406335,399.06340811406335,399.06340811406335,399.06340811406335,l,1,0.9627937613367976,400.0468495167752,400.0468495167752,400.0468495167752,,,,,,,,,,,,,,,,,,,,,,,,,,,,103,001,2023-03-01_12h13.05.836,eb_01,2022.2.4,120.00438310615382,
,,,1,0,1,0,28,0,28,0,,,,,,,,,,,,,,,,,,,,,,,,,,,,,,,,,,,,,,,,,,,,,,,,,,,,,,,,,,,103,001,2023-03-01_12h13.05.836,eb_01,2022.2.4,120.00438310615382,
1,stimuli/1.png,s,1,0,1,0,29,0,29,0,0,0,0,0,,,,,,,,,,,,,,,,,,401.0719560642974,401.0719560642974,401.0719560642974,401.0719560642974,s,1,2.3294065870031773,403.4305440556909,403.4305440556909,403.4305440556909,,,,,,,,,,,,,,,,,,,,,,,,,,,,103,001,2023-03-01_12h13.05.836,eb_01,2022.2.4,120.00438310615382,
,,,1,0,1,0,29,0,29,0,,,,,,,,,,,,,,,,,,,,,,,,,,,,,,,,,,,,,,,,,,,,,,,,,,,,,,,,,,,103,001,2023-03-01_12h13.05.836,eb_01,2022.2.4,120.00438310615382,
2,stimuli/2.png,s,1,0,1,0,30,0,30,0,0,0,0,0,,,,,,,,,,,,,,,,,,404.43065121447216,404.43065121447216,404.43065121447216,404.43065121447216,s,1,0.594739876467429,405.0390501687234,405.0390501687234,405.0390501687234,406.055833648521,406.055833648521,406.055833648521,,,,,,,,,,,,,,,,,,,,,,,,,103,001,2023-03-01_12h13.05.836,eb_01,2022.2.4,120.00438310615382,
,,,1,0,1,0,30,0,30,0,,,,,,,,,,,,,,,,,,,,,,,,,,,,,,,,,,,,,,,,,,,,,,,,,,,,,,,,,,,103,001,2023-03-01_12h13.05.836,eb_01,2022.2.4,120.00438310615382,
4,stimuli/4.png,l,1,0,1,0,31,0,31,0,0,0,0,0,,,,,,,,,,,,,,,,,,406.055833648521,406.055833648521,406.055833648521,406.055833648521,l,1,0.5456354974776332,406.62255840229045,406.62255840229045,406.62255840229045,,,,,,,,,,,,,,,,,,,,,,,,,,,,103,001,2023-03-01_12h13.05.836,eb_01,2022.2.4,120.00438310615382,
,,,1,0,1,0,31,0,31,0,,,,,,,,,,,,,,,,,,,,,,,,,,,,,,,,,,,,,,,,,,,,,,,,,,,,,,,,,,,103,001,2023-03-01_12h13.05.836,eb_01,2022.2.4,120.00438310615382,
2,stimuli/2.png,s,1,0,1,0,32,0,32,0,0,0,0,0,,,,,,,,,,,,,,,,,,407.6309922510627,407.6309922510627,407.6309922510627,407.6309922510627,s,1,1.6825943795975036,409.3228434446446,409.3228434446446,409.3228434446446,410.3479478791778,410.3479478791778,410.3479478791778,,,,,,,,,,,,,,,,,,,,,,,,,103,001,2023-03-01_12h13.05.836,eb_01,2022.2.4,120.00438310615382,
,,,1,0,1,0,32,0,32,0,,,,,,,,,,,,,,,,,,,,,,,,,,,,,,,,,,,,,,,,,,,,,,,,,,,,,,,,,,,103,001,2023-03-01_12h13.05.836,eb_01,2022.2.4,120.00438310615382,
1,stimuli/1.png,s,1,0,1,0,33,0,33,0,0,0,0,0,,,,,,,,,,,,,,,,,,410.3479478791778,410.3479478791778,410.3479478791778,410.3479478791778,s,1,0.6296829962848278,411.0063480257577,411.0063480257577,411.0063480257577,,,,,,,,,,,,,,,,,,,,,,,,,,,,103,001,2023-03-01_12h13.05.836,eb_01,2022.2.4,120.00438310615382,
,,,1,0,1,0,33,0,33,0,,,,,,,,,,,,,,,,,,,,,,,,,,,,,,,,,,,,,,,,,,,,,,,,,,,,,,,,,,,103,001,2023-03-01_12h13.05.836,eb_01,2022.2.4,120.00438310615382,
4,stimuli/4.png,l,1,0,1,0,34,0,34,0,0,0,0,0,,,,,,,,,,,,,,,,,,412.01478640236564,412.01478640236564,412.01478640236564,412.01478640236564,l,1,0.8269420859924139,412.86489571941456,412.86489571941456,412.86489571941456,,,,,,,,,,,,,,,,,,,,,,,,,,,,103,001,2023-03-01_12h13.05.836,eb_01,2022.2.4,120.00438310615382,
,,,1,0,1,0,34,0,34,0,,,,,,,,,,,,,,,,,,,,,,,,,,,,,,,,,,,,,,,,,,,,,,,,,,,,,,,,,,,103,001,2023-03-01_12h13.05.836,eb_01,2022.2.4,120.00438310615382,
1,stimuli/1.png,s,1,0,1,0,35,0,35,0,0,0,0,0,,,,,,,,,,,,,,,,,,413.88998989085303,413.88998989085303,413.88998989085303,413.88998989085303,s,1,0.5998134673827735,414.51505279003686,414.51505279003686,414.51505279003686,,,,,,,,,,,,,,,,,,,,,,,,,,,,103,001,2023-03-01_12h13.05.836,eb_01,2022.2.4,120.00438310615382,
,,,1,0,1,0,35,0,35,0,,,,,,,,,,,,,,,,,,,,,,,,,,,,,,,,,,,,,,,,,,,,,,,,,,,,,,,,,,,103,001,2023-03-01_12h13.05.836,eb_01,2022.2.4,120.00438310615382,
4,stimuli/4.png,l,1,0,1,0,36,0,36,0,0,0,0,0,,,,,,,,,,,,,,,,,,415.52350233530706,415.52350233530706,415.52350233530706,415.52350233530706,l,1,0.5423410441671876,416.0902370503154,416.0902370503154,416.0902370503154,,,,,,,,,,,,,,,,,,,,,,,,,,,,103,001,2023-03-01_12h13.05.836,eb_01,2022.2.4,120.00438310615382,
,,,1,0,1,0,36,0,36,0,,,,,,,,,,,,,,,,,,,,,,,,,,,,,,,,,,,,,,,,,,,,,,,,,,,,,,,,,,,103,001,2023-03-01_12h13.05.836,eb_01,2022.2.4,120.00438310615382,
3,stimuli/3.png,l,1,0,1,0,37,0,37,0,0,0,0,0,,,,,,,,,,,,,,,,,,417.0986675786735,417.0986675786735,417.0986675786735,417.0986675786735,l,1,0.5912842322049983,417.7070888702474,417.7070888702474,417.7070888702474,,,,,,,,,,,,,,,,,,,,,,,,,,,,103,001,2023-03-01_12h13.05.836,eb_01,2022.2.4,120.00438310615382,
,,,1,0,1,0,37,0,37,0,,,,,,,,,,,,,,,,,,,,,,,,,,,,,,,,,,,,,,,,,,,,,,,,,,,,,,,,,,,103,001,2023-03-01_12h13.05.836,eb_01,2022.2.4,120.00438310615382,
2,stimuli/2.png,s,1,0,1,0,38,0,38,0,0,0,0,0,,,,,,,,,,,,,,,,,,418.7155012872645,418.7155012872645,418.7155012872645,418.7155012872645,s,1,1.381525599055749,420.10732781923434,420.10732781923434,420.10732781923434,421.1241001303715,421.1241001303715,421.1241001303715,,,,,,,,,,,,,,,,,,,,,,,,,103,001,2023-03-01_12h13.05.836,eb_01,2022.2.4,120.00438310615382,
,,,1,0,1,0,38,0,38,0,,,,,,,,,,,,,,,,,,,,,,,,,,,,,,,,,,,,,,,,,,,,,,,,,,,,,,,,,,,103,001,2023-03-01_12h13.05.836,eb_01,2022.2.4,120.00438310615382,
4,stimuli/4.png,l,1,0,1,0,39,0,39,0,0,0,0,0,,,,,,,,,,,,,,,,,,421.1241001303715,421.1241001303715,421.1241001303715,421.1241001303715,l,1,0.6209883441733837,421.76581761696434,421.76581761696434,421.76581761696434,,,,,,,,,,,,,,,,,,,,,,,,,,,,103,001,2023-03-01_12h13.05.836,eb_01,2022.2.4,120.00438310615382,
,,,1,0,1,0,39,0,39,0,,,,,,,,,,,,,,,,,,,,,,,,,,,,,,,,,,,,,,,,,,,,,,,,,,,,,,,,,,,103,001,2023-03-01_12h13.05.836,eb_01,2022.2.4,120.00438310615382,
1,stimuli/1.png,s,1,0,1,0,40,0,40,0,0,0,0,0,,,,,,,,,,,,,,,,,,422.79094227582937,422.79094227582937,422.79094227582937,422.79094227582937,s,1,0.6902177457650396,423.50768751050964,423.50768751050964,423.50768751050964,,,,,,,,,,,,,,,,,,,,,,,,,,,,103,001,2023-03-01_12h13.05.836,eb_01,2022.2.4,120.00438310615382,
,,,1,0,1,0,40,0,40,0,,,,,,,,,,,,,,,,,,,,,,,,,,,,,,,,,,,,,,,,,,,,,,,,,,,,,,,,,,,103,001,2023-03-01_12h13.05.836,eb_01,2022.2.4,120.00438310615382,
2,stimuli/2.png,s,1,0,1,0,41,0,41,0,0,0,0,0,,,,,,,,,,,,,,,,,,424.50779617856824,424.50779617856824,424.50779617856824,424.50779617856824,s,1,1.9334838729337207,426.44967446370174,426.44967446370174,426.44967446370174,427.4664576416435,427.4664576416435,427.4664576416435,,,,,,,,,,,,,,,,,,,,,,,,,103,001,2023-03-01_12h13.05.836,eb_01,2022.2.4,120.00438310615382,
,,,1,0,1,0,41,0,41,0,,,,,,,,,,,,,,,,,,,,,,,,,,,,,,,,,,,,,,,,,,,,,,,,,,,,,,,,,,,103,001,2023-03-01_12h13.05.836,eb_01,2022.2.4,120.00438310615382,
4,stimuli/4.png,l,1,0,1,0,42,0,42,0,0,0,0,0,,,,,,,,,,,,,,,,,,427.4664576416435,427.4664576416435,427.4664576416435,427.4664576416435,l,1,0.5268878425176808,428.0165015465591,428.0165015465591,428.0165015465591,,,,,,,,,,,,,,,,,,,,,,,,,,,,103,001,2023-03-01_12h13.05.836,eb_01,2022.2.4,120.00438310615382,
,,,1,0,1,0,42,0,42,0,,,,,,,,,,,,,,,,,,,,,,,,,,,,,,,,,,,,,,,,,,,,,,,,,,,,,,,,,,,103,001,2023-03-01_12h13.05.836,eb_01,2022.2.4,120.00438310615382,
3,stimuli/3.png,l,1,0,1,0,43,0,43,0,0,0,0,0,,,,,,,,,,,,,,,,,,429.0249453565684,429.0249453565684,429.0249453565684,429.0249453565684,l,1,0.5044551329501701,429.5416698235749,429.5416698235749,429.5416698235749,430.55845088852766,430.55845088852766,430.55845088852766,,,,,,,,,,,,,,,,,,,,,,,,,103,001,2023-03-01_12h13.05.836,eb_01,2022.2.4,120.00438310615382,
,,,1,0,1,0,43,0,43,0,,,,,,,,,,,,,,,,,,,,,,,,,,,,,,,,,,,,,,,,,,,,,,,,,,,,,,,,,,,103,001,2023-03-01_12h13.05.836,eb_01,2022.2.4,120.00438310615382,
4,stimuli/4.png,l,1,0,1,0,44,0,44,0,0,0,0,0,,,,,,,,,,,,,,,,,,430.55845088852766,430.55845088852766,430.55845088852766,430.55845088852766,l,1,0.5629994458213332,431.1418404927972,431.1418404927972,431.1418404927972,,,,,,,,,,,,,,,,,,,,,,,,,,,,103,001,2023-03-01_12h13.05.836,eb_01,2022.2.4,120.00438310615382,
,,,1,0,1,0,44,0,44,0,,,,,,,,,,,,,,,,,,,,,,,,,,,,,,,,,,,,,,,,,,,,,,,,,,,,,,,,,,,103,001,2023-03-01_12h13.05.836,eb_01,2022.2.4,120.00438310615382,
2,stimuli/2.png,s,1,0,1,0,45,0,45,0,0,0,0,0,,,,,,,,,,,,,,,,,,432.15028218981934,432.15028218981934,432.15028218981934,432.15028218981934,s,1,1.707308514685792,433.8671318665765,433.8671318665765,433.8671318665765,434.87558352483575,434.87558352483575,434.87558352483575,,,,,,,,,,,,,,,,,,,,,,,,,103,001,2023-03-01_12h13.05.836,eb_01,2022.2.4,120.00438310615382,
,,,1,0,1,0,45,0,45,0,,,,,,,,,,,,,,,,,,,,,,,,,,,,,,,,,,,,,,,,,,,,,,,,,,,,,,,,,,,103,001,2023-03-01_12h13.05.836,eb_01,2022.2.4,120.00438310615382,
3,stimuli/3.png,l,1,0,1,0,46,0,46,0,0,0,0,0,,,,,,,,,,,,,,,,,,434.87558352483575,434.87558352483575,434.87558352483575,434.87558352483575,l,1,0.6770695143841294,435.5673145798428,435.5673145798428,435.5673145798428,436.5757589935656,436.5757589935656,436.5757589935656,,,,,,,,,,,,,,,,,,,,,,,,,103,001,2023-03-01_12h13.05.836,eb_01,2022.2.4,120.00438310615382,
,,,1,0,1,0,46,0,46,0,,,,,,,,,,,,,,,,,,,,,,,,,,,,,,,,,,,,,,,,,,,,,,,,,,,,,,,,,,,103,001,2023-03-01_12h13.05.836,eb_01,2022.2.4,120.00438310615382,
2,stimuli/2.png,s,1,0,1,0,47,0,47,0,0,0,0,0,,,,,,,,,,,,,,,,,,436.5757589935656,436.5757589935656,436.5757589935656,436.5757589935656,s,1,0.97697826339936,437.5675313122483,437.5675313122483,437.5675313122483,438.5843030196738,438.5843030196738,438.5843030196738,,,,,,,,,,,,,,,,,,,,,,,,,103,001,2023-03-01_12h13.05.836,eb_01,2022.2.4,120.00438310615382,
,,,1,0,1,0,47,0,47,0,,,,,,,,,,,,,,,,,,,,,,,,,,,,,,,,,,,,,,,,,,,,,,,,,,,,,,,,,,,103,001,2023-03-01_12h13.05.836,eb_01,2022.2.4,120.00438310615382,
4,stimuli/4.png,l,1,0,1,0,48,0,48,0,0,0,0,0,,,,,,,,,,,,,,,,,,438.5843030196738,438.5843030196738,438.5843030196738,438.5843030196738,l,1,0.6405030145106139,439.24269531800746,439.24269531800746,439.24269531800746,,,,,,,,,,,,,,,,,,,,,,,,,,,,103,001,2023-03-01_12h13.05.836,eb_01,2022.2.4,120.00438310615382,
,,,1,0,1,0,48,0,48,0,,,,,,,,,,,,,,,,,,,,,,,,,,,,,,,,,,,,,,,,,,,,,,,,,,,,,,,,,,,103,001,2023-03-01_12h13.05.836,eb_01,2022.2.4,120.00438310615382,
3,stimuli/3.png,l,1,0,1,0,49,0,49,0,0,0,0,0,,,,,,,,,,,,,,,,,,440.2511490892557,440.2511490892557,440.2511490892557,440.2511490892557,l,1,0.6457100256538979,440.90955315996143,440.90955315996143,440.90955315996143,441.91801025162385,441.91801025162385,441.91801025162385,,,,,,,,,,,,,,,,,,,,,,,,,103,001,2023-03-01_12h13.05.836,eb_01,2022.2.4,120.00438310615382,
,,,1,0,1,0,49,0,49,0,,,,,,,,,,,,,,,,,,,,,,,,,,,,,,,,,,,,,,,,,,,,,,,,,,,,,,,,,,,103,001,2023-03-01_12h13.05.836,eb_01,2022.2.4,120.00438310615382,
2,stimuli/2.png,s,1,0,1,0,50,0,50,0,0,0,0,0,,,,,,,,,,,,,,,,,,441.91801025162385,441.91801025162385,441.91801025162385,441.91801025162385,s,1,0.9549491349262098,442.8847641646553,442.8847641646553,442.8847641646553,443.90153828692746,443.90153828692746,443.90153828692746,,,,,,,,,,,,,,,,,,,,,,,,,103,001,2023-03-01_12h13.05.836,eb_01,2022.2.4,120.00438310615382,
,,,1,0,1,0,50,0,50,0,,,,,,,,,,,,,,,,,,,,,,,,,,,,,,,,,,,,,,,,,,,,,,,,,,,,,,,,,,,103,001,2023-03-01_12h13.05.836,eb_01,2022.2.4,120.00438310615382,
4,stimuli/4.png,l,1,0,1,0,51,0,51,0,0,0,0,0,,,,,,,,,,,,,,,,,,443.90153828692746,443.90153828692746,443.90153828692746,443.90153828692746,l,1,0.5314769550059282,444.4516018124632,444.4516018124632,444.4516018124632,,,,,,,,,,,,,,,,,,,,,,,,,,,,103,001,2023-03-01_12h13.05.836,eb_01,2022.2.4,120.00438310615382,
,,,1,0,1,0,51,0,51,0,,,,,,,,,,,,,,,,,,,,,,,,,,,,,,,,,,,,,,,,,,,,,,,,,,,,,,,,,,,103,001,2023-03-01_12h13.05.836,eb_01,2022.2.4,120.00438310615382,
1,stimuli/1.png,s,1,0,1,0,52,0,52,0,0,0,0,0,,,,,,,,,,,,,,,,,,445.4766947764783,445.4766947764783,445.4766947764783,445.4766947764783,s,1,0.7564237604819937,446.2601238634761,446.2601238634761,446.2601238634761,,,,,,,,,,,,,,,,,,,,,,,,,,,,103,001,2023-03-01_12h13.05.836,eb_01,2022.2.4,120.00438310615382,
,,,1,0,1,0,52,0,52,0,,,,,,,,,,,,,,,,,,,,,,,,,,,,,,,,,,,,,,,,,,,,,,,,,,,,,,,,,,,103,001,2023-03-01_12h13.05.836,eb_01,2022.2.4,120.00438310615382,
4,stimuli/4.png,l,1,0,1,0,53,0,53,0,0,0,0,0,,,,,,,,,,,,,,,,,,447.2685737106003,447.2685737106003,447.2685737106003,447.2685737106003,l,1,0.9806053617103316,448.26867090814267,448.26867090814267,448.26867090814267,,,,,,,,,,,,,,,,,,,,,,,,,,,,103,001,2023-03-01_12h13.05.836,eb_01,2022.2.4,120.00438310615382,
,,,1,0,1,0,53,0,53,0,,,,,,,,,,,,,,,,,,,,,,,,,,,,,,,,,,,,,,,,,,,,,,,,,,,,,,,,,,,103,001,2023-03-01_12h13.05.836,eb_01,2022.2.4,120.00438310615382,
1,stimuli/1.png,s,1,0,1,0,54,0,54,0,0,0,0,0,,,,,,,,,,,,,,,,,,449.2937868131921,449.2937868131921,449.2937868131921,449.2937868131921,s,1,1.0824904204873746,450.40225081735116,450.40225081735116,450.40225081735116,,,,,,,,,,,,,,,,,,,,,,,,,,,,103,001,2023-03-01_12h13.05.836,eb_01,2022.2.4,120.00438310615382,
,,,1,0,1,0,54,0,54,0,,,,,,,,,,,,,,,,,,,,,,,,,,,,,,,,,,,,,,,,,,,,,,,,,,,,,,,,,,,103,001,2023-03-01_12h13.05.836,eb_01,2022.2.4,120.00438310615382,
4,stimuli/4.png,l,1,0,1,0,55,0,55,0,0,0,0,0,,,,,,,,,,,,,,,,,,451.41067530859436,451.41067530859436,451.41067530859436,451.41067530859436,l,1,0.5176374740276515,451.95242784063703,451.95242784063703,451.95242784063703,,,,,,,,,,,,,,,,,,,,,,,,,,,,103,001,2023-03-01_12h13.05.836,eb_01,2022.2.4,120.00438310615382,
,,,1,0,1,0,55,0,55,0,,,,,,,,,,,,,,,,,,,,,,,,,,,,,,,,,,,,,,,,,,,,,,,,,,,,,,,,,,,103,001,2023-03-01_12h13.05.836,eb_01,2022.2.4,120.00438310615382,
2,stimuli/2.png,s,1,0,1,0,56,0,56,0,0,0,0,0,,,,,,,,,,,,,,,,,,452.96088131002944,452.96088131002944,452.96088131002944,452.96088131002944,s,1,2.4955799711187865,455.46945506892735,455.46945506892735,455.46945506892735,456.4862153058366,456.4862153058366,456.4862153058366,,,,,,,,,,,,,,,,,,,,,,,,,103,001,2023-03-01_12h13.05.836,eb_01,2022.2.4,120.00438310615382,
,,,1,0,1,0,56,0,56,0,,,,,,,,,,,,,,,,,,,,,,,,,,,,,,,,,,,,,,,,,,,,,,,,,,,,,,,,,,,103,001,2023-03-01_12h13.05.836,eb_01,2022.2.4,120.00438310615382,
4,stimuli/4.png,l,1,0,1,0,57,0,57,0,0,0,0,0,,,,,,,,,,,,,,,,,,456.4862153058366,456.4862153058366,456.4862153058366,456.4862153058366,l,1,0.9063397993140825,457.4113209779771,457.4113209779771,457.4113209779771,,,,,,,,,,,,,,,,,,,,,,,,,,,,103,001,2023-03-01_12h13.05.836,eb_01,2022.2.4,120.00438310615382,
,,,1,0,1,0,57,0,57,0,,,,,,,,,,,,,,,,,,,,,,,,,,,,,,,,,,,,,,,,,,,,,,,,,,,,,,,,,,,103,001,2023-03-01_12h13.05.836,eb_01,2022.2.4,120.00438310615382,
2,stimuli/2.png,s,1,0,1,0,58,0,58,0,0,0,0,0,,,,,,,,,,,,,,,,,,458.41976237314157,458.41976237314157,458.41976237314157,458.41976237314157,s,1,0.6128424657563301,459.0751152862449,459.0751152862449,459.0751152862449,,,,,,,,,,,,,,,,,,,,,,,,,,,,103,001,2023-03-01_12h13.05.836,eb_01,2022.2.4,120.00438310615382,
,,,1,0,1,0,58,0,58,0,,,,,,,,,,,,,,,,,,,,,,,,,,,,,,,,,,,,,,,,,,,,,,,,,,,,,,,,,,,103,001,2023-03-01_12h13.05.836,eb_01,2022.2.4,120.00438310615382,
1,stimuli/1.png,s,1,0,1,0,59,0,59,0,0,0,0,0,,,,,,,,,,,,,,,,,,460.0782645469553,460.0782645469553,460.0782645469553,460.0782645469553,s,1,0.5944190038408124,460.7033328795442,460.7033328795442,460.7033328795442,,,,,,,,,,,,,,,,,,,,,,,,,,,,103,001,2023-03-01_12h13.05.836,eb_01,2022.2.4,120.00438310615382,
,,,1,0,1,0,59,0,59,0,,,,,,,,,,,,,,,,,,,,,,,,,,,,,,,,,,,,,,,,,,,,,,,,,,,,,,,,,,,103,001,2023-03-01_12h13.05.836,eb_01,2022.2.4,120.00438310615382,
4,stimuli/4.png,l,1,0,1,0,60,0,60,0,0,0,0,0,,,,,,,,,,,,,,,,,,461.71178121739104,461.71178121739104,461.71178121739104,461.71178121739104,l,1,0.4089582467422588,462.14515667972046,462.14515667972046,462.14515667972046,,,,,,,,,,,,,,,,,,,,,,,,,,,,103,001,2023-03-01_12h13.05.836,eb_01,2022.2.4,120.00438310615382,
,,,1,0,1,0,60,0,60,0,,,,,,,,,,,,,,,,,,,,,,,,,,,,,,,,,,,,,,,,,,,,,,,,,,,,,,,,,,,103,001,2023-03-01_12h13.05.836,eb_01,2022.2.4,120.00438310615382,
3,stimuli/3.png,l,1,0,1,0,61,0,61,0,0,0,0,0,,,,,,,,,,,,,,,,,,463.1535986785966,463.1535986785966,463.1535986785966,463.1535986785966,l,1,0.46321349171194015,463.62865105811034,463.62865105811034,463.62865105811034,464.6454248785267,464.6454248785267,464.6454248785267,,,,,,,,,,,,,,,,,,,,,,,,,103,001,2023-03-01_12h13.05.836,eb_01,2022.2.4,120.00438310615382,
,,,1,0,1,0,61,0,61,0,,,,,,,,,,,,,,,,,,,,,,,,,,,,,,,,,,,,,,,,,,,,,,,,,,,,,,,,,,,103,001,2023-03-01_12h13.05.836,eb_01,2022.2.4,120.00438310615382,
4,stimuli/4.png,l,1,0,1,0,62,0,62,0,0,0,0,0,,,,,,,,,,,,,,,,,,464.6454248785267,464.6454248785267,464.6454248785267,464.6454248785267,l,1,0.8425193503389892,465.51219119782763,465.51219119782763,465.51219119782763,,,,,,,,,,,,,,,,,,,,,,,,,,,,103,001,2023-03-01_12h13.05.836,eb_01,2022.2.4,120.00438310615382,
,,,1,0,1,0,62,0,62,0,,,,,,,,,,,,,,,,,,,,,,,,,,,,,,,,,,,,,,,,,,,,,,,,,,,,,,,,,,,103,001,2023-03-01_12h13.05.836,eb_01,2022.2.4,120.00438310615382,
2,stimuli/2.png,s,1,0,1,0,63,0,63,0,0,0,0,0,,,,,,,,,,,,,,,,,,466.52062202804154,466.52062202804154,466.52062202804154,466.52062202804154,s,1,1.2233568248811935,467.7541131614835,467.7541131614835,467.7541131614835,468.7791943531247,468.7791943531247,468.7791943531247,,,,,,,,,,,,,,,,,,,,,,,,,103,001,2023-03-01_12h13.05.836,eb_01,2022.2.4,120.00438310615382,
,,,1,0,1,0,63,0,63,0,,,,,,,,,,,,,,,,,,,,,,,,,,,,,,,,,,,,,,,,,,,,,,,,,,,,,,,,,,,103,001,2023-03-01_12h13.05.836,eb_01,2022.2.4,120.00438310615382,
1,stimuli/1.png,s,1,0,1,0,64,0,64,0,0,0,0,0,,,,,,,,,,,,,,,,,,468.7791943531247,468.7791943531247,468.7791943531247,468.7791943531247,s,1,0.6368255062952812,469.4459344713505,469.4459344713505,469.4459344713505,,,,,,,,,,,,,,,,,,,,,,,,,,,,103,001,2023-03-01_12h13.05.836,eb_01,2022.2.4,120.00438310615382,
,,,1,0,1,0,64,0,64,0,,,,,,,,,,,,,,,,,,,,,,,,,,,,,,,,,,,,,,,,,,,,,,,,,,,,,,,,,,,103,001,2023-03-01_12h13.05.836,eb_01,2022.2.4,120.00438310615382,
4,stimuli/4.png,l,1,0,1,0,65,0,65,0,0,0,0,0,,,,,,,,,,,,,,,,,,470.45438129991817,470.45438129991817,470.45438129991817,470.45438129991817,l,1,0.44172528868693917,470.9127643010943,470.9127643010943,470.9127643010943,,,,,,,,,,,,,,,,,,,,,,,,,,,,103,001,2023-03-01_12h13.05.836,eb_01,2022.2.4,120.00438310615382,
,,,1,0,1,0,65,0,65,0,,,,,,,,,,,,,,,,,,,,,,,,,,,,,,,,,,,,,,,,,,,,,,,,,,,,,,,,,,,103,001,2023-03-01_12h13.05.836,eb_01,2022.2.4,120.00438310615382,
1,stimuli/1.png,s,1,0,1,0,66,0,66,0,0,0,0,0,,,,,,,,,,,,,,,,,,471.9378705467607,471.9378705467607,471.9378705467607,471.9378705467607,s,1,0.790311290853424,472.75462903290645,472.75462903290645,472.75462903290645,,,,,,,,,,,,,,,,,,,,,,,,,,,,103,001,2023-03-01_12h13.05.836,eb_01,2022.2.4,120.00438310615382,
,,,1,0,1,0,66,0,66,0,,,,,,,,,,,,,,,,,,,,,,,,,,,,,,,,,,,,,,,,,,,,,,,,,,,,,,,,,,,103,001,2023-03-01_12h13.05.836,eb_01,2022.2.4,120.00438310615382,
2,stimuli/2.png,s,1,0,1,0,67,0,67,0,0,0,0,0,,,,,,,,,,,,,,,,,,473.7547380028209,473.7547380028209,473.7547380028209,473.7547380028209,s,1,2.7335995440462284,476.4966912085438,476.4966912085438,476.4966912085438,477.52179986905503,477.52179986905503,477.52179986905503,,,,,,,,,,,,,,,,,,,,,,,,,103,001,2023-03-01_12h13.05.836,eb_01,2022.2.4,120.00438310615382,
,,,1,0,1,0,67,0,67,0,,,,,,,,,,,,,,,,,,,,,,,,,,,,,,,,,,,,,,,,,,,,,,,,,,,,,,,,,,,103,001,2023-03-01_12h13.05.836,eb_01,2022.2.4,120.00438310615382,
1,stimuli/1.png,s,1,0,1,0,68,0,68,0,0,0,0,0,,,,,,,,,,,,,,,,,,477.52179986905503,477.52179986905503,477.52179986905503,477.52179986905503,s,1,0.5105997079535882,478.0635351953206,478.0635351953206,478.0635351953206,,,,,,,,,,,,,,,,,,,,,,,,,,,,103,001,2023-03-01_12h13.05.836,eb_01,2022.2.4,120.00438310615382,
,,,1,0,1,0,68,0,68,0,,,,,,,,,,,,,,,,,,,,,,,,,,,,,,,,,,,,,,,,,,,,,,,,,,,,,,,,,,,103,001,2023-03-01_12h13.05.836,eb_01,2022.2.4,120.00438310615382,
4,stimuli/4.png,l,1,0,1,0,69,0,69,0,0,0,0,0,,,,,,,,,,,,,,,,,,479.0719723645052,479.0719723645052,479.0719723645052,479.0719723645052,l,1,0.3204728651635378,479.4136682080425,479.4136682080425,479.4136682080425,,,,,,,,,,,,,,,,,,,,,,,,,,,,103,001,2023-03-01_12h13.05.836,eb_01,2022.2.4,120.00438310615382,
,,,1,0,1,0,69,0,69,0,,,,,,,,,,,,,,,,,,,,,,,,,,,,,,,,,,,,,,,,,,,,,,,,,,,,,,,,,,,103,001,2023-03-01_12h13.05.836,eb_01,2022.2.4,120.00438310615382,
2,stimuli/2.png,s,1,0,1,0,70,0,70,0,0,0,0,0,,,,,,,,,,,,,,,,,,480.42211624403353,480.42211624403353,480.42211624403353,480.42211624403353,s,1,0.8174577793179196,481.2555359584112,481.2555359584112,481.2555359584112,482.2639794665665,482.2639794665665,482.2639794665665,,,,,,,,,,,,,,,,,,,,,,,,,103,001,2023-03-01_12h13.05.836,eb_01,2022.2.4,120.00438310615382,
,,,1,0,1,0,70,0,70,0,,,,,,,,,,,,,,,,,,,,,,,,,,,,,,,,,,,,,,,,,,,,,,,,,,,,,,,,,,,103,001,2023-03-01_12h13.05.836,eb_01,2022.2.4,120.00438310615382,
3,stimuli/3.png,l,1,0,1,0,71,0,71,0,0,0,0,0,,,,,,,,,,,,,,,,,,482.2639794665665,482.2639794665665,482.2639794665665,482.2639794665665,l,1,0.4236036824877374,482.6973654938465,482.6973654938465,482.6973654938465,483.7141359938505,483.7141359938505,483.7141359938505,,,,,,,,,,,,,,,,,,,,,,,,,103,001,2023-03-01_12h13.05.836,eb_01,2022.2.4,120.00438310615382,
,,,1,0,1,0,71,0,71,0,,,,,,,,,,,,,,,,,,,,,,,,,,,,,,,,,,,,,,,,,,,,,,,,,,,,,,,,,,,103,001,2023-03-01_12h13.05.836,eb_01,2022.2.4,120.00438310615382,
4,stimuli/4.png,l,1,0,1,0,72,0,72,0,0,0,0,0,,,,,,,,,,,,,,,,,,483.7141359938505,483.7141359938505,483.7141359938505,483.7141359938505,l,1,0.5575123125727259,484.2891986062714,484.2891986062714,484.2891986062714,,,,,,,,,,,,,,,,,,,,,,,,,,,,103,001,2023-03-01_12h13.05.836,eb_01,2022.2.4,120.00438310615382,
,,,1,0,1,0,72,0,72,0,,,,,,,,,,,,,,,,,,,,,,,,,,,,,,,,,,,,,,,,,,,,,,,,,,,,,,,,,,,103,001,2023-03-01_12h13.05.836,eb_01,2022.2.4,120.00438310615382,
1,stimuli/1.png,s,1,0,1,0,73,0,73,0,0,0,0,0,,,,,,,,,,,,,,,,,,485.3143033426604,485.3143033426604,485.3143033426604,485.3143033426604,s,1,0.5334124538730975,485.872717404789,485.872717404789,485.872717404789,,,,,,,,,,,,,,,,,,,,,,,,,,,,103,001,2023-03-01_12h13.05.836,eb_01,2022.2.4,120.00438310615382,
,,,1,0,1,0,73,0,73,0,,,,,,,,,,,,,,,,,,,,,,,,,,,,,,,,,,,,,,,,,,,,,,,,,,,,,,,,,,,103,001,2023-03-01_12h13.05.836,eb_01,2022.2.4,120.00438310615382,
4,stimuli/4.png,l,1,0,1,0,74,0,74,0,0,0,0,0,,,,,,,,,,,,,,,,,,486.8811406886125,486.8811406886125,486.8811406886125,486.8811406886125,l,1,0.5186414461477398,487.42288084456777,487.42288084456777,487.42288084456777,,,,,,,,,,,,,,,,,,,,,,,,,,,,103,001,2023-03-01_12h13.05.836,eb_01,2022.2.4,120.00438310615382,
,,,1,0,1,0,74,0,74,0,,,,,,,,,,,,,,,,,,,,,,,,,,,,,,,,,,,,,,,,,,,,,,,,,,,,,,,,,,,103,001,2023-03-01_12h13.05.836,eb_01,2022.2.4,120.00438310615382,
1,stimuli/1.png,s,1,0,1,0,75,0,75,0,0,0,0,0,,,,,,,,,,,,,,,,,,488.4479529805394,488.4479529805394,488.4479529805394,488.4479529805394,s,1,0.7839047050838417,489.2647271631813,489.2647271631813,489.2647271631813,,,,,,,,,,,,,,,,,,,,,,,,,,,,103,001,2023-03-01_12h13.05.836,eb_01,2022.2.4,120.00438310615382,
,,,1,0,1,0,75,0,75,0,,,,,,,,,,,,,,,,,,,,,,,,,,,,,,,,,,,,,,,,,,,,,,,,,,,,,,,,,,,103,001,2023-03-01_12h13.05.836,eb_01,2022.2.4,120.00438310615382,
2,stimuli/2.png,s,1,0,1,0,76,0,76,0,0,0,0,0,,,,,,,,,,,,,,,,,,490.2648382460866,490.2648382460866,490.2648382460866,490.2648382460866,l,0,0.5110703010195721,490.79822575245817,490.79822575245817,490.79822575245817,,,,,,,,,,,,,,,,,,,,,,,,,,,,103,001,2023-03-01_12h13.05.836,eb_01,2022.2.4,120.00438310615382,
,,,1,0,1,0,76,0,76,0,,,,,,,,,,,,,,,,,,,,,,,,,,,,,,,,,,,,,,,,,,,,,,,,,,,,,,,,,,,103,001,2023-03-01_12h13.05.836,eb_01,2022.2.4,120.00438310615382,
4,stimuli/4.png,l,1,0,1,0,77,0,77,0,0,0,0,0,,,,,,,,,,,,,,,,,,491.8149941394713,491.8149941394713,491.8149941394713,491.8149941394713,l,1,1.0250207139724807,492.8567869692506,492.8567869692506,492.8567869692506,,,,,,,,,,,,,,,,,,,,,,,,,,,,103,001,2023-03-01_12h13.05.836,eb_01,2022.2.4,120.00438310615382,
,,,1,0,1,0,77,0,77,0,,,,,,,,,,,,,,,,,,,,,,,,,,,,,,,,,,,,,,,,,,,,,,,,,,,,,,,,,,,103,001,2023-03-01_12h13.05.836,eb_01,2022.2.4,120.00438310615382,
2,stimuli/2.png,s,1,0,1,0,78,0,78,0,0,0,0,0,,,,,,,,,,,,,,,,,,493.8652380238,493.8652380238,493.8652380238,493.8652380238,s,1,0.8388198066550103,494.71530719403745,494.71530719403745,494.71530719403745,495.7237522114701,495.7237522114701,495.7237522114701,,,,,,,,,,,,,,,,,,,,,,,,,103,001,2023-03-01_12h13.05.836,eb_01,2022.2.4,120.00438310615382,
,,,1,0,1,0,78,0,78,0,,,,,,,,,,,,,,,,,,,,,,,,,,,,,,,,,,,,,,,,,,,,,,,,,,,,,,,,,,,103,001,2023-03-01_12h13.05.836,eb_01,2022.2.4,120.00438310615382,
3,stimuli/3.png,l,1,0,1,0,79,0,79,0,0,0,0,0,,,,,,,,,,,,,,,,,,495.7237522114701,495.7237522114701,495.7237522114701,495.7237522114701,l,1,2.7954838904424832,498.5323971177604,498.5323971177604,498.5323971177604,499.5408327776677,499.5408327776677,499.5408327776677,,,,,,,,,,,,,,,,,,,,,,,,,103,001,2023-03-01_12h13.05.836,eb_01,2022.2.4,120.00438310615382,
,,,1,0,1,0,79,0,79,0,,,,,,,,,,,,,,,,,,,,,,,,,,,,,,,,,,,,,,,,,,,,,,,,,,,,,,,,,,,103,001,2023-03-01_12h13.05.836,eb_01,2022.2.4,120.00438310615382,
8,stimuli/8.png,l,1,0,1,0,80,0,80,0,0,0,0,0,,,,,,,,,,,,,,,,,,499.5408327776677,499.5408327776677,499.5408327776677,499.5408327776677,l,1,0.546503332667271,500.1075590407145,500.1075590407145,500.1075590407145,,,,,,,,,,,,,,,,,,,,,,,,,,,,103,001,2023-03-01_12h13.05.836,eb_01,2022.2.4,120.00438310615382,
,,,1,0,1,0,80,0,80,0,,,,,,,,,,,,,,,,,,,,,,,,,,,,,,,,,,,,,,,,,,,,,,,,,,,,,,,,,,,103,001,2023-03-01_12h13.05.836,eb_01,2022.2.4,120.00438310615382,
3,stimuli/3.png,l,1,0,1,0,81,0,81,0,0,0,0,0,,,,,,,,,,,,,,,,,,501.1159971154666,501.1159971154666,501.1159971154666,501.1159971154666,l,1,0.7473629573814833,501.87439994856504,501.87439994856504,501.87439994856504,502.8911909747567,502.8911909747567,502.8911909747567,,,,,,,,,,,,,,,,,,,,,,,,,103,001,2023-03-01_12h13.05.836,eb_01,2022.2.4,120.00438310615382,
,,,1,0,1,0,81,0,81,0,,,,,,,,,,,,,,,,,,,,,,,,,,,,,,,,,,,,,,,,,,,,,,,,,,,,,,,,,,,103,001,2023-03-01_12h13.05.836,eb_01,2022.2.4,120.00438310615382,
4,stimuli/4.png,l,1,0,1,0,82,0,82,0,0,0,0,0,,,,,,,,,,,,,,,,,,502.8911909747567,502.8911909747567,502.8911909747567,502.8911909747567,l,1,0.5802514056958898,503.49124120354827,503.49124120354827,503.49124120354827,,,,,,,,,,,,,,,,,,,,,,,,,,,,103,001,2023-03-01_12h13.05.836,eb_01,2022.2.4,120.00438310615382,
,,,1,0,1,0,82,0,82,0,,,,,,,,,,,,,,,,,,,,,,,,,,,,,,,,,,,,,,,,,,,,,,,,,,,,,,,,,,,103,001,2023-03-01_12h13.05.836,eb_01,2022.2.4,120.00438310615382,
1,stimuli/1.png,s,1,0,1,0,83,0,83,0,0,0,0,0,,,,,,,,,,,,,,,,,,504.51636103272176,504.51636103272176,504.51636103272176,504.51636103272176,s,1,0.7231369229903066,505.26642842201,505.26642842201,505.26642842201,,,,,,,,,,,,,,,,,,,,,,,,,,,,103,001,2023-03-01_12h13.05.836,eb_01,2022.2.4,120.00438310615382,
,,,1,0,1,0,83,0,83,0,,,,,,,,,,,,,,,,,,,,,,,,,,,,,,,,,,,,,,,,,,,,,,,,,,,,,,,,,,,103,001,2023-03-01_12h13.05.836,eb_01,2022.2.4,120.00438310615382,
4,stimuli/4.png,l,1,0,1,0,84,0,84,0,0,0,0,0,,,,,,,,,,,,,,,,,,506.2748846081049,506.2748846081049,506.2748846081049,506.2748846081049,l,1,0.6127259494496684,506.90828838450216,506.90828838450216,506.90828838450216,,,,,,,,,,,,,,,,,,,,,,,,,,,,103,001,2023-03-01_12h13.05.836,eb_01,2022.2.4,120.00438310615382,
,,,1,0,1,0,84,0,84,0,,,,,,,,,,,,,,,,,,,,,,,,,,,,,,,,,,,,,,,,,,,,,,,,,,,,,,,,,,,103,001,2023-03-01_12h13.05.836,eb_01,2022.2.4,120.00438310615382,
3,stimuli/3.png,l,1,0,1,0,85,0,85,0,0,0,0,0,,,,,,,,,,,,,,,,,,507.91673823162637,507.91673823162637,507.91673823162637,507.91673823162637,l,1,0.5629043612698297,508.50011998764785,508.50011998764785,508.50011998764785,,,,,,,,,,,,,,,,,,,,,,,,,,,,103,001,2023-03-01_12h13.05.836,eb_01,2022.2.4,120.00438310615382,
,,,1,0,1,0,85,0,85,0,,,,,,,,,,,,,,,,,,,,,,,,,,,,,,,,,,,,,,,,,,,,,,,,,,,,,,,,,,,103,001,2023-03-01_12h13.05.836,eb_01,2022.2.4,120.00438310615382,
4,stimuli/4.png,l,1,0,1,0,86,0,86,0,0,0,0,0,,,,,,,,,,,,,,,,,,509.51689260064086,509.51689260064086,509.51689260064086,509.51689260064086,l,1,0.5868267288096831,510.12529457345045,510.12529457345045,510.12529457345045,,,,,,,,,,,,,,,,,,,,,,,,,,,,103,001,2023-03-01_12h13.05.836,eb_01,2022.2.4,120.00438310615382,
,,,1,0,1,0,86,0,86,0,,,,,,,,,,,,,,,,,,,,,,,,,,,,,,,,,,,,,,,,,,,,,,,,,,,,,,,,,,,103,001,2023-03-01_12h13.05.836,eb_01,2022.2.4,120.00438310615382,
2,stimuli/2.png,s,1,0,1,0,87,0,87,0,0,0,0,0,,,,,,,,,,,,,,,,,,511.1337474391312,511.1337474391312,511.1337474391312,511.1337474391312,s,1,1.4650744322170794,512.6089130145392,512.6089130145392,512.6089130145392,513.6340129212367,513.6340129212367,513.6340129212367,,,,,,,,,,,,,,,,,,,,,,,,,103,001,2023-03-01_12h13.05.836,eb_01,2022.2.4,120.00438310615382,
,,,1,0,1,0,87,0,87,0,,,,,,,,,,,,,,,,,,,,,,,,,,,,,,,,,,,,,,,,,,,,,,,,,,,,,,,,,,,103,001,2023-03-01_12h13.05.836,eb_01,2022.2.4,120.00438310615382,
1,stimuli/1.png,s,1,0,1,0,88,0,88,0,0,0,0,0,,,,,,,,,,,,,,,,,,513.6340129212367,513.6340129212367,513.6340129212367,513.6340129212367,s,1,1.0288760152088798,514.6924603384232,514.6924603384232,514.6924603384232,,,,,,,,,,,,,,,,,,,,,,,,,,,,103,001,2023-03-01_12h13.05.836,eb_01,2022.2.4,120.00438310615382,
,,,1,0,1,0,88,0,88,0,,,,,,,,,,,,,,,,,,,,,,,,,,,,,,,,,,,,,,,,,,,,,,,,,,,,,,,,,,,103,001,2023-03-01_12h13.05.836,eb_01,2022.2.4,120.00438310615382,
4,stimuli/4.png,l,1,0,1,0,89,0,89,0,0,0,0,0,,,,,,,,,,,,,,,,,,515.7009041484343,515.7009041484343,515.7009041484343,515.7009041484343,l,1,0.9940678248967743,516.7176734410132,516.7176734410132,516.7176734410132,,,,,,,,,,,,,,,,,,,,,,,,,,,,103,001,2023-03-01_12h13.05.836,eb_01,2022.2.4,120.00438310615382,
,,,1,0,1,0,89,0,89,0,,,,,,,,,,,,,,,,,,,,,,,,,,,,,,,,,,,,,,,,,,,,,,,,,,,,,,,,,,,103,001,2023-03-01_12h13.05.836,eb_01,2022.2.4,120.00438310615382,
2,stimuli/2.png,s,1,0,1,0,90,0,90,0,0,0,0,0,,,,,,,,,,,,,,,,,,517.7261199677268,517.7261199677268,517.7261199677268,517.7261199677268,s,1,0.5929604370085144,518.334511375584,518.334511375584,518.334511375584,519.3596221490861,519.3596221490861,519.3596221490861,,,,,,,,,,,,,,,,,,,,,,,,,103,001,2023-03-01_12h13.05.836,eb_01,2022.2.4,120.00438310615382,
,,,1,0,1,0,90,0,90,0,,,,,,,,,,,,,,,,,,,,,,,,,,,,,,,,,,,,,,,,,,,,,,,,,,,,,,,,,,,103,001,2023-03-01_12h13.05.836,eb_01,2022.2.4,120.00438310615382,
1,stimuli/1.png,s,1,0,1,0,91,0,91,0,0,0,0,0,,,,,,,,,,,,,,,,,,519.3596221490861,519.3596221490861,519.3596221490861,519.3596221490861,s,1,0.735462295684556,520.1263667649619,520.1263667649619,520.1263667649619,,,,,,,,,,,,,,,,,,,,,,,,,,,,103,001,2023-03-01_12h13.05.836,eb_01,2022.2.4,120.00438310615382,
,,,1,0,1,0,91,0,91,0,,,,,,,,,,,,,,,,,,,,,,,,,,,,,,,,,,,,,,,,,,,,,,,,,,,,,,,,,,,103,001,2023-03-01_12h13.05.836,eb_01,2022.2.4,120.00438310615382,
4,stimuli/4.png,l,1,0,1,0,92,0,92,0,0,0,0,0,,,,,,,,,,,,,,,,,,521.1348099712613,521.1348099712613,521.1348099712613,521.1348099712613,l,1,1.1043994103838486,522.2599333925173,522.2599333925173,522.2599333925173,,,,,,,,,,,,,,,,,,,,,,,,,,,,103,001,2023-03-01_12h13.05.836,eb_01,2022.2.4,120.00438310615382,
,,,1,0,1,0,92,0,92,0,,,,,,,,,,,,,,,,,,,,,,,,,,,,,,,,,,,,,,,,,,,,,,,,,,,,,,,,,,,103,001,2023-03-01_12h13.05.836,eb_01,2022.2.4,120.00438310615382,
3,stimuli/3.png,l,1,0,1,0,93,0,93,0,0,0,0,0,,,,,,,,,,,,,,,,,,523.2683886730465,523.2683886730465,523.2683886730465,523.2683886730465,l,1,2.5549646503095573,525.8353422334494,525.8353422334494,525.8353422334494,526.8437585745887,526.8437585745887,526.8437585745887,,,,,,,,,,,,,,,,,,,,,,,,,103,001,2023-03-01_12h13.05.836,eb_01,2022.2.4,120.00438310615382,
,,,1,0,1,0,93,0,93,0,,,,,,,,,,,,,,,,,,,,,,,,,,,,,,,,,,,,,,,,,,,,,,,,,,,,,,,,,,,103,001,2023-03-01_12h13.05.836,eb_01,2022.2.4,120.00438310615382,
2,stimuli/2.png,s,1,0,1,0,94,0,94,0,0,0,0,0,,,,,,,,,,,,,,,,,,526.8437585745887,526.8437585745887,526.8437585745887,526.8437585745887,s,1,1.67469511730269,528.5272544018862,528.5272544018862,528.5272544018862,529.5440285241584,529.5440285241584,529.5440285241584,,,,,,,,,,,,,,,,,,,,,,,,,103,001,2023-03-01_12h13.05.836,eb_01,2022.2.4,120.00438310615382,
,,,1,0,1,0,94,0,94,0,,,,,,,,,,,,,,,,,,,,,,,,,,,,,,,,,,,,,,,,,,,,,,,,,,,,,,,,,,,103,001,2023-03-01_12h13.05.836,eb_01,2022.2.4,120.00438310615382,
4,stimuli/4.png,l,1,0,1,0,95,0,95,0,0,0,0,0,,,,,,,,,,,,,,,,,,529.5440285241584,529.5440285241584,529.5440285241584,529.5440285241584,l,1,0.5184847830296349,530.0857759246519,530.0857759246519,530.0857759246519,,,,,,,,,,,,,,,,,,,,,,,,,,,,103,001,2023-03-01_12h13.05.836,eb_01,2022.2.4,120.00438310615382,
,,,1,0,1,0,95,0,95,0,,,,,,,,,,,,,,,,,,,,,,,,,,,,,,,,,,,,,,,,,,,,,,,,,,,,,,,,,,,103,001,2023-03-01_12h13.05.836,eb_01,2022.2.4,120.00438310615382,
2,stimuli/2.png,s,1,0,1,0,96,0,96,0,0,0,0,0,,,,,,,,,,,,,,,,,,531.0942206402306,531.0942206402306,531.0942206402306,531.0942206402306,s,1,0.7443600966944359,531.8526204547707,531.8526204547707,531.8526204547707,532.86106788705,532.86106788705,532.86106788705,,,,,,,,,,,,,,,,,,,,,,,,,103,001,2023-03-01_12h13.05.836,eb_01,2022.2.4,120.00438310615382,
,,,1,0,1,0,96,0,96,0,,,,,,,,,,,,,,,,,,,,,,,,,,,,,,,,,,,,,,,,,,,,,,,,,,,,,,,,,,,103,001,2023-03-01_12h13.05.836,eb_01,2022.2.4,120.00438310615382,
3,stimuli/3.png,l,1,0,1,0,97,0,97,0,0,0,0,0,,,,,,,,,,,,,,,,,,532.86106788705,532.86106788705,532.86106788705,532.86106788705,l,1,0.4415985092837218,533.3111196703976,533.3111196703976,533.3111196703976,534.319556839584,534.319556839584,534.319556839584,,,,,,,,,,,,,,,,,,,,,,,,,103,001,2023-03-01_12h13.05.836,eb_01,2022.2.4,120.00438310615382,
,,,1,0,1,0,97,0,97,0,,,,,,,,,,,,,,,,,,,,,,,,,,,,,,,,,,,,,,,,,,,,,,,,,,,,,,,,,,,103,001,2023-03-01_12h13.05.836,eb_01,2022.2.4,120.00438310615382,
2,stimuli/2.png,s,1,0,1,0,98,0,98,0,0,0,0,0,,,,,,,,,,,,,,,,,,534.319556839584,534.319556839584,534.319556839584,534.319556839584,s,1,0.47119093463879835,534.8029425499153,534.8029425499153,534.8029425499153,535.8113890766272,535.8113890766272,535.8113890766272,,,,,,,,,,,,,,,,,,,,,,,,,103,001,2023-03-01_12h13.05.836,eb_01,2022.2.4,120.00438310615382,
,,,1,0,1,0,98,0,98,0,,,,,,,,,,,,,,,,,,,,,,,,,,,,,,,,,,,,,,,,,,,,,,,,,,,,,,,,,,,103,001,2023-03-01_12h13.05.836,eb_01,2022.2.4,120.00438310615382,
3,stimuli/3.png,l,1,0,1,0,99,0,99,0,0,0,0,0,,,,,,,,,,,,,,,,,,535.8113890766272,535.8113890766272,535.8113890766272,535.8113890766272,l,1,0.4673926841333014,536.2947959168578,536.2947959168578,536.2947959168578,537.2949048867722,537.2949048867722,537.2949048867722,,,,,,,,,,,,,,,,,,,,,,,,,103,001,2023-03-01_12h13.05.836,eb_01,2022.2.4,120.00438310615382,
,,,1,0,1,0,99,0,99,0,,,,,,,,,,,,,,,,,,,,,,,,,,,,,,,,,,,,,,,,,,,,,,,,,,,,,,,,,,,103,001,2023-03-01_12h13.05.836,eb_01,2022.2.4,120.00438310615382,
,,,1,0,1,0,,,,,,,,,,,,,,,,,,,,,,,,,,,,,,,,,,,,,,,537.2949048867722,537.2949048867722,return,2.6000253700967733,,,,,,,,,,,,,,,,,,,,,103,001,2023-03-01_12h13.05.836,eb_01,2022.2.4,120.00438310615382,
2,stimuli/2.png,s,2,0,2,0,0,0,0,0,0,0,0,0,,,,,,,,,,,,,,,,,,539.9118258316666,539.9118258316666,539.9118258316666,539.9118258316666,s,1,1.719207365249531,541.6453442830498,541.6453442830498,541.6453442830498,542.6704496231487,542.6704496231487,542.6704496231487,,,,,,,,,,,,,,,,,,,,,,,,,103,001,2023-03-01_12h13.05.836,eb_01,2022.2.4,120.00438310615382,
,,,2,0,2,0,0,0,0,0,,,,,,,,,,,,,,,,,,,,,,,,,,,,,,,,,,,,,,,,,,,,,,,,,,,,,,,,,,,103,001,2023-03-01_12h13.05.836,eb_01,2022.2.4,120.00438310615382,
1,stimuli/1.png,s,2,0,2,0,1,0,1,0,0,0,0,0,,,,,,,,,,,,,,,,,,542.6704496231487,542.6704496231487,542.6704496231487,542.6704496231487,s,1,0.5918085555858852,543.287194586157,543.287194586157,543.287194586157,,,,,,,,,,,,,,,,,,,,,,,,,,,,103,001,2023-03-01_12h13.05.836,eb_01,2022.2.4,120.00438310615382,
,,,2,0,2,0,1,0,1,0,,,,,,,,,,,,,,,,,,,,,,,,,,,,,,,,,,,,,,,,,,,,,,,,,,,,,,,,,,,103,001,2023-03-01_12h13.05.836,eb_01,2022.2.4,120.00438310615382,
2,stimuli/2.png,s,2,0,2,0,2,0,2,0,0,0,0,0,,,,,,,,,,,,,,,,,,544.2873008393708,544.2873008393708,544.2873008393708,544.2873008393708,s,1,0.41481485139229335,544.712338443047,544.712338443047,544.712338443047,545.7374461979925,545.7374461979925,545.7374461979925,,,,,,,,,,,,,,,,,,,,,,,,,103,001,2023-03-01_12h13.05.836,eb_01,2022.2.4,120.00438310615382,
,,,2,0,2,0,2,0,2,0,,,,,,,,,,,,,,,,,,,,,,,,,,,,,,,,,,,,,,,,,,,,,,,,,,,,,,,,,,,103,001,2023-03-01_12h13.05.836,eb_01,2022.2.4,120.00438310615382,
1,stimuli/1.png,s,2,0,2,0,3,0,3,0,0,0,0,0,,,,,,,,,,,,,,,,,,545.7374461979925,545.7374461979925,545.7374461979925,545.7374461979925,s,1,0.2687293616254465,546.0374778022851,546.0374778022851,546.0374778022851,,,,,,,,,,,,,,,,,,,,,,,,,,,,103,001,2023-03-01_12h13.05.836,eb_01,2022.2.4,120.00438310615382,
,,,2,0,2,0,3,0,3,0,,,,,,,,,,,,,,,,,,,,,,,,,,,,,,,,,,,,,,,,,,,,,,,,,,,,,,,,,,,103,001,2023-03-01_12h13.05.836,eb_01,2022.2.4,120.00438310615382,
4,stimuli/4.png,l,2,0,2,0,4,0,4,0,0,0,0,0,,,,,,,,,,,,,,,,,,547.0459225178638,547.0459225178638,547.0459225178638,547.0459225178638,l,1,0.2882971585713676,547.3542895659648,547.3542895659648,547.3542895659648,,,,,,,,,,,,,,,,,,,,,,,,,,,,103,001,2023-03-01_12h13.05.836,eb_01,2022.2.4,120.00438310615382,
,,,2,0,2,0,4,0,4,0,,,,,,,,,,,,,,,,,,,,,,,,,,,,,,,,,,,,,,,,,,,,,,,,,,,,,,,,,,,103,001,2023-03-01_12h13.05.836,eb_01,2022.2.4,120.00438310615382,
3,stimuli/3.png,l,2,0,2,0,5,0,5,0,0,0,0,0,,,,,,,,,,,,,,,,,,548.3627306592753,548.3627306592753,548.3627306592753,548.3627306592753,l,1,0.387566033836265,548.7627818540041,548.7627818540041,548.7627818540041,549.7795885766936,549.7795885766936,549.7795885766936,,,,,,,,,,,,,,,,,,,,,,,,,103,001,2023-03-01_12h13.05.836,eb_01,2022.2.4,120.00438310615382,
,,,2,0,2,0,5,0,5,0,,,,,,,,,,,,,,,,,,,,,,,,,,,,,,,,,,,,,,,,,,,,,,,,,,,,,,,,,,,103,001,2023-03-01_12h13.05.836,eb_01,2022.2.4,120.00438310615382,
4,stimuli/4.png,l,2,0,2,0,6,0,6,0,0,0,0,0,,,,,,,,,,,,,,,,,,549.7795885766936,549.7795885766936,549.7795885766936,549.7795885766936,l,1,0.6187343875244551,550.4212749721464,550.4212749721464,550.4212749721464,,,,,,,,,,,,,,,,,,,,,,,,,,,,103,001,2023-03-01_12h13.05.836,eb_01,2022.2.4,120.00438310615382,
,,,2,0,2,0,6,0,6,0,,,,,,,,,,,,,,,,,,,,,,,,,,,,,,,,,,,,,,,,,,,,,,,,,,,,,,,,,,,103,001,2023-03-01_12h13.05.836,eb_01,2022.2.4,120.00438310615382,
2,stimuli/2.png,s,2,0,2,0,7,0,7,0,0,0,0,0,,,,,,,,,,,,,,,,,,551.4297254229841,551.4297254229841,551.4297254229841,551.4297254229841,s,1,0.5766846785281814,552.0214540933302,552.0214540933302,552.0214540933302,553.029908770146,553.029908770146,553.029908770146,,,,,,,,,,,,,,,,,,,,,,,,,103,001,2023-03-01_12h13.05.836,eb_01,2022.2.4,120.00438310615382,
,,,2,0,2,0,7,0,7,0,,,,,,,,,,,,,,,,,,,,,,,,,,,,,,,,,,,,,,,,,,,,,,,,,,,,,,,,,,,103,001,2023-03-01_12h13.05.836,eb_01,2022.2.4,120.00438310615382,
