index,stimulus,correct_answer,block.thisRepN,block.thisTrialN,block.thisN,block.thisIndex,trial.thisRepN,trial.thisTrialN,trial.thisN,trial.thisIndex,display_row.thisRepN,display_row.thisTrialN,display_row.thisN,display_row.thisIndex,pair_questions.thisRepN,pair_questions.thisTrialN,pair_questions.thisN,pair_questions.thisIndex,welcome_text.started,instructions_0_keypress.started,instructions_0_keypress.keys,instructions_0_keypress.rt,instructions_1_keypress.started,instructions_1_text.started,instructions_1_keypress.keys,instructions_1_keypress.rt,instructions_2_keypress.started,instructions_2_text.started,instructions_2_keypress.keys,instructions_2_keypress.rt,text_countdown.started,image.started,size_question.started,size_resp.started,keypress_options.started,size_resp.keys,size_resp.corr,size_resp.rt,fb_image.started,fb.started,fb_size_question.started,fb_image.stopped,fb.stopped,fb_size_question.stopped,block_break_text.started,block_break_keypress.started,block_break_keypress.keys,block_break_keypress.rt,seq_reveal.started,seq_reveal_adv.started,seq_reveal_adv.keys,seq_reveal_adv.rt,instruction_2afc_text.started,instruction_2afc_keypress.started,instruction_2afc_keypress.keys,instruction_2afc_keypress.rt,dist_2afc_test.started,dist_2afc_resp.started,text.started,stim_00.started,stim_01.started,stim_10.started,stim_11.started,dist_2afc_resp.keys,dist_2afc_resp.rt,graph.started,debrief_text.started,debriefing_title.started,participant,session,date,expName,psychopyVersion,frameRate,
,,,,,,,,,,,,,,,,,,,17.14751522750703,17.14751522750703,return,4.005745021957409,,,,,,,,,,,,,,,,,,,,,,,,,,,,,,,,,,,,,,,,,,,,,,,103,001,2023-03-01_12h27.37.238,eb_01,2022.2.4,99.95652252674164,
,,,,,,,,,,,,,,,,,,,,,,,21.169940768246306,21.169940768246306,return,73.69159336295343,,,,,,,,,,,,,,,,,,,,,,,,,,,,,,,,,,,,,,,,,,,103,001,2023-03-01_12h27.37.238,eb_01,2022.2.4,99.95652252674164,
,,,,,,,,,,,,,,,,,,,,,,,,,,,94.87443761830582,94.87443761830582,space,11.786368393672092,,,,,,,,,,,,,,,,,,,,,,,,,,,,,,,,,,,,,,,103,001,2023-03-01_12h27.37.238,eb_01,2022.2.4,99.95652252674164,
9,stimuli/9.png,l,0,0,0,0,0,0,0,0,0,0,0,0,,,,,,,,,,,,,,,,,106.68155152601139,111.70463570042011,111.70463570042011,111.70463570042011,111.70463570042011,l,1,1.6682556357100111,113.40561329751836,113.40561329751836,113.40561329751836,,,,,,,,,,,,,,,,,,,,,,,,,,,,103,001,2023-03-01_12h27.37.238,eb_01,2022.2.4,99.95652252674164,
,,,0,0,0,0,0,0,0,0,,,,,,,,,,,,,,,,,,,,,,,,,,,,,,,,,,,,,,,,,,,,,,,,,,,,,,,,,,,103,001,2023-03-01_12h27.37.238,eb_01,2022.2.4,99.95652252674164,
8,stimuli/8.png,l,0,0,0,0,1,0,1,0,0,0,0,0,,,,,,,,,,,,,,,,,,114.40594623653669,114.40594623653669,114.40594623653669,114.40594623653669,l,1,0.9829349260871822,115.41687285442276,115.41687285442276,115.41687285442276,,,,,,,,,,,,,,,,,,,,,,,,,,,,103,001,2023-03-01_12h27.37.238,eb_01,2022.2.4,99.95652252674164,
,,,0,0,0,0,1,0,1,0,,,,,,,,,,,,,,,,,,,,,,,,,,,,,,,,,,,,,,,,,,,,,,,,,,,,,,,,,,,103,001,2023-03-01_12h27.37.238,eb_01,2022.2.4,99.95652252674164,
3,stimuli/3.png,l,0,0,0,0,2,0,2,0,0,0,0,0,,,,,,,,,,,,,,,,,,116.44716939955288,116.44716939955288,116.44716939955288,116.44716939955288,l,1,0.7097619327232678,117.16758755647243,117.16758755647243,117.16758755647243,118.17818998895018,118.17818998895018,118.17818998895018,,,,,,,,,,,,,,,,,,,,,,,,,103,001,2023-03-01_12h27.37.238,eb_01,2022.2.4,99.95652252674164,
,,,0,0,0,0,2,0,2,0,,,,,,,,,,,,,,,,,,,,,,,,,,,,,,,,,,,,,,,,,,,,,,,,,,,,,,,,,,,103,001,2023-03-01_12h27.37.238,eb_01,2022.2.4,99.95652252674164,
4,stimuli/4.png,l,0,0,0,0,3,0,3,0,0,0,0,0,,,,,,,,,,,,,,,,,,118.17818998895018,118.17818998895018,118.17818998895018,118.17818998895018,l,1,1.3787834210252186,119.5793956930429,119.5793956930429,119.5793956930429,,,,,,,,,,,,,,,,,,,,,,,,,,,,103,001,2023-03-01_12h27.37.238,eb_01,2022.2.4,99.95652252674164,
,,,0,0,0,0,3,0,3,0,,,,,,,,,,,,,,,,,,,,,,,,,,,,,,,,,,,,,,,,,,,,,,,,,,,,,,,,,,,103,001,2023-03-01_12h27.37.238,eb_01,2022.2.4,99.95652252674164,
1,stimuli/1.png,s,0,0,0,0,4,0,4,0,0,0,0,0,,,,,,,,,,,,,,,,,,120.5996910881313,120.5996910881313,120.5996910881313,120.5996910881313,s,1,1.157324037321814,121.79074284641501,121.79074284641501,121.79074284641501,,,,,,,,,,,,,,,,,,,,,,,,,,,,103,001,2023-03-01_12h27.37.238,eb_01,2022.2.4,99.95652252674164,
,,,0,0,0,0,4,0,4,0,,,,,,,,,,,,,,,,,,,,,,,,,,,,,,,,,,,,,,,,,,,,,,,,,,,,,,,,,,,103,001,2023-03-01_12h27.37.238,eb_01,2022.2.4,99.95652252674164,
4,stimuli/4.png,l,0,0,0,0,5,0,5,0,0,0,0,0,,,,,,,,,,,,,,,,,,122.79101360461937,122.79101360461937,122.79101360461937,122.79101360461937,l,1,0.7730233647125715,123.59183276137992,123.59183276137992,123.59183276137992,,,,,,,,,,,,,,,,,,,,,,,,,,,,103,001,2023-03-01_12h27.37.238,eb_01,2022.2.4,99.95652252674164,
,,,0,0,0,0,5,0,5,0,,,,,,,,,,,,,,,,,,,,,,,,,,,,,,,,,,,,,,,,,,,,,,,,,,,,,,,,,,,103,001,2023-03-01_12h27.37.238,eb_01,2022.2.4,99.95652252674164,
3,stimuli/3.png,l,0,0,0,0,6,0,6,0,0,0,0,0,,,,,,,,,,,,,,,,,,124.6024424382249,124.6024424382249,124.6024424382249,124.6024424382249,l,1,0.6896053879972897,125.30253924107456,125.30253924107456,125.30253924107456,126.31351204179737,126.31351204179737,126.31351204179737,,,,,,,,,,,,,,,,,,,,,,,,,103,001,2023-03-01_12h27.37.238,eb_01,2022.2.4,99.95652252674164,
,,,0,0,0,0,6,0,6,0,,,,,,,,,,,,,,,,,,,,,,,,,,,,,,,,,,,,,,,,,,,,,,,,,,,,,,,,,,,103,001,2023-03-01_12h27.37.238,eb_01,2022.2.4,99.95652252674164,
8,stimuli/8.png,l,0,0,0,0,7,0,7,0,0,0,0,0,,,,,,,,,,,,,,,,,,126.31351204179737,126.31351204179737,126.31351204179737,126.31351204179737,l,1,0.6665999960750923,127.00388418793227,127.00388418793227,127.00388418793227,,,,,,,,,,,,,,,,,,,,,,,,,,,,103,001,2023-03-01_12h27.37.238,eb_01,2022.2.4,99.95652252674164,
,,,0,0,0,0,7,0,7,0,,,,,,,,,,,,,,,,,,,,,,,,,,,,,,,,,,,,,,,,,,,,,,,,,,,,,,,,,,,103,001,2023-03-01_12h27.37.238,eb_01,2022.2.4,99.95652252674164,
3,stimuli/3.png,l,0,0,0,0,8,0,8,0,0,0,0,0,,,,,,,,,,,,,,,,,,128.0145207293026,128.0145207293026,128.0145207293026,128.0145207293026,l,1,0.6296087505907053,128.65456414720757,128.65456414720757,128.65456414720757,129.66516114640945,129.66516114640945,129.66516114640945,,,,,,,,,,,,,,,,,,,,,,,,,103,001,2023-03-01_12h27.37.238,eb_01,2022.2.4,99.95652252674164,
,,,0,0,0,0,8,0,8,0,,,,,,,,,,,,,,,,,,,,,,,,,,,,,,,,,,,,,,,,,,,,,,,,,,,,,,,,,,,103,001,2023-03-01_12h27.37.238,eb_01,2022.2.4,99.95652252674164,
8,stimuli/8.png,l,0,0,0,0,9,0,9,0,0,0,0,0,,,,,,,,,,,,,,,,,,129.66516114640945,129.66516114640945,129.66516114640945,129.66516114640945,l,1,0.7149923654633312,130.40594412359678,130.40594412359678,130.40594412359678,,,,,,,,,,,,,,,,,,,,,,,,,,,,103,001,2023-03-01_12h27.37.238,eb_01,2022.2.4,99.95652252674164,
,,,0,0,0,0,9,0,9,0,,,,,,,,,,,,,,,,,,,,,,,,,,,,,,,,,,,,,,,,,,,,,,,,,,,,,,,,,,,103,001,2023-03-01_12h27.37.238,eb_01,2022.2.4,99.95652252674164,
9,stimuli/9.png,l,0,0,0,0,10,0,10,0,0,0,0,0,,,,,,,,,,,,,,,,,,131.42657487249198,131.42657487249198,131.42657487249198,131.42657487249198,l,1,0.7536350247009977,132.20671739936915,132.20671739936915,132.20671739936915,,,,,,,,,,,,,,,,,,,,,,,,,,,,103,001,2023-03-01_12h27.37.238,eb_01,2022.2.4,99.95652252674164,
,,,0,0,0,0,10,0,10,0,,,,,,,,,,,,,,,,,,,,,,,,,,,,,,,,,,,,,,,,,,,,,,,,,,,,,,,,,,,103,001,2023-03-01_12h27.37.238,eb_01,2022.2.4,99.95652252674164,
8,stimuli/8.png,l,0,0,0,0,11,0,11,0,0,0,0,0,,,,,,,,,,,,,,,,,,133.21764975237784,133.21764975237784,133.21764975237784,133.21764975237784,l,1,0.5785555856928113,133.81799826678434,133.81799826678434,133.81799826678434,,,,,,,,,,,,,,,,,,,,,,,,,,,,103,001,2023-03-01_12h27.37.238,eb_01,2022.2.4,99.95652252674164,
,,,0,0,0,0,11,0,11,0,,,,,,,,,,,,,,,,,,,,,,,,,,,,,,,,,,,,,,,,,,,,,,,,,,,,,,,,,,,103,001,2023-03-01_12h27.37.238,eb_01,2022.2.4,99.95652252674164,
9,stimuli/9.png,l,0,0,0,0,12,0,12,0,0,0,0,0,,,,,,,,,,,,,,,,,,134.83867761330657,134.83867761330657,134.83867761330657,134.83867761330657,l,1,0.6615687834200799,135.52874579789022,135.52874579789022,135.52874579789022,,,,,,,,,,,,,,,,,,,,,,,,,,,,103,001,2023-03-01_12h27.37.238,eb_01,2022.2.4,99.95652252674164,
,,,0,0,0,0,12,0,12,0,,,,,,,,,,,,,,,,,,,,,,,,,,,,,,,,,,,,,,,,,,,,,,,,,,,,,,,,,,,103,001,2023-03-01_12h27.37.238,eb_01,2022.2.4,99.95652252674164,
8,stimuli/8.png,l,0,0,0,0,13,0,13,0,0,0,0,0,,,,,,,,,,,,,,,,,,136.53969928030165,136.53969928030165,136.53969928030165,136.53969928030165,l,1,0.751650671929383,137.32011407462778,137.32011407462778,137.32011407462778,,,,,,,,,,,,,,,,,,,,,,,,,,,,103,001,2023-03-01_12h27.37.238,eb_01,2022.2.4,99.95652252674164,
,,,0,0,0,0,13,0,13,0,,,,,,,,,,,,,,,,,,,,,,,,,,,,,,,,,,,,,,,,,,,,,,,,,,,,,,,,,,,103,001,2023-03-01_12h27.37.238,eb_01,2022.2.4,99.95652252674164,
3,stimuli/3.png,l,0,0,0,0,14,0,14,0,0,0,0,0,,,,,,,,,,,,,,,,,,138.3307219403796,138.3307219403796,138.3307219403796,138.3307219403796,l,1,0.5606188356559869,138.91079226506918,138.91079226506918,138.91079226506918,139.9217206940466,139.9217206940466,139.9217206940466,,,,,,,,,,,,,,,,,,,,,,,,,103,001,2023-03-01_12h27.37.238,eb_01,2022.2.4,99.95652252674164,
,,,0,0,0,0,14,0,14,0,,,,,,,,,,,,,,,,,,,,,,,,,,,,,,,,,,,,,,,,,,,,,,,,,,,,,,,,,,,103,001,2023-03-01_12h27.37.238,eb_01,2022.2.4,99.95652252674164,
2,stimuli/2.png,s,0,0,0,0,15,0,15,0,0,0,0,0,,,,,,,,,,,,,,,,,,139.9217206940466,139.9217206940466,139.9217206940466,139.9217206940466,l,0,3.409695737324,143.35383629964963,143.35383629964963,143.35383629964963,,,,,,,,,,,,,,,,,,,,,,,,,,,,103,001,2023-03-01_12h27.37.238,eb_01,2022.2.4,99.95652252674164,
,,,0,0,0,0,15,0,15,0,,,,,,,,,,,,,,,,,,,,,,,,,,,,,,,,,,,,,,,,,,,,,,,,,,,,,,,,,,,103,001,2023-03-01_12h27.37.238,eb_01,2022.2.4,99.95652252674164,
1,stimuli/1.png,s,0,0,0,0,16,0,16,0,0,0,0,0,,,,,,,,,,,,,,,,,,144.37439701966832,144.37439701966832,144.37439701966832,144.37439701966832,s,1,0.8930278079242271,145.30497576306516,145.30497576306516,145.30497576306516,,,,,,,,,,,,,,,,,,,,,,,,,,,,103,001,2023-03-01_12h27.37.238,eb_01,2022.2.4,99.95652252674164,
,,,0,0,0,0,16,0,16,0,,,,,,,,,,,,,,,,,,,,,,,,,,,,,,,,,,,,,,,,,,,,,,,,,,,,,,,,,,,103,001,2023-03-01_12h27.37.238,eb_01,2022.2.4,99.95652252674164,
4,stimuli/4.png,l,0,0,0,0,17,0,17,0,0,0,0,0,,,,,,,,,,,,,,,,,,146.30526101000396,146.30526101000396,146.30526101000396,146.30526101000396,l,1,1.4181903609478468,147.74644203495518,147.74644203495518,147.74644203495518,,,,,,,,,,,,,,,,,,,,,,,,,,,,103,001,2023-03-01_12h27.37.238,eb_01,2022.2.4,99.95652252674164,
,,,0,0,0,0,17,0,17,0,,,,,,,,,,,,,,,,,,,,,,,,,,,,,,,,,,,,,,,,,,,,,,,,,,,,,,,,,,,103,001,2023-03-01_12h27.37.238,eb_01,2022.2.4,99.95652252674164,
2,stimuli/2.png,s,0,0,0,0,18,0,18,0,0,0,0,0,,,,,,,,,,,,,,,,,,148.75707103010973,148.75707103010973,148.75707103010973,148.75707103010973,s,1,0.8064075192905875,149.57725407714497,149.57725407714497,149.57725407714497,150.58819759855214,150.58819759855214,150.58819759855214,,,,,,,,,,,,,,,,,,,,,,,,,103,001,2023-03-01_12h27.37.238,eb_01,2022.2.4,99.95652252674164,
,,,0,0,0,0,18,0,18,0,,,,,,,,,,,,,,,,,,,,,,,,,,,,,,,,,,,,,,,,,,,,,,,,,,,,,,,,,,,103,001,2023-03-01_12h27.37.238,eb_01,2022.2.4,99.95652252674164,
3,stimuli/3.png,l,0,0,0,0,19,0,19,0,0,0,0,0,,,,,,,,,,,,,,,,,,150.58819759855214,150.58819759855214,150.58819759855214,150.58819759855214,l,1,0.6313341172535729,151.23826480514617,151.23826480514617,151.23826480514617,152.24885546552832,152.24885546552832,152.24885546552832,,,,,,,,,,,,,,,,,,,,,,,,,103,001,2023-03-01_12h27.37.238,eb_01,2022.2.4,99.95652252674164,
,,,0,0,0,0,19,0,19,0,,,,,,,,,,,,,,,,,,,,,,,,,,,,,,,,,,,,,,,,,,,,,,,,,,,,,,,,,,,103,001,2023-03-01_12h27.37.238,eb_01,2022.2.4,99.95652252674164,
4,stimuli/4.png,l,0,0,0,0,20,0,20,0,0,0,0,0,,,,,,,,,,,,,,,,,,152.24885546552832,152.24885546552832,152.24885546552832,152.24885546552832,l,1,1.2577288464945013,153.53000873247947,153.53000873247947,153.53000873247947,,,,,,,,,,,,,,,,,,,,,,,,,,,,103,001,2023-03-01_12h27.37.238,eb_01,2022.2.4,99.95652252674164,
,,,0,0,0,0,20,0,20,0,,,,,,,,,,,,,,,,,,,,,,,,,,,,,,,,,,,,,,,,,,,,,,,,,,,,,,,,,,,103,001,2023-03-01_12h27.37.238,eb_01,2022.2.4,99.95652252674164,
2,stimuli/2.png,s,0,0,0,0,21,0,21,0,0,0,0,0,,,,,,,,,,,,,,,,,,154.54057464127618,154.54057464127618,154.54057464127618,154.54057464127618,s,1,0.7180060219998268,155.27068636450167,155.27068636450167,155.27068636450167,156.28160573802052,156.28160573802052,156.28160573802052,,,,,,,,,,,,,,,,,,,,,,,,,103,001,2023-03-01_12h27.37.238,eb_01,2022.2.4,99.95652252674164,
,,,0,0,0,0,21,0,21,0,,,,,,,,,,,,,,,,,,,,,,,,,,,,,,,,,,,,,,,,,,,,,,,,,,,,,,,,,,,103,001,2023-03-01_12h27.37.238,eb_01,2022.2.4,99.95652252674164,
3,stimuli/3.png,l,0,0,0,0,22,0,22,0,0,0,0,0,,,,,,,,,,,,,,,,,,156.28160573802052,156.28160573802052,156.28160573802052,156.28160573802052,l,1,0.5609867891125759,156.86166519616017,156.86166519616017,156.86166519616017,157.88263250625823,157.88263250625823,157.88263250625823,,,,,,,,,,,,,,,,,,,,,,,,,103,001,2023-03-01_12h27.37.238,eb_01,2022.2.4,99.95652252674164,
,,,0,0,0,0,22,0,22,0,,,,,,,,,,,,,,,,,,,,,,,,,,,,,,,,,,,,,,,,,,,,,,,,,,,,,,,,,,,103,001,2023-03-01_12h27.37.238,eb_01,2022.2.4,99.95652252674164,
4,stimuli/4.png,l,0,0,0,0,23,0,23,0,0,0,0,0,,,,,,,,,,,,,,,,,,157.88263250625823,157.88263250625823,157.88263250625823,157.88263250625823,l,1,1.1279565822151199,159.03326794286295,159.03326794286295,159.03326794286295,,,,,,,,,,,,,,,,,,,,,,,,,,,,103,001,2023-03-01_12h27.37.238,eb_01,2022.2.4,99.95652252674164,
,,,0,0,0,0,23,0,23,0,,,,,,,,,,,,,,,,,,,,,,,,,,,,,,,,,,,,,,,,,,,,,,,,,,,,,,,,,,,103,001,2023-03-01_12h27.37.238,eb_01,2022.2.4,99.95652252674164,
3,stimuli/3.png,l,0,0,0,0,24,0,24,0,0,0,0,0,,,,,,,,,,,,,,,,,,160.0439117285987,160.0439117285987,160.0439117285987,160.0439117285987,l,1,0.5427626791952207,160.61541558969657,160.61541558969657,160.61541558969657,,,,,,,,,,,,,,,,,,,,,,,,,,,,103,001,2023-03-01_12h27.37.238,eb_01,2022.2.4,99.95652252674164,
,,,0,0,0,0,24,0,24,0,,,,,,,,,,,,,,,,,,,,,,,,,,,,,,,,,,,,,,,,,,,,,,,,,,,,,,,,,,,103,001,2023-03-01_12h27.37.238,eb_01,2022.2.4,99.95652252674164,
8,stimuli/8.png,l,0,0,0,0,25,0,25,0,0,0,0,0,,,,,,,,,,,,,,,,,,161.62456613035283,161.62456613035283,161.62456613035283,161.62456613035283,l,1,0.626131454586357,162.2752669171805,162.2752669171805,162.2752669171805,,,,,,,,,,,,,,,,,,,,,,,,,,,,103,001,2023-03-01_12h27.37.238,eb_01,2022.2.4,99.95652252674164,
,,,0,0,0,0,25,0,25,0,,,,,,,,,,,,,,,,,,,,,,,,,,,,,,,,,,,,,,,,,,,,,,,,,,,,,,,,,,,103,001,2023-03-01_12h27.37.238,eb_01,2022.2.4,99.95652252674164,
3,stimuli/3.png,l,0,0,0,0,26,0,26,0,0,0,0,0,,,,,,,,,,,,,,,,,,163.2858747829323,163.2858747829323,163.2858747829323,163.2858747829323,l,1,0.6528743360158842,163.9559397618832,163.9559397618832,163.9559397618832,164.96689626278203,164.96689626278203,164.96689626278203,,,,,,,,,,,,,,,,,,,,,,,,,103,001,2023-03-01_12h27.37.238,eb_01,2022.2.4,99.95652252674164,
,,,0,0,0,0,26,0,26,0,,,,,,,,,,,,,,,,,,,,,,,,,,,,,,,,,,,,,,,,,,,,,,,,,,,,,,,,,,,103,001,2023-03-01_12h27.37.238,eb_01,2022.2.4,99.95652252674164,
8,stimuli/8.png,l,0,0,0,0,27,0,27,0,0,0,0,0,,,,,,,,,,,,,,,,,,164.96689626278203,164.96689626278203,164.96689626278203,164.96689626278203,l,1,0.5078451336703438,165.49721740857603,165.49721740857603,165.49721740857603,,,,,,,,,,,,,,,,,,,,,,,,,,,,103,001,2023-03-01_12h27.37.238,eb_01,2022.2.4,99.95652252674164,
,,,0,0,0,0,27,0,27,0,,,,,,,,,,,,,,,,,,,,,,,,,,,,,,,,,,,,,,,,,,,,,,,,,,,,,,,,,,,103,001,2023-03-01_12h27.37.238,eb_01,2022.2.4,99.95652252674164,
6,stimuli/6.png,s,0,0,0,0,28,0,28,0,0,0,0,0,,,,,,,,,,,,,,,,,,166.51751582215002,166.51751582215002,166.51751582215002,166.51751582215002,s,1,0.7732355642856419,167.32833129937717,167.32833129937717,167.32833129937717,,,,,,,,,,,,,,,,,,,,,,,,,,,,103,001,2023-03-01_12h27.37.238,eb_01,2022.2.4,99.95652252674164,
,,,0,0,0,0,28,0,28,0,,,,,,,,,,,,,,,,,,,,,,,,,,,,,,,,,,,,,,,,,,,,,,,,,,,,,,,,,,,103,001,2023-03-01_12h27.37.238,eb_01,2022.2.4,99.95652252674164,
9,stimuli/9.png,l,0,0,0,0,29,0,29,0,0,0,0,0,,,,,,,,,,,,,,,,,,168.33892467639635,168.33892467639635,168.33892467639635,168.33892467639635,l,1,0.7909088004871592,169.1591155714941,169.1591155714941,169.1591155714941,,,,,,,,,,,,,,,,,,,,,,,,,,,,103,001,2023-03-01_12h27.37.238,eb_01,2022.2.4,99.95652252674164,
,,,0,0,0,0,29,0,29,0,,,,,,,,,,,,,,,,,,,,,,,,,,,,,,,,,,,,,,,,,,,,,,,,,,,,,,,,,,,103,001,2023-03-01_12h27.37.238,eb_01,2022.2.4,99.95652252674164,
8,stimuli/8.png,l,0,0,0,0,30,0,30,0,0,0,0,0,,,,,,,,,,,,,,,,,,170.170036152409,170.170036152409,170.170036152409,170.170036152409,l,1,0.5918390375372837,170.7904237924322,170.7904237924322,170.7904237924322,,,,,,,,,,,,,,,,,,,,,,,,,,,,103,001,2023-03-01_12h27.37.238,eb_01,2022.2.4,99.95652252674164,
,,,0,0,0,0,30,0,30,0,,,,,,,,,,,,,,,,,,,,,,,,,,,,,,,,,,,,,,,,,,,,,,,,,,,,,,,,,,,103,001,2023-03-01_12h27.37.238,eb_01,2022.2.4,99.95652252674164,
9,stimuli/9.png,l,0,0,0,0,31,0,31,0,0,0,0,0,,,,,,,,,,,,,,,,,,171.81105061729613,171.81105061729613,171.81105061729613,171.81105061729613,l,1,0.7188231261916371,172.5511646979594,172.5511646979594,172.5511646979594,,,,,,,,,,,,,,,,,,,,,,,,,,,,103,001,2023-03-01_12h27.37.238,eb_01,2022.2.4,99.95652252674164,
,,,0,0,0,0,31,0,31,0,,,,,,,,,,,,,,,,,,,,,,,,,,,,,,,,,,,,,,,,,,,,,,,,,,,,,,,,,,,103,001,2023-03-01_12h27.37.238,eb_01,2022.2.4,99.95652252674164,
8,stimuli/8.png,l,0,0,0,0,32,0,32,0,0,0,0,0,,,,,,,,,,,,,,,,,,173.56209010845123,173.56209010845123,173.56209010845123,173.56209010845123,l,1,0.4398196250494948,174.02235430446672,174.02235430446672,174.02235430446672,,,,,,,,,,,,,,,,,,,,,,,,,,,,103,001,2023-03-01_12h27.37.238,eb_01,2022.2.4,99.95652252674164,
,,,0,0,0,0,32,0,32,0,,,,,,,,,,,,,,,,,,,,,,,,,,,,,,,,,,,,,,,,,,,,,,,,,,,,,,,,,,,103,001,2023-03-01_12h27.37.238,eb_01,2022.2.4,99.95652252674164,
6,stimuli/6.png,s,0,0,0,0,33,0,33,0,0,0,0,0,,,,,,,,,,,,,,,,,,175.04267354559488,175.04267354559488,175.04267354559488,175.04267354559488,s,1,0.7832490901218989,175.86351794293842,175.86351794293842,175.86351794293842,,,,,,,,,,,,,,,,,,,,,,,,,,,,103,001,2023-03-01_12h27.37.238,eb_01,2022.2.4,99.95652252674164,
,,,0,0,0,0,33,0,33,0,,,,,,,,,,,,,,,,,,,,,,,,,,,,,,,,,,,,,,,,,,,,,,,,,,,,,,,,,,,103,001,2023-03-01_12h27.37.238,eb_01,2022.2.4,99.95652252674164,
5,stimuli/5.png,s,0,0,0,0,34,0,34,0,0,0,0,0,,,,,,,,,,,,,,,,,,176.8640543279198,176.8640543279198,176.8640543279198,176.8640543279198,s,1,0.9458977996127942,177.83469653197062,177.83469653197062,177.83469653197062,,,,,,,,,,,,,,,,,,,,,,,,,,,,103,001,2023-03-01_12h27.37.238,eb_01,2022.2.4,99.95652252674164,
,,,0,0,0,0,34,0,34,0,,,,,,,,,,,,,,,,,,,,,,,,,,,,,,,,,,,,,,,,,,,,,,,,,,,,,,,,,,,103,001,2023-03-01_12h27.37.238,eb_01,2022.2.4,99.95652252674164,
6,stimuli/6.png,s,0,0,0,0,35,0,35,0,0,0,0,0,,,,,,,,,,,,,,,,,,178.8616561407016,178.8616561407016,178.8616561407016,178.8616561407016,s,1,0.5323896516638342,179.4256644970792,179.4256644970792,179.4256644970792,,,,,,,,,,,,,,,,,,,,,,,,,,,,103,001,2023-03-01_12h27.37.238,eb_01,2022.2.4,99.95652252674164,
,,,0,0,0,0,35,0,35,0,,,,,,,,,,,,,,,,,,,,,,,,,,,,,,,,,,,,,,,,,,,,,,,,,,,,,,,,,,,103,001,2023-03-01_12h27.37.238,eb_01,2022.2.4,99.95652252674164,
9,stimuli/9.png,l,0,0,0,0,36,0,36,0,0,0,0,0,,,,,,,,,,,,,,,,,,180.43627930534967,180.43627930534967,180.43627930534967,180.43627930534967,l,1,0.6377336096666113,181.0963494730786,181.0963494730786,181.0963494730786,,,,,,,,,,,,,,,,,,,,,,,,,,,,103,001,2023-03-01_12h27.37.238,eb_01,2022.2.4,99.95652252674164,
,,,0,0,0,0,36,0,36,0,,,,,,,,,,,,,,,,,,,,,,,,,,,,,,,,,,,,,,,,,,,,,,,,,,,,,,,,,,,103,001,2023-03-01_12h27.37.238,eb_01,2022.2.4,99.95652252674164,
5,stimuli/5.png,s,0,0,0,0,37,0,37,0,0,0,0,0,,,,,,,,,,,,,,,,,,182.10728997600017,182.10728997600017,182.10728997600017,182.10728997600017,s,1,1.8378704074566485,183.9684139576002,183.9684139576002,183.9684139576002,,,,,,,,,,,,,,,,,,,,,,,,,,,,103,001,2023-03-01_12h27.37.238,eb_01,2022.2.4,99.95652252674164,
,,,0,0,0,0,37,0,37,0,,,,,,,,,,,,,,,,,,,,,,,,,,,,,,,,,,,,,,,,,,,,,,,,,,,,,,,,,,,103,001,2023-03-01_12h27.37.238,eb_01,2022.2.4,99.95652252674164,
9,stimuli/9.png,l,0,0,0,0,38,0,38,0,0,0,0,0,,,,,,,,,,,,,,,,,,184.98906764699132,184.98906764699132,184.98906764699132,184.98906764699132,l,1,1.156028503080961,186.16945267904157,186.16945267904157,186.16945267904157,,,,,,,,,,,,,,,,,,,,,,,,,,,,103,001,2023-03-01_12h27.37.238,eb_01,2022.2.4,99.95652252674164,
,,,0,0,0,0,38,0,38,0,,,,,,,,,,,,,,,,,,,,,,,,,,,,,,,,,,,,,,,,,,,,,,,,,,,,,,,,,,,103,001,2023-03-01_12h27.37.238,eb_01,2022.2.4,99.95652252674164,
6,stimuli/6.png,s,0,0,0,0,39,0,39,0,0,0,0,0,,,,,,,,,,,,,,,,,,187.1900544504715,187.1900544504715,187.1900544504715,187.1900544504715,s,1,1.8270563791029417,189.05149688235724,189.05149688235724,189.05149688235724,,,,,,,,,,,,,,,,,,,,,,,,,,,,103,001,2023-03-01_12h27.37.238,eb_01,2022.2.4,99.95652252674164,
,,,0,0,0,0,39,0,39,0,,,,,,,,,,,,,,,,,,,,,,,,,,,,,,,,,,,,,,,,,,,,,,,,,,,,,,,,,,,103,001,2023-03-01_12h27.37.238,eb_01,2022.2.4,99.95652252674164,
8,stimuli/8.png,l,0,0,0,0,40,0,40,0,0,0,0,0,,,,,,,,,,,,,,,,,,190.05209876848858,190.05209876848858,190.05209876848858,190.05209876848858,l,1,0.9810861033420224,191.06272474515754,191.06272474515754,191.06272474515754,,,,,,,,,,,,,,,,,,,,,,,,,,,,103,001,2023-03-01_12h27.37.238,eb_01,2022.2.4,99.95652252674164,
,,,0,0,0,0,40,0,40,0,,,,,,,,,,,,,,,,,,,,,,,,,,,,,,,,,,,,,,,,,,,,,,,,,,,,,,,,,,,103,001,2023-03-01_12h27.37.238,eb_01,2022.2.4,99.95652252674164,
6,stimuli/6.png,s,0,0,0,0,41,0,41,0,0,0,0,0,,,,,,,,,,,,,,,,,,192.0833455330485,192.0833455330485,192.0833455330485,192.0833455330485,s,1,1.3339042676252575,193.45416836330696,193.45416836330696,193.45416836330696,,,,,,,,,,,,,,,,,,,,,,,,,,,,103,001,2023-03-01_12h27.37.238,eb_01,2022.2.4,99.95652252674164,
,,,0,0,0,0,41,0,41,0,,,,,,,,,,,,,,,,,,,,,,,,,,,,,,,,,,,,,,,,,,,,,,,,,,,,,,,,,,,103,001,2023-03-01_12h27.37.238,eb_01,2022.2.4,99.95652252674164,
5,stimuli/5.png,s,0,0,0,0,42,0,42,0,0,0,0,0,,,,,,,,,,,,,,,,,,194.45479198253815,194.45479198253815,194.45479198253815,194.45479198253815,s,1,1.178481813891267,195.65549021874722,195.65549021874722,195.65549021874722,,,,,,,,,,,,,,,,,,,,,,,,,,,,103,001,2023-03-01_12h27.37.238,eb_01,2022.2.4,99.95652252674164,
,,,0,0,0,0,42,0,42,0,,,,,,,,,,,,,,,,,,,,,,,,,,,,,,,,,,,,,,,,,,,,,,,,,,,,,,,,,,,103,001,2023-03-01_12h27.37.238,eb_01,2022.2.4,99.95652252674164,
6,stimuli/6.png,s,0,0,0,0,43,0,43,0,0,0,0,0,,,,,,,,,,,,,,,,,,196.67580915802682,196.67580915802682,196.67580915802682,196.67580915802682,s,1,0.8135073004796141,197.526647648192,197.526647648192,197.526647648192,,,,,,,,,,,,,,,,,,,,,,,,,,,,103,001,2023-03-01_12h27.37.238,eb_01,2022.2.4,99.95652252674164,
,,,0,0,0,0,43,0,43,0,,,,,,,,,,,,,,,,,,,,,,,,,,,,,,,,,,,,,,,,,,,,,,,,,,,,,,,,,,,103,001,2023-03-01_12h27.37.238,eb_01,2022.2.4,99.95652252674164,
8,stimuli/8.png,l,0,0,0,0,44,0,44,0,0,0,0,0,,,,,,,,,,,,,,,,,,198.52724953432335,198.52724953432335,198.52724953432335,198.52724953432335,l,1,0.8421174174200132,199.39777096874423,199.39777096874423,199.39777096874423,,,,,,,,,,,,,,,,,,,,,,,,,,,,103,001,2023-03-01_12h27.37.238,eb_01,2022.2.4,99.95652252674164,
,,,0,0,0,0,44,0,44,0,,,,,,,,,,,,,,,,,,,,,,,,,,,,,,,,,,,,,,,,,,,,,,,,,,,,,,,,,,,103,001,2023-03-01_12h27.37.238,eb_01,2022.2.4,99.95652252674164,
9,stimuli/9.png,l,0,0,0,0,45,0,45,0,0,0,0,0,,,,,,,,,,,,,,,,,,200.4183974917596,200.4183974917596,200.4183974917596,200.4183974917596,l,1,1.5099985216656933,201.94898849021047,201.94898849021047,201.94898849021047,,,,,,,,,,,,,,,,,,,,,,,,,,,,103,001,2023-03-01_12h27.37.238,eb_01,2022.2.4,99.95652252674164,
,,,0,0,0,0,45,0,45,0,,,,,,,,,,,,,,,,,,,,,,,,,,,,,,,,,,,,,,,,,,,,,,,,,,,,,,,,,,,103,001,2023-03-01_12h27.37.238,eb_01,2022.2.4,99.95652252674164,
5,stimuli/5.png,s,0,0,0,0,46,0,46,0,0,0,0,0,,,,,,,,,,,,,,,,,,202.9599434818665,202.9599434818665,202.9599434818665,202.9599434818665,s,1,0.8565225387028477,203.8604925143045,203.8604925143045,203.8604925143045,,,,,,,,,,,,,,,,,,,,,,,,,,,,103,001,2023-03-01_12h27.37.238,eb_01,2022.2.4,99.95652252674164,
,,,0,0,0,0,46,0,46,0,,,,,,,,,,,,,,,,,,,,,,,,,,,,,,,,,,,,,,,,,,,,,,,,,,,,,,,,,,,103,001,2023-03-01_12h27.37.238,eb_01,2022.2.4,99.95652252674164,
9,stimuli/9.png,l,0,0,0,0,47,0,47,0,0,0,0,0,,,,,,,,,,,,,,,,,,204.88110696337571,204.88110696337571,204.88110696337571,204.88110696337571,l,1,0.7993493932099227,205.70127823831535,205.70127823831535,205.70127823831535,,,,,,,,,,,,,,,,,,,,,,,,,,,,103,001,2023-03-01_12h27.37.238,eb_01,2022.2.4,99.95652252674164,
,,,0,0,0,0,47,0,47,0,,,,,,,,,,,,,,,,,,,,,,,,,,,,,,,,,,,,,,,,,,,,,,,,,,,,,,,,,,,103,001,2023-03-01_12h27.37.238,eb_01,2022.2.4,99.95652252674164,
6,stimuli/6.png,s,0,0,0,0,48,0,48,0,0,0,0,0,,,,,,,,,,,,,,,,,,206.72222894673905,206.72222894673905,206.72222894673905,206.72222894673905,s,1,0.854241166898646,207.6127436257866,207.6127436257866,207.6127436257866,,,,,,,,,,,,,,,,,,,,,,,,,,,,103,001,2023-03-01_12h27.37.238,eb_01,2022.2.4,99.95652252674164,
,,,0,0,0,0,48,0,48,0,,,,,,,,,,,,,,,,,,,,,,,,,,,,,,,,,,,,,,,,,,,,,,,,,,,,,,,,,,,103,001,2023-03-01_12h27.37.238,eb_01,2022.2.4,99.95652252674164,
5,stimuli/5.png,s,0,0,0,0,49,0,49,0,0,0,0,0,,,,,,,,,,,,,,,,,,208.61339078921083,208.61339078921083,208.61339078921083,208.61339078921083,s,1,0.9871387716993922,209.62396726270708,209.62396726270708,209.62396726270708,,,,,,,,,,,,,,,,,,,,,,,,,,,,103,001,2023-03-01_12h27.37.238,eb_01,2022.2.4,99.95652252674164,
,,,0,0,0,0,49,0,49,0,,,,,,,,,,,,,,,,,,,,,,,,,,,,,,,,,,,,,,,,,,,,,,,,,,,,,,,,,,,103,001,2023-03-01_12h27.37.238,eb_01,2022.2.4,99.95652252674164,
9,stimuli/9.png,l,0,0,0,0,50,0,50,0,0,0,0,0,,,,,,,,,,,,,,,,,,210.64460133193643,210.64460133193643,210.64460133193643,210.64460133193643,l,1,0.723958476617554,211.39477663051912,211.39477663051912,211.39477663051912,,,,,,,,,,,,,,,,,,,,,,,,,,,,103,001,2023-03-01_12h27.37.238,eb_01,2022.2.4,99.95652252674164,
,,,0,0,0,0,50,0,50,0,,,,,,,,,,,,,,,,,,,,,,,,,,,,,,,,,,,,,,,,,,,,,,,,,,,,,,,,,,,103,001,2023-03-01_12h27.37.238,eb_01,2022.2.4,99.95652252674164,
5,stimuli/5.png,s,0,0,0,0,51,0,51,0,0,0,0,0,,,,,,,,,,,,,,,,,,212.40566491363097,212.40566491363097,212.40566491363097,212.40566491363097,s,1,0.7309405368487205,213.16614864414078,213.16614864414078,213.16614864414078,,,,,,,,,,,,,,,,,,,,,,,,,,,,103,001,2023-03-01_12h27.37.238,eb_01,2022.2.4,99.95652252674164,
,,,0,0,0,0,51,0,51,0,,,,,,,,,,,,,,,,,,,,,,,,,,,,,,,,,,,,,,,,,,,,,,,,,,,,,,,,,,,103,001,2023-03-01_12h27.37.238,eb_01,2022.2.4,99.95652252674164,
6,stimuli/6.png,s,0,0,0,0,52,0,52,0,0,0,0,0,,,,,,,,,,,,,,,,,,214.18643015419366,214.18643015419366,214.18643015419366,214.18643015419366,s,1,0.8461884496427956,215.06727632036927,215.06727632036927,215.06727632036927,,,,,,,,,,,,,,,,,,,,,,,,,,,,103,001,2023-03-01_12h27.37.238,eb_01,2022.2.4,99.95652252674164,
,,,0,0,0,0,52,0,52,0,,,,,,,,,,,,,,,,,,,,,,,,,,,,,,,,,,,,,,,,,,,,,,,,,,,,,,,,,,,103,001,2023-03-01_12h27.37.238,eb_01,2022.2.4,99.95652252674164,
5,stimuli/5.png,s,0,0,0,0,53,0,53,0,0,0,0,0,,,,,,,,,,,,,,,,,,216.06788394162322,216.06788394162322,216.06788394162322,216.06788394162322,s,1,0.8917690992129792,216.9884500647313,216.9884500647313,216.9884500647313,,,,,,,,,,,,,,,,,,,,,,,,,,,,103,001,2023-03-01_12h27.37.238,eb_01,2022.2.4,99.95652252674164,
,,,0,0,0,0,53,0,53,0,,,,,,,,,,,,,,,,,,,,,,,,,,,,,,,,,,,,,,,,,,,,,,,,,,,,,,,,,,,103,001,2023-03-01_12h27.37.238,eb_01,2022.2.4,99.95652252674164,
6,stimuli/6.png,s,0,0,0,0,54,0,54,0,0,0,0,0,,,,,,,,,,,,,,,,,,218.00873972469526,218.00873972469526,218.00873972469526,218.00873972469526,s,1,2.350984371303639,220.39050094493723,220.39050094493723,220.39050094493723,,,,,,,,,,,,,,,,,,,,,,,,,,,,103,001,2023-03-01_12h27.37.238,eb_01,2022.2.4,99.95652252674164,
,,,0,0,0,0,54,0,54,0,,,,,,,,,,,,,,,,,,,,,,,,,,,,,,,,,,,,,,,,,,,,,,,,,,,,,,,,,,,103,001,2023-03-01_12h27.37.238,eb_01,2022.2.4,99.95652252674164,
9,stimuli/9.png,l,0,0,0,0,55,0,55,0,0,0,0,0,,,,,,,,,,,,,,,,,,221.40114714546326,221.40114714546326,221.40114714546326,221.40114714546326,l,1,0.9025973144525778,222.33137061304478,222.33137061304478,222.33137061304478,,,,,,,,,,,,,,,,,,,,,,,,,,,,103,001,2023-03-01_12h27.37.238,eb_01,2022.2.4,99.95652252674164,
,,,0,0,0,0,55,0,55,0,,,,,,,,,,,,,,,,,,,,,,,,,,,,,,,,,,,,,,,,,,,,,,,,,,,,,,,,,,,103,001,2023-03-01_12h27.37.238,eb_01,2022.2.4,99.95652252674164,
5,stimuli/5.png,s,0,0,0,0,56,0,56,0,0,0,0,0,,,,,,,,,,,,,,,,,,223.34229119395968,223.34229119395968,223.34229119395968,223.34229119395968,s,1,0.6735026701226161,224.04269286390627,224.04269286390627,224.04269286390627,,,,,,,,,,,,,,,,,,,,,,,,,,,,103,001,2023-03-01_12h27.37.238,eb_01,2022.2.4,99.95652252674164,
,,,0,0,0,0,56,0,56,0,,,,,,,,,,,,,,,,,,,,,,,,,,,,,,,,,,,,,,,,,,,,,,,,,,,,,,,,,,,103,001,2023-03-01_12h27.37.238,eb_01,2022.2.4,99.95652252674164,
6,stimuli/6.png,s,0,0,0,0,57,0,57,0,0,0,0,0,,,,,,,,,,,,,,,,,,225.06335017548008,225.06335017548008,225.06335017548008,225.06335017548008,s,1,0.8724631638742721,225.97390730048028,225.97390730048028,225.97390730048028,,,,,,,,,,,,,,,,,,,,,,,,,,,,103,001,2023-03-01_12h27.37.238,eb_01,2022.2.4,99.95652252674164,
,,,0,0,0,0,57,0,57,0,,,,,,,,,,,,,,,,,,,,,,,,,,,,,,,,,,,,,,,,,,,,,,,,,,,,,,,,,,,103,001,2023-03-01_12h27.37.238,eb_01,2022.2.4,99.95652252674164,
9,stimuli/9.png,l,0,0,0,0,58,0,58,0,0,0,0,0,,,,,,,,,,,,,,,,,,226.98451667547488,226.98451667547488,226.98451667547488,226.98451667547488,l,1,0.6153204447182361,227.62458273202537,227.62458273202537,227.62458273202537,,,,,,,,,,,,,,,,,,,,,,,,,,,,103,001,2023-03-01_12h27.37.238,eb_01,2022.2.4,99.95652252674164,
,,,0,0,0,0,58,0,58,0,,,,,,,,,,,,,,,,,,,,,,,,,,,,,,,,,,,,,,,,,,,,,,,,,,,,,,,,,,,103,001,2023-03-01_12h27.37.238,eb_01,2022.2.4,99.95652252674164,
6,stimuli/6.png,s,0,0,0,0,59,0,59,0,0,0,0,0,,,,,,,,,,,,,,,,,,228.6455249886876,228.6455249886876,228.6455249886876,228.6455249886876,s,1,0.6983583940309472,229.37596753799335,229.37596753799335,229.37596753799335,,,,,,,,,,,,,,,,,,,,,,,,,,,,103,001,2023-03-01_12h27.37.238,eb_01,2022.2.4,99.95652252674164,
,,,0,0,0,0,59,0,59,0,,,,,,,,,,,,,,,,,,,,,,,,,,,,,,,,,,,,,,,,,,,,,,,,,,,,,,,,,,,103,001,2023-03-01_12h27.37.238,eb_01,2022.2.4,99.95652252674164,
5,stimuli/5.png,s,0,0,0,0,60,0,60,0,0,0,0,0,,,,,,,,,,,,,,,,,,230.37657032967036,230.37657032967036,230.37657032967036,230.37657032967036,s,1,0.5593226977180166,230.9465797382909,230.9465797382909,230.9465797382909,231.96754252065875,231.96754252065875,231.96754252065875,,,,,,,,,,,,,,,,,,,,,,,,,103,001,2023-03-01_12h27.37.238,eb_01,2022.2.4,99.95652252674164,
,,,0,0,0,0,60,0,60,0,,,,,,,,,,,,,,,,,,,,,,,,,,,,,,,,,,,,,,,,,,,,,,,,,,,,,,,,,,,103,001,2023-03-01_12h27.37.238,eb_01,2022.2.4,99.95652252674164,
9,stimuli/9.png,l,0,0,0,0,61,0,61,0,0,0,0,0,,,,,,,,,,,,,,,,,,231.96754252065875,231.96754252065875,231.96754252065875,231.96754252065875,l,1,1.6234250799370784,233.61822368732828,233.61822368732828,233.61822368732828,,,,,,,,,,,,,,,,,,,,,,,,,,,,103,001,2023-03-01_12h27.37.238,eb_01,2022.2.4,99.95652252674164,
,,,0,0,0,0,61,0,61,0,,,,,,,,,,,,,,,,,,,,,,,,,,,,,,,,,,,,,,,,,,,,,,,,,,,,,,,,,,,103,001,2023-03-01_12h27.37.238,eb_01,2022.2.4,99.95652252674164,
8,stimuli/8.png,l,0,0,0,0,62,0,62,0,0,0,0,0,,,,,,,,,,,,,,,,,,234.65065520768803,234.65065520768803,234.65065520768803,234.65065520768803,l,1,0.5803361906509963,235.25948778101701,235.25948778101701,235.25948778101701,,,,,,,,,,,,,,,,,,,,,,,,,,,,103,001,2023-03-01_12h27.37.238,eb_01,2022.2.4,99.95652252674164,
,,,0,0,0,0,62,0,62,0,,,,,,,,,,,,,,,,,,,,,,,,,,,,,,,,,,,,,,,,,,,,,,,,,,,,,,,,,,,103,001,2023-03-01_12h27.37.238,eb_01,2022.2.4,99.95652252674164,
9,stimuli/9.png,l,0,0,0,0,63,0,63,0,0,0,0,0,,,,,,,,,,,,,,,,,,236.28015626098932,236.28015626098932,236.28015626098932,236.28015626098932,l,1,0.6068424227705691,236.9102223748905,236.9102223748905,236.9102223748905,,,,,,,,,,,,,,,,,,,,,,,,,,,,103,001,2023-03-01_12h27.37.238,eb_01,2022.2.4,99.95652252674164,
,,,0,0,0,0,63,0,63,0,,,,,,,,,,,,,,,,,,,,,,,,,,,,,,,,,,,,,,,,,,,,,,,,,,,,,,,,,,,103,001,2023-03-01_12h27.37.238,eb_01,2022.2.4,99.95652252674164,
8,stimuli/8.png,l,0,0,0,0,64,0,64,0,0,0,0,0,,,,,,,,,,,,,,,,,,237.9211577463866,237.9211577463866,237.9211577463866,237.9211577463866,l,1,0.5818671668093884,238.5315194847808,238.5315194847808,238.5315194847808,,,,,,,,,,,,,,,,,,,,,,,,,,,,103,001,2023-03-01_12h27.37.238,eb_01,2022.2.4,99.95652252674164,
,,,0,0,0,0,64,0,64,0,,,,,,,,,,,,,,,,,,,,,,,,,,,,,,,,,,,,,,,,,,,,,,,,,,,,,,,,,,,103,001,2023-03-01_12h27.37.238,eb_01,2022.2.4,99.95652252674164,
3,stimuli/3.png,l,0,0,0,0,65,0,65,0,0,0,0,0,,,,,,,,,,,,,,,,,,239.5421364059912,239.5421364059912,239.5421364059912,239.5421364059912,l,1,0.5689426129647472,240.12220190110202,240.12220190110202,240.12220190110202,241.13278229863135,241.13278229863135,241.13278229863135,,,,,,,,,,,,,,,,,,,,,,,,,103,001,2023-03-01_12h27.37.238,eb_01,2022.2.4,99.95652252674164,
,,,0,0,0,0,65,0,65,0,,,,,,,,,,,,,,,,,,,,,,,,,,,,,,,,,,,,,,,,,,,,,,,,,,,,,,,,,,,103,001,2023-03-01_12h27.37.238,eb_01,2022.2.4,99.95652252674164,
4,stimuli/4.png,l,0,0,0,0,66,0,66,0,0,0,0,0,,,,,,,,,,,,,,,,,,241.13278229863135,241.13278229863135,241.13278229863135,241.13278229863135,l,1,0.8023192816963274,241.96358317242266,241.96358317242266,241.96358317242266,,,,,,,,,,,,,,,,,,,,,,,,,,,,103,001,2023-03-01_12h27.37.238,eb_01,2022.2.4,99.95652252674164,
,,,0,0,0,0,66,0,66,0,,,,,,,,,,,,,,,,,,,,,,,,,,,,,,,,,,,,,,,,,,,,,,,,,,,,,,,,,,,103,001,2023-03-01_12h27.37.238,eb_01,2022.2.4,99.95652252674164,
1,stimuli/1.png,s,0,0,0,0,67,0,67,0,0,0,0,0,,,,,,,,,,,,,,,,,,242.98390090430803,242.98390090430803,242.98390090430803,242.98390090430803,s,1,1.0311821062914532,244.05487849235033,244.05487849235033,244.05487849235033,,,,,,,,,,,,,,,,,,,,,,,,,,,,103,001,2023-03-01_12h27.37.238,eb_01,2022.2.4,99.95652252674164,
,,,0,0,0,0,67,0,67,0,,,,,,,,,,,,,,,,,,,,,,,,,,,,,,,,,,,,,,,,,,,,,,,,,,,,,,,,,,,103,001,2023-03-01_12h27.37.238,eb_01,2022.2.4,99.95652252674164,
4,stimuli/4.png,l,0,0,0,0,68,0,68,0,0,0,0,0,,,,,,,,,,,,,,,,,,245.05516645592616,245.05516645592616,245.05516645592616,245.05516645592616,l,1,1.2560104223503004,246.33624516627242,246.33624516627242,246.33624516627242,,,,,,,,,,,,,,,,,,,,,,,,,,,,103,001,2023-03-01_12h27.37.238,eb_01,2022.2.4,99.95652252674164,
,,,0,0,0,0,68,0,68,0,,,,,,,,,,,,,,,,,,,,,,,,,,,,,,,,,,,,,,,,,,,,,,,,,,,,,,,,,,,103,001,2023-03-01_12h27.37.238,eb_01,2022.2.4,99.95652252674164,
3,stimuli/3.png,l,0,0,0,0,69,0,69,0,0,0,0,0,,,,,,,,,,,,,,,,,,247.34686782260542,247.34686782260542,247.34686782260542,247.34686782260542,l,1,0.8833294120377104,248.24709478257682,248.24709478257682,248.24709478257682,249.2576938947186,249.2576938947186,249.2576938947186,,,,,,,,,,,,,,,,,,,,,,,,,103,001,2023-03-01_12h27.37.238,eb_01,2022.2.4,99.95652252674164,
,,,0,0,0,0,69,0,69,0,,,,,,,,,,,,,,,,,,,,,,,,,,,,,,,,,,,,,,,,,,,,,,,,,,,,,,,,,,,103,001,2023-03-01_12h27.37.238,eb_01,2022.2.4,99.95652252674164,
4,stimuli/4.png,l,0,0,0,0,70,0,70,0,0,0,0,0,,,,,,,,,,,,,,,,,,249.2576938947186,249.2576938947186,249.2576938947186,249.2576938947186,l,1,0.5725418558067759,249.8584142866148,249.8584142866148,249.8584142866148,,,,,,,,,,,,,,,,,,,,,,,,,,,,103,001,2023-03-01_12h27.37.238,eb_01,2022.2.4,99.95652252674164,
,,,0,0,0,0,70,0,70,0,,,,,,,,,,,,,,,,,,,,,,,,,,,,,,,,,,,,,,,,,,,,,,,,,,,,,,,,,,,103,001,2023-03-01_12h27.37.238,eb_01,2022.2.4,99.95652252674164,
3,stimuli/3.png,l,0,0,0,0,71,0,71,0,0,0,0,0,,,,,,,,,,,,,,,,,,250.86901943572957,250.86901943572957,250.86901943572957,250.86901943572957,l,1,0.6412673513586924,251.52907813321144,251.52907813321144,251.52907813321144,252.54002889898584,252.54002889898584,252.54002889898584,,,,,,,,,,,,,,,,,,,,,,,,,103,001,2023-03-01_12h27.37.238,eb_01,2022.2.4,99.95652252674164,
,,,0,0,0,0,71,0,71,0,,,,,,,,,,,,,,,,,,,,,,,,,,,,,,,,,,,,,,,,,,,,,,,,,,,,,,,,,,,103,001,2023-03-01_12h27.37.238,eb_01,2022.2.4,99.95652252674164,
8,stimuli/8.png,l,0,0,0,0,72,0,72,0,0,0,0,0,,,,,,,,,,,,,,,,,,252.54002889898584,252.54002889898584,252.54002889898584,252.54002889898584,l,1,0.6182637705278466,253.1804137076706,253.1804137076706,253.1804137076706,,,,,,,,,,,,,,,,,,,,,,,,,,,,103,001,2023-03-01_12h27.37.238,eb_01,2022.2.4,99.95652252674164,
,,,0,0,0,0,72,0,72,0,,,,,,,,,,,,,,,,,,,,,,,,,,,,,,,,,,,,,,,,,,,,,,,,,,,,,,,,,,,103,001,2023-03-01_12h27.37.238,eb_01,2022.2.4,99.95652252674164,
9,stimuli/9.png,l,0,0,0,0,73,0,73,0,0,0,0,0,,,,,,,,,,,,,,,,,,254.20098710532875,254.20098710532875,254.20098710532875,254.20098710532875,l,1,0.5893801787478878,254.81108291509736,254.81108291509736,254.81108291509736,,,,,,,,,,,,,,,,,,,,,,,,,,,,103,001,2023-03-01_12h27.37.238,eb_01,2022.2.4,99.95652252674164,
,,,0,0,0,0,73,0,73,0,,,,,,,,,,,,,,,,,,,,,,,,,,,,,,,,,,,,,,,,,,,,,,,,,,,,,,,,,,,103,001,2023-03-01_12h27.37.238,eb_01,2022.2.4,99.95652252674164,
8,stimuli/8.png,l,0,0,0,0,74,0,74,0,0,0,0,0,,,,,,,,,,,,,,,,,,255.82204454742168,255.82204454742168,255.82204454742168,255.82204454742168,l,1,1.1362610412143113,256.98270618750394,256.98270618750394,256.98270618750394,,,,,,,,,,,,,,,,,,,,,,,,,,,,103,001,2023-03-01_12h27.37.238,eb_01,2022.2.4,99.95652252674164,
,,,0,0,0,0,74,0,74,0,,,,,,,,,,,,,,,,,,,,,,,,,,,,,,,,,,,,,,,,,,,,,,,,,,,,,,,,,,,103,001,2023-03-01_12h27.37.238,eb_01,2022.2.4,99.95652252674164,
9,stimuli/9.png,l,0,0,0,0,75,0,75,0,0,0,0,0,,,,,,,,,,,,,,,,,,258.0033490103433,258.0033490103433,258.0033490103433,258.0033490103433,l,1,0.6590287273538706,258.6938044666949,258.6938044666949,258.6938044666949,,,,,,,,,,,,,,,,,,,,,,,,,,,,103,001,2023-03-01_12h27.37.238,eb_01,2022.2.4,99.95652252674164,
,,,0,0,0,0,75,0,75,0,,,,,,,,,,,,,,,,,,,,,,,,,,,,,,,,,,,,,,,,,,,,,,,,,,,,,,,,,,,103,001,2023-03-01_12h27.37.238,eb_01,2022.2.4,99.95652252674164,
6,stimuli/6.png,s,0,0,0,0,76,0,76,0,0,0,0,0,,,,,,,,,,,,,,,,,,259.7043773180085,259.7043773180085,259.7043773180085,259.7043773180085,s,1,0.814036742945973,260.55489011352256,260.55489011352256,260.55489011352256,,,,,,,,,,,,,,,,,,,,,,,,,,,,103,001,2023-03-01_12h27.37.238,eb_01,2022.2.4,99.95652252674164,
,,,0,0,0,0,76,0,76,0,,,,,,,,,,,,,,,,,,,,,,,,,,,,,,,,,,,,,,,,,,,,,,,,,,,,,,,,,,,103,001,2023-03-01_12h27.37.238,eb_01,2022.2.4,99.95652252674164,
5,stimuli/5.png,s,0,0,0,0,77,0,77,0,0,0,0,0,,,,,,,,,,,,,,,,,,261.5554977347765,261.5554977347765,261.5554977347765,261.5554977347765,s,1,0.6900578590648365,262.26595126533357,262.26595126533357,262.26595126533357,,,,,,,,,,,,,,,,,,,,,,,,,,,,103,001,2023-03-01_12h27.37.238,eb_01,2022.2.4,99.95652252674164,
,,,0,0,0,0,77,0,77,0,,,,,,,,,,,,,,,,,,,,,,,,,,,,,,,,,,,,,,,,,,,,,,,,,,,,,,,,,,,103,001,2023-03-01_12h27.37.238,eb_01,2022.2.4,99.95652252674164,
9,stimuli/9.png,l,0,0,0,0,78,0,78,0,0,0,0,0,,,,,,,,,,,,,,,,,,263.28654760348763,263.28654760348763,263.28654760348763,263.28654760348763,l,1,0.8549420593735704,264.1667423803592,264.1667423803592,264.1667423803592,,,,,,,,,,,,,,,,,,,,,,,,,,,,103,001,2023-03-01_12h27.37.238,eb_01,2022.2.4,99.95652252674164,
,,,0,0,0,0,78,0,78,0,,,,,,,,,,,,,,,,,,,,,,,,,,,,,,,,,,,,,,,,,,,,,,,,,,,,,,,,,,,103,001,2023-03-01_12h27.37.238,eb_01,2022.2.4,99.95652252674164,
6,stimuli/6.png,s,0,0,0,0,79,0,79,0,0,0,0,0,,,,,,,,,,,,,,,,,,265.1877072756688,265.1877072756688,265.1877072756688,265.1877072756688,s,1,0.6978174813211808,265.9181446935472,265.9181446935472,265.9181446935472,,,,,,,,,,,,,,,,,,,,,,,,,,,,103,001,2023-03-01_12h27.37.238,eb_01,2022.2.4,99.95652252674164,
,,,0,0,0,0,79,0,79,0,,,,,,,,,,,,,,,,,,,,,,,,,,,,,,,,,,,,,,,,,,,,,,,,,,,,,,,,,,,103,001,2023-03-01_12h27.37.238,eb_01,2022.2.4,99.95652252674164,
8,stimuli/8.png,l,0,0,0,0,80,0,80,0,0,0,0,0,,,,,,,,,,,,,,,,,,266.9187574462285,266.9187574462285,266.9187574462285,266.9187574462285,l,1,0.5747698004088306,267.519083623838,267.519083623838,267.519083623838,,,,,,,,,,,,,,,,,,,,,,,,,,,,103,001,2023-03-01_12h27.37.238,eb_01,2022.2.4,99.95652252674164,
,,,0,0,0,0,80,0,80,0,,,,,,,,,,,,,,,,,,,,,,,,,,,,,,,,,,,,,,,,,,,,,,,,,,,,,,,,,,,103,001,2023-03-01_12h27.37.238,eb_01,2022.2.4,99.95652252674164,
6,stimuli/6.png,s,0,0,0,0,81,0,81,0,0,0,0,0,,,,,,,,,,,,,,,,,,268.5393959224475,268.5393959224475,268.5393959224475,268.5393959224475,s,1,0.674157983456098,269.2501513016159,269.2501513016159,269.2501513016159,,,,,,,,,,,,,,,,,,,,,,,,,,,,103,001,2023-03-01_12h27.37.238,eb_01,2022.2.4,99.95652252674164,
,,,0,0,0,0,81,0,81,0,,,,,,,,,,,,,,,,,,,,,,,,,,,,,,,,,,,,,,,,,,,,,,,,,,,,,,,,,,,103,001,2023-03-01_12h27.37.238,eb_01,2022.2.4,99.95652252674164,
9,stimuli/9.png,l,0,0,0,0,82,0,82,0,0,0,0,0,,,,,,,,,,,,,,,,,,270.26080052062935,270.26080052062935,270.26080052062935,270.26080052062935,l,1,0.888798908876197,271.17099482359845,271.17099482359845,271.17099482359845,,,,,,,,,,,,,,,,,,,,,,,,,,,,103,001,2023-03-01_12h27.37.238,eb_01,2022.2.4,99.95652252674164,
,,,0,0,0,0,82,0,82,0,,,,,,,,,,,,,,,,,,,,,,,,,,,,,,,,,,,,,,,,,,,,,,,,,,,,,,,,,,,103,001,2023-03-01_12h27.37.238,eb_01,2022.2.4,99.95652252674164,
8,stimuli/8.png,l,0,0,0,0,83,0,83,0,0,0,0,0,,,,,,,,,,,,,,,,,,272.1819480041613,272.1819480041613,272.1819480041613,272.1819480041613,l,1,1.167685594606155,273.37268795282944,273.37268795282944,273.37268795282944,,,,,,,,,,,,,,,,,,,,,,,,,,,,103,001,2023-03-01_12h27.37.238,eb_01,2022.2.4,99.95652252674164,
,,,0,0,0,0,83,0,83,0,,,,,,,,,,,,,,,,,,,,,,,,,,,,,,,,,,,,,,,,,,,,,,,,,,,,,,,,,,,103,001,2023-03-01_12h27.37.238,eb_01,2022.2.4,99.95652252674164,
6,stimuli/6.png,s,0,0,0,0,84,0,84,0,0,0,0,0,,,,,,,,,,,,,,,,,,274.3932864039234,274.3932864039234,274.3932864039234,274.3932864039234,s,1,0.5563995957636507,274.98364886071795,274.98364886071795,274.98364886071795,,,,,,,,,,,,,,,,,,,,,,,,,,,,103,001,2023-03-01_12h27.37.238,eb_01,2022.2.4,99.95652252674164,
,,,0,0,0,0,84,0,84,0,,,,,,,,,,,,,,,,,,,,,,,,,,,,,,,,,,,,,,,,,,,,,,,,,,,,,,,,,,,103,001,2023-03-01_12h27.37.238,eb_01,2022.2.4,99.95652252674164,
8,stimuli/8.png,l,0,0,0,0,85,0,85,0,0,0,0,0,,,,,,,,,,,,,,,,,,275.98424199323927,275.98424199323927,275.98424199323927,275.98424199323927,l,1,1.013479892626492,277.0248856069229,277.0248856069229,277.0248856069229,,,,,,,,,,,,,,,,,,,,,,,,,,,,103,001,2023-03-01_12h27.37.238,eb_01,2022.2.4,99.95652252674164,
,,,0,0,0,0,85,0,85,0,,,,,,,,,,,,,,,,,,,,,,,,,,,,,,,,,,,,,,,,,,,,,,,,,,,,,,,,,,,103,001,2023-03-01_12h27.37.238,eb_01,2022.2.4,99.95652252674164,
9,stimuli/9.png,l,0,0,0,0,86,0,86,0,0,0,0,0,,,,,,,,,,,,,,,,,,278.0454602119753,278.0454602119753,278.0454602119753,278.0454602119753,l,1,0.6792682804498327,278.7455908218708,278.7455908218708,278.7455908218708,,,,,,,,,,,,,,,,,,,,,,,,,,,,103,001,2023-03-01_12h27.37.238,eb_01,2022.2.4,99.95652252674164,
,,,0,0,0,0,86,0,86,0,,,,,,,,,,,,,,,,,,,,,,,,,,,,,,,,,,,,,,,,,,,,,,,,,,,,,,,,,,,103,001,2023-03-01_12h27.37.238,eb_01,2022.2.4,99.95652252674164,
6,stimuli/6.png,s,0,0,0,0,87,0,87,0,0,0,0,0,,,,,,,,,,,,,,,,,,279.76657201700436,279.76657201700436,279.76657201700436,279.76657201700436,s,1,0.5981757454374019,280.39692398153966,280.39692398153966,280.39692398153966,,,,,,,,,,,,,,,,,,,,,,,,,,,,103,001,2023-03-01_12h27.37.238,eb_01,2022.2.4,99.95652252674164,
,,,0,0,0,0,87,0,87,0,,,,,,,,,,,,,,,,,,,,,,,,,,,,,,,,,,,,,,,,,,,,,,,,,,,,,,,,,,,103,001,2023-03-01_12h27.37.238,eb_01,2022.2.4,99.95652252674164,
9,stimuli/9.png,l,0,0,0,0,88,0,88,0,0,0,0,0,,,,,,,,,,,,,,,,,,281.40754814711727,281.40754814711727,281.40754814711727,281.40754814711727,l,1,0.6612452017088799,282.09764108328636,282.09764108328636,282.09764108328636,,,,,,,,,,,,,,,,,,,,,,,,,,,,103,001,2023-03-01_12h27.37.238,eb_01,2022.2.4,99.95652252674164,
,,,0,0,0,0,88,0,88,0,,,,,,,,,,,,,,,,,,,,,,,,,,,,,,,,,,,,,,,,,,,,,,,,,,,,,,,,,,,103,001,2023-03-01_12h27.37.238,eb_01,2022.2.4,99.95652252674164,
8,stimuli/8.png,l,0,0,0,0,89,0,89,0,0,0,0,0,,,,,,,,,,,,,,,,,,283.1082480434925,283.1082480434925,283.1082480434925,283.1082480434925,l,1,0.536586252908819,283.668918859772,283.668918859772,283.668918859772,,,,,,,,,,,,,,,,,,,,,,,,,,,,103,001,2023-03-01_12h27.37.238,eb_01,2022.2.4,99.95652252674164,
,,,0,0,0,0,89,0,89,0,,,,,,,,,,,,,,,,,,,,,,,,,,,,,,,,,,,,,,,,,,,,,,,,,,,,,,,,,,,103,001,2023-03-01_12h27.37.238,eb_01,2022.2.4,99.95652252674164,
3,stimuli/3.png,l,0,0,0,0,90,0,90,0,0,0,0,0,,,,,,,,,,,,,,,,,,284.6795306495569,284.6795306495569,284.6795306495569,284.6795306495569,l,1,0.549320642128805,285.23954735989537,285.23954735989537,285.23954735989537,286.2504706574473,286.2504706574473,286.2504706574473,,,,,,,,,,,,,,,,,,,,,,,,,103,001,2023-03-01_12h27.37.238,eb_01,2022.2.4,99.95652252674164,
,,,0,0,0,0,90,0,90,0,,,,,,,,,,,,,,,,,,,,,,,,,,,,,,,,,,,,,,,,,,,,,,,,,,,,,,,,,,,103,001,2023-03-01_12h27.37.238,eb_01,2022.2.4,99.95652252674164,
8,stimuli/8.png,l,0,0,0,0,91,0,91,0,0,0,0,0,,,,,,,,,,,,,,,,,,286.2504706574473,286.2504706574473,286.2504706574473,286.2504706574473,l,1,0.6183769637591467,286.89082648866497,286.89082648866497,286.89082648866497,,,,,,,,,,,,,,,,,,,,,,,,,,,,103,001,2023-03-01_12h27.37.238,eb_01,2022.2.4,99.95652252674164,
,,,0,0,0,0,91,0,91,0,,,,,,,,,,,,,,,,,,,,,,,,,,,,,,,,,,,,,,,,,,,,,,,,,,,,,,,,,,,103,001,2023-03-01_12h27.37.238,eb_01,2022.2.4,99.95652252674164,
9,stimuli/9.png,l,0,0,0,0,92,0,92,0,0,0,0,0,,,,,,,,,,,,,,,,,,287.91148832796716,287.91148832796716,287.91148832796716,287.91148832796716,l,1,0.565375667922126,288.50152237347174,288.50152237347174,288.50152237347174,,,,,,,,,,,,,,,,,,,,,,,,,,,,103,001,2023-03-01_12h27.37.238,eb_01,2022.2.4,99.95652252674164,
,,,0,0,0,0,92,0,92,0,,,,,,,,,,,,,,,,,,,,,,,,,,,,,,,,,,,,,,,,,,,,,,,,,,,,,,,,,,,103,001,2023-03-01_12h27.37.238,eb_01,2022.2.4,99.95652252674164,
6,stimuli/6.png,s,0,0,0,0,93,0,93,0,0,0,0,0,,,,,,,,,,,,,,,,,,289.52247006340986,289.52247006340986,289.52247006340986,289.52247006340986,s,1,0.722436254070999,290.28294805879705,290.28294805879705,290.28294805879705,,,,,,,,,,,,,,,,,,,,,,,,,,,,103,001,2023-03-01_12h27.37.238,eb_01,2022.2.4,99.95652252674164,
,,,0,0,0,0,93,0,93,0,,,,,,,,,,,,,,,,,,,,,,,,,,,,,,,,,,,,,,,,,,,,,,,,,,,,,,,,,,,103,001,2023-03-01_12h27.37.238,eb_01,2022.2.4,99.95652252674164,
5,stimuli/5.png,s,0,0,0,0,94,0,94,0,0,0,0,0,,,,,,,,,,,,,,,,,,291.2835387765299,291.2835387765299,291.2835387765299,291.2835387765299,s,1,0.6014396344726265,291.9139387349951,291.9139387349951,291.9139387349951,,,,,,,,,,,,,,,,,,,,,,,,,,,,103,001,2023-03-01_12h27.37.238,eb_01,2022.2.4,99.95652252674164,
,,,0,0,0,0,94,0,94,0,,,,,,,,,,,,,,,,,,,,,,,,,,,,,,,,,,,,,,,,,,,,,,,,,,,,,,,,,,,103,001,2023-03-01_12h27.37.238,eb_01,2022.2.4,99.95652252674164,
6,stimuli/6.png,s,0,0,0,0,95,0,95,0,0,0,0,0,,,,,,,,,,,,,,,,,,292.93420636001065,292.93420636001065,292.93420636001065,292.93420636001065,s,1,0.517802213818868,293.48489232607244,293.48489232607244,293.48489232607244,,,,,,,,,,,,,,,,,,,,,,,,,,,,103,001,2023-03-01_12h27.37.238,eb_01,2022.2.4,99.95652252674164,
,,,0,0,0,0,95,0,95,0,,,,,,,,,,,,,,,,,,,,,,,,,,,,,,,,,,,,,,,,,,,,,,,,,,,,,,,,,,,103,001,2023-03-01_12h27.37.238,eb_01,2022.2.4,99.95652252674164,
5,stimuli/5.png,s,0,0,0,0,96,0,96,0,0,0,0,0,,,,,,,,,,,,,,,,,,294.48551503975796,294.48551503975796,294.48551503975796,294.48551503975796,s,1,0.5504800426460861,295.05582388220137,295.05582388220137,295.05582388220137,,,,,,,,,,,,,,,,,,,,,,,,,,,,103,001,2023-03-01_12h27.37.238,eb_01,2022.2.4,99.95652252674164,
,,,0,0,0,0,96,0,96,0,,,,,,,,,,,,,,,,,,,,,,,,,,,,,,,,,,,,,,,,,,,,,,,,,,,,,,,,,,,103,001,2023-03-01_12h27.37.238,eb_01,2022.2.4,99.95652252674164,
6,stimuli/6.png,s,0,0,0,0,97,0,97,0,0,0,0,0,,,,,,,,,,,,,,,,,,296.07610478855713,296.07610478855713,296.07610478855713,296.07610478855713,s,1,0.42394087884349574,296.536704640228,296.536704640228,296.536704640228,,,,,,,,,,,,,,,,,,,,,,,,,,,,103,001,2023-03-01_12h27.37.238,eb_01,2022.2.4,99.95652252674164,
,,,0,0,0,0,97,0,97,0,,,,,,,,,,,,,,,,,,,,,,,,,,,,,,,,,,,,,,,,,,,,,,,,,,,,,,,,,,,103,001,2023-03-01_12h27.37.238,eb_01,2022.2.4,99.95652252674164,
9,stimuli/9.png,l,0,0,0,0,98,0,98,0,0,0,0,0,,,,,,,,,,,,,,,,,,297.547342087144,297.547342087144,297.547342087144,297.547342087144,l,1,0.8807534359875717,298.4575541991817,298.4575541991817,298.4575541991817,,,,,,,,,,,,,,,,,,,,,,,,,,,,103,001,2023-03-01_12h27.37.238,eb_01,2022.2.4,99.95652252674164,
,,,0,0,0,0,98,0,98,0,,,,,,,,,,,,,,,,,,,,,,,,,,,,,,,,,,,,,,,,,,,,,,,,,,,,,,,,,,,103,001,2023-03-01_12h27.37.238,eb_01,2022.2.4,99.95652252674164,
6,stimuli/6.png,s,0,0,0,0,99,0,99,0,0,0,0,0,,,,,,,,,,,,,,,,,,299.47851849079234,299.47851849079234,299.47851849079234,299.47851849079234,s,1,0.5576088013003755,300.06887611800994,300.06887611800994,300.06887611800994,,,,,,,,,,,,,,,,,,,,,,,,,,,,103,001,2023-03-01_12h27.37.238,eb_01,2022.2.4,99.95652252674164,
,,,0,0,0,0,99,0,99,0,,,,,,,,,,,,,,,,,,,,,,,,,,,,,,,,,,,,,,,,,,,,,,,,,,,,,,,,,,,103,001,2023-03-01_12h27.37.238,eb_01,2022.2.4,99.95652252674164,
,,,0,0,0,0,,,,,,,,,,,,,,,,,,,,,,,,,,,,,,,,,,,,,,,301.05945330990653,301.05945330990653,return,6.392793422475734,,,,,,,,,,,,,,,,,,,,,103,001,2023-03-01_12h27.37.238,eb_01,2022.2.4,99.95652252674164,
9,stimuli/9.png,l,1,0,1,0,0,0,0,0,0,0,0,0,,,,,,,,,,,,,,,,,,307.4833743294057,307.4833743294057,307.4833743294057,307.4833743294057,l,1,1.3119393478682468,308.823865600094,308.823865600094,308.823865600094,,,,,,,,,,,,,,,,,,,,,,,,,,,,103,001,2023-03-01_12h27.37.238,eb_01,2022.2.4,99.95652252674164,
,,,1,0,1,0,0,0,0,0,,,,,,,,,,,,,,,,,,,,,,,,,,,,,,,,,,,,,,,,,,,,,,,,,,,,,,,,,,,103,001,2023-03-01_12h27.37.238,eb_01,2022.2.4,99.95652252674164,
6,stimuli/6.png,s,1,0,1,0,1,0,1,0,0,0,0,0,,,,,,,,,,,,,,,,,,309.8447918587808,309.8447918587808,309.8447918587808,309.8447918587808,s,1,0.9665188893541199,310.8454103465847,310.8454103465847,310.8454103465847,,,,,,,,,,,,,,,,,,,,,,,,,,,,103,001,2023-03-01_12h27.37.238,eb_01,2022.2.4,99.95652252674164,
,,,1,0,1,0,1,0,1,0,,,,,,,,,,,,,,,,,,,,,,,,,,,,,,,,,,,,,,,,,,,,,,,,,,,,,,,,,,,103,001,2023-03-01_12h27.37.238,eb_01,2022.2.4,99.95652252674164,
8,stimuli/8.png,l,1,0,1,0,2,0,2,0,0,0,0,0,,,,,,,,,,,,,,,,,,311.84601494935487,311.84601494935487,311.84601494935487,311.84601494935487,l,1,0.573294666244692,312.4463707081286,312.4463707081286,312.4463707081286,,,,,,,,,,,,,,,,,,,,,,,,,,,,103,001,2023-03-01_12h27.37.238,eb_01,2022.2.4,99.95652252674164,
,,,1,0,1,0,2,0,2,0,,,,,,,,,,,,,,,,,,,,,,,,,,,,,,,,,,,,,,,,,,,,,,,,,,,,,,,,,,,103,001,2023-03-01_12h27.37.238,eb_01,2022.2.4,99.95652252674164,
3,stimuli/3.png,l,1,0,1,0,3,0,3,0,0,0,0,0,,,,,,,,,,,,,,,,,,313.4569948737044,313.4569948737044,313.4569948737044,313.4569948737044,l,1,0.5063639625350334,313.9769849489221,313.9769849489221,313.9769849489221,314.98758526845995,314.98758526845995,314.98758526845995,,,,,,,,,,,,,,,,,,,,,,,,,103,001,2023-03-01_12h27.37.238,eb_01,2022.2.4,99.95652252674164,
,,,1,0,1,0,3,0,3,0,,,,,,,,,,,,,,,,,,,,,,,,,,,,,,,,,,,,,,,,,,,,,,,,,,,,,,,,,,,103,001,2023-03-01_12h27.37.238,eb_01,2022.2.4,99.95652252674164,
4,stimuli/4.png,l,1,0,1,0,4,0,4,0,0,0,0,0,,,,,,,,,,,,,,,,,,314.98758526845995,314.98758526845995,314.98758526845995,314.98758526845995,l,1,0.623809635068028,315.63831895678777,315.63831895678777,315.63831895678777,,,,,,,,,,,,,,,,,,,,,,,,,,,,103,001,2023-03-01_12h27.37.238,eb_01,2022.2.4,99.95652252674164,
,,,1,0,1,0,4,0,4,0,,,,,,,,,,,,,,,,,,,,,,,,,,,,,,,,,,,,,,,,,,,,,,,,,,,,,,,,,,,103,001,2023-03-01_12h27.37.238,eb_01,2022.2.4,99.95652252674164,
2,stimuli/2.png,s,1,0,1,0,5,0,5,0,0,0,0,0,,,,,,,,,,,,,,,,,,316.6489479519423,316.6489479519423,316.6489479519423,316.6489479519423,s,1,0.5864779043495219,317.2489565848118,317.2489565848118,317.2489565848118,318.25953849158395,318.25953849158395,318.25953849158395,,,,,,,,,,,,,,,,,,,,,,,,,103,001,2023-03-01_12h27.37.238,eb_01,2022.2.4,99.95652252674164,
,,,1,0,1,0,5,0,5,0,,,,,,,,,,,,,,,,,,,,,,,,,,,,,,,,,,,,,,,,,,,,,,,,,,,,,,,,,,,103,001,2023-03-01_12h27.37.238,eb_01,2022.2.4,99.95652252674164,
4,stimuli/4.png,l,1,0,1,0,6,0,6,0,0,0,0,0,,,,,,,,,,,,,,,,,,318.25953849158395,318.25953849158395,318.25953849158395,318.25953849158395,l,1,0.6479122466917033,318.93032096468414,318.93032096468414,318.93032096468414,,,,,,,,,,,,,,,,,,,,,,,,,,,,103,001,2023-03-01_12h27.37.238,eb_01,2022.2.4,99.95652252674164,
,,,1,0,1,0,6,0,6,0,,,,,,,,,,,,,,,,,,,,,,,,,,,,,,,,,,,,,,,,,,,,,,,,,,,,,,,,,,,103,001,2023-03-01_12h27.37.238,eb_01,2022.2.4,99.95652252674164,
1,stimuli/1.png,s,1,0,1,0,7,0,7,0,0,0,0,0,,,,,,,,,,,,,,,,,,319.95092575459967,319.95092575459967,319.95092575459967,319.95092575459967,s,1,0.7405396245412703,320.72140157969443,320.72140157969443,320.72140157969443,,,,,,,,,,,,,,,,,,,,,,,,,,,,103,001,2023-03-01_12h27.37.238,eb_01,2022.2.4,99.95652252674164,
,,,1,0,1,0,7,0,7,0,,,,,,,,,,,,,,,,,,,,,,,,,,,,,,,,,,,,,,,,,,,,,,,,,,,,,,,,,,,103,001,2023-03-01_12h27.37.238,eb_01,2022.2.4,99.95652252674164,
2,stimuli/2.png,s,1,0,1,0,8,0,8,0,0,0,0,0,,,,,,,,,,,,,,,,,,321.7220185582555,321.7220185582555,321.7220185582555,321.7220185582555,s,1,0.6814883769857261,322.42209423170243,322.42209423170243,322.42209423170243,323.4327313767699,323.4327313767699,323.4327313767699,,,,,,,,,,,,,,,,,,,,,,,,,103,001,2023-03-01_12h27.37.238,eb_01,2022.2.4,99.95652252674164,
,,,1,0,1,0,8,0,8,0,,,,,,,,,,,,,,,,,,,,,,,,,,,,,,,,,,,,,,,,,,,,,,,,,,,,,,,,,,,103,001,2023-03-01_12h27.37.238,eb_01,2022.2.4,99.95652252674164,
4,stimuli/4.png,l,1,0,1,0,9,0,9,0,0,0,0,0,,,,,,,,,,,,,,,,,,323.4327313767699,323.4327313767699,323.4327313767699,323.4327313767699,l,1,0.7058750281539687,324.1634745672927,324.1634745672927,324.1634745672927,,,,,,,,,,,,,,,,,,,,,,,,,,,,103,001,2023-03-01_12h27.37.238,eb_01,2022.2.4,99.95652252674164,
,,,1,0,1,0,9,0,9,0,,,,,,,,,,,,,,,,,,,,,,,,,,,,,,,,,,,,,,,,,,,,,,,,,,,,,,,,,,,103,001,2023-03-01_12h27.37.238,eb_01,2022.2.4,99.95652252674164,
2,stimuli/2.png,s,1,0,1,0,10,0,10,0,0,0,0,0,,,,,,,,,,,,,,,,,,325.17410959942026,325.17410959942026,325.17410959942026,325.17410959942026,s,1,1.0124439481915033,326.20440946488634,326.20440946488634,326.20440946488634,327.2150242731568,327.2150242731568,327.2150242731568,,,,,,,,,,,,,,,,,,,,,,,,,103,001,2023-03-01_12h27.37.238,eb_01,2022.2.4,99.95652252674164,
,,,1,0,1,0,10,0,10,0,,,,,,,,,,,,,,,,,,,,,,,,,,,,,,,,,,,,,,,,,,,,,,,,,,,,,,,,,,,103,001,2023-03-01_12h27.37.238,eb_01,2022.2.4,99.95652252674164,
4,stimuli/4.png,l,1,0,1,0,11,0,11,0,0,0,0,0,,,,,,,,,,,,,,,,,,327.2150242731568,327.2150242731568,327.2150242731568,327.2150242731568,l,1,0.6355590922685224,327.8757410006092,327.8757410006092,327.8757410006092,,,,,,,,,,,,,,,,,,,,,,,,,,,,103,001,2023-03-01_12h27.37.238,eb_01,2022.2.4,99.95652252674164,
,,,1,0,1,0,11,0,11,0,,,,,,,,,,,,,,,,,,,,,,,,,,,,,,,,,,,,,,,,,,,,,,,,,,,,,,,,,,,103,001,2023-03-01_12h27.37.238,eb_01,2022.2.4,99.95652252674164,
2,stimuli/2.png,s,1,0,1,0,12,0,12,0,0,0,0,0,,,,,,,,,,,,,,,,,,328.8863630532469,328.8863630532469,328.8863630532469,328.8863630532469,s,1,0.8202524095522676,329.716531554197,329.716531554197,329.716531554197,330.7374864885023,330.7374864885023,330.7374864885023,,,,,,,,,,,,,,,,,,,,,,,,,103,001,2023-03-01_12h27.37.238,eb_01,2022.2.4,99.95652252674164,
,,,1,0,1,0,12,0,12,0,,,,,,,,,,,,,,,,,,,,,,,,,,,,,,,,,,,,,,,,,,,,,,,,,,,,,,,,,,,103,001,2023-03-01_12h27.37.238,eb_01,2022.2.4,99.95652252674164,
1,stimuli/1.png,s,1,0,1,0,13,0,13,0,0,0,0,0,,,,,,,,,,,,,,,,,,330.7374864885023,330.7374864885023,330.7374864885023,330.7374864885023,s,1,2.065187465314011,332.83877903444045,332.83877903444045,332.83877903444045,,,,,,,,,,,,,,,,,,,,,,,,,,,,103,001,2023-03-01_12h27.37.238,eb_01,2022.2.4,99.95652252674164,
,,,1,0,1,0,13,0,13,0,,,,,,,,,,,,,,,,,,,,,,,,,,,,,,,,,,,,,,,,,,,,,,,,,,,,,,,,,,,103,001,2023-03-01_12h27.37.238,eb_01,2022.2.4,99.95652252674164,
4,stimuli/4.png,l,1,0,1,0,14,0,14,0,0,0,0,0,,,,,,,,,,,,,,,,,,333.83904285012613,333.83904285012613,333.83904285012613,333.83904285012613,l,1,0.979680394359093,334.83996801612193,334.83996801612193,334.83996801612193,,,,,,,,,,,,,,,,,,,,,,,,,,,,103,001,2023-03-01_12h27.37.238,eb_01,2022.2.4,99.95652252674164,
,,,1,0,1,0,14,0,14,0,,,,,,,,,,,,,,,,,,,,,,,,,,,,,,,,,,,,,,,,,,,,,,,,,,,,,,,,,,,103,001,2023-03-01_12h27.37.238,eb_01,2022.2.4,99.95652252674164,
2,stimuli/2.png,s,1,0,1,0,15,0,15,0,0,0,0,0,,,,,,,,,,,,,,,,,,335.85057346708527,335.85057346708527,335.85057346708527,335.85057346708527,s,1,3.26427775396769,339.13225195062114,339.13225195062114,339.13225195062114,340.14320724412573,340.14320724412573,340.14320724412573,,,,,,,,,,,,,,,,,,,,,,,,,103,001,2023-03-01_12h27.37.238,eb_01,2022.2.4,99.95652252674164,
,,,1,0,1,0,15,0,15,0,,,,,,,,,,,,,,,,,,,,,,,,,,,,,,,,,,,,,,,,,,,,,,,,,,,,,,,,,,,103,001,2023-03-01_12h27.37.238,eb_01,2022.2.4,99.95652252674164,
3,stimuli/3.png,l,1,0,1,0,16,0,16,0,0,0,0,0,,,,,,,,,,,,,,,,,,340.14320724412573,340.14320724412573,340.14320724412573,340.14320724412573,l,1,3.7707060729226214,343.9251427517538,343.9251427517538,343.9251427517538,344.9360995545012,344.9360995545012,344.9360995545012,,,,,,,,,,,,,,,,,,,,,,,,,103,001,2023-03-01_12h27.37.238,eb_01,2022.2.4,99.95652252674164,
,,,1,0,1,0,16,0,16,0,,,,,,,,,,,,,,,,,,,,,,,,,,,,,,,,,,,,,,,,,,,,,,,,,,,,,,,,,,,103,001,2023-03-01_12h27.37.238,eb_01,2022.2.4,99.95652252674164,
2,stimuli/2.png,s,1,0,1,0,17,0,17,0,0,0,0,0,,,,,,,,,,,,,,,,,,344.9360995545012,344.9360995545012,344.9360995545012,344.9360995545012,s,1,0.6017912881052325,345.5561509351719,345.5561509351719,345.5561509351719,346.5767705156686,346.5767705156686,346.5767705156686,,,,,,,,,,,,,,,,,,,,,,,,,103,001,2023-03-01_12h27.37.238,eb_01,2022.2.4,99.95652252674164,
,,,1,0,1,0,17,0,17,0,,,,,,,,,,,,,,,,,,,,,,,,,,,,,,,,,,,,,,,,,,,,,,,,,,,,,,,,,,,103,001,2023-03-01_12h27.37.238,eb_01,2022.2.4,99.95652252674164,
1,stimuli/1.png,s,1,0,1,0,18,0,18,0,0,0,0,0,,,,,,,,,,,,,,,,,,346.5767705156686,346.5767705156686,346.5767705156686,346.5767705156686,s,1,0.5611675964300957,347.17748094656054,347.17748094656054,347.17748094656054,,,,,,,,,,,,,,,,,,,,,,,,,,,,103,001,2023-03-01_12h27.37.238,eb_01,2022.2.4,99.95652252674164,
,,,1,0,1,0,18,0,18,0,,,,,,,,,,,,,,,,,,,,,,,,,,,,,,,,,,,,,,,,,,,,,,,,,,,,,,,,,,,103,001,2023-03-01_12h27.37.238,eb_01,2022.2.4,99.95652252674164,
4,stimuli/4.png,l,1,0,1,0,19,0,19,0,0,0,0,0,,,,,,,,,,,,,,,,,,348.188070701397,348.188070701397,348.188070701397,348.188070701397,l,1,0.5978814430418424,348.8084480785674,348.8084480785674,348.8084480785674,,,,,,,,,,,,,,,,,,,,,,,,,,,,103,001,2023-03-01_12h27.37.238,eb_01,2022.2.4,99.95652252674164,
,,,1,0,1,0,19,0,19,0,,,,,,,,,,,,,,,,,,,,,,,,,,,,,,,,,,,,,,,,,,,,,,,,,,,,,,,,,,,103,001,2023-03-01_12h27.37.238,eb_01,2022.2.4,99.95652252674164,
1,stimuli/1.png,s,1,0,1,0,20,0,20,0,0,0,0,0,,,,,,,,,,,,,,,,,,349.82907188494573,349.82907188494573,349.82907188494573,349.82907188494573,s,1,0.5809202677155554,350.4494610342117,350.4494610342117,350.4494610342117,,,,,,,,,,,,,,,,,,,,,,,,,,,,103,001,2023-03-01_12h27.37.238,eb_01,2022.2.4,99.95652252674164,
,,,1,0,1,0,20,0,20,0,,,,,,,,,,,,,,,,,,,,,,,,,,,,,,,,,,,,,,,,,,,,,,,,,,,,,,,,,,,103,001,2023-03-01_12h27.37.238,eb_01,2022.2.4,99.95652252674164,
2,stimuli/2.png,s,1,0,1,0,21,0,21,0,0,0,0,0,,,,,,,,,,,,,,,,,,351.4500469223658,351.4500469223658,351.4500469223658,351.4500469223658,s,1,0.6879823480121559,352.1501464418543,352.1501464418543,352.1501464418543,353.1710793412094,353.1710793412094,353.1710793412094,,,,,,,,,,,,,,,,,,,,,,,,,103,001,2023-03-01_12h27.37.238,eb_01,2022.2.4,99.95652252674164,
,,,1,0,1,0,21,0,21,0,,,,,,,,,,,,,,,,,,,,,,,,,,,,,,,,,,,,,,,,,,,,,,,,,,,,,,,,,,,103,001,2023-03-01_12h27.37.238,eb_01,2022.2.4,99.95652252674164,
1,stimuli/1.png,s,1,0,1,0,22,0,22,0,0,0,0,0,,,,,,,,,,,,,,,,,,353.1710793412094,353.1710793412094,353.1710793412094,353.1710793412094,s,1,0.47896727701299824,353.6814169015306,353.6814169015306,353.6814169015306,,,,,,,,,,,,,,,,,,,,,,,,,,,,103,001,2023-03-01_12h27.37.238,eb_01,2022.2.4,99.95652252674164,
,,,1,0,1,0,22,0,22,0,,,,,,,,,,,,,,,,,,,,,,,,,,,,,,,,,,,,,,,,,,,,,,,,,,,,,,,,,,,103,001,2023-03-01_12h27.37.238,eb_01,2022.2.4,99.95652252674164,
2,stimuli/2.png,s,1,0,1,0,23,0,23,0,0,0,0,0,,,,,,,,,,,,,,,,,,354.68202844681764,354.68202844681764,354.68202844681764,354.68202844681764,s,1,0.40002541335888964,355.0919400685616,355.0919400685616,355.0919400685616,356.1025533675893,356.1025533675893,356.1025533675893,,,,,,,,,,,,,,,,,,,,,,,,,103,001,2023-03-01_12h27.37.238,eb_01,2022.2.4,99.95652252674164,
,,,1,0,1,0,23,0,23,0,,,,,,,,,,,,,,,,,,,,,,,,,,,,,,,,,,,,,,,,,,,,,,,,,,,,,,,,,,,103,001,2023-03-01_12h27.37.238,eb_01,2022.2.4,99.95652252674164,
4,stimuli/4.png,l,1,0,1,0,24,0,24,0,0,0,0,0,,,,,,,,,,,,,,,,,,356.1025533675893,356.1025533675893,356.1025533675893,356.1025533675893,l,1,0.6105596884208353,356.73325789130286,356.73325789130286,356.73325789130286,,,,,,,,,,,,,,,,,,,,,,,,,,,,103,001,2023-03-01_12h27.37.238,eb_01,2022.2.4,99.95652252674164,
,,,1,0,1,0,24,0,24,0,,,,,,,,,,,,,,,,,,,,,,,,,,,,,,,,,,,,,,,,,,,,,,,,,,,,,,,,,,,103,001,2023-03-01_12h27.37.238,eb_01,2022.2.4,99.95652252674164,
3,stimuli/3.png,l,1,0,1,0,25,0,25,0,0,0,0,0,,,,,,,,,,,,,,,,,,357.7438455331994,357.7438455331994,357.7438455331994,357.7438455331994,l,1,0.5852496823481488,358.3438970285715,358.3438970285715,358.3438970285715,359.35484085182907,359.35484085182907,359.35484085182907,,,,,,,,,,,,,,,,,,,,,,,,,103,001,2023-03-01_12h27.37.238,eb_01,2022.2.4,99.95652252674164,
,,,1,0,1,0,25,0,25,0,,,,,,,,,,,,,,,,,,,,,,,,,,,,,,,,,,,,,,,,,,,,,,,,,,,,,,,,,,,103,001,2023-03-01_12h27.37.238,eb_01,2022.2.4,99.95652252674164,
2,stimuli/2.png,s,1,0,1,0,26,0,26,0,0,0,0,0,,,,,,,,,,,,,,,,,,359.35484085182907,359.35484085182907,359.35484085182907,359.35484085182907,s,1,0.8223040745651815,360.1950340470139,360.1950340470139,360.1950340470139,361.2156590607865,361.2156590607865,361.2156590607865,,,,,,,,,,,,,,,,,,,,,,,,,103,001,2023-03-01_12h27.37.238,eb_01,2022.2.4,99.95652252674164,
,,,1,0,1,0,26,0,26,0,,,,,,,,,,,,,,,,,,,,,,,,,,,,,,,,,,,,,,,,,,,,,,,,,,,,,,,,,,,103,001,2023-03-01_12h27.37.238,eb_01,2022.2.4,99.95652252674164,
1,stimuli/1.png,s,1,0,1,0,27,0,27,0,0,0,0,0,,,,,,,,,,,,,,,,,,361.2156590607865,361.2156590607865,361.2156590607865,361.2156590607865,s,1,1.0335413550401427,362.28662668782454,362.28662668782454,362.28662668782454,,,,,,,,,,,,,,,,,,,,,,,,,,,,103,001,2023-03-01_12h27.37.238,eb_01,2022.2.4,99.95652252674164,
,,,1,0,1,0,27,0,27,0,,,,,,,,,,,,,,,,,,,,,,,,,,,,,,,,,,,,,,,,,,,,,,,,,,,,,,,,,,,103,001,2023-03-01_12h27.37.238,eb_01,2022.2.4,99.95652252674164,
4,stimuli/4.png,l,1,0,1,0,28,0,28,0,0,0,0,0,,,,,,,,,,,,,,,,,,363.28689684233177,363.28689684233177,363.28689684233177,363.28689684233177,l,1,0.6903738945620717,363.9976763693885,363.9976763693885,363.9976763693885,,,,,,,,,,,,,,,,,,,,,,,,,,,,103,001,2023-03-01_12h27.37.238,eb_01,2022.2.4,99.95652252674164,
,,,1,0,1,0,28,0,28,0,,,,,,,,,,,,,,,,,,,,,,,,,,,,,,,,,,,,,,,,,,,,,,,,,,,,,,,,,,,103,001,2023-03-01_12h27.37.238,eb_01,2022.2.4,99.95652252674164,
1,stimuli/1.png,s,1,0,1,0,29,0,29,0,0,0,0,0,,,,,,,,,,,,,,,,,,365.01796391641255,365.01796391641255,365.01796391641255,365.01796391641255,s,1,1.3032962147262879,366.3590975209481,366.3590975209481,366.3590975209481,,,,,,,,,,,,,,,,,,,,,,,,,,,,103,001,2023-03-01_12h27.37.238,eb_01,2022.2.4,99.95652252674164,
,,,1,0,1,0,29,0,29,0,,,,,,,,,,,,,,,,,,,,,,,,,,,,,,,,,,,,,,,,,,,,,,,,,,,,,,,,,,,103,001,2023-03-01_12h27.37.238,eb_01,2022.2.4,99.95652252674164,
4,stimuli/4.png,l,1,0,1,0,30,0,30,0,0,0,0,0,,,,,,,,,,,,,,,,,,367.35941204720075,367.35941204720075,367.35941204720075,367.35941204720075,l,1,0.5778715967408061,367.9600714656772,367.9600714656772,367.9600714656772,,,,,,,,,,,,,,,,,,,,,,,,,,,,103,001,2023-03-01_12h27.37.238,eb_01,2022.2.4,99.95652252674164,
,,,1,0,1,0,30,0,30,0,,,,,,,,,,,,,,,,,,,,,,,,,,,,,,,,,,,,,,,,,,,,,,,,,,,,,,,,,,,103,001,2023-03-01_12h27.37.238,eb_01,2022.2.4,99.95652252674164,
2,stimuli/2.png,s,1,0,1,0,31,0,31,0,0,0,0,0,,,,,,,,,,,,,,,,,,368.9706889905847,368.9706889905847,368.9706889905847,368.9706889905847,s,1,0.6625905409709958,369.6510862475061,369.6510862475061,369.6510862475061,370.67141212930255,370.67141212930255,370.67141212930255,,,,,,,,,,,,,,,,,,,,,,,,,103,001,2023-03-01_12h27.37.238,eb_01,2022.2.4,99.95652252674164,
,,,1,0,1,0,31,0,31,0,,,,,,,,,,,,,,,,,,,,,,,,,,,,,,,,,,,,,,,,,,,,,,,,,,,,,,,,,,,103,001,2023-03-01_12h27.37.238,eb_01,2022.2.4,99.95652252674164,
1,stimuli/1.png,s,1,0,1,0,32,0,32,0,0,0,0,0,,,,,,,,,,,,,,,,,,370.67141212930255,370.67141212930255,370.67141212930255,370.67141212930255,l,0,0.6569870233470283,371.3621341179787,371.3621341179787,371.3621341179787,,,,,,,,,,,,,,,,,,,,,,,,,,,,103,001,2023-03-01_12h27.37.238,eb_01,2022.2.4,99.95652252674164,
,,,1,0,1,0,32,0,32,0,,,,,,,,,,,,,,,,,,,,,,,,,,,,,,,,,,,,,,,,,,,,,,,,,,,,,,,,,,,103,001,2023-03-01_12h27.37.238,eb_01,2022.2.4,99.95652252674164,
2,stimuli/2.png,s,1,0,1,0,33,0,33,0,0,0,0,0,,,,,,,,,,,,,,,,,,372.3627601519984,372.3627601519984,372.3627601519984,372.3627601519984,s,1,0.9336125611280295,373.32333630855464,373.32333630855464,373.32333630855464,,,,,,,,,,,,,,,,,,,,,,,,,,,,103,001,2023-03-01_12h27.37.238,eb_01,2022.2.4,99.95652252674164,
,,,1,0,1,0,33,0,33,0,,,,,,,,,,,,,,,,,,,,,,,,,,,,,,,,,,,,,,,,,,,,,,,,,,,,,,,,,,,103,001,2023-03-01_12h27.37.238,eb_01,2022.2.4,99.95652252674164,
1,stimuli/1.png,s,1,0,1,0,34,0,34,0,0,0,0,0,,,,,,,,,,,,,,,,,,374.34362204448735,374.34362204448735,374.34362204448735,374.34362204448735,s,1,0.7047726770251757,375.0844001920959,375.0844001920959,375.0844001920959,,,,,,,,,,,,,,,,,,,,,,,,,,,,103,001,2023-03-01_12h27.37.238,eb_01,2022.2.4,99.95652252674164,
,,,1,0,1,0,34,0,34,0,,,,,,,,,,,,,,,,,,,,,,,,,,,,,,,,,,,,,,,,,,,,,,,,,,,,,,,,,,,103,001,2023-03-01_12h27.37.238,eb_01,2022.2.4,99.95652252674164,
4,stimuli/4.png,l,1,0,1,0,35,0,35,0,0,0,0,0,,,,,,,,,,,,,,,,,,376.0846812131531,376.0846812131531,376.0846812131531,376.0846812131531,l,1,1.3077837980326876,377.4158006881553,377.4158006881553,377.4158006881553,,,,,,,,,,,,,,,,,,,,,,,,,,,,103,001,2023-03-01_12h27.37.238,eb_01,2022.2.4,99.95652252674164,
,,,1,0,1,0,35,0,35,0,,,,,,,,,,,,,,,,,,,,,,,,,,,,,,,,,,,,,,,,,,,,,,,,,,,,,,,,,,,103,001,2023-03-01_12h27.37.238,eb_01,2022.2.4,99.95652252674164,
1,stimuli/1.png,s,1,0,1,0,36,0,36,0,0,0,0,0,,,,,,,,,,,,,,,,,,378.43642509822894,378.43642509822894,378.43642509822894,378.43642509822894,s,1,0.7240589922057552,379.19689403815755,379.19689403815755,379.19689403815755,,,,,,,,,,,,,,,,,,,,,,,,,,,,103,001,2023-03-01_12h27.37.238,eb_01,2022.2.4,99.95652252674164,
,,,1,0,1,0,36,0,36,0,,,,,,,,,,,,,,,,,,,,,,,,,,,,,,,,,,,,,,,,,,,,,,,,,,,,,,,,,,,103,001,2023-03-01_12h27.37.238,eb_01,2022.2.4,99.95652252674164,
2,stimuli/2.png,s,1,0,1,0,37,0,37,0,0,0,0,0,,,,,,,,,,,,,,,,,,380.197493811349,380.197493811349,380.197493811349,380.197493811349,s,1,0.6910120025277138,380.9079431160262,380.9079431160262,380.9079431160262,381.91821894830537,381.91821894830537,381.91821894830537,,,,,,,,,,,,,,,,,,,,,,,,,103,001,2023-03-01_12h27.37.238,eb_01,2022.2.4,99.95652252674164,
,,,1,0,1,0,37,0,37,0,,,,,,,,,,,,,,,,,,,,,,,,,,,,,,,,,,,,,,,,,,,,,,,,,,,,,,,,,,,103,001,2023-03-01_12h27.37.238,eb_01,2022.2.4,99.95652252674164,
4,stimuli/4.png,l,1,0,1,0,38,0,38,0,0,0,0,0,,,,,,,,,,,,,,,,,,381.91821894830537,381.91821894830537,381.91821894830537,381.91821894830537,l,1,0.5703350406092795,382.50889925168667,382.50889925168667,382.50889925168667,,,,,,,,,,,,,,,,,,,,,,,,,,,,103,001,2023-03-01_12h27.37.238,eb_01,2022.2.4,99.95652252674164,
,,,1,0,1,0,38,0,38,0,,,,,,,,,,,,,,,,,,,,,,,,,,,,,,,,,,,,,,,,,,,,,,,,,,,,,,,,,,,103,001,2023-03-01_12h27.37.238,eb_01,2022.2.4,99.95652252674164,
1,stimuli/1.png,s,1,0,1,0,39,0,39,0,0,0,0,0,,,,,,,,,,,,,,,,,,383.5295185303348,383.5295185303348,383.5295185303348,383.5295185303348,s,1,0.6230317711961106,384.1899186185965,384.1899186185965,384.1899186185965,,,,,,,,,,,,,,,,,,,,,,,,,,,,103,001,2023-03-01_12h27.37.238,eb_01,2022.2.4,99.95652252674164,
,,,1,0,1,0,39,0,39,0,,,,,,,,,,,,,,,,,,,,,,,,,,,,,,,,,,,,,,,,,,,,,,,,,,,,,,,,,,,103,001,2023-03-01_12h27.37.238,eb_01,2022.2.4,99.95652252674164,
4,stimuli/4.png,l,1,0,1,0,40,0,40,0,0,0,0,0,,,,,,,,,,,,,,,,,,385.1902074877162,385.1902074877162,385.1902074877162,385.1902074877162,l,1,1.1054730865434976,386.3212257830637,386.3212257830637,386.3212257830637,,,,,,,,,,,,,,,,,,,,,,,,,,,,103,001,2023-03-01_12h27.37.238,eb_01,2022.2.4,99.95652252674164,
,,,1,0,1,0,40,0,40,0,,,,,,,,,,,,,,,,,,,,,,,,,,,,,,,,,,,,,,,,,,,,,,,,,,,,,,,,,,,103,001,2023-03-01_12h27.37.238,eb_01,2022.2.4,99.95652252674164,
2,stimuli/2.png,s,1,0,1,0,41,0,41,0,0,0,0,0,,,,,,,,,,,,,,,,,,387.3318248952055,387.3318248952055,387.3318248952055,387.3318248952055,s,1,0.6358156635888008,387.98188002785537,387.98188002785537,387.98188002785537,389.00282560485175,389.00282560485175,389.00282560485175,,,,,,,,,,,,,,,,,,,,,,,,,103,001,2023-03-01_12h27.37.238,eb_01,2022.2.4,99.95652252674164,
,,,1,0,1,0,41,0,41,0,,,,,,,,,,,,,,,,,,,,,,,,,,,,,,,,,,,,,,,,,,,,,,,,,,,,,,,,,,,103,001,2023-03-01_12h27.37.238,eb_01,2022.2.4,99.95652252674164,
1,stimuli/1.png,s,1,0,1,0,42,0,42,0,0,0,0,0,,,,,,,,,,,,,,,,,,389.00282560485175,389.00282560485175,389.00282560485175,389.00282560485175,s,1,0.8207978499922319,389.86336611308616,389.86336611308616,389.86336611308616,,,,,,,,,,,,,,,,,,,,,,,,,,,,103,001,2023-03-01_12h27.37.238,eb_01,2022.2.4,99.95652252674164,
,,,1,0,1,0,42,0,42,0,,,,,,,,,,,,,,,,,,,,,,,,,,,,,,,,,,,,,,,,,,,,,,,,,,,,,,,,,,,103,001,2023-03-01_12h27.37.238,eb_01,2022.2.4,99.95652252674164,
4,stimuli/4.png,l,1,0,1,0,43,0,43,0,0,0,0,0,,,,,,,,,,,,,,,,,,390.86365226557064,390.86365226557064,390.86365226557064,390.86365226557064,l,1,0.6000559604381124,391.48432635992685,391.48432635992685,391.48432635992685,,,,,,,,,,,,,,,,,,,,,,,,,,,,103,001,2023-03-01_12h27.37.238,eb_01,2022.2.4,99.95652252674164,
,,,1,0,1,0,43,0,43,0,,,,,,,,,,,,,,,,,,,,,,,,,,,,,,,,,,,,,,,,,,,,,,,,,,,,,,,,,,,103,001,2023-03-01_12h27.37.238,eb_01,2022.2.4,99.95652252674164,
2,stimuli/2.png,s,1,0,1,0,44,0,44,0,0,0,0,0,,,,,,,,,,,,,,,,,,392.4949547513843,392.4949547513843,392.4949547513843,392.4949547513843,s,1,0.6327893294092064,393.1450292023437,393.1450292023437,393.1450292023437,394.1556467272512,394.1556467272512,394.1556467272512,,,,,,,,,,,,,,,,,,,,,,,,,103,001,2023-03-01_12h27.37.238,eb_01,2022.2.4,99.95652252674164,
,,,1,0,1,0,44,0,44,0,,,,,,,,,,,,,,,,,,,,,,,,,,,,,,,,,,,,,,,,,,,,,,,,,,,,,,,,,,,103,001,2023-03-01_12h27.37.238,eb_01,2022.2.4,99.95652252674164,
4,stimuli/4.png,l,1,0,1,0,45,0,45,0,0,0,0,0,,,,,,,,,,,,,,,,,,394.1556467272512,394.1556467272512,394.1556467272512,394.1556467272512,l,1,0.7961021058454207,394.9764654674618,394.9764654674618,394.9764654674618,,,,,,,,,,,,,,,,,,,,,,,,,,,,103,001,2023-03-01_12h27.37.238,eb_01,2022.2.4,99.95652252674164,
,,,1,0,1,0,45,0,45,0,,,,,,,,,,,,,,,,,,,,,,,,,,,,,,,,,,,,,,,,,,,,,,,,,,,,,,,,,,,103,001,2023-03-01_12h27.37.238,eb_01,2022.2.4,99.95652252674164,
1,stimuli/1.png,s,1,0,1,0,46,0,46,0,0,0,0,0,,,,,,,,,,,,,,,,,,395.99677776607314,395.99677776607314,395.99677776607314,395.99677776607314,s,1,0.5790011142435105,396.60738762402616,396.60738762402616,396.60738762402616,,,,,,,,,,,,,,,,,,,,,,,,,,,,103,001,2023-03-01_12h27.37.238,eb_01,2022.2.4,99.95652252674164,
,,,1,0,1,0,46,0,46,0,,,,,,,,,,,,,,,,,,,,,,,,,,,,,,,,,,,,,,,,,,,,,,,,,,,,,,,,,,,103,001,2023-03-01_12h27.37.238,eb_01,2022.2.4,99.95652252674164,
2,stimuli/2.png,s,1,0,1,0,47,0,47,0,0,0,0,0,,,,,,,,,,,,,,,,,,397.6080610482786,397.6080610482786,397.6080610482786,397.6080610482786,s,1,0.5917527088331553,398.2181052419328,398.2181052419328,398.2181052419328,399.22870224113467,399.22870224113467,399.22870224113467,,,,,,,,,,,,,,,,,,,,,,,,,103,001,2023-03-01_12h27.37.238,eb_01,2022.2.4,99.95652252674164,
,,,1,0,1,0,47,0,47,0,,,,,,,,,,,,,,,,,,,,,,,,,,,,,,,,,,,,,,,,,,,,,,,,,,,,,,,,,,,103,001,2023-03-01_12h27.37.238,eb_01,2022.2.4,99.95652252674164,
4,stimuli/4.png,l,1,0,1,0,48,0,48,0,0,0,0,0,,,,,,,,,,,,,,,,,,399.22870224113467,399.22870224113467,399.22870224113467,399.22870224113467,l,1,1.0112121040074271,400.26967064392375,400.26967064392375,400.26967064392375,,,,,,,,,,,,,,,,,,,,,,,,,,,,103,001,2023-03-01_12h27.37.238,eb_01,2022.2.4,99.95652252674164,
,,,1,0,1,0,48,0,48,0,,,,,,,,,,,,,,,,,,,,,,,,,,,,,,,,,,,,,,,,,,,,,,,,,,,,,,,,,,,103,001,2023-03-01_12h27.37.238,eb_01,2022.2.4,99.95652252674164,
1,stimuli/1.png,s,1,0,1,0,49,0,49,0,0,0,0,0,,,,,,,,,,,,,,,,,,401.28997630186495,401.28997630186495,401.28997630186495,401.28997630186495,s,1,1.4769168193961377,402.8012088433188,402.8012088433188,402.8012088433188,,,,,,,,,,,,,,,,,,,,,,,,,,,,103,001,2023-03-01_12h27.37.238,eb_01,2022.2.4,99.95652252674164,
,,,1,0,1,0,49,0,49,0,,,,,,,,,,,,,,,,,,,,,,,,,,,,,,,,,,,,,,,,,,,,,,,,,,,,,,,,,,,103,001,2023-03-01_12h27.37.238,eb_01,2022.2.4,99.95652252674164,
4,stimuli/4.png,l,1,0,1,0,50,0,50,0,0,0,0,0,,,,,,,,,,,,,,,,,,403.8014928828634,403.8014928828634,403.8014928828634,403.8014928828634,l,1,0.8614315026716213,404.69240811501913,404.69240811501913,404.69240811501913,,,,,,,,,,,,,,,,,,,,,,,,,,,,103,001,2023-03-01_12h27.37.238,eb_01,2022.2.4,99.95652252674164,
,,,1,0,1,0,50,0,50,0,,,,,,,,,,,,,,,,,,,,,,,,,,,,,,,,,,,,,,,,,,,,,,,,,,,,,,,,,,,103,001,2023-03-01_12h27.37.238,eb_01,2022.2.4,99.95652252674164,
2,stimuli/2.png,s,1,0,1,0,51,0,51,0,0,0,0,0,,,,,,,,,,,,,,,,,,405.7029661757497,405.7029661757497,405.7029661757497,405.7029661757497,s,1,0.6800274297074793,406.39311012433427,406.39311012433427,406.39311012433427,407.41397903178404,407.41397903178404,407.41397903178404,,,,,,,,,,,,,,,,,,,,,,,,,103,001,2023-03-01_12h27.37.238,eb_01,2022.2.4,99.95652252674164,
,,,1,0,1,0,51,0,51,0,,,,,,,,,,,,,,,,,,,,,,,,,,,,,,,,,,,,,,,,,,,,,,,,,,,,,,,,,,,103,001,2023-03-01_12h27.37.238,eb_01,2022.2.4,99.95652252674164,
1,stimuli/1.png,s,1,0,1,0,52,0,52,0,0,0,0,0,,,,,,,,,,,,,,,,,,407.41397903178404,407.41397903178404,407.41397903178404,407.41397903178404,s,1,0.6969937364592624,408.1444375790652,408.1444375790652,408.1444375790652,,,,,,,,,,,,,,,,,,,,,,,,,,,,103,001,2023-03-01_12h27.37.238,eb_01,2022.2.4,99.95652252674164,
,,,1,0,1,0,52,0,52,0,,,,,,,,,,,,,,,,,,,,,,,,,,,,,,,,,,,,,,,,,,,,,,,,,,,,,,,,,,,103,001,2023-03-01_12h27.37.238,eb_01,2022.2.4,99.95652252674164,
4,stimuli/4.png,l,1,0,1,0,53,0,53,0,0,0,0,0,,,,,,,,,,,,,,,,,,409.14470773357243,409.14470773357243,409.14470773357243,409.14470773357243,l,1,0.6542534823220194,409.82545573857897,409.82545573857897,409.82545573857897,,,,,,,,,,,,,,,,,,,,,,,,,,,,103,001,2023-03-01_12h27.37.238,eb_01,2022.2.4,99.95652252674164,
,,,1,0,1,0,53,0,53,0,,,,,,,,,,,,,,,,,,,,,,,,,,,,,,,,,,,,,,,,,,,,,,,,,,,,,,,,,,,103,001,2023-03-01_12h27.37.238,eb_01,2022.2.4,99.95652252674164,
1,stimuli/1.png,s,1,0,1,0,54,0,54,0,0,0,0,0,,,,,,,,,,,,,,,,,,410.84572245805066,410.84572245805066,410.84572245805066,410.84572245805066,s,1,0.7373487828699581,411.6165656329049,411.6165656329049,411.6165656329049,,,,,,,,,,,,,,,,,,,,,,,,,,,,103,001,2023-03-01_12h27.37.238,eb_01,2022.2.4,99.95652252674164,
,,,1,0,1,0,54,0,54,0,,,,,,,,,,,,,,,,,,,,,,,,,,,,,,,,,,,,,,,,,,,,,,,,,,,,,,,,,,,103,001,2023-03-01_12h27.37.238,eb_01,2022.2.4,99.95652252674164,
2,stimuli/2.png,s,1,0,1,0,55,0,55,0,0,0,0,0,,,,,,,,,,,,,,,,,,412.61714729517917,412.61714729517917,412.61714729517917,412.61714729517917,s,1,11.4531426190606,424.0837958911761,424.0837958911761,424.0837958911761,425.09475088283216,425.09475088283216,425.09475088283216,,,,,,,,,,,,,,,,,,,,,,,,,103,001,2023-03-01_12h27.37.238,eb_01,2022.2.4,99.95652252674164,
,,,1,0,1,0,55,0,55,0,,,,,,,,,,,,,,,,,,,,,,,,,,,,,,,,,,,,,,,,,,,,,,,,,,,,,,,,,,,103,001,2023-03-01_12h27.37.238,eb_01,2022.2.4,99.95652252674164,
3,stimuli/3.png,l,1,0,1,0,56,0,56,0,0,0,0,0,,,,,,,,,,,,,,,,,,425.09475088283216,425.09475088283216,425.09475088283216,425.09475088283216,l,1,0.7275450418201217,425.8348362878787,425.8348362878787,425.8348362878787,426.84550452335316,426.84550452335316,426.84550452335316,,,,,,,,,,,,,,,,,,,,,,,,,103,001,2023-03-01_12h27.37.238,eb_01,2022.2.4,99.95652252674164,
,,,1,0,1,0,56,0,56,0,,,,,,,,,,,,,,,,,,,,,,,,,,,,,,,,,,,,,,,,,,,,,,,,,,,,,,,,,,,103,001,2023-03-01_12h27.37.238,eb_01,2022.2.4,99.95652252674164,
4,stimuli/4.png,l,1,0,1,0,57,0,57,0,0,0,0,0,,,,,,,,,,,,,,,,,,426.84550452335316,426.84550452335316,426.84550452335316,426.84550452335316,s,0,0.5688131199094641,427.4361549437217,427.4361549437217,427.4361549437217,,,,,,,,,,,,,,,,,,,,,,,,,,,,103,001,2023-03-01_12h27.37.238,eb_01,2022.2.4,99.95652252674164,
,,,1,0,1,0,57,0,57,0,,,,,,,,,,,,,,,,,,,,,,,,,,,,,,,,,,,,,,,,,,,,,,,,,,,,,,,,,,,103,001,2023-03-01_12h27.37.238,eb_01,2022.2.4,99.95652252674164,
3,stimuli/3.png,l,1,0,1,0,58,0,58,0,0,0,0,0,,,,,,,,,,,,,,,,,,428.44673745419095,428.44673745419095,428.44673745419095,428.44673745419095,l,1,0.5196042500283511,428.9870624666637,428.9870624666637,428.9870624666637,,,,,,,,,,,,,,,,,,,,,,,,,,,,103,001,2023-03-01_12h27.37.238,eb_01,2022.2.4,99.95652252674164,
,,,1,0,1,0,58,0,58,0,,,,,,,,,,,,,,,,,,,,,,,,,,,,,,,,,,,,,,,,,,,,,,,,,,,,,,,,,,,103,001,2023-03-01_12h27.37.238,eb_01,2022.2.4,99.95652252674164,
4,stimuli/4.png,l,1,0,1,0,59,0,59,0,0,0,0,0,,,,,,,,,,,,,,,,,,429.997353693223,429.997353693223,429.997353693223,429.997353693223,l,1,1.0650289947916463,431.08836980318483,431.08836980318483,431.08836980318483,,,,,,,,,,,,,,,,,,,,,,,,,,,,103,001,2023-03-01_12h27.37.238,eb_01,2022.2.4,99.95652252674164,
,,,1,0,1,0,59,0,59,0,,,,,,,,,,,,,,,,,,,,,,,,,,,,,,,,,,,,,,,,,,,,,,,,,,,,,,,,,,,103,001,2023-03-01_12h27.37.238,eb_01,2022.2.4,99.95652252674164,
3,stimuli/3.png,l,1,0,1,0,60,0,60,0,0,0,0,0,,,,,,,,,,,,,,,,,,432.09898581884954,432.09898581884954,432.09898581884954,432.09898581884954,l,1,0.5794258152400289,432.6890304290573,432.6890304290573,432.6890304290573,433.69961656170926,433.69961656170926,433.69961656170926,,,,,,,,,,,,,,,,,,,,,,,,,103,001,2023-03-01_12h27.37.238,eb_01,2022.2.4,99.95652252674164,
,,,1,0,1,0,60,0,60,0,,,,,,,,,,,,,,,,,,,,,,,,,,,,,,,,,,,,,,,,,,,,,,,,,,,,,,,,,,,103,001,2023-03-01_12h27.37.238,eb_01,2022.2.4,99.95652252674164,
4,stimuli/4.png,l,1,0,1,0,61,0,61,0,0,0,0,0,,,,,,,,,,,,,,,,,,433.69961656170926,433.69961656170926,433.69961656170926,433.69961656170926,l,1,0.7377985373022966,434.460425986872,434.460425986872,434.460425986872,,,,,,,,,,,,,,,,,,,,,,,,,,,,103,001,2023-03-01_12h27.37.238,eb_01,2022.2.4,99.95652252674164,
,,,1,0,1,0,61,0,61,0,,,,,,,,,,,,,,,,,,,,,,,,,,,,,,,,,,,,,,,,,,,,,,,,,,,,,,,,,,,103,001,2023-03-01_12h27.37.238,eb_01,2022.2.4,99.95652252674164,
1,stimuli/1.png,s,1,0,1,0,62,0,62,0,0,0,0,0,,,,,,,,,,,,,,,,,,435.4810389266986,435.4810389266986,435.4810389266986,435.4810389266986,s,1,0.6204138381872326,436.13144360003935,436.13144360003935,436.13144360003935,,,,,,,,,,,,,,,,,,,,,,,,,,,,103,001,2023-03-01_12h27.37.238,eb_01,2022.2.4,99.95652252674164,
,,,1,0,1,0,62,0,62,0,,,,,,,,,,,,,,,,,,,,,,,,,,,,,,,,,,,,,,,,,,,,,,,,,,,,,,,,,,,103,001,2023-03-01_12h27.37.238,eb_01,2022.2.4,99.95652252674164,
2,stimuli/2.png,s,1,0,1,0,63,0,63,0,0,0,0,0,,,,,,,,,,,,,,,,,,437.13200503845655,437.13200503845655,437.13200503845655,437.13200503845655,s,1,0.5854869353588583,437.73204566728054,437.73204566728054,437.73204566728054,438.75306066945814,438.75306066945814,438.75306066945814,,,,,,,,,,,,,,,,,,,,,,,,,103,001,2023-03-01_12h27.37.238,eb_01,2022.2.4,99.95652252674164,
,,,1,0,1,0,63,0,63,0,,,,,,,,,,,,,,,,,,,,,,,,,,,,,,,,,,,,,,,,,,,,,,,,,,,,,,,,,,,103,001,2023-03-01_12h27.37.238,eb_01,2022.2.4,99.95652252674164,
1,stimuli/1.png,s,1,0,1,0,64,0,64,0,0,0,0,0,,,,,,,,,,,,,,,,,,438.75306066945814,438.75306066945814,438.75306066945814,438.75306066945814,s,1,0.8205367509417556,439.6035423745652,439.6035423745652,439.6035423745652,,,,,,,,,,,,,,,,,,,,,,,,,,,,103,001,2023-03-01_12h27.37.238,eb_01,2022.2.4,99.95652252674164,
,,,1,0,1,0,64,0,64,0,,,,,,,,,,,,,,,,,,,,,,,,,,,,,,,,,,,,,,,,,,,,,,,,,,,,,,,,,,,103,001,2023-03-01_12h27.37.238,eb_01,2022.2.4,99.95652252674164,
2,stimuli/2.png,s,1,0,1,0,65,0,65,0,0,0,0,0,,,,,,,,,,,,,,,,,,440.6041424496034,440.6041424496034,440.6041424496034,440.6041424496034,s,1,0.8654273745887622,441.48432696362397,441.48432696362397,441.48432696362397,442.50527706835055,442.50527706835055,442.50527706835055,,,,,,,,,,,,,,,,,,,,,,,,,103,001,2023-03-01_12h27.37.238,eb_01,2022.2.4,99.95652252674164,
,,,1,0,1,0,65,0,65,0,,,,,,,,,,,,,,,,,,,,,,,,,,,,,,,,,,,,,,,,,,,,,,,,,,,,,,,,,,,103,001,2023-03-01_12h27.37.238,eb_01,2022.2.4,99.95652252674164,
4,stimuli/4.png,l,1,0,1,0,66,0,66,0,0,0,0,0,,,,,,,,,,,,,,,,,,442.50527706835055,442.50527706835055,442.50527706835055,442.50527706835055,l,1,0.8843227958186617,443.4158028010952,443.4158028010952,443.4158028010952,,,,,,,,,,,,,,,,,,,,,,,,,,,,103,001,2023-03-01_12h27.37.238,eb_01,2022.2.4,99.95652252674164,
,,,1,0,1,0,66,0,66,0,,,,,,,,,,,,,,,,,,,,,,,,,,,,,,,,,,,,,,,,,,,,,,,,,,,,,,,,,,,103,001,2023-03-01_12h27.37.238,eb_01,2022.2.4,99.95652252674164,
3,stimuli/3.png,l,1,0,1,0,67,0,67,0,0,0,0,0,,,,,,,,,,,,,,,,,,444.42646137741394,444.42646137741394,444.42646137741394,444.42646137741394,l,1,0.8591655251457269,445.29668035952636,445.29668035952636,445.29668035952636,446.30758101843094,446.30758101843094,446.30758101843094,,,,,,,,,,,,,,,,,,,,,,,,,103,001,2023-03-01_12h27.37.238,eb_01,2022.2.4,99.95652252674164,
,,,1,0,1,0,67,0,67,0,,,,,,,,,,,,,,,,,,,,,,,,,,,,,,,,,,,,,,,,,,,,,,,,,,,,,,,,,,,103,001,2023-03-01_12h27.37.238,eb_01,2022.2.4,99.95652252674164,
8,stimuli/8.png,l,1,0,1,0,68,0,68,0,0,0,0,0,,,,,,,,,,,,,,,,,,446.30758101843094,446.30758101843094,446.30758101843094,446.30758101843094,l,1,0.7061062441898684,447.0380558655379,447.0380558655379,447.0380558655379,,,,,,,,,,,,,,,,,,,,,,,,,,,,103,001,2023-03-01_12h27.37.238,eb_01,2022.2.4,99.95652252674164,
,,,1,0,1,0,68,0,68,0,,,,,,,,,,,,,,,,,,,,,,,,,,,,,,,,,,,,,,,,,,,,,,,,,,,,,,,,,,,103,001,2023-03-01_12h27.37.238,eb_01,2022.2.4,99.95652252674164,
3,stimuli/3.png,l,1,0,1,0,69,0,69,0,0,0,0,0,,,,,,,,,,,,,,,,,,448.0486688627152,448.0486688627152,448.0486688627152,448.0486688627152,l,1,0.7480997248640051,448.8088175412686,448.8088175412686,448.8088175412686,449.8197302741173,449.8197302741173,449.8197302741173,,,,,,,,,,,,,,,,,,,,,,,,,103,001,2023-03-01_12h27.37.238,eb_01,2022.2.4,99.95652252674164,
,,,1,0,1,0,69,0,69,0,,,,,,,,,,,,,,,,,,,,,,,,,,,,,,,,,,,,,,,,,,,,,,,,,,,,,,,,,,,103,001,2023-03-01_12h27.37.238,eb_01,2022.2.4,99.95652252674164,
2,stimuli/2.png,s,1,0,1,0,70,0,70,0,0,0,0,0,,,,,,,,,,,,,,,,,,449.8197302741173,449.8197302741173,449.8197302741173,449.8197302741173,s,1,0.8090067376833758,450.63986623277015,450.63986623277015,450.63986623277015,451.65084175013,451.65084175013,451.65084175013,,,,,,,,,,,,,,,,,,,,,,,,,103,001,2023-03-01_12h27.37.238,eb_01,2022.2.4,99.95652252674164,
,,,1,0,1,0,70,0,70,0,,,,,,,,,,,,,,,,,,,,,,,,,,,,,,,,,,,,,,,,,,,,,,,,,,,,,,,,,,,103,001,2023-03-01_12h27.37.238,eb_01,2022.2.4,99.95652252674164,
3,stimuli/3.png,l,1,0,1,0,71,0,71,0,0,0,0,0,,,,,,,,,,,,,,,,,,451.65084175013,451.65084175013,451.65084175013,451.65084175013,l,1,0.585940311972081,452.2508896233194,452.2508896233194,452.2508896233194,453.2618083931429,453.2618083931429,453.2618083931429,,,,,,,,,,,,,,,,,,,,,,,,,103,001,2023-03-01_12h27.37.238,eb_01,2022.2.4,99.95652252674164,
,,,1,0,1,0,71,0,71,0,,,,,,,,,,,,,,,,,,,,,,,,,,,,,,,,,,,,,,,,,,,,,,,,,,,,,,,,,,,103,001,2023-03-01_12h27.37.238,eb_01,2022.2.4,99.95652252674164,
2,stimuli/2.png,s,1,0,1,0,72,0,72,0,0,0,0,0,,,,,,,,,,,,,,,,,,453.2618083931429,453.2618083931429,453.2618083931429,453.2618083931429,s,1,0.6309670693426597,453.91221970715196,453.91221970715196,453.91221970715196,454.9225055004372,454.9225055004372,454.9225055004372,,,,,,,,,,,,,,,,,,,,,,,,,103,001,2023-03-01_12h27.37.238,eb_01,2022.2.4,99.95652252674164,
,,,1,0,1,0,72,0,72,0,,,,,,,,,,,,,,,,,,,,,,,,,,,,,,,,,,,,,,,,,,,,,,,,,,,,,,,,,,,103,001,2023-03-01_12h27.37.238,eb_01,2022.2.4,99.95652252674164,
4,stimuli/4.png,l,1,0,1,0,73,0,73,0,0,0,0,0,,,,,,,,,,,,,,,,,,454.9225055004372,454.9225055004372,454.9225055004372,454.9225055004372,l,1,0.6102892320632236,455.5532088167565,455.5532088167565,455.5532088167565,,,,,,,,,,,,,,,,,,,,,,,,,,,,103,001,2023-03-01_12h27.37.238,eb_01,2022.2.4,99.95652252674164,
,,,1,0,1,0,73,0,73,0,,,,,,,,,,,,,,,,,,,,,,,,,,,,,,,,,,,,,,,,,,,,,,,,,,,,,,,,,,,103,001,2023-03-01_12h27.37.238,eb_01,2022.2.4,99.95652252674164,
3,stimuli/3.png,l,1,0,1,0,74,0,74,0,0,0,0,0,,,,,,,,,,,,,,,,,,456.56383660451684,456.56383660451684,456.56383660451684,456.56383660451684,l,1,0.6570015120796597,457.23391697774605,457.23391697774605,457.23391697774605,458.2448562732752,458.2448562732752,458.2448562732752,,,,,,,,,,,,,,,,,,,,,,,,,103,001,2023-03-01_12h27.37.238,eb_01,2022.2.4,99.95652252674164,
,,,1,0,1,0,74,0,74,0,,,,,,,,,,,,,,,,,,,,,,,,,,,,,,,,,,,,,,,,,,,,,,,,,,,,,,,,,,,103,001,2023-03-01_12h27.37.238,eb_01,2022.2.4,99.95652252674164,
8,stimuli/8.png,l,1,0,1,0,75,0,75,0,0,0,0,0,,,,,,,,,,,,,,,,,,458.2448562732752,458.2448562732752,458.2448562732752,458.2448562732752,l,1,0.7040117166761775,458.97531934828476,458.97531934828476,458.97531934828476,,,,,,,,,,,,,,,,,,,,,,,,,,,,103,001,2023-03-01_12h27.37.238,eb_01,2022.2.4,99.95652252674164,
,,,1,0,1,0,75,0,75,0,,,,,,,,,,,,,,,,,,,,,,,,,,,,,,,,,,,,,,,,,,,,,,,,,,,,,,,,,,,103,001,2023-03-01_12h27.37.238,eb_01,2022.2.4,99.95652252674164,
9,stimuli/9.png,l,1,0,1,0,76,0,76,0,0,0,0,0,,,,,,,,,,,,,,,,,,459.99596639700576,459.99596639700576,459.99596639700576,459.99596639700576,l,1,0.5689555924545857,460.58594399681897,460.58594399681897,460.58594399681897,,,,,,,,,,,,,,,,,,,,,,,,,,,,103,001,2023-03-01_12h27.37.238,eb_01,2022.2.4,99.95652252674164,
,,,1,0,1,0,76,0,76,0,,,,,,,,,,,,,,,,,,,,,,,,,,,,,,,,,,,,,,,,,,,,,,,,,,,,,,,,,,,103,001,2023-03-01_12h27.37.238,eb_01,2022.2.4,99.95652252674164,
5,stimuli/5.png,s,1,0,1,0,77,0,77,0,0,0,0,0,,,,,,,,,,,,,,,,,,461.5969011014149,461.5969011014149,461.5969011014149,461.5969011014149,s,1,0.6160258649233583,462.2372629696056,462.2372629696056,462.2372629696056,,,,,,,,,,,,,,,,,,,,,,,,,,,,103,001,2023-03-01_12h27.37.238,eb_01,2022.2.4,99.95652252674164,
,,,1,0,1,0,77,0,77,0,,,,,,,,,,,,,,,,,,,,,,,,,,,,,,,,,,,,,,,,,,,,,,,,,,,,,,,,,,,103,001,2023-03-01_12h27.37.238,eb_01,2022.2.4,99.95652252674164,
9,stimuli/9.png,l,1,0,1,0,78,0,78,0,0,0,0,0,,,,,,,,,,,,,,,,,,463.25788587043644,463.25788587043644,463.25788587043644,463.25788587043644,l,1,0.5230580018396722,463.8078790939344,463.8078790939344,463.8078790939344,,,,,,,,,,,,,,,,,,,,,,,,,,,,103,001,2023-03-01_12h27.37.238,eb_01,2022.2.4,99.95652252674164,
,,,1,0,1,0,78,0,78,0,,,,,,,,,,,,,,,,,,,,,,,,,,,,,,,,,,,,,,,,,,,,,,,,,,,,,,,,,,,103,001,2023-03-01_12h27.37.238,eb_01,2022.2.4,99.95652252674164,
8,stimuli/8.png,l,1,0,1,0,79,0,79,0,0,0,0,0,,,,,,,,,,,,,,,,,,464.8188304634077,464.8188304634077,464.8188304634077,464.8188304634077,l,1,0.55317283410659,465.39917516848436,465.39917516848436,465.39917516848436,,,,,,,,,,,,,,,,,,,,,,,,,,,,103,001,2023-03-01_12h27.37.238,eb_01,2022.2.4,99.95652252674164,
,,,1,0,1,0,79,0,79,0,,,,,,,,,,,,,,,,,,,,,,,,,,,,,,,,,,,,,,,,,,,,,,,,,,,,,,,,,,,103,001,2023-03-01_12h27.37.238,eb_01,2022.2.4,99.95652252674164,
6,stimuli/6.png,s,1,0,1,0,80,0,80,0,0,0,0,0,,,,,,,,,,,,,,,,,,466.4198025970454,466.4198025970454,466.4198025970454,466.4198025970454,s,1,0.6002301270873431,467.0501856519877,467.0501856519877,467.0501856519877,,,,,,,,,,,,,,,,,,,,,,,,,,,,103,001,2023-03-01_12h27.37.238,eb_01,2022.2.4,99.95652252674164,
,,,1,0,1,0,80,0,80,0,,,,,,,,,,,,,,,,,,,,,,,,,,,,,,,,,,,,,,,,,,,,,,,,,,,,,,,,,,,103,001,2023-03-01_12h27.37.238,eb_01,2022.2.4,99.95652252674164,
8,stimuli/8.png,l,1,0,1,0,81,0,81,0,0,0,0,0,,,,,,,,,,,,,,,,,,468.05046667304487,468.05046667304487,468.05046667304487,468.05046667304487,l,1,0.5935948909100262,468.6711612931067,468.6711612931067,468.6711612931067,,,,,,,,,,,,,,,,,,,,,,,,,,,,103,001,2023-03-01_12h27.37.238,eb_01,2022.2.4,99.95652252674164,
,,,1,0,1,0,81,0,81,0,,,,,,,,,,,,,,,,,,,,,,,,,,,,,,,,,,,,,,,,,,,,,,,,,,,,,,,,,,,103,001,2023-03-01_12h27.37.238,eb_01,2022.2.4,99.95652252674164,
3,stimuli/3.png,l,1,0,1,0,82,0,82,0,0,0,0,0,,,,,,,,,,,,,,,,,,469.6817751958315,469.6817751958315,469.6817751958315,469.6817751958315,l,1,0.6342892151606065,470.3318484393967,470.3318484393967,470.3318484393967,471.34246807724594,471.34246807724594,471.34246807724594,,,,,,,,,,,,,,,,,,,,,,,,,103,001,2023-03-01_12h27.37.238,eb_01,2022.2.4,99.95652252674164,
,,,1,0,1,0,82,0,82,0,,,,,,,,,,,,,,,,,,,,,,,,,,,,,,,,,,,,,,,,,,,,,,,,,,,,,,,,,,,103,001,2023-03-01_12h27.37.238,eb_01,2022.2.4,99.95652252674164,
4,stimuli/4.png,l,1,0,1,0,83,0,83,0,0,0,0,0,,,,,,,,,,,,,,,,,,471.34246807724594,471.34246807724594,471.34246807724594,471.34246807724594,l,1,0.6535888116795832,472.0231795585714,472.0231795585714,472.0231795585714,,,,,,,,,,,,,,,,,,,,,,,,,,,,103,001,2023-03-01_12h27.37.238,eb_01,2022.2.4,99.95652252674164,
,,,1,0,1,0,83,0,83,0,,,,,,,,,,,,,,,,,,,,,,,,,,,,,,,,,,,,,,,,,,,,,,,,,,,,,,,,,,,103,001,2023-03-01_12h27.37.238,eb_01,2022.2.4,99.95652252674164,
1,stimuli/1.png,s,1,0,1,0,84,0,84,0,0,0,0,0,,,,,,,,,,,,,,,,,,473.0434906497867,473.0434906497867,473.0434906497867,473.0434906497867,s,1,0.7846215957597451,473.86432357688136,473.86432357688136,473.86432357688136,,,,,,,,,,,,,,,,,,,,,,,,,,,,103,001,2023-03-01_12h27.37.238,eb_01,2022.2.4,99.95652252674164,
,,,1,0,1,0,84,0,84,0,,,,,,,,,,,,,,,,,,,,,,,,,,,,,,,,,,,,,,,,,,,,,,,,,,,,,,,,,,,103,001,2023-03-01_12h27.37.238,eb_01,2022.2.4,99.95652252674164,
4,stimuli/4.png,l,1,0,1,0,85,0,85,0,0,0,0,0,,,,,,,,,,,,,,,,,,474.86460308869573,474.86460308869573,474.86460308869573,474.86460308869573,l,1,0.5315556439491047,475.42528205488816,475.42528205488816,475.42528205488816,,,,,,,,,,,,,,,,,,,,,,,,,,,,103,001,2023-03-01_12h27.37.238,eb_01,2022.2.4,99.95652252674164,
,,,1,0,1,0,85,0,85,0,,,,,,,,,,,,,,,,,,,,,,,,,,,,,,,,,,,,,,,,,,,,,,,,,,,,,,,,,,,103,001,2023-03-01_12h27.37.238,eb_01,2022.2.4,99.95652252674164,
2,stimuli/2.png,s,1,0,1,0,86,0,86,0,0,0,0,0,,,,,,,,,,,,,,,,,,476.4358778466958,476.4358778466958,476.4358778466958,476.4358778466958,s,1,0.7683284114082198,477.2160312401247,477.2160312401247,477.2160312401247,478.2269608764964,478.2269608764964,478.2269608764964,,,,,,,,,,,,,,,,,,,,,,,,,103,001,2023-03-01_12h27.37.238,eb_01,2022.2.4,99.95652252674164,
,,,1,0,1,0,86,0,86,0,,,,,,,,,,,,,,,,,,,,,,,,,,,,,,,,,,,,,,,,,,,,,,,,,,,,,,,,,,,103,001,2023-03-01_12h27.37.238,eb_01,2022.2.4,99.95652252674164,
3,stimuli/3.png,l,1,0,1,0,87,0,87,0,0,0,0,0,,,,,,,,,,,,,,,,,,478.2269608764964,478.2269608764964,478.2269608764964,478.2269608764964,l,1,0.5292706499622,478.7669632128036,478.7669632128036,478.7669632128036,479.77758134141004,479.77758134141004,479.77758134141004,,,,,,,,,,,,,,,,,,,,,,,,,103,001,2023-03-01_12h27.37.238,eb_01,2022.2.4,99.95652252674164,
,,,1,0,1,0,87,0,87,0,,,,,,,,,,,,,,,,,,,,,,,,,,,,,,,,,,,,,,,,,,,,,,,,,,,,,,,,,,,103,001,2023-03-01_12h27.37.238,eb_01,2022.2.4,99.95652252674164,
8,stimuli/8.png,l,1,0,1,0,88,0,88,0,0,0,0,0,,,,,,,,,,,,,,,,,,479.77758134141004,479.77758134141004,479.77758134141004,479.77758134141004,l,1,0.6576812751536636,480.45831032995375,480.45831032995375,480.45831032995375,,,,,,,,,,,,,,,,,,,,,,,,,,,,103,001,2023-03-01_12h27.37.238,eb_01,2022.2.4,99.95652252674164,
,,,1,0,1,0,88,0,88,0,,,,,,,,,,,,,,,,,,,,,,,,,,,,,,,,,,,,,,,,,,,,,,,,,,,,,,,,,,,103,001,2023-03-01_12h27.37.238,eb_01,2022.2.4,99.95652252674164,
6,stimuli/6.png,s,1,0,1,0,89,0,89,0,0,0,0,0,,,,,,,,,,,,,,,,,,481.4789341363303,481.4789341363303,481.4789341363303,481.4789341363303,s,1,0.5403641901284573,482.0492668248153,482.0492668248153,482.0492668248153,,,,,,,,,,,,,,,,,,,,,,,,,,,,103,001,2023-03-01_12h27.37.238,eb_01,2022.2.4,99.95652252674164,
,,,1,0,1,0,89,0,89,0,,,,,,,,,,,,,,,,,,,,,,,,,,,,,,,,,,,,,,,,,,,,,,,,,,,,,,,,,,,103,001,2023-03-01_12h27.37.238,eb_01,2022.2.4,99.95652252674164,
9,stimuli/9.png,l,1,0,1,0,90,0,90,0,0,0,0,0,,,,,,,,,,,,,,,,,,483.0598909903929,483.0598909903929,483.0598909903929,483.0598909903929,l,1,0.6634357170823932,483.7499896616846,483.7499896616846,483.7499896616846,,,,,,,,,,,,,,,,,,,,,,,,,,,,103,001,2023-03-01_12h27.37.238,eb_01,2022.2.4,99.95652252674164,
,,,1,0,1,0,90,0,90,0,,,,,,,,,,,,,,,,,,,,,,,,,,,,,,,,,,,,,,,,,,,,,,,,,,,,,,,,,,,103,001,2023-03-01_12h27.37.238,eb_01,2022.2.4,99.95652252674164,
8,stimuli/8.png,l,1,0,1,0,91,0,91,0,0,0,0,0,,,,,,,,,,,,,,,,,,484.760932881245,484.760932881245,484.760932881245,484.760932881245,l,1,0.6983994454440108,485.4813425864013,485.4813425864013,485.4813425864013,,,,,,,,,,,,,,,,,,,,,,,,,,,,103,001,2023-03-01_12h27.37.238,eb_01,2022.2.4,99.95652252674164,
,,,1,0,1,0,91,0,91,0,,,,,,,,,,,,,,,,,,,,,,,,,,,,,,,,,,,,,,,,,,,,,,,,,,,,,,,,,,,103,001,2023-03-01_12h27.37.238,eb_01,2022.2.4,99.95652252674164,
6,stimuli/6.png,s,1,0,1,0,92,0,92,0,0,0,0,0,,,,,,,,,,,,,,,,,,486.5016579034982,486.5016579034982,486.5016579034982,486.5016579034982,s,1,0.6937029828986851,487.23242161972485,487.23242161972485,487.23242161972485,,,,,,,,,,,,,,,,,,,,,,,,,,,,103,001,2023-03-01_12h27.37.238,eb_01,2022.2.4,99.95652252674164,
,,,1,0,1,0,92,0,92,0,,,,,,,,,,,,,,,,,,,,,,,,,,,,,,,,,,,,,,,,,,,,,,,,,,,,,,,,,,,103,001,2023-03-01_12h27.37.238,eb_01,2022.2.4,99.95652252674164,
5,stimuli/5.png,s,1,0,1,0,93,0,93,0,0,0,0,0,,,,,,,,,,,,,,,,,,488.2330286372835,488.2330286372835,488.2330286372835,488.2330286372835,s,1,0.6104283842742007,488.86340988113443,488.86340988113443,488.86340988113443,,,,,,,,,,,,,,,,,,,,,,,,,,,,103,001,2023-03-01_12h27.37.238,eb_01,2022.2.4,99.95652252674164,
,,,1,0,1,0,93,0,93,0,,,,,,,,,,,,,,,,,,,,,,,,,,,,,,,,,,,,,,,,,,,,,,,,,,,,,,,,,,,103,001,2023-03-01_12h27.37.238,eb_01,2022.2.4,99.95652252674164,
9,stimuli/9.png,l,1,0,1,0,94,0,94,0,0,0,0,0,,,,,,,,,,,,,,,,,,489.8840306690254,489.8840306690254,489.8840306690254,489.8840306690254,l,1,0.5594364946427959,490.4640638663368,490.4640638663368,490.4640638663368,,,,,,,,,,,,,,,,,,,,,,,,,,,,103,001,2023-03-01_12h27.37.238,eb_01,2022.2.4,99.95652252674164,
,,,1,0,1,0,94,0,94,0,,,,,,,,,,,,,,,,,,,,,,,,,,,,,,,,,,,,,,,,,,,,,,,,,,,,,,,,,,,103,001,2023-03-01_12h27.37.238,eb_01,2022.2.4,99.95652252674164,
8,stimuli/8.png,l,1,0,1,0,95,0,95,0,0,0,0,0,,,,,,,,,,,,,,,,,,491.47499108792,491.47499108792,491.47499108792,491.47499108792,l,1,0.5685088565096521,492.06536290202166,492.06536290202166,492.06536290202166,,,,,,,,,,,,,,,,,,,,,,,,,,,,103,001,2023-03-01_12h27.37.238,eb_01,2022.2.4,99.95652252674164,
,,,1,0,1,0,95,0,95,0,,,,,,,,,,,,,,,,,,,,,,,,,,,,,,,,,,,,,,,,,,,,,,,,,,,,,,,,,,,103,001,2023-03-01_12h27.37.238,eb_01,2022.2.4,99.95652252674164,
6,stimuli/6.png,s,1,0,1,0,96,0,96,0,0,0,0,0,,,,,,,,,,,,,,,,,,493.08564048804146,493.08564048804146,493.08564048804146,493.08564048804146,s,1,0.5658474573028798,493.6863035287006,493.6863035287006,493.6863035287006,,,,,,,,,,,,,,,,,,,,,,,,,,,,103,001,2023-03-01_12h27.37.238,eb_01,2022.2.4,99.95652252674164,
,,,1,0,1,0,96,0,96,0,,,,,,,,,,,,,,,,,,,,,,,,,,,,,,,,,,,,,,,,,,,,,,,,,,,,,,,,,,,103,001,2023-03-01_12h27.37.238,eb_01,2022.2.4,99.95652252674164,
5,stimuli/5.png,s,1,0,1,0,97,0,97,0,0,0,0,0,,,,,,,,,,,,,,,,,,494.68695401245895,494.68695401245895,494.68695401245895,494.68695401245895,s,1,0.46056024684003205,495.177220451209,495.177220451209,495.177220451209,,,,,,,,,,,,,,,,,,,,,,,,,,,,103,001,2023-03-01_12h27.37.238,eb_01,2022.2.4,99.95652252674164,
,,,1,0,1,0,97,0,97,0,,,,,,,,,,,,,,,,,,,,,,,,,,,,,,,,,,,,,,,,,,,,,,,,,,,,,,,,,,,103,001,2023-03-01_12h27.37.238,eb_01,2022.2.4,99.95652252674164,
6,stimuli/6.png,s,1,0,1,0,98,0,98,0,0,0,0,0,,,,,,,,,,,,,,,,,,496.19754059788283,496.19754059788283,496.19754059788283,496.19754059788283,s,1,0.4690011414095352,496.6981643680392,496.6981643680392,496.6981643680392,,,,,,,,,,,,,,,,,,,,,,,,,,,,103,001,2023-03-01_12h27.37.238,eb_01,2022.2.4,99.95652252674164,
,,,1,0,1,0,98,0,98,0,,,,,,,,,,,,,,,,,,,,,,,,,,,,,,,,,,,,,,,,,,,,,,,,,,,,,,,,,,,103,001,2023-03-01_12h27.37.238,eb_01,2022.2.4,99.95652252674164,
8,stimuli/8.png,l,1,0,1,0,99,0,99,0,0,0,0,0,,,,,,,,,,,,,,,,,,497.6987629338364,497.6987629338364,497.6987629338364,497.6987629338364,l,1,0.47981849009738653,498.1990863646224,498.1990863646224,498.1990863646224,,,,,,,,,,,,,,,,,,,,,,,,,,,,103,001,2023-03-01_12h27.37.238,eb_01,2022.2.4,99.95652252674164,
,,,1,0,1,0,99,0,99,0,,,,,,,,,,,,,,,,,,,,,,,,,,,,,,,,,,,,,,,,,,,,,,,,,,,,,,,,,,,103,001,2023-03-01_12h27.37.238,eb_01,2022.2.4,99.95652252674164,
,,,1,0,1,0,,,,,,,,,,,,,,,,,,,,,,,,,,,,,,,,,,,,,,,499.199667121351,499.199667121351,return,24.53033345892254,,,,,,,,,,,,,,,,,,,,,103,001,2023-03-01_12h27.37.238,eb_01,2022.2.4,99.95652252674164,
6,stimuli/6.png,s,2,0,2,0,0,0,0,0,0,0,0,0,,,,,,,,,,,,,,,,,,523.7745803625148,523.7745803625148,523.7745803625148,523.7745803625148,s,1,2.1394793511099124,525.9458770347246,525.9458770347246,525.9458770347246,,,,,,,,,,,,,,,,,,,,,,,,,,,,103,001,2023-03-01_12h27.37.238,eb_01,2022.2.4,99.95652252674164,
,,,2,0,2,0,0,0,0,0,,,,,,,,,,,,,,,,,,,,,,,,,,,,,,,,,,,,,,,,,,,,,,,,,,,,,,,,,,,103,001,2023-03-01_12h27.37.238,eb_01,2022.2.4,99.95652252674164,
9,stimuli/9.png,l,2,0,2,0,1,0,1,0,0,0,0,0,,,,,,,,,,,,,,,,,,526.9565262537362,526.9565262537362,526.9565262537362,526.9565262537362,l,1,0.5645313973564043,527.5465512437822,527.5465512437822,527.5465512437822,,,,,,,,,,,,,,,,,,,,,,,,,,,,103,001,2023-03-01_12h27.37.238,eb_01,2022.2.4,99.95652252674164,
,,,2,0,2,0,1,0,1,0,,,,,,,,,,,,,,,,,,,,,,,,,,,,,,,,,,,,,,,,,,,,,,,,,,,,,,,,,,,103,001,2023-03-01_12h27.37.238,eb_01,2022.2.4,99.95652252674164,
6,stimuli/6.png,s,2,0,2,0,2,0,2,0,0,0,0,0,,,,,,,,,,,,,,,,,,528.5672010091403,528.5672010091403,528.5672010091403,528.5672010091403,s,1,0.5698928323945438,529.1678746145008,529.1678746145008,529.1678746145008,,,,,,,,,,,,,,,,,,,,,,,,,,,,103,001,2023-03-01_12h27.37.238,eb_01,2022.2.4,99.95652252674164,
,,,2,0,2,0,2,0,2,0,,,,,,,,,,,,,,,,,,,,,,,,,,,,,,,,,,,,,,,,,,,,,,,,,,,,,,,,,,,103,001,2023-03-01_12h27.37.238,eb_01,2022.2.4,99.95652252674164,
5,stimuli/5.png,s,2,0,2,0,3,0,3,0,0,0,0,0,,,,,,,,,,,,,,,,,,530.1684602008081,530.1684602008081,530.1684602008081,530.1684602008081,s,1,0.5126798428809707,530.7087815910982,530.7087815910982,530.7087815910982,,,,,,,,,,,,,,,,,,,,,,,,,,,,103,001,2023-03-01_12h27.37.238,eb_01,2022.2.4,99.95652252674164,
,,,2,0,2,0,3,0,3,0,,,,,,,,,,,,,,,,,,,,,,,,,,,,,,,,,,,,,,,,,,,,,,,,,,,,,,,,,,,103,001,2023-03-01_12h27.37.238,eb_01,2022.2.4,99.95652252674164,
6,stimuli/6.png,s,2,0,2,0,4,0,4,0,0,0,0,0,,,,,,,,,,,,,,,,,,531.7427978166688,531.7427978166688,531.7427978166688,531.7427978166688,s,1,0.5543482326011144,532.3297653821301,532.3297653821301,532.3297653821301,,,,,,,,,,,,,,,,,,,,,,,,,,,,103,001,2023-03-01_12h27.37.238,eb_01,2022.2.4,99.95652252674164,
,,,2,0,2,0,4,0,4,0,,,,,,,,,,,,,,,,,,,,,,,,,,,,,,,,,,,,,,,,,,,,,,,,,,,,,,,,,,,103,001,2023-03-01_12h27.37.238,eb_01,2022.2.4,99.95652252674164,
9,stimuli/9.png,l,2,0,2,0,5,0,5,0,0,0,0,0,,,,,,,,,,,,,,,,,,533.3403744552761,533.3403744552761,533.3403744552761,533.3403744552761,l,1,0.5408042854051018,533.9104046914526,533.9104046914526,533.9104046914526,,,,,,,,,,,,,,,,,,,,,,,,,,,,103,001,2023-03-01_12h27.37.238,eb_01,2022.2.4,99.95652252674164,
,,,2,0,2,0,5,0,5,0,,,,,,,,,,,,,,,,,,,,,,,,,,,,,,,,,,,,,,,,,,,,,,,,,,,,,,,,,,,103,001,2023-03-01_12h27.37.238,eb_01,2022.2.4,99.95652252674164,
6,stimuli/6.png,s,2,0,2,0,6,0,6,0,0,0,0,0,,,,,,,,,,,,,,,,,,534.9313466462663,534.9313466462663,534.9313466462663,534.9313466462663,s,1,0.613866439958656,535.5817528288499,535.5817528288499,535.5817528288499,,,,,,,,,,,,,,,,,,,,,,,,,,,,103,001,2023-03-01_12h27.37.238,eb_01,2022.2.4,99.95652252674164,
,,,2,0,2,0,6,0,6,0,,,,,,,,,,,,,,,,,,,,,,,,,,,,,,,,,,,,,,,,,,,,,,,,,,,,,,,,,,,103,001,2023-03-01_12h27.37.238,eb_01,2022.2.4,99.95652252674164,
5,stimuli/5.png,s,2,0,2,0,7,0,7,0,0,0,0,0,,,,,,,,,,,,,,,,,,536.5823459613712,536.5823459613712,536.5823459613712,536.5823459613712,s,1,0.5949130637964117,537.2027197163588,537.2027197163588,537.2027197163588,,,,,,,,,,,,,,,,,,,,,,,,,,,,103,001,2023-03-01_12h27.37.238,eb_01,2022.2.4,99.95652252674164,
,,,2,0,2,0,7,0,7,0,,,,,,,,,,,,,,,,,,,,,,,,,,,,,,,,,,,,,,,,,,,,,,,,,,,,,,,,,,,103,001,2023-03-01_12h27.37.238,eb_01,2022.2.4,99.95652252674164,
9,stimuli/9.png,l,2,0,2,0,8,0,8,0,0,0,0,0,,,,,,,,,,,,,,,,,,538.2233341654301,538.2233341654301,538.2233341654301,538.2233341654301,l,1,0.5379240459533321,538.7833590256814,538.7833590256814,538.7833590256814,,,,,,,,,,,,,,,,,,,,,,,,,,,,103,001,2023-03-01_12h27.37.238,eb_01,2022.2.4,99.95652252674164,
,,,2,0,2,0,8,0,8,0,,,,,,,,,,,,,,,,,,,,,,,,,,,,,,,,,,,,,,,,,,,,,,,,,,,,,,,,,,,103,001,2023-03-01_12h27.37.238,eb_01,2022.2.4,99.95652252674164,
6,stimuli/6.png,s,2,0,2,0,9,0,9,0,0,0,0,0,,,,,,,,,,,,,,,,,,539.8042973583106,539.8042973583106,539.8042973583106,539.8042973583106,s,1,0.5010091681670019,540.3446259929678,540.3446259929678,540.3446259929678,,,,,,,,,,,,,,,,,,,,,,,,,,,,103,001,2023-03-01_12h27.37.238,eb_01,2022.2.4,99.95652252674164,
,,,2,0,2,0,9,0,9,0,,,,,,,,,,,,,,,,,,,,,,,,,,,,,,,,,,,,,,,,,,,,,,,,,,,,,,,,,,,103,001,2023-03-01_12h27.37.238,eb_01,2022.2.4,99.95652252674164,
8,stimuli/8.png,l,2,0,2,0,10,0,10,0,0,0,0,0,,,,,,,,,,,,,,,,,,541.345235425315,541.345235425315,541.345235425315,541.345235425315,l,1,0.5040804777909216,541.8755674376589,541.8755674376589,541.8755674376589,,,,,,,,,,,,,,,,,,,,,,,,,,,,103,001,2023-03-01_12h27.37.238,eb_01,2022.2.4,99.95652252674164,
