index,stimulus,correct_answer,block.thisRepN,block.thisTrialN,block.thisN,block.thisIndex,trial.thisRepN,trial.thisTrialN,trial.thisN,trial.thisIndex,display_row.thisRepN,display_row.thisTrialN,display_row.thisN,display_row.thisIndex,pair_questions.thisRepN,pair_questions.thisTrialN,pair_questions.thisN,pair_questions.thisIndex,welcome_text.started,instructions_0_keypress.started,instructions_0_keypress.keys,instructions_0_keypress.rt,instructions_1_keypress.started,instructions_1_text.started,instructions_1_keypress.keys,instructions_1_keypress.rt,instructions_2_keypress.started,instructions_2_text.started,instructions_2_keypress.keys,instructions_2_keypress.rt,text_countdown.started,text_countdown.stopped,image.started,size_question.started,size_resp.started,keypress_options.started,size_resp.keys,size_resp.corr,size_resp.rt,fb_image.started,fb.started,fb_size_question.started,fb_image.stopped,fb.stopped,fb_size_question.stopped,block_break_text.started,block_break_keypress.started,block_break_keypress.keys,block_break_keypress.rt,seq_reveal.started,seq_reveal_adv.started,seq_reveal_adv.keys,seq_reveal_adv.rt,instruction_2afc_text.started,instruction_2afc_keypress.started,instruction_2afc_keypress.keys,instruction_2afc_keypress.rt,dist_2afc_test.started,dist_2afc_resp.started,text.started,stim_00.started,stim_01.started,stim_10.started,stim_11.started,dist_2afc_resp.keys,dist_2afc_resp.rt,graph.started,debrief_text.started,debriefing_title.started,participant,session,date,expName,psychopyVersion,frameRate,
,,,,,,,,,,,,,,,,,,,37.33038274623323,37.33038274623323,return,3.741426751606923,,,,,,,,,,,,,,,,,,,,,,,,,,,,,,,,,,,,,,,,,,,,,,,,107,001,2023-03-01_14h54.52.230,eb_01,2022.2.4,60.01010765135201,
,,,,,,,,,,,,,,,,,,,,,,,41.0968037067214,41.0968037067214,return,14.862369430225954,,,,,,,,,,,,,,,,,,,,,,,,,,,,,,,,,,,,,,,,,,,,107,001,2023-03-01_14h54.52.230,eb_01,2022.2.4,60.01010765135201,
,,,,,,,,,,,,,,,,,,,,,,,,,,,55.97917111896095,55.97917111896095,space,11.65126646907811,,,,,,,,,,,,,,,,,,,,,,,,,,,,,,,,,,,,,,,,107,001,2023-03-01_14h54.52.230,eb_01,2022.2.4,60.01010765135201,
9,stimuli/9.png,l,0,0,0,0,0,0,0,0,0,0,0,0,,,,,,,,,,,,,,,,,67.66148268888355,72.67814301669205,72.67814301669205,72.67814301669205,72.67814301669205,72.67814301669205,l,1,0.8724050485652697,73.59475504844886,73.59475504844886,73.59475504844886,,,,,,,,,,,,,,,,,,,,,,,,,,,,107,001,2023-03-01_14h54.52.230,eb_01,2022.2.4,60.01010765135201,
,,,0,0,0,0,0,0,0,0,,,,,,,,,,,,,,,,,,,,,,,,,,,,,,,,,,,,,,,,,,,,,,,,,,,,,,,,,,,,107,001,2023-03-01_14h54.52.230,eb_01,2022.2.4,60.01010765135201,
6,stimuli/6.png,s,0,0,0,0,1,0,1,0,0,0,0,0,,,,,,,,,,,,,,,,,,,74.61133930996948,74.61133930996948,74.61133930996948,74.61133930996948,s,1,1.786301634638221,76.44458752150604,76.44458752150604,76.44458752150604,,,,,,,,,,,,,,,,,,,,,,,,,,,,107,001,2023-03-01_14h54.52.230,eb_01,2022.2.4,60.01010765135201,
,,,0,0,0,0,1,0,1,0,,,,,,,,,,,,,,,,,,,,,,,,,,,,,,,,,,,,,,,,,,,,,,,,,,,,,,,,,,,,107,001,2023-03-01_14h54.52.230,eb_01,2022.2.4,60.01010765135201,
9,stimuli/9.png,l,0,0,0,0,2,0,2,0,0,0,0,0,,,,,,,,,,,,,,,,,,,77.46117932928973,77.46117932928973,77.46117932928973,77.46117932928973,l,1,0.5604753193292709,78.06112439252684,78.06112439252684,78.06112439252684,,,,,,,,,,,,,,,,,,,,,,,,,,,,107,001,2023-03-01_14h54.52.230,eb_01,2022.2.4,60.01010765135201,
,,,0,0,0,0,2,0,2,0,,,,,,,,,,,,,,,,,,,,,,,,,,,,,,,,,,,,,,,,,,,,,,,,,,,,,,,,,,,,107,001,2023-03-01_14h54.52.230,eb_01,2022.2.4,60.01010765135201,
8,stimuli/8.png,l,0,0,0,0,3,0,3,0,0,0,0,0,,,,,,,,,,,,,,,,,,,79.07775574270272,79.07775574270272,79.07775574270272,79.07775574270272,l,1,0.7919492545479443,79.89436234115055,79.89436234115055,79.89436234115055,80.91096320444194,80.91096320444194,80.91096320444194,,,,,,,,,,,,,,,,,,,,,,,,,107,001,2023-03-01_14h54.52.230,eb_01,2022.2.4,60.01010765135201,
,,,0,0,0,0,3,0,3,0,,,,,,,,,,,,,,,,,,,,,,,,,,,,,,,,,,,,,,,,,,,,,,,,,,,,,,,,,,,,107,001,2023-03-01_14h54.52.230,eb_01,2022.2.4,60.01010765135201,
6,stimuli/6.png,s,0,0,0,0,4,0,4,0,0,0,0,0,,,,,,,,,,,,,,,,,,,80.91096320444194,80.91096320444194,80.91096320444194,80.91096320444194,s,1,0.6067504860984627,81.5609300009055,81.5609300009055,81.5609300009055,,,,,,,,,,,,,,,,,,,,,,,,,,,,107,001,2023-03-01_14h54.52.230,eb_01,2022.2.4,60.01010765135201,
,,,0,0,0,0,4,0,4,0,,,,,,,,,,,,,,,,,,,,,,,,,,,,,,,,,,,,,,,,,,,,,,,,,,,,,,,,,,,,107,001,2023-03-01_14h54.52.230,eb_01,2022.2.4,60.01010765135201,
9,stimuli/9.png,l,0,0,0,0,5,0,5,0,0,0,0,0,,,,,,,,,,,,,,,,,,,82.57752573274047,82.57752573274047,82.57752573274047,82.57752573274047,l,1,0.5722544252457737,83.19414651815532,83.19414651815532,83.19414651815532,,,,,,,,,,,,,,,,,,,,,,,,,,,,107,001,2023-03-01_14h54.52.230,eb_01,2022.2.4,60.01010765135201,
,,,0,0,0,0,5,0,5,0,,,,,,,,,,,,,,,,,,,,,,,,,,,,,,,,,,,,,,,,,,,,,,,,,,,,,,,,,,,,107,001,2023-03-01_14h54.52.230,eb_01,2022.2.4,60.01010765135201,
5,stimuli/5.png,s,0,0,0,0,6,0,6,0,0,0,0,0,,,,,,,,,,,,,,,,,,,84.19376045156969,84.19376045156969,84.19376045156969,84.19376045156969,s,1,0.7960498914544587,85.01069365208605,85.01069365208605,85.01069365208605,86.02730025053461,86.02730025053461,86.02730025053461,,,,,,,,,,,,,,,,,,,,,,,,,107,001,2023-03-01_14h54.52.230,eb_01,2022.2.4,60.01010765135201,
,,,0,0,0,0,6,0,6,0,,,,,,,,,,,,,,,,,,,,,,,,,,,,,,,,,,,,,,,,,,,,,,,,,,,,,,,,,,,,107,001,2023-03-01_14h54.52.230,eb_01,2022.2.4,60.01010765135201,
9,stimuli/9.png,l,0,0,0,0,7,0,7,0,0,0,0,0,,,,,,,,,,,,,,,,,,,86.02730025053461,86.02730025053461,86.02730025053461,86.02730025053461,l,1,0.5385549474485742,86.61060702104078,86.61060702104078,86.61060702104078,,,,,,,,,,,,,,,,,,,,,,,,,,,,107,001,2023-03-01_14h54.52.230,eb_01,2022.2.4,60.01010765135201,
,,,0,0,0,0,7,0,7,0,,,,,,,,,,,,,,,,,,,,,,,,,,,,,,,,,,,,,,,,,,,,,,,,,,,,,,,,,,,,107,001,2023-03-01_14h54.52.230,eb_01,2022.2.4,60.01010765135201,
6,stimuli/6.png,s,0,0,0,0,8,0,8,0,0,0,0,0,,,,,,,,,,,,,,,,,,,87.6272127139382,87.6272127139382,87.6272127139382,87.6272127139382,s,1,0.50668106052035,88.17716109752655,88.17716109752655,88.17716109752655,,,,,,,,,,,,,,,,,,,,,,,,,,,,107,001,2023-03-01_14h54.52.230,eb_01,2022.2.4,60.01010765135201,
,,,0,0,0,0,8,0,8,0,,,,,,,,,,,,,,,,,,,,,,,,,,,,,,,,,,,,,,,,,,,,,,,,,,,,,,,,,,,,107,001,2023-03-01_14h54.52.230,eb_01,2022.2.4,60.01010765135201,
8,stimuli/8.png,l,0,0,0,0,9,0,9,0,0,0,0,0,,,,,,,,,,,,,,,,,,,89.17678227534998,89.17678227534998,89.17678227534998,89.17678227534998,l,1,0.6051642625498062,89.81038485918543,89.81038485918543,89.81038485918543,90.82702647227416,90.82702647227416,90.82702647227416,,,,,,,,,,,,,,,,,,,,,,,,,107,001,2023-03-01_14h54.52.230,eb_01,2022.2.4,60.01010765135201,
,,,0,0,0,0,9,0,9,0,,,,,,,,,,,,,,,,,,,,,,,,,,,,,,,,,,,,,,,,,,,,,,,,,,,,,,,,,,,,107,001,2023-03-01_14h54.52.230,eb_01,2022.2.4,60.01010765135201,
9,stimuli/9.png,l,0,0,0,0,10,0,10,0,0,0,0,0,,,,,,,,,,,,,,,,,,,90.82702647227416,90.82702647227416,90.82702647227416,90.82702647227416,l,1,0.521941104590951,91.39364182438294,91.39364182438294,91.39364182438294,,,,,,,,,,,,,,,,,,,,,,,,,,,,107,001,2023-03-01_14h54.52.230,eb_01,2022.2.4,60.01010765135201,
,,,0,0,0,0,10,0,10,0,,,,,,,,,,,,,,,,,,,,,,,,,,,,,,,,,,,,,,,,,,,,,,,,,,,,,,,,,,,,107,001,2023-03-01_14h54.52.230,eb_01,2022.2.4,60.01010765135201,
8,stimuli/8.png,l,0,0,0,0,11,0,11,0,0,0,0,0,,,,,,,,,,,,,,,,,,,92.41022850071022,92.41022850071022,92.41022850071022,92.41022850071022,l,1,0.4587707704449713,92.89356817290172,92.89356817290172,92.89356817290172,93.91014971776895,93.91014971776895,93.91014971776895,,,,,,,,,,,,,,,,,,,,,,,,,107,001,2023-03-01_14h54.52.230,eb_01,2022.2.4,60.01010765135201,
,,,0,0,0,0,11,0,11,0,,,,,,,,,,,,,,,,,,,,,,,,,,,,,,,,,,,,,,,,,,,,,,,,,,,,,,,,,,,,107,001,2023-03-01_14h54.52.230,eb_01,2022.2.4,60.01010765135201,
9,stimuli/9.png,l,0,0,0,0,12,0,12,0,0,0,0,0,,,,,,,,,,,,,,,,,,,93.91014971776895,93.91014971776895,93.91014971776895,93.91014971776895,l,1,0.422898573877319,94.37678680310273,94.37678680310273,94.37678680310273,,,,,,,,,,,,,,,,,,,,,,,,,,,,107,001,2023-03-01_14h54.52.230,eb_01,2022.2.4,60.01010765135201,
,,,0,0,0,0,12,0,12,0,,,,,,,,,,,,,,,,,,,,,,,,,,,,,,,,,,,,,,,,,,,,,,,,,,,,,,,,,,,,107,001,2023-03-01_14h54.52.230,eb_01,2022.2.4,60.01010765135201,
5,stimuli/5.png,s,0,0,0,0,13,0,13,0,0,0,0,0,,,,,,,,,,,,,,,,,,,95.37639771801332,95.37639771801332,95.37639771801332,95.37639771801332,s,1,0.6126921082432091,96.01006067192066,96.01006067192066,96.01006067192066,97.02662410576886,97.02662410576886,97.02662410576886,,,,,,,,,,,,,,,,,,,,,,,,,107,001,2023-03-01_14h54.52.230,eb_01,2022.2.4,60.01010765135201,
,,,0,0,0,0,13,0,13,0,,,,,,,,,,,,,,,,,,,,,,,,,,,,,,,,,,,,,,,,,,,,,,,,,,,,,,,,,,,,107,001,2023-03-01_14h54.52.230,eb_01,2022.2.4,60.01010765135201,
6,stimuli/6.png,s,0,0,0,0,14,0,14,0,0,0,0,0,,,,,,,,,,,,,,,,,,,97.02662410576886,97.02662410576886,97.02662410576886,97.02662410576886,s,1,0.5144814770756057,97.57656524495178,97.57656524495178,97.57656524495178,,,,,,,,,,,,,,,,,,,,,,,,,,,,107,001,2023-03-01_14h54.52.230,eb_01,2022.2.4,60.01010765135201,
,,,0,0,0,0,14,0,14,0,,,,,,,,,,,,,,,,,,,,,,,,,,,,,,,,,,,,,,,,,,,,,,,,,,,,,,,,,,,,107,001,2023-03-01_14h54.52.230,eb_01,2022.2.4,60.01010765135201,
5,stimuli/5.png,s,0,0,0,0,15,0,15,0,0,0,0,0,,,,,,,,,,,,,,,,,,,98.57622083371098,98.57622083371098,98.57622083371098,98.57622083371098,s,1,0.548910829002125,99.14315222312871,99.14315222312871,99.14315222312871,100.15974735126292,100.15974735126292,100.15974735126292,,,,,,,,,,,,,,,,,,,,,,,,,107,001,2023-03-01_14h54.52.230,eb_01,2022.2.4,60.01010765135201,
,,,0,0,0,0,15,0,15,0,,,,,,,,,,,,,,,,,,,,,,,,,,,,,,,,,,,,,,,,,,,,,,,,,,,,,,,,,,,,107,001,2023-03-01_14h54.52.230,eb_01,2022.2.4,60.01010765135201,
6,stimuli/6.png,s,0,0,0,0,16,0,16,0,0,0,0,0,,,,,,,,,,,,,,,,,,,100.15974735126292,100.15974735126292,100.15974735126292,100.15974735126292,s,1,0.4614493903827679,100.65971807177993,100.65971807177993,100.65971807177993,,,,,,,,,,,,,,,,,,,,,,,,,,,,107,001,2023-03-01_14h54.52.230,eb_01,2022.2.4,60.01010765135201,
,,,0,0,0,0,16,0,16,0,,,,,,,,,,,,,,,,,,,,,,,,,,,,,,,,,,,,,,,,,,,,,,,,,,,,,,,,,,,,107,001,2023-03-01_14h54.52.230,eb_01,2022.2.4,60.01010765135201,
5,stimuli/5.png,s,0,0,0,0,17,0,17,0,0,0,0,0,,,,,,,,,,,,,,,,,,,101.65935796432314,101.65935796432314,101.65935796432314,101.65935796432314,s,1,0.44185628464401816,102.1262917685417,102.1262917685417,102.1262917685417,103.14289263183309,103.14289263183309,103.14289263183309,,,,,,,,,,,,,,,,,,,,,,,,,107,001,2023-03-01_14h54.52.230,eb_01,2022.2.4,60.01010765135201,
,,,0,0,0,0,17,0,17,0,,,,,,,,,,,,,,,,,,,,,,,,,,,,,,,,,,,,,,,,,,,,,,,,,,,,,,,,,,,,107,001,2023-03-01_14h54.52.230,eb_01,2022.2.4,60.01010765135201,
6,stimuli/6.png,s,0,0,0,0,18,0,18,0,0,0,0,0,,,,,,,,,,,,,,,,,,,103.14289263183309,103.14289263183309,103.14289263183309,103.14289263183309,s,1,0.4223534321572515,103.60953575417443,103.60953575417443,103.60953575417443,,,,,,,,,,,,,,,,,,,,,,,,,,,,107,001,2023-03-01_14h54.52.230,eb_01,2022.2.4,60.01010765135201,
,,,0,0,0,0,18,0,18,0,,,,,,,,,,,,,,,,,,,,,,,,,,,,,,,,,,,,,,,,,,,,,,,,,,,,,,,,,,,,107,001,2023-03-01_14h54.52.230,eb_01,2022.2.4,60.01010765135201,
9,stimuli/9.png,l,0,0,0,0,19,0,19,0,0,0,0,0,,,,,,,,,,,,,,,,,,,104.62614144707186,104.62614144707186,104.62614144707186,104.62614144707186,l,1,0.5391686091970769,105.20946481934152,105.20946481934152,105.20946481934152,,,,,,,,,,,,,,,,,,,,,,,,,,,,107,001,2023-03-01_14h54.52.230,eb_01,2022.2.4,60.01010765135201,
,,,0,0,0,0,19,0,19,0,,,,,,,,,,,,,,,,,,,,,,,,,,,,,,,,,,,,,,,,,,,,,,,,,,,,,,,,,,,,107,001,2023-03-01_14h54.52.230,eb_01,2022.2.4,60.01010765135201,
5,stimuli/5.png,s,0,0,0,0,20,0,20,0,0,0,0,0,,,,,,,,,,,,,,,,,,,106.20909263786962,106.20909263786962,106.20909263786962,106.20909263786962,s,1,0.5072754038446874,106.74267348848662,106.74267348848662,106.74267348848662,107.75929065169476,107.75929065169476,107.75929065169476,,,,,,,,,,,,,,,,,,,,,,,,,107,001,2023-03-01_14h54.52.230,eb_01,2022.2.4,60.01010765135201,
,,,0,0,0,0,20,0,20,0,,,,,,,,,,,,,,,,,,,,,,,,,,,,,,,,,,,,,,,,,,,,,,,,,,,,,,,,,,,,107,001,2023-03-01_14h54.52.230,eb_01,2022.2.4,60.01010765135201,
6,stimuli/6.png,s,0,0,0,0,21,0,21,0,0,0,0,0,,,,,,,,,,,,,,,,,,,107.75929065169476,107.75929065169476,107.75929065169476,107.75929065169476,s,1,0.6290406246480416,108.42589996679817,108.42589996679817,108.42589996679817,,,,,,,,,,,,,,,,,,,,,,,,,,,,107,001,2023-03-01_14h54.52.230,eb_01,2022.2.4,60.01010765135201,
,,,0,0,0,0,21,0,21,0,,,,,,,,,,,,,,,,,,,,,,,,,,,,,,,,,,,,,,,,,,,,,,,,,,,,,,,,,,,,107,001,2023-03-01_14h54.52.230,eb_01,2022.2.4,60.01010765135201,
5,stimuli/5.png,s,0,0,0,0,22,0,22,0,0,0,0,0,,,,,,,,,,,,,,,,,,,109.42554287784151,109.42554287784151,109.42554287784151,109.42554287784151,s,1,0.490901532008138,109.94247426725997,109.94247426725997,109.94247426725997,110.95909626007415,110.95909626007415,110.95909626007415,,,,,,,,,,,,,,,,,,,,,,,,,107,001,2023-03-01_14h54.52.230,eb_01,2022.2.4,60.01010765135201,
,,,0,0,0,0,22,0,22,0,,,,,,,,,,,,,,,,,,,,,,,,,,,,,,,,,,,,,,,,,,,,,,,,,,,,,,,,,,,,107,001,2023-03-01_14h54.52.230,eb_01,2022.2.4,60.01010765135201,
9,stimuli/9.png,l,0,0,0,0,23,0,23,0,0,0,0,0,,,,,,,,,,,,,,,,,,,110.95909626007415,110.95909626007415,110.95909626007415,110.95909626007415,l,1,0.4453456746050506,111.44250173564069,111.44250173564069,111.44250173564069,,,,,,,,,,,,,,,,,,,,,,,,,,,,107,001,2023-03-01_14h54.52.230,eb_01,2022.2.4,60.01010765135201,
,,,0,0,0,0,23,0,23,0,,,,,,,,,,,,,,,,,,,,,,,,,,,,,,,,,,,,,,,,,,,,,,,,,,,,,,,,,,,,107,001,2023-03-01_14h54.52.230,eb_01,2022.2.4,60.01010765135201,
8,stimuli/8.png,l,0,0,0,0,24,0,24,0,0,0,0,0,,,,,,,,,,,,,,,,,,,112.45899815871235,112.45899815871235,112.45899815871235,112.45899815871235,l,1,0.5374918305387837,113.02565335506733,113.02565335506733,113.02565335506733,114.04222614627724,114.04222614627724,114.04222614627724,,,,,,,,,,,,,,,,,,,,,,,,,107,001,2023-03-01_14h54.52.230,eb_01,2022.2.4,60.01010765135201,
,,,0,0,0,0,24,0,24,0,,,,,,,,,,,,,,,,,,,,,,,,,,,,,,,,,,,,,,,,,,,,,,,,,,,,,,,,,,,,107,001,2023-03-01_14h54.52.230,eb_01,2022.2.4,60.01010765135201,
9,stimuli/9.png,l,0,0,0,0,25,0,25,0,0,0,0,0,,,,,,,,,,,,,,,,,,,114.04222614627724,114.04222614627724,114.04222614627724,114.04222614627724,l,1,0.41829746910661925,114.5089021703061,114.5089021703061,114.5089021703061,,,,,,,,,,,,,,,,,,,,,,,,,,,,107,001,2023-03-01_14h54.52.230,eb_01,2022.2.4,60.01010765135201,
,,,0,0,0,0,25,0,25,0,,,,,,,,,,,,,,,,,,,,,,,,,,,,,,,,,,,,,,,,,,,,,,,,,,,,,,,,,,,,107,001,2023-03-01_14h54.52.230,eb_01,2022.2.4,60.01010765135201,
8,stimuli/8.png,l,0,0,0,0,26,0,26,0,0,0,0,0,,,,,,,,,,,,,,,,,,,115.5254948836373,115.5254948836373,115.5254948836373,115.5254948836373,l,1,0.4789986674513784,116.02545292643845,116.02545292643845,116.02545292643845,117.04204563977328,117.04204563977328,117.04204563977328,,,,,,,,,,,,,,,,,,,,,,,,,107,001,2023-03-01_14h54.52.230,eb_01,2022.2.4,60.01010765135201,
,,,0,0,0,0,26,0,26,0,,,,,,,,,,,,,,,,,,,,,,,,,,,,,,,,,,,,,,,,,,,,,,,,,,,,,,,,,,,,107,001,2023-03-01_14h54.52.230,eb_01,2022.2.4,60.01010765135201,
6,stimuli/6.png,s,0,0,0,0,27,0,27,0,0,0,0,0,,,,,,,,,,,,,,,,,,,117.04204563977328,117.04204563977328,117.04204563977328,117.04204563977328,s,1,0.44252488315396477,117.52535723987967,117.52535723987967,117.52535723987967,,,,,,,,,,,,,,,,,,,,,,,,,,,,107,001,2023-03-01_14h54.52.230,eb_01,2022.2.4,60.01010765135201,
,,,0,0,0,0,27,0,27,0,,,,,,,,,,,,,,,,,,,,,,,,,,,,,,,,,,,,,,,,,,,,,,,,,,,,,,,,,,,,107,001,2023-03-01_14h54.52.230,eb_01,2022.2.4,60.01010765135201,
5,stimuli/5.png,s,0,0,0,0,28,0,28,0,0,0,0,0,,,,,,,,,,,,,,,,,,,118.5249886806123,118.5249886806123,118.5249886806123,118.5249886806123,s,1,0.4636359942633135,119.00860031996126,119.00860031996126,119.00860031996126,120.02518367593439,120.02518367593439,120.02518367593439,,,,,,,,,,,,,,,,,,,,,,,,,107,001,2023-03-01_14h54.52.230,eb_01,2022.2.4,60.01010765135201,
,,,0,0,0,0,28,0,28,0,,,,,,,,,,,,,,,,,,,,,,,,,,,,,,,,,,,,,,,,,,,,,,,,,,,,,,,,,,,,107,001,2023-03-01_14h54.52.230,eb_01,2022.2.4,60.01010765135201,
6,stimuli/6.png,s,0,0,0,0,29,0,29,0,0,0,0,0,,,,,,,,,,,,,,,,,,,120.02518367593439,120.02518367593439,120.02518367593439,120.02518367593439,s,1,0.5225309201632626,120.59183766488786,120.59183766488786,120.59183766488786,,,,,,,,,,,,,,,,,,,,,,,,,,,,107,001,2023-03-01_14h54.52.230,eb_01,2022.2.4,60.01010765135201,
,,,0,0,0,0,29,0,29,0,,,,,,,,,,,,,,,,,,,,,,,,,,,,,,,,,,,,,,,,,,,,,,,,,,,,,,,,,,,,107,001,2023-03-01_14h54.52.230,eb_01,2022.2.4,60.01010765135201,
9,stimuli/9.png,l,0,0,0,0,30,0,30,0,0,0,0,0,,,,,,,,,,,,,,,,,,,121.60845241329298,121.60845241329298,121.60845241329298,121.60845241329298,l,1,0.33925765504318406,121.99174892088558,121.99174892088558,121.99174892088558,,,,,,,,,,,,,,,,,,,,,,,,,,,,107,001,2023-03-01_14h54.52.230,eb_01,2022.2.4,60.01010765135201,
,,,0,0,0,0,30,0,30,0,,,,,,,,,,,,,,,,,,,,,,,,,,,,,,,,,,,,,,,,,,,,,,,,,,,,,,,,,,,,107,001,2023-03-01_14h54.52.230,eb_01,2022.2.4,60.01010765135201,
8,stimuli/8.png,l,0,0,0,0,31,0,31,0,0,0,0,0,,,,,,,,,,,,,,,,,,,123.00834767122433,123.00834767122433,123.00834767122433,123.00834767122433,l,1,0.32338485477885115,123.3583316731565,123.3583316731565,123.3583316731565,124.37494974191941,124.37494974191941,124.37494974191941,,,,,,,,,,,,,,,,,,,,,,,,,107,001,2023-03-01_14h54.52.230,eb_01,2022.2.4,60.01010765135201,
,,,0,0,0,0,31,0,31,0,,,,,,,,,,,,,,,,,,,,,,,,,,,,,,,,,,,,,,,,,,,,,,,,,,,,,,,,,,,,107,001,2023-03-01_14h54.52.230,eb_01,2022.2.4,60.01010765135201,
9,stimuli/9.png,l,0,0,0,0,32,0,32,0,0,0,0,0,,,,,,,,,,,,,,,,,,,124.37494974191941,124.37494974191941,124.37494974191941,124.37494974191941,l,1,0.5087713741449988,124.92487790153609,124.92487790153609,124.92487790153609,,,,,,,,,,,,,,,,,,,,,,,,,,,,107,001,2023-03-01_14h54.52.230,eb_01,2022.2.4,60.01010765135201,
,,,0,0,0,0,32,0,32,0,,,,,,,,,,,,,,,,,,,,,,,,,,,,,,,,,,,,,,,,,,,,,,,,,,,,,,,,,,,,107,001,2023-03-01_14h54.52.230,eb_01,2022.2.4,60.01010765135201,
6,stimuli/6.png,s,0,0,0,0,33,0,33,0,0,0,0,0,,,,,,,,,,,,,,,,,,,125.94148449998465,125.94148449998465,125.94148449998465,125.94148449998465,s,1,0.5582639637177635,126.5414938573449,126.5414938573449,126.5414938573449,,,,,,,,,,,,,,,,,,,,,,,,,,,,107,001,2023-03-01_14h54.52.230,eb_01,2022.2.4,60.01010765135201,
,,,0,0,0,0,33,0,33,0,,,,,,,,,,,,,,,,,,,,,,,,,,,,,,,,,,,,,,,,,,,,,,,,,,,,,,,,,,,,107,001,2023-03-01_14h54.52.230,eb_01,2022.2.4,60.01010765135201,
5,stimuli/5.png,s,0,0,0,0,34,0,34,0,0,0,0,0,,,,,,,,,,,,,,,,,,,127.55809804099044,127.55809804099044,127.55809804099044,127.55809804099044,s,1,0.3257078950155119,127.9080415949793,127.9080415949793,127.9080415949793,128.92464517492408,128.92464517492408,128.92464517492408,,,,,,,,,,,,,,,,,,,,,,,,,107,001,2023-03-01_14h54.52.230,eb_01,2022.2.4,60.01010765135201,
,,,0,0,0,0,34,0,34,0,,,,,,,,,,,,,,,,,,,,,,,,,,,,,,,,,,,,,,,,,,,,,,,,,,,,,,,,,,,,107,001,2023-03-01_14h54.52.230,eb_01,2022.2.4,60.01010765135201,
6,stimuli/6.png,s,0,0,0,0,35,0,35,0,0,0,0,0,,,,,,,,,,,,,,,,,,,128.92464517492408,128.92464517492408,128.92464517492408,128.92464517492408,s,1,0.4552125586051261,129.42460683992977,129.42460683992977,129.42460683992977,,,,,,,,,,,,,,,,,,,,,,,,,,,,107,001,2023-03-01_14h54.52.230,eb_01,2022.2.4,60.01010765135201,
,,,0,0,0,0,35,0,35,0,,,,,,,,,,,,,,,,,,,,,,,,,,,,,,,,,,,,,,,,,,,,,,,,,,,,,,,,,,,,107,001,2023-03-01_14h54.52.230,eb_01,2022.2.4,60.01010765135201,
9,stimuli/9.png,l,0,0,0,0,36,0,36,0,0,0,0,0,,,,,,,,,,,,,,,,,,,130.44121132542568,130.44121132542568,130.44121132542568,130.44121132542568,l,1,0.410673031303304,130.8911871773962,130.8911871773962,130.8911871773962,,,,,,,,,,,,,,,,,,,,,,,,,,,,107,001,2023-03-01_14h54.52.230,eb_01,2022.2.4,60.01010765135201,
,,,0,0,0,0,36,0,36,0,,,,,,,,,,,,,,,,,,,,,,,,,,,,,,,,,,,,,,,,,,,,,,,,,,,,,,,,,,,,107,001,2023-03-01_14h54.52.230,eb_01,2022.2.4,60.01010765135201,
8,stimuli/8.png,l,0,0,0,0,37,0,37,0,0,0,0,0,,,,,,,,,,,,,,,,,,,131.90790455492242,131.90790455492242,131.90790455492242,131.90790455492242,l,1,0.36002586416725535,132.2910978296968,132.2910978296968,132.2910978296968,133.29103896888046,133.29103896888046,133.29103896888046,,,,,,,,,,,,,,,,,,,,,,,,,107,001,2023-03-01_14h54.52.230,eb_01,2022.2.4,60.01010765135201,
,,,0,0,0,0,37,0,37,0,,,,,,,,,,,,,,,,,,,,,,,,,,,,,,,,,,,,,,,,,,,,,,,,,,,,,,,,,,,,107,001,2023-03-01_14h54.52.230,eb_01,2022.2.4,60.01010765135201,
3,stimuli/3.png,l,0,0,0,0,38,0,38,0,0,0,0,0,,,,,,,,,,,,,,,,,,,133.29103896888046,133.29103896888046,133.29103896888046,133.29103896888046,l,1,0.6169297852029558,133.94101180234793,133.94101180234793,133.94101180234793,134.94097075070385,134.94097075070385,134.94097075070385,,,,,,,,,,,,,,,,,,,,,,,,,107,001,2023-03-01_14h54.52.230,eb_01,2022.2.4,60.01010765135201,
,,,0,0,0,0,38,0,38,0,,,,,,,,,,,,,,,,,,,,,,,,,,,,,,,,,,,,,,,,,,,,,,,,,,,,,,,,,,,,107,001,2023-03-01_14h54.52.230,eb_01,2022.2.4,60.01010765135201,
2,stimuli/2.png,s,0,0,0,0,39,0,39,0,0,0,0,0,,,,,,,,,,,,,,,,,,,134.94097075070385,134.94097075070385,134.94097075070385,134.94097075070385,s,1,1.0390394172463857,136.0075507863221,136.0075507863221,136.0075507863221,137.02413897189763,137.02413897189763,137.02413897189763,,,,,,,,,,,,,,,,,,,,,,,,,107,001,2023-03-01_14h54.52.230,eb_01,2022.2.4,60.01010765135201,
,,,0,0,0,0,39,0,39,0,,,,,,,,,,,,,,,,,,,,,,,,,,,,,,,,,,,,,,,,,,,,,,,,,,,,,,,,,,,,107,001,2023-03-01_14h54.52.230,eb_01,2022.2.4,60.01010765135201,
1,stimuli/1.png,s,0,0,0,0,40,0,40,0,0,0,0,0,,,,,,,,,,,,,,,,,,,137.02413897189763,137.02413897189763,137.02413897189763,137.02413897189763,s,1,0.7389416177356907,137.80744845905429,137.80744845905429,137.80744845905429,,,,,,,,,,,,,,,,,,,,,,,,,,,,107,001,2023-03-01_14h54.52.230,eb_01,2022.2.4,60.01010765135201,
,,,0,0,0,0,40,0,40,0,,,,,,,,,,,,,,,,,,,,,,,,,,,,,,,,,,,,,,,,,,,,,,,,,,,,,,,,,,,,107,001,2023-03-01_14h54.52.230,eb_01,2022.2.4,60.01010765135201,
2,stimuli/2.png,s,0,0,0,0,41,0,41,0,0,0,0,0,,,,,,,,,,,,,,,,,,,138.80736182800683,138.80736182800683,138.80736182800683,138.80736182800683,s,1,0.4997726117326238,139.32402698542137,139.32402698542137,139.32402698542137,140.32395122098387,140.32395122098387,140.32395122098387,,,,,,,,,,,,,,,,,,,,,,,,,107,001,2023-03-01_14h54.52.230,eb_01,2022.2.4,60.01010765135201,
,,,0,0,0,0,41,0,41,0,,,,,,,,,,,,,,,,,,,,,,,,,,,,,,,,,,,,,,,,,,,,,,,,,,,,,,,,,,,,107,001,2023-03-01_14h54.52.230,eb_01,2022.2.4,60.01010765135201,
3,stimuli/3.png,l,0,0,0,0,42,0,42,0,0,0,0,0,,,,,,,,,,,,,,,,,,,140.32395122098387,140.32395122098387,140.32395122098387,140.32395122098387,l,1,0.3831868409542949,140.72389115276746,140.72389115276746,140.72389115276746,141.72387153249292,141.72387153249292,141.72387153249292,,,,,,,,,,,,,,,,,,,,,,,,,107,001,2023-03-01_14h54.52.230,eb_01,2022.2.4,60.01010765135201,
,,,0,0,0,0,42,0,42,0,,,,,,,,,,,,,,,,,,,,,,,,,,,,,,,,,,,,,,,,,,,,,,,,,,,,,,,,,,,,107,001,2023-03-01_14h54.52.230,eb_01,2022.2.4,60.01010765135201,
2,stimuli/2.png,s,0,0,0,0,43,0,43,0,0,0,0,0,,,,,,,,,,,,,,,,,,,141.72387153249292,141.72387153249292,141.72387153249292,141.72387153249292,s,1,0.5433166366019577,142.29047994204666,142.29047994204666,142.29047994204666,143.3071158199782,143.3071158199782,143.3071158199782,,,,,,,,,,,,,,,,,,,,,,,,,107,001,2023-03-01_14h54.52.230,eb_01,2022.2.4,60.01010765135201,
,,,0,0,0,0,43,0,43,0,,,,,,,,,,,,,,,,,,,,,,,,,,,,,,,,,,,,,,,,,,,,,,,,,,,,,,,,,,,,107,001,2023-03-01_14h54.52.230,eb_01,2022.2.4,60.01010765135201,
1,stimuli/1.png,s,0,0,0,0,44,0,44,0,0,0,0,0,,,,,,,,,,,,,,,,,,,143.3071158199782,143.3071158199782,143.3071158199782,143.3071158199782,s,1,0.5120603354771447,143.85704880920093,143.85704880920093,143.85704880920093,,,,,,,,,,,,,,,,,,,,,,,,,,,,107,001,2023-03-01_14h54.52.230,eb_01,2022.2.4,60.01010765135201,
,,,0,0,0,0,44,0,44,0,,,,,,,,,,,,,,,,,,,,,,,,,,,,,,,,,,,,,,,,,,,,,,,,,,,,,,,,,,,,107,001,2023-03-01_14h54.52.230,eb_01,2022.2.4,60.01010765135201,
4,stimuli/4.png,l,0,0,0,0,45,0,45,0,0,0,0,0,,,,,,,,,,,,,,,,,,,144.87365842615327,144.87365842615327,144.87365842615327,144.87365842615327,s,0,0.8655820234234852,145.77364061698245,145.77364061698245,145.77364061698245,,,,,,,,,,,,,,,,,,,,,,,,,,,,107,001,2023-03-01_14h54.52.230,eb_01,2022.2.4,60.01010765135201,
,,,0,0,0,0,45,0,45,0,,,,,,,,,,,,,,,,,,,,,,,,,,,,,,,,,,,,,,,,,,,,,,,,,,,,,,,,,,,,107,001,2023-03-01_14h54.52.230,eb_01,2022.2.4,60.01010765135201,
1,stimuli/1.png,s,0,0,0,0,46,0,46,0,0,0,0,0,,,,,,,,,,,,,,,,,,,146.79021099338934,146.79021099338934,146.79021099338934,146.79021099338934,s,1,1.1570710511659854,148.0064876694123,148.0064876694123,148.0064876694123,,,,,,,,,,,,,,,,,,,,,,,,,,,,107,001,2023-03-01_14h54.52.230,eb_01,2022.2.4,60.01010765135201,
,,,0,0,0,0,46,0,46,0,,,,,,,,,,,,,,,,,,,,,,,,,,,,,,,,,,,,,,,,,,,,,,,,,,,,,,,,,,,,107,001,2023-03-01_14h54.52.230,eb_01,2022.2.4,60.01010765135201,
2,stimuli/2.png,s,0,0,0,0,47,0,47,0,0,0,0,0,,,,,,,,,,,,,,,,,,,149.00674997736132,149.00674997736132,149.00674997736132,149.00674997736132,s,1,0.5805685910818283,149.60672009417613,149.60672009417613,149.60672009417613,150.6233251833728,150.6233251833728,150.6233251833728,,,,,,,,,,,,,,,,,,,,,,,,,107,001,2023-03-01_14h54.52.230,eb_01,2022.2.4,60.01010765135201,
,,,0,0,0,0,47,0,47,0,,,,,,,,,,,,,,,,,,,,,,,,,,,,,,,,,,,,,,,,,,,,,,,,,,,,,,,,,,,,107,001,2023-03-01_14h54.52.230,eb_01,2022.2.4,60.01010765135201,
1,stimuli/1.png,s,0,0,0,0,48,0,48,0,0,0,0,0,,,,,,,,,,,,,,,,,,,150.6233251833728,150.6233251833728,150.6233251833728,150.6233251833728,s,1,0.7960097453578783,151.45660478734862,151.45660478734862,151.45660478734862,,,,,,,,,,,,,,,,,,,,,,,,,,,,107,001,2023-03-01_14h54.52.230,eb_01,2022.2.4,60.01010765135201,
,,,0,0,0,0,48,0,48,0,,,,,,,,,,,,,,,,,,,,,,,,,,,,,,,,,,,,,,,,,,,,,,,,,,,,,,,,,,,,107,001,2023-03-01_14h54.52.230,eb_01,2022.2.4,60.01010765135201,
4,stimuli/4.png,l,0,0,0,0,49,0,49,0,0,0,0,0,,,,,,,,,,,,,,,,,,,152.47319599142793,152.47319599142793,152.47319599142793,152.47319599142793,l,1,0.4572545761693618,152.95650396933343,152.95650396933343,152.95650396933343,153.95646261583533,153.95646261583533,153.95646261583533,,,,,,,,,,,,,,,,,,,,,,,,,107,001,2023-03-01_14h54.52.230,eb_01,2022.2.4,60.01010765135201,
,,,0,0,0,0,49,0,49,0,,,,,,,,,,,,,,,,,,,,,,,,,,,,,,,,,,,,,,,,,,,,,,,,,,,,,,,,,,,,107,001,2023-03-01_14h54.52.230,eb_01,2022.2.4,60.01010765135201,
2,stimuli/2.png,s,0,0,0,0,50,0,50,0,0,0,0,0,,,,,,,,,,,,,,,,,,,153.95646261583533,153.95646261583533,153.95646261583533,153.95646261583533,s,1,0.621967667419085,154.60641009387473,154.60641009387473,154.60641009387473,155.62301457937065,155.62301457937065,155.62301457937065,,,,,,,,,,,,,,,,,,,,,,,,,107,001,2023-03-01_14h54.52.230,eb_01,2022.2.4,60.01010765135201,
,,,0,0,0,0,50,0,50,0,,,,,,,,,,,,,,,,,,,,,,,,,,,,,,,,,,,,,,,,,,,,,,,,,,,,,,,,,,,,107,001,2023-03-01_14h54.52.230,eb_01,2022.2.4,60.01010765135201,
1,stimuli/1.png,s,0,0,0,0,51,0,51,0,0,0,0,0,,,,,,,,,,,,,,,,,,,155.62301457937065,155.62301457937065,155.62301457937065,155.62301457937065,s,1,0.4835261207408621,156.15632919798372,156.15632919798372,156.15632919798372,,,,,,,,,,,,,,,,,,,,,,,,,,,,107,001,2023-03-01_14h54.52.230,eb_01,2022.2.4,60.01010765135201,
,,,0,0,0,0,51,0,51,0,,,,,,,,,,,,,,,,,,,,,,,,,,,,,,,,,,,,,,,,,,,,,,,,,,,,,,,,,,,,107,001,2023-03-01_14h54.52.230,eb_01,2022.2.4,60.01010765135201,
2,stimuli/2.png,s,0,0,0,0,52,0,52,0,0,0,0,0,,,,,,,,,,,,,,,,,,,157.15626248905755,157.15626248905755,157.15626248905755,157.15626248905755,s,1,0.5182307601789944,157.70620000603594,157.70620000603594,157.70620000603594,158.722805397083,158.722805397083,158.722805397083,,,,,,,,,,,,,,,,,,,,,,,,,107,001,2023-03-01_14h54.52.230,eb_01,2022.2.4,60.01010765135201,
,,,0,0,0,0,52,0,52,0,,,,,,,,,,,,,,,,,,,,,,,,,,,,,,,,,,,,,,,,,,,,,,,,,,,,,,,,,,,,107,001,2023-03-01_14h54.52.230,eb_01,2022.2.4,60.01010765135201,
4,stimuli/4.png,l,0,0,0,0,53,0,53,0,0,0,0,0,,,,,,,,,,,,,,,,,,,158.722805397083,158.722805397083,158.722805397083,158.722805397083,l,1,0.5677529310887621,159.32276857134275,159.32276857134275,159.32276857134275,160.3227266141439,160.3227266141439,160.3227266141439,,,,,,,,,,,,,,,,,,,,,,,,,107,001,2023-03-01_14h54.52.230,eb_01,2022.2.4,60.01010765135201,
,,,0,0,0,0,53,0,53,0,,,,,,,,,,,,,,,,,,,,,,,,,,,,,,,,,,,,,,,,,,,,,,,,,,,,,,,,,,,,107,001,2023-03-01_14h54.52.230,eb_01,2022.2.4,60.01010765135201,
3,stimuli/3.png,l,0,0,0,0,54,0,54,0,0,0,0,0,,,,,,,,,,,,,,,,,,,160.3227266141439,160.3227266141439,160.3227266141439,160.3227266141439,l,1,0.5598462632115115,160.9060635696842,160.9060635696842,160.9060635696842,161.92262519243013,161.92262519243013,161.92262519243013,,,,,,,,,,,,,,,,,,,,,,,,,107,001,2023-03-01_14h54.52.230,eb_01,2022.2.4,60.01010765135201,
,,,0,0,0,0,54,0,54,0,,,,,,,,,,,,,,,,,,,,,,,,,,,,,,,,,,,,,,,,,,,,,,,,,,,,,,,,,,,,107,001,2023-03-01_14h54.52.230,eb_01,2022.2.4,60.01010765135201,
4,stimuli/4.png,l,0,0,0,0,55,0,55,0,0,0,0,0,,,,,,,,,,,,,,,,,,,161.92262519243013,161.92262519243013,161.92262519243013,161.92262519243013,l,1,0.5119921172990871,162.45595399800732,162.45595399800732,162.45595399800732,163.4558574058974,163.4558574058974,163.4558574058974,,,,,,,,,,,,,,,,,,,,,,,,,107,001,2023-03-01_14h54.52.230,eb_01,2022.2.4,60.01010765135201,
,,,0,0,0,0,55,0,55,0,,,,,,,,,,,,,,,,,,,,,,,,,,,,,,,,,,,,,,,,,,,,,,,,,,,,,,,,,,,,107,001,2023-03-01_14h54.52.230,eb_01,2022.2.4,60.01010765135201,
3,stimuli/3.png,l,0,0,0,0,56,0,56,0,0,0,0,0,,,,,,,,,,,,,,,,,,,163.4558574058974,163.4558574058974,163.4558574058974,163.4558574058974,l,1,0.5547947977283911,164.03916900600598,164.03916900600598,164.03916900600598,165.05574813607382,165.05574813607382,165.05574813607382,,,,,,,,,,,,,,,,,,,,,,,,,107,001,2023-03-01_14h54.52.230,eb_01,2022.2.4,60.01010765135201,
,,,0,0,0,0,56,0,56,0,,,,,,,,,,,,,,,,,,,,,,,,,,,,,,,,,,,,,,,,,,,,,,,,,,,,,,,,,,,,107,001,2023-03-01_14h54.52.230,eb_01,2022.2.4,60.01010765135201,
4,stimuli/4.png,l,0,0,0,0,57,0,57,0,0,0,0,0,,,,,,,,,,,,,,,,,,,165.05574813607382,165.05574813607382,165.05574813607382,165.05574813607382,l,1,0.47494994880617014,165.555756286034,165.555756286034,165.555756286034,166.55570587702823,166.55570587702823,166.55570587702823,,,,,,,,,,,,,,,,,,,,,,,,,107,001,2023-03-01_14h54.52.230,eb_01,2022.2.4,60.01010765135201,
,,,0,0,0,0,57,0,57,0,,,,,,,,,,,,,,,,,,,,,,,,,,,,,,,,,,,,,,,,,,,,,,,,,,,,,,,,,,,,107,001,2023-03-01_14h54.52.230,eb_01,2022.2.4,60.01010765135201,
3,stimuli/3.png,l,0,0,0,0,58,0,58,0,0,0,0,0,,,,,,,,,,,,,,,,,,,166.55570587702823,166.55570587702823,166.55570587702823,166.55570587702823,l,1,0.5349943208057084,167.12233209574697,167.12233209574697,167.12233209574697,168.13891847022387,168.13891847022387,168.13891847022387,,,,,,,,,,,,,,,,,,,,,,,,,107,001,2023-03-01_14h54.52.230,eb_01,2022.2.4,60.01010765135201,
,,,0,0,0,0,58,0,58,0,,,,,,,,,,,,,,,,,,,,,,,,,,,,,,,,,,,,,,,,,,,,,,,,,,,,,,,,,,,,107,001,2023-03-01_14h54.52.230,eb_01,2022.2.4,60.01010765135201,
8,stimuli/8.png,l,0,0,0,0,59,0,59,0,0,0,0,0,,,,,,,,,,,,,,,,,,,168.13891847022387,168.13891847022387,168.13891847022387,168.13891847022387,l,1,0.5508206361191696,168.7222267499783,168.7222267499783,168.7222267499783,169.73880255969198,169.73880255969198,169.73880255969198,,,,,,,,,,,,,,,,,,,,,,,,,107,001,2023-03-01_14h54.52.230,eb_01,2022.2.4,60.01010765135201,
,,,0,0,0,0,59,0,59,0,,,,,,,,,,,,,,,,,,,,,,,,,,,,,,,,,,,,,,,,,,,,,,,,,,,,,,,,,,,,107,001,2023-03-01_14h54.52.230,eb_01,2022.2.4,60.01010765135201,
6,stimuli/6.png,s,0,0,0,0,60,0,60,0,0,0,0,0,,,,,,,,,,,,,,,,,,,169.73880255969198,169.73880255969198,169.73880255969198,169.73880255969198,s,1,0.6390086285136931,170.42211083944494,170.42211083944494,170.42211083944494,,,,,,,,,,,,,,,,,,,,,,,,,,,,107,001,2023-03-01_14h54.52.230,eb_01,2022.2.4,60.01010765135201,
,,,0,0,0,0,60,0,60,0,,,,,,,,,,,,,,,,,,,,,,,,,,,,,,,,,,,,,,,,,,,,,,,,,,,,,,,,,,,,107,001,2023-03-01_14h54.52.230,eb_01,2022.2.4,60.01010765135201,
9,stimuli/9.png,l,0,0,0,0,61,0,61,0,0,0,0,0,,,,,,,,,,,,,,,,,,,171.43872226749954,171.43872226749954,171.43872226749954,171.43872226749954,l,1,0.6111378808273003,172.08869117691575,172.08869117691575,172.08869117691575,,,,,,,,,,,,,,,,,,,,,,,,,,,,107,001,2023-03-01_14h54.52.230,eb_01,2022.2.4,60.01010765135201,
,,,0,0,0,0,61,0,61,0,,,,,,,,,,,,,,,,,,,,,,,,,,,,,,,,,,,,,,,,,,,,,,,,,,,,,,,,,,,,107,001,2023-03-01_14h54.52.230,eb_01,2022.2.4,60.01010765135201,
8,stimuli/8.png,l,0,0,0,0,62,0,62,0,0,0,0,0,,,,,,,,,,,,,,,,,,,173.1053080382735,173.1053080382735,173.1053080382735,173.1053080382735,l,1,0.5525761977114598,173.68860182921344,173.68860182921344,173.68860182921344,174.68820127380968,174.68820127380968,174.68820127380968,,,,,,,,,,,,,,,,,,,,,,,,,107,001,2023-03-01_14h54.52.230,eb_01,2022.2.4,60.01010765135201,
,,,0,0,0,0,62,0,62,0,,,,,,,,,,,,,,,,,,,,,,,,,,,,,,,,,,,,,,,,,,,,,,,,,,,,,,,,,,,,107,001,2023-03-01_14h54.52.230,eb_01,2022.2.4,60.01010765135201,
3,stimuli/3.png,l,0,0,0,0,63,0,63,0,0,0,0,0,,,,,,,,,,,,,,,,,,,174.68820127380968,174.68820127380968,174.68820127380968,174.68820127380968,l,1,0.5457190634806466,175.25518337408357,175.25518337408357,175.25518337408357,176.27177729481627,176.27177729481627,176.27177729481627,,,,,,,,,,,,,,,,,,,,,,,,,107,001,2023-03-01_14h54.52.230,eb_01,2022.2.4,60.01010765135201,
,,,0,0,0,0,63,0,63,0,,,,,,,,,,,,,,,,,,,,,,,,,,,,,,,,,,,,,,,,,,,,,,,,,,,,,,,,,,,,107,001,2023-03-01_14h54.52.230,eb_01,2022.2.4,60.01010765135201,
8,stimuli/8.png,l,0,0,0,0,64,0,64,0,0,0,0,0,,,,,,,,,,,,,,,,,,,176.27177729481627,176.27177729481627,176.27177729481627,176.27177729481627,l,1,0.46615402982206433,176.75503969332203,176.75503969332203,176.75503969332203,177.75499320836752,177.75499320836752,177.75499320836752,,,,,,,,,,,,,,,,,,,,,,,,,107,001,2023-03-01_14h54.52.230,eb_01,2022.2.4,60.01010765135201,
,,,0,0,0,0,64,0,64,0,,,,,,,,,,,,,,,,,,,,,,,,,,,,,,,,,,,,,,,,,,,,,,,,,,,,,,,,,,,,107,001,2023-03-01_14h54.52.230,eb_01,2022.2.4,60.01010765135201,
3,stimuli/3.png,l,0,0,0,0,65,0,65,0,0,0,0,0,,,,,,,,,,,,,,,,,,,177.75499320836752,177.75499320836752,177.75499320836752,177.75499320836752,l,1,0.4950112244223419,178.2716022216191,178.2716022216191,178.2716022216191,179.28827824564723,179.28827824564723,179.28827824564723,,,,,,,,,,,,,,,,,,,,,,,,,107,001,2023-03-01_14h54.52.230,eb_01,2022.2.4,60.01010765135201,
,,,0,0,0,0,65,0,65,0,,,,,,,,,,,,,,,,,,,,,,,,,,,,,,,,,,,,,,,,,,,,,,,,,,,,,,,,,,,,107,001,2023-03-01_14h54.52.230,eb_01,2022.2.4,60.01010765135201,
8,stimuli/8.png,l,0,0,0,0,66,0,66,0,0,0,0,0,,,,,,,,,,,,,,,,,,,179.28827824564723,179.28827824564723,179.28827824564723,179.28827824564723,l,1,0.481745203720493,179.78820791451653,179.78820791451653,179.78820791451653,180.7881300371264,180.7881300371264,180.7881300371264,,,,,,,,,,,,,,,,,,,,,,,,,107,001,2023-03-01_14h54.52.230,eb_01,2022.2.4,60.01010765135201,
,,,0,0,0,0,66,0,66,0,,,,,,,,,,,,,,,,,,,,,,,,,,,,,,,,,,,,,,,,,,,,,,,,,,,,,,,,,,,,107,001,2023-03-01_14h54.52.230,eb_01,2022.2.4,60.01010765135201,
3,stimuli/3.png,l,0,0,0,0,67,0,67,0,0,0,0,0,,,,,,,,,,,,,,,,,,,180.7881300371264,180.7881300371264,180.7881300371264,180.7881300371264,l,1,0.3739173187823326,181.18812218901803,181.18812218901803,181.18812218901803,182.18806513930394,182.18806513930394,182.18806513930394,,,,,,,,,,,,,,,,,,,,,,,,,107,001,2023-03-01_14h54.52.230,eb_01,2022.2.4,60.01010765135201,
,,,0,0,0,0,67,0,67,0,,,,,,,,,,,,,,,,,,,,,,,,,,,,,,,,,,,,,,,,,,,,,,,,,,,,,,,,,,,,107,001,2023-03-01_14h54.52.230,eb_01,2022.2.4,60.01010765135201,
2,stimuli/2.png,s,0,0,0,0,68,0,68,0,0,0,0,0,,,,,,,,,,,,,,,,,,,182.18806513930394,182.18806513930394,182.18806513930394,182.18806513930394,s,1,0.6051201923983172,182.82136013764466,182.82136013764466,182.82136013764466,183.82131244528864,183.82131244528864,183.82131244528864,,,,,,,,,,,,,,,,,,,,,,,,,107,001,2023-03-01_14h54.52.230,eb_01,2022.2.4,60.01010765135201,
,,,0,0,0,0,68,0,68,0,,,,,,,,,,,,,,,,,,,,,,,,,,,,,,,,,,,,,,,,,,,,,,,,,,,,,,,,,,,,107,001,2023-03-01_14h54.52.230,eb_01,2022.2.4,60.01010765135201,
3,stimuli/3.png,l,0,0,0,0,69,0,69,0,0,0,0,0,,,,,,,,,,,,,,,,,,,183.82131244528864,183.82131244528864,183.82131244528864,183.82131244528864,l,1,0.5077888512787467,184.35459476591495,184.35459476591495,184.35459476591495,185.35424401581622,185.35424401581622,185.35424401581622,,,,,,,,,,,,,,,,,,,,,,,,,107,001,2023-03-01_14h54.52.230,eb_01,2022.2.4,60.01010765135201,
,,,0,0,0,0,69,0,69,0,,,,,,,,,,,,,,,,,,,,,,,,,,,,,,,,,,,,,,,,,,,,,,,,,,,,,,,,,,,,107,001,2023-03-01_14h54.52.230,eb_01,2022.2.4,60.01010765135201,
8,stimuli/8.png,l,0,0,0,0,70,0,70,0,0,0,0,0,,,,,,,,,,,,,,,,,,,185.35424401581622,185.35424401581622,185.35424401581622,185.35424401581622,l,1,0.6149306303850608,185.98781309426704,185.98781309426704,185.98781309426704,187.0044486703482,187.0044486703482,187.0044486703482,,,,,,,,,,,,,,,,,,,,,,,,,107,001,2023-03-01_14h54.52.230,eb_01,2022.2.4,60.01010765135201,
,,,0,0,0,0,70,0,70,0,,,,,,,,,,,,,,,,,,,,,,,,,,,,,,,,,,,,,,,,,,,,,,,,,,,,,,,,,,,,107,001,2023-03-01_14h54.52.230,eb_01,2022.2.4,60.01010765135201,
6,stimuli/6.png,s,0,0,0,0,71,0,71,0,0,0,0,0,,,,,,,,,,,,,,,,,,,187.0044486703482,187.0044486703482,187.0044486703482,187.0044486703482,s,1,0.6127630430746649,187.6543925261867,187.6543925261867,187.6543925261867,,,,,,,,,,,,,,,,,,,,,,,,,,,,107,001,2023-03-01_14h54.52.230,eb_01,2022.2.4,60.01010765135201,
,,,0,0,0,0,71,0,71,0,,,,,,,,,,,,,,,,,,,,,,,,,,,,,,,,,,,,,,,,,,,,,,,,,,,,,,,,,,,,107,001,2023-03-01_14h54.52.230,eb_01,2022.2.4,60.01010765135201,
9,stimuli/9.png,l,0,0,0,0,72,0,72,0,0,0,0,0,,,,,,,,,,,,,,,,,,,188.6710054634932,188.6710054634932,188.6710054634932,188.6710054634932,l,1,0.5302338390538353,189.23767726161532,189.23767726161532,189.23767726161532,,,,,,,,,,,,,,,,,,,,,,,,,,,,107,001,2023-03-01_14h54.52.230,eb_01,2022.2.4,60.01010765135201,
,,,0,0,0,0,72,0,72,0,,,,,,,,,,,,,,,,,,,,,,,,,,,,,,,,,,,,,,,,,,,,,,,,,,,,,,,,,,,,107,001,2023-03-01_14h54.52.230,eb_01,2022.2.4,60.01010765135201,
5,stimuli/5.png,s,0,0,0,0,73,0,73,0,0,0,0,0,,,,,,,,,,,,,,,,,,,190.23725135077984,190.23725135077984,190.23725135077984,190.23725135077984,s,1,0.6040114960887877,190.87085091611516,190.87085091611516,190.87085091611516,191.8874381961432,191.8874381961432,191.8874381961432,,,,,,,,,,,,,,,,,,,,,,,,,107,001,2023-03-01_14h54.52.230,eb_01,2022.2.4,60.01010765135201,
,,,0,0,0,0,73,0,73,0,,,,,,,,,,,,,,,,,,,,,,,,,,,,,,,,,,,,,,,,,,,,,,,,,,,,,,,,,,,,107,001,2023-03-01_14h54.52.230,eb_01,2022.2.4,60.01010765135201,
6,stimuli/6.png,s,0,0,0,0,74,0,74,0,0,0,0,0,,,,,,,,,,,,,,,,,,,191.8874381961432,191.8874381961432,191.8874381961432,191.8874381961432,s,1,0.5939487112227653,192.52076851097445,192.52076851097445,192.52076851097445,,,,,,,,,,,,,,,,,,,,,,,,,,,,107,001,2023-03-01_14h54.52.230,eb_01,2022.2.4,60.01010765135201,
,,,0,0,0,0,74,0,74,0,,,,,,,,,,,,,,,,,,,,,,,,,,,,,,,,,,,,,,,,,,,,,,,,,,,,,,,,,,,,107,001,2023-03-01_14h54.52.230,eb_01,2022.2.4,60.01010765135201,
9,stimuli/9.png,l,0,0,0,0,75,0,75,0,0,0,0,0,,,,,,,,,,,,,,,,,,,193.53735337619582,193.53735337619582,193.53735337619582,193.53735337619582,l,1,0.49602181937007117,194.07066859850966,194.07066859850966,194.07066859850966,,,,,,,,,,,,,,,,,,,,,,,,,,,,107,001,2023-03-01_14h54.52.230,eb_01,2022.2.4,60.01010765135201,
,,,0,0,0,0,75,0,75,0,,,,,,,,,,,,,,,,,,,,,,,,,,,,,,,,,,,,,,,,,,,,,,,,,,,,,,,,,,,,107,001,2023-03-01_14h54.52.230,eb_01,2022.2.4,60.01010765135201,
5,stimuli/5.png,s,0,0,0,0,76,0,76,0,0,0,0,0,,,,,,,,,,,,,,,,,,,195.07027740046397,195.07027740046397,195.07027740046397,195.07027740046397,s,1,0.5391203131403017,195.63726372664314,195.63726372664314,195.63726372664314,196.65385161037193,196.65385161037193,196.65385161037193,,,,,,,,,,,,,,,,,,,,,,,,,107,001,2023-03-01_14h54.52.230,eb_01,2022.2.4,60.01010765135201,
,,,0,0,0,0,76,0,76,0,,,,,,,,,,,,,,,,,,,,,,,,,,,,,,,,,,,,,,,,,,,,,,,,,,,,,,,,,,,,107,001,2023-03-01_14h54.52.230,eb_01,2022.2.4,60.01010765135201,
9,stimuli/9.png,l,0,0,0,0,77,0,77,0,0,0,0,0,,,,,,,,,,,,,,,,,,,196.65385161037193,196.65385161037193,196.65385161037193,196.65385161037193,l,1,0.6435907167142432,197.33715324942023,197.33715324942023,197.33715324942023,,,,,,,,,,,,,,,,,,,,,,,,,,,,107,001,2023-03-01_14h54.52.230,eb_01,2022.2.4,60.01010765135201,
,,,0,0,0,0,77,0,77,0,,,,,,,,,,,,,,,,,,,,,,,,,,,,,,,,,,,,,,,,,,,,,,,,,,,,,,,,,,,,107,001,2023-03-01_14h54.52.230,eb_01,2022.2.4,60.01010765135201,
6,stimuli/6.png,s,0,0,0,0,78,0,78,0,0,0,0,0,,,,,,,,,,,,,,,,,,,198.35374988680633,198.35374988680633,198.35374988680633,198.35374988680633,s,1,0.6157338541452191,199.00372875728135,199.00372875728135,199.00372875728135,,,,,,,,,,,,,,,,,,,,,,,,,,,,107,001,2023-03-01_14h54.52.230,eb_01,2022.2.4,60.01010765135201,
,,,0,0,0,0,78,0,78,0,,,,,,,,,,,,,,,,,,,,,,,,,,,,,,,,,,,,,,,,,,,,,,,,,,,,,,,,,,,,107,001,2023-03-01_14h54.52.230,eb_01,2022.2.4,60.01010765135201,
8,stimuli/8.png,l,0,0,0,0,79,0,79,0,0,0,0,0,,,,,,,,,,,,,,,,,,,200.02031543360863,200.02031543360863,200.02031543360863,200.02031543360863,l,1,0.6521840941168193,200.7036173745073,200.7036173745073,200.7036173745073,201.72022155815284,201.72022155815284,201.72022155815284,,,,,,,,,,,,,,,,,,,,,,,,,107,001,2023-03-01_14h54.52.230,eb_01,2022.2.4,60.01010765135201,
,,,0,0,0,0,79,0,79,0,,,,,,,,,,,,,,,,,,,,,,,,,,,,,,,,,,,,,,,,,,,,,,,,,,,,,,,,,,,,107,001,2023-03-01_14h54.52.230,eb_01,2022.2.4,60.01010765135201,
9,stimuli/9.png,l,0,0,0,0,80,0,80,0,0,0,0,0,,,,,,,,,,,,,,,,,,,201.72022155815284,201.72022155815284,201.72022155815284,201.72022155815284,l,1,0.45630163464011275,202.22010232726825,202.22010232726825,202.22010232726825,,,,,,,,,,,,,,,,,,,,,,,,,,,,107,001,2023-03-01_14h54.52.230,eb_01,2022.2.4,60.01010765135201,
,,,0,0,0,0,80,0,80,0,,,,,,,,,,,,,,,,,,,,,,,,,,,,,,,,,,,,,,,,,,,,,,,,,,,,,,,,,,,,107,001,2023-03-01_14h54.52.230,eb_01,2022.2.4,60.01010765135201,
5,stimuli/5.png,s,0,0,0,0,81,0,81,0,0,0,0,0,,,,,,,,,,,,,,,,,,,203.21976516043287,203.21976516043287,203.21976516043287,203.21976516043287,s,1,0.5408206361171324,203.78676205137526,203.78676205137526,203.78676205137526,204.80336653687118,204.80336653687118,204.80336653687118,,,,,,,,,,,,,,,,,,,,,,,,,107,001,2023-03-01_14h54.52.230,eb_01,2022.2.4,60.01010765135201,
,,,0,0,0,0,81,0,81,0,,,,,,,,,,,,,,,,,,,,,,,,,,,,,,,,,,,,,,,,,,,,,,,,,,,,,,,,,,,,107,001,2023-03-01_14h54.52.230,eb_01,2022.2.4,60.01010765135201,
9,stimuli/9.png,l,0,0,0,0,82,0,82,0,0,0,0,0,,,,,,,,,,,,,,,,,,,204.80336653687118,204.80336653687118,204.80336653687118,204.80336653687118,l,1,0.525254515800043,205.36996890941373,205.36996890941373,205.36996890941373,,,,,,,,,,,,,,,,,,,,,,,,,,,,107,001,2023-03-01_14h54.52.230,eb_01,2022.2.4,60.01010765135201,
,,,0,0,0,0,82,0,82,0,,,,,,,,,,,,,,,,,,,,,,,,,,,,,,,,,,,,,,,,,,,,,,,,,,,,,,,,,,,,107,001,2023-03-01_14h54.52.230,eb_01,2022.2.4,60.01010765135201,
5,stimuli/5.png,s,0,0,0,0,83,0,83,0,0,0,0,0,,,,,,,,,,,,,,,,,,,206.36961544266524,206.36961544266524,206.36961544266524,206.36961544266524,s,1,0.5750160540337674,206.96988197651808,206.96988197651808,206.96988197651808,207.98650095082849,207.98650095082849,207.98650095082849,,,,,,,,,,,,,,,,,,,,,,,,,107,001,2023-03-01_14h54.52.230,eb_01,2022.2.4,60.01010765135201,
,,,0,0,0,0,83,0,83,0,,,,,,,,,,,,,,,,,,,,,,,,,,,,,,,,,,,,,,,,,,,,,,,,,,,,,,,,,,,,107,001,2023-03-01_14h54.52.230,eb_01,2022.2.4,60.01010765135201,
6,stimuli/6.png,s,0,0,0,0,84,0,84,0,0,0,0,0,,,,,,,,,,,,,,,,,,,207.98650095082849,207.98650095082849,207.98650095082849,207.98650095082849,s,1,0.6141835507842188,208.63647559540186,208.63647559540186,208.63647559540186,,,,,,,,,,,,,,,,,,,,,,,,,,,,107,001,2023-03-01_14h54.52.230,eb_01,2022.2.4,60.01010765135201,
,,,0,0,0,0,84,0,84,0,,,,,,,,,,,,,,,,,,,,,,,,,,,,,,,,,,,,,,,,,,,,,,,,,,,,,,,,,,,,107,001,2023-03-01_14h54.52.230,eb_01,2022.2.4,60.01010765135201,
5,stimuli/5.png,s,0,0,0,0,85,0,85,0,0,0,0,0,,,,,,,,,,,,,,,,,,,209.63605994747923,209.63605994747923,209.63605994747923,209.63605994747923,s,1,0.5646595687794616,210.21966554981918,210.21966554981918,210.21966554981918,211.23628542968436,211.23628542968436,211.23628542968436,,,,,,,,,,,,,,,,,,,,,,,,,107,001,2023-03-01_14h54.52.230,eb_01,2022.2.4,60.01010765135201,
,,,0,0,0,0,85,0,85,0,,,,,,,,,,,,,,,,,,,,,,,,,,,,,,,,,,,,,,,,,,,,,,,,,,,,,,,,,,,,107,001,2023-03-01_14h54.52.230,eb_01,2022.2.4,60.01010765135201,
9,stimuli/9.png,l,0,0,0,0,86,0,86,0,0,0,0,0,,,,,,,,,,,,,,,,,,,211.23628542968436,211.23628542968436,211.23628542968436,211.23628542968436,l,1,0.6684698256503907,211.9529204020655,211.9529204020655,211.9529204020655,,,,,,,,,,,,,,,,,,,,,,,,,,,,107,001,2023-03-01_14h54.52.230,eb_01,2022.2.4,60.01010765135201,
,,,0,0,0,0,86,0,86,0,,,,,,,,,,,,,,,,,,,,,,,,,,,,,,,,,,,,,,,,,,,,,,,,,,,,,,,,,,,,107,001,2023-03-01_14h54.52.230,eb_01,2022.2.4,60.01010765135201,
6,stimuli/6.png,s,0,0,0,0,87,0,87,0,0,0,0,0,,,,,,,,,,,,,,,,,,,212.96952700051406,212.96952700051406,212.96952700051406,212.96952700051406,s,1,0.6543531906791031,213.66946783784806,213.66946783784806,213.66946783784806,,,,,,,,,,,,,,,,,,,,,,,,,,,,107,001,2023-03-01_14h54.52.230,eb_01,2022.2.4,60.01010765135201,
,,,0,0,0,0,87,0,87,0,,,,,,,,,,,,,,,,,,,,,,,,,,,,,,,,,,,,,,,,,,,,,,,,,,,,,,,,,,,,107,001,2023-03-01_14h54.52.230,eb_01,2022.2.4,60.01010765135201,
5,stimuli/5.png,s,0,0,0,0,88,0,88,0,0,0,0,0,,,,,,,,,,,,,,,,,,,214.68610281022848,214.68610281022848,214.68610281022848,214.68610281022848,s,1,0.6017376574600348,215.3193640013269,215.3193640013269,215.3193640013269,216.33600350146298,216.33600350146298,216.33600350146298,,,,,,,,,,,,,,,,,,,,,,,,,107,001,2023-03-01_14h54.52.230,eb_01,2022.2.4,60.01010765135201,
,,,0,0,0,0,88,0,88,0,,,,,,,,,,,,,,,,,,,,,,,,,,,,,,,,,,,,,,,,,,,,,,,,,,,,,,,,,,,,107,001,2023-03-01_14h54.52.230,eb_01,2022.2.4,60.01010765135201,
9,stimuli/9.png,l,0,0,0,0,89,0,89,0,0,0,0,0,,,,,,,,,,,,,,,,,,,216.33600350146298,216.33600350146298,216.33600350146298,216.33600350146298,l,1,0.6718722827135934,217.0525953092474,217.0525953092474,217.0525953092474,,,,,,,,,,,,,,,,,,,,,,,,,,,,107,001,2023-03-01_14h54.52.230,eb_01,2022.2.4,60.01010765135201,
,,,0,0,0,0,89,0,89,0,,,,,,,,,,,,,,,,,,,,,,,,,,,,,,,,,,,,,,,,,,,,,,,,,,,,,,,,,,,,107,001,2023-03-01_14h54.52.230,eb_01,2022.2.4,60.01010765135201,
6,stimuli/6.png,s,0,0,0,0,90,0,90,0,0,0,0,0,,,,,,,,,,,,,,,,,,,218.0692266594233,218.0692266594233,218.0692266594233,218.0692266594233,s,1,0.6747187314467737,218.78581846720408,218.78581846720408,218.78581846720408,,,,,,,,,,,,,,,,,,,,,,,,,,,,107,001,2023-03-01_14h54.52.230,eb_01,2022.2.4,60.01010765135201,
,,,0,0,0,0,90,0,90,0,,,,,,,,,,,,,,,,,,,,,,,,,,,,,,,,,,,,,,,,,,,,,,,,,,,,,,,,,,,,107,001,2023-03-01_14h54.52.230,eb_01,2022.2.4,60.01010765135201,
5,stimuli/5.png,s,0,0,0,0,91,0,91,0,0,0,0,0,,,,,,,,,,,,,,,,,,,219.78544538018105,219.78544538018105,219.78544538018105,219.78544538018105,s,1,0.5505707040356356,220.36906003803233,220.36906003803233,220.36906003803233,221.3856838419524,221.3856838419524,221.3856838419524,,,,,,,,,,,,,,,,,,,,,,,,,107,001,2023-03-01_14h54.52.230,eb_01,2022.2.4,60.01010765135201,
,,,0,0,0,0,91,0,91,0,,,,,,,,,,,,,,,,,,,,,,,,,,,,,,,,,,,,,,,,,,,,,,,,,,,,,,,,,,,,107,001,2023-03-01_14h54.52.230,eb_01,2022.2.4,60.01010765135201,
9,stimuli/9.png,l,0,0,0,0,92,0,92,0,0,0,0,0,,,,,,,,,,,,,,,,,,,221.3856838419524,221.3856838419524,221.3856838419524,221.3856838419524,l,1,0.5583602539772983,221.98565607171986,221.98565607171986,221.98565607171986,,,,,,,,,,,,,,,,,,,,,,,,,,,,107,001,2023-03-01_14h54.52.230,eb_01,2022.2.4,60.01010765135201,
,,,0,0,0,0,92,0,92,0,,,,,,,,,,,,,,,,,,,,,,,,,,,,,,,,,,,,,,,,,,,,,,,,,,,,,,,,,,,,107,001,2023-03-01_14h54.52.230,eb_01,2022.2.4,60.01010765135201,
6,stimuli/6.png,s,0,0,0,0,93,0,93,0,0,0,0,0,,,,,,,,,,,,,,,,,,,223.00223188143354,223.00223188143354,223.00223188143354,223.00223188143354,s,1,0.46982724664121633,223.51889884995035,223.51889884995035,223.51889884995035,,,,,,,,,,,,,,,,,,,,,,,,,,,,107,001,2023-03-01_14h54.52.230,eb_01,2022.2.4,60.01010765135201,
,,,0,0,0,0,93,0,93,0,,,,,,,,,,,,,,,,,,,,,,,,,,,,,,,,,,,,,,,,,,,,,,,,,,,,,,,,,,,,107,001,2023-03-01_14h54.52.230,eb_01,2022.2.4,60.01010765135201,
5,stimuli/5.png,s,0,0,0,0,94,0,94,0,0,0,0,0,,,,,,,,,,,,,,,,,,,224.51853874249355,224.51853874249355,224.51853874249355,224.51853874249355,s,1,0.5375386173436709,225.08546288750222,225.08546288750222,225.08546288750222,226.1020374898144,226.1020374898144,226.1020374898144,,,,,,,,,,,,,,,,,,,,,,,,,107,001,2023-03-01_14h54.52.230,eb_01,2022.2.4,60.01010765135201,
,,,0,0,0,0,94,0,94,0,,,,,,,,,,,,,,,,,,,,,,,,,,,,,,,,,,,,,,,,,,,,,,,,,,,,,,,,,,,,107,001,2023-03-01_14h54.52.230,eb_01,2022.2.4,60.01010765135201,
6,stimuli/6.png,s,0,0,0,0,95,0,95,0,0,0,0,0,,,,,,,,,,,,,,,,,,,226.1020374898144,226.1020374898144,226.1020374898144,226.1020374898144,s,1,0.618053875878104,226.76868725286113,226.76868725286113,226.76868725286113,,,,,,,,,,,,,,,,,,,,,,,,,,,,107,001,2023-03-01_14h54.52.230,eb_01,2022.2.4,60.01010765135201,
,,,0,0,0,0,95,0,95,0,,,,,,,,,,,,,,,,,,,,,,,,,,,,,,,,,,,,,,,,,,,,,,,,,,,,,,,,,,,,107,001,2023-03-01_14h54.52.230,eb_01,2022.2.4,60.01010765135201,
5,stimuli/5.png,s,0,0,0,0,96,0,96,0,0,0,0,0,,,,,,,,,,,,,,,,,,,227.76831205288545,227.76831205288545,227.76831205288545,227.76831205288545,s,1,0.5518457198850228,228.35193757735033,228.35193757735033,228.35193757735033,229.3685121796625,229.3685121796625,229.3685121796625,,,,,,,,,,,,,,,,,,,,,,,,,107,001,2023-03-01_14h54.52.230,eb_01,2022.2.4,60.01010765135201,
,,,0,0,0,0,96,0,96,0,,,,,,,,,,,,,,,,,,,,,,,,,,,,,,,,,,,,,,,,,,,,,,,,,,,,,,,,,,,,107,001,2023-03-01_14h54.52.230,eb_01,2022.2.4,60.01010765135201,
9,stimuli/9.png,l,0,0,0,0,97,0,97,0,0,0,0,0,,,,,,,,,,,,,,,,,,,229.3685121796625,229.3685121796625,229.3685121796625,229.3685121796625,l,1,0.5676786759031529,229.98516888526865,229.98516888526865,229.98516888526865,,,,,,,,,,,,,,,,,,,,,,,,,,,,107,001,2023-03-01_14h54.52.230,eb_01,2022.2.4,60.01010765135201,
,,,0,0,0,0,97,0,97,0,,,,,,,,,,,,,,,,,,,,,,,,,,,,,,,,,,,,,,,,,,,,,,,,,,,,,,,,,,,,107,001,2023-03-01_14h54.52.230,eb_01,2022.2.4,60.01010765135201,
8,stimuli/8.png,l,0,0,0,0,98,0,98,0,0,0,0,0,,,,,,,,,,,,,,,,,,,230.984768933562,230.984768933562,230.984768933562,230.984768933562,l,1,0.526425695130456,231.53508889492514,231.53508889492514,231.53508889492514,232.55167074164638,232.55167074164638,232.55167074164638,,,,,,,,,,,,,,,,,,,,,,,,,107,001,2023-03-01_14h54.52.230,eb_01,2022.2.4,60.01010765135201,
,,,0,0,0,0,98,0,98,0,,,,,,,,,,,,,,,,,,,,,,,,,,,,,,,,,,,,,,,,,,,,,,,,,,,,,,,,,,,,107,001,2023-03-01_14h54.52.230,eb_01,2022.2.4,60.01010765135201,
9,stimuli/9.png,l,0,0,0,0,99,0,99,0,0,0,0,0,,,,,,,,,,,,,,,,,,,232.55167074164638,232.55167074164638,232.55167074164638,232.55167074164638,l,1,0.3835873963580525,232.98497177699392,232.98497177699392,232.98497177699392,,,,,,,,,,,,,,,,,,,,,,,,,,,,107,001,2023-03-01_14h54.52.230,eb_01,2022.2.4,60.01010765135201,
,,,0,0,0,0,99,0,99,0,,,,,,,,,,,,,,,,,,,,,,,,,,,,,,,,,,,,,,,,,,,,,,,,,,,,,,,,,,,,107,001,2023-03-01_14h54.52.230,eb_01,2022.2.4,60.01010765135201,
,,,0,0,0,0,,,,,,,,,,,,,,,,,,,,,,,,,,,,,,,,,,,,,,,,233.98489148480076,233.98489148480076,return,5.678511179146881,,,,,,,,,,,,,,,,,,,,,107,001,2023-03-01_14h54.52.230,eb_01,2022.2.4,60.01010765135201,
8,stimuli/8.png,l,1,0,1,0,0,0,0,0,0,0,0,0,,,,,,,,,,,,,,,,,,,239.70122007908503,239.70122007908503,239.70122007908503,239.70122007908503,l,1,4.410290586914925,244.13431313954425,244.13431313954425,244.13431313954425,245.13422681034717,245.13422681034717,245.13422681034717,,,,,,,,,,,,,,,,,,,,,,,,,107,001,2023-03-01_14h54.52.230,eb_01,2022.2.4,60.01010765135201,
,,,1,0,1,0,0,0,0,0,,,,,,,,,,,,,,,,,,,,,,,,,,,,,,,,,,,,,,,,,,,,,,,,,,,,,,,,,,,,107,001,2023-03-01_14h54.52.230,eb_01,2022.2.4,60.01010765135201,
3,stimuli/3.png,l,1,0,1,0,1,0,1,0,0,0,0,0,,,,,,,,,,,,,,,,,,,245.13422681034717,245.13422681034717,245.13422681034717,245.13422681034717,l,1,0.9603249978572421,246.1174970569591,246.1174970569591,246.1174970569591,247.11746989042877,247.11746989042877,247.11746989042877,,,,,,,,,,,,,,,,,,,,,,,,,107,001,2023-03-01_14h54.52.230,eb_01,2022.2.4,60.01010765135201,
,,,1,0,1,0,1,0,1,0,,,,,,,,,,,,,,,,,,,,,,,,,,,,,,,,,,,,,,,,,,,,,,,,,,,,,,,,,,,,107,001,2023-03-01_14h54.52.230,eb_01,2022.2.4,60.01010765135201,
2,stimuli/2.png,s,1,0,1,0,2,0,2,0,0,0,0,0,,,,,,,,,,,,,,,,,,,247.11746989042877,247.11746989042877,247.11746989042877,247.11746989042877,s,1,0.6651174757462286,247.80073289263237,247.80073289263237,247.80073289263237,248.80067493736715,248.80067493736715,248.80067493736715,,,,,,,,,,,,,,,,,,,,,,,,,107,001,2023-03-01_14h54.52.230,eb_01,2022.2.4,60.01010765135201,
,,,1,0,1,0,2,0,2,0,,,,,,,,,,,,,,,,,,,,,,,,,,,,,,,,,,,,,,,,,,,,,,,,,,,,,,,,,,,,107,001,2023-03-01_14h54.52.230,eb_01,2022.2.4,60.01010765135201,
3,stimuli/3.png,l,1,0,1,0,3,0,3,0,0,0,0,0,,,,,,,,,,,,,,,,,,,248.80067493736715,248.80067493736715,248.80067493736715,248.80067493736715,l,1,0.4699585515409126,249.300658033746,249.300658033746,249.300658033746,250.31727821546156,250.31727821546156,250.31727821546156,,,,,,,,,,,,,,,,,,,,,,,,,107,001,2023-03-01_14h54.52.230,eb_01,2022.2.4,60.01010765135201,
,,,1,0,1,0,3,0,3,0,,,,,,,,,,,,,,,,,,,,,,,,,,,,,,,,,,,,,,,,,,,,,,,,,,,,,,,,,,,,107,001,2023-03-01_14h54.52.230,eb_01,2022.2.4,60.01010765135201,
4,stimuli/4.png,l,1,0,1,0,4,0,4,0,0,0,0,0,,,,,,,,,,,,,,,,,,,250.31727821546156,250.31727821546156,250.31727821546156,250.31727821546156,l,1,0.7934201712705544,251.13386881584302,251.13386881584302,251.13386881584302,252.13384768631659,252.13384768631659,252.13384768631659,,,,,,,,,,,,,,,,,,,,,,,,,107,001,2023-03-01_14h54.52.230,eb_01,2022.2.4,60.01010765135201,
,,,1,0,1,0,4,0,4,0,,,,,,,,,,,,,,,,,,,,,,,,,,,,,,,,,,,,,,,,,,,,,,,,,,,,,,,,,,,,107,001,2023-03-01_14h54.52.230,eb_01,2022.2.4,60.01010765135201,
2,stimuli/2.png,s,1,0,1,0,5,0,5,0,0,0,0,0,,,,,,,,,,,,,,,,,,,252.13384768631659,252.13384768631659,252.13384768631659,252.13384768631659,s,1,0.9448841454322974,253.10043617374686,253.10043617374686,253.10043617374686,254.1170189260156,254.1170189260156,254.1170189260156,,,,,,,,,,,,,,,,,,,,,,,,,107,001,2023-03-01_14h54.52.230,eb_01,2022.2.4,60.01010765135201,
,,,1,0,1,0,5,0,5,0,,,,,,,,,,,,,,,,,,,,,,,,,,,,,,,,,,,,,,,,,,,,,,,,,,,,,,,,,,,,107,001,2023-03-01_14h54.52.230,eb_01,2022.2.4,60.01010765135201,
4,stimuli/4.png,l,1,0,1,0,6,0,6,0,0,0,0,0,,,,,,,,,,,,,,,,,,,254.1170189260156,254.1170189260156,254.1170189260156,254.1170189260156,l,1,0.6337491881422466,254.78366053910577,254.78366053910577,254.78366053910577,255.80027347641226,255.80027347641226,255.80027347641226,,,,,,,,,,,,,,,,,,,,,,,,,107,001,2023-03-01_14h54.52.230,eb_01,2022.2.4,60.01010765135201,
,,,1,0,1,0,6,0,6,0,,,,,,,,,,,,,,,,,,,,,,,,,,,,,,,,,,,,,,,,,,,,,,,,,,,,,,,,,,,,107,001,2023-03-01_14h54.52.230,eb_01,2022.2.4,60.01010765135201,
1,stimuli/1.png,s,1,0,1,0,7,0,7,0,0,0,0,0,,,,,,,,,,,,,,,,,,,255.80027347641226,255.80027347641226,255.80027347641226,255.80027347641226,s,1,0.5025094887860178,256.35025174318434,256.35025174318434,256.35025174318434,,,,,,,,,,,,,,,,,,,,,,,,,,,,107,001,2023-03-01_14h54.52.230,eb_01,2022.2.4,60.01010765135201,
,,,1,0,1,0,7,0,7,0,,,,,,,,,,,,,,,,,,,,,,,,,,,,,,,,,,,,,,,,,,,,,,,,,,,,,,,,,,,,107,001,2023-03-01_14h54.52.230,eb_01,2022.2.4,60.01010765135201,
4,stimuli/4.png,l,1,0,1,0,8,0,8,0,0,0,0,0,,,,,,,,,,,,,,,,,,,257.36688762111953,257.36688762111953,257.36688762111953,257.36688762111953,l,1,0.3679415875521954,257.7668154788844,257.7668154788844,257.7668154788844,258.7834296235924,258.7834296235924,258.7834296235924,,,,,,,,,,,,,,,,,,,,,,,,,107,001,2023-03-01_14h54.52.230,eb_01,2022.2.4,60.01010765135201,
,,,1,0,1,0,8,0,8,0,,,,,,,,,,,,,,,,,,,,,,,,,,,,,,,,,,,,,,,,,,,,,,,,,,,,,,,,,,,,107,001,2023-03-01_14h54.52.230,eb_01,2022.2.4,60.01010765135201,
1,stimuli/1.png,s,1,0,1,0,9,0,9,0,0,0,0,0,,,,,,,,,,,,,,,,,,,258.7834296235924,258.7834296235924,258.7834296235924,258.7834296235924,s,1,0.5194647243806685,259.35005886081854,259.35005886081854,259.35005886081854,,,,,,,,,,,,,,,,,,,,,,,,,,,,107,001,2023-03-01_14h54.52.230,eb_01,2022.2.4,60.01010765135201,
,,,1,0,1,0,9,0,9,0,,,,,,,,,,,,,,,,,,,,,,,,,,,,,,,,,,,,,,,,,,,,,,,,,,,,,,,,,,,,107,001,2023-03-01_14h54.52.230,eb_01,2022.2.4,60.01010765135201,
4,stimuli/4.png,l,1,0,1,0,10,0,10,0,0,0,0,0,,,,,,,,,,,,,,,,,,,260.3666684777709,260.3666684777709,260.3666684777709,260.3666684777709,l,1,0.3992670124061988,260.78332820187643,260.78332820187643,260.78332820187643,261.78291496876045,261.78291496876045,261.78291496876045,,,,,,,,,,,,,,,,,,,,,,,,,107,001,2023-03-01_14h54.52.230,eb_01,2022.2.4,60.01010765135201,
,,,1,0,1,0,10,0,10,0,,,,,,,,,,,,,,,,,,,,,,,,,,,,,,,,,,,,,,,,,,,,,,,,,,,,,,,,,,,,107,001,2023-03-01_14h54.52.230,eb_01,2022.2.4,60.01010765135201,
3,stimuli/3.png,l,1,0,1,0,11,0,11,0,0,0,0,0,,,,,,,,,,,,,,,,,,,261.78291496876045,261.78291496876045,261.78291496876045,261.78291496876045,l,1,0.5270309050683863,262.33318723776756,262.33318723776756,262.33318723776756,263.3498050046801,263.3498050046801,263.3498050046801,,,,,,,,,,,,,,,,,,,,,,,,,107,001,2023-03-01_14h54.52.230,eb_01,2022.2.4,60.01010765135201,
,,,1,0,1,0,11,0,11,0,,,,,,,,,,,,,,,,,,,,,,,,,,,,,,,,,,,,,,,,,,,,,,,,,,,,,,,,,,,,107,001,2023-03-01_14h54.52.230,eb_01,2022.2.4,60.01010765135201,
8,stimuli/8.png,l,1,0,1,0,12,0,12,0,0,0,0,0,,,,,,,,,,,,,,,,,,,263.3498050046801,263.3498050046801,263.3498050046801,263.3498050046801,l,1,0.5121708127044258,263.8831256602971,263.8831256602971,263.8831256602971,264.8830366144466,264.8830366144466,264.8830366144466,,,,,,,,,,,,,,,,,,,,,,,,,107,001,2023-03-01_14h54.52.230,eb_01,2022.2.4,60.01010765135201,
,,,1,0,1,0,12,0,12,0,,,,,,,,,,,,,,,,,,,,,,,,,,,,,,,,,,,,,,,,,,,,,,,,,,,,,,,,,,,,107,001,2023-03-01_14h54.52.230,eb_01,2022.2.4,60.01010765135201,
3,stimuli/3.png,l,1,0,1,0,13,0,13,0,0,0,0,0,,,,,,,,,,,,,,,,,,,264.8830366144466,264.8830366144466,264.8830366144466,264.8830366144466,l,1,0.42694970732554793,265.3330341996443,265.3330341996443,265.3330341996443,266.332946059345,266.332946059345,266.332946059345,,,,,,,,,,,,,,,,,,,,,,,,,107,001,2023-03-01_14h54.52.230,eb_01,2022.2.4,60.01010765135201,
,,,1,0,1,0,13,0,13,0,,,,,,,,,,,,,,,,,,,,,,,,,,,,,,,,,,,,,,,,,,,,,,,,,,,,,,,,,,,,107,001,2023-03-01_14h54.52.230,eb_01,2022.2.4,60.01010765135201,
2,stimuli/2.png,s,1,0,1,0,14,0,14,0,0,0,0,0,,,,,,,,,,,,,,,,,,,266.332946059345,266.332946059345,266.332946059345,266.332946059345,l,0,0.44909767436547554,266.7995891816827,266.7995891816827,266.7995891816827,267.81620785414634,267.81620785414634,267.81620785414634,,,,,,,,,,,,,,,,,,,,,,,,,107,001,2023-03-01_14h54.52.230,eb_01,2022.2.4,60.01010765135201,
,,,1,0,1,0,14,0,14,0,,,,,,,,,,,,,,,,,,,,,,,,,,,,,,,,,,,,,,,,,,,,,,,,,,,,,,,,,,,,107,001,2023-03-01_14h54.52.230,eb_01,2022.2.4,60.01010765135201,
4,stimuli/4.png,l,1,0,1,0,15,0,15,0,0,0,0,0,,,,,,,,,,,,,,,,,,,267.81620785414634,267.81620785414634,267.81620785414634,267.81620785414634,l,1,0.5978667286690325,268.4325343354758,268.4325343354758,268.4325343354758,269.43248724682417,269.43248724682417,269.43248724682417,,,,,,,,,,,,,,,,,,,,,,,,,107,001,2023-03-01_14h54.52.230,eb_01,2022.2.4,60.01010765135201,
,,,1,0,1,0,15,0,15,0,,,,,,,,,,,,,,,,,,,,,,,,,,,,,,,,,,,,,,,,,,,,,,,,,,,,,,,,,,,,107,001,2023-03-01_14h54.52.230,eb_01,2022.2.4,60.01010765135201,
3,stimuli/3.png,l,1,0,1,0,16,0,16,0,0,0,0,0,,,,,,,,,,,,,,,,,,,269.43248724682417,269.43248724682417,269.43248724682417,269.43248724682417,l,1,0.5416160117747495,269.99942225844643,269.99942225844643,269.99942225844643,270.9993676235317,270.9993676235317,270.9993676235317,,,,,,,,,,,,,,,,,,,,,,,,,107,001,2023-03-01_14h54.52.230,eb_01,2022.2.4,60.01010765135201,
,,,1,0,1,0,16,0,16,0,,,,,,,,,,,,,,,,,,,,,,,,,,,,,,,,,,,,,,,,,,,,,,,,,,,,,,,,,,,,107,001,2023-03-01_14h54.52.230,eb_01,2022.2.4,60.01010765135201,
2,stimuli/2.png,s,1,0,1,0,17,0,17,0,0,0,0,0,,,,,,,,,,,,,,,,,,,270.9993676235317,270.9993676235317,270.9993676235317,270.9993676235317,s,1,0.6868021025074995,271.7159862959961,271.7159862959961,271.7159862959961,272.71591294636164,272.71591294636164,272.71591294636164,,,,,,,,,,,,,,,,,,,,,,,,,107,001,2023-03-01_14h54.52.230,eb_01,2022.2.4,60.01010765135201,
,,,1,0,1,0,17,0,17,0,,,,,,,,,,,,,,,,,,,,,,,,,,,,,,,,,,,,,,,,,,,,,,,,,,,,,,,,,,,,107,001,2023-03-01_14h54.52.230,eb_01,2022.2.4,60.01010765135201,
3,stimuli/3.png,l,1,0,1,0,18,0,18,0,0,0,0,0,,,,,,,,,,,,,,,,,,,272.71591294636164,272.71591294636164,272.71591294636164,272.71591294636164,l,1,0.49830531721454463,273.2325569742534,273.2325569742534,273.2325569742534,274.2325086781966,274.2325086781966,274.2325086781966,,,,,,,,,,,,,,,,,,,,,,,,,107,001,2023-03-01_14h54.52.230,eb_01,2022.2.4,60.01010765135201,
,,,1,0,1,0,18,0,18,0,,,,,,,,,,,,,,,,,,,,,,,,,,,,,,,,,,,,,,,,,,,,,,,,,,,,,,,,,,,,107,001,2023-03-01_14h54.52.230,eb_01,2022.2.4,60.01010765135201,
2,stimuli/2.png,s,1,0,1,0,19,0,19,0,0,0,0,0,,,,,,,,,,,,,,,,,,,274.2325086781966,274.2325086781966,274.2325086781966,274.2325086781966,s,1,0.5657229875323537,274.8157722841024,274.8157722841024,274.8157722841024,275.83237284554343,275.83237284554343,275.83237284554343,,,,,,,,,,,,,,,,,,,,,,,,,107,001,2023-03-01_14h54.52.230,eb_01,2022.2.4,60.01010765135201,
,,,1,0,1,0,19,0,19,0,,,,,,,,,,,,,,,,,,,,,,,,,,,,,,,,,,,,,,,,,,,,,,,,,,,,,,,,,,,,107,001,2023-03-01_14h54.52.230,eb_01,2022.2.4,60.01010765135201,
1,stimuli/1.png,s,1,0,1,0,20,0,20,0,0,0,0,0,,,,,,,,,,,,,,,,,,,275.83237284554343,275.83237284554343,275.83237284554343,275.83237284554343,s,1,0.6049182545175427,276.48233632165284,276.48233632165284,276.48233632165284,,,,,,,,,,,,,,,,,,,,,,,,,,,,107,001,2023-03-01_14h54.52.230,eb_01,2022.2.4,60.01010765135201,
,,,1,0,1,0,20,0,20,0,,,,,,,,,,,,,,,,,,,,,,,,,,,,,,,,,,,,,,,,,,,,,,,,,,,,,,,,,,,,107,001,2023-03-01_14h54.52.230,eb_01,2022.2.4,60.01010765135201,
2,stimuli/2.png,s,1,0,1,0,21,0,21,0,0,0,0,0,,,,,,,,,,,,,,,,,,,277.4823037218157,277.4823037218157,277.4823037218157,277.4823037218157,s,1,0.6030015048454516,278.11556672402,278.11556672402,278.11556672402,279.1321766428191,279.1321766428191,279.1321766428191,,,,,,,,,,,,,,,,,,,,,,,,,107,001,2023-03-01_14h54.52.230,eb_01,2022.2.4,60.01010765135201,
,,,1,0,1,0,21,0,21,0,,,,,,,,,,,,,,,,,,,,,,,,,,,,,,,,,,,,,,,,,,,,,,,,,,,,,,,,,,,,107,001,2023-03-01_14h54.52.230,eb_01,2022.2.4,60.01010765135201,
1,stimuli/1.png,s,1,0,1,0,22,0,22,0,0,0,0,0,,,,,,,,,,,,,,,,,,,279.1321766428191,279.1321766428191,279.1321766428191,279.1321766428191,s,1,0.8011704806667694,279.9821211023591,279.9821211023591,279.9821211023591,,,,,,,,,,,,,,,,,,,,,,,,,,,,107,001,2023-03-01_14h54.52.230,eb_01,2022.2.4,60.01010765135201,
,,,1,0,1,0,22,0,22,0,,,,,,,,,,,,,,,,,,,,,,,,,,,,,,,,,,,,,,,,,,,,,,,,,,,,,,,,,,,,107,001,2023-03-01_14h54.52.230,eb_01,2022.2.4,60.01010765135201,
2,stimuli/2.png,s,1,0,1,0,23,0,23,0,0,0,0,0,,,,,,,,,,,,,,,,,,,280.9820673729955,280.9820673729955,280.9820673729955,280.9820673729955,s,1,0.5193391546381463,281.5320610341405,281.5320610341405,281.5320610341405,282.5486392586572,282.5486392586572,282.5486392586572,,,,,,,,,,,,,,,,,,,,,,,,,107,001,2023-03-01_14h54.52.230,eb_01,2022.2.4,60.01010765135201,
,,,1,0,1,0,23,0,23,0,,,,,,,,,,,,,,,,,,,,,,,,,,,,,,,,,,,,,,,,,,,,,,,,,,,,,,,,,,,,107,001,2023-03-01_14h54.52.230,eb_01,2022.2.4,60.01010765135201,
4,stimuli/4.png,l,1,0,1,0,24,0,24,0,0,0,0,0,,,,,,,,,,,,,,,,,,,282.5486392586572,282.5486392586572,282.5486392586572,282.5486392586572,l,1,0.6327838707475166,283.19858613299584,283.19858613299584,283.19858613299584,284.21518820368874,284.21518820368874,284.21518820368874,,,,,,,,,,,,,,,,,,,,,,,,,107,001,2023-03-01_14h54.52.230,eb_01,2022.2.4,60.01010765135201,
,,,1,0,1,0,24,0,24,0,,,,,,,,,,,,,,,,,,,,,,,,,,,,,,,,,,,,,,,,,,,,,,,,,,,,,,,,,,,,107,001,2023-03-01_14h54.52.230,eb_01,2022.2.4,60.01010765135201,
1,stimuli/1.png,s,1,0,1,0,25,0,25,0,0,0,0,0,,,,,,,,,,,,,,,,,,,284.21518820368874,284.21518820368874,284.21518820368874,284.21518820368874,s,1,0.5583080338656146,284.8151752241247,284.8151752241247,284.8151752241247,,,,,,,,,,,,,,,,,,,,,,,,,,,,107,001,2023-03-01_14h54.52.230,eb_01,2022.2.4,60.01010765135201,
,,,1,0,1,0,25,0,25,0,,,,,,,,,,,,,,,,,,,,,,,,,,,,,,,,,,,,,,,,,,,,,,,,,,,,,,,,,,,,107,001,2023-03-01_14h54.52.230,eb_01,2022.2.4,60.01010765135201,
2,stimuli/2.png,s,1,0,1,0,26,0,26,0,0,0,0,0,,,,,,,,,,,,,,,,,,,285.8151368891304,285.8151368891304,285.8151368891304,285.8151368891304,s,1,0.6943356833580765,286.5317338283676,286.5317338283676,286.5317338283676,287.5482960548179,287.5482960548179,287.5482960548179,,,,,,,,,,,,,,,,,,,,,,,,,107,001,2023-03-01_14h54.52.230,eb_01,2022.2.4,60.01010765135201,
,,,1,0,1,0,26,0,26,0,,,,,,,,,,,,,,,,,,,,,,,,,,,,,,,,,,,,,,,,,,,,,,,,,,,,,,,,,,,,107,001,2023-03-01_14h54.52.230,eb_01,2022.2.4,60.01010765135201,
4,stimuli/4.png,l,1,0,1,0,27,0,27,0,0,0,0,0,,,,,,,,,,,,,,,,,,,287.5482960548179,287.5482960548179,287.5482960548179,287.5482960548179,l,1,0.56925584394412,288.14834163421983,288.14834163421983,288.14834163421983,289.14824323100765,289.14824323100765,289.14824323100765,,,,,,,,,,,,,,,,,,,,,,,,,107,001,2023-03-01_14h54.52.230,eb_01,2022.2.4,60.01010765135201,
,,,1,0,1,0,27,0,27,0,,,,,,,,,,,,,,,,,,,,,,,,,,,,,,,,,,,,,,,,,,,,,,,,,,,,,,,,,,,,107,001,2023-03-01_14h54.52.230,eb_01,2022.2.4,60.01010765135201,
2,stimuli/2.png,s,1,0,1,0,28,0,28,0,0,0,0,0,,,,,,,,,,,,,,,,,,,289.14824323100765,289.14824323100765,289.14824323100765,289.14824323100765,s,1,0.49733728316641646,289.66490748287106,289.66490748287106,289.66490748287106,290.66484409429904,290.66484409429904,290.66484409429904,,,,,,,,,,,,,,,,,,,,,,,,,107,001,2023-03-01_14h54.52.230,eb_01,2022.2.4,60.01010765135201,
,,,1,0,1,0,28,0,28,0,,,,,,,,,,,,,,,,,,,,,,,,,,,,,,,,,,,,,,,,,,,,,,,,,,,,,,,,,,,,107,001,2023-03-01_14h54.52.230,eb_01,2022.2.4,60.01010765135201,
3,stimuli/3.png,l,1,0,1,0,29,0,29,0,0,0,0,0,,,,,,,,,,,,,,,,,,,290.66484409429904,290.66484409429904,290.66484409429904,290.66484409429904,l,1,0.5087686574916006,291.19816173141226,291.19816173141226,291.19816173141226,292.2147598780539,292.2147598780539,292.2147598780539,,,,,,,,,,,,,,,,,,,,,,,,,107,001,2023-03-01_14h54.52.230,eb_01,2022.2.4,60.01010765135201,
,,,1,0,1,0,29,0,29,0,,,,,,,,,,,,,,,,,,,,,,,,,,,,,,,,,,,,,,,,,,,,,,,,,,,,,,,,,,,,107,001,2023-03-01_14h54.52.230,eb_01,2022.2.4,60.01010765135201,
4,stimuli/4.png,l,1,0,1,0,30,0,30,0,0,0,0,0,,,,,,,,,,,,,,,,,,,292.2147598780539,292.2147598780539,292.2147598780539,292.2147598780539,l,1,0.6298782593512442,292.86468924507426,292.86468924507426,292.86468924507426,293.86433155241684,293.86433155241684,293.86433155241684,,,,,,,,,,,,,,,,,,,,,,,,,107,001,2023-03-01_14h54.52.230,eb_01,2022.2.4,60.01010765135201,
,,,1,0,1,0,30,0,30,0,,,,,,,,,,,,,,,,,,,,,,,,,,,,,,,,,,,,,,,,,,,,,,,,,,,,,,,,,,,,107,001,2023-03-01_14h54.52.230,eb_01,2022.2.4,60.01010765135201,
3,stimuli/3.png,l,1,0,1,0,31,0,31,0,0,0,0,0,,,,,,,,,,,,,,,,,,,293.86433155241684,293.86433155241684,293.86433155241684,293.86433155241684,l,1,0.884345644422865,294.7812366808539,294.7812366808539,294.7812366808539,295.78123336049975,295.78123336049975,295.78123336049975,,,,,,,,,,,,,,,,,,,,,,,,,107,001,2023-03-01_14h54.52.230,eb_01,2022.2.4,60.01010765135201,
,,,1,0,1,0,31,0,31,0,,,,,,,,,,,,,,,,,,,,,,,,,,,,,,,,,,,,,,,,,,,,,,,,,,,,,,,,,,,,107,001,2023-03-01_14h54.52.230,eb_01,2022.2.4,60.01010765135201,
2,stimuli/2.png,s,1,0,1,0,32,0,32,0,0,0,0,0,,,,,,,,,,,,,,,,,,,295.78123336049975,295.78123336049975,295.78123336049975,295.78123336049975,s,1,0.6395051723266079,296.44782667753316,296.44782667753316,296.44782667753316,297.4644444444457,297.4644444444457,297.4644444444457,,,,,,,,,,,,,,,,,,,,,,,,,107,001,2023-03-01_14h54.52.230,eb_01,2022.2.4,60.01010765135201,
,,,1,0,1,0,32,0,32,0,,,,,,,,,,,,,,,,,,,,,,,,,,,,,,,,,,,,,,,,,,,,,,,,,,,,,,,,,,,,107,001,2023-03-01_14h54.52.230,eb_01,2022.2.4,60.01010765135201,
4,stimuli/4.png,l,1,0,1,0,33,0,33,0,0,0,0,0,,,,,,,,,,,,,,,,,,,297.4644444444457,297.4644444444457,297.4644444444457,297.4644444444457,l,1,0.4842849725027918,297.9810631169057,297.9810631169057,297.9810631169057,298.98102719671806,298.98102719671806,298.98102719671806,,,,,,,,,,,,,,,,,,,,,,,,,107,001,2023-03-01_14h54.52.230,eb_01,2022.2.4,60.01010765135201,
,,,1,0,1,0,33,0,33,0,,,,,,,,,,,,,,,,,,,,,,,,,,,,,,,,,,,,,,,,,,,,,,,,,,,,,,,,,,,,107,001,2023-03-01_14h54.52.230,eb_01,2022.2.4,60.01010765135201,
3,stimuli/3.png,l,1,0,1,0,34,0,34,0,0,0,0,0,,,,,,,,,,,,,,,,,,,298.98102719671806,298.98102719671806,298.98102719671806,298.98102719671806,l,1,0.5037718269195466,299.51430921549036,299.51430921549036,299.51430921549036,300.5142533731778,300.5142533731778,300.5142533731778,,,,,,,,,,,,,,,,,,,,,,,,,107,001,2023-03-01_14h54.52.230,eb_01,2022.2.4,60.01010765135201,
,,,1,0,1,0,34,0,34,0,,,,,,,,,,,,,,,,,,,,,,,,,,,,,,,,,,,,,,,,,,,,,,,,,,,,,,,,,,,,107,001,2023-03-01_14h54.52.230,eb_01,2022.2.4,60.01010765135201,
2,stimuli/2.png,s,1,0,1,0,35,0,35,0,0,0,0,0,,,,,,,,,,,,,,,,,,,300.5142533731778,300.5142533731778,300.5142533731778,300.5142533731778,s,1,0.5785712473661988,301.1141927012577,301.1141927012577,301.1141927012577,302.1308002052574,302.1308002052574,302.1308002052574,,,,,,,,,,,,,,,,,,,,,,,,,107,001,2023-03-01_14h54.52.230,eb_01,2022.2.4,60.01010765135201,
,,,1,0,1,0,35,0,35,0,,,,,,,,,,,,,,,,,,,,,,,,,,,,,,,,,,,,,,,,,,,,,,,,,,,,,,,,,,,,107,001,2023-03-01_14h54.52.230,eb_01,2022.2.4,60.01010765135201,
4,stimuli/4.png,l,1,0,1,0,36,0,36,0,0,0,0,0,,,,,,,,,,,,,,,,,,,302.1308002052574,302.1308002052574,302.1308002052574,302.1308002052574,l,1,0.3540395681739028,302.514065018564,302.514065018564,302.514065018564,303.5140653204144,303.5140653204144,303.5140653204144,,,,,,,,,,,,,,,,,,,,,,,,,107,001,2023-03-01_14h54.52.230,eb_01,2022.2.4,60.01010765135201,
,,,1,0,1,0,36,0,36,0,,,,,,,,,,,,,,,,,,,,,,,,,,,,,,,,,,,,,,,,,,,,,,,,,,,,,,,,,,,,107,001,2023-03-01_14h54.52.230,eb_01,2022.2.4,60.01010765135201,
3,stimuli/3.png,l,1,0,1,0,37,0,37,0,0,0,0,0,,,,,,,,,,,,,,,,,,,303.5140653204144,303.5140653204144,303.5140653204144,303.5140653204144,l,1,0.4988407997188915,304.03068640768106,304.03068640768106,304.03068640768106,305.0306184913534,305.0306184913534,305.0306184913534,,,,,,,,,,,,,,,,,,,,,,,,,107,001,2023-03-01_14h54.52.230,eb_01,2022.2.4,60.01010765135201,
,,,1,0,1,0,37,0,37,0,,,,,,,,,,,,,,,,,,,,,,,,,,,,,,,,,,,,,,,,,,,,,,,,,,,,,,,,,,,,107,001,2023-03-01_14h54.52.230,eb_01,2022.2.4,60.01010765135201,
2,stimuli/2.png,s,1,0,1,0,38,0,38,0,0,0,0,0,,,,,,,,,,,,,,,,,,,305.0306184913534,305.0306184913534,305.0306184913534,305.0306184913534,s,1,0.6543097242320073,305.7139186211498,305.7139186211498,305.7139186211498,306.7305445380189,306.7305445380189,306.7305445380189,,,,,,,,,,,,,,,,,,,,,,,,,107,001,2023-03-01_14h54.52.230,eb_01,2022.2.4,60.01010765135201,
,,,1,0,1,0,38,0,38,0,,,,,,,,,,,,,,,,,,,,,,,,,,,,,,,,,,,,,,,,,,,,,,,,,,,,,,,,,,,,107,001,2023-03-01_14h54.52.230,eb_01,2022.2.4,60.01010765135201,
4,stimuli/4.png,l,1,0,1,0,39,0,39,0,0,0,0,0,,,,,,,,,,,,,,,,,,,306.7305445380189,306.7305445380189,306.7305445380189,306.7305445380189,l,1,0.39442110700838384,307.14716049382696,307.14716049382696,307.14716049382696,308.1470974071053,308.1470974071053,308.1470974071053,,,,,,,,,,,,,,,,,,,,,,,,,107,001,2023-03-01_14h54.52.230,eb_01,2022.2.4,60.01010765135201,
,,,1,0,1,0,39,0,39,0,,,,,,,,,,,,,,,,,,,,,,,,,,,,,,,,,,,,,,,,,,,,,,,,,,,,,,,,,,,,107,001,2023-03-01_14h54.52.230,eb_01,2022.2.4,60.01010765135201,
2,stimuli/2.png,s,1,0,1,0,40,0,40,0,0,0,0,0,,,,,,,,,,,,,,,,,,,308.1470974071053,308.1470974071053,308.1470974071053,308.1470974071053,s,1,0.5288954346324317,308.69709016269917,308.69709016269917,308.69709016269917,309.6970249630249,309.6970249630249,309.6970249630249,,,,,,,,,,,,,,,,,,,,,,,,,107,001,2023-03-01_14h54.52.230,eb_01,2022.2.4,60.01010765135201,
,,,1,0,1,0,40,0,40,0,,,,,,,,,,,,,,,,,,,,,,,,,,,,,,,,,,,,,,,,,,,,,,,,,,,,,,,,,,,,107,001,2023-03-01_14h54.52.230,eb_01,2022.2.4,60.01010765135201,
3,stimuli/3.png,l,1,0,1,0,41,0,41,0,0,0,0,0,,,,,,,,,,,,,,,,,,,309.6970249630249,309.6970249630249,309.6970249630249,309.6970249630249,l,1,0.45901104331642273,310.1803163391596,310.1803163391596,310.1803163391596,311.1802701560555,311.1802701560555,311.1802701560555,,,,,,,,,,,,,,,,,,,,,,,,,107,001,2023-03-01_14h54.52.230,eb_01,2022.2.4,60.01010765135201,
,,,1,0,1,0,41,0,41,0,,,,,,,,,,,,,,,,,,,,,,,,,,,,,,,,,,,,,,,,,,,,,,,,,,,,,,,,,,,,107,001,2023-03-01_14h54.52.230,eb_01,2022.2.4,60.01010765135201,
2,stimuli/2.png,s,1,0,1,0,42,0,42,0,0,0,0,0,,,,,,,,,,,,,,,,,,,311.1802701560555,311.1802701560555,311.1802701560555,311.1802701560555,s,1,0.5918155348481378,311.7968864137147,311.7968864137147,311.7968864137147,312.81351716019344,312.81351716019344,312.81351716019344,,,,,,,,,,,,,,,,,,,,,,,,,107,001,2023-03-01_14h54.52.230,eb_01,2022.2.4,60.01010765135201,
,,,1,0,1,0,42,0,42,0,,,,,,,,,,,,,,,,,,,,,,,,,,,,,,,,,,,,,,,,,,,,,,,,,,,,,,,,,,,,107,001,2023-03-01_14h54.52.230,eb_01,2022.2.4,60.01010765135201,
1,stimuli/1.png,s,1,0,1,0,43,0,43,0,0,0,0,0,,,,,,,,,,,,,,,,,,,312.81351716019344,312.81351716019344,312.81351716019344,312.81351716019344,l,0,0.3825879698742938,313.23015092517016,313.23015092517016,313.23015092517016,,,,,,,,,,,,,,,,,,,,,,,,,,,,107,001,2023-03-01_14h54.52.230,eb_01,2022.2.4,60.01010765135201,
,,,1,0,1,0,43,0,43,0,,,,,,,,,,,,,,,,,,,,,,,,,,,,,,,,,,,,,,,,,,,,,,,,,,,,,,,,,,,,107,001,2023-03-01_14h54.52.230,eb_01,2022.2.4,60.01010765135201,
4,stimuli/4.png,l,1,0,1,0,44,0,44,0,0,0,0,0,,,,,,,,,,,,,,,,,,,314.2467578254691,314.2467578254691,314.2467578254691,314.2467578254691,l,1,0.7574139531534456,315.02974916236417,315.02974916236417,315.02974916236417,316.0299568354021,316.0299568354021,316.0299568354021,,,,,,,,,,,,,,,,,,,,,,,,,107,001,2023-03-01_14h54.52.230,eb_01,2022.2.4,60.01010765135201,
,,,1,0,1,0,44,0,44,0,,,,,,,,,,,,,,,,,,,,,,,,,,,,,,,,,,,,,,,,,,,,,,,,,,,,,,,,,,,,107,001,2023-03-01_14h54.52.230,eb_01,2022.2.4,60.01010765135201,
2,stimuli/2.png,s,1,0,1,0,45,0,45,0,0,0,0,0,,,,,,,,,,,,,,,,,,,316.0299568354021,316.0299568354021,316.0299568354021,316.0299568354021,s,1,0.7022281642675807,316.7632765854687,316.7632765854687,316.7632765854687,317.7798786561616,317.7798786561616,317.7798786561616,,,,,,,,,,,,,,,,,,,,,,,,,107,001,2023-03-01_14h54.52.230,eb_01,2022.2.4,60.01010765135201,
,,,1,0,1,0,45,0,45,0,,,,,,,,,,,,,,,,,,,,,,,,,,,,,,,,,,,,,,,,,,,,,,,,,,,,,,,,,,,,107,001,2023-03-01_14h54.52.230,eb_01,2022.2.4,60.01010765135201,
4,stimuli/4.png,l,1,0,1,0,46,0,46,0,0,0,0,0,,,,,,,,,,,,,,,,,,,317.7798786561616,317.7798786561616,317.7798786561616,317.7798786561616,l,1,0.4723567525106773,318.2798575266388,318.2798575266388,318.2798575266388,319.27978236590207,319.27978236590207,319.27978236590207,,,,,,,,,,,,,,,,,,,,,,,,,107,001,2023-03-01_14h54.52.230,eb_01,2022.2.4,60.01010765135201,
,,,1,0,1,0,46,0,46,0,,,,,,,,,,,,,,,,,,,,,,,,,,,,,,,,,,,,,,,,,,,,,,,,,,,,,,,,,,,,107,001,2023-03-01_14h54.52.230,eb_01,2022.2.4,60.01010765135201,
3,stimuli/3.png,l,1,0,1,0,47,0,47,0,0,0,0,0,,,,,,,,,,,,,,,,,,,319.27978236590207,319.27978236590207,319.27978236590207,319.27978236590207,l,1,0.5485039347404381,319.84642277158855,319.84642277158855,319.84642277158855,320.8463735699843,320.8463735699843,320.8463735699843,,,,,,,,,,,,,,,,,,,,,,,,,107,001,2023-03-01_14h54.52.230,eb_01,2022.2.4,60.01010765135201,
,,,1,0,1,0,47,0,47,0,,,,,,,,,,,,,,,,,,,,,,,,,,,,,,,,,,,,,,,,,,,,,,,,,,,,,,,,,,,,107,001,2023-03-01_14h54.52.230,eb_01,2022.2.4,60.01010765135201,
2,stimuli/2.png,s,1,0,1,0,48,0,48,0,0,0,0,0,,,,,,,,,,,,,,,,,,,320.8463735699843,320.8463735699843,320.8463735699843,320.8463735699843,s,1,0.48591526619929937,321.362972320323,321.362972320323,321.362972320323,322.37957650396856,322.37957650396856,322.37957650396856,,,,,,,,,,,,,,,,,,,,,,,,,107,001,2023-03-01_14h54.52.230,eb_01,2022.2.4,60.01010765135201,
,,,1,0,1,0,48,0,48,0,,,,,,,,,,,,,,,,,,,,,,,,,,,,,,,,,,,,,,,,,,,,,,,,,,,,,,,,,,,,107,001,2023-03-01_14h54.52.230,eb_01,2022.2.4,60.01010765135201,
4,stimuli/4.png,l,1,0,1,0,49,0,49,0,0,0,0,0,,,,,,,,,,,,,,,,,,,322.37957650396856,322.37957650396856,322.37957650396856,322.37957650396856,l,1,0.4887915981162223,322.896243170635,322.896243170635,322.896243170635,323.8961864227713,323.8961864227713,323.8961864227713,,,,,,,,,,,,,,,,,,,,,,,,,107,001,2023-03-01_14h54.52.230,eb_01,2022.2.4,60.01010765135201,
,,,1,0,1,0,49,0,49,0,,,,,,,,,,,,,,,,,,,,,,,,,,,,,,,,,,,,,,,,,,,,,,,,,,,,,,,,,,,,107,001,2023-03-01_14h54.52.230,eb_01,2022.2.4,60.01010765135201,
2,stimuli/2.png,s,1,0,1,0,50,0,50,0,0,0,0,0,,,,,,,,,,,,,,,,,,,323.8961864227713,323.8961864227713,323.8961864227713,323.8961864227713,s,1,0.6031678243816714,324.52948474146615,324.52948474146615,324.52948474146615,325.546050288267,325.546050288267,325.546050288267,,,,,,,,,,,,,,,,,,,,,,,,,107,001,2023-03-01_14h54.52.230,eb_01,2022.2.4,60.01010765135201,
,,,1,0,1,0,50,0,50,0,,,,,,,,,,,,,,,,,,,,,,,,,,,,,,,,,,,,,,,,,,,,,,,,,,,,,,,,,,,,107,001,2023-03-01_14h54.52.230,eb_01,2022.2.4,60.01010765135201,
4,stimuli/4.png,l,1,0,1,0,51,0,51,0,0,0,0,0,,,,,,,,,,,,,,,,,,,325.546050288267,325.546050288267,325.546050288267,325.546050288267,l,1,0.289363604515529,325.8627063901731,325.8627063901731,325.8627063901731,326.8626378701447,326.8626378701447,326.8626378701447,,,,,,,,,,,,,,,,,,,,,,,,,107,001,2023-03-01_14h54.52.230,eb_01,2022.2.4,60.01010765135201,
,,,1,0,1,0,51,0,51,0,,,,,,,,,,,,,,,,,,,,,,,,,,,,,,,,,,,,,,,,,,,,,,,,,,,,,,,,,,,,107,001,2023-03-01_14h54.52.230,eb_01,2022.2.4,60.01010765135201,
3,stimuli/3.png,l,1,0,1,0,52,0,52,0,0,0,0,0,,,,,,,,,,,,,,,,,,,326.8626378701447,326.8626378701447,326.8626378701447,326.8626378701447,l,1,0.588783750008588,327.47926982401987,327.47926982401987,327.47926982401987,328.47920915210125,328.47920915210125,328.47920915210125,,,,,,,,,,,,,,,,,,,,,,,,,107,001,2023-03-01_14h54.52.230,eb_01,2022.2.4,60.01010765135201,
,,,1,0,1,0,52,0,52,0,,,,,,,,,,,,,,,,,,,,,,,,,,,,,,,,,,,,,,,,,,,,,,,,,,,,,,,,,,,,107,001,2023-03-01_14h54.52.230,eb_01,2022.2.4,60.01010765135201,
2,stimuli/2.png,s,1,0,1,0,53,0,53,0,0,0,0,0,,,,,,,,,,,,,,,,,,,328.47920915210125,328.47920915210125,328.47920915210125,328.47920915210125,s,1,0.7562684311014891,329.2625279966196,329.2625279966196,329.2625279966196,330.2624932838298,330.2624932838298,330.2624932838298,,,,,,,,,,,,,,,,,,,,,,,,,107,001,2023-03-01_14h54.52.230,eb_01,2022.2.4,60.01010765135201,
,,,1,0,1,0,53,0,53,0,,,,,,,,,,,,,,,,,,,,,,,,,,,,,,,,,,,,,,,,,,,,,,,,,,,,,,,,,,,,107,001,2023-03-01_14h54.52.230,eb_01,2022.2.4,60.01010765135201,
3,stimuli/3.png,l,1,0,1,0,54,0,54,0,0,0,0,0,,,,,,,,,,,,,,,,,,,330.2624932838298,330.2624932838298,330.2624932838298,330.2624932838298,l,1,0.4210400813171873,330.71241329348777,330.71241329348777,330.71241329348777,331.71236620483614,331.71236620483614,331.71236620483614,,,,,,,,,,,,,,,,,,,,,,,,,107,001,2023-03-01_14h54.52.230,eb_01,2022.2.4,60.01010765135201,
,,,1,0,1,0,54,0,54,0,,,,,,,,,,,,,,,,,,,,,,,,,,,,,,,,,,,,,,,,,,,,,,,,,,,,,,,,,,,,107,001,2023-03-01_14h54.52.230,eb_01,2022.2.4,60.01010765135201,
2,stimuli/2.png,s,1,0,1,0,55,0,55,0,0,0,0,0,,,,,,,,,,,,,,,,,,,331.71236620483614,331.71236620483614,331.71236620483614,331.71236620483614,s,1,0.6032010279195674,332.3456470162091,332.3456470162091,332.3456470162091,333.3456264903871,333.3456264903871,333.3456264903871,,,,,,,,,,,,,,,,,,,,,,,,,107,001,2023-03-01_14h54.52.230,eb_01,2022.2.4,60.01010765135201,
,,,1,0,1,0,55,0,55,0,,,,,,,,,,,,,,,,,,,,,,,,,,,,,,,,,,,,,,,,,,,,,,,,,,,,,,,,,,,,107,001,2023-03-01_14h54.52.230,eb_01,2022.2.4,60.01010765135201,
3,stimuli/3.png,l,1,0,1,0,56,0,56,0,0,0,0,0,,,,,,,,,,,,,,,,,,,333.3456264903871,333.3456264903871,333.3456264903871,333.3456264903871,l,1,0.4339505223215383,333.8122228259235,333.8122228259235,333.8122228259235,334.82882459476605,334.82882459476605,334.82882459476605,,,,,,,,,,,,,,,,,,,,,,,,,107,001,2023-03-01_14h54.52.230,eb_01,2022.2.4,60.01010765135201,
,,,1,0,1,0,56,0,56,0,,,,,,,,,,,,,,,,,,,,,,,,,,,,,,,,,,,,,,,,,,,,,,,,,,,,,,,,,,,,107,001,2023-03-01_14h54.52.230,eb_01,2022.2.4,60.01010765135201,
4,stimuli/4.png,l,1,0,1,0,57,0,57,0,0,0,0,0,,,,,,,,,,,,,,,,,,,334.82882459476605,334.82882459476605,334.82882459476605,334.82882459476605,l,1,0.7827956429100595,335.62881101150197,335.62881101150197,335.62881101150197,336.6453859156645,336.6453859156645,336.6453859156645,,,,,,,,,,,,,,,,,,,,,,,,,107,001,2023-03-01_14h54.52.230,eb_01,2022.2.4,60.01010765135201,
,,,1,0,1,0,57,0,57,0,,,,,,,,,,,,,,,,,,,,,,,,,,,,,,,,,,,,,,,,,,,,,,,,,,,,,,,,,,,,107,001,2023-03-01_14h54.52.230,eb_01,2022.2.4,60.01010765135201,
1,stimuli/1.png,s,1,0,1,0,58,0,58,0,0,0,0,0,,,,,,,,,,,,,,,,,,,336.6453859156645,336.6453859156645,336.6453859156645,336.6453859156645,s,1,0.7502694573959161,337.4453382233078,337.4453382233078,337.4453382233078,,,,,,,,,,,,,,,,,,,,,,,,,,,,107,001,2023-03-01_14h54.52.230,eb_01,2022.2.4,60.01010765135201,
,,,1,0,1,0,58,0,58,0,,,,,,,,,,,,,,,,,,,,,,,,,,,,,,,,,,,,,,,,,,,,,,,,,,,,,,,,,,,,107,001,2023-03-01_14h54.52.230,eb_01,2022.2.4,60.01010765135201,
4,stimuli/4.png,l,1,0,1,0,59,0,59,0,0,0,0,0,,,,,,,,,,,,,,,,,,,338.46194482175633,338.46194482175633,338.46194482175633,338.46194482175633,l,1,0.6768177987250965,339.1619022608611,339.1619022608611,339.1619022608611,340.1618418907892,340.1618418907892,340.1618418907892,,,,,,,,,,,,,,,,,,,,,,,,,107,001,2023-03-01_14h54.52.230,eb_01,2022.2.4,60.01010765135201,
,,,1,0,1,0,59,0,59,0,,,,,,,,,,,,,,,,,,,,,,,,,,,,,,,,,,,,,,,,,,,,,,,,,,,,,,,,,,,,107,001,2023-03-01_14h54.52.230,eb_01,2022.2.4,60.01010765135201,
3,stimuli/3.png,l,1,0,1,0,60,0,60,0,0,0,0,0,,,,,,,,,,,,,,,,,,,340.1618418907892,340.1618418907892,340.1618418907892,340.1618418907892,l,1,0.5529242311567941,340.74520480545834,340.74520480545834,340.74520480545834,341.7617685411569,341.7617685411569,341.7617685411569,,,,,,,,,,,,,,,,,,,,,,,,,107,001,2023-03-01_14h54.52.230,eb_01,2022.2.4,60.01010765135201,
,,,1,0,1,0,60,0,60,0,,,,,,,,,,,,,,,,,,,,,,,,,,,,,,,,,,,,,,,,,,,,,,,,,,,,,,,,,,,,107,001,2023-03-01_14h54.52.230,eb_01,2022.2.4,60.01010765135201,
4,stimuli/4.png,l,1,0,1,0,61,0,61,0,0,0,0,0,,,,,,,,,,,,,,,,,,,341.7617685411569,341.7617685411569,341.7617685411569,341.7617685411569,l,1,0.6090279469317466,342.395063841348,342.395063841348,342.395063841348,343.39500256572865,343.39500256572865,343.39500256572865,,,,,,,,,,,,,,,,,,,,,,,,,107,001,2023-03-01_14h54.52.230,eb_01,2022.2.4,60.01010765135201,
,,,1,0,1,0,61,0,61,0,,,,,,,,,,,,,,,,,,,,,,,,,,,,,,,,,,,,,,,,,,,,,,,,,,,,,,,,,,,,107,001,2023-03-01_14h54.52.230,eb_01,2022.2.4,60.01010765135201,
2,stimuli/2.png,s,1,0,1,0,62,0,62,0,0,0,0,0,,,,,,,,,,,,,,,,,,,343.39500256572865,343.39500256572865,343.39500256572865,343.39500256572865,s,1,0.5598281521924946,343.9782842826535,343.9782842826535,343.9782842826535,344.9948821274411,344.9948821274411,344.9948821274411,,,,,,,,,,,,,,,,,,,,,,,,,107,001,2023-03-01_14h54.52.230,eb_01,2022.2.4,60.01010765135201,
,,,1,0,1,0,62,0,62,0,,,,,,,,,,,,,,,,,,,,,,,,,,,,,,,,,,,,,,,,,,,,,,,,,,,,,,,,,,,,107,001,2023-03-01_14h54.52.230,eb_01,2022.2.4,60.01010765135201,
1,stimuli/1.png,s,1,0,1,0,63,0,63,0,0,0,0,0,,,,,,,,,,,,,,,,,,,344.9948821274411,344.9948821274411,344.9948821274411,344.9948821274411,s,1,0.5439680296403822,345.5782260255364,345.5782260255364,345.5782260255364,,,,,,,,,,,,,,,,,,,,,,,,,,,,107,001,2023-03-01_14h54.52.230,eb_01,2022.2.4,60.01010765135201,
,,,1,0,1,0,63,0,63,0,,,,,,,,,,,,,,,,,,,,,,,,,,,,,,,,,,,,,,,,,,,,,,,,,,,,,,,,,,,,107,001,2023-03-01_14h54.52.230,eb_01,2022.2.4,60.01010765135201,
2,stimuli/2.png,s,1,0,1,0,64,0,64,0,0,0,0,0,,,,,,,,,,,,,,,,,,,346.5781255093716,346.5781255093716,346.5781255093716,346.5781255093716,s,1,0.5527847762969031,347.1614208095634,347.1614208095634,347.1614208095634,348.17798514896276,348.17798514896276,348.17798514896276,,,,,,,,,,,,,,,,,,,,,,,,,107,001,2023-03-01_14h54.52.230,eb_01,2022.2.4,60.01010765135201,
,,,1,0,1,0,64,0,64,0,,,,,,,,,,,,,,,,,,,,,,,,,,,,,,,,,,,,,,,,,,,,,,,,,,,,,,,,,,,,107,001,2023-03-01_14h54.52.230,eb_01,2022.2.4,60.01010765135201,
1,stimuli/1.png,s,1,0,1,0,65,0,65,0,0,0,0,0,,,,,,,,,,,,,,,,,,,348.17798514896276,348.17798514896276,348.17798514896276,348.17798514896276,s,1,0.4729565291418112,348.6947052431424,348.6947052431424,348.6947052431424,,,,,,,,,,,,,,,,,,,,,,,,,,,,107,001,2023-03-01_14h54.52.230,eb_01,2022.2.4,60.01010765135201,
,,,1,0,1,0,65,0,65,0,,,,,,,,,,,,,,,,,,,,,,,,,,,,,,,,,,,,,,,,,,,,,,,,,,,,,,,,,,,,107,001,2023-03-01_14h54.52.230,eb_01,2022.2.4,60.01010765135201,
2,stimuli/2.png,s,1,0,1,0,66,0,66,0,0,0,0,0,,,,,,,,,,,,,,,,,,,349.6946267620515,349.6946267620515,349.6946267620515,349.6946267620515,s,1,0.4043211945427174,350.1279465121188,350.1279465121188,350.1279465121188,351.1445262458874,351.1445262458874,351.1445262458874,,,,,,,,,,,,,,,,,,,,,,,,,107,001,2023-03-01_14h54.52.230,eb_01,2022.2.4,60.01010765135201,
,,,1,0,1,0,66,0,66,0,,,,,,,,,,,,,,,,,,,,,,,,,,,,,,,,,,,,,,,,,,,,,,,,,,,,,,,,,,,,107,001,2023-03-01_14h54.52.230,eb_01,2022.2.4,60.01010765135201,
1,stimuli/1.png,s,1,0,1,0,67,0,67,0,0,0,0,0,,,,,,,,,,,,,,,,,,,351.1445262458874,351.1445262458874,351.1445262458874,351.1445262458874,s,1,0.46643203399071353,351.64448549609006,351.64448549609006,351.64448549609006,,,,,,,,,,,,,,,,,,,,,,,,,,,,107,001,2023-03-01_14h54.52.230,eb_01,2022.2.4,60.01010765135201,
,,,1,0,1,0,67,0,67,0,,,,,,,,,,,,,,,,,,,,,,,,,,,,,,,,,,,,,,,,,,,,,,,,,,,,,,,,,,,,107,001,2023-03-01_14h54.52.230,eb_01,2022.2.4,60.01010765135201,
2,stimuli/2.png,s,1,0,1,0,68,0,68,0,0,0,0,0,,,,,,,,,,,,,,,,,,,352.64446738507104,352.64446738507104,352.64446738507104,352.64446738507104,s,1,0.37464930586429546,353.04444353889266,353.04444353889266,353.04444353889266,354.04436324670314,354.04436324670314,354.04436324670314,,,,,,,,,,,,,,,,,,,,,,,,,107,001,2023-03-01_14h54.52.230,eb_01,2022.2.4,60.01010765135201,
,,,1,0,1,0,68,0,68,0,,,,,,,,,,,,,,,,,,,,,,,,,,,,,,,,,,,,,,,,,,,,,,,,,,,,,,,,,,,,107,001,2023-03-01_14h54.52.230,eb_01,2022.2.4,60.01010765135201,
3,stimuli/3.png,l,1,0,1,0,69,0,69,0,0,0,0,0,,,,,,,,,,,,,,,,,,,354.04436324670314,354.04436324670314,354.04436324670314,354.04436324670314,l,1,0.5817455055694154,354.64434694678494,354.64434694678494,354.64434694678494,355.6609577711388,355.6609577711388,355.6609577711388,,,,,,,,,,,,,,,,,,,,,,,,,107,001,2023-03-01_14h54.52.230,eb_01,2022.2.4,60.01010765135201,
,,,1,0,1,0,69,0,69,0,,,,,,,,,,,,,,,,,,,,,,,,,,,,,,,,,,,,,,,,,,,,,,,,,,,,,,,,,,,,107,001,2023-03-01_14h54.52.230,eb_01,2022.2.4,60.01010765135201,
8,stimuli/8.png,l,1,0,1,0,70,0,70,0,0,0,0,0,,,,,,,,,,,,,,,,,,,355.6609577711388,355.6609577711388,355.6609577711388,355.6609577711388,l,1,0.5571314212320431,356.2442482417209,356.2442482417209,356.2442482417209,357.26084367170915,357.26084367170915,357.26084367170915,,,,,,,,,,,,,,,,,,,,,,,,,107,001,2023-03-01_14h54.52.230,eb_01,2022.2.4,60.01010765135201,
,,,1,0,1,0,70,0,70,0,,,,,,,,,,,,,,,,,,,,,,,,,,,,,,,,,,,,,,,,,,,,,,,,,,,,,,,,,,,,107,001,2023-03-01_14h54.52.230,eb_01,2022.2.4,60.01010765135201,
6,stimuli/6.png,s,1,0,1,0,71,0,71,0,0,0,0,0,,,,,,,,,,,,,,,,,,,357.26084367170915,357.26084367170915,357.26084367170915,357.26084367170915,s,1,0.7572968352214957,358.06077424612886,358.06077424612886,358.06077424612886,,,,,,,,,,,,,,,,,,,,,,,,,,,,107,001,2023-03-01_14h54.52.230,eb_01,2022.2.4,60.01010765135201,
,,,1,0,1,0,71,0,71,0,,,,,,,,,,,,,,,,,,,,,,,,,,,,,,,,,,,,,,,,,,,,,,,,,,,,,,,,,,,,107,001,2023-03-01_14h54.52.230,eb_01,2022.2.4,60.01010765135201,
9,stimuli/9.png,l,1,0,1,0,72,0,72,0,0,0,0,0,,,,,,,,,,,,,,,,,,,359.0773742038691,359.0773742038691,359.0773742038691,359.0773742038691,l,1,0.5648216624103952,359.6773467354906,359.6773467354906,359.6773467354906,,,,,,,,,,,,,,,,,,,,,,,,,,,,107,001,2023-03-01_14h54.52.230,eb_01,2022.2.4,60.01010765135201,
,,,1,0,1,0,72,0,72,0,,,,,,,,,,,,,,,,,,,,,,,,,,,,,,,,,,,,,,,,,,,,,,,,,,,,,,,,,,,,107,001,2023-03-01_14h54.52.230,eb_01,2022.2.4,60.01010765135201,
5,stimuli/5.png,s,1,0,1,0,73,0,73,0,0,0,0,0,,,,,,,,,,,,,,,,,,,360.6769938724392,360.6769938724392,360.6769938724392,360.6769938724392,s,1,0.5332840367664176,361.22725406743484,361.22725406743484,361.22725406743484,362.24386549548944,362.24386549548944,362.24386549548944,,,,,,,,,,,,,,,,,,,,,,,,,107,001,2023-03-01_14h54.52.230,eb_01,2022.2.4,60.01010765135201,
,,,1,0,1,0,73,0,73,0,,,,,,,,,,,,,,,,,,,,,,,,,,,,,,,,,,,,,,,,,,,,,,,,,,,,,,,,,,,,107,001,2023-03-01_14h54.52.230,eb_01,2022.2.4,60.01010765135201,
6,stimuli/6.png,s,1,0,1,0,74,0,74,0,0,0,0,0,,,,,,,,,,,,,,,,,,,362.24386549548944,362.24386549548944,362.24386549548944,362.24386549548944,s,1,0.7743903182708891,363.0604690754335,363.0604690754335,363.0604690754335,,,,,,,,,,,,,,,,,,,,,,,,,,,,107,001,2023-03-01_14h54.52.230,eb_01,2022.2.4,60.01010765135201,
,,,1,0,1,0,74,0,74,0,,,,,,,,,,,,,,,,,,,,,,,,,,,,,,,,,,,,,,,,,,,,,,,,,,,,,,,,,,,,107,001,2023-03-01_14h54.52.230,eb_01,2022.2.4,60.01010765135201,
8,stimuli/8.png,l,1,0,1,0,75,0,75,0,0,0,0,0,,,,,,,,,,,,,,,,,,,364.0770868423424,364.0770868423424,364.0770868423424,364.0770868423424,l,1,0.5892265644615691,364.69373328503934,364.69373328503934,364.69373328503934,365.71032992242544,365.71032992242544,365.71032992242544,,,,,,,,,,,,,,,,,,,,,,,,,107,001,2023-03-01_14h54.52.230,eb_01,2022.2.4,60.01010765135201,
,,,1,0,1,0,75,0,75,0,,,,,,,,,,,,,,,,,,,,,,,,,,,,,,,,,,,,,,,,,,,,,,,,,,,,,,,,,,,,107,001,2023-03-01_14h54.52.230,eb_01,2022.2.4,60.01010765135201,
9,stimuli/9.png,l,1,0,1,0,76,0,76,0,0,0,0,0,,,,,,,,,,,,,,,,,,,365.71032992242544,365.71032992242544,365.71032992242544,365.71032992242544,l,1,0.5319845710400841,366.2769721392142,366.2769721392142,366.2769721392142,,,,,,,,,,,,,,,,,,,,,,,,,,,,107,001,2023-03-01_14h54.52.230,eb_01,2022.2.4,60.01010765135201,
,,,1,0,1,0,76,0,76,0,,,,,,,,,,,,,,,,,,,,,,,,,,,,,,,,,,,,,,,,,,,,,,,,,,,,,,,,,,,,107,001,2023-03-01_14h54.52.230,eb_01,2022.2.4,60.01010765135201,
5,stimuli/5.png,s,1,0,1,0,77,0,77,0,0,0,0,0,,,,,,,,,,,,,,,,,,,367.29357903951313,367.29357903951313,367.29357903951313,367.29357903951313,s,1,0.532790209606901,367.8435171601923,367.8435171601923,367.8435171601923,368.86015545292685,368.86015545292685,368.86015545292685,,,,,,,,,,,,,,,,,,,,,,,,,107,001,2023-03-01_14h54.52.230,eb_01,2022.2.4,60.01010765135201,
,,,1,0,1,0,77,0,77,0,,,,,,,,,,,,,,,,,,,,,,,,,,,,,,,,,,,,,,,,,,,,,,,,,,,,,,,,,,,,107,001,2023-03-01_14h54.52.230,eb_01,2022.2.4,60.01010765135201,
9,stimuli/9.png,l,1,0,1,0,78,0,78,0,0,0,0,0,,,,,,,,,,,,,,,,,,,368.86015545292685,368.86015545292685,368.86015545292685,368.86015545292685,l,1,0.34933704168361146,369.24345075311794,369.24345075311794,369.24345075311794,,,,,,,,,,,,,,,,,,,,,,,,,,,,107,001,2023-03-01_14h54.52.230,eb_01,2022.2.4,60.01010765135201,
,,,1,0,1,0,78,0,78,0,,,,,,,,,,,,,,,,,,,,,,,,,,,,,,,,,,,,,,,,,,,,,,,,,,,,,,,,,,,,107,001,2023-03-01_14h54.52.230,eb_01,2022.2.4,60.01010765135201,
5,stimuli/5.png,s,1,0,1,0,79,0,79,0,0,0,0,0,,,,,,,,,,,,,,,,,,,370.24307947719717,370.24307947719717,370.24307947719717,370.24307947719717,s,1,0.502352526607865,370.7766778351288,370.7766778351288,370.7766778351288,371.79328050952245,371.79328050952245,371.79328050952245,,,,,,,,,,,,,,,,,,,,,,,,,107,001,2023-03-01_14h54.52.230,eb_01,2022.2.4,60.01010765135201,
,,,1,0,1,0,79,0,79,0,,,,,,,,,,,,,,,,,,,,,,,,,,,,,,,,,,,,,,,,,,,,,,,,,,,,,,,,,,,,107,001,2023-03-01_14h54.52.230,eb_01,2022.2.4,60.01010765135201,
6,stimuli/6.png,s,1,0,1,0,80,0,80,0,0,0,0,0,,,,,,,,,,,,,,,,,,,371.79328050952245,371.79328050952245,371.79328050952245,371.79328050952245,s,1,0.6162113813879841,372.4432596818515,372.4432596818515,372.4432596818515,,,,,,,,,,,,,,,,,,,,,,,,,,,,107,001,2023-03-01_14h54.52.230,eb_01,2022.2.4,60.01010765135201,
,,,1,0,1,0,80,0,80,0,,,,,,,,,,,,,,,,,,,,,,,,,,,,,,,,,,,,,,,,,,,,,,,,,,,,,,,,,,,,107,001,2023-03-01_14h54.52.230,eb_01,2022.2.4,60.01010765135201,
9,stimuli/9.png,l,1,0,1,0,81,0,81,0,0,0,0,0,,,,,,,,,,,,,,,,,,,373.4598717136032,373.4598717136032,373.4598717136032,373.4598717136032,l,1,0.5896663604107744,374.0931407528151,374.0931407528151,374.0931407528151,,,,,,,,,,,,,,,,,,,,,,,,,,,,107,001,2023-03-01_14h54.52.230,eb_01,2022.2.4,60.01010765135201,
,,,1,0,1,0,81,0,81,0,,,,,,,,,,,,,,,,,,,,,,,,,,,,,,,,,,,,,,,,,,,,,,,,,,,,,,,,,,,,107,001,2023-03-01_14h54.52.230,eb_01,2022.2.4,60.01010765135201,
6,stimuli/6.png,s,1,0,1,0,82,0,82,0,0,0,0,0,,,,,,,,,,,,,,,,,,,375.10974342720874,375.10974342720874,375.10974342720874,375.10974342720874,s,1,0.5398040041654895,375.69305714026996,375.69305714026996,375.69305714026996,,,,,,,,,,,,,,,,,,,,,,,,,,,,107,001,2023-03-01_14h54.52.230,eb_01,2022.2.4,60.01010765135201,
,,,1,0,1,0,82,0,82,0,,,,,,,,,,,,,,,,,,,,,,,,,,,,,,,,,,,,,,,,,,,,,,,,,,,,,,,,,,,,107,001,2023-03-01_14h54.52.230,eb_01,2022.2.4,60.01010765135201,
8,stimuli/8.png,l,1,0,1,0,83,0,83,0,0,0,0,0,,,,,,,,,,,,,,,,,,,376.70968969784735,376.70968969784735,376.70968969784735,376.70968969784735,l,1,0.37988248525289237,377.10962962963094,377.10962962963094,377.10962962963094,378.1095765039681,378.1095765039681,378.1095765039681,,,,,,,,,,,,,,,,,,,,,,,,,107,001,2023-03-01_14h54.52.230,eb_01,2022.2.4,60.01010765135201,
,,,1,0,1,0,83,0,83,0,,,,,,,,,,,,,,,,,,,,,,,,,,,,,,,,,,,,,,,,,,,,,,,,,,,,,,,,,,,,107,001,2023-03-01_14h54.52.230,eb_01,2022.2.4,60.01010765135201,
3,stimuli/3.png,l,1,0,1,0,84,0,84,0,0,0,0,0,,,,,,,,,,,,,,,,,,,378.1095765039681,378.1095765039681,378.1095765039681,378.1095765039681,l,1,0.6040443977799441,378.7428223007046,378.7428223007046,378.7428223007046,379.7428337710153,379.7428337710153,379.7428337710153,,,,,,,,,,,,,,,,,,,,,,,,,107,001,2023-03-01_14h54.52.230,eb_01,2022.2.4,60.01010765135201,
,,,1,0,1,0,84,0,84,0,,,,,,,,,,,,,,,,,,,,,,,,,,,,,,,,,,,,,,,,,,,,,,,,,,,,,,,,,,,,107,001,2023-03-01_14h54.52.230,eb_01,2022.2.4,60.01010765135201,
2,stimuli/2.png,s,1,0,1,0,85,0,85,0,0,0,0,0,,,,,,,,,,,,,,,,,,,379.7428337710153,379.7428337710153,379.7428337710153,379.7428337710153,s,1,0.5628243186947657,380.3261471822261,380.3261471822261,380.3261471822261,381.34270820127495,381.34270820127495,381.34270820127495,,,,,,,,,,,,,,,,,,,,,,,,,107,001,2023-03-01_14h54.52.230,eb_01,2022.2.4,60.01010765135201,
,,,1,0,1,0,85,0,85,0,,,,,,,,,,,,,,,,,,,,,,,,,,,,,,,,,,,,,,,,,,,,,,,,,,,,,,,,,,,,107,001,2023-03-01_14h54.52.230,eb_01,2022.2.4,60.01010765135201,
1,stimuli/1.png,s,1,0,1,0,86,0,86,0,0,0,0,0,,,,,,,,,,,,,,,,,,,381.34270820127495,381.34270820127495,381.34270820127495,381.34270820127495,s,1,0.6429743383159803,382.0260152736264,382.0260152736264,382.0260152736264,,,,,,,,,,,,,,,,,,,,,,,,,,,,107,001,2023-03-01_14h54.52.230,eb_01,2022.2.4,60.01010765135201,
,,,1,0,1,0,86,0,86,0,,,,,,,,,,,,,,,,,,,,,,,,,,,,,,,,,,,,,,,,,,,,,,,,,,,,,,,,,,,,107,001,2023-03-01_14h54.52.230,eb_01,2022.2.4,60.01010765135201,
2,stimuli/2.png,s,1,0,1,0,87,0,87,0,0,0,0,0,,,,,,,,,,,,,,,,,,,383.02596848682515,383.02596848682515,383.02596848682515,383.02596848682515,s,1,0.5997813653921185,383.64257267046924,383.64257267046924,383.64257267046924,384.64252799662063,384.64252799662063,384.64252799662063,,,,,,,,,,,,,,,,,,,,,,,,,107,001,2023-03-01_14h54.52.230,eb_01,2022.2.4,60.01010765135201,
,,,1,0,1,0,87,0,87,0,,,,,,,,,,,,,,,,,,,,,,,,,,,,,,,,,,,,,,,,,,,,,,,,,,,,,,,,,,,,107,001,2023-03-01_14h54.52.230,eb_01,2022.2.4,60.01010765135201,
3,stimuli/3.png,l,1,0,1,0,88,0,88,0,0,0,0,0,,,,,,,,,,,,,,,,,,,384.64252799662063,384.64252799662063,384.64252799662063,384.64252799662063,l,1,0.5272778186481446,385.1924839264684,385.1924839264684,385.1924839264684,386.1924190286445,386.1924190286445,386.1924190286445,,,,,,,,,,,,,,,,,,,,,,,,,107,001,2023-03-01_14h54.52.230,eb_01,2022.2.4,60.01010765135201,
,,,1,0,1,0,88,0,88,0,,,,,,,,,,,,,,,,,,,,,,,,,,,,,,,,,,,,,,,,,,,,,,,,,,,,,,,,,,,,107,001,2023-03-01_14h54.52.230,eb_01,2022.2.4,60.01010765135201,
2,stimuli/2.png,s,1,0,1,0,89,0,89,0,0,0,0,0,,,,,,,,,,,,,,,,,,,386.1924190286445,386.1924190286445,386.1924190286445,386.1924190286445,s,1,0.5763780027773464,386.7924199341978,386.7924199341978,386.7924199341978,387.7923725436922,387.7923725436922,387.7923725436922,,,,,,,,,,,,,,,,,,,,,,,,,107,001,2023-03-01_14h54.52.230,eb_01,2022.2.4,60.01010765135201,
,,,1,0,1,0,89,0,89,0,,,,,,,,,,,,,,,,,,,,,,,,,,,,,,,,,,,,,,,,,,,,,,,,,,,,,,,,,,,,107,001,2023-03-01_14h54.52.230,eb_01,2022.2.4,60.01010765135201,
3,stimuli/3.png,l,1,0,1,0,90,0,90,0,0,0,0,0,,,,,,,,,,,,,,,,,,,387.7923725436922,387.7923725436922,387.7923725436922,387.7923725436922,l,1,0.5364691615795891,388.35898970690323,388.35898970690323,388.35898970690323,389.35889673699785,389.35889673699785,389.35889673699785,,,,,,,,,,,,,,,,,,,,,,,,,107,001,2023-03-01_14h54.52.230,eb_01,2022.2.4,60.01010765135201,
,,,1,0,1,0,90,0,90,0,,,,,,,,,,,,,,,,,,,,,,,,,,,,,,,,,,,,,,,,,,,,,,,,,,,,,,,,,,,,107,001,2023-03-01_14h54.52.230,eb_01,2022.2.4,60.01010765135201,
2,stimuli/2.png,s,1,0,1,0,91,0,91,0,0,0,0,0,,,,,,,,,,,,,,,,,,,389.35889673699785,389.35889673699785,389.35889673699785,389.35889673699785,s,1,0.5779926002578577,389.958891907394,389.958891907394,389.958891907394,390.97548612997707,390.97548612997707,390.97548612997707,,,,,,,,,,,,,,,,,,,,,,,,,107,001,2023-03-01_14h54.52.230,eb_01,2022.2.4,60.01010765135201,
,,,1,0,1,0,91,0,91,0,,,,,,,,,,,,,,,,,,,,,,,,,,,,,,,,,,,,,,,,,,,,,,,,,,,,,,,,,,,,107,001,2023-03-01_14h54.52.230,eb_01,2022.2.4,60.01010765135201,
4,stimuli/4.png,l,1,0,1,0,92,0,92,0,0,0,0,0,,,,,,,,,,,,,,,,,,,390.97548612997707,390.97548612997707,390.97548612997707,390.97548612997707,l,1,0.5054205334927246,391.5087935041811,391.5087935041811,391.5087935041811,392.50844577258613,392.50844577258613,392.50844577258613,,,,,,,,,,,,,,,,,,,,,,,,,107,001,2023-03-01_14h54.52.230,eb_01,2022.2.4,60.01010765135201,
,,,1,0,1,0,92,0,92,0,,,,,,,,,,,,,,,,,,,,,,,,,,,,,,,,,,,,,,,,,,,,,,,,,,,,,,,,,,,,107,001,2023-03-01_14h54.52.230,eb_01,2022.2.4,60.01010765135201,
2,stimuli/2.png,s,1,0,1,0,93,0,93,0,0,0,0,0,,,,,,,,,,,,,,,,,,,392.50844577258613,392.50844577258613,392.50844577258613,392.50844577258613,s,1,0.5484788811627368,393.07539436747174,393.07539436747174,393.07539436747174,394.0919665549809,394.0919665549809,394.0919665549809,,,,,,,,,,,,,,,,,,,,,,,,,107,001,2023-03-01_14h54.52.230,eb_01,2022.2.4,60.01010765135201,
,,,1,0,1,0,93,0,93,0,,,,,,,,,,,,,,,,,,,,,,,,,,,,,,,,,,,,,,,,,,,,,,,,,,,,,,,,,,,,107,001,2023-03-01_14h54.52.230,eb_01,2022.2.4,60.01010765135201,
4,stimuli/4.png,l,1,0,1,0,94,0,94,0,0,0,0,0,,,,,,,,,,,,,,,,,,,394.0919665549809,394.0919665549809,394.0919665549809,394.0919665549809,l,1,0.2849864726958913,394.40859458480554,394.40859458480554,394.40859458480554,395.4252434423033,395.4252434423033,395.4252434423033,,,,,,,,,,,,,,,,,,,,,,,,,107,001,2023-03-01_14h54.52.230,eb_01,2022.2.4,60.01010765135201,
,,,1,0,1,0,94,0,94,0,,,,,,,,,,,,,,,,,,,,,,,,,,,,,,,,,,,,,,,,,,,,,,,,,,,,,,,,,,,,107,001,2023-03-01_14h54.52.230,eb_01,2022.2.4,60.01010765135201,
1,stimuli/1.png,s,1,0,1,0,95,0,95,0,0,0,0,0,,,,,,,,,,,,,,,,,,,395.4252434423033,395.4252434423033,395.4252434423033,395.4252434423033,s,1,0.6797949486535799,396.1418455129933,396.1418455129933,396.1418455129933,,,,,,,,,,,,,,,,,,,,,,,,,,,,107,001,2023-03-01_14h54.52.230,eb_01,2022.2.4,60.01010765135201,
,,,1,0,1,0,95,0,95,0,,,,,,,,,,,,,,,,,,,,,,,,,,,,,,,,,,,,,,,,,,,,,,,,,,,,,,,,,,,,107,001,2023-03-01_14h54.52.230,eb_01,2022.2.4,60.01010765135201,
2,stimuli/2.png,s,1,0,1,0,96,0,96,0,0,0,0,0,,,,,,,,,,,,,,,,,,,397.1417929910349,397.1417929910349,397.1417929910349,397.1417929910349,s,1,0.6992778790190641,397.85842796341603,397.85842796341603,397.85842796341603,398.85832684355046,398.85832684355046,398.85832684355046,,,,,,,,,,,,,,,,,,,,,,,,,107,001,2023-03-01_14h54.52.230,eb_01,2022.2.4,60.01010765135201,
,,,1,0,1,0,96,0,96,0,,,,,,,,,,,,,,,,,,,,,,,,,,,,,,,,,,,,,,,,,,,,,,,,,,,,,,,,,,,,107,001,2023-03-01_14h54.52.230,eb_01,2022.2.4,60.01010765135201,
3,stimuli/3.png,l,1,0,1,0,97,0,97,0,0,0,0,0,,,,,,,,,,,,,,,,,,,398.85832684355046,398.85832684355046,398.85832684355046,398.85832684355046,l,1,0.4548023439892859,399.3416791934578,399.3416791934578,399.3416791934578,400.3582486643136,400.3582486643136,400.3582486643136,,,,,,,,,,,,,,,,,,,,,,,,,107,001,2023-03-01_14h54.52.230,eb_01,2022.2.4,60.01010765135201,
,,,1,0,1,0,97,0,97,0,,,,,,,,,,,,,,,,,,,,,,,,,,,,,,,,,,,,,,,,,,,,,,,,,,,,,,,,,,,,107,001,2023-03-01_14h54.52.230,eb_01,2022.2.4,60.01010765135201,
8,stimuli/8.png,l,1,0,1,0,98,0,98,0,0,0,0,0,,,,,,,,,,,,,,,,,,,400.3582486643136,400.3582486643136,400.3582486643136,400.3582486643136,l,1,0.5068829984011245,400.8915847142998,400.8915847142998,400.8915847142998,401.908159316612,401.908159316612,401.908159316612,,,,,,,,,,,,,,,,,,,,,,,,,107,001,2023-03-01_14h54.52.230,eb_01,2022.2.4,60.01010765135201,
,,,1,0,1,0,98,0,98,0,,,,,,,,,,,,,,,,,,,,,,,,,,,,,,,,,,,,,,,,,,,,,,,,,,,,,,,,,,,,107,001,2023-03-01_14h54.52.230,eb_01,2022.2.4,60.01010765135201,
9,stimuli/9.png,l,1,0,1,0,99,0,99,0,0,0,0,0,,,,,,,,,,,,,,,,,,,401.908159316612,401.908159316612,401.908159316612,401.908159316612,l,1,0.5240151182952104,402.4747801020276,402.4747801020276,402.4747801020276,,,,,,,,,,,,,,,,,,,,,,,,,,,,107,001,2023-03-01_14h54.52.230,eb_01,2022.2.4,60.01010765135201,
,,,1,0,1,0,99,0,99,0,,,,,,,,,,,,,,,,,,,,,,,,,,,,,,,,,,,,,,,,,,,,,,,,,,,,,,,,,,,,107,001,2023-03-01_14h54.52.230,eb_01,2022.2.4,60.01010765135201,
