index,stimulus,correct_answer,block.thisRepN,block.thisTrialN,block.thisN,block.thisIndex,trial.thisRepN,trial.thisTrialN,trial.thisN,trial.thisIndex,display_row.thisRepN,display_row.thisTrialN,display_row.thisN,display_row.thisIndex,pair_questions.thisRepN,pair_questions.thisTrialN,pair_questions.thisN,pair_questions.thisIndex,welcome_text.started,instructions_0_keypress.started,instructions_0_keypress.keys,instructions_0_keypress.rt,instructions_1_keypress.started,instructions_1_text.started,instructions_1_keypress.keys,instructions_1_keypress.rt,instructions_2_keypress.started,instructions_2_text.started,instructions_2_keypress.keys,instructions_2_keypress.rt,text_countdown.started,image.started,size_question.started,size_resp.started,keypress_options.started,size_resp.keys,size_resp.corr,size_resp.rt,fb_image.started,fb.started,fb_size_question.started,fb_image.stopped,fb.stopped,fb_size_question.stopped,block_break_text.started,block_break_keypress.started,block_break_keypress.keys,block_break_keypress.rt,seq_reveal.started,seq_reveal_adv.started,seq_reveal_adv.keys,seq_reveal_adv.rt,instruction_2afc_text.started,instruction_2afc_keypress.started,instruction_2afc_keypress.keys,instruction_2afc_keypress.rt,dist_2afc_test.started,dist_2afc_resp.started,text.started,stim_00.started,stim_01.started,stim_10.started,stim_11.started,dist_2afc_resp.keys,dist_2afc_resp.rt,graph.started,debrief_text.started,debriefing_title.started,participant,session,date,expName,psychopyVersion,frameRate,
,,,,,,,,,,,,,,,,,,,12.626498154189903,12.626498154189903,return,18.26997733185999,,,,,,,,,,,,,,,,,,,,,,,,,,,,,,,,,,,,,,,,,,,,,,,108,001,2010-10-14_14h53.52.253,eb_01,2022.2.4,119.9868891046044,
,,,,,,,,,,,,,,,,,,,,,,,30.91105432988843,30.91105432988843,return,7.937580436075223,,,,,,,,,,,,,,,,,,,,,,,,,,,,,,,,,,,,,,,,,,,108,001,2010-10-14_14h53.52.253,eb_01,2022.2.4,119.9868891046044,
,,,,,,,,,,,,,,,,,,,,,,,,,,,38.86175175299286,38.86175175299286,space,8.306045320423436,,,,,,,,,,,,,,,,,,,,,,,,,,,,,,,,,,,,,,,108,001,2010-10-14_14h53.52.253,eb_01,2022.2.4,119.9868891046044,
9,stimuli/9.png,l,0,0,0,0,0,0,0,0,0,0,0,0,,,,,,,,,,,,,,,,,47.187429178578896,52.212886555935256,52.212886555935256,52.212886555935256,52.212886555935256,l,1,1.2270428724295925,53.47962969112268,53.47962969112268,53.47962969112268,,,,,,,,,,,,,,,,,,,,,,,,,,,,108,001,2010-10-14_14h53.52.253,eb_01,2022.2.4,119.9868891046044,
,,,0,0,0,0,0,0,0,0,,,,,,,,,,,,,,,,,,,,,,,,,,,,,,,,,,,,,,,,,,,,,,,,,,,,,,,,,,,108,001,2010-10-14_14h53.52.253,eb_01,2022.2.4,119.9868891046044,
8,stimuli/8.png,l,0,0,0,0,1,0,1,0,0,0,0,0,,,,,,,,,,,,,,,,,,54.47139554047317,54.47139554047317,54.47139554047317,54.47139554047317,l,1,0.9685571302834433,55.463142675173,55.463142675173,55.463142675173,,,,,,,,,,,,,,,,,,,,,,,,,,,,108,001,2010-10-14_14h53.52.253,eb_01,2022.2.4,119.9868891046044,
,,,0,0,0,0,1,0,1,0,,,,,,,,,,,,,,,,,,,,,,,,,,,,,,,,,,,,,,,,,,,,,,,,,,,,,,,,,,,108,001,2010-10-14_14h53.52.253,eb_01,2022.2.4,119.9868891046044,
9,stimuli/9.png,l,0,0,0,0,2,0,2,0,0,0,0,0,,,,,,,,,,,,,,,,,,56.479897733413964,56.479897733413964,56.479897733413964,56.479897733413964,l,1,1.4071186969958944,57.913353215146344,57.913353215146344,57.913353215146344,,,,,,,,,,,,,,,,,,,,,,,,,,,,108,001,2010-10-14_14h53.52.253,eb_01,2022.2.4,119.9868891046044,
,,,0,0,0,0,2,0,2,0,,,,,,,,,,,,,,,,,,,,,,,,,,,,,,,,,,,,,,,,,,,,,,,,,,,,,,,,,,,108,001,2010-10-14_14h53.52.253,eb_01,2022.2.4,119.9868891046044,
8,stimuli/8.png,l,0,0,0,0,3,0,3,0,0,0,0,0,,,,,,,,,,,,,,,,,,58.91343712928938,58.91343712928938,58.91343712928938,58.91343712928938,l,1,0.6536083390383283,59.58849380152242,59.58849380152242,59.58849380152242,,,,,,,,,,,,,,,,,,,,,,,,,,,,108,001,2010-10-14_14h53.52.253,eb_01,2022.2.4,119.9868891046044,
,,,0,0,0,0,3,0,3,0,,,,,,,,,,,,,,,,,,,,,,,,,,,,,,,,,,,,,,,,,,,,,,,,,,,,,,,,,,,108,001,2010-10-14_14h53.52.253,eb_01,2022.2.4,119.9868891046044,
3,stimuli/3.png,l,0,0,0,0,4,0,4,0,0,0,0,0,,,,,,,,,,,,,,,,,,60.59691690991167,60.59691690991167,60.59691690991167,60.59691690991167,l,1,1.2261759608518332,61.838685928683844,61.838685928683844,61.838685928683844,62.84712020550796,62.84712020550796,62.84712020550796,,,,,,,,,,,,,,,,,,,,,,,,,108,001,2010-10-14_14h53.52.253,eb_01,2022.2.4,119.9868891046044,
,,,0,0,0,0,4,0,4,0,,,,,,,,,,,,,,,,,,,,,,,,,,,,,,,,,,,,,,,,,,,,,,,,,,,,,,,,,,,108,001,2010-10-14_14h53.52.253,eb_01,2022.2.4,119.9868891046044,
2,stimuli/2.png,s,0,0,0,0,5,0,5,0,0,0,0,0,,,,,,,,,,,,,,,,,,62.84712020550796,62.84712020550796,62.84712020550796,62.84712020550796,s,1,1.0320143325516256,63.888859944883734,63.888859944883734,63.888859944883734,64.89729482539406,64.89729482539406,64.89729482539406,,,,,,,,,,,,,,,,,,,,,,,,,108,001,2010-10-14_14h53.52.253,eb_01,2022.2.4,119.9868891046044,
,,,0,0,0,0,5,0,5,0,,,,,,,,,,,,,,,,,,,,,,,,,,,,,,,,,,,,,,,,,,,,,,,,,,,,,,,,,,,108,001,2010-10-14_14h53.52.253,eb_01,2022.2.4,119.9868891046044,
3,stimuli/3.png,l,0,0,0,0,6,0,6,0,0,0,0,0,,,,,,,,,,,,,,,,,,64.89729482539406,64.89729482539406,64.89729482539406,64.89729482539406,l,1,0.7178735922352644,65.63067816512194,65.63067816512194,65.63067816512194,66.64743111041025,66.64743111041025,66.64743111041025,,,,,,,,,,,,,,,,,,,,,,,,,108,001,2010-10-14_14h53.52.253,eb_01,2022.2.4,119.9868891046044,
,,,0,0,0,0,6,0,6,0,,,,,,,,,,,,,,,,,,,,,,,,,,,,,,,,,,,,,,,,,,,,,,,,,,,,,,,,,,,108,001,2010-10-14_14h53.52.253,eb_01,2022.2.4,119.9868891046044,
4,stimuli/4.png,l,0,0,0,0,7,0,7,0,0,0,0,0,,,,,,,,,,,,,,,,,,66.64743111041025,66.64743111041025,66.64743111041025,66.64743111041025,s,0,1.1197800732479664,67.79752513651329,67.79752513651329,67.79752513651329,,,,,,,,,,,,,,,,,,,,,,,,,,,,108,001,2010-10-14_14h53.52.253,eb_01,2022.2.4,119.9868891046044,
,,,0,0,0,0,7,0,7,0,,,,,,,,,,,,,,,,,,,,,,,,,,,,,,,,,,,,,,,,,,,,,,,,,,,,,,,,,,,108,001,2010-10-14_14h53.52.253,eb_01,2022.2.4,119.9868891046044,
1,stimuli/1.png,s,0,0,0,0,8,0,8,0,0,0,0,0,,,,,,,,,,,,,,,,,,68.81428049660462,68.81428049660462,68.81428049660462,68.81428049660462,s,1,0.8089708451007027,69.6560323099693,69.6560323099693,69.6560323099693,,,,,,,,,,,,,,,,,,,,,,,,,,,,108,001,2010-10-14_14h53.52.253,eb_01,2022.2.4,119.9868891046044,
,,,0,0,0,0,8,0,8,0,,,,,,,,,,,,,,,,,,,,,,,,,,,,,,,,,,,,,,,,,,,,,,,,,,,,,,,,,,,108,001,2010-10-14_14h53.52.253,eb_01,2022.2.4,119.9868891046044,
4,stimuli/4.png,l,0,0,0,0,9,0,9,0,0,0,0,0,,,,,,,,,,,,,,,,,,70.66445753129665,70.66445753129665,70.66445753129665,70.66445753129665,l,1,0.7028073815745302,71.38950167677831,71.38950167677831,71.38950167677831,,,,,,,,,,,,,,,,,,,,,,,,,,,,108,001,2010-10-14_14h53.52.253,eb_01,2022.2.4,119.9868891046044,
,,,0,0,0,0,9,0,9,0,,,,,,,,,,,,,,,,,,,,,,,,,,,,,,,,,,,,,,,,,,,,,,,,,,,,,,,,,,,108,001,2010-10-14_14h53.52.253,eb_01,2022.2.4,119.9868891046044,
2,stimuli/2.png,s,0,0,0,0,10,0,10,0,0,0,0,0,,,,,,,,,,,,,,,,,,72.39792267221492,72.39792267221492,72.39792267221492,72.39792267221492,s,1,0.8403988042118726,73.24799164480646,73.24799164480646,73.24799164480646,74.26474489195971,74.26474489195971,74.26474489195971,,,,,,,,,,,,,,,,,,,,,,,,,108,001,2010-10-14_14h53.52.253,eb_01,2022.2.4,119.9868891046044,
,,,0,0,0,0,10,0,10,0,,,,,,,,,,,,,,,,,,,,,,,,,,,,,,,,,,,,,,,,,,,,,,,,,,,,,,,,,,,108,001,2010-10-14_14h53.52.253,eb_01,2022.2.4,119.9868891046044,
4,stimuli/4.png,l,0,0,0,0,11,0,11,0,0,0,0,0,,,,,,,,,,,,,,,,,,74.26474489195971,74.26474489195971,74.26474489195971,74.26474489195971,l,1,1.965666016418254,76.24824640572479,76.24824640572479,76.24824640572479,,,,,,,,,,,,,,,,,,,,,,,,,,,,108,001,2010-10-14_14h53.52.253,eb_01,2022.2.4,119.9868891046044,
,,,0,0,0,0,11,0,11,0,,,,,,,,,,,,,,,,,,,,,,,,,,,,,,,,,,,,,,,,,,,,,,,,,,,,,,,,,,,108,001,2010-10-14_14h53.52.253,eb_01,2022.2.4,119.9868891046044,
1,stimuli/1.png,s,0,0,0,0,12,0,12,0,0,0,0,0,,,,,,,,,,,,,,,,,,77.27333492306934,77.27333492306934,77.27333492306934,77.27333492306934,s,1,1.2931346165423747,78.59845271981612,78.59845271981612,78.59845271981612,,,,,,,,,,,,,,,,,,,,,,,,,,,,108,001,2010-10-14_14h53.52.253,eb_01,2022.2.4,119.9868891046044,
,,,0,0,0,0,12,0,12,0,,,,,,,,,,,,,,,,,,,,,,,,,,,,,,,,,,,,,,,,,,,,,,,,,,,,,,,,,,,108,001,2010-10-14_14h53.52.253,eb_01,2022.2.4,119.9868891046044,
2,stimuli/2.png,s,0,0,0,0,13,0,13,0,0,0,0,0,,,,,,,,,,,,,,,,,,79.59852425813733,79.59852425813733,79.59852425813733,79.59852425813733,s,1,0.6479383993137162,80.25692548243387,80.25692548243387,80.25692548243387,81.28200856648618,81.28200856648618,81.28200856648618,,,,,,,,,,,,,,,,,,,,,,,,,108,001,2010-10-14_14h53.52.253,eb_01,2022.2.4,119.9868891046044,
,,,0,0,0,0,13,0,13,0,,,,,,,,,,,,,,,,,,,,,,,,,,,,,,,,,,,,,,,,,,,,,,,,,,,,,,,,,,,108,001,2010-10-14_14h53.52.253,eb_01,2022.2.4,119.9868891046044,
1,stimuli/1.png,s,0,0,0,0,14,0,14,0,0,0,0,0,,,,,,,,,,,,,,,,,,81.28200856648618,81.28200856648618,81.28200856648618,81.28200856648618,s,1,0.7004692558693932,82.01540911162738,82.01540911162738,82.01540911162738,,,,,,,,,,,,,,,,,,,,,,,,,,,,108,001,2010-10-14_14h53.52.253,eb_01,2022.2.4,119.9868891046044,
,,,0,0,0,0,14,0,14,0,,,,,,,,,,,,,,,,,,,,,,,,,,,,,,,,,,,,,,,,,,,,,,,,,,,,,,,,,,,108,001,2010-10-14_14h53.52.253,eb_01,2022.2.4,119.9868891046044,
2,stimuli/2.png,s,0,0,0,0,15,0,15,0,0,0,0,0,,,,,,,,,,,,,,,,,,83.01549393132154,83.01549393132154,83.01549393132154,83.01549393132154,s,1,0.47103863445227034,83.49886625353247,83.49886625353247,83.49886625353247,84.50729539891472,84.50729539891472,84.50729539891472,,,,,,,,,,,,,,,,,,,,,,,,,108,001,2010-10-14_14h53.52.253,eb_01,2022.2.4,119.9868891046044,
,,,0,0,0,0,15,0,15,0,,,,,,,,,,,,,,,,,,,,,,,,,,,,,,,,,,,,,,,,,,,,,,,,,,,,,,,,,,,108,001,2010-10-14_14h53.52.253,eb_01,2022.2.4,119.9868891046044,
3,stimuli/3.png,l,0,0,0,0,16,0,16,0,0,0,0,0,,,,,,,,,,,,,,,,,,84.50729539891472,84.50729539891472,84.50729539891472,84.50729539891472,l,1,0.6432929365691962,85.16570296205464,85.16570296205464,85.16570296205464,86.1824266279582,86.1824266279582,86.1824266279582,,,,,,,,,,,,,,,,,,,,,,,,,108,001,2010-10-14_14h53.52.253,eb_01,2022.2.4,119.9868891046044,
,,,0,0,0,0,16,0,16,0,,,,,,,,,,,,,,,,,,,,,,,,,,,,,,,,,,,,,,,,,,,,,,,,,,,,,,,,,,,108,001,2010-10-14_14h53.52.253,eb_01,2022.2.4,119.9868891046044,
4,stimuli/4.png,l,0,0,0,0,17,0,17,0,0,0,0,0,,,,,,,,,,,,,,,,,,86.1824266279582,86.1824266279582,86.1824266279582,86.1824266279582,s,0,0.6081721515074605,86.80748284740548,86.80748284740548,86.80748284740548,,,,,,,,,,,,,,,,,,,,,,,,,,,,108,001,2010-10-14_14h53.52.253,eb_01,2022.2.4,119.9868891046044,
,,,0,0,0,0,17,0,17,0,,,,,,,,,,,,,,,,,,,,,,,,,,,,,,,,,,,,,,,,,,,,,,,,,,,,,,,,,,,108,001,2010-10-14_14h53.52.253,eb_01,2022.2.4,119.9868891046044,
1,stimuli/1.png,s,0,0,0,0,18,0,18,0,0,0,0,0,,,,,,,,,,,,,,,,,,87.83257800544379,87.83257800544379,87.83257800544379,87.83257800544379,s,1,0.5970185131736798,88.45763513044221,88.45763513044221,88.45763513044221,,,,,,,,,,,,,,,,,,,,,,,,,,,,108,001,2010-10-14_14h53.52.253,eb_01,2022.2.4,119.9868891046044,
,,,0,0,0,0,18,0,18,0,,,,,,,,,,,,,,,,,,,,,,,,,,,,,,,,,,,,,,,,,,,,,,,,,,,,,,,,,,,108,001,2010-10-14_14h53.52.253,eb_01,2022.2.4,119.9868891046044,
2,stimuli/2.png,s,0,0,0,0,19,0,19,0,0,0,0,0,,,,,,,,,,,,,,,,,,89.45773775925045,89.45773775925045,89.45773775925045,89.45773775925045,s,1,0.5879056788398884,90.05776462385256,90.05776462385256,90.05776462385256,91.08284016167454,91.08284016167454,91.08284016167454,,,,,,,,,,,,,,,,,,,,,,,,,108,001,2010-10-14_14h53.52.253,eb_01,2022.2.4,119.9868891046044,
,,,0,0,0,0,19,0,19,0,,,,,,,,,,,,,,,,,,,,,,,,,,,,,,,,,,,,,,,,,,,,,,,,,,,,,,,,,,,108,001,2010-10-14_14h53.52.253,eb_01,2022.2.4,119.9868891046044,
1,stimuli/1.png,s,0,0,0,0,20,0,20,0,0,0,0,0,,,,,,,,,,,,,,,,,,91.08284016167454,91.08284016167454,91.08284016167454,91.08284016167454,s,1,0.5948548564483644,91.7079027199652,91.7079027199652,91.7079027199652,,,,,,,,,,,,,,,,,,,,,,,,,,,,108,001,2010-10-14_14h53.52.253,eb_01,2022.2.4,119.9868891046044,
,,,0,0,0,0,20,0,20,0,,,,,,,,,,,,,,,,,,,,,,,,,,,,,,,,,,,,,,,,,,,,,,,,,,,,,,,,,,,108,001,2010-10-14_14h53.52.253,eb_01,2022.2.4,119.9868891046044,
2,stimuli/2.png,s,0,0,0,0,21,0,21,0,0,0,0,0,,,,,,,,,,,,,,,,,,92.70798904891126,92.70798904891126,92.70798904891126,92.70798904891126,s,1,0.425724997810903,93.14971007363056,93.14971007363056,93.14971007363056,94.1664452098048,94.1664452098048,94.1664452098048,,,,,,,,,,,,,,,,,,,,,,,,,108,001,2010-10-14_14h53.52.253,eb_01,2022.2.4,119.9868891046044,
,,,0,0,0,0,21,0,21,0,,,,,,,,,,,,,,,,,,,,,,,,,,,,,,,,,,,,,,,,,,,,,,,,,,,,,,,,,,,108,001,2010-10-14_14h53.52.253,eb_01,2022.2.4,119.9868891046044,
1,stimuli/1.png,s,0,0,0,0,22,0,22,0,0,0,0,0,,,,,,,,,,,,,,,,,,94.1664452098048,94.1664452098048,94.1664452098048,94.1664452098048,s,1,0.3913035978912376,94.5831459351466,94.5831459351466,94.5831459351466,,,,,,,,,,,,,,,,,,,,,,,,,,,,108,001,2010-10-14_14h53.52.253,eb_01,2022.2.4,119.9868891046044,
,,,0,0,0,0,22,0,22,0,,,,,,,,,,,,,,,,,,,,,,,,,,,,,,,,,,,,,,,,,,,,,,,,,,,,,,,,,,,108,001,2010-10-14_14h53.52.253,eb_01,2022.2.4,119.9868891046044,
4,stimuli/4.png,l,0,0,0,0,23,0,23,0,0,0,0,0,,,,,,,,,,,,,,,,,,95.59156632688246,95.59156632688246,95.59156632688246,95.59156632688246,l,1,0.5342078723770101,96.14993766808766,96.14993766808766,96.14993766808766,,,,,,,,,,,,,,,,,,,,,,,,,,,,108,001,2010-10-14_14h53.52.253,eb_01,2022.2.4,119.9868891046044,
,,,0,0,0,0,23,0,23,0,,,,,,,,,,,,,,,,,,,,,,,,,,,,,,,,,,,,,,,,,,,,,,,,,,,,,,,,,,,108,001,2010-10-14_14h53.52.253,eb_01,2022.2.4,119.9868891046044,
2,stimuli/2.png,s,0,0,0,0,24,0,24,0,0,0,0,0,,,,,,,,,,,,,,,,,,97.15836711532029,97.15836711532029,97.15836711532029,97.15836711532029,s,1,0.5594406737509416,97.73340597843344,97.73340597843344,97.73340597843344,98.75016888475511,98.75016888475511,98.75016888475511,,,,,,,,,,,,,,,,,,,,,,,,,108,001,2010-10-14_14h53.52.253,eb_01,2022.2.4,119.9868891046044,
,,,0,0,0,0,24,0,24,0,,,,,,,,,,,,,,,,,,,,,,,,,,,,,,,,,,,,,,,,,,,,,,,,,,,,,,,,,,,108,001,2010-10-14_14h53.52.253,eb_01,2022.2.4,119.9868891046044,
4,stimuli/4.png,l,0,0,0,0,25,0,25,0,0,0,0,0,,,,,,,,,,,,,,,,,,98.75016888475511,98.75016888475511,98.75016888475511,98.75016888475511,l,1,0.4876663122267928,99.25854641388287,99.25854641388287,99.25854641388287,,,,,,,,,,,,,,,,,,,,,,,,,,,,108,001,2010-10-14_14h53.52.253,eb_01,2022.2.4,119.9868891046044,
,,,0,0,0,0,25,0,25,0,,,,,,,,,,,,,,,,,,,,,,,,,,,,,,,,,,,,,,,,,,,,,,,,,,,,,,,,,,,108,001,2010-10-14_14h53.52.253,eb_01,2022.2.4,119.9868891046044,
3,stimuli/3.png,l,0,0,0,0,26,0,26,0,0,0,0,0,,,,,,,,,,,,,,,,,,100.2669637871295,100.2669637871295,100.2669637871295,100.2669637871295,l,1,0.6509004477848066,100.93368881134666,100.93368881134666,100.93368881134666,101.94211010863364,101.94211010863364,101.94211010863364,,,,,,,,,,,,,,,,,,,,,,,,,108,001,2010-10-14_14h53.52.253,eb_01,2022.2.4,119.9868891046044,
,,,0,0,0,0,26,0,26,0,,,,,,,,,,,,,,,,,,,,,,,,,,,,,,,,,,,,,,,,,,,,,,,,,,,,,,,,,,,108,001,2010-10-14_14h53.52.253,eb_01,2022.2.4,119.9868891046044,
2,stimuli/2.png,s,0,0,0,0,27,0,27,0,0,0,0,0,,,,,,,,,,,,,,,,,,101.94211010863364,101.94211010863364,101.94211010863364,101.94211010863364,s,1,0.6477874745905865,102.6004983534076,102.6004983534076,102.6004983534076,103.60893715797283,103.60893715797283,103.60893715797283,,,,,,,,,,,,,,,,,,,,,,,,,108,001,2010-10-14_14h53.52.253,eb_01,2022.2.4,119.9868891046044,
,,,0,0,0,0,27,0,27,0,,,,,,,,,,,,,,,,,,,,,,,,,,,,,,,,,,,,,,,,,,,,,,,,,,,,,,,,,,,108,001,2010-10-14_14h53.52.253,eb_01,2022.2.4,119.9868891046044,
3,stimuli/3.png,l,0,0,0,0,28,0,28,0,0,0,0,0,,,,,,,,,,,,,,,,,,103.60893715797283,103.60893715797283,103.60893715797283,103.60893715797283,l,1,0.5320381786732469,104.15062829959788,104.15062829959788,104.15062829959788,105.16738275413809,105.16738275413809,105.16738275413809,,,,,,,,,,,,,,,,,,,,,,,,,108,001,2010-10-14_14h53.52.253,eb_01,2022.2.4,119.9868891046044,
,,,0,0,0,0,28,0,28,0,,,,,,,,,,,,,,,,,,,,,,,,,,,,,,,,,,,,,,,,,,,,,,,,,,,,,,,,,,,108,001,2010-10-14_14h53.52.253,eb_01,2022.2.4,119.9868891046044,
4,stimuli/4.png,l,0,0,0,0,29,0,29,0,0,0,0,0,,,,,,,,,,,,,,,,,,105.16738275413809,105.16738275413809,105.16738275413809,105.16738275413809,l,1,0.6695951904839603,105.85912505924352,105.85912505924352,105.85912505924352,,,,,,,,,,,,,,,,,,,,,,,,,,,,108,001,2010-10-14_14h53.52.253,eb_01,2022.2.4,119.9868891046044,
,,,0,0,0,0,29,0,29,0,,,,,,,,,,,,,,,,,,,,,,,,,,,,,,,,,,,,,,,,,,,,,,,,,,,,,,,,,,,108,001,2010-10-14_14h53.52.253,eb_01,2022.2.4,119.9868891046044,
3,stimuli/3.png,l,0,0,0,0,30,0,30,0,0,0,0,0,,,,,,,,,,,,,,,,,,106.86752854741644,106.86752854741644,106.86752854741644,106.86752854741644,l,1,0.5774797994672554,107.4675756359211,107.4675756359211,107.4675756359211,,,,,,,,,,,,,,,,,,,,,,,,,,,,108,001,2010-10-14_14h53.52.253,eb_01,2022.2.4,119.9868891046044,
,,,0,0,0,0,30,0,30,0,,,,,,,,,,,,,,,,,,,,,,,,,,,,,,,,,,,,,,,,,,,,,,,,,,,,,,,,,,,108,001,2010-10-14_14h53.52.253,eb_01,2022.2.4,119.9868891046044,
4,stimuli/4.png,l,0,0,0,0,31,0,31,0,0,0,0,0,,,,,,,,,,,,,,,,,,108.48433099601243,108.48433099601243,108.48433099601243,108.48433099601243,l,1,0.6006905115064001,109.10937695259054,109.10937695259054,109.10937695259054,,,,,,,,,,,,,,,,,,,,,,,,,,,,108,001,2010-10-14_14h53.52.253,eb_01,2022.2.4,119.9868891046044,
,,,0,0,0,0,31,0,31,0,,,,,,,,,,,,,,,,,,,,,,,,,,,,,,,,,,,,,,,,,,,,,,,,,,,,,,,,,,,108,001,2010-10-14_14h53.52.253,eb_01,2022.2.4,119.9868891046044,
3,stimuli/3.png,l,0,0,0,0,32,0,32,0,0,0,0,0,,,,,,,,,,,,,,,,,,110.11780700350937,110.11780700350937,110.11780700350937,110.11780700350937,l,1,0.45527062386099715,110.59283801853599,110.59283801853599,110.59283801853599,,,,,,,,,,,,,,,,,,,,,,,,,,,,108,001,2010-10-14_14h53.52.253,eb_01,2022.2.4,119.9868891046044,
,,,0,0,0,0,32,0,32,0,,,,,,,,,,,,,,,,,,,,,,,,,,,,,,,,,,,,,,,,,,,,,,,,,,,,,,,,,,,108,001,2010-10-14_14h53.52.253,eb_01,2022.2.4,119.9868891046044,
8,stimuli/8.png,l,0,0,0,0,33,0,33,0,0,0,0,0,,,,,,,,,,,,,,,,,,111.60127591755008,111.60127591755008,111.60127591755008,111.60127591755008,l,1,0.6278343216254143,112.25132104403747,112.25132104403747,112.25132104403747,,,,,,,,,,,,,,,,,,,,,,,,,,,,108,001,2010-10-14_14h53.52.253,eb_01,2022.2.4,119.9868891046044,
,,,0,0,0,0,33,0,33,0,,,,,,,,,,,,,,,,,,,,,,,,,,,,,,,,,,,,,,,,,,,,,,,,,,,,,,,,,,,108,001,2010-10-14_14h53.52.253,eb_01,2022.2.4,119.9868891046044,
3,stimuli/3.png,l,0,0,0,0,34,0,34,0,0,0,0,0,,,,,,,,,,,,,,,,,,113.25974294502521,113.25974294502521,113.25974294502521,113.25974294502521,l,1,0.489401946470025,113.76812771853292,113.76812771853292,113.76812771853292,,,,,,,,,,,,,,,,,,,,,,,,,,,,108,001,2010-10-14_14h53.52.253,eb_01,2022.2.4,119.9868891046044,
,,,0,0,0,0,34,0,34,0,,,,,,,,,,,,,,,,,,,,,,,,,,,,,,,,,,,,,,,,,,,,,,,,,,,,,,,,,,,108,001,2010-10-14_14h53.52.253,eb_01,2022.2.4,119.9868891046044,
4,stimuli/4.png,l,0,0,0,0,35,0,35,0,0,0,0,0,,,,,,,,,,,,,,,,,,114.78487070280244,114.78487070280244,114.78487070280244,114.78487070280244,s,0,0.6122839444578858,115.41826762574783,115.41826762574783,115.41826762574783,,,,,,,,,,,,,,,,,,,,,,,,,,,,108,001,2010-10-14_14h53.52.253,eb_01,2022.2.4,119.9868891046044,
,,,0,0,0,0,35,0,35,0,,,,,,,,,,,,,,,,,,,,,,,,,,,,,,,,,,,,,,,,,,,,,,,,,,,,,,,,,,,108,001,2010-10-14_14h53.52.253,eb_01,2022.2.4,119.9868891046044,
3,stimuli/3.png,l,0,0,0,0,36,0,36,0,0,0,0,0,,,,,,,,,,,,,,,,,,116.42667896200146,116.42667896200146,116.42667896200146,116.42667896200146,l,1,0.4425171835318906,116.8933855734067,116.8933855734067,116.8933855734067,,,,,,,,,,,,,,,,,,,,,,,,,,,,108,001,2010-10-14_14h53.52.253,eb_01,2022.2.4,119.9868891046044,
,,,0,0,0,0,36,0,36,0,,,,,,,,,,,,,,,,,,,,,,,,,,,,,,,,,,,,,,,,,,,,,,,,,,,,,,,,,,,108,001,2010-10-14_14h53.52.253,eb_01,2022.2.4,119.9868891046044,
4,stimuli/4.png,l,0,0,0,0,37,0,37,0,0,0,0,0,,,,,,,,,,,,,,,,,,117.91012916137697,117.91012916137697,117.91012916137697,117.91012916137697,l,1,0.35913942802289966,118.29350027619512,118.29350027619512,118.29350027619512,,,,,,,,,,,,,,,,,,,,,,,,,,,,108,001,2010-10-14_14h53.52.253,eb_01,2022.2.4,119.9868891046044,
,,,0,0,0,0,37,0,37,0,,,,,,,,,,,,,,,,,,,,,,,,,,,,,,,,,,,,,,,,,,,,,,,,,,,,,,,,,,,108,001,2010-10-14_14h53.52.253,eb_01,2022.2.4,119.9868891046044,
3,stimuli/3.png,l,0,0,0,0,38,0,38,0,0,0,0,0,,,,,,,,,,,,,,,,,,119.30192700677435,119.30192700677435,119.30192700677435,119.30192700677435,l,1,0.49433507172216196,119.81030121554795,119.81030121554795,119.81030121554795,120.8270517460478,120.8270517460478,120.8270517460478,,,,,,,,,,,,,,,,,,,,,,,,,108,001,2010-10-14_14h53.52.253,eb_01,2022.2.4,119.9868891046044,
,,,0,0,0,0,38,0,38,0,,,,,,,,,,,,,,,,,,,,,,,,,,,,,,,,,,,,,,,,,,,,,,,,,,,,,,,,,,,108,001,2010-10-14_14h53.52.253,eb_01,2022.2.4,119.9868891046044,
4,stimuli/4.png,l,0,0,0,0,39,0,39,0,0,0,0,0,,,,,,,,,,,,,,,,,,120.8270517460478,120.8270517460478,120.8270517460478,120.8270517460478,l,1,0.793245697117527,121.6437923155172,121.6437923155172,121.6437923155172,,,,,,,,,,,,,,,,,,,,,,,,,,,,108,001,2010-10-14_14h53.52.253,eb_01,2022.2.4,119.9868891046044,
,,,0,0,0,0,39,0,39,0,,,,,,,,,,,,,,,,,,,,,,,,,,,,,,,,,,,,,,,,,,,,,,,,,,,,,,,,,,,108,001,2010-10-14_14h53.52.253,eb_01,2022.2.4,119.9868891046044,
3,stimuli/3.png,l,0,0,0,0,40,0,40,0,0,0,0,0,,,,,,,,,,,,,,,,,,122.65220968876383,122.65220968876383,122.65220968876383,122.65220968876383,l,1,0.48812361412274186,123.16058299200085,123.16058299200085,123.16058299200085,,,,,,,,,,,,,,,,,,,,,,,,,,,,108,001,2010-10-14_14h53.52.253,eb_01,2022.2.4,119.9868891046044,
,,,0,0,0,0,40,0,40,0,,,,,,,,,,,,,,,,,,,,,,,,,,,,,,,,,,,,,,,,,,,,,,,,,,,,,,,,,,,108,001,2010-10-14_14h53.52.253,eb_01,2022.2.4,119.9868891046044,
2,stimuli/2.png,s,0,0,0,0,41,0,41,0,0,0,0,0,,,,,,,,,,,,,,,,,,124.16900730777706,124.16900730777706,124.16900730777706,124.16900730777706,s,1,0.7473516040190589,124.92740400433831,124.92740400433831,124.92740400433831,125.93582650902681,125.93582650902681,125.93582650902681,,,,,,,,,,,,,,,,,,,,,,,,,108,001,2010-10-14_14h53.52.253,eb_01,2022.2.4,119.9868891046044,
,,,0,0,0,0,41,0,41,0,,,,,,,,,,,,,,,,,,,,,,,,,,,,,,,,,,,,,,,,,,,,,,,,,,,,,,,,,,,108,001,2010-10-14_14h53.52.253,eb_01,2022.2.4,119.9868891046044,
3,stimuli/3.png,l,0,0,0,0,42,0,42,0,0,0,0,0,,,,,,,,,,,,,,,,,,125.93582650902681,125.93582650902681,125.93582650902681,125.93582650902681,l,1,0.5325612837332301,126.48585684489808,126.48585684489808,126.48585684489808,,,,,,,,,,,,,,,,,,,,,,,,,,,,108,001,2010-10-14_14h53.52.253,eb_01,2022.2.4,119.9868891046044,
,,,0,0,0,0,42,0,42,0,,,,,,,,,,,,,,,,,,,,,,,,,,,,,,,,,,,,,,,,,,,,,,,,,,,,,,,,,,,108,001,2010-10-14_14h53.52.253,eb_01,2022.2.4,119.9868891046044,
4,stimuli/4.png,l,0,0,0,0,43,0,43,0,0,0,0,0,,,,,,,,,,,,,,,,,,127.50262337340973,127.50262337340973,127.50262337340973,127.50262337340973,l,1,0.6377902214298956,128.16101373113634,128.16101373113634,128.16101373113634,,,,,,,,,,,,,,,,,,,,,,,,,,,,108,001,2010-10-14_14h53.52.253,eb_01,2022.2.4,119.9868891046044,
,,,0,0,0,0,43,0,43,0,,,,,,,,,,,,,,,,,,,,,,,,,,,,,,,,,,,,,,,,,,,,,,,,,,,,,,,,,,,108,001,2010-10-14_14h53.52.253,eb_01,2022.2.4,119.9868891046044,
3,stimuli/3.png,l,0,0,0,0,44,0,44,0,0,0,0,0,,,,,,,,,,,,,,,,,,129.16943683951104,129.16943683951104,129.16943683951104,129.16943683951104,l,1,0.46704456278530415,129.65280885988614,129.65280885988614,129.65280885988614,130.6695744828612,130.6695744828612,130.6695744828612,,,,,,,,,,,,,,,,,,,,,,,,,108,001,2010-10-14_14h53.52.253,eb_01,2022.2.4,119.9868891046044,
,,,0,0,0,0,44,0,44,0,,,,,,,,,,,,,,,,,,,,,,,,,,,,,,,,,,,,,,,,,,,,,,,,,,,,,,,,,,,108,001,2010-10-14_14h53.52.253,eb_01,2022.2.4,119.9868891046044,
4,stimuli/4.png,l,0,0,0,0,45,0,45,0,0,0,0,0,,,,,,,,,,,,,,,,,,130.6695744828612,130.6695744828612,130.6695744828612,130.6695744828612,l,1,0.3589045891567366,131.05293774959864,131.05293774959864,131.05293774959864,,,,,,,,,,,,,,,,,,,,,,,,,,,,108,001,2010-10-14_14h53.52.253,eb_01,2022.2.4,119.9868891046044,
,,,0,0,0,0,45,0,45,0,,,,,,,,,,,,,,,,,,,,,,,,,,,,,,,,,,,,,,,,,,,,,,,,,,,,,,,,,,,108,001,2010-10-14_14h53.52.253,eb_01,2022.2.4,119.9868891046044,
2,stimuli/2.png,s,0,0,0,0,46,0,46,0,0,0,0,0,,,,,,,,,,,,,,,,,,132.06134787845076,132.06134787845076,132.06134787845076,132.06134787845076,s,1,0.4231622961378889,132.49471793680277,132.49471793680277,132.49471793680277,133.51980283195735,133.51980283195735,133.51980283195735,,,,,,,,,,,,,,,,,,,,,,,,,108,001,2010-10-14_14h53.52.253,eb_01,2022.2.4,119.9868891046044,
,,,0,0,0,0,46,0,46,0,,,,,,,,,,,,,,,,,,,,,,,,,,,,,,,,,,,,,,,,,,,,,,,,,,,,,,,,,,,108,001,2010-10-14_14h53.52.253,eb_01,2022.2.4,119.9868891046044,
1,stimuli/1.png,s,0,0,0,0,47,0,47,0,0,0,0,0,,,,,,,,,,,,,,,,,,133.51980283195735,133.51980283195735,133.51980283195735,133.51980283195735,s,1,0.500744844408473,134.05318466243625,134.05318466243625,134.05318466243625,,,,,,,,,,,,,,,,,,,,,,,,,,,,108,001,2010-10-14_14h53.52.253,eb_01,2022.2.4,119.9868891046044,
,,,0,0,0,0,47,0,47,0,,,,,,,,,,,,,,,,,,,,,,,,,,,,,,,,,,,,,,,,,,,,,,,,,,,,,,,,,,,108,001,2010-10-14_14h53.52.253,eb_01,2022.2.4,119.9868891046044,
2,stimuli/2.png,s,0,0,0,0,48,0,48,0,0,0,0,0,,,,,,,,,,,,,,,,,,135.05327763204696,135.05327763204696,135.05327763204696,135.05327763204696,s,1,0.3582990791910561,135.4199718676391,135.4199718676391,135.4199718676391,136.43672571847856,136.43672571847856,136.43672571847856,,,,,,,,,,,,,,,,,,,,,,,,,108,001,2010-10-14_14h53.52.253,eb_01,2022.2.4,119.9868891046044,
,,,0,0,0,0,48,0,48,0,,,,,,,,,,,,,,,,,,,,,,,,,,,,,,,,,,,,,,,,,,,,,,,,,,,,,,,,,,,108,001,2010-10-14_14h53.52.253,eb_01,2022.2.4,119.9868891046044,
4,stimuli/4.png,l,0,0,0,0,49,0,49,0,0,0,0,0,,,,,,,,,,,,,,,,,,136.43672571847856,136.43672571847856,136.43672571847856,136.43672571847856,l,1,0.5108800427697133,136.97010000271257,136.97010000271257,136.97010000271257,,,,,,,,,,,,,,,,,,,,,,,,,,,,108,001,2010-10-14_14h53.52.253,eb_01,2022.2.4,119.9868891046044,
,,,0,0,0,0,49,0,49,0,,,,,,,,,,,,,,,,,,,,,,,,,,,,,,,,,,,,,,,,,,,,,,,,,,,,,,,,,,,108,001,2010-10-14_14h53.52.253,eb_01,2022.2.4,119.9868891046044,
3,stimuli/3.png,l,0,0,0,0,50,0,50,0,0,0,0,0,,,,,,,,,,,,,,,,,,137.97852039446298,137.97852039446298,137.97852039446298,137.97852039446298,l,1,0.6251243174338015,138.62023840069014,138.62023840069014,138.62023840069014,,,,,,,,,,,,,,,,,,,,,,,,,,,,108,001,2010-10-14_14h53.52.253,eb_01,2022.2.4,119.9868891046044,
,,,0,0,0,0,50,0,50,0,,,,,,,,,,,,,,,,,,,,,,,,,,,,,,,,,,,,,,,,,,,,,,,,,,,,,,,,,,,108,001,2010-10-14_14h53.52.253,eb_01,2022.2.4,119.9868891046044,
4,stimuli/4.png,l,0,0,0,0,51,0,51,0,0,0,0,0,,,,,,,,,,,,,,,,,,139.63699285523035,139.63699285523035,139.63699285523035,139.63699285523035,l,1,0.6146818363486091,140.27038464673387,140.27038464673387,140.27038464673387,,,,,,,,,,,,,,,,,,,,,,,,,,,,108,001,2010-10-14_14h53.52.253,eb_01,2022.2.4,119.9868891046044,
,,,0,0,0,0,51,0,51,0,,,,,,,,,,,,,,,,,,,,,,,,,,,,,,,,,,,,,,,,,,,,,,,,,,,,,,,,,,,108,001,2010-10-14_14h53.52.253,eb_01,2022.2.4,119.9868891046044,
2,stimuli/2.png,s,0,0,0,0,52,0,52,0,0,0,0,0,,,,,,,,,,,,,,,,,,141.27880171813013,141.27880171813013,141.27880171813013,141.27880171813013,s,1,0.5729043657920556,141.8621864161687,141.8621864161687,141.8621864161687,142.8789390596212,142.8789390596212,142.8789390596212,,,,,,,,,,,,,,,,,,,,,,,,,108,001,2010-10-14_14h53.52.253,eb_01,2022.2.4,119.9868891046044,
,,,0,0,0,0,52,0,52,0,,,,,,,,,,,,,,,,,,,,,,,,,,,,,,,,,,,,,,,,,,,,,,,,,,,,,,,,,,,108,001,2010-10-14_14h53.52.253,eb_01,2022.2.4,119.9868891046044,
4,stimuli/4.png,l,0,0,0,0,53,0,53,0,0,0,0,0,,,,,,,,,,,,,,,,,,142.8789390596212,142.8789390596212,142.8789390596212,142.8789390596212,l,1,0.6687992135266541,143.57066597040102,143.57066597040102,143.57066597040102,,,,,,,,,,,,,,,,,,,,,,,,,,,,108,001,2010-10-14_14h53.52.253,eb_01,2022.2.4,119.9868891046044,
,,,0,0,0,0,53,0,53,0,,,,,,,,,,,,,,,,,,,,,,,,,,,,,,,,,,,,,,,,,,,,,,,,,,,,,,,,,,,108,001,2010-10-14_14h53.52.253,eb_01,2022.2.4,119.9868891046044,
2,stimuli/2.png,s,0,0,0,0,54,0,54,0,0,0,0,0,,,,,,,,,,,,,,,,,,144.57908575845067,144.57908575845067,144.57908575845067,144.57908575845067,s,1,0.5846813232055865,145.17913858209795,145.17913858209795,145.17913858209795,146.20422287355177,146.20422287355177,146.20422287355177,,,,,,,,,,,,,,,,,,,,,,,,,108,001,2010-10-14_14h53.52.253,eb_01,2022.2.4,119.9868891046044,
,,,0,0,0,0,54,0,54,0,,,,,,,,,,,,,,,,,,,,,,,,,,,,,,,,,,,,,,,,,,,,,,,,,,,,,,,,,,,108,001,2010-10-14_14h53.52.253,eb_01,2022.2.4,119.9868891046044,
1,stimuli/1.png,s,0,0,0,0,55,0,55,0,0,0,0,0,,,,,,,,,,,,,,,,,,146.20422287355177,146.20422287355177,146.20422287355177,146.20422287355177,s,1,1.2155934216425521,147.44599672191544,147.44599672191544,147.44599672191544,,,,,,,,,,,,,,,,,,,,,,,,,,,,108,001,2010-10-14_14h53.52.253,eb_01,2022.2.4,119.9868891046044,
,,,0,0,0,0,55,0,55,0,,,,,,,,,,,,,,,,,,,,,,,,,,,,,,,,,,,,,,,,,,,,,,,,,,,,,,,,,,,108,001,2010-10-14_14h53.52.253,eb_01,2022.2.4,119.9868891046044,
2,stimuli/2.png,s,0,0,0,0,56,0,56,0,0,0,0,0,,,,,,,,,,,,,,,,,,148.4460827490111,148.4460827490111,148.4460827490111,148.4460827490111,s,1,0.493767896638019,148.9544590707228,148.9544590707228,148.9544590707228,149.96288187726168,149.96288187726168,149.96288187726168,,,,,,,,,,,,,,,,,,,,,,,,,108,001,2010-10-14_14h53.52.253,eb_01,2022.2.4,119.9868891046044,
,,,0,0,0,0,56,0,56,0,,,,,,,,,,,,,,,,,,,,,,,,,,,,,,,,,,,,,,,,,,,,,,,,,,,,,,,,,,,108,001,2010-10-14_14h53.52.253,eb_01,2022.2.4,119.9868891046044,
3,stimuli/3.png,l,0,0,0,0,57,0,57,0,0,0,0,0,,,,,,,,,,,,,,,,,,149.96288187726168,149.96288187726168,149.96288187726168,149.96288187726168,l,1,0.5120017152512446,150.48792692829738,150.48792692829738,150.48792692829738,151.50467625139572,151.50467625139572,151.50467625139572,,,,,,,,,,,,,,,,,,,,,,,,,108,001,2010-10-14_14h53.52.253,eb_01,2022.2.4,119.9868891046044,
,,,0,0,0,0,57,0,57,0,,,,,,,,,,,,,,,,,,,,,,,,,,,,,,,,,,,,,,,,,,,,,,,,,,,,,,,,,,,108,001,2010-10-14_14h53.52.253,eb_01,2022.2.4,119.9868891046044,
4,stimuli/4.png,l,0,0,0,0,58,0,58,0,0,0,0,0,,,,,,,,,,,,,,,,,,151.50467625139572,151.50467625139572,151.50467625139572,151.50467625139572,l,1,0.5622575326415244,152.08806638272654,152.08806638272654,152.08806638272654,,,,,,,,,,,,,,,,,,,,,,,,,,,,108,001,2010-10-14_14h53.52.253,eb_01,2022.2.4,119.9868891046044,
,,,0,0,0,0,58,0,58,0,,,,,,,,,,,,,,,,,,,,,,,,,,,,,,,,,,,,,,,,,,,,,,,,,,,,,,,,,,,108,001,2010-10-14_14h53.52.253,eb_01,2022.2.4,119.9868891046044,
3,stimuli/3.png,l,0,0,0,0,59,0,59,0,0,0,0,0,,,,,,,,,,,,,,,,,,153.09648194488545,153.09648194488545,153.09648194488545,153.09648194488545,l,1,0.5224384611938149,153.62985170137836,153.62985170137836,153.62985170137836,154.6466137021489,154.6466137021489,154.6466137021489,,,,,,,,,,,,,,,,,,,,,,,,,108,001,2010-10-14_14h53.52.253,eb_01,2022.2.4,119.9868891046044,
,,,0,0,0,0,59,0,59,0,,,,,,,,,,,,,,,,,,,,,,,,,,,,,,,,,,,,,,,,,,,,,,,,,,,,,,,,,,,108,001,2010-10-14_14h53.52.253,eb_01,2022.2.4,119.9868891046044,
4,stimuli/4.png,l,0,0,0,0,60,0,60,0,0,0,0,0,,,,,,,,,,,,,,,,,,154.6466137021489,154.6466137021489,154.6466137021489,154.6466137021489,l,1,0.8843589480093215,155.5550259439624,155.5550259439624,155.5550259439624,,,,,,,,,,,,,,,,,,,,,,,,,,,,108,001,2010-10-14_14h53.52.253,eb_01,2022.2.4,119.9868891046044,
,,,0,0,0,0,60,0,60,0,,,,,,,,,,,,,,,,,,,,,,,,,,,,,,,,,,,,,,,,,,,,,,,,,,,,,,,,,,,108,001,2010-10-14_14h53.52.253,eb_01,2022.2.4,119.9868891046044,
2,stimuli/2.png,s,0,0,0,0,61,0,61,0,0,0,0,0,,,,,,,,,,,,,,,,,,156.5634457319975,156.5634457319975,156.5634457319975,156.5634457319975,s,1,0.6155744051211514,157.18849953667086,157.18849953667086,157.18849953667086,158.20524674681656,158.20524674681656,158.20524674681656,,,,,,,,,,,,,,,,,,,,,,,,,108,001,2010-10-14_14h53.52.253,eb_01,2022.2.4,119.9868891046044,
,,,0,0,0,0,61,0,61,0,,,,,,,,,,,,,,,,,,,,,,,,,,,,,,,,,,,,,,,,,,,,,,,,,,,,,,,,,,,108,001,2010-10-14_14h53.52.253,eb_01,2022.2.4,119.9868891046044,
4,stimuli/4.png,l,0,0,0,0,62,0,62,0,0,0,0,0,,,,,,,,,,,,,,,,,,158.20524674681656,158.20524674681656,158.20524674681656,158.20524674681656,l,1,0.7017949785804376,158.9303132291534,158.9303132291534,158.9303132291534,,,,,,,,,,,,,,,,,,,,,,,,,,,,108,001,2010-10-14_14h53.52.253,eb_01,2022.2.4,119.9868891046044,
,,,0,0,0,0,62,0,62,0,,,,,,,,,,,,,,,,,,,,,,,,,,,,,,,,,,,,,,,,,,,,,,,,,,,,,,,,,,,108,001,2010-10-14_14h53.52.253,eb_01,2022.2.4,119.9868891046044,
3,stimuli/3.png,l,0,0,0,0,63,0,63,0,0,0,0,0,,,,,,,,,,,,,,,,,,159.93873301720305,159.93873301720305,159.93873301720305,159.93873301720305,l,1,0.504327797156293,160.4554427980329,160.4554427980329,160.4554427980329,161.47219785627385,161.47219785627385,161.47219785627385,,,,,,,,,,,,,,,,,,,,,,,,,108,001,2010-10-14_14h53.52.253,eb_01,2022.2.4,119.9868891046044,
,,,0,0,0,0,63,0,63,0,,,,,,,,,,,,,,,,,,,,,,,,,,,,,,,,,,,,,,,,,,,,,,,,,,,,,,,,,,,108,001,2010-10-14_14h53.52.253,eb_01,2022.2.4,119.9868891046044,
4,stimuli/4.png,l,0,0,0,0,64,0,64,0,0,0,0,0,,,,,,,,,,,,,,,,,,161.47219785627385,161.47219785627385,161.47219785627385,161.47219785627385,l,1,0.4029024641349679,161.89725890531554,161.89725890531554,161.89725890531554,,,,,,,,,,,,,,,,,,,,,,,,,,,,108,001,2010-10-14_14h53.52.253,eb_01,2022.2.4,119.9868891046044,
,,,0,0,0,0,64,0,64,0,,,,,,,,,,,,,,,,,,,,,,,,,,,,,,,,,,,,,,,,,,,,,,,,,,,,,,,,,,,108,001,2010-10-14_14h53.52.253,eb_01,2022.2.4,119.9868891046044,
3,stimuli/3.png,l,0,0,0,0,65,0,65,0,0,0,0,0,,,,,,,,,,,,,,,,,,162.905653941707,162.905653941707,162.905653941707,162.905653941707,l,1,0.43347075606288854,163.35568910716393,163.35568910716393,163.35568910716393,,,,,,,,,,,,,,,,,,,,,,,,,,,,108,001,2010-10-14_14h53.52.253,eb_01,2022.2.4,119.9868891046044,
,,,0,0,0,0,65,0,65,0,,,,,,,,,,,,,,,,,,,,,,,,,,,,,,,,,,,,,,,,,,,,,,,,,,,,,,,,,,,108,001,2010-10-14_14h53.52.253,eb_01,2022.2.4,119.9868891046044,
4,stimuli/4.png,l,0,0,0,0,66,0,66,0,0,0,0,0,,,,,,,,,,,,,,,,,,164.37244114691566,164.37244114691566,164.37244114691566,164.37244114691566,l,1,0.5747133494296577,164.96417198173003,164.96417198173003,164.96417198173003,,,,,,,,,,,,,,,,,,,,,,,,,,,,108,001,2010-10-14_14h53.52.253,eb_01,2022.2.4,119.9868891046044,
,,,0,0,0,0,66,0,66,0,,,,,,,,,,,,,,,,,,,,,,,,,,,,,,,,,,,,,,,,,,,,,,,,,,,,,,,,,,,108,001,2010-10-14_14h53.52.253,eb_01,2022.2.4,119.9868891046044,
2,stimuli/2.png,s,0,0,0,0,67,0,67,0,0,0,0,0,,,,,,,,,,,,,,,,,,165.97258301614784,165.97258301614784,165.97258301614784,165.97258301614784,s,1,0.5976270416285843,166.58096869519795,166.58096869519795,166.58096869519795,167.60605328850215,167.60605328850215,167.60605328850215,,,,,,,,,,,,,,,,,,,,,,,,,108,001,2010-10-14_14h53.52.253,eb_01,2022.2.4,119.9868891046044,
,,,0,0,0,0,67,0,67,0,,,,,,,,,,,,,,,,,,,,,,,,,,,,,,,,,,,,,,,,,,,,,,,,,,,,,,,,,,,108,001,2010-10-14_14h53.52.253,eb_01,2022.2.4,119.9868891046044,
1,stimuli/1.png,s,0,0,0,0,68,0,68,0,0,0,0,0,,,,,,,,,,,,,,,,,,167.60605328850215,167.60605328850215,167.60605328850215,167.60605328850215,s,1,0.7961869179853238,168.4311255059729,168.4311255059729,168.4311255059729,,,,,,,,,,,,,,,,,,,,,,,,,,,,108,001,2010-10-14_14h53.52.253,eb_01,2022.2.4,119.9868891046044,
,,,0,0,0,0,68,0,68,0,,,,,,,,,,,,,,,,,,,,,,,,,,,,,,,,,,,,,,,,,,,,,,,,,,,,,,,,,,,108,001,2010-10-14_14h53.52.253,eb_01,2022.2.4,119.9868891046044,
2,stimuli/2.png,s,0,0,0,0,69,0,69,0,0,0,0,0,,,,,,,,,,,,,,,,,,169.43122300333926,169.43122300333926,169.43122300333926,169.43122300333926,s,1,0.5710495010280283,170.0145947218698,170.0145947218698,170.0145947218698,171.0396781077725,171.0396781077725,171.0396781077725,,,,,,,,,,,,,,,,,,,,,,,,,108,001,2010-10-14_14h53.52.253,eb_01,2022.2.4,119.9868891046044,
,,,0,0,0,0,69,0,69,0,,,,,,,,,,,,,,,,,,,,,,,,,,,,,,,,,,,,,,,,,,,,,,,,,,,,,,,,,,,108,001,2010-10-14_14h53.52.253,eb_01,2022.2.4,119.9868891046044,
1,stimuli/1.png,s,0,0,0,0,70,0,70,0,0,0,0,0,,,,,,,,,,,,,,,,,,171.0396781077725,171.0396781077725,171.0396781077725,171.0396781077725,s,1,0.38662915759778116,171.456392718188,171.456392718188,171.456392718188,,,,,,,,,,,,,,,,,,,,,,,,,,,,108,001,2010-10-14_14h53.52.253,eb_01,2022.2.4,119.9868891046044,
,,,0,0,0,0,70,0,70,0,,,,,,,,,,,,,,,,,,,,,,,,,,,,,,,,,,,,,,,,,,,,,,,,,,,,,,,,,,,108,001,2010-10-14_14h53.52.253,eb_01,2022.2.4,119.9868891046044,
4,stimuli/4.png,l,0,0,0,0,71,0,71,0,0,0,0,0,,,,,,,,,,,,,,,,,,172.46480465814238,172.46480465814238,172.46480465814238,172.46480465814238,l,1,1.2335685552825453,173.71491166375927,173.71491166375927,173.71491166375927,,,,,,,,,,,,,,,,,,,,,,,,,,,,108,001,2010-10-14_14h53.52.253,eb_01,2022.2.4,119.9868891046044,
,,,0,0,0,0,71,0,71,0,,,,,,,,,,,,,,,,,,,,,,,,,,,,,,,,,,,,,,,,,,,,,,,,,,,,,,,,,,,108,001,2010-10-14_14h53.52.253,eb_01,2022.2.4,119.9868891046044,
2,stimuli/2.png,s,0,0,0,0,72,0,72,0,0,0,0,0,,,,,,,,,,,,,,,,,,174.72334805352148,174.72334805352148,174.72334805352148,174.72334805352148,s,1,0.535016527006519,175.27337959679426,175.27337959679426,175.27337959679426,176.29847324558068,176.29847324558068,176.29847324558068,,,,,,,,,,,,,,,,,,,,,,,,,108,001,2010-10-14_14h53.52.253,eb_01,2022.2.4,119.9868891046044,
,,,0,0,0,0,72,0,72,0,,,,,,,,,,,,,,,,,,,,,,,,,,,,,,,,,,,,,,,,,,,,,,,,,,,,,,,,,,,108,001,2010-10-14_14h53.52.253,eb_01,2022.2.4,119.9868891046044,
1,stimuli/1.png,s,0,0,0,0,73,0,73,0,0,0,0,0,,,,,,,,,,,,,,,,,,176.29847324558068,176.29847324558068,176.29847324558068,176.29847324558068,s,1,0.5199681254598545,176.84851173138304,176.84851173138304,176.84851173138304,,,,,,,,,,,,,,,,,,,,,,,,,,,,108,001,2010-10-14_14h53.52.253,eb_01,2022.2.4,119.9868891046044,
,,,0,0,0,0,73,0,73,0,,,,,,,,,,,,,,,,,,,,,,,,,,,,,,,,,,,,,,,,,,,,,,,,,,,,,,,,,,,108,001,2010-10-14_14h53.52.253,eb_01,2022.2.4,119.9868891046044,
2,stimuli/2.png,s,0,0,0,0,74,0,74,0,0,0,0,0,,,,,,,,,,,,,,,,,,177.8486013806687,177.8486013806687,177.8486013806687,177.8486013806687,s,1,0.3778145504911663,178.24027275115077,178.24027275115077,178.24027275115077,179.24871880009596,179.24871880009596,179.24871880009596,,,,,,,,,,,,,,,,,,,,,,,,,108,001,2010-10-14_14h53.52.253,eb_01,2022.2.4,119.9868891046044,
,,,0,0,0,0,74,0,74,0,,,,,,,,,,,,,,,,,,,,,,,,,,,,,,,,,,,,,,,,,,,,,,,,,,,,,,,,,,,108,001,2010-10-14_14h53.52.253,eb_01,2022.2.4,119.9868891046044,
3,stimuli/3.png,l,0,0,0,0,75,0,75,0,0,0,0,0,,,,,,,,,,,,,,,,,,179.24871880009596,179.24871880009596,179.24871880009596,179.24871880009596,l,1,0.5537511138245463,179.82376188909984,179.82376188909984,179.82376188909984,,,,,,,,,,,,,,,,,,,,,,,,,,,,108,001,2010-10-14_14h53.52.253,eb_01,2022.2.4,119.9868891046044,
,,,0,0,0,0,75,0,75,0,,,,,,,,,,,,,,,,,,,,,,,,,,,,,,,,,,,,,,,,,,,,,,,,,,,,,,,,,,,108,001,2010-10-14_14h53.52.253,eb_01,2022.2.4,119.9868891046044,
2,stimuli/2.png,s,0,0,0,0,76,0,76,0,0,0,0,0,,,,,,,,,,,,,,,,,,180.83218439378834,180.83218439378834,180.83218439378834,180.83218439378834,s,1,0.5693706144957105,181.41559535272245,181.41559535272245,181.41559535272245,182.43232294266636,182.43232294266636,182.43232294266636,,,,,,,,,,,,,,,,,,,,,,,,,108,001,2010-10-14_14h53.52.253,eb_01,2022.2.4,119.9868891046044,
,,,0,0,0,0,76,0,76,0,,,,,,,,,,,,,,,,,,,,,,,,,,,,,,,,,,,,,,,,,,,,,,,,,,,,,,,,,,,108,001,2010-10-14_14h53.52.253,eb_01,2022.2.4,119.9868891046044,
4,stimuli/4.png,l,0,0,0,0,77,0,77,0,0,0,0,0,,,,,,,,,,,,,,,,,,182.43232294266636,182.43232294266636,182.43232294266636,182.43232294266636,l,1,0.705212215980282,183.1574063285807,183.1574063285807,183.1574063285807,,,,,,,,,,,,,,,,,,,,,,,,,,,,108,001,2010-10-14_14h53.52.253,eb_01,2022.2.4,119.9868891046044,
,,,0,0,0,0,77,0,77,0,,,,,,,,,,,,,,,,,,,,,,,,,,,,,,,,,,,,,,,,,,,,,,,,,,,,,,,,,,,108,001,2010-10-14_14h53.52.253,eb_01,2022.2.4,119.9868891046044,
2,stimuli/2.png,s,0,0,0,0,78,0,78,0,0,0,0,0,,,,,,,,,,,,,,,,,,184.16580619456363,184.16580619456363,184.16580619456363,184.16580619456363,s,1,0.6437432959210128,184.82418749679346,184.82418749679346,184.82418749679346,185.83261483107344,185.83261483107344,185.83261483107344,,,,,,,,,,,,,,,,,,,,,,,,,108,001,2010-10-14_14h53.52.253,eb_01,2022.2.4,119.9868891046044,
,,,0,0,0,0,78,0,78,0,,,,,,,,,,,,,,,,,,,,,,,,,,,,,,,,,,,,,,,,,,,,,,,,,,,,,,,,,,,108,001,2010-10-14_14h53.52.253,eb_01,2022.2.4,119.9868891046044,
3,stimuli/3.png,l,0,0,0,0,79,0,79,0,0,0,0,0,,,,,,,,,,,,,,,,,,185.83261483107344,185.83261483107344,185.83261483107344,185.83261483107344,l,1,1.0569938822591212,186.9077213084529,186.9077213084529,186.9077213084529,,,,,,,,,,,,,,,,,,,,,,,,,,,,108,001,2010-10-14_14h53.52.253,eb_01,2022.2.4,119.9868891046044,
,,,0,0,0,0,79,0,79,0,,,,,,,,,,,,,,,,,,,,,,,,,,,,,,,,,,,,,,,,,,,,,,,,,,,,,,,,,,,108,001,2010-10-14_14h53.52.253,eb_01,2022.2.4,119.9868891046044,
4,stimuli/4.png,l,0,0,0,0,80,0,80,0,0,0,0,0,,,,,,,,,,,,,,,,,,187.92445946313092,187.92445946313092,187.92445946313092,187.92445946313092,l,1,0.7971748711715918,188.74119912704919,188.74119912704919,188.74119912704919,,,,,,,,,,,,,,,,,,,,,,,,,,,,108,001,2010-10-14_14h53.52.253,eb_01,2022.2.4,119.9868891046044,
,,,0,0,0,0,80,0,80,0,,,,,,,,,,,,,,,,,,,,,,,,,,,,,,,,,,,,,,,,,,,,,,,,,,,,,,,,,,,108,001,2010-10-14_14h53.52.253,eb_01,2022.2.4,119.9868891046044,
1,stimuli/1.png,s,0,0,0,0,81,0,81,0,0,0,0,0,,,,,,,,,,,,,,,,,,189.76628372035339,189.76628372035339,189.76628372035339,189.76628372035339,s,1,0.5314000689686509,190.32467920951603,190.32467920951603,190.32467920951603,,,,,,,,,,,,,,,,,,,,,,,,,,,,108,001,2010-10-14_14h53.52.253,eb_01,2022.2.4,119.9868891046044,
,,,0,0,0,0,81,0,81,0,,,,,,,,,,,,,,,,,,,,,,,,,,,,,,,,,,,,,,,,,,,,,,,,,,,,,,,,,,,108,001,2010-10-14_14h53.52.253,eb_01,2022.2.4,119.9868891046044,
4,stimuli/4.png,l,0,0,0,0,82,0,82,0,0,0,0,0,,,,,,,,,,,,,,,,,,191.33307847179822,191.33307847179822,191.33307847179822,191.33307847179822,l,1,0.7726393419870874,192.12481956950796,192.12481956950796,192.12481956950796,,,,,,,,,,,,,,,,,,,,,,,,,,,,108,001,2010-10-14_14h53.52.253,eb_01,2022.2.4,119.9868891046044,
,,,0,0,0,0,82,0,82,0,,,,,,,,,,,,,,,,,,,,,,,,,,,,,,,,,,,,,,,,,,,,,,,,,,,,,,,,,,,108,001,2010-10-14_14h53.52.253,eb_01,2022.2.4,119.9868891046044,
2,stimuli/2.png,s,0,0,0,0,83,0,83,0,0,0,0,0,,,,,,,,,,,,,,,,,,193.13324207419646,193.13324207419646,193.13324207419646,193.13324207419646,s,1,0.6125088222906925,193.75829467145377,193.75829467145377,193.75829467145377,194.77504791859246,194.77504791859246,194.77504791859246,,,,,,,,,,,,,,,,,,,,,,,,,108,001,2010-10-14_14h53.52.253,eb_01,2022.2.4,119.9868891046044,
,,,0,0,0,0,83,0,83,0,,,,,,,,,,,,,,,,,,,,,,,,,,,,,,,,,,,,,,,,,,,,,,,,,,,,,,,,,,,108,001,2010-10-14_14h53.52.253,eb_01,2022.2.4,119.9868891046044,
4,stimuli/4.png,l,0,0,0,0,84,0,84,0,0,0,0,0,,,,,,,,,,,,,,,,,,194.77504791859246,194.77504791859246,194.77504791859246,194.77504791859246,l,1,0.6747344788891496,195.46678509225603,195.46678509225603,195.46678509225603,,,,,,,,,,,,,,,,,,,,,,,,,,,,108,001,2010-10-14_14h53.52.253,eb_01,2022.2.4,119.9868891046044,
,,,0,0,0,0,84,0,84,0,,,,,,,,,,,,,,,,,,,,,,,,,,,,,,,,,,,,,,,,,,,,,,,,,,,,,,,,,,,108,001,2010-10-14_14h53.52.253,eb_01,2022.2.4,119.9868891046044,
2,stimuli/2.png,s,0,0,0,0,85,0,85,0,0,0,0,0,,,,,,,,,,,,,,,,,,196.47519461742195,196.47519461742195,196.47519461742195,196.47519461742195,s,1,0.5416831735492451,197.0252412531554,197.0252412531554,197.0252412531554,198.04200114098785,198.04200114098785,198.04200114098785,,,,,,,,,,,,,,,,,,,,,,,,,108,001,2010-10-14_14h53.52.253,eb_01,2022.2.4,119.9868891046044,
,,,0,0,0,0,85,0,85,0,,,,,,,,,,,,,,,,,,,,,,,,,,,,,,,,,,,,,,,,,,,,,,,,,,,,,,,,,,,108,001,2010-10-14_14h53.52.253,eb_01,2022.2.4,119.9868891046044,
4,stimuli/4.png,l,0,0,0,0,86,0,86,0,0,0,0,0,,,,,,,,,,,,,,,,,,198.04200114098785,198.04200114098785,198.04200114098785,198.04200114098785,l,1,0.5748422391334316,198.63371356300195,198.63371356300195,198.63371356300195,,,,,,,,,,,,,,,,,,,,,,,,,,,,108,001,2010-10-14_14h53.52.253,eb_01,2022.2.4,119.9868891046044,
,,,0,0,0,0,86,0,86,0,,,,,,,,,,,,,,,,,,,,,,,,,,,,,,,,,,,,,,,,,,,,,,,,,,,,,,,,,,,108,001,2010-10-14_14h53.52.253,eb_01,2022.2.4,119.9868891046044,
2,stimuli/2.png,s,0,0,0,0,87,0,87,0,0,0,0,0,,,,,,,,,,,,,,,,,,199.64212972884707,199.64212972884707,199.64212972884707,199.64212972884707,s,1,0.870750670103007,200.5255412914994,200.5255412914994,200.5255412914994,201.5422945386381,201.5422945386381,201.5422945386381,,,,,,,,,,,,,,,,,,,,,,,,,108,001,2010-10-14_14h53.52.253,eb_01,2022.2.4,119.9868891046044,
,,,0,0,0,0,87,0,87,0,,,,,,,,,,,,,,,,,,,,,,,,,,,,,,,,,,,,,,,,,,,,,,,,,,,,,,,,,,,108,001,2010-10-14_14h53.52.253,eb_01,2022.2.4,119.9868891046044,
4,stimuli/4.png,l,0,0,0,0,88,0,88,0,0,0,0,0,,,,,,,,,,,,,,,,,,201.5422945386381,201.5422945386381,201.5422945386381,201.5422945386381,l,1,0.6266477515018778,202.1923526446626,202.1923526446626,202.1923526446626,,,,,,,,,,,,,,,,,,,,,,,,,,,,108,001,2010-10-14_14h53.52.253,eb_01,2022.2.4,119.9868891046044,
,,,0,0,0,0,88,0,88,0,,,,,,,,,,,,,,,,,,,,,,,,,,,,,,,,,,,,,,,,,,,,,,,,,,,,,,,,,,,108,001,2010-10-14_14h53.52.253,eb_01,2022.2.4,119.9868891046044,
3,stimuli/3.png,l,0,0,0,0,89,0,89,0,0,0,0,0,,,,,,,,,,,,,,,,,,203.20077152714657,203.20077152714657,203.20077152714657,203.20077152714657,l,1,0.936193437941256,204.15085197002918,204.15085197002918,204.15085197002918,205.15927326731617,205.15927326731617,205.15927326731617,,,,,,,,,,,,,,,,,,,,,,,,,108,001,2010-10-14_14h53.52.253,eb_01,2022.2.4,119.9868891046044,
,,,0,0,0,0,89,0,89,0,,,,,,,,,,,,,,,,,,,,,,,,,,,,,,,,,,,,,,,,,,,,,,,,,,,,,,,,,,,108,001,2010-10-14_14h53.52.253,eb_01,2022.2.4,119.9868891046044,
2,stimuli/2.png,s,0,0,0,0,90,0,90,0,0,0,0,0,,,,,,,,,,,,,,,,,,205.15927326731617,205.15927326731617,205.15927326731617,205.15927326731617,s,1,0.5056978917273227,205.67599210362823,205.67599210362823,205.67599210362823,206.6927384082228,206.6927384082228,206.6927384082228,,,,,,,,,,,,,,,,,,,,,,,,,108,001,2010-10-14_14h53.52.253,eb_01,2022.2.4,119.9868891046044,
,,,0,0,0,0,90,0,90,0,,,,,,,,,,,,,,,,,,,,,,,,,,,,,,,,,,,,,,,,,,,,,,,,,,,,,,,,,,,108,001,2010-10-14_14h53.52.253,eb_01,2022.2.4,119.9868891046044,
4,stimuli/4.png,l,0,0,0,0,91,0,91,0,0,0,0,0,,,,,,,,,,,,,,,,,,206.6927384082228,206.6927384082228,206.6927384082228,206.6927384082228,l,1,1.596301922618295,208.30953240505187,208.30953240505187,208.30953240505187,,,,,,,,,,,,,,,,,,,,,,,,,,,,108,001,2010-10-14_14h53.52.253,eb_01,2022.2.4,119.9868891046044,
,,,0,0,0,0,91,0,91,0,,,,,,,,,,,,,,,,,,,,,,,,,,,,,,,,,,,,,,,,,,,,,,,,,,,,,,,,,,,108,001,2010-10-14_14h53.52.253,eb_01,2022.2.4,119.9868891046044,
2,stimuli/2.png,s,0,0,0,0,92,0,92,0,0,0,0,0,,,,,,,,,,,,,,,,,,209.31796638001106,209.31796638001106,209.31796638001106,209.31796638001106,s,1,0.4991094241850078,209.8263393813977,209.8263393813977,209.8263393813977,210.84309413778828,210.84309413778828,210.84309413778828,,,,,,,,,,,,,,,,,,,,,,,,,108,001,2010-10-14_14h53.52.253,eb_01,2022.2.4,119.9868891046044,
,,,0,0,0,0,92,0,92,0,,,,,,,,,,,,,,,,,,,,,,,,,,,,,,,,,,,,,,,,,,,,,,,,,,,,,,,,,,,108,001,2010-10-14_14h53.52.253,eb_01,2022.2.4,119.9868891046044,
4,stimuli/4.png,l,0,0,0,0,93,0,93,0,0,0,0,0,,,,,,,,,,,,,,,,,,210.84309413778828,210.84309413778828,210.84309413778828,210.84309413778828,l,1,0.4779965657071443,211.34313669856056,211.34313669856056,211.34313669856056,,,,,,,,,,,,,,,,,,,,,,,,,,,,108,001,2010-10-14_14h53.52.253,eb_01,2022.2.4,119.9868891046044,
,,,0,0,0,0,93,0,93,0,,,,,,,,,,,,,,,,,,,,,,,,,,,,,,,,,,,,,,,,,,,,,,,,,,,,,,,,,,,108,001,2010-10-14_14h53.52.253,eb_01,2022.2.4,119.9868891046044,
3,stimuli/3.png,l,0,0,0,0,94,0,94,0,0,0,0,0,,,,,,,,,,,,,,,,,,212.35155527919414,212.35155527919414,212.35155527919414,212.35155527919414,l,1,0.440595911903074,212.80991967786395,212.80991967786395,212.80991967786395,,,,,,,,,,,,,,,,,,,,,,,,,,,,108,001,2010-10-14_14h53.52.253,eb_01,2022.2.4,119.9868891046044,
,,,0,0,0,0,94,0,94,0,,,,,,,,,,,,,,,,,,,,,,,,,,,,,,,,,,,,,,,,,,,,,,,,,,,,,,,,,,,108,001,2010-10-14_14h53.52.253,eb_01,2022.2.4,119.9868891046044,
4,stimuli/4.png,l,0,0,0,0,95,0,95,0,0,0,0,0,,,,,,,,,,,,,,,,,,213.8266795656964,213.8266795656964,213.8266795656964,213.8266795656964,s,0,0.9334976206591818,214.7767648381705,214.7767648381705,214.7767648381705,,,,,,,,,,,,,,,,,,,,,,,,,,,,108,001,2010-10-14_14h53.52.253,eb_01,2022.2.4,119.9868891046044,
,,,0,0,0,0,95,0,95,0,,,,,,,,,,,,,,,,,,,,,,,,,,,,,,,,,,,,,,,,,,,,,,,,,,,,,,,,,,,108,001,2010-10-14_14h53.52.253,eb_01,2022.2.4,119.9868891046044,
3,stimuli/3.png,l,0,0,0,0,96,0,96,0,0,0,0,0,,,,,,,,,,,,,,,,,,215.7851985112793,215.7851985112793,215.7851985112793,215.7851985112793,l,1,0.647013532667188,216.4519024060428,216.4519024060428,216.4519024060428,,,,,,,,,,,,,,,,,,,,,,,,,,,,108,001,2010-10-14_14h53.52.253,eb_01,2022.2.4,119.9868891046044,
,,,0,0,0,0,96,0,96,0,,,,,,,,,,,,,,,,,,,,,,,,,,,,,,,,,,,,,,,,,,,,,,,,,,,,,,,,,,,108,001,2010-10-14_14h53.52.253,eb_01,2022.2.4,119.9868891046044,
8,stimuli/8.png,l,0,0,0,0,97,0,97,0,0,0,0,0,,,,,,,,,,,,,,,,,,217.46035811417096,217.46035811417096,217.46035811417096,217.46035811417096,l,1,0.5318609930400271,218.01038241304923,218.01038241304923,218.01038241304923,,,,,,,,,,,,,,,,,,,,,,,,,,,,108,001,2010-10-14_14h53.52.253,eb_01,2022.2.4,119.9868891046044,
,,,0,0,0,0,97,0,97,0,,,,,,,,,,,,,,,,,,,,,,,,,,,,,,,,,,,,,,,,,,,,,,,,,,,,,,,,,,,108,001,2010-10-14_14h53.52.253,eb_01,2022.2.4,119.9868891046044,
9,stimuli/9.png,l,0,0,0,0,98,0,98,0,0,0,0,0,,,,,,,,,,,,,,,,,,219.02712690655608,219.02712690655608,219.02712690655608,219.02712690655608,l,1,0.6371167953475378,219.6938422716048,219.6938422716048,219.6938422716048,,,,,,,,,,,,,,,,,,,,,,,,,,,,108,001,2010-10-14_14h53.52.253,eb_01,2022.2.4,119.9868891046044,
,,,0,0,0,0,98,0,98,0,,,,,,,,,,,,,,,,,,,,,,,,,,,,,,,,,,,,,,,,,,,,,,,,,,,,,,,,,,,108,001,2010-10-14_14h53.52.253,eb_01,2022.2.4,119.9868891046044,
8,stimuli/8.png,l,0,0,0,0,99,0,99,0,0,0,0,0,,,,,,,,,,,,,,,,,,220.69393644861702,220.69393644861702,220.69393644861702,220.69393644861702,l,1,0.4343609100469621,221.15230960093322,221.15230960093322,221.15230960093322,,,,,,,,,,,,,,,,,,,,,,,,,,,,108,001,2010-10-14_14h53.52.253,eb_01,2022.2.4,119.9868891046044,
,,,0,0,0,0,99,0,99,0,,,,,,,,,,,,,,,,,,,,,,,,,,,,,,,,,,,,,,,,,,,,,,,,,,,,,,,,,,,108,001,2010-10-14_14h53.52.253,eb_01,2022.2.4,119.9868891046044,
,,,0,0,0,0,,,,,,,,,,,,,,,,,,,,,,,,,,,,,,,,,,,,,,,222.15240951308806,222.15240951308806,return,5.6630447559582535,,,,,,,,,,,,,,,,,,,,,108,001,2010-10-14_14h53.52.253,eb_01,2022.2.4,119.9868891046044,
6,stimuli/6.png,s,1,0,1,0,0,0,0,0,0,0,0,0,,,,,,,,,,,,,,,,,,227.85288311484328,227.85288311484328,227.85288311484328,227.85288311484328,s,1,1.1866086318332236,229.06964994521695,229.06964994521695,229.06964994521695,,,,,,,,,,,,,,,,,,,,,,,,,,,,108,001,2010-10-14_14h53.52.253,eb_01,2022.2.4,119.9868891046044,
,,,1,0,1,0,0,0,0,0,,,,,,,,,,,,,,,,,,,,,,,,,,,,,,,,,,,,,,,,,,,,,,,,,,,,,,,,,,,108,001,2010-10-14_14h53.52.253,eb_01,2022.2.4,119.9868891046044,
8,stimuli/8.png,l,1,0,1,0,1,0,1,0,0,0,0,0,,,,,,,,,,,,,,,,,,230.06974351854296,230.06974351854296,230.06974351854296,230.06974351854296,l,1,0.45773763925535604,230.54477030767885,230.54477030767885,230.54477030767885,,,,,,,,,,,,,,,,,,,,,,,,,,,,108,001,2010-10-14_14h53.52.253,eb_01,2022.2.4,119.9868891046044,
,,,1,0,1,0,1,0,1,0,,,,,,,,,,,,,,,,,,,,,,,,,,,,,,,,,,,,,,,,,,,,,,,,,,,,,,,,,,,108,001,2010-10-14_14h53.52.253,eb_01,2022.2.4,119.9868891046044,
9,stimuli/9.png,l,1,0,1,0,2,0,2,0,0,0,0,0,,,,,,,,,,,,,,,,,,231.56153532695316,231.56153532695316,231.56153532695316,231.56153532695316,l,1,0.5980179366306402,232.1865969796927,232.1865969796927,232.1865969796927,,,,,,,,,,,,,,,,,,,,,,,,,,,,108,001,2010-10-14_14h53.52.253,eb_01,2022.2.4,119.9868891046044,
,,,1,0,1,0,2,0,2,0,,,,,,,,,,,,,,,,,,,,,,,,,,,,,,,,,,,,,,,,,,,,,,,,,,,,,,,,,,,108,001,2010-10-14_14h53.52.253,eb_01,2022.2.4,119.9868891046044,
6,stimuli/6.png,s,1,0,1,0,3,0,3,0,0,0,0,0,,,,,,,,,,,,,,,,,,233.20333845471032,233.20333845471032,233.20333845471032,233.20333845471032,s,1,0.6122133117023623,233.84506189422973,233.84506189422973,233.84506189422973,,,,,,,,,,,,,,,,,,,,,,,,,,,,108,001,2010-10-14_14h53.52.253,eb_01,2022.2.4,119.9868891046044,
,,,1,0,1,0,3,0,3,0,,,,,,,,,,,,,,,,,,,,,,,,,,,,,,,,,,,,,,,,,,,,,,,,,,,,,,,,,,,108,001,2010-10-14_14h53.52.253,eb_01,2022.2.4,119.9868891046044,
5,stimuli/5.png,s,1,0,1,0,4,0,4,0,0,0,0,0,,,,,,,,,,,,,,,,,,234.84515154351539,234.84515154351539,234.84515154351539,234.84515154351539,s,1,1.2184528412908548,236.0869178456487,236.0869178456487,236.0869178456487,,,,,,,,,,,,,,,,,,,,,,,,,,,,108,001,2010-10-14_14h53.52.253,eb_01,2022.2.4,119.9868891046044,
,,,1,0,1,0,4,0,4,0,,,,,,,,,,,,,,,,,,,,,,,,,,,,,,,,,,,,,,,,,,,,,,,,,,,,,,,,,,,108,001,2010-10-14_14h53.52.253,eb_01,2022.2.4,119.9868891046044,
9,stimuli/9.png,l,1,0,1,0,5,0,5,0,0,0,0,0,,,,,,,,,,,,,,,,,,237.10367531867814,237.10367531867814,237.10367531867814,237.10367531867814,l,1,0.5439600238023559,237.67873108536878,237.67873108536878,237.67873108536878,,,,,,,,,,,,,,,,,,,,,,,,,,,,108,001,2010-10-14_14h53.52.253,eb_01,2022.2.4,119.9868891046044,
,,,1,0,1,0,5,0,5,0,,,,,,,,,,,,,,,,,,,,,,,,,,,,,,,,,,,,,,,,,,,,,,,,,,,,,,,,,,,108,001,2010-10-14_14h53.52.253,eb_01,2022.2.4,119.9868891046044,
5,stimuli/5.png,s,1,0,1,0,6,0,6,0,0,0,0,0,,,,,,,,,,,,,,,,,,238.67881318840955,238.67881318840955,238.67881318840955,238.67881318840955,s,1,0.6328552850754932,239.3288619370869,239.3288619370869,239.3288619370869,,,,,,,,,,,,,,,,,,,,,,,,,,,,108,001,2010-10-14_14h53.52.253,eb_01,2022.2.4,119.9868891046044,
,,,1,0,1,0,6,0,6,0,,,,,,,,,,,,,,,,,,,,,,,,,,,,,,,,,,,,,,,,,,,,,,,,,,,,,,,,,,,108,001,2010-10-14_14h53.52.253,eb_01,2022.2.4,119.9868891046044,
9,stimuli/9.png,l,1,0,1,0,7,0,7,0,0,0,0,0,,,,,,,,,,,,,,,,,,240.34562091936823,240.34562091936823,240.34562091936823,240.34562091936823,l,1,0.6300719314604066,241.0040130881971,241.0040130881971,241.0040130881971,,,,,,,,,,,,,,,,,,,,,,,,,,,,108,001,2010-10-14_14h53.52.253,eb_01,2022.2.4,119.9868891046044,
,,,1,0,1,0,7,0,7,0,,,,,,,,,,,,,,,,,,,,,,,,,,,,,,,,,,,,,,,,,,,,,,,,,,,,,,,,,,,108,001,2010-10-14_14h53.52.253,eb_01,2022.2.4,119.9868891046044,
6,stimuli/6.png,s,1,0,1,0,8,0,8,0,0,0,0,0,,,,,,,,,,,,,,,,,,242.02075878910546,242.02075878910546,242.02075878910546,242.02075878910546,s,1,0.6429838427429786,242.69582904456183,242.69582904456183,242.69582904456183,,,,,,,,,,,,,,,,,,,,,,,,,,,,108,001,2010-10-14_14h53.52.253,eb_01,2022.2.4,119.9868891046044,
,,,1,0,1,0,8,0,8,0,,,,,,,,,,,,,,,,,,,,,,,,,,,,,,,,,,,,,,,,,,,,,,,,,,,,,,,,,,,108,001,2010-10-14_14h53.52.253,eb_01,2022.2.4,119.9868891046044,
9,stimuli/9.png,l,1,0,1,0,9,0,9,0,0,0,0,0,,,,,,,,,,,,,,,,,,243.70424098451622,243.70424098451622,243.70424098451622,243.70424098451622,l,1,0.6145284968370106,244.34596170738223,244.34596170738223,244.34596170738223,,,,,,,,,,,,,,,,,,,,,,,,,,,,108,001,2010-10-14_14h53.52.253,eb_01,2022.2.4,119.9868891046044,
,,,1,0,1,0,9,0,9,0,,,,,,,,,,,,,,,,,,,,,,,,,,,,,,,,,,,,,,,,,,,,,,,,,,,,,,,,,,,108,001,2010-10-14_14h53.52.253,eb_01,2022.2.4,119.9868891046044,
5,stimuli/5.png,s,1,0,1,0,10,0,10,0,0,0,0,0,,,,,,,,,,,,,,,,,,245.34605045111675,245.34605045111675,245.34605045111675,245.34605045111675,s,1,0.548747355787782,245.91277970123338,245.91277970123338,245.91277970123338,,,,,,,,,,,,,,,,,,,,,,,,,,,,108,001,2010-10-14_14h53.52.253,eb_01,2022.2.4,119.9868891046044,
,,,1,0,1,0,10,0,10,0,,,,,,,,,,,,,,,,,,,,,,,,,,,,,,,,,,,,,,,,,,,,,,,,,,,,,,,,,,,108,001,2010-10-14_14h53.52.253,eb_01,2022.2.4,119.9868891046044,
6,stimuli/6.png,s,1,0,1,0,11,0,11,0,0,0,0,0,,,,,,,,,,,,,,,,,,246.93784950391273,246.93784950391273,246.93784950391273,246.93784950391273,s,1,0.580986082466552,247.5462369940651,247.5462369940651,247.5462369940651,,,,,,,,,,,,,,,,,,,,,,,,,,,,108,001,2010-10-14_14h53.52.253,eb_01,2022.2.4,119.9868891046044,
,,,1,0,1,0,11,0,11,0,,,,,,,,,,,,,,,,,,,,,,,,,,,,,,,,,,,,,,,,,,,,,,,,,,,,,,,,,,,108,001,2010-10-14_14h53.52.253,eb_01,2022.2.4,119.9868891046044,
8,stimuli/8.png,l,1,0,1,0,12,0,12,0,0,0,0,0,,,,,,,,,,,,,,,,,,248.54632422854775,248.54632422854775,248.54632422854775,248.54632422854775,l,1,0.5086074183927849,249.07970002203365,249.07970002203365,249.07970002203365,,,,,,,,,,,,,,,,,,,,,,,,,,,,108,001,2010-10-14_14h53.52.253,eb_01,2022.2.4,119.9868891046044,
,,,1,0,1,0,12,0,12,0,,,,,,,,,,,,,,,,,,,,,,,,,,,,,,,,,,,,,,,,,,,,,,,,,,,,,,,,,,,108,001,2010-10-14_14h53.52.253,eb_01,2022.2.4,119.9868891046044,
6,stimuli/6.png,s,1,0,1,0,13,0,13,0,0,0,0,0,,,,,,,,,,,,,,,,,,250.10478763384162,250.10478763384162,250.10478763384162,250.10478763384162,s,1,0.7580947271490004,250.88818863175402,250.88818863175402,250.88818863175402,,,,,,,,,,,,,,,,,,,,,,,,,,,,108,001,2010-10-14_14h53.52.253,eb_01,2022.2.4,119.9868891046044,
,,,1,0,1,0,13,0,13,0,,,,,,,,,,,,,,,,,,,,,,,,,,,,,,,,,,,,,,,,,,,,,,,,,,,,,,,,,,,108,001,2010-10-14_14h53.52.253,eb_01,2022.2.4,119.9868891046044,
8,stimuli/8.png,l,1,0,1,0,14,0,14,0,0,0,0,0,,,,,,,,,,,,,,,,,,251.89660479759914,251.89660479759914,251.89660479759914,251.89660479759914,l,1,0.5263293003663421,252.44665656477446,252.44665656477446,252.44665656477446,,,,,,,,,,,,,,,,,,,,,,,,,,,,108,001,2010-10-14_14h53.52.253,eb_01,2022.2.4,119.9868891046044,
,,,1,0,1,0,14,0,14,0,,,,,,,,,,,,,,,,,,,,,,,,,,,,,,,,,,,,,,,,,,,,,,,,,,,,,,,,,,,108,001,2010-10-14_14h53.52.253,eb_01,2022.2.4,119.9868891046044,
9,stimuli/9.png,l,1,0,1,0,15,0,15,0,0,0,0,0,,,,,,,,,,,,,,,,,,253.46341101931466,253.46341101931466,253.46341101931466,253.46341101931466,l,1,0.8475915743183577,254.33848278402002,254.33848278402002,254.33848278402002,,,,,,,,,,,,,,,,,,,,,,,,,,,,108,001,2010-10-14_14h53.52.253,eb_01,2022.2.4,119.9868891046044,
,,,1,0,1,0,15,0,15,0,,,,,,,,,,,,,,,,,,,,,,,,,,,,,,,,,,,,,,,,,,,,,,,,,,,,,,,,,,,108,001,2010-10-14_14h53.52.253,eb_01,2022.2.4,119.9868891046044,
8,stimuli/8.png,l,1,0,1,0,16,0,16,0,0,0,0,0,,,,,,,,,,,,,,,,,,255.34689864801476,255.34689864801476,255.34689864801476,255.34689864801476,l,1,0.5161026416317327,255.88027564890217,255.88027564890217,255.88027564890217,,,,,,,,,,,,,,,,,,,,,,,,,,,,108,001,2010-10-14_14h53.52.253,eb_01,2022.2.4,119.9868891046044,
,,,1,0,1,0,16,0,16,0,,,,,,,,,,,,,,,,,,,,,,,,,,,,,,,,,,,,,,,,,,,,,,,,,,,,,,,,,,,108,001,2010-10-14_14h53.52.253,eb_01,2022.2.4,119.9868891046044,
3,stimuli/3.png,l,1,0,1,0,17,0,17,0,0,0,0,0,,,,,,,,,,,,,,,,,,256.88870479426987,256.88870479426987,256.88870479426987,256.88870479426987,l,1,0.5663300851738313,257.46375180732866,257.46375180732866,257.46375180732866,258.47218698968936,258.47218698968936,258.47218698968936,,,,,,,,,,,,,,,,,,,,,,,,,108,001,2010-10-14_14h53.52.253,eb_01,2022.2.4,119.9868891046044,
,,,1,0,1,0,17,0,17,0,,,,,,,,,,,,,,,,,,,,,,,,,,,,,,,,,,,,,,,,,,,,,,,,,,,,,,,,,,,108,001,2010-10-14_14h53.52.253,eb_01,2022.2.4,119.9868891046044,
8,stimuli/8.png,l,1,0,1,0,18,0,18,0,0,0,0,0,,,,,,,,,,,,,,,,,,258.47218698968936,258.47218698968936,258.47218698968936,258.47218698968936,l,1,0.6458930675580632,259.1388667364954,259.1388667364954,259.1388667364954,,,,,,,,,,,,,,,,,,,,,,,,,,,,108,001,2010-10-14_14h53.52.253,eb_01,2022.2.4,119.9868891046044,
,,,1,0,1,0,18,0,18,0,,,,,,,,,,,,,,,,,,,,,,,,,,,,,,,,,,,,,,,,,,,,,,,,,,,,,,,,,,,108,001,2010-10-14_14h53.52.253,eb_01,2022.2.4,119.9868891046044,
3,stimuli/3.png,l,1,0,1,0,19,0,19,0,0,0,0,0,,,,,,,,,,,,,,,,,,260.14731670948095,260.14731670948095,260.14731670948095,260.14731670948095,l,1,0.4427764721913263,260.6056874469941,260.6056874469941,260.6056874469941,261.6224437126366,261.6224437126366,261.6224437126366,,,,,,,,,,,,,,,,,,,,,,,,,108,001,2010-10-14_14h53.52.253,eb_01,2022.2.4,119.9868891046044,
,,,1,0,1,0,19,0,19,0,,,,,,,,,,,,,,,,,,,,,,,,,,,,,,,,,,,,,,,,,,,,,,,,,,,,,,,,,,,108,001,2010-10-14_14h53.52.253,eb_01,2022.2.4,119.9868891046044,
4,stimuli/4.png,l,1,0,1,0,20,0,20,0,0,0,0,0,,,,,,,,,,,,,,,,,,261.6224437126366,261.6224437126366,261.6224437126366,261.6224437126366,l,1,0.38364960184844676,262.03081248811213,262.03081248811213,262.03081248811213,,,,,,,,,,,,,,,,,,,,,,,,,,,,108,001,2010-10-14_14h53.52.253,eb_01,2022.2.4,119.9868891046044,
,,,1,0,1,0,20,0,20,0,,,,,,,,,,,,,,,,,,,,,,,,,,,,,,,,,,,,,,,,,,,,,,,,,,,,,,,,,,,108,001,2010-10-14_14h53.52.253,eb_01,2022.2.4,119.9868891046044,
2,stimuli/2.png,s,1,0,1,0,21,0,21,0,0,0,0,0,,,,,,,,,,,,,,,,,,263.03924555753474,263.03924555753474,263.03924555753474,263.03924555753474,s,1,0.510913246194832,263.5642764216318,263.5642764216318,263.5642764216318,264.5893592038483,264.5893592038483,264.5893592038483,,,,,,,,,,,,,,,,,,,,,,,,,108,001,2010-10-14_14h53.52.253,eb_01,2022.2.4,119.9868891046044,
,,,1,0,1,0,21,0,21,0,,,,,,,,,,,,,,,,,,,,,,,,,,,,,,,,,,,,,,,,,,,,,,,,,,,,,,,,,,,108,001,2010-10-14_14h53.52.253,eb_01,2022.2.4,119.9868891046044,
1,stimuli/1.png,s,1,0,1,0,22,0,22,0,0,0,0,0,,,,,,,,,,,,,,,,,,264.5893592038483,264.5893592038483,264.5893592038483,264.5893592038483,s,1,0.4808599094103556,265.0977409588522,265.0977409588522,265.0977409588522,,,,,,,,,,,,,,,,,,,,,,,,,,,,108,001,2010-10-14_14h53.52.253,eb_01,2022.2.4,119.9868891046044,
,,,1,0,1,0,22,0,22,0,,,,,,,,,,,,,,,,,,,,,,,,,,,,,,,,,,,,,,,,,,,,,,,,,,,,,,,,,,,108,001,2010-10-14_14h53.52.253,eb_01,2022.2.4,119.9868891046044,
4,stimuli/4.png,l,1,0,1,0,23,0,23,0,0,0,0,0,,,,,,,,,,,,,,,,,,266.106171311636,266.106171311636,266.106171311636,266.106171311636,l,1,0.5800440104067093,266.706225946371,266.706225946371,266.706225946371,,,,,,,,,,,,,,,,,,,,,,,,,,,,108,001,2010-10-14_14h53.52.253,eb_01,2022.2.4,119.9868891046044,
,,,1,0,1,0,23,0,23,0,,,,,,,,,,,,,,,,,,,,,,,,,,,,,,,,,,,,,,,,,,,,,,,,,,,,,,,,,,,108,001,2010-10-14_14h53.52.253,eb_01,2022.2.4,119.9868891046044,
3,stimuli/3.png,l,1,0,1,0,24,0,24,0,0,0,0,0,,,,,,,,,,,,,,,,,,267.714643621468,267.714643621468,267.714643621468,267.714643621468,l,1,0.45962570744450204,268.18967312725727,268.18967312725727,268.18967312725727,269.1980908023543,269.1980908023543,269.1980908023543,,,,,,,,,,,,,,,,,,,,,,,,,108,001,2010-10-14_14h53.52.253,eb_01,2022.2.4,119.9868891046044,
,,,1,0,1,0,24,0,24,0,,,,,,,,,,,,,,,,,,,,,,,,,,,,,,,,,,,,,,,,,,,,,,,,,,,,,,,,,,,108,001,2010-10-14_14h53.52.253,eb_01,2022.2.4,119.9868891046044,
8,stimuli/8.png,l,1,0,1,0,25,0,25,0,0,0,0,0,,,,,,,,,,,,,,,,,,269.1980908023543,269.1980908023543,269.1980908023543,269.1980908023543,l,1,0.5121852397132898,269.73146901062864,269.73146901062864,269.73146901062864,,,,,,,,,,,,,,,,,,,,,,,,,,,,108,001,2010-10-14_14h53.52.253,eb_01,2022.2.4,119.9868891046044,
,,,1,0,1,0,25,0,25,0,,,,,,,,,,,,,,,,,,,,,,,,,,,,,,,,,,,,,,,,,,,,,,,,,,,,,,,,,,,108,001,2010-10-14_14h53.52.253,eb_01,2022.2.4,119.9868891046044,
9,stimuli/9.png,l,1,0,1,0,26,0,26,0,0,0,0,0,,,,,,,,,,,,,,,,,,270.748226785523,270.748226785523,270.748226785523,270.748226785523,l,1,0.5700787532550748,271.34829258869286,271.34829258869286,271.34829258869286,,,,,,,,,,,,,,,,,,,,,,,,,,,,108,001,2010-10-14_14h53.52.253,eb_01,2022.2.4,119.9868891046044,
,,,1,0,1,0,26,0,26,0,,,,,,,,,,,,,,,,,,,,,,,,,,,,,,,,,,,,,,,,,,,,,,,,,,,,,,,,,,,108,001,2010-10-14_14h53.52.253,eb_01,2022.2.4,119.9868891046044,
8,stimuli/8.png,l,1,0,1,0,27,0,27,0,0,0,0,0,,,,,,,,,,,,,,,,,,272.3483680510544,272.3483680510544,272.3483680510544,272.3483680510544,l,1,0.4499695441336371,272.8150692291674,272.8150692291674,272.8150692291674,,,,,,,,,,,,,,,,,,,,,,,,,,,,108,001,2010-10-14_14h53.52.253,eb_01,2022.2.4,119.9868891046044,
,,,1,0,1,0,27,0,27,0,,,,,,,,,,,,,,,,,,,,,,,,,,,,,,,,,,,,,,,,,,,,,,,,,,,,,,,,,,,108,001,2010-10-14_14h53.52.253,eb_01,2022.2.4,119.9868891046044,
6,stimuli/6.png,s,1,0,1,0,28,0,28,0,0,0,0,0,,,,,,,,,,,,,,,,,,273.84015321877087,273.84015321877087,273.84015321877087,273.84015321877087,s,1,0.5172837784484727,274.39020347670885,274.39020347670885,274.39020347670885,,,,,,,,,,,,,,,,,,,,,,,,,,,,108,001,2010-10-14_14h53.52.253,eb_01,2022.2.4,119.9868891046044,
,,,1,0,1,0,28,0,28,0,,,,,,,,,,,,,,,,,,,,,,,,,,,,,,,,,,,,,,,,,,,,,,,,,,,,,,,,,,,108,001,2010-10-14_14h53.52.253,eb_01,2022.2.4,119.9868891046044,
8,stimuli/8.png,l,1,0,1,0,29,0,29,0,0,0,0,0,,,,,,,,,,,,,,,,,,275.3986190388532,275.3986190388532,275.3986190388532,275.3986190388532,l,1,0.4227889083849732,275.8403298006888,275.8403298006888,275.8403298006888,,,,,,,,,,,,,,,,,,,,,,,,,,,,108,001,2010-10-14_14h53.52.253,eb_01,2022.2.4,119.9868891046044,
,,,1,0,1,0,29,0,29,0,,,,,,,,,,,,,,,,,,,,,,,,,,,,,,,,,,,,,,,,,,,,,,,,,,,,,,,,,,,108,001,2010-10-14_14h53.52.253,eb_01,2022.2.4,119.9868891046044,
9,stimuli/9.png,l,1,0,1,0,30,0,30,0,0,0,0,0,,,,,,,,,,,,,,,,,,276.85708244414127,276.85708244414127,276.85708244414127,276.85708244414127,l,1,0.7803621596976882,277.66548593230254,277.66548593230254,277.66548593230254,,,,,,,,,,,,,,,,,,,,,,,,,,,,108,001,2010-10-14_14h53.52.253,eb_01,2022.2.4,119.9868891046044,
,,,1,0,1,0,30,0,30,0,,,,,,,,,,,,,,,,,,,,,,,,,,,,,,,,,,,,,,,,,,,,,,,,,,,,,,,,,,,108,001,2010-10-14_14h53.52.253,eb_01,2022.2.4,119.9868891046044,
5,stimuli/5.png,s,1,0,1,0,31,0,31,0,0,0,0,0,,,,,,,,,,,,,,,,,,278.6655626020656,278.6655626020656,278.6655626020656,278.6655626020656,s,1,0.46795071476662997,279.1572738166724,279.1572738166724,279.1572738166724,,,,,,,,,,,,,,,,,,,,,,,,,,,,108,001,2010-10-14_14h53.52.253,eb_01,2022.2.4,119.9868891046044,
,,,1,0,1,0,31,0,31,0,,,,,,,,,,,,,,,,,,,,,,,,,,,,,,,,,,,,,,,,,,,,,,,,,,,,,,,,,,,108,001,2010-10-14_14h53.52.253,eb_01,2022.2.4,119.9868891046044,
6,stimuli/6.png,s,1,0,1,0,32,0,32,0,0,0,0,0,,,,,,,,,,,,,,,,,,280.1823608247796,280.1823608247796,280.1823608247796,280.1823608247796,s,1,0.3671348157513421,280.5823997633561,280.5823997633561,280.5823997633561,,,,,,,,,,,,,,,,,,,,,,,,,,,,108,001,2010-10-14_14h53.52.253,eb_01,2022.2.4,119.9868891046044,
,,,1,0,1,0,32,0,32,0,,,,,,,,,,,,,,,,,,,,,,,,,,,,,,,,,,,,,,,,,,,,,,,,,,,,,,,,,,,108,001,2010-10-14_14h53.52.253,eb_01,2022.2.4,119.9868891046044,
5,stimuli/5.png,s,1,0,1,0,33,0,33,0,0,0,0,0,,,,,,,,,,,,,,,,,,281.5825069199054,281.5825069199054,281.5825069199054,281.5825069199054,s,1,0.6870330321253277,282.290876600935,282.290876600935,282.290876600935,,,,,,,,,,,,,,,,,,,,,,,,,,,,108,001,2010-10-14_14h53.52.253,eb_01,2022.2.4,119.9868891046044,
,,,1,0,1,0,33,0,33,0,,,,,,,,,,,,,,,,,,,,,,,,,,,,,,,,,,,,,,,,,,,,,,,,,,,,,,,,,,,108,001,2010-10-14_14h53.52.253,eb_01,2022.2.4,119.9868891046044,
9,stimuli/9.png,l,1,0,1,0,34,0,34,0,0,0,0,0,,,,,,,,,,,,,,,,,,283.30766003302415,283.30766003302415,283.30766003302415,283.30766003302415,l,1,0.5699226971046301,283.90768719947664,283.90768719947664,283.90768719947664,,,,,,,,,,,,,,,,,,,,,,,,,,,,108,001,2010-10-14_14h53.52.253,eb_01,2022.2.4,119.9868891046044,
,,,1,0,1,0,34,0,34,0,,,,,,,,,,,,,,,,,,,,,,,,,,,,,,,,,,,,,,,,,,,,,,,,,,,,,,,,,,,108,001,2010-10-14_14h53.52.253,eb_01,2022.2.4,119.9868891046044,
5,stimuli/5.png,s,1,0,1,0,35,0,35,0,0,0,0,0,,,,,,,,,,,,,,,,,,284.90777141547005,284.90777141547005,284.90777141547005,284.90777141547005,s,1,0.5298280371207511,285.4578144290135,285.4578144290135,285.4578144290135,,,,,,,,,,,,,,,,,,,,,,,,,,,,108,001,2010-10-14_14h53.52.253,eb_01,2022.2.4,119.9868891046044,
,,,1,0,1,0,35,0,35,0,,,,,,,,,,,,,,,,,,,,,,,,,,,,,,,,,,,,,,,,,,,,,,,,,,,,,,,,,,,108,001,2010-10-14_14h53.52.253,eb_01,2022.2.4,119.9868891046044,
9,stimuli/9.png,l,1,0,1,0,36,0,36,0,0,0,0,0,,,,,,,,,,,,,,,,,,286.4745912204089,286.4745912204089,286.4745912204089,286.4745912204089,l,1,0.5230433674587402,287.0246185377764,287.0246185377764,287.0246185377764,,,,,,,,,,,,,,,,,,,,,,,,,,,,108,001,2010-10-14_14h53.52.253,eb_01,2022.2.4,119.9868891046044,
,,,1,0,1,0,36,0,36,0,,,,,,,,,,,,,,,,,,,,,,,,,,,,,,,,,,,,,,,,,,,,,,,,,,,,,,,,,,,108,001,2010-10-14_14h53.52.253,eb_01,2022.2.4,119.9868891046044,
5,stimuli/5.png,s,1,0,1,0,37,0,37,0,0,0,0,0,,,,,,,,,,,,,,,,,,288.02471754439466,288.02471754439466,288.02471754439466,288.02471754439466,s,1,0.46897398434521165,288.51640883694927,288.51640883694927,288.51640883694927,,,,,,,,,,,,,,,,,,,,,,,,,,,,108,001,2010-10-14_14h53.52.253,eb_01,2022.2.4,119.9868891046044,
,,,1,0,1,0,37,0,37,0,,,,,,,,,,,,,,,,,,,,,,,,,,,,,,,,,,,,,,,,,,,,,,,,,,,,,,,,,,,108,001,2010-10-14_14h53.52.253,eb_01,2022.2.4,119.9868891046044,
9,stimuli/9.png,l,1,0,1,0,38,0,38,0,0,0,0,0,,,,,,,,,,,,,,,,,,289.5331699321832,289.5331699321832,289.5331699321832,289.5331699321832,l,1,0.4075693581980886,289.96654542381293,289.96654542381293,289.96654542381293,,,,,,,,,,,,,,,,,,,,,,,,,,,,108,001,2010-10-14_14h53.52.253,eb_01,2022.2.4,119.9868891046044,
,,,1,0,1,0,38,0,38,0,,,,,,,,,,,,,,,,,,,,,,,,,,,,,,,,,,,,,,,,,,,,,,,,,,,,,,,,,,,108,001,2010-10-14_14h53.52.253,eb_01,2022.2.4,119.9868891046044,
5,stimuli/5.png,s,1,0,1,0,39,0,39,0,0,0,0,0,,,,,,,,,,,,,,,,,,290.9666242065141,290.9666242065141,290.9666242065141,290.9666242065141,s,1,0.41409504105104133,291.39998430383275,291.39998430383275,291.39998430383275,,,,,,,,,,,,,,,,,,,,,,,,,,,,108,001,2010-10-14_14h53.52.253,eb_01,2022.2.4,119.9868891046044,
,,,1,0,1,0,39,0,39,0,,,,,,,,,,,,,,,,,,,,,,,,,,,,,,,,,,,,,,,,,,,,,,,,,,,,,,,,,,,108,001,2010-10-14_14h53.52.253,eb_01,2022.2.4,119.9868891046044,
6,stimuli/6.png,s,1,0,1,0,40,0,40,0,0,0,0,0,,,,,,,,,,,,,,,,,,292.425080669258,292.425080669258,292.425080669258,292.425080669258,s,1,0.467671805905411,292.9251259466837,292.9251259466837,292.9251259466837,,,,,,,,,,,,,,,,,,,,,,,,,,,,108,001,2010-10-14_14h53.52.253,eb_01,2022.2.4,119.9868891046044,
,,,1,0,1,0,40,0,40,0,,,,,,,,,,,,,,,,,,,,,,,,,,,,,,,,,,,,,,,,,,,,,,,,,,,,,,,,,,,108,001,2010-10-14_14h53.52.253,eb_01,2022.2.4,119.9868891046044,
9,stimuli/9.png,l,1,0,1,0,41,0,41,0,0,0,0,0,,,,,,,,,,,,,,,,,,293.941894588148,293.941894588148,293.941894588148,293.941894588148,l,1,0.5029142362618586,294.47525528915867,294.47525528915867,294.47525528915867,,,,,,,,,,,,,,,,,,,,,,,,,,,,108,001,2010-10-14_14h53.52.253,eb_01,2022.2.4,119.9868891046044,
,,,1,0,1,0,41,0,41,0,,,,,,,,,,,,,,,,,,,,,,,,,,,,,,,,,,,,,,,,,,,,,,,,,,,,,,,,,,,108,001,2010-10-14_14h53.52.253,eb_01,2022.2.4,119.9868891046044,
6,stimuli/6.png,s,1,0,1,0,42,0,42,0,0,0,0,0,,,,,,,,,,,,,,,,,,295.4920103473996,295.4920103473996,295.4920103473996,295.4920103473996,s,1,0.4887750052002957,296.00872254301794,296.00872254301794,296.00872254301794,,,,,,,,,,,,,,,,,,,,,,,,,,,,108,001,2010-10-14_14h53.52.253,eb_01,2022.2.4,119.9868891046044,
,,,1,0,1,0,42,0,42,0,,,,,,,,,,,,,,,,,,,,,,,,,,,,,,,,,,,,,,,,,,,,,,,,,,,,,,,,,,,108,001,2010-10-14_14h53.52.253,eb_01,2022.2.4,119.9868891046044,
9,stimuli/9.png,l,1,0,1,0,43,0,43,0,0,0,0,0,,,,,,,,,,,,,,,,,,297.0171432366187,297.0171432366187,297.0171432366187,297.0171432366187,l,1,0.3556968352640979,297.40050227745087,297.40050227745087,297.40050227745087,,,,,,,,,,,,,,,,,,,,,,,,,,,,108,001,2010-10-14_14h53.52.253,eb_01,2022.2.4,119.9868891046044,
,,,1,0,1,0,43,0,43,0,,,,,,,,,,,,,,,,,,,,,,,,,,,,,,,,,,,,,,,,,,,,,,,,,,,,,,,,,,,108,001,2010-10-14_14h53.52.253,eb_01,2022.2.4,119.9868891046044,
6,stimuli/6.png,s,1,0,1,0,44,0,44,0,0,0,0,0,,,,,,,,,,,,,,,,,,298.4172594486445,298.4172594486445,298.4172594486445,298.4172594486445,s,1,0.4676047953253146,298.91731136674935,298.91731136674935,298.91731136674935,,,,,,,,,,,,,,,,,,,,,,,,,,,,108,001,2010-10-14_14h53.52.253,eb_01,2022.2.4,119.9868891046044,
,,,1,0,1,0,44,0,44,0,,,,,,,,,,,,,,,,,,,,,,,,,,,,,,,,,,,,,,,,,,,,,,,,,,,,,,,,,,,108,001,2010-10-14_14h53.52.253,eb_01,2022.2.4,119.9868891046044,
9,stimuli/9.png,l,1,0,1,0,45,0,45,0,0,0,0,0,,,,,,,,,,,,,,,,,,299.92572179745184,299.92572179745184,299.92572179745184,299.92572179745184,l,1,0.375154653302161,300.32575530273607,300.32575530273607,300.32575530273607,,,,,,,,,,,,,,,,,,,,,,,,,,,,108,001,2010-10-14_14h53.52.253,eb_01,2022.2.4,119.9868891046044,
,,,1,0,1,0,45,0,45,0,,,,,,,,,,,,,,,,,,,,,,,,,,,,,,,,,,,,,,,,,,,,,,,,,,,,,,,,,,,108,001,2010-10-14_14h53.52.253,eb_01,2022.2.4,119.9868891046044,
8,stimuli/8.png,l,1,0,1,0,46,0,46,0,0,0,0,0,,,,,,,,,,,,,,,,,,301.33417146859574,301.33417146859574,301.33417146859574,301.33417146859574,l,1,0.4707470479042968,301.82590441635693,301.82590441635693,301.82590441635693,,,,,,,,,,,,,,,,,,,,,,,,,,,,108,001,2010-10-14_14h53.52.253,eb_01,2022.2.4,119.9868891046044,
,,,1,0,1,0,46,0,46,0,,,,,,,,,,,,,,,,,,,,,,,,,,,,,,,,,,,,,,,,,,,,,,,,,,,,,,,,,,,108,001,2010-10-14_14h53.52.253,eb_01,2022.2.4,119.9868891046044,
6,stimuli/6.png,s,1,0,1,0,47,0,47,0,0,0,0,0,,,,,,,,,,,,,,,,,,302.85097270979895,302.85097270979895,302.85097270979895,302.85097270979895,s,1,0.5859647869947366,303.4676963756938,303.4676963756938,303.4676963756938,,,,,,,,,,,,,,,,,,,,,,,,,,,,108,001,2010-10-14_14h53.52.253,eb_01,2022.2.4,119.9868891046044,
,,,1,0,1,0,47,0,47,0,,,,,,,,,,,,,,,,,,,,,,,,,,,,,,,,,,,,,,,,,,,,,,,,,,,,,,,,,,,108,001,2010-10-14_14h53.52.253,eb_01,2022.2.4,119.9868891046044,
5,stimuli/5.png,s,1,0,1,0,48,0,48,0,0,0,0,0,,,,,,,,,,,,,,,,,,304.4677709325042,304.4677709325042,304.4677709325042,304.4677709325042,s,1,0.6172548009053571,305.109498296064,305.109498296064,305.109498296064,,,,,,,,,,,,,,,,,,,,,,,,,,,,108,001,2010-10-14_14h53.52.253,eb_01,2022.2.4,119.9868891046044,
,,,1,0,1,0,48,0,48,0,,,,,,,,,,,,,,,,,,,,,,,,,,,,,,,,,,,,,,,,,,,,,,,,,,,,,,,,,,,108,001,2010-10-14_14h53.52.253,eb_01,2022.2.4,119.9868891046044,
6,stimuli/6.png,s,1,0,1,0,49,0,49,0,0,0,0,0,,,,,,,,,,,,,,,,,,306.13458651155815,306.13458651155815,306.13458651155815,306.13458651155815,s,1,0.7174289680260699,306.88464461757394,306.88464461757394,306.88464461757394,,,,,,,,,,,,,,,,,,,,,,,,,,,,108,001,2010-10-14_14h53.52.253,eb_01,2022.2.4,119.9868891046044,
,,,1,0,1,0,49,0,49,0,,,,,,,,,,,,,,,,,,,,,,,,,,,,,,,,,,,,,,,,,,,,,,,,,,,,,,,,,,,108,001,2010-10-14_14h53.52.253,eb_01,2022.2.4,119.9868891046044,
5,stimuli/5.png,s,1,0,1,0,50,0,50,0,0,0,0,0,,,,,,,,,,,,,,,,,,307.88474000198767,307.88474000198767,307.88474000198767,307.88474000198767,l,0,0.7113642092590453,308.6181532248156,308.6181532248156,308.6181532248156,,,,,,,,,,,,,,,,,,,,,,,,,,,,108,001,2010-10-14_14h53.52.253,eb_01,2022.2.4,119.9868891046044,
,,,1,0,1,0,50,0,50,0,,,,,,,,,,,,,,,,,,,,,,,,,,,,,,,,,,,,,,,,,,,,,,,,,,,,,,,,,,,108,001,2010-10-14_14h53.52.253,eb_01,2022.2.4,119.9868891046044,
9,stimuli/9.png,l,1,0,1,0,51,0,51,0,0,0,0,0,,,,,,,,,,,,,,,,,,309.634889266541,309.634889266541,309.634889266541,309.634889266541,l,1,0.5531923905218719,310.21827396457957,310.21827396457957,310.21827396457957,,,,,,,,,,,,,,,,,,,,,,,,,,,,108,001,2010-10-14_14h53.52.253,eb_01,2022.2.4,119.9868891046044,
,,,1,0,1,0,51,0,51,0,,,,,,,,,,,,,,,,,,,,,,,,,,,,,,,,,,,,,,,,,,,,,,,,,,,,,,,,,,,108,001,2010-10-14_14h53.52.253,eb_01,2022.2.4,119.9868891046044,
5,stimuli/5.png,s,1,0,1,0,52,0,52,0,0,0,0,0,,,,,,,,,,,,,,,,,,311.2183593879745,311.2183593879745,311.2183593879745,311.2183593879745,s,1,0.4977577424288029,311.7350573966687,311.7350573966687,311.7350573966687,,,,,,,,,,,,,,,,,,,,,,,,,,,,108,001,2010-10-14_14h53.52.253,eb_01,2022.2.4,119.9868891046044,
,,,1,0,1,0,52,0,52,0,,,,,,,,,,,,,,,,,,,,,,,,,,,,,,,,,,,,,,,,,,,,,,,,,,,,,,,,,,,108,001,2010-10-14_14h53.52.253,eb_01,2022.2.4,119.9868891046044,
9,stimuli/9.png,l,1,0,1,0,53,0,53,0,0,0,0,0,,,,,,,,,,,,,,,,,,312.75182181224227,312.75182181224227,312.75182181224227,312.75182181224227,l,1,0.4923160008911509,313.27686746697873,313.27686746697873,313.27686746697873,,,,,,,,,,,,,,,,,,,,,,,,,,,,108,001,2010-10-14_14h53.52.253,eb_01,2022.2.4,119.9868891046044,
,,,1,0,1,0,53,0,53,0,,,,,,,,,,,,,,,,,,,,,,,,,,,,,,,,,,,,,,,,,,,,,,,,,,,,,,,,,,,108,001,2010-10-14_14h53.52.253,eb_01,2022.2.4,119.9868891046044,
5,stimuli/5.png,s,1,0,1,0,54,0,54,0,0,0,0,0,,,,,,,,,,,,,,,,,,314.276954399611,314.276954399611,314.276954399611,314.276954399611,s,1,0.4632391469931463,314.76034785129013,314.76034785129013,314.76034785129013,,,,,,,,,,,,,,,,,,,,,,,,,,,,108,001,2010-10-14_14h53.52.253,eb_01,2022.2.4,119.9868891046044,
,,,1,0,1,0,54,0,54,0,,,,,,,,,,,,,,,,,,,,,,,,,,,,,,,,,,,,,,,,,,,,,,,,,,,,,,,,,,,108,001,2010-10-14_14h53.52.253,eb_01,2022.2.4,119.9868891046044,
9,stimuli/9.png,l,1,0,1,0,55,0,55,0,0,0,0,0,,,,,,,,,,,,,,,,,,315.7770838930155,315.7770838930155,315.7770838930155,315.7770838930155,l,1,0.5471372909232741,316.3521272838698,316.3521272838698,316.3521272838698,,,,,,,,,,,,,,,,,,,,,,,,,,,,108,001,2010-10-14_14h53.52.253,eb_01,2022.2.4,119.9868891046044,
,,,1,0,1,0,55,0,55,0,,,,,,,,,,,,,,,,,,,,,,,,,,,,,,,,,,,,,,,,,,,,,,,,,,,,,,,,,,,108,001,2010-10-14_14h53.52.253,eb_01,2022.2.4,119.9868891046044,
5,stimuli/5.png,s,1,0,1,0,56,0,56,0,0,0,0,0,,,,,,,,,,,,,,,,,,317.3522392700106,317.3522392700106,317.3522392700106,317.3522392700106,s,1,0.5640423683362314,317.9355986127048,317.9355986127048,317.9355986127048,,,,,,,,,,,,,,,,,,,,,,,,,,,,108,001,2010-10-14_14h53.52.253,eb_01,2022.2.4,119.9868891046044,
,,,1,0,1,0,56,0,56,0,,,,,,,,,,,,,,,,,,,,,,,,,,,,,,,,,,,,,,,,,,,,,,,,,,,,,,,,,,,108,001,2010-10-14_14h53.52.253,eb_01,2022.2.4,119.9868891046044,
9,stimuli/9.png,l,1,0,1,0,57,0,57,0,0,0,0,0,,,,,,,,,,,,,,,,,,318.95236966895754,318.95236966895754,318.95236966895754,318.95236966895754,l,1,0.3399095062923152,319.3190527361148,319.3190527361148,319.3190527361148,,,,,,,,,,,,,,,,,,,,,,,,,,,,108,001,2010-10-14_14h53.52.253,eb_01,2022.2.4,119.9868891046044,
,,,1,0,1,0,57,0,57,0,,,,,,,,,,,,,,,,,,,,,,,,,,,,,,,,,,,,,,,,,,,,,,,,,,,,,,,,,,,108,001,2010-10-14_14h53.52.253,eb_01,2022.2.4,119.9868891046044,
8,stimuli/8.png,l,1,0,1,0,58,0,58,0,0,0,0,0,,,,,,,,,,,,,,,,,,320.3191420835501,320.3191420835501,320.3191420835501,320.3191420835501,l,1,0.5171790367021458,320.86084861950076,320.86084861950076,320.86084861950076,,,,,,,,,,,,,,,,,,,,,,,,,,,,108,001,2010-10-14_14h53.52.253,eb_01,2022.2.4,119.9868891046044,
,,,1,0,1,0,58,0,58,0,,,,,,,,,,,,,,,,,,,,,,,,,,,,,,,,,,,,,,,,,,,,,,,,,,,,,,,,,,,108,001,2010-10-14_14h53.52.253,eb_01,2022.2.4,119.9868891046044,
9,stimuli/9.png,l,1,0,1,0,59,0,59,0,0,0,0,0,,,,,,,,,,,,,,,,,,321.87760639438056,321.87760639438056,321.87760639438056,321.87760639438056,l,1,0.6537426620343467,322.5609953183157,322.5609953183157,322.5609953183157,,,,,,,,,,,,,,,,,,,,,,,,,,,,108,001,2010-10-14_14h53.52.253,eb_01,2022.2.4,119.9868891046044,
,,,1,0,1,0,59,0,59,0,,,,,,,,,,,,,,,,,,,,,,,,,,,,,,,,,,,,,,,,,,,,,,,,,,,,,,,,,,,108,001,2010-10-14_14h53.52.253,eb_01,2022.2.4,119.9868891046044,
8,stimuli/8.png,l,1,0,1,0,60,0,60,0,0,0,0,0,,,,,,,,,,,,,,,,,,323.56108466575097,323.56108466575097,323.56108466575097,323.56108466575097,l,1,0.45829092926578596,324.03612232147134,324.03612232147134,324.03612232147134,,,,,,,,,,,,,,,,,,,,,,,,,,,,108,001,2010-10-14_14h53.52.253,eb_01,2022.2.4,119.9868891046044,
,,,1,0,1,0,60,0,60,0,,,,,,,,,,,,,,,,,,,,,,,,,,,,,,,,,,,,,,,,,,,,,,,,,,,,,,,,,,,108,001,2010-10-14_14h53.52.253,eb_01,2022.2.4,119.9868891046044,
3,stimuli/3.png,l,1,0,1,0,61,0,61,0,0,0,0,0,,,,,,,,,,,,,,,,,,325.0445529760909,325.0445529760909,325.0445529760909,325.0445529760909,l,1,0.5348320969933411,325.594601724777,325.594601724777,325.594601724777,326.6030121554795,326.6030121554795,326.6030121554795,,,,,,,,,,,,,,,,,,,,,,,,,108,001,2010-10-14_14h53.52.253,eb_01,2022.2.4,119.9868891046044,
,,,1,0,1,0,61,0,61,0,,,,,,,,,,,,,,,,,,,,,,,,,,,,,,,,,,,,,,,,,,,,,,,,,,,,,,,,,,,108,001,2010-10-14_14h53.52.253,eb_01,2022.2.4,119.9868891046044,
8,stimuli/8.png,l,1,0,1,0,62,0,62,0,0,0,0,0,,,,,,,,,,,,,,,,,,326.6030121554795,326.6030121554795,326.6030121554795,326.6030121554795,l,1,0.5204242199397413,327.1447636669909,327.1447636669909,327.1447636669909,,,,,,,,,,,,,,,,,,,,,,,,,,,,108,001,2010-10-14_14h53.52.253,eb_01,2022.2.4,119.9868891046044,
,,,1,0,1,0,62,0,62,0,,,,,,,,,,,,,,,,,,,,,,,,,,,,,,,,,,,,,,,,,,,,,,,,,,,,,,,,,,,108,001,2010-10-14_14h53.52.253,eb_01,2022.2.4,119.9868891046044,
6,stimuli/6.png,s,1,0,1,0,63,0,63,0,0,0,0,0,,,,,,,,,,,,,,,,,,328.1698111328151,328.1698111328151,328.1698111328151,328.1698111328151,s,1,0.4896627443667967,328.6865305728279,328.6865305728279,328.6865305728279,,,,,,,,,,,,,,,,,,,,,,,,,,,,108,001,2010-10-14_14h53.52.253,eb_01,2022.2.4,119.9868891046044,
,,,1,0,1,0,63,0,63,0,,,,,,,,,,,,,,,,,,,,,,,,,,,,,,,,,,,,,,,,,,,,,,,,,,,,,,,,,,,108,001,2010-10-14_14h53.52.253,eb_01,2022.2.4,119.9868891046044,
8,stimuli/8.png,l,1,0,1,0,64,0,64,0,0,0,0,0,,,,,,,,,,,,,,,,,,329.68660724257643,329.68660724257643,329.68660724257643,329.68660724257643,l,1,0.45287363752140664,330.16165667041787,330.16165667041787,330.16165667041787,,,,,,,,,,,,,,,,,,,,,,,,,,,,108,001,2010-10-14_14h53.52.253,eb_01,2022.2.4,119.9868891046044,
,,,1,0,1,0,64,0,64,0,,,,,,,,,,,,,,,,,,,,,,,,,,,,,,,,,,,,,,,,,,,,,,,,,,,,,,,,,,,108,001,2010-10-14_14h53.52.253,eb_01,2022.2.4,119.9868891046044,
9,stimuli/9.png,l,1,0,1,0,65,0,65,0,0,0,0,0,,,,,,,,,,,,,,,,,,331.178402975027,331.178402975027,331.178402975027,331.178402975027,l,1,0.5451148997381097,331.753449384385,331.753449384385,331.753449384385,,,,,,,,,,,,,,,,,,,,,,,,,,,,108,001,2010-10-14_14h53.52.253,eb_01,2022.2.4,119.9868891046044,
,,,1,0,1,0,65,0,65,0,,,,,,,,,,,,,,,,,,,,,,,,,,,,,,,,,,,,,,,,,,,,,,,,,,,,,,,,,,,108,001,2010-10-14_14h53.52.253,eb_01,2022.2.4,119.9868891046044,
8,stimuli/8.png,l,1,0,1,0,66,0,66,0,0,0,0,0,,,,,,,,,,,,,,,,,,332.7535486928391,332.7535486928391,332.7535486928391,332.7535486928391,l,1,0.4820199167734245,333.25357767038804,333.25357767038804,333.25357767038804,,,,,,,,,,,,,,,,,,,,,,,,,,,,108,001,2010-10-14_14h53.52.253,eb_01,2022.2.4,119.9868891046044,
,,,1,0,1,0,66,0,66,0,,,,,,,,,,,,,,,,,,,,,,,,,,,,,,,,,,,,,,,,,,,,,,,,,,,,,,,,,,,108,001,2010-10-14_14h53.52.253,eb_01,2022.2.4,119.9868891046044,
3,stimuli/3.png,l,1,0,1,0,67,0,67,0,0,0,0,0,,,,,,,,,,,,,,,,,,334.2620004769269,334.2620004769269,334.2620004769269,334.2620004769269,l,1,1.053599887251039,335.33708190081234,335.33708190081234,335.33708190081234,,,,,,,,,,,,,,,,,,,,,,,,,,,,108,001,2010-10-14_14h53.52.253,eb_01,2022.2.4,119.9868891046044,
,,,1,0,1,0,67,0,67,0,,,,,,,,,,,,,,,,,,,,,,,,,,,,,,,,,,,,,,,,,,,,,,,,,,,,,,,,,,,108,001,2010-10-14_14h53.52.253,eb_01,2022.2.4,119.9868891046044,
4,stimuli/4.png,l,1,0,1,0,68,0,68,0,0,0,0,0,,,,,,,,,,,,,,,,,,336.3538432978821,336.3538432978821,336.3538432978821,336.3538432978821,l,1,0.816830098759965,337.18725169110985,337.18725169110985,337.18725169110985,,,,,,,,,,,,,,,,,,,,,,,,,,,,108,001,2010-10-14_14h53.52.253,eb_01,2022.2.4,119.9868891046044,
,,,1,0,1,0,68,0,68,0,,,,,,,,,,,,,,,,,,,,,,,,,,,,,,,,,,,,,,,,,,,,,,,,,,,,,,,,,,,108,001,2010-10-14_14h53.52.253,eb_01,2022.2.4,119.9868891046044,
1,stimuli/1.png,s,1,0,1,0,69,0,69,0,0,0,0,0,,,,,,,,,,,,,,,,,,338.2123335677752,338.2123335677752,338.2123335677752,338.2123335677752,s,1,0.6223436804721132,338.8623925793363,338.8623925793363,338.8623925793363,,,,,,,,,,,,,,,,,,,,,,,,,,,,108,001,2010-10-14_14h53.52.253,eb_01,2022.2.4,119.9868891046044,
,,,1,0,1,0,69,0,69,0,,,,,,,,,,,,,,,,,,,,,,,,,,,,,,,,,,,,,,,,,,,,,,,,,,,,,,,,,,,108,001,2010-10-14_14h53.52.253,eb_01,2022.2.4,119.9868891046044,
4,stimuli/4.png,l,1,0,1,0,70,0,70,0,0,0,0,0,,,,,,,,,,,,,,,,,,339.8708211210178,339.8708211210178,339.8708211210178,339.8708211210178,l,1,0.6919411038834369,340.58754357951693,340.58754357951693,340.58754357951693,,,,,,,,,,,,,,,,,,,,,,,,,,,,108,001,2010-10-14_14h53.52.253,eb_01,2022.2.4,119.9868891046044,
,,,1,0,1,0,70,0,70,0,,,,,,,,,,,,,,,,,,,,,,,,,,,,,,,,,,,,,,,,,,,,,,,,,,,,,,,,,,,108,001,2010-10-14_14h53.52.253,eb_01,2022.2.4,119.9868891046044,
1,stimuli/1.png,s,1,0,1,0,71,0,71,0,0,0,0,0,,,,,,,,,,,,,,,,,,341.61262666356924,341.61262666356924,341.61262666356924,341.61262666356924,s,1,0.5741458724951372,342.2126915612025,342.2126915612025,342.2126915612025,,,,,,,,,,,,,,,,,,,,,,,,,,,,108,001,2010-10-14_14h53.52.253,eb_01,2022.2.4,119.9868891046044,
,,,1,0,1,0,71,0,71,0,,,,,,,,,,,,,,,,,,,,,,,,,,,,,,,,,,,,,,,,,,,,,,,,,,,,,,,,,,,108,001,2010-10-14_14h53.52.253,eb_01,2022.2.4,119.9868891046044,
4,stimuli/4.png,l,1,0,1,0,72,0,72,0,0,0,0,0,,,,,,,,,,,,,,,,,,343.22109957711655,343.22109957711655,343.22109957711655,343.22109957711655,l,1,0.4536744440556504,343.69614236426423,343.69614236426423,343.69614236426423,,,,,,,,,,,,,,,,,,,,,,,,,,,,108,001,2010-10-14_14h53.52.253,eb_01,2022.2.4,119.9868891046044,
,,,1,0,1,0,72,0,72,0,,,,,,,,,,,,,,,,,,,,,,,,,,,,,,,,,,,,,,,,,,,,,,,,,,,,,,,,,,,108,001,2010-10-14_14h53.52.253,eb_01,2022.2.4,119.9868891046044,
3,stimuli/3.png,l,1,0,1,0,73,0,73,0,0,0,0,0,,,,,,,,,,,,,,,,,,344.7045594356605,344.7045594356605,344.7045594356605,344.7045594356605,l,1,0.46622413603472523,345.1795998080197,345.1795998080197,345.1795998080197,346.1963521496218,346.1963521496218,346.1963521496218,,,,,,,,,,,,,,,,,,,,,,,,,108,001,2010-10-14_14h53.52.253,eb_01,2022.2.4,119.9868891046044,
,,,1,0,1,0,73,0,73,0,,,,,,,,,,,,,,,,,,,,,,,,,,,,,,,,,,,,,,,,,,,,,,,,,,,,,,,,,,,108,001,2010-10-14_14h53.52.253,eb_01,2022.2.4,119.9868891046044,
4,stimuli/4.png,l,1,0,1,0,74,0,74,0,0,0,0,0,,,,,,,,,,,,,,,,,,346.1963521496218,346.1963521496218,346.1963521496218,346.1963521496218,l,1,0.4384567049710313,346.6547286222776,346.6547286222776,346.6547286222776,,,,,,,,,,,,,,,,,,,,,,,,,,,,108,001,2010-10-14_14h53.52.253,eb_01,2022.2.4,119.9868891046044,
,,,1,0,1,0,74,0,74,0,,,,,,,,,,,,,,,,,,,,,,,,,,,,,,,,,,,,,,,,,,,,,,,,,,,,,,,,,,,108,001,2010-10-14_14h53.52.253,eb_01,2022.2.4,119.9868891046044,
1,stimuli/1.png,s,1,0,1,0,75,0,75,0,0,0,0,0,,,,,,,,,,,,,,,,,,347.6798376653751,347.6798376653751,347.6798376653751,347.6798376653751,s,1,0.5870091860269895,348.296534768524,348.296534768524,348.296534768524,,,,,,,,,,,,,,,,,,,,,,,,,,,,108,001,2010-10-14_14h53.52.253,eb_01,2022.2.4,119.9868891046044,
,,,1,0,1,0,75,0,75,0,,,,,,,,,,,,,,,,,,,,,,,,,,,,,,,,,,,,,,,,,,,,,,,,,,,,,,,,,,,108,001,2010-10-14_14h53.52.253,eb_01,2022.2.4,119.9868891046044,
2,stimuli/2.png,s,1,0,1,0,76,0,76,0,0,0,0,0,,,,,,,,,,,,,,,,,,349.2966217011708,349.2966217011708,349.2966217011708,349.2966217011708,s,1,0.5782706449826946,349.8883371416741,349.8883371416741,349.8883371416741,350.8967629667022,350.8967629667022,350.8967629667022,,,,,,,,,,,,,,,,,,,,,,,,,108,001,2010-10-14_14h53.52.253,eb_01,2022.2.4,119.9868891046044,
,,,1,0,1,0,76,0,76,0,,,,,,,,,,,,,,,,,,,,,,,,,,,,,,,,,,,,,,,,,,,,,,,,,,,,,,,,,,,108,001,2010-10-14_14h53.52.253,eb_01,2022.2.4,119.9868891046044,
3,stimuli/3.png,l,1,0,1,0,77,0,77,0,0,0,0,0,,,,,,,,,,,,,,,,,,350.8967629667022,350.8967629667022,350.8967629667022,350.8967629667022,l,1,0.45015669080021325,351.3634623337275,351.3634623337275,351.3634623337275,,,,,,,,,,,,,,,,,,,,,,,,,,,,108,001,2010-10-14_14h53.52.253,eb_01,2022.2.4,119.9868891046044,
,,,1,0,1,0,77,0,77,0,,,,,,,,,,,,,,,,,,,,,,,,,,,,,,,,,,,,,,,,,,,,,,,,,,,,,,,,,,,108,001,2010-10-14_14h53.52.253,eb_01,2022.2.4,119.9868891046044,
8,stimuli/8.png,l,1,0,1,0,78,0,78,0,0,0,0,0,,,,,,,,,,,,,,,,,,352.3718960068363,352.3718960068363,352.3718960068363,352.3718960068363,l,1,0.7580696736258687,353.14695962160476,353.14695962160476,353.14695962160476,,,,,,,,,,,,,,,,,,,,,,,,,,,,108,001,2010-10-14_14h53.52.253,eb_01,2022.2.4,119.9868891046044,
,,,1,0,1,0,78,0,78,0,,,,,,,,,,,,,,,,,,,,,,,,,,,,,,,,,,,,,,,,,,,,,,,,,,,,,,,,,,,108,001,2010-10-14_14h53.52.253,eb_01,2022.2.4,119.9868891046044,
3,stimuli/3.png,l,1,0,1,0,79,0,79,0,0,0,0,0,,,,,,,,,,,,,,,,,,354.1553718634095,354.1553718634095,354.1553718634095,354.1553718634095,l,1,0.4866216113587143,354.66374395924504,354.66374395924504,354.66374395924504,,,,,,,,,,,,,,,,,,,,,,,,,,,,108,001,2010-10-14_14h53.52.253,eb_01,2022.2.4,119.9868891046044,
,,,1,0,1,0,79,0,79,0,,,,,,,,,,,,,,,,,,,,,,,,,,,,,,,,,,,,,,,,,,,,,,,,,,,,,,,,,,,108,001,2010-10-14_14h53.52.253,eb_01,2022.2.4,119.9868891046044,
2,stimuli/2.png,s,1,0,1,0,80,0,80,0,0,0,0,0,,,,,,,,,,,,,,,,,,355.67216646393354,355.67216646393354,355.67216646393354,355.67216646393354,s,1,0.5618557710404275,356.247216495467,356.247216495467,356.247216495467,357.2722998813697,357.2722998813697,357.2722998813697,,,,,,,,,,,,,,,,,,,,,,,,,108,001,2010-10-14_14h53.52.253,eb_01,2022.2.4,119.9868891046044,
,,,1,0,1,0,80,0,80,0,,,,,,,,,,,,,,,,,,,,,,,,,,,,,,,,,,,,,,,,,,,,,,,,,,,,,,,,,,,108,001,2010-10-14_14h53.52.253,eb_01,2022.2.4,119.9868891046044,
1,stimuli/1.png,s,1,0,1,0,81,0,81,0,0,0,0,0,,,,,,,,,,,,,,,,,,357.2722998813697,357.2722998813697,357.2722998813697,357.2722998813697,s,1,0.5057845225092024,357.80568201369897,357.80568201369897,357.80568201369897,,,,,,,,,,,,,,,,,,,,,,,,,,,,108,001,2010-10-14_14h53.52.253,eb_01,2022.2.4,119.9868891046044,
,,,1,0,1,0,81,0,81,0,,,,,,,,,,,,,,,,,,,,,,,,,,,,,,,,,,,,,,,,,,,,,,,,,,,,,,,,,,,108,001,2010-10-14_14h53.52.253,eb_01,2022.2.4,119.9868891046044,
2,stimuli/2.png,s,1,0,1,0,82,0,82,0,0,0,0,0,,,,,,,,,,,,,,,,,,358.8057716629846,358.8057716629846,358.8057716629846,358.8057716629846,s,1,0.8443065469473368,359.6641701706394,359.6641701706394,359.6641701706394,360.68092673813226,360.68092673813226,360.68092673813226,,,,,,,,,,,,,,,,,,,,,,,,,108,001,2010-10-14_14h53.52.253,eb_01,2022.2.4,119.9868891046044,
,,,1,0,1,0,82,0,82,0,,,,,,,,,,,,,,,,,,,,,,,,,,,,,,,,,,,,,,,,,,,,,,,,,,,,,,,,,,,108,001,2010-10-14_14h53.52.253,eb_01,2022.2.4,119.9868891046044,
4,stimuli/4.png,l,1,0,1,0,83,0,83,0,0,0,0,0,,,,,,,,,,,,,,,,,,360.68092673813226,360.68092673813226,360.68092673813226,360.68092673813226,l,1,1.0012003351876047,361.70601495362644,361.70601495362644,361.70601495362644,,,,,,,,,,,,,,,,,,,,,,,,,,,,108,001,2010-10-14_14h53.52.253,eb_01,2022.2.4,119.9868891046044,
,,,1,0,1,0,83,0,83,0,,,,,,,,,,,,,,,,,,,,,,,,,,,,,,,,,,,,,,,,,,,,,,,,,,,,,,,,,,,108,001,2010-10-14_14h53.52.253,eb_01,2022.2.4,119.9868891046044,
3,stimuli/3.png,l,1,0,1,0,84,0,84,0,0,0,0,0,,,,,,,,,,,,,,,,,,362.7144386657019,362.7144386657019,362.7144386657019,362.7144386657019,l,1,0.607696134960861,363.331160520509,363.331160520509,363.331160520509,364.3479095417715,364.3479095417715,364.3479095417715,,,,,,,,,,,,,,,,,,,,,,,,,108,001,2010-10-14_14h53.52.253,eb_01,2022.2.4,119.9868891046044,
,,,1,0,1,0,84,0,84,0,,,,,,,,,,,,,,,,,,,,,,,,,,,,,,,,,,,,,,,,,,,,,,,,,,,,,,,,,,,108,001,2010-10-14_14h53.52.253,eb_01,2022.2.4,119.9868891046044,
4,stimuli/4.png,l,1,0,1,0,85,0,85,0,0,0,0,0,,,,,,,,,,,,,,,,,,364.3479095417715,364.3479095417715,364.3479095417715,364.3479095417715,l,1,0.6382909896346973,365.0063041253743,365.0063041253743,365.0063041253743,,,,,,,,,,,,,,,,,,,,,,,,,,,,108,001,2010-10-14_14h53.52.253,eb_01,2022.2.4,119.9868891046044,
,,,1,0,1,0,85,0,85,0,,,,,,,,,,,,,,,,,,,,,,,,,,,,,,,,,,,,,,,,,,,,,,,,,,,,,,,,,,,108,001,2010-10-14_14h53.52.253,eb_01,2022.2.4,119.9868891046044,
3,stimuli/3.png,l,1,0,1,0,86,0,86,0,0,0,0,0,,,,,,,,,,,,,,,,,,366.01472119677055,366.01472119677055,366.01472119677055,366.01472119677055,l,1,0.5395149890828179,366.5730949527788,366.5730949527788,366.5730949527788,,,,,,,,,,,,,,,,,,,,,,,,,,,,108,001,2010-10-14_14h53.52.253,eb_01,2022.2.4,119.9868891046044,
,,,1,0,1,0,86,0,86,0,,,,,,,,,,,,,,,,,,,,,,,,,,,,,,,,,,,,,,,,,,,,,,,,,,,,,,,,,,,108,001,2010-10-14_14h53.52.253,eb_01,2022.2.4,119.9868891046044,
4,stimuli/4.png,l,1,0,1,0,87,0,87,0,0,0,0,0,,,,,,,,,,,,,,,,,,367.58985423691047,367.58985423691047,367.58985423691047,367.58985423691047,l,1,0.9714120222051861,368.58160861599026,368.58160861599026,368.58160861599026,,,,,,,,,,,,,,,,,,,,,,,,,,,,108,001,2010-10-14_14h53.52.253,eb_01,2022.2.4,119.9868891046044,
,,,1,0,1,0,87,0,87,0,,,,,,,,,,,,,,,,,,,,,,,,,,,,,,,,,,,,,,,,,,,,,,,,,,,,,,,,,,,108,001,2010-10-14_14h53.52.253,eb_01,2022.2.4,119.9868891046044,
1,stimuli/1.png,s,1,0,1,0,88,0,88,0,0,0,0,0,,,,,,,,,,,,,,,,,,369.6066877760022,369.6066877760022,369.6066877760022,369.6066877760022,s,1,0.5546168179862434,370.1900893776183,370.1900893776183,370.1900893776183,,,,,,,,,,,,,,,,,,,,,,,,,,,,108,001,2010-10-14_14h53.52.253,eb_01,2022.2.4,119.9868891046044,
,,,1,0,1,0,88,0,88,0,,,,,,,,,,,,,,,,,,,,,,,,,,,,,,,,,,,,,,,,,,,,,,,,,,,,,,,,,,,108,001,2010-10-14_14h53.52.253,eb_01,2022.2.4,119.9868891046044,
4,stimuli/4.png,l,1,0,1,0,89,0,89,0,0,0,0,0,,,,,,,,,,,,,,,,,,371.1984998083353,371.1984998083353,371.1984998083353,371.1984998083353,l,1,0.6828237418085337,371.8985583671165,371.8985583671165,371.8985583671165,,,,,,,,,,,,,,,,,,,,,,,,,,,,108,001,2010-10-14_14h53.52.253,eb_01,2022.2.4,119.9868891046044,
,,,1,0,1,0,89,0,89,0,,,,,,,,,,,,,,,,,,,,,,,,,,,,,,,,,,,,,,,,,,,,,,,,,,,,,,,,,,,108,001,2010-10-14_14h53.52.253,eb_01,2022.2.4,119.9868891046044,
2,stimuli/2.png,s,1,0,1,0,90,0,90,0,0,0,0,0,,,,,,,,,,,,,,,,,,372.90697815516614,372.90697815516614,372.90697815516614,372.90697815516614,s,1,0.5183930751081789,373.44036511707236,373.44036511707236,373.44036511707236,374.45710961059376,374.45710961059376,374.45710961059376,,,,,,,,,,,,,,,,,,,,,,,,,108,001,2010-10-14_14h53.52.253,eb_01,2022.2.4,119.9868891046044,
,,,1,0,1,0,90,0,90,0,,,,,,,,,,,,,,,,,,,,,,,,,,,,,,,,,,,,,,,,,,,,,,,,,,,,,,,,,,,108,001,2010-10-14_14h53.52.253,eb_01,2022.2.4,119.9868891046044,
4,stimuli/4.png,l,1,0,1,0,91,0,91,0,0,0,0,0,,,,,,,,,,,,,,,,,,374.45710961059376,374.45710961059376,374.45710961059376,374.45710961059376,l,1,0.7202971413207706,375.1988415018859,375.1988415018859,375.1988415018859,,,,,,,,,,,,,,,,,,,,,,,,,,,,108,001,2010-10-14_14h53.52.253,eb_01,2022.2.4,119.9868891046044,
,,,1,0,1,0,91,0,91,0,,,,,,,,,,,,,,,,,,,,,,,,,,,,,,,,,,,,,,,,,,,,,,,,,,,,,,,,,,,108,001,2010-10-14_14h53.52.253,eb_01,2022.2.4,119.9868891046044,
2,stimuli/2.png,s,1,0,1,0,92,0,92,0,0,0,0,0,,,,,,,,,,,,,,,,,,376.20725615847914,376.20725615847914,376.20725615847914,376.20725615847914,s,1,0.9381790034967707,377.1573311680695,377.1573311680695,377.1573311680695,378.17409135775233,378.17409135775233,378.17409135775233,,,,,,,,,,,,,,,,,,,,,,,,,108,001,2010-10-14_14h53.52.253,eb_01,2022.2.4,119.9868891046044,
,,,1,0,1,0,92,0,92,0,,,,,,,,,,,,,,,,,,,,,,,,,,,,,,,,,,,,,,,,,,,,,,,,,,,,,,,,,,,108,001,2010-10-14_14h53.52.253,eb_01,2022.2.4,119.9868891046044,
4,stimuli/4.png,l,1,0,1,0,93,0,93,0,0,0,0,0,,,,,,,,,,,,,,,,,,378.17409135775233,378.17409135775233,378.17409135775233,378.17409135775233,l,1,0.48338367251562886,378.67413784256496,378.67413784256496,378.67413784256496,,,,,,,,,,,,,,,,,,,,,,,,,,,,108,001,2010-10-14_14h53.52.253,eb_01,2022.2.4,119.9868891046044,
,,,1,0,1,0,93,0,93,0,,,,,,,,,,,,,,,,,,,,,,,,,,,,,,,,,,,,,,,,,,,,,,,,,,,,,,,,,,,108,001,2010-10-14_14h53.52.253,eb_01,2022.2.4,119.9868891046044,
3,stimuli/3.png,l,1,0,1,0,94,0,94,0,0,0,0,0,,,,,,,,,,,,,,,,,,379.68256728978304,379.68256728978304,379.68256728978304,379.68256728978304,l,1,0.4229395312577253,380.1159288963536,380.1159288963536,380.1159288963536,381.1326908971241,381.1326908971241,381.1326908971241,,,,,,,,,,,,,,,,,,,,,,,,,108,001,2010-10-14_14h53.52.253,eb_01,2022.2.4,119.9868891046044,
,,,1,0,1,0,94,0,94,0,,,,,,,,,,,,,,,,,,,,,,,,,,,,,,,,,,,,,,,,,,,,,,,,,,,,,,,,,,,108,001,2010-10-14_14h53.52.253,eb_01,2022.2.4,119.9868891046044,
8,stimuli/8.png,l,1,0,1,0,95,0,95,0,0,0,0,0,,,,,,,,,,,,,,,,,,381.1326908971241,381.1326908971241,381.1326908971241,381.1326908971241,s,0,0.4208449980505975,381.57438596279826,381.57438596279826,381.57438596279826,,,,,,,,,,,,,,,,,,,,,,,,,,,,108,001,2010-10-14_14h53.52.253,eb_01,2022.2.4,119.9868891046044,
,,,1,0,1,0,95,0,95,0,,,,,,,,,,,,,,,,,,,,,,,,,,,,,,,,,,,,,,,,,,,,,,,,,,,,,,,,,,,108,001,2010-10-14_14h53.52.253,eb_01,2022.2.4,119.9868891046044,
9,stimuli/9.png,l,1,0,1,0,96,0,96,0,0,0,0,0,,,,,,,,,,,,,,,,,,382.5911401154881,382.5911401154881,382.5911401154881,382.5911401154881,l,1,0.4584107634873362,383.07451485250203,383.07451485250203,383.07451485250203,,,,,,,,,,,,,,,,,,,,,,,,,,,,108,001,2010-10-14_14h53.52.253,eb_01,2022.2.4,119.9868891046044,
,,,1,0,1,0,96,0,96,0,,,,,,,,,,,,,,,,,,,,,,,,,,,,,,,,,,,,,,,,,,,,,,,,,,,,,,,,,,,108,001,2010-10-14_14h53.52.253,eb_01,2022.2.4,119.9868891046044,
6,stimuli/6.png,s,1,0,1,0,97,0,97,0,0,0,0,0,,,,,,,,,,,,,,,,,,384.09126447745075,384.09126447745075,384.09126447745075,384.09126447745075,s,1,0.50932521634968,384.6329815781355,384.6329815781355,384.6329815781355,,,,,,,,,,,,,,,,,,,,,,,,,,,,108,001,2010-10-14_14h53.52.253,eb_01,2022.2.4,119.9868891046044,
,,,1,0,1,0,97,0,97,0,,,,,,,,,,,,,,,,,,,,,,,,,,,,,,,,,,,,,,,,,,,,,,,,,,,,,,,,,,,108,001,2010-10-14_14h53.52.253,eb_01,2022.2.4,119.9868891046044,
8,stimuli/8.png,l,1,0,1,0,98,0,98,0,0,0,0,0,,,,,,,,,,,,,,,,,,385.63306760521664,385.63306760521664,385.63306760521664,385.63306760521664,l,1,0.6315464659419376,386.28311967424816,386.28311967424816,386.28311967424816,,,,,,,,,,,,,,,,,,,,,,,,,,,,108,001,2010-10-14_14h53.52.253,eb_01,2022.2.4,119.9868891046044,
,,,1,0,1,0,98,0,98,0,,,,,,,,,,,,,,,,,,,,,,,,,,,,,,,,,,,,,,,,,,,,,,,,,,,,,,,,,,,108,001,2010-10-14_14h53.52.253,eb_01,2022.2.4,119.9868891046044,
9,stimuli/9.png,l,1,0,1,0,99,0,99,0,0,0,0,0,,,,,,,,,,,,,,,,,,387.29987563804025,387.29987563804025,387.29987563804025,387.29987563804025,l,1,0.46076911309501156,387.79158292860666,387.79158292860666,387.79158292860666,,,,,,,,,,,,,,,,,,,,,,,,,,,,108,001,2010-10-14_14h53.52.253,eb_01,2022.2.4,119.9868891046044,
,,,1,0,1,0,99,0,99,0,,,,,,,,,,,,,,,,,,,,,,,,,,,,,,,,,,,,,,,,,,,,,,,,,,,,,,,,,,,108,001,2010-10-14_14h53.52.253,eb_01,2022.2.4,119.9868891046044,
,,,1,0,1,0,,,,,,,,,,,,,,,,,,,,,,,,,,,,,,,,,,,,,,,388.7833240263135,388.7833240263135,return,3.0574261306319386,,,,,,,,,,,,,,,,,,,,,108,001,2010-10-14_14h53.52.253,eb_01,2022.2.4,119.9868891046044,
8,stimuli/8.png,l,2,0,2,0,0,0,0,0,0,0,0,0,,,,,,,,,,,,,,,,,,391.86693058369565,391.86693058369565,391.86693058369565,391.86693058369565,l,1,0.7578143090067897,392.6419890670222,392.6419890670222,392.6419890670222,,,,,,,,,,,,,,,,,,,,,,,,,,,,108,001,2010-10-14_14h53.52.253,eb_01,2022.2.4,119.9868891046044,
,,,2,0,2,0,0,0,0,0,,,,,,,,,,,,,,,,,,,,,,,,,,,,,,,,,,,,,,,,,,,,,,,,,,,,,,,,,,,108,001,2010-10-14_14h53.52.253,eb_01,2022.2.4,119.9868891046044,
6,stimuli/6.png,s,2,0,2,0,1,0,1,0,0,0,0,0,,,,,,,,,,,,,,,,,,393.66708482874674,393.66708482874674,393.66708482874674,393.66708482874674,s,1,0.5257068868377246,394.22546794208756,394.22546794208756,394.22546794208756,,,,,,,,,,,,,,,,,,,,,,,,,,,,108,001,2010-10-14_14h53.52.253,eb_01,2022.2.4,119.9868891046044,
,,,2,0,2,0,1,0,1,0,,,,,,,,,,,,,,,,,,,,,,,,,,,,,,,,,,,,,,,,,,,,,,,,,,,,,,,,,,,108,001,2010-10-14_14h53.52.253,eb_01,2022.2.4,119.9868891046044,
5,stimuli/5.png,s,2,0,2,0,2,0,2,0,0,0,0,0,,,,,,,,,,,,,,,,,,395.22555336546793,395.22555336546793,395.22555336546793,395.22555336546793,s,1,0.5033117719722213,395.75059660540137,395.75059660540137,395.75059660540137,,,,,,,,,,,,,,,,,,,,,,,,,,,,108,001,2010-10-14_14h53.52.253,eb_01,2022.2.4,119.9868891046044,
,,,2,0,2,0,2,0,2,0,,,,,,,,,,,,,,,,,,,,,,,,,,,,,,,,,,,,,,,,,,,,,,,,,,,,,,,,,,,108,001,2010-10-14_14h53.52.253,eb_01,2022.2.4,119.9868891046044,
9,stimuli/9.png,l,2,0,2,0,3,0,3,0,0,0,0,0,,,,,,,,,,,,,,,,,,396.7673519654927,396.7673519654927,396.7673519654927,396.7673519654927,l,1,0.5695010134513723,397.3674008650996,397.3674008650996,397.3674008650996,,,,,,,,,,,,,,,,,,,,,,,,,,,,108,001,2010-10-14_14h53.52.253,eb_01,2022.2.4,119.9868891046044,
,,,2,0,2,0,3,0,3,0,,,,,,,,,,,,,,,,,,,,,,,,,,,,,,,,,,,,,,,,,,,,,,,,,,,,,,,,,,,108,001,2010-10-14_14h53.52.253,eb_01,2022.2.4,119.9868891046044,
8,stimuli/8.png,l,2,0,2,0,4,0,4,0,0,0,0,0,,,,,,,,,,,,,,,,,,398.3674871940457,398.3674871940457,398.3674871940457,398.3674871940457,l,1,0.6324402421014383,399.01754530005564,399.01754530005564,399.01754530005564,,,,,,,,,,,,,,,,,,,,,,,,,,,,108,001,2010-10-14_14h53.52.253,eb_01,2022.2.4,119.9868891046044,
,,,2,0,2,0,4,0,4,0,,,,,,,,,,,,,,,,,,,,,,,,,,,,,,,,,,,,,,,,,,,,,,,,,,,,,,,,,,,108,001,2010-10-14_14h53.52.253,eb_01,2022.2.4,119.9868891046044,
6,stimuli/6.png,s,2,0,2,0,5,0,5,0,0,0,0,0,,,,,,,,,,,,,,,,,,400.0426323081483,400.0426323081483,400.0426323081483,400.0426323081483,s,1,0.541289561893791,400.60936608600605,400.60936608600605,400.60936608600605,,,,,,,,,,,,,,,,,,,,,,,,,,,,108,001,2010-10-14_14h53.52.253,eb_01,2022.2.4,119.9868891046044,
,,,2,0,2,0,5,0,5,0,,,,,,,,,,,,,,,,,,,,,,,,,,,,,,,,,,,,,,,,,,,,,,,,,,,,,,,,,,,108,001,2010-10-14_14h53.52.253,eb_01,2022.2.4,119.9868891046044,
5,stimuli/5.png,s,2,0,2,0,6,0,6,0,0,0,0,0,,,,,,,,,,,,,,,,,,401.60943641692575,401.60943641692575,401.60943641692575,401.60943641692575,s,1,0.5425029965990689,402.1761901168502,402.1761901168502,402.1761901168502,,,,,,,,,,,,,,,,,,,,,,,,,,,,108,001,2010-10-14_14h53.52.253,eb_01,2022.2.4,119.9868891046044,
,,,2,0,2,0,6,0,6,0,,,,,,,,,,,,,,,,,,,,,,,,,,,,,,,,,,,,,,,,,,,,,,,,,,,,,,,,,,,108,001,2010-10-14_14h53.52.253,eb_01,2022.2.4,119.9868891046044,
9,stimuli/9.png,l,2,0,2,0,7,0,7,0,0,0,0,0,,,,,,,,,,,,,,,,,,403.19291559384146,403.19291559384146,403.19291559384146,403.19291559384146,l,1,0.5190640864020679,403.7429625314253,403.7429625314253,403.7429625314253,,,,,,,,,,,,,,,,,,,,,,,,,,,,108,001,2010-10-14_14h53.52.253,eb_01,2022.2.4,119.9868891046044,
,,,2,0,2,0,7,0,7,0,,,,,,,,,,,,,,,,,,,,,,,,,,,,,,,,,,,,,,,,,,,,,,,,,,,,,,,,,,,108,001,2010-10-14_14h53.52.253,eb_01,2022.2.4,119.9868891046044,
6,stimuli/6.png,s,2,0,2,0,8,0,8,0,0,0,0,0,,,,,,,,,,,,,,,,,,404.75970128980407,404.75970128980407,404.75970128980407,404.75970128980407,s,1,0.4963055448170053,405.284749359329,405.284749359329,405.284749359329,,,,,,,,,,,,,,,,,,,,,,,,,,,,108,001,2010-10-14_14h53.52.253,eb_01,2022.2.4,119.9868891046044,
,,,2,0,2,0,8,0,8,0,,,,,,,,,,,,,,,,,,,,,,,,,,,,,,,,,,,,,,,,,,,,,,,,,,,,,,,,,,,108,001,2010-10-14_14h53.52.253,eb_01,2022.2.4,119.9868891046044,
5,stimuli/5.png,s,2,0,2,0,9,0,9,0,0,0,0,0,,,,,,,,,,,,,,,,,,406.2848356882605,406.2848356882605,406.2848356882605,406.2848356882605,s,1,0.4991888105869293,406.8015521097841,406.8015521097841,406.8015521097841,,,,,,,,,,,,,,,,,,,,,,,,,,,,108,001,2010-10-14_14h53.52.253,eb_01,2022.2.4,119.9868891046044,
,,,2,0,2,0,9,0,9,0,,,,,,,,,,,,,,,,,,,,,,,,,,,,,,,,,,,,,,,,,,,,,,,,,,,,,,,,,,,108,001,2010-10-14_14h53.52.253,eb_01,2022.2.4,119.9868891046044,
