index,stimulus,correct_answer,block.thisRepN,block.thisTrialN,block.thisN,block.thisIndex,trial.thisRepN,trial.thisTrialN,trial.thisN,trial.thisIndex,display_row.thisRepN,display_row.thisTrialN,display_row.thisN,display_row.thisIndex,pair_questions.thisRepN,pair_questions.thisTrialN,pair_questions.thisN,pair_questions.thisIndex,welcome_text.started,instructions_0_keypress.started,instructions_0_keypress.keys,instructions_0_keypress.rt,instructions_1_keypress.started,instructions_1_text.started,instructions_1_keypress.keys,instructions_1_keypress.rt,instructions_2_keypress.started,instructions_2_text.started,instructions_2_keypress.keys,instructions_2_keypress.rt,text_countdown.started,image.started,size_question.started,size_resp.started,keypress_options.started,size_resp.keys,size_resp.corr,size_resp.rt,fb_image.started,fb.started,fb_size_question.started,fb_image.stopped,fb.stopped,fb_size_question.stopped,block_break_text.started,block_break_keypress.started,block_break_keypress.keys,block_break_keypress.rt,seq_reveal.started,seq_reveal_adv.started,seq_reveal_adv.keys,seq_reveal_adv.rt,instruction_2afc_text.started,instruction_2afc_keypress.started,instruction_2afc_keypress.keys,instruction_2afc_keypress.rt,dist_2afc_test.started,dist_2afc_resp.started,text.started,stim_00.started,stim_01.started,stim_10.started,stim_11.started,dist_2afc_resp.keys,dist_2afc_resp.rt,graph.started,debrief_text.started,debriefing_title.started,participant,session,date,expName,psychopyVersion,frameRate,
,,,,,,,,,,,,,,,,,,,13.657969301391859,13.657969301391859,return,7.8993100567713554,,,,,,,,,,,,,,,,,,,,,,,,,,,,,,,,,,,,,,,,,,,,,,,109,001,2023-03-01_15h15.58.186,eb_01,2022.2.4,99.92094801820251,
,,,,,,,,,,,,,,,,,,,,,,,21.57276709753569,21.57276709753569,return,9.224647017919779,,,,,,,,,,,,,,,,,,,,,,,,,,,,,,,,,,,,,,,,,,,109,001,2023-03-01_15h15.58.186,eb_01,2022.2.4,99.92094801820251,
,,,,,,,,,,,,,,,,,,,,,,,,,,,30.808305907870817,30.808305907870817,space,10.276307200376323,,,,,,,,,,,,,,,,,,,,,,,,,,,,,,,,,,,,,,,109,001,2023-03-01_15h15.58.186,eb_01,2022.2.4,99.92094801820251,
6,stimuli/6.png,s,0,0,0,0,0,0,0,0,0,0,0,0,,,,,,,,,,,,,,,,,41.1045036114665,46.12754371597839,46.12754371597839,46.12754371597839,46.12754371597839,s,1,1.1321225704450626,47.297923673955665,47.297923673955665,47.297923673955665,,,,,,,,,,,,,,,,,,,,,,,,,,,,109,001,2023-03-01_15h15.58.186,eb_01,2022.2.4,99.92094801820251,
,,,0,0,0,0,0,0,0,0,,,,,,,,,,,,,,,,,,,,,,,,,,,,,,,,,,,,,,,,,,,,,,,,,,,,,,,,,,,109,001,2023-03-01_15h15.58.186,eb_01,2022.2.4,99.92094801820251,
5,stimuli/5.png,s,0,0,0,0,1,0,1,0,0,0,0,0,,,,,,,,,,,,,,,,,,48.29888898581703,48.29888898581703,48.29888898581703,48.29888898581703,s,1,0.7928175647975877,49.1193183413161,49.1193183413161,49.1193183413161,,,,,,,,,,,,,,,,,,,,,,,,,,,,109,001,2023-03-01_15h15.58.186,eb_01,2022.2.4,99.92094801820251,
,,,0,0,0,0,1,0,1,0,,,,,,,,,,,,,,,,,,,,,,,,,,,,,,,,,,,,,,,,,,,,,,,,,,,,,,,,,,,109,001,2023-03-01_15h15.58.186,eb_01,2022.2.4,99.92094801820251,
6,stimuli/6.png,s,0,0,0,0,2,0,2,0,0,0,0,0,,,,,,,,,,,,,,,,,,50.13963003623212,50.13963003623212,50.13963003623212,50.13963003623212,s,1,0.5441094013949623,50.72032730048522,50.72032730048522,50.72032730048522,,,,,,,,,,,,,,,,,,,,,,,,,,,,109,001,2023-03-01_15h15.58.186,eb_01,2022.2.4,99.92094801820251,
,,,0,0,0,0,2,0,2,0,,,,,,,,,,,,,,,,,,,,,,,,,,,,,,,,,,,,,,,,,,,,,,,,,,,,,,,,,,,109,001,2023-03-01_15h15.58.186,eb_01,2022.2.4,99.92094801820251,
9,stimuli/9.png,l,0,0,0,0,3,0,3,0,0,0,0,0,,,,,,,,,,,,,,,,,,51.73093727917876,51.73093727917876,51.73093727917876,51.73093727917876,l,1,1.144866316972184,52.90132508521856,52.90132508521856,52.90132508521856,,,,,,,,,,,,,,,,,,,,,,,,,,,,109,001,2023-03-01_15h15.58.186,eb_01,2022.2.4,99.92094801820251,
,,,0,0,0,0,3,0,3,0,,,,,,,,,,,,,,,,,,,,,,,,,,,,,,,,,,,,,,,,,,,,,,,,,,,,,,,,,,,109,001,2023-03-01_15h15.58.186,eb_01,2022.2.4,99.92094801820251,
8,stimuli/8.png,l,0,0,0,0,4,0,4,0,0,0,0,0,,,,,,,,,,,,,,,,,,53.912250495712215,53.912250495712215,53.912250495712215,53.912250495712215,l,1,0.4835803030364332,54.42256239890048,54.42256239890048,54.42256239890048,,,,,,,,,,,,,,,,,,,,,,,,,,,,109,001,2023-03-01_15h15.58.186,eb_01,2022.2.4,99.92094801820251,
,,,0,0,0,0,4,0,4,0,,,,,,,,,,,,,,,,,,,,,,,,,,,,,,,,,,,,,,,,,,,,,,,,,,,,,,,,,,,109,001,2023-03-01_15h15.58.186,eb_01,2022.2.4,99.92094801820251,
3,stimuli/3.png,l,0,0,0,0,5,0,5,0,0,0,0,0,,,,,,,,,,,,,,,,,,55.43317932010905,55.43317932010905,55.43317932010905,55.43317932010905,l,1,0.6426871209223464,56.09325190262825,56.09325190262825,56.09325190262825,57.103873955264135,57.103873955264135,57.103873955264135,,,,,,,,,,,,,,,,,,,,,,,,,109,001,2023-03-01_15h15.58.186,eb_01,2022.2.4,99.92094801820251,
,,,0,0,0,0,5,0,5,0,,,,,,,,,,,,,,,,,,,,,,,,,,,,,,,,,,,,,,,,,,,,,,,,,,,,,,,,,,,109,001,2023-03-01_15h15.58.186,eb_01,2022.2.4,99.92094801820251,
8,stimuli/8.png,l,0,0,0,0,6,0,6,0,0,0,0,0,,,,,,,,,,,,,,,,,,57.103873955264135,57.103873955264135,57.103873955264135,57.103873955264135,l,1,0.707989049522439,57.83462106981824,57.83462106981824,57.83462106981824,,,,,,,,,,,,,,,,,,,,,,,,,,,,109,001,2023-03-01_15h15.58.186,eb_01,2022.2.4,99.92094801820251,
,,,0,0,0,0,6,0,6,0,,,,,,,,,,,,,,,,,,,,,,,,,,,,,,,,,,,,,,,,,,,,,,,,,,,,,,,,,,,109,001,2023-03-01_15h15.58.186,eb_01,2022.2.4,99.92094801820251,
3,stimuli/3.png,l,0,0,0,0,7,0,7,0,0,0,0,0,,,,,,,,,,,,,,,,,,58.84524614093971,58.84524614093971,58.84524614093971,58.84524614093971,l,1,0.5266381019137043,59.3852379125492,59.3852379125492,59.3852379125492,60.3961672470723,60.3961672470723,60.3961672470723,,,,,,,,,,,,,,,,,,,,,,,,,109,001,2023-03-01_15h15.58.186,eb_01,2022.2.4,99.92094801820251,
,,,0,0,0,0,7,0,7,0,,,,,,,,,,,,,,,,,,,,,,,,,,,,,,,,,,,,,,,,,,,,,,,,,,,,,,,,,,,109,001,2023-03-01_15h15.58.186,eb_01,2022.2.4,99.92094801820251,
2,stimuli/2.png,s,0,0,0,0,8,0,8,0,0,0,0,0,,,,,,,,,,,,,,,,,,60.3961672470723,60.3961672470723,60.3961672470723,60.3961672470723,s,1,0.5517733376400429,60.966195672153844,60.966195672153844,60.966195672153844,61.97712379928271,61.97712379928271,61.97712379928271,,,,,,,,,,,,,,,,,,,,,,,,,109,001,2023-03-01_15h15.58.186,eb_01,2022.2.4,99.92094801820251,
,,,0,0,0,0,8,0,8,0,,,,,,,,,,,,,,,,,,,,,,,,,,,,,,,,,,,,,,,,,,,,,,,,,,,,,,,,,,,109,001,2023-03-01_15h15.58.186,eb_01,2022.2.4,99.92094801820251,
3,stimuli/3.png,l,0,0,0,0,9,0,9,0,0,0,0,0,,,,,,,,,,,,,,,,,,61.97712379928271,61.97712379928271,61.97712379928271,61.97712379928271,l,1,0.4578957028425066,62.44708729673221,62.44708729673221,62.44708729673221,63.45770934936809,63.45770934936809,63.45770934936809,,,,,,,,,,,,,,,,,,,,,,,,,109,001,2023-03-01_15h15.58.186,eb_01,2022.2.4,99.92094801820251,
,,,0,0,0,0,9,0,9,0,,,,,,,,,,,,,,,,,,,,,,,,,,,,,,,,,,,,,,,,,,,,,,,,,,,,,,,,,,,109,001,2023-03-01_15h15.58.186,eb_01,2022.2.4,99.92094801820251,
4,stimuli/4.png,l,0,0,0,0,10,0,10,0,0,0,0,0,,,,,,,,,,,,,,,,,,63.45770934936809,63.45770934936809,63.45770934936809,63.45770934936809,l,1,0.5692600313996081,64.04841651727838,64.04841651727838,64.04841651727838,,,,,,,,,,,,,,,,,,,,,,,,,,,,109,001,2023-03-01_15h15.58.186,eb_01,2022.2.4,99.92094801820251,
,,,0,0,0,0,10,0,10,0,,,,,,,,,,,,,,,,,,,,,,,,,,,,,,,,,,,,,,,,,,,,,,,,,,,,,,,,,,,109,001,2023-03-01_15h15.58.186,eb_01,2022.2.4,99.92094801820251,
3,stimuli/3.png,l,0,0,0,0,11,0,11,0,0,0,0,0,,,,,,,,,,,,,,,,,,65.05899087783473,65.05899087783473,65.05899087783473,65.05899087783473,l,1,0.44000060790858697,65.5089396994008,65.5089396994008,65.5089396994008,66.51984428233845,66.51984428233845,66.51984428233845,,,,,,,,,,,,,,,,,,,,,,,,,109,001,2023-03-01_15h15.58.186,eb_01,2022.2.4,99.92094801820251,
,,,0,0,0,0,11,0,11,0,,,,,,,,,,,,,,,,,,,,,,,,,,,,,,,,,,,,,,,,,,,,,,,,,,,,,,,,,,,109,001,2023-03-01_15h15.58.186,eb_01,2022.2.4,99.92094801820251,
8,stimuli/8.png,l,0,0,0,0,12,0,12,0,0,0,0,0,,,,,,,,,,,,,,,,,,66.51984428233845,66.51984428233845,66.51984428233845,66.51984428233845,l,1,0.4511696102308633,67.00015726312631,67.00015726312631,67.00015726312631,,,,,,,,,,,,,,,,,,,,,,,,,,,,109,001,2023-03-01_15h15.58.186,eb_01,2022.2.4,99.92094801820251,
,,,0,0,0,0,12,0,12,0,,,,,,,,,,,,,,,,,,,,,,,,,,,,,,,,,,,,,,,,,,,,,,,,,,,,,,,,,,,109,001,2023-03-01_15h15.58.186,eb_01,2022.2.4,99.92094801820251,
9,stimuli/9.png,l,0,0,0,0,13,0,13,0,0,0,0,0,,,,,,,,,,,,,,,,,,68.02076597707492,68.02076597707492,68.02076597707492,68.02076597707492,l,1,0.4703191879889346,68.51076739274504,68.51076739274504,68.51076739274504,,,,,,,,,,,,,,,,,,,,,,,,,,,,109,001,2023-03-01_15h15.58.186,eb_01,2022.2.4,99.92094801820251,
,,,0,0,0,0,13,0,13,0,,,,,,,,,,,,,,,,,,,,,,,,,,,,,,,,,,,,,,,,,,,,,,,,,,,,,,,,,,,109,001,2023-03-01_15h15.58.186,eb_01,2022.2.4,99.92094801820251,
6,stimuli/6.png,s,0,0,0,0,14,0,14,0,0,0,0,0,,,,,,,,,,,,,,,,,,69.53167372941971,69.53167372941971,69.53167372941971,69.53167372941971,l,0,0.4554024333083362,70.02196914563683,70.02196914563683,70.02196914563683,,,,,,,,,,,,,,,,,,,,,,,,,,,,109,001,2023-03-01_15h15.58.186,eb_01,2022.2.4,99.92094801820251,
,,,0,0,0,0,14,0,14,0,,,,,,,,,,,,,,,,,,,,,,,,,,,,,,,,,,,,,,,,,,,,,,,,,,,,,,,,,,,109,001,2023-03-01_15h15.58.186,eb_01,2022.2.4,99.92094801820251,
9,stimuli/9.png,l,0,0,0,0,15,0,15,0,0,0,0,0,,,,,,,,,,,,,,,,,,71.03261534616468,71.03261534616468,71.03261534616468,71.03261534616468,l,1,1.2105060141693684,72.27333387867475,72.27333387867475,72.27333387867475,,,,,,,,,,,,,,,,,,,,,,,,,,,,109,001,2023-03-01_15h15.58.186,eb_01,2022.2.4,99.92094801820251,
,,,0,0,0,0,15,0,15,0,,,,,,,,,,,,,,,,,,,,,,,,,,,,,,,,,,,,,,,,,,,,,,,,,,,,,,,,,,,109,001,2023-03-01_15h15.58.186,eb_01,2022.2.4,99.92094801820251,
6,stimuli/6.png,s,0,0,0,0,16,0,16,0,0,0,0,0,,,,,,,,,,,,,,,,,,73.28364442354359,73.28364442354359,73.28364442354359,73.28364442354359,s,1,0.5754995440474886,73.8943424212921,73.8943424212921,73.8943424212921,,,,,,,,,,,,,,,,,,,,,,,,,,,,109,001,2023-03-01_15h15.58.186,eb_01,2022.2.4,99.92094801820251,
,,,0,0,0,0,16,0,16,0,,,,,,,,,,,,,,,,,,,,,,,,,,,,,,,,,,,,,,,,,,,,,,,,,,,,,,,,,,,109,001,2023-03-01_15h15.58.186,eb_01,2022.2.4,99.92094801820251,
8,stimuli/8.png,l,0,0,0,0,17,0,17,0,0,0,0,0,,,,,,,,,,,,,,,,,,74.89492921499186,74.89492921499186,74.89492921499186,74.89492921499186,l,1,0.5322594286080857,75.4552698088919,75.4552698088919,75.4552698088919,,,,,,,,,,,,,,,,,,,,,,,,,,,,109,001,2023-03-01_15h15.58.186,eb_01,2022.2.4,99.92094801820251,
,,,0,0,0,0,17,0,17,0,,,,,,,,,,,,,,,,,,,,,,,,,,,,,,,,,,,,,,,,,,,,,,,,,,,,,,,,,,,109,001,2023-03-01_15h15.58.186,eb_01,2022.2.4,99.92094801820251,
3,stimuli/3.png,l,0,0,0,0,18,0,18,0,0,0,0,0,,,,,,,,,,,,,,,,,,76.4658761653991,76.4658761653991,76.4658761653991,76.4658761653991,l,1,0.609324699446006,77.08593297934567,77.08593297934567,77.08593297934567,78.09654658022191,78.09654658022191,78.09654658022191,,,,,,,,,,,,,,,,,,,,,,,,,109,001,2023-03-01_15h15.58.186,eb_01,2022.2.4,99.92094801820251,
,,,0,0,0,0,18,0,18,0,,,,,,,,,,,,,,,,,,,,,,,,,,,,,,,,,,,,,,,,,,,,,,,,,,,,,,,,,,,109,001,2023-03-01_15h15.58.186,eb_01,2022.2.4,99.92094801820251,
4,stimuli/4.png,l,0,0,0,0,19,0,19,0,0,0,0,0,,,,,,,,,,,,,,,,,,78.09654658022191,78.09654658022191,78.09654658022191,78.09654658022191,l,1,0.7216712433837529,78.84730203183426,78.84730203183426,78.84730203183426,,,,,,,,,,,,,,,,,,,,,,,,,,,,109,001,2023-03-01_15h15.58.186,eb_01,2022.2.4,99.92094801820251,
,,,0,0,0,0,19,0,19,0,,,,,,,,,,,,,,,,,,,,,,,,,,,,,,,,,,,,,,,,,,,,,,,,,,,,,,,,,,,109,001,2023-03-01_15h15.58.186,eb_01,2022.2.4,99.92094801820251,
3,stimuli/3.png,l,0,0,0,0,20,0,20,0,0,0,0,0,,,,,,,,,,,,,,,,,,79.8578993328847,79.8578993328847,79.8578993328847,79.8578993328847,l,1,0.49635996955112205,80.36791874476694,80.36791874476694,80.36791874476694,81.37853566597914,81.37853566597914,81.37853566597914,,,,,,,,,,,,,,,,,,,,,,,,,109,001,2023-03-01_15h15.58.186,eb_01,2022.2.4,99.92094801820251,
,,,0,0,0,0,20,0,20,0,,,,,,,,,,,,,,,,,,,,,,,,,,,,,,,,,,,,,,,,,,,,,,,,,,,,,,,,,,,109,001,2023-03-01_15h15.58.186,eb_01,2022.2.4,99.92094801820251,
4,stimuli/4.png,l,0,0,0,0,21,0,21,0,0,0,0,0,,,,,,,,,,,,,,,,,,81.37853566597914,81.37853566597914,81.37853566597914,81.37853566597914,l,1,0.9917753419140354,82.39947309306444,82.39947309306444,82.39947309306444,,,,,,,,,,,,,,,,,,,,,,,,,,,,109,001,2023-03-01_15h15.58.186,eb_01,2022.2.4,99.92094801820251,
,,,0,0,0,0,21,0,21,0,,,,,,,,,,,,,,,,,,,,,,,,,,,,,,,,,,,,,,,,,,,,,,,,,,,,,,,,,,,109,001,2023-03-01_15h15.58.186,eb_01,2022.2.4,99.92094801820251,
2,stimuli/2.png,s,0,0,0,0,22,0,22,0,0,0,0,0,,,,,,,,,,,,,,,,,,83.41008035511913,83.41008035511913,83.41008035511913,83.41008035511913,s,1,0.7522457910854428,84.1802184116168,84.1802184116168,84.1802184116168,85.1911495572349,85.1911495572349,85.1911495572349,,,,,,,,,,,,,,,,,,,,,,,,,109,001,2023-03-01_15h15.58.186,eb_01,2022.2.4,99.92094801820251,
,,,0,0,0,0,22,0,22,0,,,,,,,,,,,,,,,,,,,,,,,,,,,,,,,,,,,,,,,,,,,,,,,,,,,,,,,,,,,109,001,2023-03-01_15h15.58.186,eb_01,2022.2.4,99.92094801820251,
3,stimuli/3.png,l,0,0,0,0,23,0,23,0,0,0,0,0,,,,,,,,,,,,,,,,,,85.1911495572349,85.1911495572349,85.1911495572349,85.1911495572349,l,1,0.5152137356672029,85.72115285644031,85.72115285644031,85.72115285644031,86.73176917395176,86.73176917395176,86.73176917395176,,,,,,,,,,,,,,,,,,,,,,,,,109,001,2023-03-01_15h15.58.186,eb_01,2022.2.4,99.92094801820251,
,,,0,0,0,0,23,0,23,0,,,,,,,,,,,,,,,,,,,,,,,,,,,,,,,,,,,,,,,,,,,,,,,,,,,,,,,,,,,109,001,2023-03-01_15h15.58.186,eb_01,2022.2.4,99.92094801820251,
2,stimuli/2.png,s,0,0,0,0,24,0,24,0,0,0,0,0,,,,,,,,,,,,,,,,,,86.73176917395176,86.73176917395176,86.73176917395176,86.73176917395176,s,1,0.7026040702949103,87.45221570464128,87.45221570464128,87.45221570464128,,,,,,,,,,,,,,,,,,,,,,,,,,,,109,001,2023-03-01_15h15.58.186,eb_01,2022.2.4,99.92094801820251,
,,,0,0,0,0,24,0,24,0,,,,,,,,,,,,,,,,,,,,,,,,,,,,,,,,,,,,,,,,,,,,,,,,,,,,,,,,,,,109,001,2023-03-01_15h15.58.186,eb_01,2022.2.4,99.92094801820251,
1,stimuli/1.png,s,0,0,0,0,25,0,25,0,0,0,0,0,,,,,,,,,,,,,,,,,,88.47314709475177,88.47314709475177,88.47314709475177,88.47314709475177,s,1,0.9532823995868966,89.46375054747841,89.46375054747841,89.46375054747841,,,,,,,,,,,,,,,,,,,,,,,,,,,,109,001,2023-03-01_15h15.58.186,eb_01,2022.2.4,99.92094801820251,
,,,0,0,0,0,25,0,25,0,,,,,,,,,,,,,,,,,,,,,,,,,,,,,,,,,,,,,,,,,,,,,,,,,,,,,,,,,,,109,001,2023-03-01_15h15.58.186,eb_01,2022.2.4,99.92094801820251,
2,stimuli/2.png,s,0,0,0,0,26,0,26,0,0,0,0,0,,,,,,,,,,,,,,,,,,90.46435726318668,90.46435726318668,90.46435726318668,90.46435726318668,s,1,1.1140834937286854,91.59469700285626,91.59469700285626,91.59469700285626,92.60532267767485,92.60532267767485,92.60532267767485,,,,,,,,,,,,,,,,,,,,,,,,,109,001,2023-03-01_15h15.58.186,eb_01,2022.2.4,99.92094801820251,
,,,0,0,0,0,26,0,26,0,,,,,,,,,,,,,,,,,,,,,,,,,,,,,,,,,,,,,,,,,,,,,,,,,,,,,,,,,,,109,001,2023-03-01_15h15.58.186,eb_01,2022.2.4,99.92094801820251,
4,stimuli/4.png,l,0,0,0,0,27,0,27,0,0,0,0,0,,,,,,,,,,,,,,,,,,92.60532267767485,92.60532267767485,92.60532267767485,92.60532267767485,l,1,0.6851623519796703,93.31608409381442,93.31608409381442,93.31608409381442,,,,,,,,,,,,,,,,,,,,,,,,,,,,109,001,2023-03-01_15h15.58.186,eb_01,2022.2.4,99.92094801820251,
,,,0,0,0,0,27,0,27,0,,,,,,,,,,,,,,,,,,,,,,,,,,,,,,,,,,,,,,,,,,,,,,,,,,,,,,,,,,,109,001,2023-03-01_15h15.58.186,eb_01,2022.2.4,99.92094801820251,
2,stimuli/2.png,s,0,0,0,0,28,0,28,0,0,0,0,0,,,,,,,,,,,,,,,,,,94.32668018747063,94.32668018747063,94.32668018747063,94.32668018747063,s,1,0.5068295886376291,94.84666090538303,94.84666090538303,94.84666090538303,95.85761016191464,95.85761016191464,95.85761016191464,,,,,,,,,,,,,,,,,,,,,,,,,109,001,2023-03-01_15h15.58.186,eb_01,2022.2.4,99.92094801820251,
,,,0,0,0,0,28,0,28,0,,,,,,,,,,,,,,,,,,,,,,,,,,,,,,,,,,,,,,,,,,,,,,,,,,,,,,,,,,,109,001,2023-03-01_15h15.58.186,eb_01,2022.2.4,99.92094801820251,
3,stimuli/3.png,l,0,0,0,0,29,0,29,0,0,0,0,0,,,,,,,,,,,,,,,,,,95.85761016191464,95.85761016191464,95.85761016191464,95.85761016191464,l,1,0.4479280579944316,96.31759394057008,96.31759394057008,96.31759394057008,97.328496410566,97.328496410566,97.328496410566,,,,,,,,,,,,,,,,,,,,,,,,,109,001,2023-03-01_15h15.58.186,eb_01,2022.2.4,99.92094801820251,
,,,0,0,0,0,29,0,29,0,,,,,,,,,,,,,,,,,,,,,,,,,,,,,,,,,,,,,,,,,,,,,,,,,,,,,,,,,,,109,001,2023-03-01_15h15.58.186,eb_01,2022.2.4,99.92094801820251,
8,stimuli/8.png,l,0,0,0,0,30,0,30,0,0,0,0,0,,,,,,,,,,,,,,,,,,97.328496410566,97.328496410566,97.328496410566,97.328496410566,l,1,0.6970823536430544,98.04888196783577,98.04888196783577,98.04888196783577,,,,,,,,,,,,,,,,,,,,,,,,,,,,109,001,2023-03-01_15h15.58.186,eb_01,2022.2.4,99.92094801820251,
,,,0,0,0,0,30,0,30,0,,,,,,,,,,,,,,,,,,,,,,,,,,,,,,,,,,,,,,,,,,,,,,,,,,,,,,,,,,,109,001,2023-03-01_15h15.58.186,eb_01,2022.2.4,99.92094801820251,
6,stimuli/6.png,s,0,0,0,0,31,0,31,0,0,0,0,0,,,,,,,,,,,,,,,,,,99.06923501600977,99.06923501600977,99.06923501600977,99.06923501600977,s,1,0.9003816193398961,100.00010534516696,100.00010534516696,100.00010534516696,,,,,,,,,,,,,,,,,,,,,,,,,,,,109,001,2023-03-01_15h15.58.186,eb_01,2022.2.4,99.92094801820251,
,,,0,0,0,0,31,0,31,0,,,,,,,,,,,,,,,,,,,,,,,,,,,,,,,,,,,,,,,,,,,,,,,,,,,,,,,,,,,109,001,2023-03-01_15h15.58.186,eb_01,2022.2.4,99.92094801820251,
8,stimuli/8.png,l,0,0,0,0,32,0,32,0,0,0,0,0,,,,,,,,,,,,,,,,,,101.00073047363912,101.00073047363912,101.00073047363912,101.00073047363912,l,1,0.46490764608461177,101.49104883035034,101.49104883035034,101.49104883035034,,,,,,,,,,,,,,,,,,,,,,,,,,,,109,001,2023-03-01_15h15.58.186,eb_01,2022.2.4,99.92094801820251,
,,,0,0,0,0,32,0,32,0,,,,,,,,,,,,,,,,,,,,,,,,,,,,,,,,,,,,,,,,,,,,,,,,,,,,,,,,,,,109,001,2023-03-01_15h15.58.186,eb_01,2022.2.4,99.92094801820251,
3,stimuli/3.png,l,0,0,0,0,33,0,33,0,0,0,0,0,,,,,,,,,,,,,,,,,,102.50164914989,102.50164914989,102.50164914989,102.50164914989,l,1,0.996000920626102,103.5119150211649,103.5119150211649,103.5119150211649,104.52286035366342,104.52286035366342,104.52286035366342,,,,,,,,,,,,,,,,,,,,,,,,,109,001,2023-03-01_15h15.58.186,eb_01,2022.2.4,99.92094801820251,
,,,0,0,0,0,33,0,33,0,,,,,,,,,,,,,,,,,,,,,,,,,,,,,,,,,,,,,,,,,,,,,,,,,,,,,,,,,,,109,001,2023-03-01_15h15.58.186,eb_01,2022.2.4,99.92094801820251,
8,stimuli/8.png,l,0,0,0,0,34,0,34,0,0,0,0,0,,,,,,,,,,,,,,,,,,104.52286035366342,104.52286035366342,104.52286035366342,104.52286035366342,l,1,0.7348055820148147,105.28327526269277,105.28327526269277,105.28327526269277,,,,,,,,,,,,,,,,,,,,,,,,,,,,109,001,2023-03-01_15h15.58.186,eb_01,2022.2.4,99.92094801820251,
,,,0,0,0,0,34,0,34,0,,,,,,,,,,,,,,,,,,,,,,,,,,,,,,,,,,,,,,,,,,,,,,,,,,,,,,,,,,,109,001,2023-03-01_15h15.58.186,eb_01,2022.2.4,99.92094801820251,
3,stimuli/3.png,l,0,0,0,0,35,0,35,0,0,0,0,0,,,,,,,,,,,,,,,,,,106.29393293346584,106.29393293346584,106.29393293346584,106.29393293346584,l,1,0.5077997300722927,106.81393538447446,106.81393538447446,106.81393538447446,107.82485324875233,107.82485324875233,107.82485324875233,,,,,,,,,,,,,,,,,,,,,,,,,109,001,2023-03-01_15h15.58.186,eb_01,2022.2.4,99.92094801820251,
,,,0,0,0,0,35,0,35,0,,,,,,,,,,,,,,,,,,,,,,,,,,,,,,,,,,,,,,,,,,,,,,,,,,,,,,,,,,,109,001,2023-03-01_15h15.58.186,eb_01,2022.2.4,99.92094801820251,
2,stimuli/2.png,s,0,0,0,0,36,0,36,0,0,0,0,0,,,,,,,,,,,,,,,,,,107.82485324875233,107.82485324875233,107.82485324875233,107.82485324875233,s,1,0.4959497572854161,108.33484760720239,108.33484760720239,108.33484760720239,109.3454464174938,109.3454464174938,109.3454464174938,,,,,,,,,,,,,,,,,,,,,,,,,109,001,2023-03-01_15h15.58.186,eb_01,2022.2.4,99.92094801820251,
,,,0,0,0,0,36,0,36,0,,,,,,,,,,,,,,,,,,,,,,,,,,,,,,,,,,,,,,,,,,,,,,,,,,,,,,,,,,,109,001,2023-03-01_15h15.58.186,eb_01,2022.2.4,99.92094801820251,
4,stimuli/4.png,l,0,0,0,0,37,0,37,0,0,0,0,0,,,,,,,,,,,,,,,,,,109.3454464174938,109.3454464174938,109.3454464174938,109.3454464174938,l,1,0.5833059528340527,109.95615860212638,109.95615860212638,109.95615860212638,,,,,,,,,,,,,,,,,,,,,,,,,,,,109,001,2023-03-01_15h15.58.186,eb_01,2022.2.4,99.92094801820251,
,,,0,0,0,0,37,0,37,0,,,,,,,,,,,,,,,,,,,,,,,,,,,,,,,,,,,,,,,,,,,,,,,,,,,,,,,,,,,109,001,2023-03-01_15h15.58.186,eb_01,2022.2.4,99.92094801820251,
3,stimuli/3.png,l,0,0,0,0,38,0,38,0,0,0,0,0,,,,,,,,,,,,,,,,,,110.9667643549401,110.9667643549401,110.9667643549401,110.9667643549401,l,1,0.47403766103525413,111.45673649129458,111.45673649129458,111.45673649129458,112.4838080858608,112.4838080858608,112.4838080858608,,,,,,,,,,,,,,,,,,,,,,,,,109,001,2023-03-01_15h15.58.186,eb_01,2022.2.4,99.92094801820251,
,,,0,0,0,0,38,0,38,0,,,,,,,,,,,,,,,,,,,,,,,,,,,,,,,,,,,,,,,,,,,,,,,,,,,,,,,,,,,109,001,2023-03-01_15h15.58.186,eb_01,2022.2.4,99.92094801820251,
8,stimuli/8.png,l,0,0,0,0,39,0,39,0,0,0,0,0,,,,,,,,,,,,,,,,,,112.4838080858608,112.4838080858608,112.4838080858608,112.4838080858608,l,1,0.46102225075810566,112.96792375545556,112.96792375545556,112.96792375545556,,,,,,,,,,,,,,,,,,,,,,,,,,,,109,001,2023-03-01_15h15.58.186,eb_01,2022.2.4,99.92094801820251,
,,,0,0,0,0,39,0,39,0,,,,,,,,,,,,,,,,,,,,,,,,,,,,,,,,,,,,,,,,,,,,,,,,,,,,,,,,,,,109,001,2023-03-01_15h15.58.186,eb_01,2022.2.4,99.92094801820251,
9,stimuli/9.png,l,0,0,0,0,40,0,40,0,0,0,0,0,,,,,,,,,,,,,,,,,,113.98859525391163,113.98859525391163,113.98859525391163,113.98859525391163,l,1,0.5482664604714955,114.55860345514157,114.55860345514157,114.55860345514157,,,,,,,,,,,,,,,,,,,,,,,,,,,,109,001,2023-03-01_15h15.58.186,eb_01,2022.2.4,99.92094801820251,
,,,0,0,0,0,40,0,40,0,,,,,,,,,,,,,,,,,,,,,,,,,,,,,,,,,,,,,,,,,,,,,,,,,,,,,,,,,,,109,001,2023-03-01_15h15.58.186,eb_01,2022.2.4,99.92094801820251,
8,stimuli/8.png,l,0,0,0,0,41,0,41,0,0,0,0,0,,,,,,,,,,,,,,,,,,115.56952162126618,115.56952162126618,115.56952162126618,115.56952162126618,l,1,0.4153591965150554,116.0098152112987,116.0098152112987,116.0098152112987,,,,,,,,,,,,,,,,,,,,,,,,,,,,109,001,2023-03-01_15h15.58.186,eb_01,2022.2.4,99.92094801820251,
,,,0,0,0,0,41,0,41,0,,,,,,,,,,,,,,,,,,,,,,,,,,,,,,,,,,,,,,,,,,,,,,,,,,,,,,,,,,,109,001,2023-03-01_15h15.58.186,eb_01,2022.2.4,99.92094801820251,
3,stimuli/3.png,l,0,0,0,0,42,0,42,0,0,0,0,0,,,,,,,,,,,,,,,,,,117.02041885117069,117.02041885117069,117.02041885117069,117.02041885117069,l,1,0.42847934826204437,117.46037346521189,117.46037346521189,117.46037346521189,118.47130581822421,118.47130581822421,118.47130581822421,,,,,,,,,,,,,,,,,,,,,,,,,109,001,2023-03-01_15h15.58.186,eb_01,2022.2.4,99.92094801820251,
,,,0,0,0,0,42,0,42,0,,,,,,,,,,,,,,,,,,,,,,,,,,,,,,,,,,,,,,,,,,,,,,,,,,,,,,,,,,,109,001,2023-03-01_15h15.58.186,eb_01,2022.2.4,99.92094801820251,
8,stimuli/8.png,l,0,0,0,0,43,0,43,0,0,0,0,0,,,,,,,,,,,,,,,,,,118.47130581822421,118.47130581822421,118.47130581822421,118.47130581822421,l,1,0.5216213779931422,119.02162322713048,119.02162322713048,119.02162322713048,,,,,,,,,,,,,,,,,,,,,,,,,,,,109,001,2023-03-01_15h15.58.186,eb_01,2022.2.4,99.92094801820251,
,,,0,0,0,0,43,0,43,0,,,,,,,,,,,,,,,,,,,,,,,,,,,,,,,,,,,,,,,,,,,,,,,,,,,,,,,,,,,109,001,2023-03-01_15h15.58.186,eb_01,2022.2.4,99.92094801820251,
9,stimuli/9.png,l,0,0,0,0,44,0,44,0,0,0,0,0,,,,,,,,,,,,,,,,,,120.04226333333281,120.04226333333281,120.04226333333281,120.04226333333281,l,1,0.550779652010533,120.62227660863573,120.62227660863573,120.62227660863573,,,,,,,,,,,,,,,,,,,,,,,,,,,,109,001,2023-03-01_15h15.58.186,eb_01,2022.2.4,99.92094801820251,
,,,0,0,0,0,44,0,44,0,,,,,,,,,,,,,,,,,,,,,,,,,,,,,,,,,,,,,,,,,,,,,,,,,,,,,,,,,,,109,001,2023-03-01_15h15.58.186,eb_01,2022.2.4,99.92094801820251,
6,stimuli/6.png,s,0,0,0,0,45,0,45,0,0,0,0,0,,,,,,,,,,,,,,,,,,121.64322550596626,121.64322550596626,121.64322550596626,121.64322550596626,s,1,0.47780020397840417,122.15353620176029,122.15353620176029,122.15353620176029,,,,,,,,,,,,,,,,,,,,,,,,,,,,109,001,2023-03-01_15h15.58.186,eb_01,2022.2.4,99.92094801820251,
,,,0,0,0,0,45,0,45,0,,,,,,,,,,,,,,,,,,,,,,,,,,,,,,,,,,,,,,,,,,,,,,,,,,,,,,,,,,,109,001,2023-03-01_15h15.58.186,eb_01,2022.2.4,99.92094801820251,
5,stimuli/5.png,s,0,0,0,0,46,0,46,0,0,0,0,0,,,,,,,,,,,,,,,,,,123.15415861359725,123.15415861359725,123.15415861359725,123.15415861359725,s,1,0.47086915616091574,123.65442529684515,123.65442529684515,123.65442529684515,,,,,,,,,,,,,,,,,,,,,,,,,,,,109,001,2023-03-01_15h15.58.186,eb_01,2022.2.4,99.92094801820251,
,,,0,0,0,0,46,0,46,0,,,,,,,,,,,,,,,,,,,,,,,,,,,,,,,,,,,,,,,,,,,,,,,,,,,,,,,,,,,109,001,2023-03-01_15h15.58.186,eb_01,2022.2.4,99.92094801820251,
9,stimuli/9.png,l,0,0,0,0,47,0,47,0,0,0,0,0,,,,,,,,,,,,,,,,,,124.67507476035462,124.67507476035462,124.67507476035462,124.67507476035462,l,1,0.5969706394753302,125.29511950035521,125.29511950035521,125.29511950035521,,,,,,,,,,,,,,,,,,,,,,,,,,,,109,001,2023-03-01_15h15.58.186,eb_01,2022.2.4,99.92094801820251,
,,,0,0,0,0,47,0,47,0,,,,,,,,,,,,,,,,,,,,,,,,,,,,,,,,,,,,,,,,,,,,,,,,,,,,,,,,,,,109,001,2023-03-01_15h15.58.186,eb_01,2022.2.4,99.92094801820251,
6,stimuli/6.png,s,0,0,0,0,48,0,48,0,0,0,0,0,,,,,,,,,,,,,,,,,,126.31606658659439,126.31606658659439,126.31606658659439,126.31606658659439,s,1,0.5320327402987459,126.88637059946268,126.88637059946268,126.88637059946268,,,,,,,,,,,,,,,,,,,,,,,,,,,,109,001,2023-03-01_15h15.58.186,eb_01,2022.2.4,99.92094801820251,
,,,0,0,0,0,48,0,48,0,,,,,,,,,,,,,,,,,,,,,,,,,,,,,,,,,,,,,,,,,,,,,,,,,,,,,,,,,,,109,001,2023-03-01_15h15.58.186,eb_01,2022.2.4,99.92094801820251,
5,stimuli/5.png,s,0,0,0,0,49,0,49,0,0,0,0,0,,,,,,,,,,,,,,,,,,127.88700025566504,127.88700025566504,127.88700025566504,127.88700025566504,s,1,0.5930746794474544,128.50733899621264,128.50733899621264,128.50733899621264,,,,,,,,,,,,,,,,,,,,,,,,,,,,109,001,2023-03-01_15h15.58.186,eb_01,2022.2.4,99.92094801820251,
,,,0,0,0,0,49,0,49,0,,,,,,,,,,,,,,,,,,,,,,,,,,,,,,,,,,,,,,,,,,,,,,,,,,,,,,,,,,,109,001,2023-03-01_15h15.58.186,eb_01,2022.2.4,99.92094801820251,
9,stimuli/9.png,l,0,0,0,0,50,0,50,0,0,0,0,0,,,,,,,,,,,,,,,,,,129.52800747618676,129.52800747618676,129.52800747618676,129.52800747618676,l,1,0.5280984454984718,130.07800190708076,130.07800190708076,130.07800190708076,,,,,,,,,,,,,,,,,,,,,,,,,,,,109,001,2023-03-01_15h15.58.186,eb_01,2022.2.4,99.92094801820251,
,,,0,0,0,0,50,0,50,0,,,,,,,,,,,,,,,,,,,,,,,,,,,,,,,,,,,,,,,,,,,,,,,,,,,,,,,,,,,109,001,2023-03-01_15h15.58.186,eb_01,2022.2.4,99.92094801820251,
8,stimuli/8.png,l,0,0,0,0,51,0,51,0,0,0,0,0,,,,,,,,,,,,,,,,,,131.0889514654591,131.0889514654591,131.0889514654591,131.0889514654591,l,1,0.47121296172917937,131.58923927810974,131.58923927810974,131.58923927810974,,,,,,,,,,,,,,,,,,,,,,,,,,,,109,001,2023-03-01_15h15.58.186,eb_01,2022.2.4,99.92094801820251,
,,,0,0,0,0,51,0,51,0,,,,,,,,,,,,,,,,,,,,,,,,,,,,,,,,,,,,,,,,,,,,,,,,,,,,,,,,,,,109,001,2023-03-01_15h15.58.186,eb_01,2022.2.4,99.92094801820251,
6,stimuli/6.png,s,0,0,0,0,52,0,52,0,0,0,0,0,,,,,,,,,,,,,,,,,,132.6098727436438,132.6098727436438,132.6098727436438,132.6098727436438,s,1,1.0063012026439537,133.6504487432394,133.6504487432394,133.6504487432394,,,,,,,,,,,,,,,,,,,,,,,,,,,,109,001,2023-03-01_15h15.58.186,eb_01,2022.2.4,99.92094801820251,
,,,0,0,0,0,52,0,52,0,,,,,,,,,,,,,,,,,,,,,,,,,,,,,,,,,,,,,,,,,,,,,,,,,,,,,,,,,,,109,001,2023-03-01_15h15.58.186,eb_01,2022.2.4,99.92094801820251,
8,stimuli/8.png,l,0,0,0,0,53,0,53,0,0,0,0,0,,,,,,,,,,,,,,,,,,134.6510959066618,134.6510959066618,134.6510959066618,134.6510959066618,l,1,0.757115816584701,135.4315454135758,135.4315454135758,135.4315454135758,,,,,,,,,,,,,,,,,,,,,,,,,,,,109,001,2023-03-01_15h15.58.186,eb_01,2022.2.4,99.92094801820251,
,,,0,0,0,0,53,0,53,0,,,,,,,,,,,,,,,,,,,,,,,,,,,,,,,,,,,,,,,,,,,,,,,,,,,,,,,,,,,109,001,2023-03-01_15h15.58.186,eb_01,2022.2.4,99.92094801820251,
9,stimuli/9.png,l,0,0,0,0,54,0,54,0,0,0,0,0,,,,,,,,,,,,,,,,,,136.45219578263277,136.45219578263277,136.45219578263277,136.45219578263277,l,1,0.5320396828174125,137.01219770238822,137.01219770238822,137.01219770238822,,,,,,,,,,,,,,,,,,,,,,,,,,,,109,001,2023-03-01_15h15.58.186,eb_01,2022.2.4,99.92094801820251,
,,,0,0,0,0,54,0,54,0,,,,,,,,,,,,,,,,,,,,,,,,,,,,,,,,,,,,,,,,,,,,,,,,,,,,,,,,,,,109,001,2023-03-01_15h15.58.186,eb_01,2022.2.4,99.92094801820251,
6,stimuli/6.png,s,0,0,0,0,55,0,55,0,0,0,0,0,,,,,,,,,,,,,,,,,,138.033127281411,138.033127281411,138.033127281411,138.033127281411,s,1,0.45513227880292106,138.52344805291068,138.52344805291068,138.52344805291068,,,,,,,,,,,,,,,,,,,,,,,,,,,,109,001,2023-03-01_15h15.58.186,eb_01,2022.2.4,99.92094801820251,
,,,0,0,0,0,55,0,55,0,,,,,,,,,,,,,,,,,,,,,,,,,,,,,,,,,,,,,,,,,,,,,,,,,,,,,,,,,,,109,001,2023-03-01_15h15.58.186,eb_01,2022.2.4,99.92094801820251,
8,stimuli/8.png,l,0,0,0,0,56,0,56,0,0,0,0,0,,,,,,,,,,,,,,,,,,139.52406080559012,139.52406080559012,139.52406080559012,139.52406080559012,l,1,0.4362308206036687,139.98431654984597,139.98431654984597,139.98431654984597,,,,,,,,,,,,,,,,,,,,,,,,,,,,109,001,2023-03-01_15h15.58.186,eb_01,2022.2.4,99.92094801820251,
,,,0,0,0,0,56,0,56,0,,,,,,,,,,,,,,,,,,,,,,,,,,,,,,,,,,,,,,,,,,,,,,,,,,,,,,,,,,,109,001,2023-03-01_15h15.58.186,eb_01,2022.2.4,99.92094801820251,
9,stimuli/9.png,l,0,0,0,0,57,0,57,0,0,0,0,0,,,,,,,,,,,,,,,,,,141.00492013236726,141.00492013236726,141.00492013236726,141.00492013236726,l,1,1.00243633302307,142.03522814774624,142.03522814774624,142.03522814774624,,,,,,,,,,,,,,,,,,,,,,,,,,,,109,001,2023-03-01_15h15.58.186,eb_01,2022.2.4,99.92094801820251,
,,,0,0,0,0,57,0,57,0,,,,,,,,,,,,,,,,,,,,,,,,,,,,,,,,,,,,,,,,,,,,,,,,,,,,,,,,,,,109,001,2023-03-01_15h15.58.186,eb_01,2022.2.4,99.92094801820251,
5,stimuli/5.png,s,0,0,0,0,58,0,58,0,0,0,0,0,,,,,,,,,,,,,,,,,,143.0461819320044,143.0461819320044,143.0461819320044,143.0461819320044,s,1,0.8891929968594923,143.95672215348532,143.95672215348532,143.95672215348532,,,,,,,,,,,,,,,,,,,,,,,,,,,,109,001,2023-03-01_15h15.58.186,eb_01,2022.2.4,99.92094801820251,
,,,0,0,0,0,58,0,58,0,,,,,,,,,,,,,,,,,,,,,,,,,,,,,,,,,,,,,,,,,,,,,,,,,,,,,,,,,,,109,001,2023-03-01_15h15.58.186,eb_01,2022.2.4,99.92094801820251,
9,stimuli/9.png,l,0,0,0,0,59,0,59,0,0,0,0,0,,,,,,,,,,,,,,,,,,144.97735803380783,144.97735803380783,144.97735803380783,144.97735803380783,l,1,1.8780541793967132,146.87818023924046,146.87818023924046,146.87818023924046,,,,,,,,,,,,,,,,,,,,,,,,,,,,109,001,2023-03-01_15h15.58.186,eb_01,2022.2.4,99.92094801820251,
,,,0,0,0,0,59,0,59,0,,,,,,,,,,,,,,,,,,,,,,,,,,,,,,,,,,,,,,,,,,,,,,,,,,,,,,,,,,,109,001,2023-03-01_15h15.58.186,eb_01,2022.2.4,99.92094801820251,
6,stimuli/6.png,s,0,0,0,0,60,0,60,0,0,0,0,0,,,,,,,,,,,,,,,,,,147.89913517354216,147.89913517354216,147.89913517354216,147.89913517354216,s,1,0.7083256107289344,148.63956710079583,148.63956710079583,148.63956710079583,,,,,,,,,,,,,,,,,,,,,,,,,,,,109,001,2023-03-01_15h15.58.186,eb_01,2022.2.4,99.92094801820251,
,,,0,0,0,0,60,0,60,0,,,,,,,,,,,,,,,,,,,,,,,,,,,,,,,,,,,,,,,,,,,,,,,,,,,,,,,,,,,109,001,2023-03-01_15h15.58.186,eb_01,2022.2.4,99.92094801820251,
8,stimuli/8.png,l,0,0,0,0,61,0,61,0,0,0,0,0,,,,,,,,,,,,,,,,,,149.6401701943214,149.6401701943214,149.6401701943214,149.6401701943214,l,1,0.5352981385767634,150.20052316401416,150.20052316401416,150.20052316401416,,,,,,,,,,,,,,,,,,,,,,,,,,,,109,001,2023-03-01_15h15.58.186,eb_01,2022.2.4,99.92094801820251,
,,,0,0,0,0,61,0,61,0,,,,,,,,,,,,,,,,,,,,,,,,,,,,,,,,,,,,,,,,,,,,,,,,,,,,,,,,,,,109,001,2023-03-01_15h15.58.186,eb_01,2022.2.4,99.92094801820251,
9,stimuli/9.png,l,0,0,0,0,62,0,62,0,0,0,0,0,,,,,,,,,,,,,,,,,,151.2211403297224,151.2211403297224,151.2211403297224,151.2211403297224,l,1,0.6823557635907491,151.9312343585807,151.9312343585807,151.9312343585807,,,,,,,,,,,,,,,,,,,,,,,,,,,,109,001,2023-03-01_15h15.58.186,eb_01,2022.2.4,99.92094801820251,
,,,0,0,0,0,62,0,62,0,,,,,,,,,,,,,,,,,,,,,,,,,,,,,,,,,,,,,,,,,,,,,,,,,,,,,,,,,,,109,001,2023-03-01_15h15.58.186,eb_01,2022.2.4,99.92094801820251,
8,stimuli/8.png,l,0,0,0,0,63,0,63,0,0,0,0,0,,,,,,,,,,,,,,,,,,152.94219025578423,152.94219025578423,152.94219025578423,152.94219025578423,l,1,0.48138616548021673,153.45246714453242,153.45246714453242,153.45246714453242,,,,,,,,,,,,,,,,,,,,,,,,,,,,109,001,2023-03-01_15h15.58.186,eb_01,2022.2.4,99.92094801820251,
,,,0,0,0,0,63,0,63,0,,,,,,,,,,,,,,,,,,,,,,,,,,,,,,,,,,,,,,,,,,,,,,,,,,,,,,,,,,,109,001,2023-03-01_15h15.58.186,eb_01,2022.2.4,99.92094801820251,
9,stimuli/9.png,l,0,0,0,0,64,0,64,0,0,0,0,0,,,,,,,,,,,,,,,,,,154.47311841913324,154.47311841913324,154.47311841913324,154.47311841913324,l,1,0.5335419833572814,155.03310826494635,155.03310826494635,155.03310826494635,,,,,,,,,,,,,,,,,,,,,,,,,,,,109,001,2023-03-01_15h15.58.186,eb_01,2022.2.4,99.92094801820251,
,,,0,0,0,0,64,0,64,0,,,,,,,,,,,,,,,,,,,,,,,,,,,,,,,,,,,,,,,,,,,,,,,,,,,,,,,,,,,109,001,2023-03-01_15h15.58.186,eb_01,2022.2.4,99.92094801820251,
5,stimuli/5.png,s,0,0,0,0,65,0,65,0,0,0,0,0,,,,,,,,,,,,,,,,,,156.04406174735777,156.04406174735777,156.04406174735777,156.04406174735777,s,1,0.3705192834349873,156.4442951970741,156.4442951970741,156.4442951970741,,,,,,,,,,,,,,,,,,,,,,,,,,,,109,001,2023-03-01_15h15.58.186,eb_01,2022.2.4,99.92094801820251,
,,,0,0,0,0,65,0,65,0,,,,,,,,,,,,,,,,,,,,,,,,,,,,,,,,,,,,,,,,,,,,,,,,,,,,,,,,,,,109,001,2023-03-01_15h15.58.186,eb_01,2022.2.4,99.92094801820251,
9,stimuli/9.png,l,0,0,0,0,66,0,66,0,0,0,0,0,,,,,,,,,,,,,,,,,,157.46490511841694,157.46490511841694,157.46490511841694,157.46490511841694,l,1,0.44570615036354866,157.93489548038997,157.93489548038997,157.93489548038997,,,,,,,,,,,,,,,,,,,,,,,,,,,,109,001,2023-03-01_15h15.58.186,eb_01,2022.2.4,99.92094801820251,
,,,0,0,0,0,66,0,66,0,,,,,,,,,,,,,,,,,,,,,,,,,,,,,,,,,,,,,,,,,,,,,,,,,,,,,,,,,,,109,001,2023-03-01_15h15.58.186,eb_01,2022.2.4,99.92094801820251,
8,stimuli/8.png,l,0,0,0,0,67,0,67,0,0,0,0,0,,,,,,,,,,,,,,,,,,158.94576082300773,158.94576082300773,158.94576082300773,158.94576082300773,l,1,0.8209432147195912,159.79634334555158,159.79634334555158,159.79634334555158,,,,,,,,,,,,,,,,,,,,,,,,,,,,109,001,2023-03-01_15h15.58.186,eb_01,2022.2.4,99.92094801820251,
,,,0,0,0,0,67,0,67,0,,,,,,,,,,,,,,,,,,,,,,,,,,,,,,,,,,,,,,,,,,,,,,,,,,,,,,,,,,,109,001,2023-03-01_15h15.58.186,eb_01,2022.2.4,99.92094801820251,
9,stimuli/9.png,l,0,0,0,0,68,0,68,0,0,0,0,0,,,,,,,,,,,,,,,,,,160.81693606152112,160.81693606152112,160.81693606152112,160.81693606152112,l,1,0.5097255242180836,161.3469233627511,161.3469233627511,161.3469233627511,,,,,,,,,,,,,,,,,,,,,,,,,,,,109,001,2023-03-01_15h15.58.186,eb_01,2022.2.4,99.92094801820251,
,,,0,0,0,0,68,0,68,0,,,,,,,,,,,,,,,,,,,,,,,,,,,,,,,,,,,,,,,,,,,,,,,,,,,,,,,,,,,109,001,2023-03-01_15h15.58.186,eb_01,2022.2.4,99.92094801820251,
6,stimuli/6.png,s,0,0,0,0,69,0,69,0,0,0,0,0,,,,,,,,,,,,,,,,,,162.3679000301563,162.3679000301563,162.3679000301563,162.3679000301563,s,1,0.358814197981701,162.75812599100755,162.75812599100755,162.75812599100755,,,,,,,,,,,,,,,,,,,,,,,,,,,,109,001,2023-03-01_15h15.58.186,eb_01,2022.2.4,99.92094801820251,
,,,0,0,0,0,69,0,69,0,,,,,,,,,,,,,,,,,,,,,,,,,,,,,,,,,,,,,,,,,,,,,,,,,,,,,,,,,,,109,001,2023-03-01_15h15.58.186,eb_01,2022.2.4,99.92094801820251,
8,stimuli/8.png,l,0,0,0,0,70,0,70,0,0,0,0,0,,,,,,,,,,,,,,,,,,163.75874085662872,163.75874085662872,163.75874085662872,163.75874085662872,l,1,0.4639619543850131,164.24899552328134,164.24899552328134,164.24899552328134,,,,,,,,,,,,,,,,,,,,,,,,,,,,109,001,2023-03-01_15h15.58.186,eb_01,2022.2.4,99.92094801820251,
,,,0,0,0,0,70,0,70,0,,,,,,,,,,,,,,,,,,,,,,,,,,,,,,,,,,,,,,,,,,,,,,,,,,,,,,,,,,,109,001,2023-03-01_15h15.58.186,eb_01,2022.2.4,99.92094801820251,
3,stimuli/3.png,l,0,0,0,0,71,0,71,0,0,0,0,0,,,,,,,,,,,,,,,,,,165.25965892917884,165.25965892917884,165.25965892917884,165.25965892917884,l,1,0.4670830690265575,165.73960184357202,165.73960184357202,165.73960184357202,166.7505480816144,166.7505480816144,166.7505480816144,,,,,,,,,,,,,,,,,,,,,,,,,109,001,2023-03-01_15h15.58.186,eb_01,2022.2.4,99.92094801820251,
,,,0,0,0,0,71,0,71,0,,,,,,,,,,,,,,,,,,,,,,,,,,,,,,,,,,,,,,,,,,,,,,,,,,,,,,,,,,,109,001,2023-03-01_15h15.58.186,eb_01,2022.2.4,99.92094801820251,
2,stimuli/2.png,s,0,0,0,0,72,0,72,0,0,0,0,0,,,,,,,,,,,,,,,,,,166.7505480816144,166.7505480816144,166.7505480816144,166.7505480816144,s,1,0.5042164852093265,167.27053453465123,167.27053453465123,167.27053453465123,168.28115417249865,168.28115417249865,168.28115417249865,,,,,,,,,,,,,,,,,,,,,,,,,109,001,2023-03-01_15h15.58.186,eb_01,2022.2.4,99.92094801820251,
,,,0,0,0,0,72,0,72,0,,,,,,,,,,,,,,,,,,,,,,,,,,,,,,,,,,,,,,,,,,,,,,,,,,,,,,,,,,,109,001,2023-03-01_15h15.58.186,eb_01,2022.2.4,99.92094801820251,
4,stimuli/4.png,l,0,0,0,0,73,0,73,0,0,0,0,0,,,,,,,,,,,,,,,,,,168.28115417249865,168.28115417249865,168.28115417249865,168.28115417249865,l,1,0.4856449475410045,168.79180354243363,168.79180354243363,168.79180354243363,,,,,,,,,,,,,,,,,,,,,,,,,,,,109,001,2023-03-01_15h15.58.186,eb_01,2022.2.4,99.92094801820251,
,,,0,0,0,0,73,0,73,0,,,,,,,,,,,,,,,,,,,,,,,,,,,,,,,,,,,,,,,,,,,,,,,,,,,,,,,,,,,109,001,2023-03-01_15h15.58.186,eb_01,2022.2.4,99.92094801820251,
1,stimuli/1.png,s,0,0,0,0,74,0,74,0,0,0,0,0,,,,,,,,,,,,,,,,,,169.81208716542824,169.81208716542824,169.81208716542824,169.81208716542824,s,1,0.6347397488316346,170.48283552963403,170.48283552963403,170.48283552963403,,,,,,,,,,,,,,,,,,,,,,,,,,,,109,001,2023-03-01_15h15.58.186,eb_01,2022.2.4,99.92094801820251,
,,,0,0,0,0,74,0,74,0,,,,,,,,,,,,,,,,,,,,,,,,,,,,,,,,,,,,,,,,,,,,,,,,,,,,,,,,,,,109,001,2023-03-01_15h15.58.186,eb_01,2022.2.4,99.92094801820251,
4,stimuli/4.png,l,0,0,0,0,75,0,75,0,0,0,0,0,,,,,,,,,,,,,,,,,,171.4830803288569,171.4830803288569,171.4830803288569,171.4830803288569,l,1,0.5068069499902776,172.01375403382917,172.01375403382917,172.01375403382917,,,,,,,,,,,,,,,,,,,,,,,,,,,,109,001,2023-03-01_15h15.58.186,eb_01,2022.2.4,99.92094801820251,
,,,0,0,0,0,75,0,75,0,,,,,,,,,,,,,,,,,,,,,,,,,,,,,,,,,,,,,,,,,,,,,,,,,,,,,,,,,,,109,001,2023-03-01_15h15.58.186,eb_01,2022.2.4,99.92094801820251,
3,stimuli/3.png,l,0,0,0,0,76,0,76,0,0,0,0,0,,,,,,,,,,,,,,,,,,173.02433986463438,173.02433986463438,173.02433986463438,173.02433986463438,l,1,0.4535354996478418,173.49432630257434,173.49432630257434,173.49432630257434,174.50525654264493,174.50525654264493,174.50525654264493,,,,,,,,,,,,,,,,,,,,,,,,,109,001,2023-03-01_15h15.58.186,eb_01,2022.2.4,99.92094801820251,
,,,0,0,0,0,76,0,76,0,,,,,,,,,,,,,,,,,,,,,,,,,,,,,,,,,,,,,,,,,,,,,,,,,,,,,,,,,,,109,001,2023-03-01_15h15.58.186,eb_01,2022.2.4,99.92094801820251,
2,stimuli/2.png,s,0,0,0,0,77,0,77,0,0,0,0,0,,,,,,,,,,,,,,,,,,174.50525654264493,174.50525654264493,174.50525654264493,174.50525654264493,s,1,0.5086596967703372,175.02522428106386,175.02522428106386,175.02522428106386,176.04582273215783,176.04582273215783,176.04582273215783,,,,,,,,,,,,,,,,,,,,,,,,,109,001,2023-03-01_15h15.58.186,eb_01,2022.2.4,99.92094801820251,
,,,0,0,0,0,77,0,77,0,,,,,,,,,,,,,,,,,,,,,,,,,,,,,,,,,,,,,,,,,,,,,,,,,,,,,,,,,,,109,001,2023-03-01_15h15.58.186,eb_01,2022.2.4,99.92094801820251,
1,stimuli/1.png,s,0,0,0,0,78,0,78,0,0,0,0,0,,,,,,,,,,,,,,,,,,176.04582273215783,176.04582273215783,176.04582273215783,176.04582273215783,s,1,0.720123061855702,176.79665455146824,176.79665455146824,176.79665455146824,,,,,,,,,,,,,,,,,,,,,,,,,,,,109,001,2023-03-01_15h15.58.186,eb_01,2022.2.4,99.92094801820251,
,,,0,0,0,0,78,0,78,0,,,,,,,,,,,,,,,,,,,,,,,,,,,,,,,,,,,,,,,,,,,,,,,,,,,,,,,,,,,109,001,2023-03-01_15h15.58.186,eb_01,2022.2.4,99.92094801820251,
4,stimuli/4.png,l,0,0,0,0,79,0,79,0,0,0,0,0,,,,,,,,,,,,,,,,,,177.79694221319733,177.79694221319733,177.79694221319733,177.79694221319733,l,1,0.5770235776872141,178.39758382260334,178.39758382260334,178.39758382260334,,,,,,,,,,,,,,,,,,,,,,,,,,,,109,001,2023-03-01_15h15.58.186,eb_01,2022.2.4,99.92094801820251,
,,,0,0,0,0,79,0,79,0,,,,,,,,,,,,,,,,,,,,,,,,,,,,,,,,,,,,,,,,,,,,,,,,,,,,,,,,,,,109,001,2023-03-01_15h15.58.186,eb_01,2022.2.4,99.92094801820251,
1,stimuli/1.png,s,0,0,0,0,80,0,80,0,0,0,0,0,,,,,,,,,,,,,,,,,,179.41823087132434,179.41823087132434,179.41823087132434,179.41823087132434,s,1,0.5877853862293705,180.0386010041293,180.0386010041293,180.0386010041293,,,,,,,,,,,,,,,,,,,,,,,,,,,,109,001,2023-03-01_15h15.58.186,eb_01,2022.2.4,99.92094801820251,
,,,0,0,0,0,80,0,80,0,,,,,,,,,,,,,,,,,,,,,,,,,,,,,,,,,,,,,,,,,,,,,,,,,,,,,,,,,,,109,001,2023-03-01_15h15.58.186,eb_01,2022.2.4,99.92094801820251,
2,stimuli/2.png,s,0,0,0,0,81,0,81,0,0,0,0,0,,,,,,,,,,,,,,,,,,181.03919594774197,181.03919594774197,181.03919594774197,181.03919594774197,s,1,0.6068429001607001,181.65927872066823,181.65927872066823,181.65927872066823,182.6801808314667,182.6801808314667,182.6801808314667,,,,,,,,,,,,,,,,,,,,,,,,,109,001,2023-03-01_15h15.58.186,eb_01,2022.2.4,99.92094801820251,
,,,0,0,0,0,81,0,81,0,,,,,,,,,,,,,,,,,,,,,,,,,,,,,,,,,,,,,,,,,,,,,,,,,,,,,,,,,,,109,001,2023-03-01_15h15.58.186,eb_01,2022.2.4,99.92094801820251,
1,stimuli/1.png,s,0,0,0,0,82,0,82,0,0,0,0,0,,,,,,,,,,,,,,,,,,182.6801808314667,182.6801808314667,182.6801808314667,182.6801808314667,s,1,0.5018608586433402,183.22051912527968,183.22051912527968,183.22051912527968,,,,,,,,,,,,,,,,,,,,,,,,,,,,109,001,2023-03-01_15h15.58.186,eb_01,2022.2.4,99.92094801820251,
,,,0,0,0,0,82,0,82,0,,,,,,,,,,,,,,,,,,,,,,,,,,,,,,,,,,,,,,,,,,,,,,,,,,,,,,,,,,,109,001,2023-03-01_15h15.58.186,eb_01,2022.2.4,99.92094801820251,
4,stimuli/4.png,l,0,0,0,0,83,0,83,0,0,0,0,0,,,,,,,,,,,,,,,,,,184.22077630029526,184.22077630029526,184.22077630029526,184.22077630029526,l,1,0.7693168393052474,185.01164048985083,185.01164048985083,185.01164048985083,,,,,,,,,,,,,,,,,,,,,,,,,,,,109,001,2023-03-01_15h15.58.186,eb_01,2022.2.4,99.92094801820251,
,,,0,0,0,0,83,0,83,0,,,,,,,,,,,,,,,,,,,,,,,,,,,,,,,,,,,,,,,,,,,,,,,,,,,,,,,,,,,109,001,2023-03-01_15h15.58.186,eb_01,2022.2.4,99.92094801820251,
1,stimuli/1.png,s,0,0,0,0,84,0,84,0,0,0,0,0,,,,,,,,,,,,,,,,,,186.0322507130404,186.0322507130404,186.0322507130404,186.0322507130404,s,1,0.4698987128758745,186.5326151952395,186.5326151952395,186.5326151952395,,,,,,,,,,,,,,,,,,,,,,,,,,,,109,001,2023-03-01_15h15.58.186,eb_01,2022.2.4,99.92094801820251,
,,,0,0,0,0,84,0,84,0,,,,,,,,,,,,,,,,,,,,,,,,,,,,,,,,,,,,,,,,,,,,,,,,,,,,,,,,,,,109,001,2023-03-01_15h15.58.186,eb_01,2022.2.4,99.92094801820251,
4,stimuli/4.png,l,0,0,0,0,85,0,85,0,0,0,0,0,,,,,,,,,,,,,,,,,,187.53283373363593,187.53283373363593,187.53283373363593,187.53283373363593,l,1,0.4803127918203245,188.03343486514495,188.03343486514495,188.03343486514495,,,,,,,,,,,,,,,,,,,,,,,,,,,,109,001,2023-03-01_15h15.58.186,eb_01,2022.2.4,99.92094801820251,
,,,0,0,0,0,85,0,85,0,,,,,,,,,,,,,,,,,,,,,,,,,,,,,,,,,,,,,,,,,,,,,,,,,,,,,,,,,,,109,001,2023-03-01_15h15.58.186,eb_01,2022.2.4,99.92094801820251,
1,stimuli/1.png,s,0,0,0,0,86,0,86,0,0,0,0,0,,,,,,,,,,,,,,,,,,189.05409308226444,189.05409308226444,189.05409308226444,189.05409308226444,s,1,0.35906714711745735,189.44430545992873,189.44430545992873,189.44430545992873,,,,,,,,,,,,,,,,,,,,,,,,,,,,109,001,2023-03-01_15h15.58.186,eb_01,2022.2.4,99.92094801820251,
,,,0,0,0,0,86,0,86,0,,,,,,,,,,,,,,,,,,,,,,,,,,,,,,,,,,,,,,,,,,,,,,,,,,,,,,,,,,,109,001,2023-03-01_15h15.58.186,eb_01,2022.2.4,99.92094801820251,
4,stimuli/4.png,l,0,0,0,0,87,0,87,0,0,0,0,0,,,,,,,,,,,,,,,,,,190.4445774255255,190.4445774255255,190.4445774255255,190.4445774255255,l,1,0.5686240363756951,191.03527161394595,191.03527161394595,191.03527161394595,,,,,,,,,,,,,,,,,,,,,,,,,,,,109,001,2023-03-01_15h15.58.186,eb_01,2022.2.4,99.92094801820251,
,,,0,0,0,0,87,0,87,0,,,,,,,,,,,,,,,,,,,,,,,,,,,,,,,,,,,,,,,,,,,,,,,,,,,,,,,,,,,109,001,2023-03-01_15h15.58.186,eb_01,2022.2.4,99.92094801820251,
2,stimuli/2.png,s,0,0,0,0,88,0,88,0,0,0,0,0,,,,,,,,,,,,,,,,,,192.04590332573935,192.04590332573935,192.04590332573935,192.04590332573935,s,1,1.031317510012741,193.09615840290644,193.09615840290644,193.09615840290644,194.10713814614792,194.10713814614792,194.10713814614792,,,,,,,,,,,,,,,,,,,,,,,,,109,001,2023-03-01_15h15.58.186,eb_01,2022.2.4,99.92094801820251,
,,,0,0,0,0,88,0,88,0,,,,,,,,,,,,,,,,,,,,,,,,,,,,,,,,,,,,,,,,,,,,,,,,,,,,,,,,,,,109,001,2023-03-01_15h15.58.186,eb_01,2022.2.4,99.92094801820251,
3,stimuli/3.png,l,0,0,0,0,89,0,89,0,0,0,0,0,,,,,,,,,,,,,,,,,,194.10713814614792,194.10713814614792,194.10713814614792,194.10713814614792,l,1,0.9141582918127824,195.0373347492059,195.0373347492059,195.0373347492059,196.05832107576498,196.05832107576498,196.05832107576498,,,,,,,,,,,,,,,,,,,,,,,,,109,001,2023-03-01_15h15.58.186,eb_01,2022.2.4,99.92094801820251,
,,,0,0,0,0,89,0,89,0,,,,,,,,,,,,,,,,,,,,,,,,,,,,,,,,,,,,,,,,,,,,,,,,,,,,,,,,,,,109,001,2023-03-01_15h15.58.186,eb_01,2022.2.4,99.92094801820251,
4,stimuli/4.png,l,0,0,0,0,90,0,90,0,0,0,0,0,,,,,,,,,,,,,,,,,,196.05832107576498,196.05832107576498,196.05832107576498,196.05832107576498,l,1,0.9389823216188233,197.01888666761806,197.01888666761806,197.01888666761806,,,,,,,,,,,,,,,,,,,,,,,,,,,,109,001,2023-03-01_15h15.58.186,eb_01,2022.2.4,99.92094801820251,
,,,0,0,0,0,90,0,90,0,,,,,,,,,,,,,,,,,,,,,,,,,,,,,,,,,,,,,,,,,,,,,,,,,,,,,,,,,,,109,001,2023-03-01_15h15.58.186,eb_01,2022.2.4,99.92094801820251,
2,stimuli/2.png,s,0,0,0,0,91,0,91,0,0,0,0,0,,,,,,,,,,,,,,,,,,198.02949453336987,198.02949453336987,198.02949453336987,198.02949453336987,s,1,0.8398461821634555,198.87966473070992,198.87966473070992,198.87966473070992,199.89064387025428,199.89064387025428,199.89064387025428,,,,,,,,,,,,,,,,,,,,,,,,,109,001,2023-03-01_15h15.58.186,eb_01,2022.2.4,99.92094801820251,
,,,0,0,0,0,91,0,91,0,,,,,,,,,,,,,,,,,,,,,,,,,,,,,,,,,,,,,,,,,,,,,,,,,,,,,,,,,,,109,001,2023-03-01_15h15.58.186,eb_01,2022.2.4,99.92094801820251,
3,stimuli/3.png,l,0,0,0,0,92,0,92,0,0,0,0,0,,,,,,,,,,,,,,,,,,199.89064387025428,199.89064387025428,199.89064387025428,199.89064387025428,l,1,0.714701257096749,200.6207465380212,200.6207465380212,200.6207465380212,201.63133417991776,201.63133417991776,201.63133417991776,,,,,,,,,,,,,,,,,,,,,,,,,109,001,2023-03-01_15h15.58.186,eb_01,2022.2.4,99.92094801820251,
,,,0,0,0,0,92,0,92,0,,,,,,,,,,,,,,,,,,,,,,,,,,,,,,,,,,,,,,,,,,,,,,,,,,,,,,,,,,,109,001,2023-03-01_15h15.58.186,eb_01,2022.2.4,99.92094801820251,
4,stimuli/4.png,l,0,0,0,0,93,0,93,0,0,0,0,0,,,,,,,,,,,,,,,,,,201.63133417991776,201.63133417991776,201.63133417991776,201.63133417991776,l,1,0.5171196078044886,202.17204223827866,202.17204223827866,202.17204223827866,,,,,,,,,,,,,,,,,,,,,,,,,,,,109,001,2023-03-01_15h15.58.186,eb_01,2022.2.4,99.92094801820251,
,,,0,0,0,0,93,0,93,0,,,,,,,,,,,,,,,,,,,,,,,,,,,,,,,,,,,,,,,,,,,,,,,,,,,,,,,,,,,109,001,2023-03-01_15h15.58.186,eb_01,2022.2.4,99.92094801820251,
3,stimuli/3.png,l,0,0,0,0,94,0,94,0,0,0,0,0,,,,,,,,,,,,,,,,,,203.1826522169722,203.1826522169722,203.1826522169722,203.1826522169722,l,1,0.43775425054627704,203.63260556626847,203.63260556626847,203.63260556626847,204.64353882482465,204.64353882482465,204.64353882482465,,,,,,,,,,,,,,,,,,,,,,,,,109,001,2023-03-01_15h15.58.186,eb_01,2022.2.4,99.92094801820251,
,,,0,0,0,0,94,0,94,0,,,,,,,,,,,,,,,,,,,,,,,,,,,,,,,,,,,,,,,,,,,,,,,,,,,,,,,,,,,109,001,2023-03-01_15h15.58.186,eb_01,2022.2.4,99.92094801820251,
2,stimuli/2.png,s,0,0,0,0,95,0,95,0,0,0,0,0,,,,,,,,,,,,,,,,,,204.64353882482465,204.64353882482465,204.64353882482465,204.64353882482465,s,1,0.9129053182296047,205.5737260705755,205.5737260705755,205.5737260705755,206.59466862908448,206.59466862908448,206.59466862908448,,,,,,,,,,,,,,,,,,,,,,,,,109,001,2023-03-01_15h15.58.186,eb_01,2022.2.4,99.92094801820251,
,,,0,0,0,0,95,0,95,0,,,,,,,,,,,,,,,,,,,,,,,,,,,,,,,,,,,,,,,,,,,,,,,,,,,,,,,,,,,109,001,2023-03-01_15h15.58.186,eb_01,2022.2.4,99.92094801820251,
1,stimuli/1.png,s,0,0,0,0,96,0,96,0,0,0,0,0,,,,,,,,,,,,,,,,,,206.59466862908448,206.59466862908448,206.59466862908448,206.59466862908448,s,1,0.8657970128333545,207.49526837209123,207.49526837209123,207.49526837209123,,,,,,,,,,,,,,,,,,,,,,,,,,,,109,001,2023-03-01_15h15.58.186,eb_01,2022.2.4,99.92094801820251,
,,,0,0,0,0,96,0,96,0,,,,,,,,,,,,,,,,,,,,,,,,,,,,,,,,,,,,,,,,,,,,,,,,,,,,,,,,,,,109,001,2023-03-01_15h15.58.186,eb_01,2022.2.4,99.92094801820251,
2,stimuli/2.png,s,0,0,0,0,97,0,97,0,0,0,0,0,,,,,,,,,,,,,,,,,,208.49589742459648,208.49589742459648,208.49589742459648,208.49589742459648,s,1,0.7966238757908286,209.30601382044188,209.30601382044188,209.30601382044188,210.31662772316486,210.31662772316486,210.31662772316486,,,,,,,,,,,,,,,,,,,,,,,,,109,001,2023-03-01_15h15.58.186,eb_01,2022.2.4,99.92094801820251,
,,,0,0,0,0,97,0,97,0,,,,,,,,,,,,,,,,,,,,,,,,,,,,,,,,,,,,,,,,,,,,,,,,,,,,,,,,,,,109,001,2023-03-01_15h15.58.186,eb_01,2022.2.4,99.92094801820251,
4,stimuli/4.png,l,0,0,0,0,98,0,98,0,0,0,0,0,,,,,,,,,,,,,,,,,,210.31662772316486,210.31662772316486,210.31662772316486,210.31662772316486,l,1,0.855883097039623,211.19752339251136,211.19752339251136,211.19752339251136,,,,,,,,,,,,,,,,,,,,,,,,,,,,109,001,2023-03-01_15h15.58.186,eb_01,2022.2.4,99.92094801820251,
,,,0,0,0,0,98,0,98,0,,,,,,,,,,,,,,,,,,,,,,,,,,,,,,,,,,,,,,,,,,,,,,,,,,,,,,,,,,,109,001,2023-03-01_15h15.58.186,eb_01,2022.2.4,99.92094801820251,
3,stimuli/3.png,l,0,0,0,0,99,0,99,0,0,0,0,0,,,,,,,,,,,,,,,,,,212.20780616730917,212.20780616730917,212.20780616730917,212.20780616730917,l,1,0.4767533929916681,212.69810339462128,212.69810339462128,212.69810339462128,213.69871614730073,213.69871614730073,213.69871614730073,,,,,,,,,,,,,,,,,,,,,,,,,109,001,2023-03-01_15h15.58.186,eb_01,2022.2.4,99.92094801820251,
,,,0,0,0,0,99,0,99,0,,,,,,,,,,,,,,,,,,,,,,,,,,,,,,,,,,,,,,,,,,,,,,,,,,,,,,,,,,,109,001,2023-03-01_15h15.58.186,eb_01,2022.2.4,99.92094801820251,
,,,0,0,0,0,,,,,,,,,,,,,,,,,,,,,,,,,,,,,,,,,,,,,,,213.69871614730073,213.69871614730073,return,12.929096477746498,,,,,,,,,,,,,,,,,,,,,109,001,2023-03-01_15h15.58.186,eb_01,2022.2.4,99.92094801820251,
4,stimuli/4.png,l,1,0,1,0,0,0,0,0,0,0,0,0,,,,,,,,,,,,,,,,,,226.6668865130705,226.6668865130705,226.6668865130705,226.6668865130705,l,1,1.9449939385667676,228.63806480025596,228.63806480025596,228.63806480025596,,,,,,,,,,,,,,,,,,,,,,,,,,,,109,001,2023-03-01_15h15.58.186,eb_01,2022.2.4,99.92094801820251,
,,,1,0,1,0,0,0,0,0,,,,,,,,,,,,,,,,,,,,,,,,,,,,,,,,,,,,,,,,,,,,,,,,,,,,,,,,,,,109,001,2023-03-01_15h15.58.186,eb_01,2022.2.4,99.92094801820251,
2,stimuli/2.png,s,1,0,1,0,1,0,1,0,0,0,0,0,,,,,,,,,,,,,,,,,,229.64870254902053,229.64870254902053,229.64870254902053,229.64870254902053,s,1,1.1231996236419945,230.7890177816007,230.7890177816007,230.7890177816007,231.80001171172626,231.80001171172626,231.80001171172626,,,,,,,,,,,,,,,,,,,,,,,,,109,001,2023-03-01_15h15.58.186,eb_01,2022.2.4,99.92094801820251,
,,,1,0,1,0,1,0,1,0,,,,,,,,,,,,,,,,,,,,,,,,,,,,,,,,,,,,,,,,,,,,,,,,,,,,,,,,,,,109,001,2023-03-01_15h15.58.186,eb_01,2022.2.4,99.92094801820251,
3,stimuli/3.png,l,1,0,1,0,2,0,2,0,0,0,0,0,,,,,,,,,,,,,,,,,,231.80001171172626,231.80001171172626,231.80001171172626,231.80001171172626,l,1,0.7478955488950305,232.56009337988507,232.56009337988507,232.56009337988507,233.57103026062396,233.57103026062396,233.57103026062396,,,,,,,,,,,,,,,,,,,,,,,,,109,001,2023-03-01_15h15.58.186,eb_01,2022.2.4,99.92094801820251,
,,,1,0,1,0,2,0,2,0,,,,,,,,,,,,,,,,,,,,,,,,,,,,,,,,,,,,,,,,,,,,,,,,,,,,,,,,,,,109,001,2023-03-01_15h15.58.186,eb_01,2022.2.4,99.92094801820251,
8,stimuli/8.png,l,1,0,1,0,3,0,3,0,0,0,0,0,,,,,,,,,,,,,,,,,,233.57103026062396,233.57103026062396,233.57103026062396,233.57103026062396,l,1,0.7119109685299918,234.31152044465853,234.31152044465853,234.31152044465853,,,,,,,,,,,,,,,,,,,,,,,,,,,,109,001,2023-03-01_15h15.58.186,eb_01,2022.2.4,99.92094801820251,
,,,1,0,1,0,3,0,3,0,,,,,,,,,,,,,,,,,,,,,,,,,,,,,,,,,,,,,,,,,,,,,,,,,,,,,,,,,,,109,001,2023-03-01_15h15.58.186,eb_01,2022.2.4,99.92094801820251,
6,stimuli/6.png,s,1,0,1,0,4,0,4,0,0,0,0,0,,,,,,,,,,,,,,,,,,235.3318055768941,235.3318055768941,235.3318055768941,235.3318055768941,s,1,1.0151628741768945,236.38278388333492,236.38278388333492,236.38278388333492,,,,,,,,,,,,,,,,,,,,,,,,,,,,109,001,2023-03-01_15h15.58.186,eb_01,2022.2.4,99.92094801820251,
,,,1,0,1,0,4,0,4,0,,,,,,,,,,,,,,,,,,,,,,,,,,,,,,,,,,,,,,,,,,,,,,,,,,,,,,,,,,,109,001,2023-03-01_15h15.58.186,eb_01,2022.2.4,99.92094801820251,
9,stimuli/9.png,l,1,0,1,0,5,0,5,0,0,0,0,0,,,,,,,,,,,,,,,,,,237.39342434873834,237.39342434873834,237.39342434873834,237.39342434873834,l,1,0.9056159761130402,238.32360072793745,238.32360072793745,238.32360072793745,,,,,,,,,,,,,,,,,,,,,,,,,,,,109,001,2023-03-01_15h15.58.186,eb_01,2022.2.4,99.92094801820251,
,,,1,0,1,0,5,0,5,0,,,,,,,,,,,,,,,,,,,,,,,,,,,,,,,,,,,,,,,,,,,,,,,,,,,,,,,,,,,109,001,2023-03-01_15h15.58.186,eb_01,2022.2.4,99.92094801820251,
8,stimuli/8.png,l,1,0,1,0,6,0,6,0,0,0,0,0,,,,,,,,,,,,,,,,,,239.33454304195038,239.33454304195038,239.33454304195038,239.33454304195038,l,1,0.556487911104341,239.91491823373872,239.91491823373872,239.91491823373872,,,,,,,,,,,,,,,,,,,,,,,,,,,,109,001,2023-03-01_15h15.58.186,eb_01,2022.2.4,99.92094801820251,
,,,1,0,1,0,6,0,6,0,,,,,,,,,,,,,,,,,,,,,,,,,,,,,,,,,,,,,,,,,,,,,,,,,,,,,,,,,,,109,001,2023-03-01_15h15.58.186,eb_01,2022.2.4,99.92094801820251,
9,stimuli/9.png,l,1,0,1,0,7,0,7,0,0,0,0,0,,,,,,,,,,,,,,,,,,240.93555109557565,240.93555109557565,240.93555109557565,240.93555109557565,l,1,0.4675445955545001,241.42547553984696,241.42547553984696,241.42547553984696,,,,,,,,,,,,,,,,,,,,,,,,,,,,109,001,2023-03-01_15h15.58.186,eb_01,2022.2.4,99.92094801820251,
,,,1,0,1,0,7,0,7,0,,,,,,,,,,,,,,,,,,,,,,,,,,,,,,,,,,,,,,,,,,,,,,,,,,,,,,,,,,,109,001,2023-03-01_15h15.58.186,eb_01,2022.2.4,99.92094801820251,
5,stimuli/5.png,s,1,0,1,0,8,0,8,0,0,0,0,0,,,,,,,,,,,,,,,,,,242.43647761988905,242.43647761988905,242.43647761988905,242.43647761988905,s,1,0.8866635054946528,243.34701029515054,243.34701029515054,243.34701029515054,,,,,,,,,,,,,,,,,,,,,,,,,,,,109,001,2023-03-01_15h15.58.186,eb_01,2022.2.4,99.92094801820251,
,,,1,0,1,0,8,0,8,0,,,,,,,,,,,,,,,,,,,,,,,,,,,,,,,,,,,,,,,,,,,,,,,,,,,,,,,,,,,109,001,2023-03-01_15h15.58.186,eb_01,2022.2.4,99.92094801820251,
6,stimuli/6.png,s,1,0,1,0,9,0,9,0,0,0,0,0,,,,,,,,,,,,,,,,,,244.3676479865644,244.3676479865644,244.3676479865644,244.3676479865644,s,1,0.7155047781016037,245.11810400435206,245.11810400435206,245.11810400435206,,,,,,,,,,,,,,,,,,,,,,,,,,,,109,001,2023-03-01_15h15.58.186,eb_01,2022.2.4,99.92094801820251,
,,,1,0,1,0,9,0,9,0,,,,,,,,,,,,,,,,,,,,,,,,,,,,,,,,,,,,,,,,,,,,,,,,,,,,,,,,,,,109,001,2023-03-01_15h15.58.186,eb_01,2022.2.4,99.92094801820251,
8,stimuli/8.png,l,1,0,1,0,10,0,10,0,0,0,0,0,,,,,,,,,,,,,,,,,,246.11864189857806,246.11864189857806,246.11864189857806,246.11864189857806,l,1,0.9005225826440437,247.0392557137675,247.0392557137675,247.0392557137675,,,,,,,,,,,,,,,,,,,,,,,,,,,,109,001,2023-03-01_15h15.58.186,eb_01,2022.2.4,99.92094801820251,
,,,1,0,1,0,10,0,10,0,,,,,,,,,,,,,,,,,,,,,,,,,,,,,,,,,,,,,,,,,,,,,,,,,,,,,,,,,,,109,001,2023-03-01_15h15.58.186,eb_01,2022.2.4,99.92094801820251,
3,stimuli/3.png,l,1,0,1,0,11,0,11,0,0,0,0,0,,,,,,,,,,,,,,,,,,248.04986539061065,248.04986539061065,248.04986539061065,248.04986539061065,l,1,0.6093400937243132,248.66986877735326,248.66986877735326,248.66986877735326,249.68048328377336,249.68048328377336,249.68048328377336,,,,,,,,,,,,,,,,,,,,,,,,,109,001,2023-03-01_15h15.58.186,eb_01,2022.2.4,99.92094801820251,
,,,1,0,1,0,11,0,11,0,,,,,,,,,,,,,,,,,,,,,,,,,,,,,,,,,,,,,,,,,,,,,,,,,,,,,,,,,,,109,001,2023-03-01_15h15.58.186,eb_01,2022.2.4,99.92094801820251,
4,stimuli/4.png,l,1,0,1,0,12,0,12,0,0,0,0,0,,,,,,,,,,,,,,,,,,249.68048328377336,249.68048328377336,249.68048328377336,249.68048328377336,l,1,0.5697118987700378,250.2712079589037,250.2712079589037,250.2712079589037,,,,,,,,,,,,,,,,,,,,,,,,,,,,109,001,2023-03-01_15h15.58.186,eb_01,2022.2.4,99.92094801820251,
,,,1,0,1,0,12,0,12,0,,,,,,,,,,,,,,,,,,,,,,,,,,,,,,,,,,,,,,,,,,,,,,,,,,,,,,,,,,,109,001,2023-03-01_15h15.58.186,eb_01,2022.2.4,99.92094801820251,
2,stimuli/2.png,s,1,0,1,0,13,0,13,0,0,0,0,0,,,,,,,,,,,,,,,,,,251.28181371171377,251.28181371171377,251.28181371171377,251.28181371171377,s,1,0.8244383197888965,252.12196072406368,252.12196072406368,252.12196072406368,253.132913602778,253.132913602778,253.132913602778,,,,,,,,,,,,,,,,,,,,,,,,,109,001,2023-03-01_15h15.58.186,eb_01,2022.2.4,99.92094801820251,
,,,1,0,1,0,13,0,13,0,,,,,,,,,,,,,,,,,,,,,,,,,,,,,,,,,,,,,,,,,,,,,,,,,,,,,,,,,,,109,001,2023-03-01_15h15.58.186,eb_01,2022.2.4,99.92094801820251,
3,stimuli/3.png,l,1,0,1,0,14,0,14,0,0,0,0,0,,,,,,,,,,,,,,,,,,253.132913602778,253.132913602778,253.132913602778,253.132913602778,l,1,0.6933635787536332,253.84300280205935,253.84300280205935,253.84300280205935,254.85362183620964,254.85362183620964,254.85362183620964,,,,,,,,,,,,,,,,,,,,,,,,,109,001,2023-03-01_15h15.58.186,eb_01,2022.2.4,99.92094801820251,
,,,1,0,1,0,14,0,14,0,,,,,,,,,,,,,,,,,,,,,,,,,,,,,,,,,,,,,,,,,,,,,,,,,,,,,,,,,,,109,001,2023-03-01_15h15.58.186,eb_01,2022.2.4,99.92094801820251,
8,stimuli/8.png,l,1,0,1,0,15,0,15,0,0,0,0,0,,,,,,,,,,,,,,,,,,254.85362183620964,254.85362183620964,254.85362183620964,254.85362183620964,l,1,0.676676481965842,255.5543968928905,255.5543968928905,255.5543968928905,,,,,,,,,,,,,,,,,,,,,,,,,,,,109,001,2023-03-01_15h15.58.186,eb_01,2022.2.4,99.92094801820251,
,,,1,0,1,0,15,0,15,0,,,,,,,,,,,,,,,,,,,,,,,,,,,,,,,,,,,,,,,,,,,,,,,,,,,,,,,,,,,109,001,2023-03-01_15h15.58.186,eb_01,2022.2.4,99.92094801820251,
9,stimuli/9.png,l,1,0,1,0,16,0,16,0,0,0,0,0,,,,,,,,,,,,,,,,,,256.57501405859875,256.57501405859875,256.57501405859875,256.57501405859875,l,1,0.5313230942156224,257.1350060173536,257.1350060173536,257.1350060173536,,,,,,,,,,,,,,,,,,,,,,,,,,,,109,001,2023-03-01_15h15.58.186,eb_01,2022.2.4,99.92094801820251,
,,,1,0,1,0,16,0,16,0,,,,,,,,,,,,,,,,,,,,,,,,,,,,,,,,,,,,,,,,,,,,,,,,,,,,,,,,,,,109,001,2023-03-01_15h15.58.186,eb_01,2022.2.4,99.92094801820251,
5,stimuli/5.png,s,1,0,1,0,17,0,17,0,0,0,0,0,,,,,,,,,,,,,,,,,,258.1459951179022,258.1459951179022,258.1459951179022,258.1459951179022,s,1,0.8883985313113953,259.05653413198525,259.05653413198525,259.05653413198525,,,,,,,,,,,,,,,,,,,,,,,,,,,,109,001,2023-03-01_15h15.58.186,eb_01,2022.2.4,99.92094801820251,
,,,1,0,1,0,17,0,17,0,,,,,,,,,,,,,,,,,,,,,,,,,,,,,,,,,,,,,,,,,,,,,,,,,,,,,,,,,,,109,001,2023-03-01_15h15.58.186,eb_01,2022.2.4,99.92094801820251,
9,stimuli/9.png,l,1,0,1,0,18,0,18,0,0,0,0,0,,,,,,,,,,,,,,,,,,260.0771742381876,260.0771742381876,260.0771742381876,260.0771742381876,l,1,1.021248444034427,261.1377824208794,261.1377824208794,261.1377824208794,,,,,,,,,,,,,,,,,,,,,,,,,,,,109,001,2023-03-01_15h15.58.186,eb_01,2022.2.4,99.92094801820251,
,,,1,0,1,0,18,0,18,0,,,,,,,,,,,,,,,,,,,,,,,,,,,,,,,,,,,,,,,,,,,,,,,,,,,,,,,,,,,109,001,2023-03-01_15h15.58.186,eb_01,2022.2.4,99.92094801820251,
5,stimuli/5.png,s,1,0,1,0,19,0,19,0,0,0,0,0,,,,,,,,,,,,,,,,,,262.1384229436335,262.1384229436335,262.1384229436335,262.1384229436335,s,1,0.7840132444980554,262.9489160465455,262.9489160465455,262.9489160465455,,,,,,,,,,,,,,,,,,,,,,,,,,,,109,001,2023-03-01_15h15.58.186,eb_01,2022.2.4,99.92094801820251,
,,,1,0,1,0,19,0,19,0,,,,,,,,,,,,,,,,,,,,,,,,,,,,,,,,,,,,,,,,,,,,,,,,,,,,,,,,,,,109,001,2023-03-01_15h15.58.186,eb_01,2022.2.4,99.92094801820251,
6,stimuli/6.png,s,1,0,1,0,20,0,20,0,0,0,0,0,,,,,,,,,,,,,,,,,,263.96915529778926,263.96915529778926,263.96915529778926,263.96915529778926,s,1,0.7444067826472747,264.75000988554166,264.75000988554166,264.75000988554166,,,,,,,,,,,,,,,,,,,,,,,,,,,,109,001,2023-03-01_15h15.58.186,eb_01,2022.2.4,99.92094801820251,
,,,1,0,1,0,20,0,20,0,,,,,,,,,,,,,,,,,,,,,,,,,,,,,,,,,,,,,,,,,,,,,,,,,,,,,,,,,,,109,001,2023-03-01_15h15.58.186,eb_01,2022.2.4,99.92094801820251,
5,stimuli/5.png,s,1,0,1,0,21,0,21,0,0,0,0,0,,,,,,,,,,,,,,,,,,265.7506102624284,265.7506102624284,265.7506102624284,265.7506102624284,s,1,0.7948933777006459,266.56077344480946,266.56077344480946,266.56077344480946,267.58140691033987,267.58140691033987,267.58140691033987,,,,,,,,,,,,,,,,,,,,,,,,,109,001,2023-03-01_15h15.58.186,eb_01,2022.2.4,99.92094801820251,
,,,1,0,1,0,21,0,21,0,,,,,,,,,,,,,,,,,,,,,,,,,,,,,,,,,,,,,,,,,,,,,,,,,,,,,,,,,,,109,001,2023-03-01_15h15.58.186,eb_01,2022.2.4,99.92094801820251,
9,stimuli/9.png,l,1,0,1,0,22,0,22,0,0,0,0,0,,,,,,,,,,,,,,,,,,267.58140691033987,267.58140691033987,267.58140691033987,267.58140691033987,l,1,0.9161402297977475,268.5322354696873,268.5322354696873,268.5322354696873,,,,,,,,,,,,,,,,,,,,,,,,,,,,109,001,2023-03-01_15h15.58.186,eb_01,2022.2.4,99.92094801820251,
,,,1,0,1,0,22,0,22,0,,,,,,,,,,,,,,,,,,,,,,,,,,,,,,,,,,,,,,,,,,,,,,,,,,,,,,,,,,,109,001,2023-03-01_15h15.58.186,eb_01,2022.2.4,99.92094801820251,
6,stimuli/6.png,s,1,0,1,0,23,0,23,0,0,0,0,0,,,,,,,,,,,,,,,,,,269.5428472594722,269.5428472594722,269.5428472594722,269.5428472594722,s,1,0.8107663887822127,270.39341257664273,270.39341257664273,270.39341257664273,,,,,,,,,,,,,,,,,,,,,,,,,,,,109,001,2023-03-01_15h15.58.186,eb_01,2022.2.4,99.92094801820251,
,,,1,0,1,0,23,0,23,0,,,,,,,,,,,,,,,,,,,,,,,,,,,,,,,,,,,,,,,,,,,,,,,,,,,,,,,,,,,109,001,2023-03-01_15h15.58.186,eb_01,2022.2.4,99.92094801820251,
9,stimuli/9.png,l,1,0,1,0,24,0,24,0,0,0,0,0,,,,,,,,,,,,,,,,,,271.40403764776784,271.40403764776784,271.40403764776784,271.40403764776784,l,1,0.7335574380049366,272.174510454377,272.174510454377,272.174510454377,,,,,,,,,,,,,,,,,,,,,,,,,,,,109,001,2023-03-01_15h15.58.186,eb_01,2022.2.4,99.92094801820251,
,,,1,0,1,0,24,0,24,0,,,,,,,,,,,,,,,,,,,,,,,,,,,,,,,,,,,,,,,,,,,,,,,,,,,,,,,,,,,109,001,2023-03-01_15h15.58.186,eb_01,2022.2.4,99.92094801820251,
8,stimuli/8.png,l,1,0,1,0,25,0,25,0,0,0,0,0,,,,,,,,,,,,,,,,,,273.17509573883217,273.17509573883217,273.17509573883217,273.17509573883217,l,1,0.8505488283772138,274.0456407174461,274.0456407174461,274.0456407174461,,,,,,,,,,,,,,,,,,,,,,,,,,,,109,001,2023-03-01_15h15.58.186,eb_01,2022.2.4,99.92094801820251,
,,,1,0,1,0,25,0,25,0,,,,,,,,,,,,,,,,,,,,,,,,,,,,,,,,,,,,,,,,,,,,,,,,,,,,,,,,,,,109,001,2023-03-01_15h15.58.186,eb_01,2022.2.4,99.92094801820251,
3,stimuli/3.png,l,1,0,1,0,26,0,26,0,0,0,0,0,,,,,,,,,,,,,,,,,,275.0562380184965,275.0562380184965,275.0562380184965,275.0562380184965,l,1,0.8974180696714029,275.96642779373724,275.96642779373724,275.96642779373724,276.9773631652315,276.9773631652315,276.9773631652315,,,,,,,,,,,,,,,,,,,,,,,,,109,001,2023-03-01_15h15.58.186,eb_01,2022.2.4,99.92094801820251,
,,,1,0,1,0,26,0,26,0,,,,,,,,,,,,,,,,,,,,,,,,,,,,,,,,,,,,,,,,,,,,,,,,,,,,,,,,,,,109,001,2023-03-01_15h15.58.186,eb_01,2022.2.4,99.92094801820251,
8,stimuli/8.png,l,1,0,1,0,27,0,27,0,0,0,0,0,,,,,,,,,,,,,,,,,,276.9773631652315,276.9773631652315,276.9773631652315,276.9773631652315,l,1,0.7123534785969241,277.7178497270834,277.7178497270834,277.7178497270834,,,,,,,,,,,,,,,,,,,,,,,,,,,,109,001,2023-03-01_15h15.58.186,eb_01,2022.2.4,99.92094801820251,
,,,1,0,1,0,27,0,27,0,,,,,,,,,,,,,,,,,,,,,,,,,,,,,,,,,,,,,,,,,,,,,,,,,,,,,,,,,,,109,001,2023-03-01_15h15.58.186,eb_01,2022.2.4,99.92094801820251,
6,stimuli/6.png,s,1,0,1,0,28,0,28,0,0,0,0,0,,,,,,,,,,,,,,,,,,278.7384351986875,278.7384351986875,278.7384351986875,278.7384351986875,s,1,0.8233251021119941,279.59898808271464,279.59898808271464,279.59898808271464,,,,,,,,,,,,,,,,,,,,,,,,,,,,109,001,2023-03-01_15h15.58.186,eb_01,2022.2.4,99.92094801820251,
,,,1,0,1,0,28,0,28,0,,,,,,,,,,,,,,,,,,,,,,,,,,,,,,,,,,,,,,,,,,,,,,,,,,,,,,,,,,,109,001,2023-03-01_15h15.58.186,eb_01,2022.2.4,99.92094801820251,
5,stimuli/5.png,s,1,0,1,0,29,0,29,0,0,0,0,0,,,,,,,,,,,,,,,,,,280.59960868346025,280.59960868346025,280.59960868346025,280.59960868346025,s,1,0.713134662804805,281.34005992902166,281.34005992902166,281.34005992902166,,,,,,,,,,,,,,,,,,,,,,,,,,,,109,001,2023-03-01_15h15.58.186,eb_01,2022.2.4,99.92094801820251,
,,,1,0,1,0,29,0,29,0,,,,,,,,,,,,,,,,,,,,,,,,,,,,,,,,,,,,,,,,,,,,,,,,,,,,,,,,,,,109,001,2023-03-01_15h15.58.186,eb_01,2022.2.4,99.92094801820251,
6,stimuli/6.png,s,1,0,1,0,30,0,30,0,0,0,0,0,,,,,,,,,,,,,,,,,,282.36033479840626,282.36033479840626,282.36033479840626,282.36033479840626,s,1,0.7124558052782959,283.1111255663054,283.1111255663054,283.1111255663054,,,,,,,,,,,,,,,,,,,,,,,,,,,,109,001,2023-03-01_15h15.58.186,eb_01,2022.2.4,99.92094801820251,
,,,1,0,1,0,30,0,30,0,,,,,,,,,,,,,,,,,,,,,,,,,,,,,,,,,,,,,,,,,,,,,,,,,,,,,,,,,,,109,001,2023-03-01_15h15.58.186,eb_01,2022.2.4,99.92094801820251,
9,stimuli/9.png,l,1,0,1,0,31,0,31,0,0,0,0,0,,,,,,,,,,,,,,,,,,284.1217527503686,284.1217527503686,284.1217527503686,284.1217527503686,l,1,0.9990743431881128,285.1420282234503,285.1420282234503,285.1420282234503,,,,,,,,,,,,,,,,,,,,,,,,,,,,109,001,2023-03-01_15h15.58.186,eb_01,2022.2.4,99.92094801820251,
,,,1,0,1,0,31,0,31,0,,,,,,,,,,,,,,,,,,,,,,,,,,,,,,,,,,,,,,,,,,,,,,,,,,,,,,,,,,,109,001,2023-03-01_15h15.58.186,eb_01,2022.2.4,99.92094801820251,
8,stimuli/8.png,l,1,0,1,0,32,0,32,0,0,0,0,0,,,,,,,,,,,,,,,,,,286.1529877428329,286.1529877428329,286.1529877428329,286.1529877428329,l,1,0.7358798612222017,286.91342800714483,286.91342800714483,286.91342800714483,,,,,,,,,,,,,,,,,,,,,,,,,,,,109,001,2023-03-01_15h15.58.186,eb_01,2022.2.4,99.92094801820251,
,,,1,0,1,0,32,0,32,0,,,,,,,,,,,,,,,,,,,,,,,,,,,,,,,,,,,,,,,,,,,,,,,,,,,,,,,,,,,109,001,2023-03-01_15h15.58.186,eb_01,2022.2.4,99.92094801820251,
6,stimuli/6.png,s,1,0,1,0,33,0,33,0,0,0,0,0,,,,,,,,,,,,,,,,,,287.93373366508604,287.93373366508604,287.93373366508604,287.93373366508604,s,1,0.811217048758408,288.78458392734683,288.78458392734683,288.78458392734683,,,,,,,,,,,,,,,,,,,,,,,,,,,,109,001,2023-03-01_15h15.58.186,eb_01,2022.2.4,99.92094801820251,
,,,1,0,1,0,33,0,33,0,,,,,,,,,,,,,,,,,,,,,,,,,,,,,,,,,,,,,,,,,,,,,,,,,,,,,,,,,,,109,001,2023-03-01_15h15.58.186,eb_01,2022.2.4,99.92094801820251,
5,stimuli/5.png,s,1,0,1,0,34,0,34,0,0,0,0,0,,,,,,,,,,,,,,,,,,289.7851121624153,289.7851121624153,289.7851121624153,289.7851121624153,s,1,0.695820324599481,290.50562419425114,290.50562419425114,290.50562419425114,,,,,,,,,,,,,,,,,,,,,,,,,,,,109,001,2023-03-01_15h15.58.186,eb_01,2022.2.4,99.92094801820251,
,,,1,0,1,0,34,0,34,0,,,,,,,,,,,,,,,,,,,,,,,,,,,,,,,,,,,,,,,,,,,,,,,,,,,,,,,,,,,109,001,2023-03-01_15h15.58.186,eb_01,2022.2.4,99.92094801820251,
6,stimuli/6.png,s,1,0,1,0,35,0,35,0,0,0,0,0,,,,,,,,,,,,,,,,,,291.526220532407,291.526220532407,291.526220532407,291.526220532407,s,1,0.7147235938937229,292.27668892599104,292.27668892599104,292.27668892599104,,,,,,,,,,,,,,,,,,,,,,,,,,,,109,001,2023-03-01_15h15.58.186,eb_01,2022.2.4,99.92094801820251,
,,,1,0,1,0,35,0,35,0,,,,,,,,,,,,,,,,,,,,,,,,,,,,,,,,,,,,,,,,,,,,,,,,,,,,,,,,,,,109,001,2023-03-01_15h15.58.186,eb_01,2022.2.4,99.92094801820251,
5,stimuli/5.png,s,1,0,1,0,36,0,36,0,0,0,0,0,,,,,,,,,,,,,,,,,,293.2772950380022,293.2772950380022,293.2772950380022,293.2772950380022,s,1,0.7556805264357536,294.05771979333076,294.05771979333076,294.05771979333076,,,,,,,,,,,,,,,,,,,,,,,,,,,,109,001,2023-03-01_15h15.58.186,eb_01,2022.2.4,99.92094801820251,
,,,1,0,1,0,36,0,36,0,,,,,,,,,,,,,,,,,,,,,,,,,,,,,,,,,,,,,,,,,,,,,,,,,,,,,,,,,,,109,001,2023-03-01_15h15.58.186,eb_01,2022.2.4,99.92094801820251,
6,stimuli/6.png,s,1,0,1,0,37,0,37,0,0,0,0,0,,,,,,,,,,,,,,,,,,295.0783955176703,295.0783955176703,295.0783955176703,295.0783955176703,s,1,0.6506607538431126,295.7688035837891,295.7688035837891,295.7688035837891,,,,,,,,,,,,,,,,,,,,,,,,,,,,109,001,2023-03-01_15h15.58.186,eb_01,2022.2.4,99.92094801820251,
,,,1,0,1,0,37,0,37,0,,,,,,,,,,,,,,,,,,,,,,,,,,,,,,,,,,,,,,,,,,,,,,,,,,,,,,,,,,,109,001,2023-03-01_15h15.58.186,eb_01,2022.2.4,99.92094801820251,
5,stimuli/5.png,s,1,0,1,0,38,0,38,0,0,0,0,0,,,,,,,,,,,,,,,,,,296.76941875125704,296.76941875125704,296.76941875125704,296.76941875125704,s,1,0.6625991682740278,297.4598298358651,297.4598298358651,297.4598298358651,,,,,,,,,,,,,,,,,,,,,,,,,,,,109,001,2023-03-01_15h15.58.186,eb_01,2022.2.4,99.92094801820251,
,,,1,0,1,0,38,0,38,0,,,,,,,,,,,,,,,,,,,,,,,,,,,,,,,,,,,,,,,,,,,,,,,,,,,,,,,,,,,109,001,2023-03-01_15h15.58.186,eb_01,2022.2.4,99.92094801820251,
9,stimuli/9.png,l,1,0,1,0,39,0,39,0,0,0,0,0,,,,,,,,,,,,,,,,,,298.48048443079824,298.48048443079824,298.48048443079824,298.48048443079824,l,1,0.775627286380768,299.28059846920587,299.28059846920587,299.28059846920587,,,,,,,,,,,,,,,,,,,,,,,,,,,,109,001,2023-03-01_15h15.58.186,eb_01,2022.2.4,99.92094801820251,
,,,1,0,1,0,39,0,39,0,,,,,,,,,,,,,,,,,,,,,,,,,,,,,,,,,,,,,,,,,,,,,,,,,,,,,,,,,,,109,001,2023-03-01_15h15.58.186,eb_01,2022.2.4,99.92094801820251,
5,stimuli/5.png,s,1,0,1,0,40,0,40,0,0,0,0,0,,,,,,,,,,,,,,,,,,300.29156040337693,300.29156040337693,300.29156040337693,300.29156040337693,s,1,0.7565350598561054,301.0720443210339,301.0720443210339,301.0720443210339,,,,,,,,,,,,,,,,,,,,,,,,,,,,109,001,2023-03-01_15h15.58.186,eb_01,2022.2.4,99.92094801820251,
,,,1,0,1,0,40,0,40,0,,,,,,,,,,,,,,,,,,,,,,,,,,,,,,,,,,,,,,,,,,,,,,,,,,,,,,,,,,,109,001,2023-03-01_15h15.58.186,eb_01,2022.2.4,99.92094801820251,
9,stimuli/9.png,l,1,0,1,0,41,0,41,0,0,0,0,0,,,,,,,,,,,,,,,,,,302.09576086828383,302.09576086828383,302.09576086828383,302.09576086828383,l,1,0.6723627634601144,302.79274349901243,302.79274349901243,302.79274349901243,,,,,,,,,,,,,,,,,,,,,,,,,,,,109,001,2023-03-01_15h15.58.186,eb_01,2022.2.4,99.92094801820251,
,,,1,0,1,0,41,0,41,0,,,,,,,,,,,,,,,,,,,,,,,,,,,,,,,,,,,,,,,,,,,,,,,,,,,,,,,,,,,109,001,2023-03-01_15h15.58.186,eb_01,2022.2.4,99.92094801820251,
6,stimuli/6.png,s,1,0,1,0,42,0,42,0,0,0,0,0,,,,,,,,,,,,,,,,,,303.8133654942976,303.8133654942976,303.8133654942976,303.8133654942976,s,1,1.1388221003762737,304.98439955821596,304.98439955821596,304.98439955821596,,,,,,,,,,,,,,,,,,,,,,,,,,,,109,001,2023-03-01_15h15.58.186,eb_01,2022.2.4,99.92094801820251,
,,,1,0,1,0,42,0,42,0,,,,,,,,,,,,,,,,,,,,,,,,,,,,,,,,,,,,,,,,,,,,,,,,,,,,,,,,,,,109,001,2023-03-01_15h15.58.186,eb_01,2022.2.4,99.92094801820251,
5,stimuli/5.png,s,1,0,1,0,43,0,43,0,0,0,0,0,,,,,,,,,,,,,,,,,,305.9850114053479,305.9850114053479,305.9850114053479,305.9850114053479,s,1,0.8472164197046368,306.855543404472,306.855543404472,306.855543404472,,,,,,,,,,,,,,,,,,,,,,,,,,,,109,001,2023-03-01_15h15.58.186,eb_01,2022.2.4,99.92094801820251,
,,,1,0,1,0,43,0,43,0,,,,,,,,,,,,,,,,,,,,,,,,,,,,,,,,,,,,,,,,,,,,,,,,,,,,,,,,,,,109,001,2023-03-01_15h15.58.186,eb_01,2022.2.4,99.92094801820251,
9,stimuli/9.png,l,1,0,1,0,44,0,44,0,0,0,0,0,,,,,,,,,,,,,,,,,,307.87613732783575,307.87613732783575,307.87613732783575,307.87613732783575,l,1,0.9641033704610891,308.866428970945,308.866428970945,308.866428970945,,,,,,,,,,,,,,,,,,,,,,,,,,,,109,001,2023-03-01_15h15.58.186,eb_01,2022.2.4,99.92094801820251,
,,,1,0,1,0,44,0,44,0,,,,,,,,,,,,,,,,,,,,,,,,,,,,,,,,,,,,,,,,,,,,,,,,,,,,,,,,,,,109,001,2023-03-01_15h15.58.186,eb_01,2022.2.4,99.92094801820251,
8,stimuli/8.png,l,1,0,1,0,45,0,45,0,0,0,0,0,,,,,,,,,,,,,,,,,,309.8773782274802,309.8773782274802,309.8773782274802,309.8773782274802,l,1,0.8739502456774062,310.7779148841255,310.7779148841255,310.7779148841255,,,,,,,,,,,,,,,,,,,,,,,,,,,,109,001,2023-03-01_15h15.58.186,eb_01,2022.2.4,99.92094801820251,
,,,1,0,1,0,45,0,45,0,,,,,,,,,,,,,,,,,,,,,,,,,,,,,,,,,,,,,,,,,,,,,,,,,,,,,,,,,,,109,001,2023-03-01_15h15.58.186,eb_01,2022.2.4,99.92094801820251,
3,stimuli/3.png,l,1,0,1,0,46,0,46,0,0,0,0,0,,,,,,,,,,,,,,,,,,311.7885221461802,311.7885221461802,311.7885221461802,311.7885221461802,l,1,0.6827871052555565,312.4886280044884,312.4886280044884,312.4886280044884,313.4995724314431,313.4995724314431,313.4995724314431,,,,,,,,,,,,,,,,,,,,,,,,,109,001,2023-03-01_15h15.58.186,eb_01,2022.2.4,99.92094801820251,
,,,1,0,1,0,46,0,46,0,,,,,,,,,,,,,,,,,,,,,,,,,,,,,,,,,,,,,,,,,,,,,,,,,,,,,,,,,,,109,001,2023-03-01_15h15.58.186,eb_01,2022.2.4,99.92094801820251,
2,stimuli/2.png,s,1,0,1,0,47,0,47,0,0,0,0,0,,,,,,,,,,,,,,,,,,313.4995724314431,313.4995724314431,313.4995724314431,313.4995724314431,s,1,0.7557620255611255,314.26967939753376,314.26967939753376,314.26967939753376,315.28064012431423,315.28064012431423,315.28064012431423,,,,,,,,,,,,,,,,,,,,,,,,,109,001,2023-03-01_15h15.58.186,eb_01,2022.2.4,99.92094801820251,
,,,1,0,1,0,47,0,47,0,,,,,,,,,,,,,,,,,,,,,,,,,,,,,,,,,,,,,,,,,,,,,,,,,,,,,,,,,,,109,001,2023-03-01_15h15.58.186,eb_01,2022.2.4,99.92094801820251,
3,stimuli/3.png,l,1,0,1,0,48,0,48,0,0,0,0,0,,,,,,,,,,,,,,,,,,315.28064012431423,315.28064012431423,315.28064012431423,315.28064012431423,l,1,0.662722624358139,315.9607349289254,315.9607349289254,315.9607349289254,316.97136875365686,316.97136875365686,316.97136875365686,,,,,,,,,,,,,,,,,,,,,,,,,109,001,2023-03-01_15h15.58.186,eb_01,2022.2.4,99.92094801820251,
,,,1,0,1,0,48,0,48,0,,,,,,,,,,,,,,,,,,,,,,,,,,,,,,,,,,,,,,,,,,,,,,,,,,,,,,,,,,,109,001,2023-03-01_15h15.58.186,eb_01,2022.2.4,99.92094801820251,
8,stimuli/8.png,l,1,0,1,0,49,0,49,0,0,0,0,0,,,,,,,,,,,,,,,,,,316.97136875365686,316.97136875365686,316.97136875365686,316.97136875365686,l,1,0.6440083122943179,317.6420993087959,317.6420993087959,317.6420993087959,,,,,,,,,,,,,,,,,,,,,,,,,,,,109,001,2023-03-01_15h15.58.186,eb_01,2022.2.4,99.92094801820251,
,,,1,0,1,0,49,0,49,0,,,,,,,,,,,,,,,,,,,,,,,,,,,,,,,,,,,,,,,,,,,,,,,,,,,,,,,,,,,109,001,2023-03-01_15h15.58.186,eb_01,2022.2.4,99.92094801820251,
6,stimuli/6.png,s,1,0,1,0,50,0,50,0,0,0,0,0,,,,,,,,,,,,,,,,,,318.66240798522267,318.66240798522267,318.66240798522267,318.66240798522267,s,1,0.7930158793387818,319.4931524133244,319.4931524133244,319.4931524133244,,,,,,,,,,,,,,,,,,,,,,,,,,,,109,001,2023-03-01_15h15.58.186,eb_01,2022.2.4,99.92094801820251,
,,,1,0,1,0,50,0,50,0,,,,,,,,,,,,,,,,,,,,,,,,,,,,,,,,,,,,,,,,,,,,,,,,,,,,,,,,,,,109,001,2023-03-01_15h15.58.186,eb_01,2022.2.4,99.92094801820251,
8,stimuli/8.png,l,1,0,1,0,51,0,51,0,0,0,0,0,,,,,,,,,,,,,,,,,,320.49381798951435,320.49381798951435,320.49381798951435,320.49381798951435,l,1,0.7456591525369731,321.2642763073891,321.2642763073891,321.2642763073891,,,,,,,,,,,,,,,,,,,,,,,,,,,,109,001,2023-03-01_15h15.58.186,eb_01,2022.2.4,99.92094801820251,
,,,1,0,1,0,51,0,51,0,,,,,,,,,,,,,,,,,,,,,,,,,,,,,,,,,,,,,,,,,,,,,,,,,,,,,,,,,,,109,001,2023-03-01_15h15.58.186,eb_01,2022.2.4,99.92094801820251,
6,stimuli/6.png,s,1,0,1,0,52,0,52,0,0,0,0,0,,,,,,,,,,,,,,,,,,322.2849408633301,322.2849408633301,322.2849408633301,322.2849408633301,s,1,0.6905316350821522,323.0053288353847,323.0053288353847,323.0053288353847,,,,,,,,,,,,,,,,,,,,,,,,,,,,109,001,2023-03-01_15h15.58.186,eb_01,2022.2.4,99.92094801820251,
,,,1,0,1,0,52,0,52,0,,,,,,,,,,,,,,,,,,,,,,,,,,,,,,,,,,,,,,,,,,,,,,,,,,,,,,,,,,,109,001,2023-03-01_15h15.58.186,eb_01,2022.2.4,99.92094801820251,
5,stimuli/5.png,s,1,0,1,0,53,0,53,0,0,0,0,0,,,,,,,,,,,,,,,,,,324.0059231753039,324.0059231753039,324.0059231753039,324.0059231753039,s,1,0.8816223318353877,324.9164920723997,324.9164920723997,324.9164920723997,,,,,,,,,,,,,,,,,,,,,,,,,,,,109,001,2023-03-01_15h15.58.186,eb_01,2022.2.4,99.92094801820251,
,,,1,0,1,0,53,0,53,0,,,,,,,,,,,,,,,,,,,,,,,,,,,,,,,,,,,,,,,,,,,,,,,,,,,,,,,,,,,109,001,2023-03-01_15h15.58.186,eb_01,2022.2.4,99.92094801820251,
9,stimuli/9.png,l,1,0,1,0,54,0,54,0,0,0,0,0,,,,,,,,,,,,,,,,,,325.9370977678591,325.9370977678591,325.9370977678591,325.9370977678591,l,1,0.7105025429118541,326.66723212973375,326.66723212973375,326.66723212973375,,,,,,,,,,,,,,,,,,,,,,,,,,,,109,001,2023-03-01_15h15.58.186,eb_01,2022.2.4,99.92094801820251,
,,,1,0,1,0,54,0,54,0,,,,,,,,,,,,,,,,,,,,,,,,,,,,,,,,,,,,,,,,,,,,,,,,,,,,,,,,,,,109,001,2023-03-01_15h15.58.186,eb_01,2022.2.4,99.92094801820251,
6,stimuli/6.png,s,1,0,1,0,55,0,55,0,0,0,0,0,,,,,,,,,,,,,,,,,,327.68815174774863,327.68815174774863,327.68815174774863,327.68815174774863,s,1,0.7824089191308303,328.50866743195365,328.50866743195365,328.50866743195365,,,,,,,,,,,,,,,,,,,,,,,,,,,,109,001,2023-03-01_15h15.58.186,eb_01,2022.2.4,99.92094801820251,
,,,1,0,1,0,55,0,55,0,,,,,,,,,,,,,,,,,,,,,,,,,,,,,,,,,,,,,,,,,,,,,,,,,,,,,,,,,,,109,001,2023-03-01_15h15.58.186,eb_01,2022.2.4,99.92094801820251,
8,stimuli/8.png,l,1,0,1,0,56,0,56,0,0,0,0,0,,,,,,,,,,,,,,,,,,329.5089523770439,329.5089523770439,329.5089523770439,329.5089523770439,l,1,0.6496782366120897,330.179653954714,330.179653954714,330.179653954714,,,,,,,,,,,,,,,,,,,,,,,,,,,,109,001,2023-03-01_15h15.58.186,eb_01,2022.2.4,99.92094801820251,
,,,1,0,1,0,56,0,56,0,,,,,,,,,,,,,,,,,,,,,,,,,,,,,,,,,,,,,,,,,,,,,,,,,,,,,,,,,,,109,001,2023-03-01_15h15.58.186,eb_01,2022.2.4,99.92094801820251,
9,stimuli/9.png,l,1,0,1,0,57,0,57,0,0,0,0,0,,,,,,,,,,,,,,,,,,331.20030673855945,331.20030673855945,331.20030673855945,331.20030673855945,l,1,0.6063529998682498,331.83036832473226,331.83036832473226,331.83036832473226,,,,,,,,,,,,,,,,,,,,,,,,,,,,109,001,2023-03-01_15h15.58.186,eb_01,2022.2.4,99.92094801820251,
,,,1,0,1,0,57,0,57,0,,,,,,,,,,,,,,,,,,,,,,,,,,,,,,,,,,,,,,,,,,,,,,,,,,,,,,,,,,,109,001,2023-03-01_15h15.58.186,eb_01,2022.2.4,99.92094801820251,
6,stimuli/6.png,s,1,0,1,0,58,0,58,0,0,0,0,0,,,,,,,,,,,,,,,,,,332.8513075629089,332.8513075629089,332.8513075629089,332.8513075629089,s,1,0.763340840494493,333.6517937806493,333.6517937806493,333.6517937806493,,,,,,,,,,,,,,,,,,,,,,,,,,,,109,001,2023-03-01_15h15.58.186,eb_01,2022.2.4,99.92094801820251,
,,,1,0,1,0,58,0,58,0,,,,,,,,,,,,,,,,,,,,,,,,,,,,,,,,,,,,,,,,,,,,,,,,,,,,,,,,,,,109,001,2023-03-01_15h15.58.186,eb_01,2022.2.4,99.92094801820251,
8,stimuli/8.png,l,1,0,1,0,59,0,59,0,0,0,0,0,,,,,,,,,,,,,,,,,,334.6524071370295,334.6524071370295,334.6524071370295,334.6524071370295,l,1,0.6982991053992009,335.372832840163,335.372832840163,335.372832840163,,,,,,,,,,,,,,,,,,,,,,,,,,,,109,001,2023-03-01_15h15.58.186,eb_01,2022.2.4,99.92094801820251,
,,,1,0,1,0,59,0,59,0,,,,,,,,,,,,,,,,,,,,,,,,,,,,,,,,,,,,,,,,,,,,,,,,,,,,,,,,,,,109,001,2023-03-01_15h15.58.186,eb_01,2022.2.4,99.92094801820251,
6,stimuli/6.png,s,1,0,1,0,60,0,60,0,0,0,0,0,,,,,,,,,,,,,,,,,,336.3933923527875,336.3933923527875,336.3933923527875,336.3933923527875,s,1,0.8453455620110617,337.2739879846158,337.2739879846158,337.2739879846158,,,,,,,,,,,,,,,,,,,,,,,,,,,,109,001,2023-03-01_15h15.58.186,eb_01,2022.2.4,99.92094801820251,
,,,1,0,1,0,60,0,60,0,,,,,,,,,,,,,,,,,,,,,,,,,,,,,,,,,,,,,,,,,,,,,,,,,,,,,,,,,,,109,001,2023-03-01_15h15.58.186,eb_01,2022.2.4,99.92094801820251,
9,stimuli/9.png,l,1,0,1,0,61,0,61,0,0,0,0,0,,,,,,,,,,,,,,,,,,338.28460067994456,338.28460067994456,338.28460067994456,338.28460067994456,l,1,0.6981681031029439,339.00472362892106,339.00472362892106,339.00472362892106,,,,,,,,,,,,,,,,,,,,,,,,,,,,109,001,2023-03-01_15h15.58.186,eb_01,2022.2.4,99.92094801820251,
,,,1,0,1,0,61,0,61,0,,,,,,,,,,,,,,,,,,,,,,,,,,,,,,,,,,,,,,,,,,,,,,,,,,,,,,,,,,,109,001,2023-03-01_15h15.58.186,eb_01,2022.2.4,99.92094801820251,
8,stimuli/8.png,l,1,0,1,0,62,0,62,0,0,0,0,0,,,,,,,,,,,,,,,,,,340.0153266650959,340.0153266650959,340.0153266650959,340.0153266650959,l,1,0.7834566356614232,340.8260953557874,340.8260953557874,340.8260953557874,,,,,,,,,,,,,,,,,,,,,,,,,,,,109,001,2023-03-01_15h15.58.186,eb_01,2022.2.4,99.92094801820251,
,,,1,0,1,0,62,0,62,0,,,,,,,,,,,,,,,,,,,,,,,,,,,,,,,,,,,,,,,,,,,,,,,,,,,,,,,,,,,109,001,2023-03-01_15h15.58.186,eb_01,2022.2.4,99.92094801820251,
3,stimuli/3.png,l,1,0,1,0,63,0,63,0,0,0,0,0,,,,,,,,,,,,,,,,,,341.8367786836934,341.8367786836934,341.8367786836934,341.8367786836934,l,1,0.5700514784548432,342.4168112773041,342.4168112773041,342.4168112773041,343.42740344693084,343.42740344693084,343.42740344693084,,,,,,,,,,,,,,,,,,,,,,,,,109,001,2023-03-01_15h15.58.186,eb_01,2022.2.4,99.92094801820251,
,,,1,0,1,0,63,0,63,0,,,,,,,,,,,,,,,,,,,,,,,,,,,,,,,,,,,,,,,,,,,,,,,,,,,,,,,,,,,109,001,2023-03-01_15h15.58.186,eb_01,2022.2.4,99.92094801820251,
4,stimuli/4.png,l,1,0,1,0,64,0,64,0,0,0,0,0,,,,,,,,,,,,,,,,,,343.42740344693084,343.42740344693084,343.42740344693084,343.42740344693084,l,1,0.8184285139359417,344.26825497393656,344.26825497393656,344.26825497393656,,,,,,,,,,,,,,,,,,,,,,,,,,,,109,001,2023-03-01_15h15.58.186,eb_01,2022.2.4,99.92094801820251,
,,,1,0,1,0,64,0,64,0,,,,,,,,,,,,,,,,,,,,,,,,,,,,,,,,,,,,,,,,,,,,,,,,,,,,,,,,,,,109,001,2023-03-01_15h15.58.186,eb_01,2022.2.4,99.92094801820251,
3,stimuli/3.png,l,1,0,1,0,65,0,65,0,0,0,0,0,,,,,,,,,,,,,,,,,,345.27884171028563,345.27884171028563,345.27884171028563,345.27884171028563,l,1,0.527027788473788,345.81885521499134,345.81885521499134,345.81885521499134,346.8294510068008,346.8294510068008,346.8294510068008,,,,,,,,,,,,,,,,,,,,,,,,,109,001,2023-03-01_15h15.58.186,eb_01,2022.2.4,99.92094801820251,
,,,1,0,1,0,65,0,65,0,,,,,,,,,,,,,,,,,,,,,,,,,,,,,,,,,,,,,,,,,,,,,,,,,,,,,,,,,,,109,001,2023-03-01_15h15.58.186,eb_01,2022.2.4,99.92094801820251,
4,stimuli/4.png,l,1,0,1,0,66,0,66,0,0,0,0,0,,,,,,,,,,,,,,,,,,346.8294510068008,346.8294510068008,346.8294510068008,346.8294510068008,l,1,0.5524534025607863,347.41013710265906,347.41013710265906,347.41013710265906,,,,,,,,,,,,,,,,,,,,,,,,,,,,109,001,2023-03-01_15h15.58.186,eb_01,2022.2.4,99.92094801820251,
,,,1,0,1,0,66,0,66,0,,,,,,,,,,,,,,,,,,,,,,,,,,,,,,,,,,,,,,,,,,,,,,,,,,,,,,,,,,,109,001,2023-03-01_15h15.58.186,eb_01,2022.2.4,99.92094801820251,
1,stimuli/1.png,s,1,0,1,0,67,0,67,0,0,0,0,0,,,,,,,,,,,,,,,,,,348.4307603053385,348.4307603053385,348.4307603053385,348.4307603053385,s,1,0.8471871403926343,349.3112880212284,349.3112880212284,349.3112880212284,,,,,,,,,,,,,,,,,,,,,,,,,,,,109,001,2023-03-01_15h15.58.186,eb_01,2022.2.4,99.92094801820251,
,,,1,0,1,0,67,0,67,0,,,,,,,,,,,,,,,,,,,,,,,,,,,,,,,,,,,,,,,,,,,,,,,,,,,,,,,,,,,109,001,2023-03-01_15h15.58.186,eb_01,2022.2.4,99.92094801820251,
2,stimuli/2.png,s,1,0,1,0,68,0,68,0,0,0,0,0,,,,,,,,,,,,,,,,,,350.31189866096975,350.31189866096975,350.31189866096975,350.31189866096975,s,1,0.6860962715836649,351.0120027081866,351.0120027081866,351.0120027081866,352.0229145354897,352.0229145354897,352.0229145354897,,,,,,,,,,,,,,,,,,,,,,,,,109,001,2023-03-01_15h15.58.186,eb_01,2022.2.4,99.92094801820251,
,,,1,0,1,0,68,0,68,0,,,,,,,,,,,,,,,,,,,,,,,,,,,,,,,,,,,,,,,,,,,,,,,,,,,,,,,,,,,109,001,2023-03-01_15h15.58.186,eb_01,2022.2.4,99.92094801820251,
3,stimuli/3.png,l,1,0,1,0,69,0,69,0,0,0,0,0,,,,,,,,,,,,,,,,,,352.0229145354897,352.0229145354897,352.0229145354897,352.0229145354897,l,1,0.6310988508812443,352.67302339719026,352.67302339719026,352.67302339719026,353.6836031910243,353.6836031910243,353.6836031910243,,,,,,,,,,,,,,,,,,,,,,,,,109,001,2023-03-01_15h15.58.186,eb_01,2022.2.4,99.92094801820251,
,,,1,0,1,0,69,0,69,0,,,,,,,,,,,,,,,,,,,,,,,,,,,,,,,,,,,,,,,,,,,,,,,,,,,,,,,,,,,109,001,2023-03-01_15h15.58.186,eb_01,2022.2.4,99.92094801820251,
4,stimuli/4.png,l,1,0,1,0,70,0,70,0,0,0,0,0,,,,,,,,,,,,,,,,,,353.6836031910243,353.6836031910243,353.6836031910243,353.6836031910243,l,1,0.8024308393796673,354.5144547753807,354.5144547753807,354.5144547753807,,,,,,,,,,,,,,,,,,,,,,,,,,,,109,001,2023-03-01_15h15.58.186,eb_01,2022.2.4,99.92094801820251,
,,,1,0,1,0,70,0,70,0,,,,,,,,,,,,,,,,,,,,,,,,,,,,,,,,,,,,,,,,,,,,,,,,,,,,,,,,,,,109,001,2023-03-01_15h15.58.186,eb_01,2022.2.4,99.92094801820251,
1,stimuli/1.png,s,1,0,1,0,71,0,71,0,0,0,0,0,,,,,,,,,,,,,,,,,,355.53507797806014,355.53507797806014,355.53507797806014,355.53507797806014,s,1,0.718990224017034,356.28550290544445,356.28550290544445,356.28550290544445,,,,,,,,,,,,,,,,,,,,,,,,,,,,109,001,2023-03-01_15h15.58.186,eb_01,2022.2.4,99.92094801820251,
,,,1,0,1,0,71,0,71,0,,,,,,,,,,,,,,,,,,,,,,,,,,,,,,,,,,,,,,,,,,,,,,,,,,,,,,,,,,,109,001,2023-03-01_15h15.58.186,eb_01,2022.2.4,99.92094801820251,
2,stimuli/2.png,s,1,0,1,0,72,0,72,0,0,0,0,0,,,,,,,,,,,,,,,,,,357.2860957361154,357.2860957361154,357.2860957361154,357.2860957361154,s,1,0.8150743721671461,358.1163212864558,358.1163212864558,358.1163212864558,359.1272491117343,359.1272491117343,359.1272491117343,,,,,,,,,,,,,,,,,,,,,,,,,109,001,2023-03-01_15h15.58.186,eb_01,2022.2.4,99.92094801820251,
,,,1,0,1,0,72,0,72,0,,,,,,,,,,,,,,,,,,,,,,,,,,,,,,,,,,,,,,,,,,,,,,,,,,,,,,,,,,,109,001,2023-03-01_15h15.58.186,eb_01,2022.2.4,99.92094801820251,
3,stimuli/3.png,l,1,0,1,0,73,0,73,0,0,0,0,0,,,,,,,,,,,,,,,,,,359.1272491117343,359.1272491117343,359.1272491117343,359.1272491117343,l,1,0.8058740264859807,359.94739865357406,359.94739865357406,359.94739865357406,360.9580321764588,360.9580321764588,360.9580321764588,,,,,,,,,,,,,,,,,,,,,,,,,109,001,2023-03-01_15h15.58.186,eb_01,2022.2.4,99.92094801820251,
,,,1,0,1,0,73,0,73,0,,,,,,,,,,,,,,,,,,,,,,,,,,,,,,,,,,,,,,,,,,,,,,,,,,,,,,,,,,,109,001,2023-03-01_15h15.58.186,eb_01,2022.2.4,99.92094801820251,
4,stimuli/4.png,l,1,0,1,0,74,0,74,0,0,0,0,0,,,,,,,,,,,,,,,,,,360.9580321764588,360.9580321764588,360.9580321764588,360.9580321764588,l,1,0.5591025237736176,361.5387125371926,361.5387125371926,361.5387125371926,,,,,,,,,,,,,,,,,,,,,,,,,,,,109,001,2023-03-01_15h15.58.186,eb_01,2022.2.4,99.92094801820251,
,,,1,0,1,0,74,0,74,0,,,,,,,,,,,,,,,,,,,,,,,,,,,,,,,,,,,,,,,,,,,,,,,,,,,,,,,,,,,109,001,2023-03-01_15h15.58.186,eb_01,2022.2.4,99.92094801820251,
2,stimuli/2.png,s,1,0,1,0,75,0,75,0,0,0,0,0,,,,,,,,,,,,,,,,,,362.549302593874,362.549302593874,362.549302593874,362.549302593874,s,1,0.8399201350730436,363.3995132389282,363.3995132389282,363.3995132389282,364.4100984660363,364.4100984660363,364.4100984660363,,,,,,,,,,,,,,,,,,,,,,,,,109,001,2023-03-01_15h15.58.186,eb_01,2022.2.4,99.92094801820251,
,,,1,0,1,0,75,0,75,0,,,,,,,,,,,,,,,,,,,,,,,,,,,,,,,,,,,,,,,,,,,,,,,,,,,,,,,,,,,109,001,2023-03-01_15h15.58.186,eb_01,2022.2.4,99.92094801820251,
4,stimuli/4.png,l,1,0,1,0,76,0,76,0,0,0,0,0,,,,,,,,,,,,,,,,,,364.4100984660363,364.4100984660363,364.4100984660363,364.4100984660363,l,1,0.7231152871427184,365.16089949678644,365.16089949678644,365.16089949678644,,,,,,,,,,,,,,,,,,,,,,,,,,,,109,001,2023-03-01_15h15.58.186,eb_01,2022.2.4,99.92094801820251,
,,,1,0,1,0,76,0,76,0,,,,,,,,,,,,,,,,,,,,,,,,,,,,,,,,,,,,,,,,,,,,,,,,,,,,,,,,,,,109,001,2023-03-01_15h15.58.186,eb_01,2022.2.4,99.92094801820251,
2,stimuli/2.png,s,1,0,1,0,77,0,77,0,0,0,0,0,,,,,,,,,,,,,,,,,,366.1715284919446,366.1715284919446,366.1715284919446,366.1715284919446,s,1,0.8017172692598251,366.99166203580535,366.99166203580535,366.99166203580535,368.01265409748885,368.01265409748885,368.01265409748885,,,,,,,,,,,,,,,,,,,,,,,,,109,001,2023-03-01_15h15.58.186,eb_01,2022.2.4,99.92094801820251,
,,,1,0,1,0,77,0,77,0,,,,,,,,,,,,,,,,,,,,,,,,,,,,,,,,,,,,,,,,,,,,,,,,,,,,,,,,,,,109,001,2023-03-01_15h15.58.186,eb_01,2022.2.4,99.92094801820251,
4,stimuli/4.png,l,1,0,1,0,78,0,78,0,0,0,0,0,,,,,,,,,,,,,,,,,,368.01265409748885,368.01265409748885,368.01265409748885,368.01265409748885,l,1,0.624632649924024,368.6630276804244,368.6630276804244,368.6630276804244,,,,,,,,,,,,,,,,,,,,,,,,,,,,109,001,2023-03-01_15h15.58.186,eb_01,2022.2.4,99.92094801820251,
,,,1,0,1,0,78,0,78,0,,,,,,,,,,,,,,,,,,,,,,,,,,,,,,,,,,,,,,,,,,,,,,,,,,,,,,,,,,,109,001,2023-03-01_15h15.58.186,eb_01,2022.2.4,99.92094801820251,
2,stimuli/2.png,s,1,0,1,0,79,0,79,0,0,0,0,0,,,,,,,,,,,,,,,,,,369.67364429978625,369.67364429978625,369.67364429978625,369.67364429978625,s,1,0.6996731202780211,370.383749497043,370.383749497043,370.383749497043,371.39468758517614,371.39468758517614,371.39468758517614,,,,,,,,,,,,,,,,,,,,,,,,,109,001,2023-03-01_15h15.58.186,eb_01,2022.2.4,99.92094801820251,
,,,1,0,1,0,79,0,79,0,,,,,,,,,,,,,,,,,,,,,,,,,,,,,,,,,,,,,,,,,,,,,,,,,,,,,,,,,,,109,001,2023-03-01_15h15.58.186,eb_01,2022.2.4,99.92094801820251,
3,stimuli/3.png,l,1,0,1,0,80,0,80,0,0,0,0,0,,,,,,,,,,,,,,,,,,371.39468758517614,371.39468758517614,371.39468758517614,371.39468758517614,l,1,0.6506909387026099,372.06474230127424,372.06474230127424,372.06474230127424,373.0753824648309,373.0753824648309,373.0753824648309,,,,,,,,,,,,,,,,,,,,,,,,,109,001,2023-03-01_15h15.58.186,eb_01,2022.2.4,99.92094801820251,
,,,1,0,1,0,80,0,80,0,,,,,,,,,,,,,,,,,,,,,,,,,,,,,,,,,,,,,,,,,,,,,,,,,,,,,,,,,,,109,001,2023-03-01_15h15.58.186,eb_01,2022.2.4,99.92094801820251,
8,stimuli/8.png,l,1,0,1,0,81,0,81,0,0,0,0,0,,,,,,,,,,,,,,,,,,373.0753824648309,373.0753824648309,373.0753824648309,373.0753824648309,l,1,0.537984591217537,373.6360387923778,373.6360387923778,373.6360387923778,,,,,,,,,,,,,,,,,,,,,,,,,,,,109,001,2023-03-01_15h15.58.186,eb_01,2022.2.4,99.92094801820251,
,,,1,0,1,0,81,0,81,0,,,,,,,,,,,,,,,,,,,,,,,,,,,,,,,,,,,,,,,,,,,,,,,,,,,,,,,,,,,109,001,2023-03-01_15h15.58.186,eb_01,2022.2.4,99.92094801820251,
9,stimuli/9.png,l,1,0,1,0,82,0,82,0,0,0,0,0,,,,,,,,,,,,,,,,,,374.65666682463416,374.65666682463416,374.65666682463416,374.65666682463416,l,1,0.5317568506688986,375.2166506334761,375.2166506334761,375.2166506334761,,,,,,,,,,,,,,,,,,,,,,,,,,,,109,001,2023-03-01_15h15.58.186,eb_01,2022.2.4,99.92094801820251,
,,,1,0,1,0,82,0,82,0,,,,,,,,,,,,,,,,,,,,,,,,,,,,,,,,,,,,,,,,,,,,,,,,,,,,,,,,,,,109,001,2023-03-01_15h15.58.186,eb_01,2022.2.4,99.92094801820251,
5,stimuli/5.png,s,1,0,1,0,83,0,83,0,0,0,0,0,,,,,,,,,,,,,,,,,,376.2176114176036,376.2176114176036,376.2176114176036,376.2176114176036,s,1,0.7388123204837029,376.9780688872852,376.9780688872852,376.9780688872852,,,,,,,,,,,,,,,,,,,,,,,,,,,,109,001,2023-03-01_15h15.58.186,eb_01,2022.2.4,99.92094801820251,
,,,1,0,1,0,83,0,83,0,,,,,,,,,,,,,,,,,,,,,,,,,,,,,,,,,,,,,,,,,,,,,,,,,,,,,,,,,,,109,001,2023-03-01_15h15.58.186,eb_01,2022.2.4,99.92094801820251,
6,stimuli/6.png,s,1,0,1,0,84,0,84,0,0,0,0,0,,,,,,,,,,,,,,,,,,377.9983842043839,377.9983842043839,377.9983842043839,377.9983842043839,s,1,0.8540599314255815,378.88923423723827,378.88923423723827,378.88923423723827,,,,,,,,,,,,,,,,,,,,,,,,,,,,109,001,2023-03-01_15h15.58.186,eb_01,2022.2.4,99.92094801820251,
,,,1,0,1,0,84,0,84,0,,,,,,,,,,,,,,,,,,,,,,,,,,,,,,,,,,,,,,,,,,,,,,,,,,,,,,,,,,,109,001,2023-03-01_15h15.58.186,eb_01,2022.2.4,99.92094801820251,
8,stimuli/8.png,l,1,0,1,0,85,0,85,0,0,0,0,0,,,,,,,,,,,,,,,,,,379.8898309919423,379.8898309919423,379.8898309919423,379.8898309919423,l,1,0.762657455241424,380.6802656509244,380.6802656509244,380.6802656509244,,,,,,,,,,,,,,,,,,,,,,,,,,,,109,001,2023-03-01_15h15.58.186,eb_01,2022.2.4,99.92094801820251,
,,,1,0,1,0,85,0,85,0,,,,,,,,,,,,,,,,,,,,,,,,,,,,,,,,,,,,,,,,,,,,,,,,,,,,,,,,,,,109,001,2023-03-01_15h15.58.186,eb_01,2022.2.4,99.92094801820251,
3,stimuli/3.png,l,1,0,1,0,86,0,86,0,0,0,0,0,,,,,,,,,,,,,,,,,,381.69097010823316,381.69097010823316,381.69097010823316,381.69097010823316,l,1,0.6496015670636552,382.3509796043909,382.3509796043909,382.3509796043909,383.36197776039626,383.36197776039626,383.36197776039626,,,,,,,,,,,,,,,,,,,,,,,,,109,001,2023-03-01_15h15.58.186,eb_01,2022.2.4,99.92094801820251,
,,,1,0,1,0,86,0,86,0,,,,,,,,,,,,,,,,,,,,,,,,,,,,,,,,,,,,,,,,,,,,,,,,,,,,,,,,,,,109,001,2023-03-01_15h15.58.186,eb_01,2022.2.4,99.92094801820251,
2,stimuli/2.png,s,1,0,1,0,87,0,87,0,0,0,0,0,,,,,,,,,,,,,,,,,,383.36197776039626,383.36197776039626,383.36197776039626,383.36197776039626,s,1,0.8105858833150705,384.18211673753467,384.18211673753467,384.18211673753467,385.20305869235017,385.20305869235017,385.20305869235017,,,,,,,,,,,,,,,,,,,,,,,,,109,001,2023-03-01_15h15.58.186,eb_01,2022.2.4,99.92094801820251,
,,,1,0,1,0,87,0,87,0,,,,,,,,,,,,,,,,,,,,,,,,,,,,,,,,,,,,,,,,,,,,,,,,,,,,,,,,,,,109,001,2023-03-01_15h15.58.186,eb_01,2022.2.4,99.92094801820251,
1,stimuli/1.png,s,1,0,1,0,88,0,88,0,0,0,0,0,,,,,,,,,,,,,,,,,,385.20305869235017,385.20305869235017,385.20305869235017,385.20305869235017,s,1,0.7695263222412905,386.0035654357998,386.0035654357998,386.0035654357998,,,,,,,,,,,,,,,,,,,,,,,,,,,,109,001,2023-03-01_15h15.58.186,eb_01,2022.2.4,99.92094801820251,
,,,1,0,1,0,88,0,88,0,,,,,,,,,,,,,,,,,,,,,,,,,,,,,,,,,,,,,,,,,,,,,,,,,,,,,,,,,,,109,001,2023-03-01_15h15.58.186,eb_01,2022.2.4,99.92094801820251,
4,stimuli/4.png,l,1,0,1,0,89,0,89,0,0,0,0,0,,,,,,,,,,,,,,,,,,387.0038349866081,387.0038349866081,387.0038349866081,387.0038349866081,s,0,0.8248023492124048,387.8546641194662,387.8546641194662,387.8546641194662,,,,,,,,,,,,,,,,,,,,,,,,,,,,109,001,2023-03-01_15h15.58.186,eb_01,2022.2.4,99.92094801820251,
,,,1,0,1,0,89,0,89,0,,,,,,,,,,,,,,,,,,,,,,,,,,,,,,,,,,,,,,,,,,,,,,,,,,,,,,,,,,,109,001,2023-03-01_15h15.58.186,eb_01,2022.2.4,99.92094801820251,
1,stimuli/1.png,s,1,0,1,0,90,0,90,0,0,0,0,0,,,,,,,,,,,,,,,,,,388.8752924535729,388.8752924535729,388.8752924535729,388.8752924535729,s,1,0.8803464177544811,389.7858381083279,389.7858381083279,389.7858381083279,,,,,,,,,,,,,,,,,,,,,,,,,,,,109,001,2023-03-01_15h15.58.186,eb_01,2022.2.4,99.92094801820251,
,,,1,0,1,0,90,0,90,0,,,,,,,,,,,,,,,,,,,,,,,,,,,,,,,,,,,,,,,,,,,,,,,,,,,,,,,,,,,109,001,2023-03-01_15h15.58.186,eb_01,2022.2.4,99.92094801820251,
2,stimuli/2.png,s,1,0,1,0,91,0,91,0,0,0,0,0,,,,,,,,,,,,,,,,,,390.78644572958,390.78644572958,390.78644572958,390.78644572958,s,1,1.5692524851838243,392.3670660224416,392.3670660224416,392.3670660224416,393.3777245987585,393.3777245987585,393.3777245987585,,,,,,,,,,,,,,,,,,,,,,,,,109,001,2023-03-01_15h15.58.186,eb_01,2022.2.4,99.92094801820251,
,,,1,0,1,0,91,0,91,0,,,,,,,,,,,,,,,,,,,,,,,,,,,,,,,,,,,,,,,,,,,,,,,,,,,,,,,,,,,109,001,2023-03-01_15h15.58.186,eb_01,2022.2.4,99.92094801820251,
4,stimuli/4.png,l,1,0,1,0,92,0,92,0,0,0,0,0,,,,,,,,,,,,,,,,,,393.3777245987585,393.3777245987585,393.3777245987585,393.3777245987585,l,1,0.7620136121549876,394.1684912912133,394.1684912912133,394.1684912912133,,,,,,,,,,,,,,,,,,,,,,,,,,,,109,001,2023-03-01_15h15.58.186,eb_01,2022.2.4,99.92094801820251,
,,,1,0,1,0,92,0,92,0,,,,,,,,,,,,,,,,,,,,,,,,,,,,,,,,,,,,,,,,,,,,,,,,,,,,,,,,,,,109,001,2023-03-01_15h15.58.186,eb_01,2022.2.4,99.92094801820251,
2,stimuli/2.png,s,1,0,1,0,93,0,93,0,0,0,0,0,,,,,,,,,,,,,,,,,,395.1791205882182,395.1791205882182,395.1791205882182,395.1791205882182,s,1,0.9206570924179687,396.10935009277455,396.10935009277455,396.10935009277455,397.11996550474214,397.11996550474214,397.11996550474214,,,,,,,,,,,,,,,,,,,,,,,,,109,001,2023-03-01_15h15.58.186,eb_01,2022.2.4,99.92094801820251,
,,,1,0,1,0,93,0,93,0,,,,,,,,,,,,,,,,,,,,,,,,,,,,,,,,,,,,,,,,,,,,,,,,,,,,,,,,,,,109,001,2023-03-01_15h15.58.186,eb_01,2022.2.4,99.92094801820251,
4,stimuli/4.png,l,1,0,1,0,94,0,94,0,0,0,0,0,,,,,,,,,,,,,,,,,,397.11996550474214,397.11996550474214,397.11996550474214,397.11996550474214,l,1,0.7078459732802003,397.85074703003556,397.85074703003556,397.85074703003556,,,,,,,,,,,,,,,,,,,,,,,,,,,,109,001,2023-03-01_15h15.58.186,eb_01,2022.2.4,99.92094801820251,
,,,1,0,1,0,94,0,94,0,,,,,,,,,,,,,,,,,,,,,,,,,,,,,,,,,,,,,,,,,,,,,,,,,,,,,,,,,,,109,001,2023-03-01_15h15.58.186,eb_01,2022.2.4,99.92094801820251,
3,stimuli/3.png,l,1,0,1,0,95,0,95,0,0,0,0,0,,,,,,,,,,,,,,,,,,398.8613407089033,398.8613407089033,398.8613407089033,398.8613407089033,l,1,0.6544568019780854,399.53139361391004,399.53139361391004,399.53139361391004,400.55240197541934,400.55240197541934,400.55240197541934,,,,,,,,,,,,,,,,,,,,,,,,,109,001,2023-03-01_15h15.58.186,eb_01,2022.2.4,99.92094801820251,
,,,1,0,1,0,95,0,95,0,,,,,,,,,,,,,,,,,,,,,,,,,,,,,,,,,,,,,,,,,,,,,,,,,,,,,,,,,,,109,001,2023-03-01_15h15.58.186,eb_01,2022.2.4,99.92094801820251,
4,stimuli/4.png,l,1,0,1,0,96,0,96,0,0,0,0,0,,,,,,,,,,,,,,,,,,400.55240197541934,400.55240197541934,400.55240197541934,400.55240197541934,l,1,0.6674248220260779,401.2427892139822,401.2427892139822,401.2427892139822,,,,,,,,,,,,,,,,,,,,,,,,,,,,109,001,2023-03-01_15h15.58.186,eb_01,2022.2.4,99.92094801820251,
,,,1,0,1,0,96,0,96,0,,,,,,,,,,,,,,,,,,,,,,,,,,,,,,,,,,,,,,,,,,,,,,,,,,,,,,,,,,,109,001,2023-03-01_15h15.58.186,eb_01,2022.2.4,99.92094801820251,
3,stimuli/3.png,l,1,0,1,0,97,0,97,0,0,0,0,0,,,,,,,,,,,,,,,,,,402.2534139832569,402.2534139832569,402.2534139832569,402.2534139832569,l,1,1.0064744637456897,403.27367738239263,403.27367738239263,403.27367738239263,404.2845901152432,404.2845901152432,404.2845901152432,,,,,,,,,,,,,,,,,,,,,,,,,109,001,2023-03-01_15h15.58.186,eb_01,2022.2.4,99.92094801820251,
,,,1,0,1,0,97,0,97,0,,,,,,,,,,,,,,,,,,,,,,,,,,,,,,,,,,,,,,,,,,,,,,,,,,,,,,,,,,,109,001,2023-03-01_15h15.58.186,eb_01,2022.2.4,99.92094801820251,
8,stimuli/8.png,l,1,0,1,0,98,0,98,0,0,0,0,0,,,,,,,,,,,,,,,,,,404.2845901152432,404.2845901152432,404.2845901152432,404.2845901152432,l,1,0.6303538885040325,404.9350458009976,404.9350458009976,404.9350458009976,,,,,,,,,,,,,,,,,,,,,,,,,,,,109,001,2023-03-01_15h15.58.186,eb_01,2022.2.4,99.92094801820251,
,,,1,0,1,0,98,0,98,0,,,,,,,,,,,,,,,,,,,,,,,,,,,,,,,,,,,,,,,,,,,,,,,,,,,,,,,,,,,109,001,2023-03-01_15h15.58.186,eb_01,2022.2.4,99.92094801820251,
3,stimuli/3.png,l,1,0,1,0,99,0,99,0,0,0,0,0,,,,,,,,,,,,,,,,,,405.9456298207115,405.9456298207115,405.9456298207115,405.9456298207115,l,1,0.5373208261225955,406.4956514179794,406.4956514179794,406.4956514179794,407.4965741691849,407.4965741691849,407.4965741691849,,,,,,,,,,,,,,,,,,,,,,,,,109,001,2023-03-01_15h15.58.186,eb_01,2022.2.4,99.92094801820251,
,,,1,0,1,0,99,0,99,0,,,,,,,,,,,,,,,,,,,,,,,,,,,,,,,,,,,,,,,,,,,,,,,,,,,,,,,,,,,109,001,2023-03-01_15h15.58.186,eb_01,2022.2.4,99.92094801820251,
,,,1,0,1,0,,,,,,,,,,,,,,,,,,,,,,,,,,,,,,,,,,,,,,,407.4965741691849,407.4965741691849,return,24.62583310185437,,,,,,,,,,,,,,,,,,,,,109,001,2023-03-01_15h15.58.186,eb_01,2022.2.4,99.92094801820251,
2,stimuli/2.png,s,2,0,2,0,0,0,0,0,0,0,0,0,,,,,,,,,,,,,,,,,,432.1515126086706,432.1515126086706,432.1515126086706,432.1515126086706,s,1,2.2589092501075356,434.422542476892,434.422542476892,434.422542476892,435.4335182961004,435.4335182961004,435.4335182961004,,,,,,,,,,,,,,,,,,,,,,,,,109,001,2023-03-01_15h15.58.186,eb_01,2022.2.4,99.92094801820251,
,,,2,0,2,0,0,0,0,0,,,,,,,,,,,,,,,,,,,,,,,,,,,,,,,,,,,,,,,,,,,,,,,,,,,,,,,,,,,109,001,2023-03-01_15h15.58.186,eb_01,2022.2.4,99.92094801820251,
3,stimuli/3.png,l,2,0,2,0,1,0,1,0,0,0,0,0,,,,,,,,,,,,,,,,,,435.4335182961004,435.4335182961004,435.4335182961004,435.4335182961004,l,1,0.8000103153644886,436.2436491806766,436.2436491806766,436.2436491806766,437.25462439618786,437.25462439618786,437.25462439618786,,,,,,,,,,,,,,,,,,,,,,,,,109,001,2023-03-01_15h15.58.186,eb_01,2022.2.4,99.92094801820251,
,,,2,0,2,0,1,0,1,0,,,,,,,,,,,,,,,,,,,,,,,,,,,,,,,,,,,,,,,,,,,,,,,,,,,,,,,,,,,109,001,2023-03-01_15h15.58.186,eb_01,2022.2.4,99.92094801820251,
8,stimuli/8.png,l,2,0,2,0,2,0,2,0,0,0,0,0,,,,,,,,,,,,,,,,,,437.25462439618786,437.25462439618786,437.25462439618786,437.25462439618786,l,1,0.7548706666093494,438.0351137471225,438.0351137471225,438.0351137471225,,,,,,,,,,,,,,,,,,,,,,,,,,,,109,001,2023-03-01_15h15.58.186,eb_01,2022.2.4,99.92094801820251,
,,,2,0,2,0,2,0,2,0,,,,,,,,,,,,,,,,,,,,,,,,,,,,,,,,,,,,,,,,,,,,,,,,,,,,,,,,,,,109,001,2023-03-01_15h15.58.186,eb_01,2022.2.4,99.92094801820251,
6,stimuli/6.png,s,2,0,2,0,3,0,3,0,0,0,0,0,,,,,,,,,,,,,,,,,,439.0553554131584,439.0553554131584,439.0553554131584,439.0553554131584,s,1,0.890166760480497,439.9762810379616,439.9762810379616,439.9762810379616,,,,,,,,,,,,,,,,,,,,,,,,,,,,109,001,2023-03-01_15h15.58.186,eb_01,2022.2.4,99.92094801820251,
,,,2,0,2,0,3,0,3,0,,,,,,,,,,,,,,,,,,,,,,,,,,,,,,,,,,,,,,,,,,,,,,,,,,,,,,,,,,,109,001,2023-03-01_15h15.58.186,eb_01,2022.2.4,99.92094801820251,
8,stimuli/8.png,l,2,0,2,0,4,0,4,0,0,0,0,0,,,,,,,,,,,,,,,,,,440.9768853388814,440.9768853388814,440.9768853388814,440.9768853388814,l,1,0.7446687872397888,441.74734878818344,441.74734878818344,441.74734878818344,,,,,,,,,,,,,,,,,,,,,,,,,,,,109,001,2023-03-01_15h15.58.186,eb_01,2022.2.4,99.92094801820251,
,,,2,0,2,0,4,0,4,0,,,,,,,,,,,,,,,,,,,,,,,,,,,,,,,,,,,,,,,,,,,,,,,,,,,,,,,,,,,109,001,2023-03-01_15h15.58.186,eb_01,2022.2.4,99.92094801820251,
3,stimuli/3.png,l,2,0,2,0,5,0,5,0,0,0,0,0,,,,,,,,,,,,,,,,,,442.7579635964539,442.7579635964539,442.7579635964539,442.7579635964539,l,1,0.6916240252066927,443.46804404212526,443.46804404212526,443.46804404212526,444.47902076688115,444.47902076688115,444.47902076688115,,,,,,,,,,,,,,,,,,,,,,,,,109,001,2023-03-01_15h15.58.186,eb_01,2022.2.4,99.92094801820251,
,,,2,0,2,0,5,0,5,0,,,,,,,,,,,,,,,,,,,,,,,,,,,,,,,,,,,,,,,,,,,,,,,,,,,,,,,,,,,109,001,2023-03-01_15h15.58.186,eb_01,2022.2.4,99.92094801820251,
2,stimuli/2.png,s,2,0,2,0,6,0,6,0,0,0,0,0,,,,,,,,,,,,,,,,,,444.47902076688115,444.47902076688115,444.47902076688115,444.47902076688115,s,1,0.9306235298718093,445.41920976637266,445.41920976637266,445.41920976637266,446.4301910188551,446.4301910188551,446.4301910188551,,,,,,,,,,,,,,,,,,,,,,,,,109,001,2023-03-01_15h15.58.186,eb_01,2022.2.4,99.92094801820251,
,,,2,0,2,0,6,0,6,0,,,,,,,,,,,,,,,,,,,,,,,,,,,,,,,,,,,,,,,,,,,,,,,,,,,,,,,,,,,109,001,2023-03-01_15h15.58.186,eb_01,2022.2.4,99.92094801820251,
3,stimuli/3.png,l,2,0,2,0,7,0,7,0,0,0,0,0,,,,,,,,,,,,,,,,,,446.4301910188551,446.4301910188551,446.4301910188551,446.4301910188551,l,1,0.7554478011552419,447.20028530730633,447.20028530730633,447.20028530730633,448.2112656542449,448.2112656542449,448.2112656542449,,,,,,,,,,,,,,,,,,,,,,,,,109,001,2023-03-01_15h15.58.186,eb_01,2022.2.4,99.92094801820251,
,,,2,0,2,0,7,0,7,0,,,,,,,,,,,,,,,,,,,,,,,,,,,,,,,,,,,,,,,,,,,,,,,,,,,,,,,,,,,109,001,2023-03-01_15h15.58.186,eb_01,2022.2.4,99.92094801820251,
2,stimuli/2.png,s,2,0,2,0,8,0,8,0,0,0,0,0,,,,,,,,,,,,,,,,,,448.2112656542449,448.2112656542449,448.2112656542449,448.2112656542449,s,1,0.8784384326827421,449.11352073503804,449.11352073503804,449.11352073503804,,,,,,,,,,,,,,,,,,,,,,,,,,,,109,001,2023-03-01_15h15.58.186,eb_01,2022.2.4,99.92094801820251,
,,,2,0,2,0,8,0,8,0,,,,,,,,,,,,,,,,,,,,,,,,,,,,,,,,,,,,,,,,,,,,,,,,,,,,,,,,,,,109,001,2023-03-01_15h15.58.186,eb_01,2022.2.4,99.92094801820251,
