index,stimulus,correct_answer,block.thisRepN,block.thisTrialN,block.thisN,block.thisIndex,trial.thisRepN,trial.thisTrialN,trial.thisN,trial.thisIndex,display_row.thisRepN,display_row.thisTrialN,display_row.thisN,display_row.thisIndex,pair_questions.thisRepN,pair_questions.thisTrialN,pair_questions.thisN,pair_questions.thisIndex,welcome_text.started,instructions_0_keypress.started,instructions_0_keypress.keys,instructions_0_keypress.rt,instructions_1_keypress.started,instructions_1_text.started,instructions_1_keypress.keys,instructions_1_keypress.rt,instructions_2_keypress.started,instructions_2_text.started,instructions_2_keypress.keys,instructions_2_keypress.rt,text_countdown.started,image.started,size_question.started,size_resp.started,keypress_options.started,size_resp.keys,size_resp.corr,size_resp.rt,fb_image.started,fb.started,fb_size_question.started,fb_image.stopped,fb.stopped,fb_size_question.stopped,block_break_text.started,block_break_keypress.started,block_break_keypress.keys,block_break_keypress.rt,seq_reveal.started,seq_reveal_adv.started,seq_reveal_adv.keys,seq_reveal_adv.rt,instruction_2afc_text.started,instruction_2afc_keypress.started,instruction_2afc_keypress.keys,instruction_2afc_keypress.rt,dist_2afc_test.started,dist_2afc_resp.started,text.started,stim_00.started,stim_01.started,stim_10.started,stim_11.started,dist_2afc_resp.keys,dist_2afc_resp.rt,graph.started,debrief_text.started,debriefing_title.started,participant,session,date,expName,psychopyVersion,frameRate,
,,,,,,,,,,,,,,,,,,,12.973516938276589,12.973516938276589,return,78.08717368505313,,,,,,,,,,,,,,,,,,,,,,,,,,,,,,,,,,,,,,,,,,,,,,,109,001,2010-10-15_09h07.42.612,eb_01,2022.2.4,119.99645035503994,
,,,,,,,,,,,,,,,,,,,,,,,91.07153529676725,91.07153529676725,return,11.836377255356638,,,,,,,,,,,,,,,,,,,,,,,,,,,,,,,,,,,,,,,,,,,109,001,2010-10-15_09h07.42.612,eb_01,2022.2.4,119.99645035503994,
,,,,,,,,,,,,,,,,,,,,,,,,,,,102.92250710100052,102.92250710100052,space,9.873595592100173,,,,,,,,,,,,,,,,,,,,,,,,,,,,,,,,,,,,,,,109,001,2010-10-15_09h07.42.612,eb_01,2022.2.4,119.99645035503994,
2,stimuli/2.png,s,0,0,0,0,0,0,0,0,0,0,0,0,,,,,,,,,,,,,,,,,112.81502485729288,117.83218861967907,117.83218861967907,117.83218861967907,117.83218861967907,l,0,2.291099840629613,120.14064976107329,120.14064976107329,120.14064976107329,,,,,,,,,,,,,,,,,,,,,,,,,,,,109,001,2010-10-15_09h07.42.612,eb_01,2022.2.4,119.99645035503994,
,,,0,0,0,0,0,0,0,0,,,,,,,,,,,,,,,,,,,,,,,,,,,,,,,,,,,,,,,,,,,,,,,,,,,,,,,,,,,109,001,2010-10-15_09h07.42.612,eb_01,2022.2.4,119.99645035503994,
1,stimuli/1.png,s,0,0,0,0,1,0,1,0,0,0,0,0,,,,,,,,,,,,,,,,,,121.16578536693123,121.16578536693123,121.16578536693123,121.16578536693123,s,1,1.1575181858206633,122.34917670566938,122.34917670566938,122.34917670566938,,,,,,,,,,,,,,,,,,,,,,,,,,,,109,001,2010-10-15_09h07.42.612,eb_01,2022.2.4,119.99645035503994,
,,,0,0,0,0,1,0,1,0,,,,,,,,,,,,,,,,,,,,,,,,,,,,,,,,,,,,,,,,,,,,,,,,,,,,,,,,,,,109,001,2010-10-15_09h07.42.612,eb_01,2022.2.4,119.99645035503994,
2,stimuli/2.png,s,0,0,0,0,2,0,2,0,0,0,0,0,,,,,,,,,,,,,,,,,,123.34925820500939,123.34925820500939,123.34925820500939,123.34925820500939,s,1,1.4541208704758901,124.81605023980956,124.81605023980956,124.81605023980956,125.84115324594313,125.84115324594313,125.84115324594313,,,,,,,,,,,,,,,,,,,,,,,,,109,001,2010-10-15_09h07.42.612,eb_01,2022.2.4,119.99645035503994,
,,,0,0,0,0,2,0,2,0,,,,,,,,,,,,,,,,,,,,,,,,,,,,,,,,,,,,,,,,,,,,,,,,,,,,,,,,,,,109,001,2010-10-15_09h07.42.612,eb_01,2022.2.4,119.99645035503994,
1,stimuli/1.png,s,0,0,0,0,3,0,3,0,0,0,0,0,,,,,,,,,,,,,,,,,,125.84115324594313,125.84115324594313,125.84115324594313,125.84115324594313,s,1,0.7782890489033889,126.64957484506886,126.64957484506886,126.64957484506886,,,,,,,,,,,,,,,,,,,,,,,,,,,,109,001,2010-10-15_09h07.42.612,eb_01,2022.2.4,119.99645035503994,
,,,0,0,0,0,3,0,3,0,,,,,,,,,,,,,,,,,,,,,,,,,,,,,,,,,,,,,,,,,,,,,,,,,,,,,,,,,,,109,001,2010-10-15_09h07.42.612,eb_01,2022.2.4,119.99645035503994,
2,stimuli/2.png,s,0,0,0,0,4,0,4,0,0,0,0,0,,,,,,,,,,,,,,,,,,127.64965815551113,127.64965815551113,127.64965815551113,127.64965815551113,s,1,0.9697811208025087,128.63304406095995,128.63304406095995,128.63304406095995,129.65817695017904,129.65817695017904,129.65817695017904,,,,,,,,,,,,,,,,,,,,,,,,,109,001,2010-10-15_09h07.42.612,eb_01,2022.2.4,119.99645035503994,
,,,0,0,0,0,4,0,4,0,,,,,,,,,,,,,,,,,,,,,,,,,,,,,,,,,,,,,,,,,,,,,,,,,,,,,,,,,,,109,001,2010-10-15_09h07.42.612,eb_01,2022.2.4,119.99645035503994,
1,stimuli/1.png,s,0,0,0,0,5,0,5,0,0,0,0,0,,,,,,,,,,,,,,,,,,129.65817695017904,129.65817695017904,129.65817695017904,129.65817695017904,s,1,0.5443494006758556,130.23321460589068,130.23321460589068,130.23321460589068,,,,,,,,,,,,,,,,,,,,,,,,,,,,109,001,2010-10-15_09h07.42.612,eb_01,2022.2.4,119.99645035503994,
,,,0,0,0,0,5,0,5,0,,,,,,,,,,,,,,,,,,,,,,,,,,,,,,,,,,,,,,,,,,,,,,,,,,,,,,,,,,,109,001,2010-10-15_09h07.42.612,eb_01,2022.2.4,119.99645035503994,
2,stimuli/2.png,s,0,0,0,0,6,0,6,0,0,0,0,0,,,,,,,,,,,,,,,,,,131.23331512176082,131.23331512176082,131.23331512176082,131.23331512176082,s,1,0.48117171094054356,131.72501546976855,131.72501546976855,131.72501546976855,132.74177475392935,132.74177475392935,132.74177475392935,,,,,,,,,,,,,,,,,,,,,,,,,109,001,2010-10-15_09h07.42.612,eb_01,2022.2.4,119.99645035503994,
,,,0,0,0,0,6,0,6,0,,,,,,,,,,,,,,,,,,,,,,,,,,,,,,,,,,,,,,,,,,,,,,,,,,,,,,,,,,,109,001,2010-10-15_09h07.42.612,eb_01,2022.2.4,119.99645035503994,
4,stimuli/4.png,l,0,0,0,0,7,0,7,0,0,0,0,0,,,,,,,,,,,,,,,,,,132.74177475392935,132.74177475392935,132.74177475392935,132.74177475392935,l,1,0.8607573320623487,133.6251570371678,133.6251570371678,133.6251570371678,,,,,,,,,,,,,,,,,,,,,,,,,,,,109,001,2010-10-15_09h07.42.612,eb_01,2022.2.4,119.99645035503994,
,,,0,0,0,0,7,0,7,0,,,,,,,,,,,,,,,,,,,,,,,,,,,,,,,,,,,,,,,,,,,,,,,,,,,,,,,,,,,109,001,2010-10-15_09h07.42.612,eb_01,2022.2.4,119.99645035503994,
1,stimuli/1.png,s,0,0,0,0,8,0,8,0,0,0,0,0,,,,,,,,,,,,,,,,,,134.65025732663344,134.65025732663344,134.65025732663344,134.65025732663344,s,1,0.41631392732961103,135.0919339794782,135.0919339794782,135.0919339794782,,,,,,,,,,,,,,,,,,,,,,,,,,,,109,001,2010-10-15_09h07.42.612,eb_01,2022.2.4,119.99645035503994,
,,,0,0,0,0,8,0,8,0,,,,,,,,,,,,,,,,,,,,,,,,,,,,,,,,,,,,,,,,,,,,,,,,,,,,,,,,,,,109,001,2010-10-15_09h07.42.612,eb_01,2022.2.4,119.99645035503994,
4,stimuli/4.png,l,0,0,0,0,9,0,9,0,0,0,0,0,,,,,,,,,,,,,,,,,,136.10039572461392,136.10039572461392,136.10039572461392,136.10039572461392,l,1,0.3821614752232563,136.50042138181743,136.50042138181743,136.50042138181743,,,,,,,,,,,,,,,,,,,,,,,,,,,,109,001,2010-10-15_09h07.42.612,eb_01,2022.2.4,119.99645035503994,
,,,0,0,0,0,9,0,9,0,,,,,,,,,,,,,,,,,,,,,,,,,,,,,,,,,,,,,,,,,,,,,,,,,,,,,,,,,,,109,001,2010-10-15_09h07.42.612,eb_01,2022.2.4,119.99645035503994,
1,stimuli/1.png,s,0,0,0,0,10,0,10,0,0,0,0,0,,,,,,,,,,,,,,,,,,137.5255165398412,137.5255165398412,137.5255165398412,137.5255165398412,s,1,0.46910588364698924,138.02551804907853,138.02551804907853,138.02551804907853,,,,,,,,,,,,,,,,,,,,,,,,,,,,109,001,2010-10-15_09h07.42.612,eb_01,2022.2.4,119.99645035503994,
,,,0,0,0,0,10,0,10,0,,,,,,,,,,,,,,,,,,,,,,,,,,,,,,,,,,,,,,,,,,,,,,,,,,,,,,,,,,,109,001,2010-10-15_09h07.42.612,eb_01,2022.2.4,119.99645035503994,
4,stimuli/4.png,l,0,0,0,0,11,0,11,0,0,0,0,0,,,,,,,,,,,,,,,,,,139.03393270570086,139.03393270570086,139.03393270570086,139.03393270570086,l,1,0.4727217379841022,139.52569070697064,139.52569070697064,139.52569070697064,,,,,,,,,,,,,,,,,,,,,,,,,,,,109,001,2010-10-15_09h07.42.612,eb_01,2022.2.4,119.99645035503994,
,,,0,0,0,0,11,0,11,0,,,,,,,,,,,,,,,,,,,,,,,,,,,,,,,,,,,,,,,,,,,,,,,,,,,,,,,,,,,109,001,2010-10-15_09h07.42.612,eb_01,2022.2.4,119.99645035503994,
2,stimuli/2.png,s,0,0,0,0,12,0,12,0,0,0,0,0,,,,,,,,,,,,,,,,,,140.53407789525227,140.53407789525227,140.53407789525227,140.53407789525227,s,1,0.3805900471052155,140.92581869111746,140.92581869111746,140.92581869111746,141.9342170478485,141.9342170478485,141.9342170478485,,,,,,,,,,,,,,,,,,,,,,,,,109,001,2010-10-15_09h07.42.612,eb_01,2022.2.4,119.99645035503994,
,,,0,0,0,0,12,0,12,0,,,,,,,,,,,,,,,,,,,,,,,,,,,,,,,,,,,,,,,,,,,,,,,,,,,,,,,,,,,109,001,2010-10-15_09h07.42.612,eb_01,2022.2.4,119.99645035503994,
3,stimuli/3.png,l,0,0,0,0,13,0,13,0,0,0,0,0,,,,,,,,,,,,,,,,,,141.9342170478485,141.9342170478485,141.9342170478485,141.9342170478485,l,1,0.7804430464457255,142.72592313101632,142.72592313101632,142.72592313101632,143.74273101292783,143.74273101292783,143.74273101292783,,,,,,,,,,,,,,,,,,,,,,,,,109,001,2010-10-15_09h07.42.612,eb_01,2022.2.4,119.99645035503994,
,,,0,0,0,0,13,0,13,0,,,,,,,,,,,,,,,,,,,,,,,,,,,,,,,,,,,,,,,,,,,,,,,,,,,,,,,,,,,109,001,2010-10-15_09h07.42.612,eb_01,2022.2.4,119.99645035503994,
4,stimuli/4.png,l,0,0,0,0,14,0,14,0,0,0,0,0,,,,,,,,,,,,,,,,,,143.74273101292783,143.74273101292783,143.74273101292783,143.74273101292783,l,1,1.0671043200418353,144.83446848843596,144.83446848843596,144.83446848843596,,,,,,,,,,,,,,,,,,,,,,,,,,,,109,001,2010-10-15_09h07.42.612,eb_01,2022.2.4,119.99645035503994,
,,,0,0,0,0,14,0,14,0,,,,,,,,,,,,,,,,,,,,,,,,,,,,,,,,,,,,,,,,,,,,,,,,,,,,,,,,,,,109,001,2010-10-15_09h07.42.612,eb_01,2022.2.4,119.99645035503994,
3,stimuli/3.png,l,0,0,0,0,15,0,15,0,0,0,0,0,,,,,,,,,,,,,,,,,,145.84292540393653,145.84292540393653,145.84292540393653,145.84292540393653,s,0,0.3829115710686892,146.242903368955,146.242903368955,146.242903368955,,,,,,,,,,,,,,,,,,,,,,,,,,,,109,001,2010-10-15_09h07.42.612,eb_01,2022.2.4,119.99645035503994,
,,,0,0,0,0,15,0,15,0,,,,,,,,,,,,,,,,,,,,,,,,,,,,,,,,,,,,,,,,,,,,,,,,,,,,,,,,,,,109,001,2010-10-15_09h07.42.612,eb_01,2022.2.4,119.99645035503994,
4,stimuli/4.png,l,0,0,0,0,16,0,16,0,0,0,0,0,,,,,,,,,,,,,,,,,,147.25963699587737,147.25963699587737,147.25963699587737,147.25963699587737,l,1,0.5981996410991997,147.8763721320429,147.8763721320429,147.8763721320429,,,,,,,,,,,,,,,,,,,,,,,,,,,,109,001,2010-10-15_09h07.42.612,eb_01,2022.2.4,119.99645035503994,
,,,0,0,0,0,16,0,16,0,,,,,,,,,,,,,,,,,,,,,,,,,,,,,,,,,,,,,,,,,,,,,,,,,,,,,,,,,,,109,001,2010-10-15_09h07.42.612,eb_01,2022.2.4,119.99645035503994,
2,stimuli/2.png,s,0,0,0,0,17,0,17,0,0,0,0,0,,,,,,,,,,,,,,,,,,148.8848293494375,148.8848293494375,148.8848293494375,148.8848293494375,s,1,0.5730543760582805,149.4682074067823,149.4682074067823,149.4682074067823,150.47657950260327,150.47657950260327,150.47657950260327,,,,,,,,,,,,,,,,,,,,,,,,,109,001,2010-10-15_09h07.42.612,eb_01,2022.2.4,119.99645035503994,
,,,0,0,0,0,17,0,17,0,,,,,,,,,,,,,,,,,,,,,,,,,,,,,,,,,,,,,,,,,,,,,,,,,,,,,,,,,,,109,001,2010-10-15_09h07.42.612,eb_01,2022.2.4,119.99645035503994,
3,stimuli/3.png,l,0,0,0,0,18,0,18,0,0,0,0,0,,,,,,,,,,,,,,,,,,150.47657950260327,150.47657950260327,150.47657950260327,150.47657950260327,l,1,0.5012954088742845,150.9933336552931,150.9933336552931,150.9933336552931,152.00175857479917,152.00175857479917,152.00175857479917,,,,,,,,,,,,,,,,,,,,,,,,,109,001,2010-10-15_09h07.42.612,eb_01,2022.2.4,119.99645035503994,
,,,0,0,0,0,18,0,18,0,,,,,,,,,,,,,,,,,,,,,,,,,,,,,,,,,,,,,,,,,,,,,,,,,,,,,,,,,,,109,001,2010-10-15_09h07.42.612,eb_01,2022.2.4,119.99645035503994,
8,stimuli/8.png,l,0,0,0,0,19,0,19,0,0,0,0,0,,,,,,,,,,,,,,,,,,152.00175857479917,152.00175857479917,152.00175857479917,152.00175857479917,l,1,0.6561574485967867,152.67681373778032,152.67681373778032,152.67681373778032,,,,,,,,,,,,,,,,,,,,,,,,,,,,109,001,2010-10-15_09h07.42.612,eb_01,2022.2.4,119.99645035503994,
,,,0,0,0,0,19,0,19,0,,,,,,,,,,,,,,,,,,,,,,,,,,,,,,,,,,,,,,,,,,,,,,,,,,,,,,,,,,,109,001,2010-10-15_09h07.42.612,eb_01,2022.2.4,119.99645035503994,
6,stimuli/6.png,s,0,0,0,0,20,0,20,0,0,0,0,0,,,,,,,,,,,,,,,,,,153.70188957743812,153.70188957743812,153.70188957743812,153.70188957743812,s,1,0.8520634647284169,154.58529812158667,154.58529812158667,154.58529812158667,,,,,,,,,,,,,,,,,,,,,,,,,,,,109,001,2010-10-15_09h07.42.612,eb_01,2022.2.4,119.99645035503994,
,,,0,0,0,0,20,0,20,0,,,,,,,,,,,,,,,,,,,,,,,,,,,,,,,,,,,,,,,,,,,,,,,,,,,,,,,,,,,109,001,2010-10-15_09h07.42.612,eb_01,2022.2.4,119.99645035503994,
5,stimuli/5.png,s,0,0,0,0,21,0,21,0,0,0,0,0,,,,,,,,,,,,,,,,,,155.58539803375606,155.58539803375606,155.58539803375606,155.58539803375606,l,0,0.4885950940370094,156.09378129802644,156.09378129802644,156.09378129802644,,,,,,,,,,,,,,,,,,,,,,,,,,,,109,001,2010-10-15_09h07.42.612,eb_01,2022.2.4,119.99645035503994,
,,,0,0,0,0,21,0,21,0,,,,,,,,,,,,,,,,,,,,,,,,,,,,,,,,,,,,,,,,,,,,,,,,,,,,,,,,,,,109,001,2010-10-15_09h07.42.612,eb_01,2022.2.4,119.99645035503994,
6,stimuli/6.png,s,0,0,0,0,22,0,22,0,0,0,0,0,,,,,,,,,,,,,,,,,,157.11886257096194,157.11886257096194,157.11886257096194,157.11886257096194,s,1,0.5631531109975185,157.71056473010685,157.71056473010685,157.71056473010685,,,,,,,,,,,,,,,,,,,,,,,,,,,,109,001,2010-10-15_09h07.42.612,eb_01,2022.2.4,119.99645035503994,
,,,0,0,0,0,22,0,22,0,,,,,,,,,,,,,,,,,,,,,,,,,,,,,,,,,,,,,,,,,,,,,,,,,,,,,,,,,,,109,001,2010-10-15_09h07.42.612,eb_01,2022.2.4,119.99645035503994,
5,stimuli/5.png,s,0,0,0,0,23,0,23,0,0,0,0,0,,,,,,,,,,,,,,,,,,158.710653171991,158.710653171991,158.710653171991,158.710653171991,s,1,0.3305364688276313,159.06069256333285,159.06069256333285,159.06069256333285,,,,,,,,,,,,,,,,,,,,,,,,,,,,109,001,2010-10-15_09h07.42.612,eb_01,2022.2.4,119.99645035503994,
,,,0,0,0,0,23,0,23,0,,,,,,,,,,,,,,,,,,,,,,,,,,,,,,,,,,,,,,,,,,,,,,,,,,,,,,,,,,,109,001,2010-10-15_09h07.42.612,eb_01,2022.2.4,119.99645035503994,
6,stimuli/6.png,s,0,0,0,0,24,0,24,0,0,0,0,0,,,,,,,,,,,,,,,,,,160.0857536123949,160.0857536123949,160.0857536123949,160.0857536123949,s,1,0.5313904008653481,160.64413008504198,160.64413008504198,160.64413008504198,,,,,,,,,,,,,,,,,,,,,,,,,,,,109,001,2010-10-15_09h07.42.612,eb_01,2022.2.4,119.99645035503994,
,,,0,0,0,0,24,0,24,0,,,,,,,,,,,,,,,,,,,,,,,,,,,,,,,,,,,,,,,,,,,,,,,,,,,,,,,,,,,109,001,2010-10-15_09h07.42.612,eb_01,2022.2.4,119.99645035503994,
9,stimuli/9.png,l,0,0,0,0,25,0,25,0,0,0,0,0,,,,,,,,,,,,,,,,,,161.65253991202917,161.65253991202917,161.65253991202917,161.65253991202917,l,1,0.676522626017686,162.3609506445937,162.3609506445937,162.3609506445937,,,,,,,,,,,,,,,,,,,,,,,,,,,,109,001,2010-10-15_09h07.42.612,eb_01,2022.2.4,119.99645035503994,
,,,0,0,0,0,25,0,25,0,,,,,,,,,,,,,,,,,,,,,,,,,,,,,,,,,,,,,,,,,,,,,,,,,,,,,,,,,,,109,001,2010-10-15_09h07.42.612,eb_01,2022.2.4,119.99645035503994,
8,stimuli/8.png,l,0,0,0,0,26,0,26,0,0,0,0,0,,,,,,,,,,,,,,,,,,163.36938311031554,163.36938311031554,163.36938311031554,163.36938311031554,l,1,0.49575194405042566,163.88610436141607,163.88610436141607,163.88610436141607,,,,,,,,,,,,,,,,,,,,,,,,,,,,109,001,2010-10-15_09h07.42.612,eb_01,2022.2.4,119.99645035503994,
,,,0,0,0,0,26,0,26,0,,,,,,,,,,,,,,,,,,,,,,,,,,,,,,,,,,,,,,,,,,,,,,,,,,,,,,,,,,,109,001,2010-10-15_09h07.42.612,eb_01,2022.2.4,119.99645035503994,
9,stimuli/9.png,l,0,0,0,0,27,0,27,0,0,0,0,0,,,,,,,,,,,,,,,,,,164.90281625519856,164.90281625519856,164.90281625519856,164.90281625519856,l,1,0.5543611426255666,165.48627883038716,165.48627883038716,165.48627883038716,,,,,,,,,,,,,,,,,,,,,,,,,,,,109,001,2010-10-15_09h07.42.612,eb_01,2022.2.4,119.99645035503994,
,,,0,0,0,0,27,0,27,0,,,,,,,,,,,,,,,,,,,,,,,,,,,,,,,,,,,,,,,,,,,,,,,,,,,,,,,,,,,109,001,2010-10-15_09h07.42.612,eb_01,2022.2.4,119.99645035503994,
5,stimuli/5.png,s,0,0,0,0,28,0,28,0,0,0,0,0,,,,,,,,,,,,,,,,,,166.48634101139032,166.48634101139032,166.48634101139032,166.48634101139032,s,1,0.5468595805286895,167.05303494510008,167.05303494510008,167.05303494510008,,,,,,,,,,,,,,,,,,,,,,,,,,,,109,001,2010-10-15_09h07.42.612,eb_01,2022.2.4,119.99645035503994,
,,,0,0,0,0,28,0,28,0,,,,,,,,,,,,,,,,,,,,,,,,,,,,,,,,,,,,,,,,,,,,,,,,,,,,,,,,,,,109,001,2010-10-15_09h07.42.612,eb_01,2022.2.4,119.99645035503994,
6,stimuli/6.png,s,0,0,0,0,29,0,29,0,0,0,0,0,,,,,,,,,,,,,,,,,,168.07813251792686,168.07813251792686,168.07813251792686,168.07813251792686,s,1,0.4830839271307923,168.5865021989739,168.5865021989739,168.5865021989739,,,,,,,,,,,,,,,,,,,,,,,,,,,,109,001,2010-10-15_09h07.42.612,eb_01,2022.2.4,119.99645035503994,
,,,0,0,0,0,29,0,29,0,,,,,,,,,,,,,,,,,,,,,,,,,,,,,,,,,,,,,,,,,,,,,,,,,,,,,,,,,,,109,001,2010-10-15_09h07.42.612,eb_01,2022.2.4,119.99645035503994,
8,stimuli/8.png,l,0,0,0,0,30,0,30,0,0,0,0,0,,,,,,,,,,,,,,,,,,169.59488848171895,169.59488848171895,169.59488848171895,169.59488848171895,l,1,0.47037063277093694,170.08662173134508,170.08662173134508,170.08662173134508,,,,,,,,,,,,,,,,,,,,,,,,,,,,109,001,2010-10-15_09h07.42.612,eb_01,2022.2.4,119.99645035503994,
,,,0,0,0,0,30,0,30,0,,,,,,,,,,,,,,,,,,,,,,,,,,,,,,,,,,,,,,,,,,,,,,,,,,,,,,,,,,,109,001,2010-10-15_09h07.42.612,eb_01,2022.2.4,119.99645035503994,
6,stimuli/6.png,s,0,0,0,0,31,0,31,0,0,0,0,0,,,,,,,,,,,,,,,,,,171.1116824785422,171.1116824785422,171.1116824785422,171.1116824785422,s,1,0.4656065431772731,171.60341814297135,171.60341814297135,171.60341814297135,,,,,,,,,,,,,,,,,,,,,,,,,,,,109,001,2010-10-15_09h07.42.612,eb_01,2022.2.4,119.99645035503994,
,,,0,0,0,0,31,0,31,0,,,,,,,,,,,,,,,,,,,,,,,,,,,,,,,,,,,,,,,,,,,,,,,,,,,,,,,,,,,109,001,2010-10-15_09h07.42.612,eb_01,2022.2.4,119.99645035503994,
5,stimuli/5.png,s,0,0,0,0,32,0,32,0,0,0,0,0,,,,,,,,,,,,,,,,,,172.60349269976723,172.60349269976723,172.60349269976723,172.60349269976723,s,1,0.693840029736748,173.32023749512155,173.32023749512155,173.32023749512155,,,,,,,,,,,,,,,,,,,,,,,,,,,,109,001,2010-10-15_09h07.42.612,eb_01,2022.2.4,119.99645035503994,
,,,0,0,0,0,32,0,32,0,,,,,,,,,,,,,,,,,,,,,,,,,,,,,,,,,,,,,,,,,,,,,,,,,,,,,,,,,,,109,001,2010-10-15_09h07.42.612,eb_01,2022.2.4,119.99645035503994,
6,stimuli/6.png,s,0,0,0,0,33,0,33,0,0,0,0,0,,,,,,,,,,,,,,,,,,174.34535317891277,174.34535317891277,174.34535317891277,174.34535317891277,s,1,0.5519961523241363,174.92872067156713,174.92872067156713,174.92872067156713,,,,,,,,,,,,,,,,,,,,,,,,,,,,109,001,2010-10-15_09h07.42.612,eb_01,2022.2.4,119.99645035503994,
,,,0,0,0,0,33,0,33,0,,,,,,,,,,,,,,,,,,,,,,,,,,,,,,,,,,,,,,,,,,,,,,,,,,,,,,,,,,,109,001,2010-10-15_09h07.42.612,eb_01,2022.2.4,119.99645035503994,
9,stimuli/9.png,l,0,0,0,0,34,0,34,0,0,0,0,0,,,,,,,,,,,,,,,,,,175.9371301967185,175.9371301967185,175.9371301967185,175.9371301967185,l,1,0.4802631441561971,176.44553036455181,176.44553036455181,176.44553036455181,,,,,,,,,,,,,,,,,,,,,,,,,,,,109,001,2010-10-15_09h07.42.612,eb_01,2022.2.4,119.99645035503994,
,,,0,0,0,0,34,0,34,0,,,,,,,,,,,,,,,,,,,,,,,,,,,,,,,,,,,,,,,,,,,,,,,,,,,,,,,,,,,109,001,2010-10-15_09h07.42.612,eb_01,2022.2.4,119.99645035503994,
8,stimuli/8.png,l,0,0,0,0,35,0,35,0,0,0,0,0,,,,,,,,,,,,,,,,,,177.4539435119077,177.4539435119077,177.4539435119077,177.4539435119077,l,1,0.6024852993141394,178.07897920560208,178.07897920560208,178.07897920560208,,,,,,,,,,,,,,,,,,,,,,,,,,,,109,001,2010-10-15_09h07.42.612,eb_01,2022.2.4,119.99645035503994,
,,,0,0,0,0,35,0,35,0,,,,,,,,,,,,,,,,,,,,,,,,,,,,,,,,,,,,,,,,,,,,,,,,,,,,,,,,,,,109,001,2010-10-15_09h07.42.612,eb_01,2022.2.4,119.99645035503994,
3,stimuli/3.png,l,0,0,0,0,36,0,36,0,0,0,0,0,,,,,,,,,,,,,,,,,,179.08740503061563,179.08740503061563,179.08740503061563,179.08740503061563,l,1,0.5130814217554871,179.6124331780884,179.6124331780884,179.6124331780884,180.6208309311187,180.6208309311187,180.6208309311187,,,,,,,,,,,,,,,,,,,,,,,,,109,001,2010-10-15_09h07.42.612,eb_01,2022.2.4,119.99645035503994,
,,,0,0,0,0,36,0,36,0,,,,,,,,,,,,,,,,,,,,,,,,,,,,,,,,,,,,,,,,,,,,,,,,,,,,,,,,,,,109,001,2010-10-15_09h07.42.612,eb_01,2022.2.4,119.99645035503994,
2,stimuli/2.png,s,0,0,0,0,37,0,37,0,0,0,0,0,,,,,,,,,,,,,,,,,,180.6208309311187,180.6208309311187,180.6208309311187,180.6208309311187,s,1,0.43562082064454444,181.07087002060143,181.07087002060143,181.07087002060143,182.08766914886655,182.08766914886655,182.08766914886655,,,,,,,,,,,,,,,,,,,,,,,,,109,001,2010-10-15_09h07.42.612,eb_01,2022.2.4,119.99645035503994,
,,,0,0,0,0,37,0,37,0,,,,,,,,,,,,,,,,,,,,,,,,,,,,,,,,,,,,,,,,,,,,,,,,,,,,,,,,,,,109,001,2010-10-15_09h07.42.612,eb_01,2022.2.4,119.99645035503994,
4,stimuli/4.png,l,0,0,0,0,38,0,38,0,0,0,0,0,,,,,,,,,,,,,,,,,,182.08766914886655,182.08766914886655,182.08766914886655,182.08766914886655,s,0,0.45683208206901327,182.5626950324513,182.5626950324513,182.5626950324513,,,,,,,,,,,,,,,,,,,,,,,,,,,,109,001,2010-10-15_09h07.42.612,eb_01,2022.2.4,119.99645035503994,
,,,0,0,0,0,38,0,38,0,,,,,,,,,,,,,,,,,,,,,,,,,,,,,,,,,,,,,,,,,,,,,,,,,,,,,,,,,,,109,001,2010-10-15_09h07.42.612,eb_01,2022.2.4,119.99645035503994,
2,stimuli/2.png,s,0,0,0,0,39,0,39,0,0,0,0,0,,,,,,,,,,,,,,,,,,183.57108372999937,183.57108372999937,183.57108372999937,183.57108372999937,s,1,0.6054941344482359,184.19618009543046,184.19618009543046,184.19618009543046,,,,,,,,,,,,,,,,,,,,,,,,,,,,109,001,2010-10-15_09h07.42.612,eb_01,2022.2.4,119.99645035503994,
,,,0,0,0,0,39,0,39,0,,,,,,,,,,,,,,,,,,,,,,,,,,,,,,,,,,,,,,,,,,,,,,,,,,,,,,,,,,,109,001,2010-10-15_09h07.42.612,eb_01,2022.2.4,119.99645035503994,
4,stimuli/4.png,l,0,0,0,0,40,0,40,0,0,0,0,0,,,,,,,,,,,,,,,,,,185.21289319661446,185.21289319661446,185.21289319661446,185.21289319661446,l,1,0.467681154346792,185.70461859815987,185.70461859815987,185.70461859815987,,,,,,,,,,,,,,,,,,,,,,,,,,,,109,001,2010-10-15_09h07.42.612,eb_01,2022.2.4,119.99645035503994,
,,,0,0,0,0,40,0,40,0,,,,,,,,,,,,,,,,,,,,,,,,,,,,,,,,,,,,,,,,,,,,,,,,,,,,,,,,,,,109,001,2010-10-15_09h07.42.612,eb_01,2022.2.4,119.99645035503994,
1,stimuli/1.png,s,0,0,0,0,41,0,41,0,0,0,0,0,,,,,,,,,,,,,,,,,,186.72970198406256,186.72970198406256,186.72970198406256,186.72970198406256,s,1,0.502936564211268,187.26308019235148,187.26308019235148,187.26308019235148,,,,,,,,,,,,,,,,,,,,,,,,,,,,109,001,2010-10-15_09h07.42.612,eb_01,2022.2.4,119.99645035503994,
,,,0,0,0,0,41,0,41,0,,,,,,,,,,,,,,,,,,,,,,,,,,,,,,,,,,,,,,,,,,,,,,,,,,,,,,,,,,,109,001,2010-10-15_09h07.42.612,eb_01,2022.2.4,119.99645035503994,
2,stimuli/2.png,s,0,0,0,0,42,0,42,0,0,0,0,0,,,,,,,,,,,,,,,,,,188.26319549881737,188.26319549881737,188.26319549881737,188.26319549881737,l,0,0.48143250885186717,188.76323836142546,188.76323836142546,188.76323836142546,,,,,,,,,,,,,,,,,,,,,,,,,,,,109,001,2010-10-15_09h07.42.612,eb_01,2022.2.4,119.99645035503994,
,,,0,0,0,0,42,0,42,0,,,,,,,,,,,,,,,,,,,,,,,,,,,,,,,,,,,,,,,,,,,,,,,,,,,,,,,,,,,109,001,2010-10-15_09h07.42.612,eb_01,2022.2.4,119.99645035503994,
1,stimuli/1.png,s,0,0,0,0,43,0,43,0,0,0,0,0,,,,,,,,,,,,,,,,,,189.7883277843357,189.7883277843357,189.7883277843357,189.7883277843357,s,1,0.7723489539057482,190.5883842301846,190.5883842301846,190.5883842301846,,,,,,,,,,,,,,,,,,,,,,,,,,,,109,001,2010-10-15_09h07.42.612,eb_01,2022.2.4,119.99645035503994,
,,,0,0,0,0,43,0,43,0,,,,,,,,,,,,,,,,,,,,,,,,,,,,,,,,,,,,,,,,,,,,,,,,,,,,,,,,,,,109,001,2010-10-15_09h07.42.612,eb_01,2022.2.4,119.99645035503994,
4,stimuli/4.png,l,0,0,0,0,44,0,44,0,0,0,0,0,,,,,,,,,,,,,,,,,,191.59681458293926,191.59681458293926,191.59681458293926,191.59681458293926,l,1,0.7229968737519812,192.33854617239558,192.33854617239558,192.33854617239558,,,,,,,,,,,,,,,,,,,,,,,,,,,,109,001,2010-10-15_09h07.42.612,eb_01,2022.2.4,119.99645035503994,
,,,0,0,0,0,44,0,44,0,,,,,,,,,,,,,,,,,,,,,,,,,,,,,,,,,,,,,,,,,,,,,,,,,,,,,,,,,,,109,001,2010-10-15_09h07.42.612,eb_01,2022.2.4,119.99645035503994,
3,stimuli/3.png,l,0,0,0,0,45,0,45,0,0,0,0,0,,,,,,,,,,,,,,,,,,193.34696867706953,193.34696867706953,193.34696867706953,193.34696867706953,l,1,0.5407830496260431,193.90534545158152,193.90534545158152,193.90534545158152,,,,,,,,,,,,,,,,,,,,,,,,,,,,109,001,2010-10-15_09h07.42.612,eb_01,2022.2.4,119.99645035503994,
,,,0,0,0,0,45,0,45,0,,,,,,,,,,,,,,,,,,,,,,,,,,,,,,,,,,,,,,,,,,,,,,,,,,,,,,,,,,,109,001,2010-10-15_09h07.42.612,eb_01,2022.2.4,119.99645035503994,
4,stimuli/4.png,l,0,0,0,0,46,0,46,0,0,0,0,0,,,,,,,,,,,,,,,,,,194.92210141537362,194.92210141537362,194.92210141537362,194.92210141537362,l,1,0.5976626509509515,195.5638010087714,195.5638010087714,195.5638010087714,,,,,,,,,,,,,,,,,,,,,,,,,,,,109,001,2010-10-15_09h07.42.612,eb_01,2022.2.4,119.99645035503994,
,,,0,0,0,0,46,0,46,0,,,,,,,,,,,,,,,,,,,,,,,,,,,,,,,,,,,,,,,,,,,,,,,,,,,,,,,,,,,109,001,2010-10-15_09h07.42.612,eb_01,2022.2.4,119.99645035503994,
3,stimuli/3.png,l,0,0,0,0,47,0,47,0,0,0,0,0,,,,,,,,,,,,,,,,,,196.57223105969024,196.57223105969024,196.57223105969024,196.57223105969024,l,1,0.515607599663781,197.1059361709049,197.1059361709049,197.1059361709049,,,,,,,,,,,,,,,,,,,,,,,,,,,,109,001,2010-10-15_09h07.42.612,eb_01,2022.2.4,119.99645035503994,
,,,0,0,0,0,47,0,47,0,,,,,,,,,,,,,,,,,,,,,,,,,,,,,,,,,,,,,,,,,,,,,,,,,,,,,,,,,,,109,001,2010-10-15_09h07.42.612,eb_01,2022.2.4,119.99645035503994,
8,stimuli/8.png,l,0,0,0,0,48,0,48,0,0,0,0,0,,,,,,,,,,,,,,,,,,198.11404535590555,198.11404535590555,198.11404535590555,198.11404535590555,l,1,0.5818013688840438,198.71404384664493,198.71404384664493,198.71404384664493,,,,,,,,,,,,,,,,,,,,,,,,,,,,109,001,2010-10-15_09h07.42.612,eb_01,2022.2.4,119.99645035503994,
,,,0,0,0,0,48,0,48,0,,,,,,,,,,,,,,,,,,,,,,,,,,,,,,,,,,,,,,,,,,,,,,,,,,,,,,,,,,,109,001,2010-10-15_09h07.42.612,eb_01,2022.2.4,119.99645035503994,
6,stimuli/6.png,s,0,0,0,0,49,0,49,0,0,0,0,0,,,,,,,,,,,,,,,,,,199.73915077681886,199.73915077681886,199.73915077681886,199.73915077681886,s,1,0.4287739699939266,200.1975206087809,200.1975206087809,200.1975206087809,,,,,,,,,,,,,,,,,,,,,,,,,,,,109,001,2010-10-15_09h07.42.612,eb_01,2022.2.4,119.99645035503994,
,,,0,0,0,0,49,0,49,0,,,,,,,,,,,,,,,,,,,,,,,,,,,,,,,,,,,,,,,,,,,,,,,,,,,,,,,,,,,109,001,2010-10-15_09h07.42.612,eb_01,2022.2.4,119.99645035503994,
5,stimuli/5.png,s,0,0,0,0,50,0,50,0,0,0,0,0,,,,,,,,,,,,,,,,,,201.1976262560638,201.1976262560638,201.1976262560638,201.1976262560638,s,1,0.5782751638034824,201.79770564247156,201.79770564247156,201.79770564247156,,,,,,,,,,,,,,,,,,,,,,,,,,,,109,001,2010-10-15_09h07.42.612,eb_01,2022.2.4,119.99645035503994,
,,,0,0,0,0,50,0,50,0,,,,,,,,,,,,,,,,,,,,,,,,,,,,,,,,,,,,,,,,,,,,,,,,,,,,,,,,,,,109,001,2010-10-15_09h07.42.612,eb_01,2022.2.4,119.99645035503994,
6,stimuli/6.png,s,0,0,0,0,51,0,51,0,0,0,0,0,,,,,,,,,,,,,,,,,,202.82276518226718,202.82276518226718,202.82276518226718,202.82276518226718,s,1,0.457184340339154,203.3061148657871,203.3061148657871,203.3061148657871,,,,,,,,,,,,,,,,,,,,,,,,,,,,109,001,2010-10-15_09h07.42.612,eb_01,2022.2.4,119.99645035503994,
,,,0,0,0,0,51,0,51,0,,,,,,,,,,,,,,,,,,,,,,,,,,,,,,,,,,,,,,,,,,,,,,,,,,,,,,,,,,,109,001,2010-10-15_09h07.42.612,eb_01,2022.2.4,119.99645035503994,
9,stimuli/9.png,l,0,0,0,0,52,0,52,0,0,0,0,0,,,,,,,,,,,,,,,,,,204.3145621221338,204.3145621221338,204.3145621221338,204.3145621221338,l,1,0.4694038090237882,204.81456846094807,204.81456846094807,204.81456846094807,,,,,,,,,,,,,,,,,,,,,,,,,,,,109,001,2010-10-15_09h07.42.612,eb_01,2022.2.4,119.99645035503994,
,,,0,0,0,0,52,0,52,0,,,,,,,,,,,,,,,,,,,,,,,,,,,,,,,,,,,,,,,,,,,,,,,,,,,,,,,,,,,109,001,2010-10-15_09h07.42.612,eb_01,2022.2.4,119.99645035503994,
6,stimuli/6.png,s,0,0,0,0,53,0,53,0,0,0,0,0,,,,,,,,,,,,,,,,,,205.83135823189514,205.83135823189514,205.83135823189514,205.83135823189514,s,1,0.6166465653805062,206.47308257693658,206.47308257693658,206.47308257693658,,,,,,,,,,,,,,,,,,,,,,,,,,,,109,001,2010-10-15_09h07.42.612,eb_01,2022.2.4,119.99645035503994,
,,,0,0,0,0,53,0,53,0,,,,,,,,,,,,,,,,,,,,,,,,,,,,,,,,,,,,,,,,,,,,,,,,,,,,,,,,,,,109,001,2010-10-15_09h07.42.612,eb_01,2022.2.4,119.99645035503994,
8,stimuli/8.png,l,0,0,0,0,54,0,54,0,0,0,0,0,,,,,,,,,,,,,,,,,,207.47314505977556,207.47314505977556,207.47314505977556,207.47314505977556,l,1,0.4699429121101275,207.96487680016435,207.96487680016435,207.96487680016435,,,,,,,,,,,,,,,,,,,,,,,,,,,,109,001,2010-10-15_09h07.42.612,eb_01,2022.2.4,119.99645035503994,
,,,0,0,0,0,54,0,54,0,,,,,,,,,,,,,,,,,,,,,,,,,,,,,,,,,,,,,,,,,,,,,,,,,,,,,,,,,,,109,001,2010-10-15_09h07.42.612,eb_01,2022.2.4,119.99645035503994,
3,stimuli/3.png,l,0,0,0,0,55,0,55,0,0,0,0,0,,,,,,,,,,,,,,,,,,208.973307152919,208.973307152919,208.973307152919,208.973307152919,l,1,0.43377591692842543,209.42334503502934,209.42334503502934,209.42334503502934,210.4400982821826,210.4400982821826,210.4400982821826,,,,,,,,,,,,,,,,,,,,,,,,,109,001,2010-10-15_09h07.42.612,eb_01,2022.2.4,119.99645035503994,
,,,0,0,0,0,55,0,55,0,,,,,,,,,,,,,,,,,,,,,,,,,,,,,,,,,,,,,,,,,,,,,,,,,,,,,,,,,,,109,001,2010-10-15_09h07.42.612,eb_01,2022.2.4,119.99645035503994,
4,stimuli/4.png,l,0,0,0,0,56,0,56,0,0,0,0,0,,,,,,,,,,,,,,,,,,210.4400982821826,210.4400982821826,210.4400982821826,210.4400982821826,l,1,0.6469745851645712,211.106816665706,211.106816665706,211.106816665706,,,,,,,,,,,,,,,,,,,,,,,,,,,,109,001,2010-10-15_09h07.42.612,eb_01,2022.2.4,119.99645035503994,
,,,0,0,0,0,56,0,56,0,,,,,,,,,,,,,,,,,,,,,,,,,,,,,,,,,,,,,,,,,,,,,,,,,,,,,,,,,,,109,001,2010-10-15_09h07.42.612,eb_01,2022.2.4,119.99645035503994,
1,stimuli/1.png,s,0,0,0,0,57,0,57,0,0,0,0,0,,,,,,,,,,,,,,,,,,212.13189522203174,212.13189522203174,212.13189522203174,212.13189522203174,s,1,0.4512542064185254,212.615263016487,212.615263016487,212.615263016487,,,,,,,,,,,,,,,,,,,,,,,,,,,,109,001,2010-10-15_09h07.42.612,eb_01,2022.2.4,119.99645035503994,
,,,0,0,0,0,57,0,57,0,,,,,,,,,,,,,,,,,,,,,,,,,,,,,,,,,,,,,,,,,,,,,,,,,,,,,,,,,,,109,001,2010-10-15_09h07.42.612,eb_01,2022.2.4,119.99645035503994,
4,stimuli/4.png,l,0,0,0,0,58,0,58,0,0,0,0,0,,,,,,,,,,,,,,,,,,213.6237036321545,213.6237036321545,213.6237036321545,213.6237036321545,l,1,0.5434604540932924,214.1904057158099,214.1904057158099,214.1904057158099,,,,,,,,,,,,,,,,,,,,,,,,,,,,109,001,2010-10-15_09h07.42.612,eb_01,2022.2.4,119.99645035503994,
,,,0,0,0,0,58,0,58,0,,,,,,,,,,,,,,,,,,,,,,,,,,,,,,,,,,,,,,,,,,,,,,,,,,,,,,,,,,,109,001,2010-10-15_09h07.42.612,eb_01,2022.2.4,119.99645035503994,
3,stimuli/3.png,l,0,0,0,0,59,0,59,0,0,0,0,0,,,,,,,,,,,,,,,,,,215.1987926022848,215.1987926022848,215.1987926022848,215.1987926022848,l,1,0.400399519741768,215.62386270679417,215.62386270679417,215.62386270679417,,,,,,,,,,,,,,,,,,,,,,,,,,,,109,001,2010-10-15_09h07.42.612,eb_01,2022.2.4,119.99645035503994,
,,,0,0,0,0,59,0,59,0,,,,,,,,,,,,,,,,,,,,,,,,,,,,,,,,,,,,,,,,,,,,,,,,,,,,,,,,,,,109,001,2010-10-15_09h07.42.612,eb_01,2022.2.4,119.99645035503994,
4,stimuli/4.png,l,0,0,0,0,60,0,60,0,0,0,0,0,,,,,,,,,,,,,,,,,,216.64060206888826,216.64060206888826,216.64060206888826,216.64060206888826,l,1,0.478604783420451,217.14064402595977,217.14064402595977,217.14064402595977,,,,,,,,,,,,,,,,,,,,,,,,,,,,109,001,2010-10-15_09h07.42.612,eb_01,2022.2.4,119.99645035503994,
,,,0,0,0,0,60,0,60,0,,,,,,,,,,,,,,,,,,,,,,,,,,,,,,,,,,,,,,,,,,,,,,,,,,,,,,,,,,,109,001,2010-10-15_09h07.42.612,eb_01,2022.2.4,119.99645035503994,
2,stimuli/2.png,s,0,0,0,0,61,0,61,0,0,0,0,0,,,,,,,,,,,,,,,,,,218.14905988995451,218.14905988995451,218.14905988995451,218.14905988995451,s,1,0.41018185613211244,218.57411641124054,218.57411641124054,218.57411641124054,219.5992170025711,219.5992170025711,219.5992170025711,,,,,,,,,,,,,,,,,,,,,,,,,109,001,2010-10-15_09h07.42.612,eb_01,2022.2.4,119.99645035503994,
,,,0,0,0,0,61,0,61,0,,,,,,,,,,,,,,,,,,,,,,,,,,,,,,,,,,,,,,,,,,,,,,,,,,,,,,,,,,,109,001,2010-10-15_09h07.42.612,eb_01,2022.2.4,119.99645035503994,
1,stimuli/1.png,s,0,0,0,0,62,0,62,0,0,0,0,0,,,,,,,,,,,,,,,,,,219.5992170025711,219.5992170025711,219.5992170025711,219.5992170025711,s,1,0.4400435185234528,220.06587622361258,220.06587622361258,220.06587622361258,,,,,,,,,,,,,,,,,,,,,,,,,,,,109,001,2010-10-15_09h07.42.612,eb_01,2022.2.4,119.99645035503994,
,,,0,0,0,0,62,0,62,0,,,,,,,,,,,,,,,,,,,,,,,,,,,,,,,,,,,,,,,,,,,,,,,,,,,,,,,,,,,109,001,2010-10-15_09h07.42.612,eb_01,2022.2.4,119.99645035503994,
4,stimuli/4.png,l,0,0,0,0,63,0,63,0,0,0,0,0,,,,,,,,,,,,,,,,,,221.0743512501067,221.0743512501067,221.0743512501067,221.0743512501067,l,1,0.772960802714806,221.86607785904198,221.86607785904198,221.86607785904198,,,,,,,,,,,,,,,,,,,,,,,,,,,,109,001,2010-10-15_09h07.42.612,eb_01,2022.2.4,119.99645035503994,
,,,0,0,0,0,63,0,63,0,,,,,,,,,,,,,,,,,,,,,,,,,,,,,,,,,,,,,,,,,,,,,,,,,,,,,,,,,,,109,001,2010-10-15_09h07.42.612,eb_01,2022.2.4,119.99645035503994,
3,stimuli/3.png,l,0,0,0,0,64,0,64,0,0,0,0,0,,,,,,,,,,,,,,,,,,222.87446504735271,222.87446504735271,222.87446504735271,222.87446504735271,l,1,0.5089068441302516,223.3995571868727,223.3995571868727,223.3995571868727,224.4162482530519,224.4162482530519,224.4162482530519,,,,,,,,,,,,,,,,,,,,,,,,,109,001,2010-10-15_09h07.42.612,eb_01,2022.2.4,119.99645035503994,
,,,0,0,0,0,64,0,64,0,,,,,,,,,,,,,,,,,,,,,,,,,,,,,,,,,,,,,,,,,,,,,,,,,,,,,,,,,,,109,001,2010-10-15_09h07.42.612,eb_01,2022.2.4,119.99645035503994,
4,stimuli/4.png,l,0,0,0,0,65,0,65,0,0,0,0,0,,,,,,,,,,,,,,,,,,224.4162482530519,224.4162482530519,224.4162482530519,224.4162482530519,l,1,0.8060939092829358,225.24131775388378,225.24131775388378,225.24131775388378,,,,,,,,,,,,,,,,,,,,,,,,,,,,109,001,2010-10-15_09h07.42.612,eb_01,2022.2.4,119.99645035503994,
,,,0,0,0,0,65,0,65,0,,,,,,,,,,,,,,,,,,,,,,,,,,,,,,,,,,,,,,,,,,,,,,,,,,,,,,,,,,,109,001,2010-10-15_09h07.42.612,eb_01,2022.2.4,119.99645035503994,
1,stimuli/1.png,s,0,0,0,0,66,0,66,0,0,0,0,0,,,,,,,,,,,,,,,,,,226.26647660214803,226.26647660214803,226.26647660214803,226.26647660214803,s,1,0.44392711331602186,226.7414873932721,226.7414873932721,226.7414873932721,,,,,,,,,,,,,,,,,,,,,,,,,,,,109,001,2010-10-15_09h07.42.612,eb_01,2022.2.4,119.99645035503994,
,,,0,0,0,0,66,0,66,0,,,,,,,,,,,,,,,,,,,,,,,,,,,,,,,,,,,,,,,,,,,,,,,,,,,,,,,,,,,109,001,2010-10-15_09h07.42.612,eb_01,2022.2.4,119.99645035503994,
2,stimuli/2.png,s,0,0,0,0,67,0,67,0,0,0,0,0,,,,,,,,,,,,,,,,,,227.74155017794692,227.74155017794692,227.74155017794692,227.74155017794692,s,1,0.688901773042744,228.44160873672809,228.44160873672809,228.44160873672809,229.45838069854653,229.45838069854653,229.45838069854653,,,,,,,,,,,,,,,,,,,,,,,,,109,001,2010-10-15_09h07.42.612,eb_01,2022.2.4,119.99645035503994,
,,,0,0,0,0,67,0,67,0,,,,,,,,,,,,,,,,,,,,,,,,,,,,,,,,,,,,,,,,,,,,,,,,,,,,,,,,,,,109,001,2010-10-15_09h07.42.612,eb_01,2022.2.4,119.99645035503994,
4,stimuli/4.png,l,0,0,0,0,68,0,68,0,0,0,0,0,,,,,,,,,,,,,,,,,,229.45838069854653,229.45838069854653,229.45838069854653,229.45838069854653,l,1,0.4280963180353865,229.90842190099647,229.90842190099647,229.90842190099647,,,,,,,,,,,,,,,,,,,,,,,,,,,,109,001,2010-10-15_09h07.42.612,eb_01,2022.2.4,119.99645035503994,
,,,0,0,0,0,68,0,68,0,,,,,,,,,,,,,,,,,,,,,,,,,,,,,,,,,,,,,,,,,,,,,,,,,,,,,,,,,,,109,001,2010-10-15_09h07.42.612,eb_01,2022.2.4,119.99645035503994,
2,stimuli/2.png,s,0,0,0,0,69,0,69,0,0,0,0,0,,,,,,,,,,,,,,,,,,230.91684500937117,230.91684500937117,230.91684500937117,230.91684500937117,l,0,0.5856677582487464,231.5252285754832,231.5252285754832,231.5252285754832,,,,,,,,,,,,,,,,,,,,,,,,,,,,109,001,2010-10-15_09h07.42.612,eb_01,2022.2.4,119.99645035503994,
,,,0,0,0,0,69,0,69,0,,,,,,,,,,,,,,,,,,,,,,,,,,,,,,,,,,,,,,,,,,,,,,,,,,,,,,,,,,,109,001,2010-10-15_09h07.42.612,eb_01,2022.2.4,119.99645035503994,
4,stimuli/4.png,l,0,0,0,0,70,0,70,0,0,0,0,0,,,,,,,,,,,,,,,,,,232.54199148181942,232.54199148181942,232.54199148181942,232.54199148181942,l,1,0.6165732159861363,233.17537180302315,233.17537180302315,233.17537180302315,,,,,,,,,,,,,,,,,,,,,,,,,,,,109,001,2010-10-15_09h07.42.612,eb_01,2022.2.4,119.99645035503994,
,,,0,0,0,0,70,0,70,0,,,,,,,,,,,,,,,,,,,,,,,,,,,,,,,,,,,,,,,,,,,,,,,,,,,,,,,,,,,109,001,2010-10-15_09h07.42.612,eb_01,2022.2.4,119.99645035503994,
2,stimuli/2.png,s,0,0,0,0,71,0,71,0,0,0,0,0,,,,,,,,,,,,,,,,,,234.18380155210616,234.18380155210616,234.18380155210616,234.18380155210616,s,1,0.49474889840348624,234.6922020217753,234.6922020217753,234.6922020217753,235.71723560252576,235.71723560252576,235.71723560252576,,,,,,,,,,,,,,,,,,,,,,,,,109,001,2010-10-15_09h07.42.612,eb_01,2022.2.4,119.99645035503994,
,,,0,0,0,0,71,0,71,0,,,,,,,,,,,,,,,,,,,,,,,,,,,,,,,,,,,,,,,,,,,,,,,,,,,,,,,,,,,109,001,2010-10-15_09h07.42.612,eb_01,2022.2.4,119.99645035503994,
1,stimuli/1.png,s,0,0,0,0,72,0,72,0,0,0,0,0,,,,,,,,,,,,,,,,,,235.71723560252576,235.71723560252576,235.71723560252576,235.71723560252576,s,1,0.609386482858099,236.35898590664146,236.35898590664146,236.35898590664146,,,,,,,,,,,,,,,,,,,,,,,,,,,,109,001,2010-10-15_09h07.42.612,eb_01,2022.2.4,119.99645035503994,
,,,0,0,0,0,72,0,72,0,,,,,,,,,,,,,,,,,,,,,,,,,,,,,,,,,,,,,,,,,,,,,,,,,,,,,,,,,,,109,001,2010-10-15_09h07.42.612,eb_01,2022.2.4,119.99645035503994,
4,stimuli/4.png,l,0,0,0,0,73,0,73,0,0,0,0,0,,,,,,,,,,,,,,,,,,237.36740629837732,237.36740629837732,237.36740629837732,237.36740629837732,l,1,0.8862953032366931,238.27579107190832,238.27579107190832,238.27579107190832,,,,,,,,,,,,,,,,,,,,,,,,,,,,109,001,2010-10-15_09h07.42.612,eb_01,2022.2.4,119.99645035503994,
,,,0,0,0,0,73,0,73,0,,,,,,,,,,,,,,,,,,,,,,,,,,,,,,,,,,,,,,,,,,,,,,,,,,,,,,,,,,,109,001,2010-10-15_09h07.42.612,eb_01,2022.2.4,119.99645035503994,
3,stimuli/3.png,l,0,0,0,0,74,0,74,0,0,0,0,0,,,,,,,,,,,,,,,,,,239.28420663403813,239.28420663403813,239.28420663403813,239.28420663403813,l,1,0.5614536986977328,239.86763057252392,239.86763057252392,239.86763057252392,,,,,,,,,,,,,,,,,,,,,,,,,,,,109,001,2010-10-15_09h07.42.612,eb_01,2022.2.4,119.99645035503994,
,,,0,0,0,0,74,0,74,0,,,,,,,,,,,,,,,,,,,,,,,,,,,,,,,,,,,,,,,,,,,,,,,,,,,,,,,,,,,109,001,2010-10-15_09h07.42.612,eb_01,2022.2.4,119.99645035503994,
2,stimuli/2.png,s,0,0,0,0,75,0,75,0,0,0,0,0,,,,,,,,,,,,,,,,,,240.87599542396492,240.87599542396492,240.87599542396492,240.87599542396492,s,1,0.593725930666551,241.484412495367,241.484412495367,241.484412495367,242.50116936469567,242.50116936469567,242.50116936469567,,,,,,,,,,,,,,,,,,,,,,,,,109,001,2010-10-15_09h07.42.612,eb_01,2022.2.4,119.99645035503994,
,,,0,0,0,0,75,0,75,0,,,,,,,,,,,,,,,,,,,,,,,,,,,,,,,,,,,,,,,,,,,,,,,,,,,,,,,,,,,109,001,2010-10-15_09h07.42.612,eb_01,2022.2.4,119.99645035503994,
4,stimuli/4.png,l,0,0,0,0,76,0,76,0,0,0,0,0,,,,,,,,,,,,,,,,,,242.50116936469567,242.50116936469567,242.50116936469567,242.50116936469567,l,1,0.47257202066248283,242.99285733691067,242.99285733691067,242.99285733691067,,,,,,,,,,,,,,,,,,,,,,,,,,,,109,001,2010-10-15_09h07.42.612,eb_01,2022.2.4,119.99645035503994,
,,,0,0,0,0,76,0,76,0,,,,,,,,,,,,,,,,,,,,,,,,,,,,,,,,,,,,,,,,,,,,,,,,,,,,,,,,,,,109,001,2010-10-15_09h07.42.612,eb_01,2022.2.4,119.99645035503994,
1,stimuli/1.png,s,0,0,0,0,77,0,77,0,0,0,0,0,,,,,,,,,,,,,,,,,,244.0179684929608,244.0179684929608,244.0179684929608,244.0179684929608,s,1,0.5238188097428065,244.56802508971305,244.56802508971305,244.56802508971305,,,,,,,,,,,,,,,,,,,,,,,,,,,,109,001,2010-10-15_09h07.42.612,eb_01,2022.2.4,119.99645035503994,
,,,0,0,0,0,77,0,77,0,,,,,,,,,,,,,,,,,,,,,,,,,,,,,,,,,,,,,,,,,,,,,,,,,,,,,,,,,,,109,001,2010-10-15_09h07.42.612,eb_01,2022.2.4,119.99645035503994,
2,stimuli/2.png,s,0,0,0,0,78,0,78,0,0,0,0,0,,,,,,,,,,,,,,,,,,245.56810236317688,245.56810236317688,245.56810236317688,245.56810236317688,s,1,0.6376948280958459,246.21815020631766,246.21815020631766,246.21815020631766,247.22656033516978,247.22656033516978,247.22656033516978,,,,,,,,,,,,,,,,,,,,,,,,,109,001,2010-10-15_09h07.42.612,eb_01,2022.2.4,119.99645035503994,
,,,0,0,0,0,78,0,78,0,,,,,,,,,,,,,,,,,,,,,,,,,,,,,,,,,,,,,,,,,,,,,,,,,,,,,,,,,,,109,001,2010-10-15_09h07.42.612,eb_01,2022.2.4,119.99645035503994,
3,stimuli/3.png,l,0,0,0,0,79,0,79,0,0,0,0,0,,,,,,,,,,,,,,,,,,247.22656033516978,247.22656033516978,247.22656033516978,247.22656033516978,l,1,0.4192654110665899,247.6599376379163,247.6599376379163,247.6599376379163,248.66834625753108,248.66834625753108,248.66834625753108,,,,,,,,,,,,,,,,,,,,,,,,,109,001,2010-10-15_09h07.42.612,eb_01,2022.2.4,119.99645035503994,
,,,0,0,0,0,79,0,79,0,,,,,,,,,,,,,,,,,,,,,,,,,,,,,,,,,,,,,,,,,,,,,,,,,,,,,,,,,,,109,001,2010-10-15_09h07.42.612,eb_01,2022.2.4,119.99645035503994,
8,stimuli/8.png,l,0,0,0,0,80,0,80,0,0,0,0,0,,,,,,,,,,,,,,,,,,248.66834625753108,248.66834625753108,248.66834625753108,248.66834625753108,l,1,0.6014979498286266,249.29341273984755,249.29341273984755,249.29341273984755,,,,,,,,,,,,,,,,,,,,,,,,,,,,109,001,2010-10-15_09h07.42.612,eb_01,2022.2.4,119.99645035503994,
,,,0,0,0,0,80,0,80,0,,,,,,,,,,,,,,,,,,,,,,,,,,,,,,,,,,,,,,,,,,,,,,,,,,,,,,,,,,,109,001,2010-10-15_09h07.42.612,eb_01,2022.2.4,119.99645035503994,
3,stimuli/3.png,l,0,0,0,0,81,0,81,0,0,0,0,0,,,,,,,,,,,,,,,,,,250.3018452055694,250.3018452055694,250.3018452055694,250.3018452055694,l,1,0.5600271582952701,250.87686112814117,250.87686112814117,250.87686112814117,251.8853074789222,251.8853074789222,251.8853074789222,,,,,,,,,,,,,,,,,,,,,,,,,109,001,2010-10-15_09h07.42.612,eb_01,2022.2.4,119.99645035503994,
,,,0,0,0,0,81,0,81,0,,,,,,,,,,,,,,,,,,,,,,,,,,,,,,,,,,,,,,,,,,,,,,,,,,,,,,,,,,,109,001,2010-10-15_09h07.42.612,eb_01,2022.2.4,119.99645035503994,
2,stimuli/2.png,s,0,0,0,0,82,0,82,0,0,0,0,0,,,,,,,,,,,,,,,,,,251.8853074789222,251.8853074789222,251.8853074789222,251.8853074789222,s,1,0.5926196525106207,252.4937007042172,252.4937007042172,252.4937007042172,253.51045636614435,253.51045636614435,253.51045636614435,,,,,,,,,,,,,,,,,,,,,,,,,109,001,2010-10-15_09h07.42.612,eb_01,2022.2.4,119.99645035503994,
,,,0,0,0,0,82,0,82,0,,,,,,,,,,,,,,,,,,,,,,,,,,,,,,,,,,,,,,,,,,,,,,,,,,,,,,,,,,,109,001,2010-10-15_09h07.42.612,eb_01,2022.2.4,119.99645035503994,
4,stimuli/4.png,l,0,0,0,0,83,0,83,0,0,0,0,0,,,,,,,,,,,,,,,,,,253.51045636614435,253.51045636614435,253.51045636614435,253.51045636614435,l,1,0.5745524547819514,254.1021301514411,254.1021301514411,254.1021301514411,,,,,,,,,,,,,,,,,,,,,,,,,,,,109,001,2010-10-15_09h07.42.612,eb_01,2022.2.4,119.99645035503994,
,,,0,0,0,0,83,0,83,0,,,,,,,,,,,,,,,,,,,,,,,,,,,,,,,,,,,,,,,,,,,,,,,,,,,,,,,,,,,109,001,2010-10-15_09h07.42.612,eb_01,2022.2.4,119.99645035503994,
2,stimuli/2.png,s,0,0,0,0,84,0,84,0,0,0,0,0,,,,,,,,,,,,,,,,,,255.1105786151602,255.1105786151602,255.1105786151602,255.1105786151602,s,1,0.5504029910080135,255.67731118563097,255.67731118563097,255.67731118563097,256.70236589584965,256.70236589584965,256.70236589584965,,,,,,,,,,,,,,,,,,,,,,,,,109,001,2010-10-15_09h07.42.612,eb_01,2022.2.4,119.99645035503994,
,,,0,0,0,0,84,0,84,0,,,,,,,,,,,,,,,,,,,,,,,,,,,,,,,,,,,,,,,,,,,,,,,,,,,,,,,,,,,109,001,2010-10-15_09h07.42.612,eb_01,2022.2.4,119.99645035503994,
1,stimuli/1.png,s,0,0,0,0,85,0,85,0,0,0,0,0,,,,,,,,,,,,,,,,,,256.70236589584965,256.70236589584965,256.70236589584965,256.70236589584965,l,0,0.41465798133867793,257.14409144831006,257.14409144831006,257.14409144831006,,,,,,,,,,,,,,,,,,,,,,,,,,,,109,001,2010-10-15_09h07.42.612,eb_01,2022.2.4,119.99645035503994,
,,,0,0,0,0,85,0,85,0,,,,,,,,,,,,,,,,,,,,,,,,,,,,,,,,,,,,,,,,,,,,,,,,,,,,,,,,,,,109,001,2010-10-15_09h07.42.612,eb_01,2022.2.4,119.99645035503994,
4,stimuli/4.png,l,0,0,0,0,86,0,86,0,0,0,0,0,,,,,,,,,,,,,,,,,,258.15252210292965,258.15252210292965,258.15252210292965,258.15252210292965,l,1,0.8365471965807956,259.0108931422874,259.0108931422874,259.0108931422874,,,,,,,,,,,,,,,,,,,,,,,,,,,,109,001,2010-10-15_09h07.42.612,eb_01,2022.2.4,119.99645035503994,
,,,0,0,0,0,86,0,86,0,,,,,,,,,,,,,,,,,,,,,,,,,,,,,,,,,,,,,,,,,,,,,,,,,,,,,,,,,,,109,001,2010-10-15_09h07.42.612,eb_01,2022.2.4,119.99645035503994,
3,stimuli/3.png,l,0,0,0,0,87,0,87,0,0,0,0,0,,,,,,,,,,,,,,,,,,260.0193491522514,260.0193491522514,260.0193491522514,260.0193491522514,s,0,0.45776117462082766,260.494382582081,260.494382582081,260.494382582081,,,,,,,,,,,,,,,,,,,,,,,,,,,,109,001,2010-10-15_09h07.42.612,eb_01,2022.2.4,119.99645035503994,
,,,0,0,0,0,87,0,87,0,,,,,,,,,,,,,,,,,,,,,,,,,,,,,,,,,,,,,,,,,,,,,,,,,,,,,,,,,,,109,001,2010-10-15_09h07.42.612,eb_01,2022.2.4,119.99645035503994,
4,stimuli/4.png,l,0,0,0,0,88,0,88,0,0,0,0,0,,,,,,,,,,,,,,,,,,261.5111207367445,261.5111207367445,261.5111207367445,261.5111207367445,l,1,0.9820002876513172,262.51124690982397,262.51124690982397,262.51124690982397,,,,,,,,,,,,,,,,,,,,,,,,,,,,109,001,2010-10-15_09h07.42.612,eb_01,2022.2.4,119.99645035503994,
,,,0,0,0,0,88,0,88,0,,,,,,,,,,,,,,,,,,,,,,,,,,,,,,,,,,,,,,,,,,,,,,,,,,,,,,,,,,,109,001,2010-10-15_09h07.42.612,eb_01,2022.2.4,119.99645035503994,
3,stimuli/3.png,l,0,0,0,0,89,0,89,0,0,0,0,0,,,,,,,,,,,,,,,,,,263.5196473794931,263.5196473794931,263.5196473794931,263.5196473794931,l,1,0.4935149379016366,264.02801374017145,264.02801374017145,264.02801374017145,265.0364449984918,265.0364449984918,265.0364449984918,,,,,,,,,,,,,,,,,,,,,,,,,109,001,2010-10-15_09h07.42.612,eb_01,2022.2.4,119.99645035503994,
,,,0,0,0,0,89,0,89,0,,,,,,,,,,,,,,,,,,,,,,,,,,,,,,,,,,,,,,,,,,,,,,,,,,,,,,,,,,,109,001,2010-10-15_09h07.42.612,eb_01,2022.2.4,119.99645035503994,
2,stimuli/2.png,s,0,0,0,0,90,0,90,0,0,0,0,0,,,,,,,,,,,,,,,,,,265.0364449984918,265.0364449984918,265.0364449984918,265.0364449984918,s,1,0.5207628860953264,265.56981264206115,265.56981264206115,265.56981264206115,266.57820073590847,266.57820073590847,266.57820073590847,,,,,,,,,,,,,,,,,,,,,,,,,109,001,2010-10-15_09h07.42.612,eb_01,2022.2.4,119.99645035503994,
,,,0,0,0,0,90,0,90,0,,,,,,,,,,,,,,,,,,,,,,,,,,,,,,,,,,,,,,,,,,,,,,,,,,,,,,,,,,,109,001,2010-10-15_09h07.42.612,eb_01,2022.2.4,119.99645035503994,
3,stimuli/3.png,l,0,0,0,0,91,0,91,0,0,0,0,0,,,,,,,,,,,,,,,,,,266.57820073590847,266.57820073590847,266.57820073590847,266.57820073590847,l,1,0.6350388549617492,267.2365883769817,267.2365883769817,267.2365883769817,,,,,,,,,,,,,,,,,,,,,,,,,,,,109,001,2010-10-15_09h07.42.612,eb_01,2022.2.4,119.99645035503994,
,,,0,0,0,0,91,0,91,0,,,,,,,,,,,,,,,,,,,,,,,,,,,,,,,,,,,,,,,,,,,,,,,,,,,,,,,,,,,109,001,2010-10-15_09h07.42.612,eb_01,2022.2.4,119.99645035503994,
2,stimuli/2.png,s,0,0,0,0,92,0,92,0,0,0,0,0,,,,,,,,,,,,,,,,,,268.2450434814091,268.2450434814091,268.2450434814091,268.2450434814091,s,1,0.6393187780340668,268.89510309667094,268.89510309667094,268.89510309667094,269.9201973491581,269.9201973491581,269.9201973491581,,,,,,,,,,,,,,,,,,,,,,,,,109,001,2010-10-15_09h07.42.612,eb_01,2022.2.4,119.99645035503994,
,,,0,0,0,0,92,0,92,0,,,,,,,,,,,,,,,,,,,,,,,,,,,,,,,,,,,,,,,,,,,,,,,,,,,,,,,,,,,109,001,2010-10-15_09h07.42.612,eb_01,2022.2.4,119.99645035503994,
1,stimuli/1.png,s,0,0,0,0,93,0,93,0,0,0,0,0,,,,,,,,,,,,,,,,,,269.9201973491581,269.9201973491581,269.9201973491581,269.9201973491581,s,1,0.47613806984736584,270.4285727653187,270.4285727653187,270.4285727653187,,,,,,,,,,,,,,,,,,,,,,,,,,,,109,001,2010-10-15_09h07.42.612,eb_01,2022.2.4,119.99645035503994,
,,,0,0,0,0,93,0,93,0,,,,,,,,,,,,,,,,,,,,,,,,,,,,,,,,,,,,,,,,,,,,,,,,,,,,,,,,,,,109,001,2010-10-15_09h07.42.612,eb_01,2022.2.4,119.99645035503994,
2,stimuli/2.png,s,0,0,0,0,94,0,94,0,0,0,0,0,,,,,,,,,,,,,,,,,,271.4286599998304,271.4286599998304,271.4286599998304,271.4286599998304,s,1,0.5276906323852018,271.9703970225528,271.9703970225528,271.9703970225528,272.9787808905239,272.9787808905239,272.9787808905239,,,,,,,,,,,,,,,,,,,,,,,,,109,001,2010-10-15_09h07.42.612,eb_01,2022.2.4,119.99645035503994,
,,,0,0,0,0,94,0,94,0,,,,,,,,,,,,,,,,,,,,,,,,,,,,,,,,,,,,,,,,,,,,,,,,,,,,,,,,,,,109,001,2010-10-15_09h07.42.612,eb_01,2022.2.4,119.99645035503994,
3,stimuli/3.png,l,0,0,0,0,95,0,95,0,0,0,0,0,,,,,,,,,,,,,,,,,,272.9787808905239,272.9787808905239,272.9787808905239,272.9787808905239,l,1,0.5375879733765032,273.5288290354947,273.5288290354947,273.5288290354947,274.54557775490684,274.54557775490684,274.54557775490684,,,,,,,,,,,,,,,,,,,,,,,,,109,001,2010-10-15_09h07.42.612,eb_01,2022.2.4,119.99645035503994,
,,,0,0,0,0,95,0,95,0,,,,,,,,,,,,,,,,,,,,,,,,,,,,,,,,,,,,,,,,,,,,,,,,,,,,,,,,,,,109,001,2010-10-15_09h07.42.612,eb_01,2022.2.4,119.99645035503994,
4,stimuli/4.png,l,0,0,0,0,96,0,96,0,0,0,0,0,,,,,,,,,,,,,,,,,,274.54557775490684,274.54557775490684,274.54557775490684,274.54557775490684,l,1,0.6828010941972025,275.24560582690174,275.24560582690174,275.24560582690174,,,,,,,,,,,,,,,,,,,,,,,,,,,,109,001,2010-10-15_09h07.42.612,eb_01,2022.2.4,119.99645035503994,
,,,0,0,0,0,96,0,96,0,,,,,,,,,,,,,,,,,,,,,,,,,,,,,,,,,,,,,,,,,,,,,,,,,,,,,,,,,,,109,001,2010-10-15_09h07.42.612,eb_01,2022.2.4,119.99645035503994,
2,stimuli/2.png,s,0,0,0,0,97,0,97,0,0,0,0,0,,,,,,,,,,,,,,,,,,276.2540262186376,276.2540262186376,276.2540262186376,276.2540262186376,s,1,0.5743840227951296,276.8374284239544,276.8374284239544,276.8374284239544,277.8625676520169,277.8625676520169,277.8625676520169,,,,,,,,,,,,,,,,,,,,,,,,,109,001,2010-10-15_09h07.42.612,eb_01,2022.2.4,119.99645035503994,
,,,0,0,0,0,97,0,97,0,,,,,,,,,,,,,,,,,,,,,,,,,,,,,,,,,,,,,,,,,,,,,,,,,,,,,,,,,,,109,001,2010-10-15_09h07.42.612,eb_01,2022.2.4,119.99645035503994,
1,stimuli/1.png,s,0,0,0,0,98,0,98,0,0,0,0,0,,,,,,,,,,,,,,,,,,277.8625676520169,277.8625676520169,277.8625676520169,277.8625676520169,s,1,0.8219065935991239,278.7126441708242,278.7126441708242,278.7126441708242,,,,,,,,,,,,,,,,,,,,,,,,,,,,109,001,2010-10-15_09h07.42.612,eb_01,2022.2.4,119.99645035503994,
,,,0,0,0,0,98,0,98,0,,,,,,,,,,,,,,,,,,,,,,,,,,,,,,,,,,,,,,,,,,,,,,,,,,,,,,,,,,,109,001,2010-10-15_09h07.42.612,eb_01,2022.2.4,119.99645035503994,
2,stimuli/2.png,s,0,0,0,0,99,0,99,0,0,0,0,0,,,,,,,,,,,,,,,,,,279.7127036351594,279.7127036351594,279.7127036351594,279.7127036351594,s,1,0.5957857511821203,280.3210781457892,280.3210781457892,280.3210781457892,281.3211176880868,281.3211176880868,281.3211176880868,,,,,,,,,,,,,,,,,,,,,,,,,109,001,2010-10-15_09h07.42.612,eb_01,2022.2.4,119.99645035503994,
,,,0,0,0,0,99,0,99,0,,,,,,,,,,,,,,,,,,,,,,,,,,,,,,,,,,,,,,,,,,,,,,,,,,,,,,,,,,,109,001,2010-10-15_09h07.42.612,eb_01,2022.2.4,119.99645035503994,
,,,0,0,0,0,,,,,,,,,,,,,,,,,,,,,,,,,,,,,,,,,,,,,,,281.3211176880868,281.3211176880868,return,5.010461368714459,,,,,,,,,,,,,,,,,,,,,109,001,2010-10-15_09h07.42.612,eb_01,2022.2.4,119.99645035503994,
4,stimuli/4.png,l,1,0,1,0,0,0,0,0,0,0,0,0,,,,,,,,,,,,,,,,,,286.363229607814,286.363229607814,286.363229607814,286.363229607814,l,1,1.576440824806923,287.9634107174643,287.9634107174643,287.9634107174643,,,,,,,,,,,,,,,,,,,,,,,,,,,,109,001,2010-10-15_09h07.42.612,eb_01,2022.2.4,119.99645035503994,
,,,1,0,1,0,0,0,0,0,,,,,,,,,,,,,,,,,,,,,,,,,,,,,,,,,,,,,,,,,,,,,,,,,,,,,,,,,,,109,001,2010-10-15_09h07.42.612,eb_01,2022.2.4,119.99645035503994,
3,stimuli/3.png,l,1,0,1,0,1,0,1,0,0,0,0,0,,,,,,,,,,,,,,,,,,288.9718163185753,288.9718163185753,288.9718163185753,288.9718163185753,l,1,0.7278699309390504,289.71354730433086,289.71354730433086,289.71354730433086,290.721981581155,290.721981581155,290.721981581155,,,,,,,,,,,,,,,,,,,,,,,,,109,001,2010-10-15_09h07.42.612,eb_01,2022.2.4,119.99645035503994,
,,,1,0,1,0,1,0,1,0,,,,,,,,,,,,,,,,,,,,,,,,,,,,,,,,,,,,,,,,,,,,,,,,,,,,,,,,,,,109,001,2010-10-15_09h07.42.612,eb_01,2022.2.4,119.99645035503994,
8,stimuli/8.png,l,1,0,1,0,2,0,2,0,0,0,0,0,,,,,,,,,,,,,,,,,,290.721981581155,290.721981581155,290.721981581155,290.721981581155,l,1,0.5456878010299988,291.28865046138526,291.28865046138526,291.28865046138526,,,,,,,,,,,,,,,,,,,,,,,,,,,,109,001,2010-10-15_09h07.42.612,eb_01,2022.2.4,119.99645035503994,
,,,1,0,1,0,2,0,2,0,,,,,,,,,,,,,,,,,,,,,,,,,,,,,,,,,,,,,,,,,,,,,,,,,,,,,,,,,,,109,001,2010-10-15_09h07.42.612,eb_01,2022.2.4,119.99645035503994,
3,stimuli/3.png,l,1,0,1,0,3,0,3,0,0,0,0,0,,,,,,,,,,,,,,,,,,292.2971034528455,292.2971034528455,292.2971034528455,292.2971034528455,l,1,0.5386341835255735,292.84711507405154,292.84711507405154,292.84711507405154,293.85555025641224,293.85555025641224,293.85555025641224,,,,,,,,,,,,,,,,,,,,,,,,,109,001,2010-10-15_09h07.42.612,eb_01,2022.2.4,119.99645035503994,
,,,1,0,1,0,3,0,3,0,,,,,,,,,,,,,,,,,,,,,,,,,,,,,,,,,,,,,,,,,,,,,,,,,,,,,,,,,,,109,001,2010-10-15_09h07.42.612,eb_01,2022.2.4,119.99645035503994,
2,stimuli/2.png,s,1,0,1,0,4,0,4,0,0,0,0,0,,,,,,,,,,,,,,,,,,293.85555025641224,293.85555025641224,293.85555025641224,293.85555025641224,s,1,0.50027576147113,294.3722850907361,294.3722850907361,294.3722850907361,295.3807136324176,295.3807136324176,295.3807136324176,,,,,,,,,,,,,,,,,,,,,,,,,109,001,2010-10-15_09h07.42.612,eb_01,2022.2.4,119.99645035503994,
,,,1,0,1,0,4,0,4,0,,,,,,,,,,,,,,,,,,,,,,,,,,,,,,,,,,,,,,,,,,,,,,,,,,,,,,,,,,,109,001,2010-10-15_09h07.42.612,eb_01,2022.2.4,119.99645035503994,
3,stimuli/3.png,l,1,0,1,0,5,0,5,0,0,0,0,0,,,,,,,,,,,,,,,,,,295.3807136324176,295.3807136324176,295.3807136324176,295.3807136324176,l,1,0.3831177342508454,295.77236598639865,295.77236598639865,295.77236598639865,296.78918111269013,296.78918111269013,296.78918111269013,,,,,,,,,,,,,,,,,,,,,,,,,109,001,2010-10-15_09h07.42.612,eb_01,2022.2.4,119.99645035503994,
,,,1,0,1,0,5,0,5,0,,,,,,,,,,,,,,,,,,,,,,,,,,,,,,,,,,,,,,,,,,,,,,,,,,,,,,,,,,,109,001,2010-10-15_09h07.42.612,eb_01,2022.2.4,119.99645035503994,
4,stimuli/4.png,l,1,0,1,0,6,0,6,0,0,0,0,0,,,,,,,,,,,,,,,,,,296.78918111269013,296.78918111269013,296.78918111269013,296.78918111269013,s,0,0.40665957509190775,297.21420261944877,297.21420261944877,297.21420261944877,,,,,,,,,,,,,,,,,,,,,,,,,,,,109,001,2010-10-15_09h07.42.612,eb_01,2022.2.4,119.99645035503994,
,,,1,0,1,0,6,0,6,0,,,,,,,,,,,,,,,,,,,,,,,,,,,,,,,,,,,,,,,,,,,,,,,,,,,,,,,,,,,109,001,2010-10-15_09h07.42.612,eb_01,2022.2.4,119.99645035503994,
3,stimuli/3.png,l,1,0,1,0,7,0,7,0,0,0,0,0,,,,,,,,,,,,,,,,,,298.2225907132961,298.2225907132961,298.2225907132961,298.2225907132961,l,1,0.5492683390039019,298.789306078339,298.789306078339,298.789306078339,,,,,,,,,,,,,,,,,,,,,,,,,,,,109,001,2010-10-15_09h07.42.612,eb_01,2022.2.4,119.99645035503994,
,,,1,0,1,0,7,0,7,0,,,,,,,,,,,,,,,,,,,,,,,,,,,,,,,,,,,,,,,,,,,,,,,,,,,,,,,,,,,109,001,2010-10-15_09h07.42.612,eb_01,2022.2.4,119.99645035503994,
2,stimuli/2.png,s,1,0,1,0,8,0,8,0,0,0,0,0,,,,,,,,,,,,,,,,,,299.7977587679634,299.7977587679634,299.7977587679634,299.7977587679634,s,1,0.5821315921493806,300.3894289310556,300.3894289310556,300.3894289310556,301.4062180983019,301.4062180983019,301.4062180983019,,,,,,,,,,,,,,,,,,,,,,,,,109,001,2010-10-15_09h07.42.612,eb_01,2022.2.4,119.99645035503994,
,,,1,0,1,0,8,0,8,0,,,,,,,,,,,,,,,,,,,,,,,,,,,,,,,,,,,,,,,,,,,,,,,,,,,,,,,,,,,109,001,2010-10-15_09h07.42.612,eb_01,2022.2.4,119.99645035503994,
4,stimuli/4.png,l,1,0,1,0,9,0,9,0,0,0,0,0,,,,,,,,,,,,,,,,,,301.4062180983019,301.4062180983019,301.4062180983019,301.4062180983019,l,1,0.5326958996884059,301.95622971947887,301.95622971947887,301.95622971947887,,,,,,,,,,,,,,,,,,,,,,,,,,,,109,001,2010-10-15_09h07.42.612,eb_01,2022.2.4,119.99645035503994,
,,,1,0,1,0,9,0,9,0,,,,,,,,,,,,,,,,,,,,,,,,,,,,,,,,,,,,,,,,,,,,,,,,,,,,,,,,,,,109,001,2010-10-15_09h07.42.612,eb_01,2022.2.4,119.99645035503994,
2,stimuli/2.png,s,1,0,1,0,10,0,10,0,0,0,0,0,,,,,,,,,,,,,,,,,,302.9646959923557,302.9646959923557,302.9646959923557,302.9646959923557,s,1,0.478278484166367,303.45640750881284,303.45640750881284,303.45640750881284,304.47312634511036,304.47312634511036,304.47312634511036,,,,,,,,,,,,,,,,,,,,,,,,,109,001,2010-10-15_09h07.42.612,eb_01,2022.2.4,119.99645035503994,
,,,1,0,1,0,10,0,10,0,,,,,,,,,,,,,,,,,,,,,,,,,,,,,,,,,,,,,,,,,,,,,,,,,,,,,,,,,,,109,001,2010-10-15_09h07.42.612,eb_01,2022.2.4,119.99645035503994,
4,stimuli/4.png,l,1,0,1,0,11,0,11,0,0,0,0,0,,,,,,,,,,,,,,,,,,304.47312634511036,304.47312634511036,304.47312634511036,304.47312634511036,l,1,0.4098766863462515,304.9065172310802,304.9065172310802,304.9065172310802,,,,,,,,,,,,,,,,,,,,,,,,,,,,109,001,2010-10-15_09h07.42.612,eb_01,2022.2.4,119.99645035503994,
,,,1,0,1,0,11,0,11,0,,,,,,,,,,,,,,,,,,,,,,,,,,,,,,,,,,,,,,,,,,,,,,,,,,,,,,,,,,,109,001,2010-10-15_09h07.42.612,eb_01,2022.2.4,119.99645035503994,
2,stimuli/2.png,s,1,0,1,0,12,0,12,0,0,0,0,0,,,,,,,,,,,,,,,,,,305.91495060233865,305.91495060233865,305.91495060233865,305.91495060233865,s,1,0.4640085522842128,306.38994539543637,306.38994539543637,306.38994539543637,307.40673184601474,307.40673184601474,307.40673184601474,,,,,,,,,,,,,,,,,,,,,,,,,109,001,2010-10-15_09h07.42.612,eb_01,2022.2.4,119.99645035503994,
,,,1,0,1,0,12,0,12,0,,,,,,,,,,,,,,,,,,,,,,,,,,,,,,,,,,,,,,,,,,,,,,,,,,,,,,,,,,,109,001,2010-10-15_09h07.42.612,eb_01,2022.2.4,119.99645035503994,
4,stimuli/4.png,l,1,0,1,0,13,0,13,0,0,0,0,0,,,,,,,,,,,,,,,,,,307.40673184601474,307.40673184601474,307.40673184601474,307.40673184601474,l,1,0.41230717799044214,307.8401160912763,307.8401160912763,307.8401160912763,,,,,,,,,,,,,,,,,,,,,,,,,,,,109,001,2010-10-15_09h07.42.612,eb_01,2022.2.4,119.99645035503994,
,,,1,0,1,0,13,0,13,0,,,,,,,,,,,,,,,,,,,,,,,,,,,,,,,,,,,,,,,,,,,,,,,,,,,,,,,,,,,109,001,2010-10-15_09h07.42.612,eb_01,2022.2.4,119.99645035503994,
3,stimuli/3.png,l,1,0,1,0,14,0,14,0,0,0,0,0,,,,,,,,,,,,,,,,,,308.8485337663733,308.8485337663733,308.8485337663733,308.8485337663733,l,1,0.6025070324831177,309.4652269454964,309.4652269454964,309.4652269454964,310.47367389997817,310.47367389997817,310.47367389997817,,,,,,,,,,,,,,,,,,,,,,,,,109,001,2010-10-15_09h07.42.612,eb_01,2022.2.4,119.99645035503994,
,,,1,0,1,0,14,0,14,0,,,,,,,,,,,,,,,,,,,,,,,,,,,,,,,,,,,,,,,,,,,,,,,,,,,,,,,,,,,109,001,2010-10-15_09h07.42.612,eb_01,2022.2.4,119.99645035503994,
8,stimuli/8.png,l,1,0,1,0,15,0,15,0,0,0,0,0,,,,,,,,,,,,,,,,,,310.47367389997817,310.47367389997817,310.47367389997817,310.47367389997817,l,1,0.5934153276029974,311.0903818697261,311.0903818697261,311.0903818697261,,,,,,,,,,,,,,,,,,,,,,,,,,,,109,001,2010-10-15_09h07.42.612,eb_01,2022.2.4,119.99645035503994,
,,,1,0,1,0,15,0,15,0,,,,,,,,,,,,,,,,,,,,,,,,,,,,,,,,,,,,,,,,,,,,,,,,,,,,,,,,,,,109,001,2010-10-15_09h07.42.612,eb_01,2022.2.4,119.99645035503994,
9,stimuli/9.png,l,1,0,1,0,16,0,16,0,0,0,0,0,,,,,,,,,,,,,,,,,,312.1071148929477,312.1071148929477,312.1071148929477,312.1071148929477,l,1,0.6000490725564305,312.73217322534765,312.73217322534765,312.73217322534765,,,,,,,,,,,,,,,,,,,,,,,,,,,,109,001,2010-10-15_09h07.42.612,eb_01,2022.2.4,119.99645035503994,
,,,1,0,1,0,16,0,16,0,,,,,,,,,,,,,,,,,,,,,,,,,,,,,,,,,,,,,,,,,,,,,,,,,,,,,,,,,,,109,001,2010-10-15_09h07.42.612,eb_01,2022.2.4,119.99645035503994,
6,stimuli/6.png,s,1,0,1,0,17,0,17,0,0,0,0,0,,,,,,,,,,,,,,,,,,313.7489551481849,313.7489551481849,313.7489551481849,313.7489551481849,s,1,0.4782000033010263,314.25729645538377,314.25729645538377,314.25729645538377,,,,,,,,,,,,,,,,,,,,,,,,,,,,109,001,2010-10-15_09h07.42.612,eb_01,2022.2.4,119.99645035503994,
,,,1,0,1,0,17,0,17,0,,,,,,,,,,,,,,,,,,,,,,,,,,,,,,,,,,,,,,,,,,,,,,,,,,,,,,,,,,,109,001,2010-10-15_09h07.42.612,eb_01,2022.2.4,119.99645035503994,
9,stimuli/9.png,l,1,0,1,0,18,0,18,0,0,0,0,0,,,,,,,,,,,,,,,,,,315.26574008952593,315.26574008952593,315.26574008952593,315.26574008952593,l,1,0.5534643479331862,315.84913354119635,315.84913354119635,315.84913354119635,,,,,,,,,,,,,,,,,,,,,,,,,,,,109,001,2010-10-15_09h07.42.612,eb_01,2022.2.4,119.99645035503994,
,,,1,0,1,0,18,0,18,0,,,,,,,,,,,,,,,,,,,,,,,,,,,,,,,,,,,,,,,,,,,,,,,,,,,,,,,,,,,109,001,2010-10-15_09h07.42.612,eb_01,2022.2.4,119.99645035503994,
6,stimuli/6.png,s,1,0,1,0,19,0,19,0,0,0,0,0,,,,,,,,,,,,,,,,,,316.86584000170114,316.86584000170114,316.86584000170114,316.86584000170114,s,1,0.4404030212026555,317.3325933997694,317.3325933997694,317.3325933997694,,,,,,,,,,,,,,,,,,,,,,,,,,,,109,001,2010-10-15_09h07.42.612,eb_01,2022.2.4,119.99645035503994,
,,,1,0,1,0,19,0,19,0,,,,,,,,,,,,,,,,,,,,,,,,,,,,,,,,,,,,,,,,,,,,,,,,,,,,,,,,,,,109,001,2010-10-15_09h07.42.612,eb_01,2022.2.4,119.99645035503994,
8,stimuli/8.png,l,1,0,1,0,20,0,20,0,0,0,0,0,,,,,,,,,,,,,,,,,,318.3326341494394,318.3326341494394,318.3326341494394,318.3326341494394,l,1,0.373611288232496,318.72436558795744,318.72436558795744,318.72436558795744,,,,,,,,,,,,,,,,,,,,,,,,,,,,109,001,2010-10-15_09h07.42.612,eb_01,2022.2.4,119.99645035503994,
,,,1,0,1,0,20,0,20,0,,,,,,,,,,,,,,,,,,,,,,,,,,,,,,,,,,,,,,,,,,,,,,,,,,,,,,,,,,,109,001,2010-10-15_09h07.42.612,eb_01,2022.2.4,119.99645035503994,
6,stimuli/6.png,s,1,0,1,0,21,0,21,0,0,0,0,0,,,,,,,,,,,,,,,,,,319.74944504981977,319.74944504981977,319.74944504981977,319.74944504981977,s,1,0.42081148384022526,320.19950647617225,320.19950647617225,320.19950647617225,,,,,,,,,,,,,,,,,,,,,,,,,,,,109,001,2010-10-15_09h07.42.612,eb_01,2022.2.4,119.99645035503994,
,,,1,0,1,0,21,0,21,0,,,,,,,,,,,,,,,,,,,,,,,,,,,,,,,,,,,,,,,,,,,,,,,,,,,,,,,,,,,109,001,2010-10-15_09h07.42.612,eb_01,2022.2.4,119.99645035503994,
5,stimuli/5.png,s,1,0,1,0,22,0,22,0,0,0,0,0,,,,,,,,,,,,,,,,,,321.1995937106549,321.1995937106549,321.1995937106549,321.1995937106549,s,1,0.6347611534874886,321.857981653593,321.857981653593,321.857981653593,,,,,,,,,,,,,,,,,,,,,,,,,,,,109,001,2010-10-15_09h07.42.612,eb_01,2022.2.4,119.99645035503994,
,,,1,0,1,0,22,0,22,0,,,,,,,,,,,,,,,,,,,,,,,,,,,,,,,,,,,,,,,,,,,,,,,,,,,,,,,,,,,109,001,2010-10-15_09h07.42.612,eb_01,2022.2.4,119.99645035503994,
6,stimuli/6.png,s,1,0,1,0,23,0,23,0,0,0,0,0,,,,,,,,,,,,,,,,,,322.8830384767498,322.8830384767498,322.8830384767498,322.8830384767498,s,1,0.4793005463434383,323.3914594721864,323.3914594721864,323.3914594721864,,,,,,,,,,,,,,,,,,,,,,,,,,,,109,001,2010-10-15_09h07.42.612,eb_01,2022.2.4,119.99645035503994,
,,,1,0,1,0,23,0,23,0,,,,,,,,,,,,,,,,,,,,,,,,,,,,,,,,,,,,,,,,,,,,,,,,,,,,,,,,,,,109,001,2010-10-15_09h07.42.612,eb_01,2022.2.4,119.99645035503994,
5,stimuli/5.png,s,1,0,1,0,24,0,24,0,0,0,0,0,,,,,,,,,,,,,,,,,,324.3915243697993,324.3915243697993,324.3915243697993,324.3915243697993,s,1,0.4988558617478702,324.9082256988622,324.9082256988622,324.9082256988622,,,,,,,,,,,,,,,,,,,,,,,,,,,,109,001,2010-10-15_09h07.42.612,eb_01,2022.2.4,119.99645035503994,
,,,1,0,1,0,24,0,24,0,,,,,,,,,,,,,,,,,,,,,,,,,,,,,,,,,,,,,,,,,,,,,,,,,,,,,,,,,,,109,001,2010-10-15_09h07.42.612,eb_01,2022.2.4,119.99645035503994,
6,stimuli/6.png,s,1,0,1,0,25,0,25,0,0,0,0,0,,,,,,,,,,,,,,,,,,325.93333262900705,325.93333262900705,325.93333262900705,325.93333262900705,s,1,0.501120939879911,326.4666978577734,326.4666978577734,326.4666978577734,,,,,,,,,,,,,,,,,,,,,,,,,,,,109,001,2010-10-15_09h07.42.612,eb_01,2022.2.4,119.99645035503994,
,,,1,0,1,0,25,0,25,0,,,,,,,,,,,,,,,,,,,,,,,,,,,,,,,,,,,,,,,,,,,,,,,,,,,,,,,,,,,109,001,2010-10-15_09h07.42.612,eb_01,2022.2.4,119.99645035503994,
5,stimuli/5.png,s,1,0,1,0,26,0,26,0,0,0,0,0,,,,,,,,,,,,,,,,,,327.4667844885553,327.4667844885553,327.4667844885553,327.4667844885553,s,1,0.4396480957802851,327.9251573390211,327.9251573390211,327.9251573390211,,,,,,,,,,,,,,,,,,,,,,,,,,,,109,001,2010-10-15_09h07.42.612,eb_01,2022.2.4,119.99645035503994,
,,,1,0,1,0,26,0,26,0,,,,,,,,,,,,,,,,,,,,,,,,,,,,,,,,,,,,,,,,,,,,,,,,,,,,,,,,,,,109,001,2010-10-15_09h07.42.612,eb_01,2022.2.4,119.99645035503994,
6,stimuli/6.png,s,1,0,1,0,27,0,27,0,0,0,0,0,,,,,,,,,,,,,,,,,,328.95025913772406,328.95025913772406,328.95025913772406,328.95025913772406,s,1,0.3482200159342028,329.3252762676857,329.3252762676857,329.3252762676857,,,,,,,,,,,,,,,,,,,,,,,,,,,,109,001,2010-10-15_09h07.42.612,eb_01,2022.2.4,119.99645035503994,
,,,1,0,1,0,27,0,27,0,,,,,,,,,,,,,,,,,,,,,,,,,,,,,,,,,,,,,,,,,,,,,,,,,,,,,,,,,,,109,001,2010-10-15_09h07.42.612,eb_01,2022.2.4,119.99645035503994,
9,stimuli/9.png,l,1,0,1,0,28,0,28,0,0,0,0,0,,,,,,,,,,,,,,,,,,330.3420554738841,330.3420554738841,330.3420554738841,330.3420554738841,l,1,0.38041437073843554,330.75036508688936,330.75036508688936,330.75036508688936,,,,,,,,,,,,,,,,,,,,,,,,,,,,109,001,2010-10-15_09h07.42.612,eb_01,2022.2.4,119.99645035503994,
,,,1,0,1,0,28,0,28,0,,,,,,,,,,,,,,,,,,,,,,,,,,,,,,,,,,,,,,,,,,,,,,,,,,,,,,,,,,,109,001,2010-10-15_09h07.42.612,eb_01,2022.2.4,119.99645035503994,
8,stimuli/8.png,l,1,0,1,0,29,0,29,0,0,0,0,0,,,,,,,,,,,,,,,,,,331.75050786166685,331.75050786166685,331.75050786166685,331.75050786166685,l,1,0.5630559154669754,332.33386931731366,332.33386931731366,332.33386931731366,,,,,,,,,,,,,,,,,,,,,,,,,,,,109,001,2010-10-15_09h07.42.612,eb_01,2022.2.4,119.99645035503994,
,,,1,0,1,0,29,0,29,0,,,,,,,,,,,,,,,,,,,,,,,,,,,,,,,,,,,,,,,,,,,,,,,,,,,,,,,,,,,109,001,2010-10-15_09h07.42.612,eb_01,2022.2.4,119.99645035503994,
3,stimuli/3.png,l,1,0,1,0,30,0,30,0,0,0,0,0,,,,,,,,,,,,,,,,,,333.3423084237147,333.3423084237147,333.3423084237147,333.3423084237147,l,1,0.499243134574499,333.8506765954953,333.8506765954953,333.8506765954953,334.8590975909319,334.8590975909319,334.8590975909319,,,,,,,,,,,,,,,,,,,,,,,,,109,001,2010-10-15_09h07.42.612,eb_01,2022.2.4,119.99645035503994,
,,,1,0,1,0,30,0,30,0,,,,,,,,,,,,,,,,,,,,,,,,,,,,,,,,,,,,,,,,,,,,,,,,,,,,,,,,,,,109,001,2010-10-15_09h07.42.612,eb_01,2022.2.4,119.99645035503994,
2,stimuli/2.png,s,1,0,1,0,31,0,31,0,0,0,0,0,,,,,,,,,,,,,,,,,,334.8590975909319,334.8590975909319,334.8590975909319,334.8590975909319,s,1,0.6305074912961572,335.50080654167687,335.50080654167687,335.50080654167687,336.5175727683527,336.5175727683527,336.5175727683527,,,,,,,,,,,,,,,,,,,,,,,,,109,001,2010-10-15_09h07.42.612,eb_01,2022.2.4,119.99645035503994,
,,,1,0,1,0,31,0,31,0,,,,,,,,,,,,,,,,,,,,,,,,,,,,,,,,,,,,,,,,,,,,,,,,,,,,,,,,,,,109,001,2010-10-15_09h07.42.612,eb_01,2022.2.4,119.99645035503994,
4,stimuli/4.png,l,1,0,1,0,32,0,32,0,0,0,0,0,,,,,,,,,,,,,,,,,,336.5175727683527,336.5175727683527,336.5175727683527,336.5175727683527,l,1,0.5800554717425257,337.1175999348052,337.1175999348052,337.1175999348052,,,,,,,,,,,,,,,,,,,,,,,,,,,,109,001,2010-10-15_09h07.42.612,eb_01,2022.2.4,119.99645035503994,
,,,1,0,1,0,32,0,32,0,,,,,,,,,,,,,,,,,,,,,,,,,,,,,,,,,,,,,,,,,,,,,,,,,,,,,,,,,,,109,001,2010-10-15_09h07.42.612,eb_01,2022.2.4,119.99645035503994,
3,stimuli/3.png,l,1,0,1,0,33,0,33,0,0,0,0,0,,,,,,,,,,,,,,,,,,338.1260408523085,338.1260408523085,338.1260408523085,338.1260408523085,l,1,0.611624998273328,338.7510985810077,338.7510985810077,338.7510985810077,339.7678056451841,339.7678056451841,339.7678056451841,,,,,,,,,,,,,,,,,,,,,,,,,109,001,2010-10-15_09h07.42.612,eb_01,2022.2.4,119.99645035503994,
,,,1,0,1,0,33,0,33,0,,,,,,,,,,,,,,,,,,,,,,,,,,,,,,,,,,,,,,,,,,,,,,,,,,,,,,,,,,,109,001,2010-10-15_09h07.42.612,eb_01,2022.2.4,119.99645035503994,
4,stimuli/4.png,l,1,0,1,0,34,0,34,0,0,0,0,0,,,,,,,,,,,,,,,,,,339.7678056451841,339.7678056451841,339.7678056451841,339.7678056451841,l,1,0.6658984315872658,340.45124195949757,340.45124195949757,340.45124195949757,,,,,,,,,,,,,,,,,,,,,,,,,,,,109,001,2010-10-15_09h07.42.612,eb_01,2022.2.4,119.99645035503994,
,,,1,0,1,0,34,0,34,0,,,,,,,,,,,,,,,,,,,,,,,,,,,,,,,,,,,,,,,,,,,,,,,,,,,,,,,,,,,109,001,2010-10-15_09h07.42.612,eb_01,2022.2.4,119.99645035503994,
1,stimuli/1.png,s,1,0,1,0,35,0,35,0,0,0,0,0,,,,,,,,,,,,,,,,,,341.4763214213599,341.4763214213599,341.4763214213599,341.4763214213599,s,1,0.4454049681080505,341.95135726596345,341.95135726596345,341.95135726596345,,,,,,,,,,,,,,,,,,,,,,,,,,,,109,001,2010-10-15_09h07.42.612,eb_01,2022.2.4,119.99645035503994,
,,,1,0,1,0,35,0,35,0,,,,,,,,,,,,,,,,,,,,,,,,,,,,,,,,,,,,,,,,,,,,,,,,,,,,,,,,,,,109,001,2010-10-15_09h07.42.612,eb_01,2022.2.4,119.99645035503994,
2,stimuli/2.png,s,1,0,1,0,36,0,36,0,0,0,0,0,,,,,,,,,,,,,,,,,,342.9514556688955,342.9514556688955,342.9514556688955,342.9514556688955,s,1,0.6263256692618597,343.59313926426694,343.59313926426694,343.59313926426694,344.60991635752725,344.60991635752725,344.60991635752725,,,,,,,,,,,,,,,,,,,,,,,,,109,001,2010-10-15_09h07.42.612,eb_01,2022.2.4,119.99645035503994,
,,,1,0,1,0,36,0,36,0,,,,,,,,,,,,,,,,,,,,,,,,,,,,,,,,,,,,,,,,,,,,,,,,,,,,,,,,,,,109,001,2010-10-15_09h07.42.612,eb_01,2022.2.4,119.99645035503994,
4,stimuli/4.png,l,1,0,1,0,37,0,37,0,0,0,0,0,,,,,,,,,,,,,,,,,,344.60991635752725,344.60991635752725,344.60991635752725,344.60991635752725,l,1,0.40783527863095514,345.0349541641772,345.0349541641772,345.0349541641772,,,,,,,,,,,,,,,,,,,,,,,,,,,,109,001,2010-10-15_09h07.42.612,eb_01,2022.2.4,119.99645035503994,
,,,1,0,1,0,37,0,37,0,,,,,,,,,,,,,,,,,,,,,,,,,,,,,,,,,,,,,,,,,,,,,,,,,,,,,,,,,,,109,001,2010-10-15_09h07.42.612,eb_01,2022.2.4,119.99645035503994,
1,stimuli/1.png,s,1,0,1,0,38,0,38,0,0,0,0,0,,,,,,,,,,,,,,,,,,346.0600568684458,346.0600568684458,346.0600568684458,346.0600568684458,s,1,0.7017373164417222,346.7934420192614,346.7934420192614,346.7934420192614,,,,,,,,,,,,,,,,,,,,,,,,,,,,109,001,2010-10-15_09h07.42.612,eb_01,2022.2.4,119.99645035503994,
,,,1,0,1,0,38,0,38,0,,,,,,,,,,,,,,,,,,,,,,,,,,,,,,,,,,,,,,,,,,,,,,,,,,,,,,,,,,,109,001,2010-10-15_09h07.42.612,eb_01,2022.2.4,119.99645035503994,
4,stimuli/4.png,l,1,0,1,0,39,0,39,0,0,0,0,0,,,,,,,,,,,,,,,,,,347.8018627128331,347.8018627128331,347.8018627128331,347.8018627128331,l,1,0.6390114953101147,348.4602503539063,348.4602503539063,348.4602503539063,,,,,,,,,,,,,,,,,,,,,,,,,,,,109,001,2010-10-15_09h07.42.612,eb_01,2022.2.4,119.99645035503994,
,,,1,0,1,0,39,0,39,0,,,,,,,,,,,,,,,,,,,,,,,,,,,,,,,,,,,,,,,,,,,,,,,,,,,,,,,,,,,109,001,2010-10-15_09h07.42.612,eb_01,2022.2.4,119.99645035503994,
3,stimuli/3.png,l,1,0,1,0,40,0,40,0,0,0,0,0,,,,,,,,,,,,,,,,,,349.4686813103908,349.4686813103908,349.4686813103908,349.4686813103908,l,1,0.5162182410422247,350.0020824592211,350.0020824592211,350.0020824592211,,,,,,,,,,,,,,,,,,,,,,,,,,,,109,001,2010-10-15_09h07.42.612,eb_01,2022.2.4,119.99645035503994,
,,,1,0,1,0,40,0,40,0,,,,,,,,,,,,,,,,,,,,,,,,,,,,,,,,,,,,,,,,,,,,,,,,,,,,,,,,,,,109,001,2010-10-15_09h07.42.612,eb_01,2022.2.4,119.99645035503994,
2,stimuli/2.png,s,1,0,1,0,41,0,41,0,0,0,0,0,,,,,,,,,,,,,,,,,,351.01047508080956,351.01047508080956,351.01047508080956,351.01047508080956,s,1,0.4464270303142257,351.4688437053701,351.4688437053701,351.4688437053701,352.4772725489165,352.4772725489165,352.4772725489165,,,,,,,,,,,,,,,,,,,,,,,,,109,001,2010-10-15_09h07.42.612,eb_01,2022.2.4,119.99645035503994,
,,,1,0,1,0,41,0,41,0,,,,,,,,,,,,,,,,,,,,,,,,,,,,,,,,,,,,,,,,,,,,,,,,,,,,,,,,,,,109,001,2010-10-15_09h07.42.612,eb_01,2022.2.4,119.99645035503994,
3,stimuli/3.png,l,1,0,1,0,42,0,42,0,0,0,0,0,,,,,,,,,,,,,,,,,,352.4772725489165,352.4772725489165,352.4772725489165,352.4772725489165,l,1,0.4757015955692623,352.9689901023521,352.9689901023521,352.9689901023521,353.9774011367699,353.9774011367699,353.9774011367699,,,,,,,,,,,,,,,,,,,,,,,,,109,001,2010-10-15_09h07.42.612,eb_01,2022.2.4,119.99645035503994,
,,,1,0,1,0,42,0,42,0,,,,,,,,,,,,,,,,,,,,,,,,,,,,,,,,,,,,,,,,,,,,,,,,,,,,,,,,,,,109,001,2010-10-15_09h07.42.612,eb_01,2022.2.4,119.99645035503994,
2,stimuli/2.png,s,1,0,1,0,43,0,43,0,0,0,0,0,,,,,,,,,,,,,,,,,,353.9774011367699,353.9774011367699,353.9774011367699,353.9774011367699,s,1,0.4075768955226522,354.3941241989669,354.3941241989669,354.3941241989669,355.4108572221885,355.4108572221885,355.4108572221885,,,,,,,,,,,,,,,,,,,,,,,,,109,001,2010-10-15_09h07.42.612,eb_01,2022.2.4,119.99645035503994,
,,,1,0,1,0,43,0,43,0,,,,,,,,,,,,,,,,,,,,,,,,,,,,,,,,,,,,,,,,,,,,,,,,,,,,,,,,,,,109,001,2010-10-15_09h07.42.612,eb_01,2022.2.4,119.99645035503994,
4,stimuli/4.png,l,1,0,1,0,44,0,44,0,0,0,0,0,,,,,,,,,,,,,,,,,,355.4108572221885,355.4108572221885,355.4108572221885,355.4108572221885,l,1,0.798165532090934,356.2275938676321,356.2275938676321,356.2275938676321,,,,,,,,,,,,,,,,,,,,,,,,,,,,109,001,2010-10-15_09h07.42.612,eb_01,2022.2.4,119.99645035503994,
,,,1,0,1,0,44,0,44,0,,,,,,,,,,,,,,,,,,,,,,,,,,,,,,,,,,,,,,,,,,,,,,,,,,,,,,,,,,,109,001,2010-10-15_09h07.42.612,eb_01,2022.2.4,119.99645035503994,
3,stimuli/3.png,l,1,0,1,0,45,0,45,0,0,0,0,0,,,,,,,,,,,,,,,,,,357.2360169760068,357.2360169760068,357.2360169760068,357.2360169760068,s,0,0.6850344781123567,357.94435103880824,357.94435103880824,357.94435103880824,,,,,,,,,,,,,,,,,,,,,,,,,,,,109,001,2010-10-15_09h07.42.612,eb_01,2022.2.4,119.99645035503994,
,,,1,0,1,0,45,0,45,0,,,,,,,,,,,,,,,,,,,,,,,,,,,,,,,,,,,,,,,,,,,,,,,,,,,,,,,,,,,109,001,2010-10-15_09h07.42.612,eb_01,2022.2.4,119.99645035503994,
8,stimuli/8.png,l,1,0,1,0,46,0,46,0,0,0,0,0,,,,,,,,,,,,,,,,,,358.9528179153567,358.9528179153567,358.9528179153567,358.9528179153567,l,1,0.5922595461306628,359.56953795906156,359.56953795906156,359.56953795906156,,,,,,,,,,,,,,,,,,,,,,,,,,,,109,001,2010-10-15_09h07.42.612,eb_01,2022.2.4,119.99645035503994,
,,,1,0,1,0,46,0,46,0,,,,,,,,,,,,,,,,,,,,,,,,,,,,,,,,,,,,,,,,,,,,,,,,,,,,,,,,,,,109,001,2010-10-15_09h07.42.612,eb_01,2022.2.4,119.99645035503994,
9,stimuli/9.png,l,1,0,1,0,47,0,47,0,0,0,0,0,,,,,,,,,,,,,,,,,,360.5862679638085,360.5862679638085,360.5862679638085,360.5862679638085,l,1,0.5348293714341708,361.1530041564547,361.1530041564547,361.1530041564547,,,,,,,,,,,,,,,,,,,,,,,,,,,,109,001,2010-10-15_09h07.42.612,eb_01,2022.2.4,119.99645035503994,
,,,1,0,1,0,47,0,47,0,,,,,,,,,,,,,,,,,,,,,,,,,,,,,,,,,,,,,,,,,,,,,,,,,,,,,,,,,,,109,001,2010-10-15_09h07.42.612,eb_01,2022.2.4,119.99645035503994,
8,stimuli/8.png,l,1,0,1,0,48,0,48,0,0,0,0,0,,,,,,,,,,,,,,,,,,362.153111614869,362.153111614869,362.153111614869,362.153111614869,l,1,0.3911134238296654,362.5614701274608,362.5614701274608,362.5614701274608,,,,,,,,,,,,,,,,,,,,,,,,,,,,109,001,2010-10-15_09h07.42.612,eb_01,2022.2.4,119.99645035503994,
,,,1,0,1,0,48,0,48,0,,,,,,,,,,,,,,,,,,,,,,,,,,,,,,,,,,,,,,,,,,,,,,,,,,,,,,,,,,,109,001,2010-10-15_09h07.42.612,eb_01,2022.2.4,119.99645035503994,
3,stimuli/3.png,l,1,0,1,0,49,0,49,0,0,0,0,0,,,,,,,,,,,,,,,,,,363.569889915525,363.569889915525,363.569889915525,363.569889915525,l,1,0.6382997343607713,364.21994621041813,364.21994621041813,364.21994621041813,365.23669915573555,365.23669915573555,365.23669915573555,,,,,,,,,,,,,,,,,,,,,,,,,109,001,2010-10-15_09h07.42.612,eb_01,2022.2.4,119.99645035503994,
,,,1,0,1,0,49,0,49,0,,,,,,,,,,,,,,,,,,,,,,,,,,,,,,,,,,,,,,,,,,,,,,,,,,,,,,,,,,,109,001,2010-10-15_09h07.42.612,eb_01,2022.2.4,119.99645035503994,
4,stimuli/4.png,l,1,0,1,0,50,0,50,0,0,0,0,0,,,,,,,,,,,,,,,,,,365.23669915573555,365.23669915573555,365.23669915573555,365.23669915573555,l,1,0.41153082123491913,365.6700568382512,365.6700568382512,365.6700568382512,,,,,,,,,,,,,,,,,,,,,,,,,,,,109,001,2010-10-15_09h07.42.612,eb_01,2022.2.4,119.99645035503994,
,,,1,0,1,0,50,0,50,0,,,,,,,,,,,,,,,,,,,,,,,,,,,,,,,,,,,,,,,,,,,,,,,,,,,,,,,,,,,109,001,2010-10-15_09h07.42.612,eb_01,2022.2.4,119.99645035503994,
1,stimuli/1.png,s,1,0,1,0,51,0,51,0,0,0,0,0,,,,,,,,,,,,,,,,,,366.6951583351183,366.6951583351183,366.6951583351183,366.6951583351183,s,1,0.50506611194578,367.22852326201973,367.22852326201973,367.22852326201973,,,,,,,,,,,,,,,,,,,,,,,,,,,,109,001,2010-10-15_09h07.42.612,eb_01,2022.2.4,119.99645035503994,
,,,1,0,1,0,51,0,51,0,,,,,,,,,,,,,,,,,,,,,,,,,,,,,,,,,,,,,,,,,,,,,,,,,,,,,,,,,,,109,001,2010-10-15_09h07.42.612,eb_01,2022.2.4,119.99645035503994,
2,stimuli/2.png,s,1,0,1,0,52,0,52,0,0,0,0,0,,,,,,,,,,,,,,,,,,368.2286231741891,368.2286231741891,368.2286231741891,368.2286231741891,s,1,0.6356289705727249,368.8786381157406,368.8786381157406,368.8786381157406,369.8954191330413,369.8954191330413,369.8954191330413,,,,,,,,,,,,,,,,,,,,,,,,,109,001,2010-10-15_09h07.42.612,eb_01,2022.2.4,119.99645035503994,
,,,1,0,1,0,52,0,52,0,,,,,,,,,,,,,,,,,,,,,,,,,,,,,,,,,,,,,,,,,,,,,,,,,,,,,,,,,,,109,001,2010-10-15_09h07.42.612,eb_01,2022.2.4,119.99645035503994,
4,stimuli/4.png,l,1,0,1,0,53,0,53,0,0,0,0,0,,,,,,,,,,,,,,,,,,369.8954191330413,369.8954191330413,369.8954191330413,369.8954191330413,l,1,0.44886446444434114,370.36212664999766,370.36212664999766,370.36212664999766,,,,,,,,,,,,,,,,,,,,,,,,,,,,109,001,2010-10-15_09h07.42.612,eb_01,2022.2.4,119.99645035503994,
,,,1,0,1,0,53,0,53,0,,,,,,,,,,,,,,,,,,,,,,,,,,,,,,,,,,,,,,,,,,,,,,,,,,,,,,,,,,,109,001,2010-10-15_09h07.42.612,eb_01,2022.2.4,119.99645035503994,
2,stimuli/2.png,s,1,0,1,0,54,0,54,0,0,0,0,0,,,,,,,,,,,,,,,,,,371.37055730461725,371.37055730461725,371.37055730461725,371.37055730461725,s,1,0.6458097482100129,372.02893377724104,372.02893377724104,372.02893377724104,373.0373665448278,373.0373665448278,373.0373665448278,,,,,,,,,,,,,,,,,,,,,,,,,109,001,2010-10-15_09h07.42.612,eb_01,2022.2.4,119.99645035503994,
,,,1,0,1,0,54,0,54,0,,,,,,,,,,,,,,,,,,,,,,,,,,,,,,,,,,,,,,,,,,,,,,,,,,,,,,,,,,,109,001,2010-10-15_09h07.42.612,eb_01,2022.2.4,119.99645035503994,
3,stimuli/3.png,l,1,0,1,0,55,0,55,0,0,0,0,0,,,,,,,,,,,,,,,,,,373.0373665448278,373.0373665448278,373.0373665448278,373.0373665448278,l,1,0.699049649090739,373.745751620183,373.745751620183,373.745751620183,374.76247317311936,374.76247317311936,374.76247317311936,,,,,,,,,,,,,,,,,,,,,,,,,109,001,2010-10-15_09h07.42.612,eb_01,2022.2.4,119.99645035503994,
,,,1,0,1,0,55,0,55,0,,,,,,,,,,,,,,,,,,,,,,,,,,,,,,,,,,,,,,,,,,,,,,,,,,,,,,,,,,,109,001,2010-10-15_09h07.42.612,eb_01,2022.2.4,119.99645035503994,
4,stimuli/4.png,l,1,0,1,0,56,0,56,0,0,0,0,0,,,,,,,,,,,,,,,,,,374.76247317311936,374.76247317311936,374.76247317311936,374.76247317311936,l,1,0.5499592723499518,375.3292018195498,375.3292018195498,375.3292018195498,,,,,,,,,,,,,,,,,,,,,,,,,,,,109,001,2010-10-15_09h07.42.612,eb_01,2022.2.4,119.99645035503994,
,,,1,0,1,0,56,0,56,0,,,,,,,,,,,,,,,,,,,,,,,,,,,,,,,,,,,,,,,,,,,,,,,,,,,,,,,,,,,109,001,2010-10-15_09h07.42.612,eb_01,2022.2.4,119.99645035503994,
2,stimuli/2.png,s,1,0,1,0,57,0,57,0,0,0,0,0,,,,,,,,,,,,,,,,,,376.3376505851338,376.3376505851338,376.3376505851338,376.3376505851338,s,1,0.4627450105617754,376.8126809964597,376.8126809964597,376.8126809964597,377.82111044367775,377.82111044367775,377.82111044367775,,,,,,,,,,,,,,,,,,,,,,,,,109,001,2010-10-15_09h07.42.612,eb_01,2022.2.4,119.99645035503994,
,,,1,0,1,0,57,0,57,0,,,,,,,,,,,,,,,,,,,,,,,,,,,,,,,,,,,,,,,,,,,,,,,,,,,,,,,,,,,109,001,2010-10-15_09h07.42.612,eb_01,2022.2.4,119.99645035503994,
3,stimuli/3.png,l,1,0,1,0,58,0,58,0,0,0,0,0,,,,,,,,,,,,,,,,,,377.82111044367775,377.82111044367775,377.82111044367775,377.82111044367775,l,1,0.49042218865361065,378.3211074252031,378.3211074252031,378.3211074252031,379.3295583037252,379.3295583037252,379.3295583037252,,,,,,,,,,,,,,,,,,,,,,,,,109,001,2010-10-15_09h07.42.612,eb_01,2022.2.4,119.99645035503994,
,,,1,0,1,0,58,0,58,0,,,,,,,,,,,,,,,,,,,,,,,,,,,,,,,,,,,,,,,,,,,,,,,,,,,,,,,,,,,109,001,2010-10-15_09h07.42.612,eb_01,2022.2.4,119.99645035503994,
2,stimuli/2.png,s,1,0,1,0,59,0,59,0,0,0,0,0,,,,,,,,,,,,,,,,,,379.3295583037252,379.3295583037252,379.3295583037252,379.3295583037252,s,1,0.5579990319674835,379.89628815752803,379.89628815752803,379.89628815752803,380.9047010030481,380.9047010030481,380.9047010030481,,,,,,,,,,,,,,,,,,,,,,,,,109,001,2010-10-15_09h07.42.612,eb_01,2022.2.4,119.99645035503994,
,,,1,0,1,0,59,0,59,0,,,,,,,,,,,,,,,,,,,,,,,,,,,,,,,,,,,,,,,,,,,,,,,,,,,,,,,,,,,109,001,2010-10-15_09h07.42.612,eb_01,2022.2.4,119.99645035503994,
3,stimuli/3.png,l,1,0,1,0,60,0,60,0,0,0,0,0,,,,,,,,,,,,,,,,,,380.9047010030481,380.9047010030481,380.9047010030481,380.9047010030481,l,1,0.46285126157454215,381.38807936225203,381.38807936225203,381.38807936225203,,,,,,,,,,,,,,,,,,,,,,,,,,,,109,001,2010-10-15_09h07.42.612,eb_01,2022.2.4,119.99645035503994,
,,,1,0,1,0,60,0,60,0,,,,,,,,,,,,,,,,,,,,,,,,,,,,,,,,,,,,,,,,,,,,,,,,,,,,,,,,,,,109,001,2010-10-15_09h07.42.612,eb_01,2022.2.4,119.99645035503994,
2,stimuli/2.png,s,1,0,1,0,61,0,61,0,0,0,0,0,,,,,,,,,,,,,,,,,,382.39648707633023,382.39648707633023,382.39648707633023,382.39648707633023,s,1,0.3310598757234402,382.7381531644496,382.7381531644496,382.7381531644496,383.7549516889849,383.7549516889849,383.7549516889849,,,,,,,,,,,,,,,,,,,,,,,,,109,001,2010-10-15_09h07.42.612,eb_01,2022.2.4,119.99645035503994,
,,,1,0,1,0,61,0,61,0,,,,,,,,,,,,,,,,,,,,,,,,,,,,,,,,,,,,,,,,,,,,,,,,,,,,,,,,,,,109,001,2010-10-15_09h07.42.612,eb_01,2022.2.4,119.99645035503994,
4,stimuli/4.png,l,1,0,1,0,62,0,62,0,0,0,0,0,,,,,,,,,,,,,,,,,,383.7549516889849,383.7549516889849,383.7549516889849,383.7549516889849,l,1,0.5086541961645707,384.28831933255424,384.28831933255424,384.28831933255424,,,,,,,,,,,,,,,,,,,,,,,,,,,,109,001,2010-10-15_09h07.42.612,eb_01,2022.2.4,119.99645035503994,
,,,1,0,1,0,62,0,62,0,,,,,,,,,,,,,,,,,,,,,,,,,,,,,,,,,,,,,,,,,,,,,,,,,,,,,,,,,,,109,001,2010-10-15_09h07.42.612,eb_01,2022.2.4,119.99645035503994,
3,stimuli/3.png,l,1,0,1,0,63,0,63,0,0,0,0,0,,,,,,,,,,,,,,,,,,385.2967508927104,385.2967508927104,385.2967508927104,385.2967508927104,l,1,0.45484712021425366,385.763448448648,385.763448448648,385.763448448648,386.78021075128345,386.78021075128345,386.78021075128345,,,,,,,,,,,,,,,,,,,,,,,,,109,001,2010-10-15_09h07.42.612,eb_01,2022.2.4,119.99645035503994,
,,,1,0,1,0,63,0,63,0,,,,,,,,,,,,,,,,,,,,,,,,,,,,,,,,,,,,,,,,,,,,,,,,,,,,,,,,,,,109,001,2010-10-15_09h07.42.612,eb_01,2022.2.4,119.99645035503994,
8,stimuli/8.png,l,1,0,1,0,64,0,64,0,0,0,0,0,,,,,,,,,,,,,,,,,,386.78021075128345,386.78021075128345,386.78021075128345,386.78021075128345,l,1,0.5234590051986743,387.32189404481323,387.32189404481323,387.32189404481323,,,,,,,,,,,,,,,,,,,,,,,,,,,,109,001,2010-10-15_09h07.42.612,eb_01,2022.2.4,119.99645035503994,
,,,1,0,1,0,64,0,64,0,,,,,,,,,,,,,,,,,,,,,,,,,,,,,,,,,,,,,,,,,,,,,,,,,,,,,,,,,,,109,001,2010-10-15_09h07.42.612,eb_01,2022.2.4,119.99645035503994,
3,stimuli/3.png,l,1,0,1,0,65,0,65,0,0,0,0,0,,,,,,,,,,,,,,,,,,388.330343414098,388.330343414098,388.330343414098,388.330343414098,l,1,0.4133141476777382,388.7553688449261,388.7553688449261,388.7553688449261,389.7638233456237,389.7638233456237,389.7638233456237,,,,,,,,,,,,,,,,,,,,,,,,,109,001,2010-10-15_09h07.42.612,eb_01,2022.2.4,119.99645035503994,
,,,1,0,1,0,65,0,65,0,,,,,,,,,,,,,,,,,,,,,,,,,,,,,,,,,,,,,,,,,,,,,,,,,,,,,,,,,,,109,001,2010-10-15_09h07.42.612,eb_01,2022.2.4,119.99645035503994,
2,stimuli/2.png,s,1,0,1,0,66,0,66,0,0,0,0,0,,,,,,,,,,,,,,,,,,389.7638233456237,389.7638233456237,389.7638233456237,389.7638233456237,s,1,0.6758830070903059,390.45551403448917,390.45551403448917,390.45551403448917,391.46395676309476,391.46395676309476,391.46395676309476,,,,,,,,,,,,,,,,,,,,,,,,,109,001,2010-10-15_09h07.42.612,eb_01,2022.2.4,119.99645035503994,
,,,1,0,1,0,66,0,66,0,,,,,,,,,,,,,,,,,,,,,,,,,,,,,,,,,,,,,,,,,,,,,,,,,,,,,,,,,,,109,001,2010-10-15_09h07.42.612,eb_01,2022.2.4,119.99645035503994,
3,stimuli/3.png,l,1,0,1,0,67,0,67,0,0,0,0,0,,,,,,,,,,,,,,,,,,391.46395676309476,391.46395676309476,391.46395676309476,391.46395676309476,l,1,0.4557955311029218,391.93060723048984,391.93060723048984,391.93060723048984,392.93907199410023,392.93907199410023,392.93907199410023,,,,,,,,,,,,,,,,,,,,,,,,,109,001,2010-10-15_09h07.42.612,eb_01,2022.2.4,119.99645035503994,
,,,1,0,1,0,67,0,67,0,,,,,,,,,,,,,,,,,,,,,,,,,,,,,,,,,,,,,,,,,,,,,,,,,,,,,,,,,,,109,001,2010-10-15_09h07.42.612,eb_01,2022.2.4,119.99645035503994,
2,stimuli/2.png,s,1,0,1,0,68,0,68,0,0,0,0,0,,,,,,,,,,,,,,,,,,392.93907199410023,392.93907199410023,392.93907199410023,392.93907199410023,s,1,0.4126766416593455,393.3640639196383,393.3640639196383,393.3640639196383,394.37249668719596,394.37249668719596,394.37249668719596,,,,,,,,,,,,,,,,,,,,,,,,,109,001,2010-10-15_09h07.42.612,eb_01,2022.2.4,119.99645035503994,
,,,1,0,1,0,68,0,68,0,,,,,,,,,,,,,,,,,,,,,,,,,,,,,,,,,,,,,,,,,,,,,,,,,,,,,,,,,,,109,001,2010-10-15_09h07.42.612,eb_01,2022.2.4,119.99645035503994,
3,stimuli/3.png,l,1,0,1,0,69,0,69,0,0,0,0,0,,,,,,,,,,,,,,,,,,394.37249668719596,394.37249668719596,394.37249668719596,394.37249668719596,l,1,0.34636454746942036,394.7309018355445,394.7309018355445,394.7309018355445,395.73929898487404,395.73929898487404,395.73929898487404,,,,,,,,,,,,,,,,,,,,,,,,,109,001,2010-10-15_09h07.42.612,eb_01,2022.2.4,119.99645035503994,
,,,1,0,1,0,69,0,69,0,,,,,,,,,,,,,,,,,,,,,,,,,,,,,,,,,,,,,,,,,,,,,,,,,,,,,,,,,,,109,001,2010-10-15_09h07.42.612,eb_01,2022.2.4,119.99645035503994,
2,stimuli/2.png,s,1,0,1,0,70,0,70,0,0,0,0,0,,,,,,,,,,,,,,,,,,395.73929898487404,395.73929898487404,395.73929898487404,395.73929898487404,s,1,0.29149858371238224,396.0392899294093,396.0392899294093,396.0392899294093,397.05609056691173,397.05609056691173,397.05609056691173,,,,,,,,,,,,,,,,,,,,,,,,,109,001,2010-10-15_09h07.42.612,eb_01,2022.2.4,119.99645035503994,
,,,1,0,1,0,70,0,70,0,,,,,,,,,,,,,,,,,,,,,,,,,,,,,,,,,,,,,,,,,,,,,,,,,,,,,,,,,,,109,001,2010-10-15_09h07.42.612,eb_01,2022.2.4,119.99645035503994,
4,stimuli/4.png,l,1,0,1,0,71,0,71,0,0,0,0,0,,,,,,,,,,,,,,,,,,397.05609056691173,397.05609056691173,397.05609056691173,397.05609056691173,l,1,0.5427948760916479,397.62281710037496,397.62281710037496,397.62281710037496,,,,,,,,,,,,,,,,,,,,,,,,,,,,109,001,2010-10-15_09h07.42.612,eb_01,2022.2.4,119.99645035503994,
,,,1,0,1,0,71,0,71,0,,,,,,,,,,,,,,,,,,,,,,,,,,,,,,,,,,,,,,,,,,,,,,,,,,,,,,,,,,,109,001,2010-10-15_09h07.42.612,eb_01,2022.2.4,119.99645035503994,
2,stimuli/2.png,s,1,0,1,0,72,0,72,0,0,0,0,0,,,,,,,,,,,,,,,,,,398.63119523320347,398.63119523320347,398.63119523320347,398.63119523320347,s,1,0.367740014946321,399.0145793275442,399.0145793275442,399.0145793275442,400.022994889674,400.022994889674,400.022994889674,,,,,,,,,,,,,,,,,,,,,,,,,109,001,2010-10-15_09h07.42.612,eb_01,2022.2.4,119.99645035503994,
,,,1,0,1,0,72,0,72,0,,,,,,,,,,,,,,,,,,,,,,,,,,,,,,,,,,,,,,,,,,,,,,,,,,,,,,,,,,,109,001,2010-10-15_09h07.42.612,eb_01,2022.2.4,119.99645035503994,
3,stimuli/3.png,l,1,0,1,0,73,0,73,0,0,0,0,0,,,,,,,,,,,,,,,,,,400.022994889674,400.022994889674,400.022994889674,400.022994889674,l,1,0.4079125520947855,400.43971432969556,400.43971432969556,400.43971432969556,401.448109366087,401.448109366087,401.448109366087,,,,,,,,,,,,,,,,,,,,,,,,,109,001,2010-10-15_09h07.42.612,eb_01,2022.2.4,119.99645035503994,
,,,1,0,1,0,73,0,73,0,,,,,,,,,,,,,,,,,,,,,,,,,,,,,,,,,,,,,,,,,,,,,,,,,,,,,,,,,,,109,001,2010-10-15_09h07.42.612,eb_01,2022.2.4,119.99645035503994,
8,stimuli/8.png,l,1,0,1,0,74,0,74,0,0,0,0,0,,,,,,,,,,,,,,,,,,401.448109366087,401.448109366087,401.448109366087,401.448109366087,l,1,0.5828116589109413,402.04813834364177,402.04813834364177,402.04813834364177,,,,,,,,,,,,,,,,,,,,,,,,,,,,109,001,2010-10-15_09h07.42.612,eb_01,2022.2.4,119.99645035503994,
,,,1,0,1,0,74,0,74,0,,,,,,,,,,,,,,,,,,,,,,,,,,,,,,,,,,,,,,,,,,,,,,,,,,,,,,,,,,,109,001,2010-10-15_09h07.42.612,eb_01,2022.2.4,119.99645035503994,
6,stimuli/6.png,s,1,0,1,0,75,0,75,0,0,0,0,0,,,,,,,,,,,,,,,,,,403.07324044420966,403.07324044420966,403.07324044420966,403.07324044420966,s,1,0.47773032559780404,403.58164031017805,403.58164031017805,403.58164031017805,,,,,,,,,,,,,,,,,,,,,,,,,,,,109,001,2010-10-15_09h07.42.612,eb_01,2022.2.4,119.99645035503994,
,,,1,0,1,0,75,0,75,0,,,,,,,,,,,,,,,,,,,,,,,,,,,,,,,,,,,,,,,,,,,,,,,,,,,,,,,,,,,109,001,2010-10-15_09h07.42.612,eb_01,2022.2.4,119.99645035503994,
8,stimuli/8.png,l,1,0,1,0,76,0,76,0,0,0,0,0,,,,,,,,,,,,,,,,,,404.5900582871109,404.5900582871109,404.5900582871109,404.5900582871109,l,1,0.6249634227715433,405.23175878607435,405.23175878607435,405.23175878607435,,,,,,,,,,,,,,,,,,,,,,,,,,,,109,001,2010-10-15_09h07.42.612,eb_01,2022.2.4,119.99645035503994,
,,,1,0,1,0,76,0,76,0,,,,,,,,,,,,,,,,,,,,,,,,,,,,,,,,,,,,,,,,,,,,,,,,,,,,,,,,,,,109,001,2010-10-15_09h07.42.612,eb_01,2022.2.4,119.99645035503994,
9,stimuli/9.png,l,1,0,1,0,77,0,77,0,0,0,0,0,,,,,,,,,,,,,,,,,,406.2485458403535,406.2485458403535,406.2485458403535,406.2485458403535,l,1,0.7425038932415191,407.0236106625234,407.0236106625234,407.0236106625234,,,,,,,,,,,,,,,,,,,,,,,,,,,,109,001,2010-10-15_09h07.42.612,eb_01,2022.2.4,119.99645035503994,
,,,1,0,1,0,77,0,77,0,,,,,,,,,,,,,,,,,,,,,,,,,,,,,,,,,,,,,,,,,,,,,,,,,,,,,,,,,,,109,001,2010-10-15_09h07.42.612,eb_01,2022.2.4,119.99645035503994,
6,stimuli/6.png,s,1,0,1,0,78,0,78,0,0,0,0,0,,,,,,,,,,,,,,,,,,408.0403642115125,408.0403642115125,408.0403642115125,408.0403642115125,s,1,0.44670624102582224,408.51539794320706,408.51539794320706,408.51539794320706,,,,,,,,,,,,,,,,,,,,,,,,,,,,109,001,2010-10-15_09h07.42.612,eb_01,2022.2.4,119.99645035503994,
,,,1,0,1,0,78,0,78,0,,,,,,,,,,,,,,,,,,,,,,,,,,,,,,,,,,,,,,,,,,,,,,,,,,,,,,,,,,,109,001,2010-10-15_09h07.42.612,eb_01,2022.2.4,119.99645035503994,
5,stimuli/5.png,s,1,0,1,0,79,0,79,0,0,0,0,0,,,,,,,,,,,,,,,,,,409.51549242206966,409.51549242206966,409.51549242206966,409.51549242206966,s,1,0.5156169569818303,410.04883712506853,410.04883712506853,410.04883712506853,,,,,,,,,,,,,,,,,,,,,,,,,,,,109,001,2010-10-15_09h07.42.612,eb_01,2022.2.4,119.99645035503994,
,,,1,0,1,0,79,0,79,0,,,,,,,,,,,,,,,,,,,,,,,,,,,,,,,,,,,,,,,,,,,,,,,,,,,,,,,,,,,109,001,2010-10-15_09h07.42.612,eb_01,2022.2.4,119.99645035503994,
9,stimuli/9.png,l,1,0,1,0,80,0,80,0,0,0,0,0,,,,,,,,,,,,,,,,,,411.06562297194614,411.06562297194614,411.06562297194614,411.06562297194614,l,1,0.5164702853362542,411.60731411358574,411.60731411358574,411.60731411358574,,,,,,,,,,,,,,,,,,,,,,,,,,,,109,001,2010-10-15_09h07.42.612,eb_01,2022.2.4,119.99645035503994,
,,,1,0,1,0,80,0,80,0,,,,,,,,,,,,,,,,,,,,,,,,,,,,,,,,,,,,,,,,,,,,,,,,,,,,,,,,,,,109,001,2010-10-15_09h07.42.612,eb_01,2022.2.4,119.99645035503994,
5,stimuli/5.png,s,1,0,1,0,81,0,81,0,0,0,0,0,,,,,,,,,,,,,,,,,,412.60740889428416,412.60740889428416,412.60740889428416,412.60740889428416,s,1,0.6787430304393638,413.30746775493026,413.30746775493026,413.30746775493026,,,,,,,,,,,,,,,,,,,,,,,,,,,,109,001,2010-10-15_09h07.42.612,eb_01,2022.2.4,119.99645035503994,
,,,1,0,1,0,81,0,81,0,,,,,,,,,,,,,,,,,,,,,,,,,,,,,,,,,,,,,,,,,,,,,,,,,,,,,,,,,,,109,001,2010-10-15_09h07.42.612,eb_01,2022.2.4,119.99645035503994,
9,stimuli/9.png,l,1,0,1,0,82,0,82,0,0,0,0,0,,,,,,,,,,,,,,,,,,414.32424032044946,414.32424032044946,414.32424032044946,414.32424032044946,l,1,0.4899564349616412,414.8409452716878,414.8409452716878,414.8409452716878,,,,,,,,,,,,,,,,,,,,,,,,,,,,109,001,2010-10-15_09h07.42.612,eb_01,2022.2.4,119.99645035503994,
,,,1,0,1,0,82,0,82,0,,,,,,,,,,,,,,,,,,,,,,,,,,,,,,,,,,,,,,,,,,,,,,,,,,,,,,,,,,,109,001,2010-10-15_09h07.42.612,eb_01,2022.2.4,119.99645035503994,
6,stimuli/6.png,s,1,0,1,0,83,0,83,0,0,0,0,0,,,,,,,,,,,,,,,,,,415.8577012354799,415.8577012354799,415.8577012354799,415.8577012354799,s,1,0.5965473173127975,416.482723044086,416.482723044086,416.482723044086,,,,,,,,,,,,,,,,,,,,,,,,,,,,109,001,2010-10-15_09h07.42.612,eb_01,2022.2.4,119.99645035503994,
,,,1,0,1,0,83,0,83,0,,,,,,,,,,,,,,,,,,,,,,,,,,,,,,,,,,,,,,,,,,,,,,,,,,,,,,,,,,,109,001,2010-10-15_09h07.42.612,eb_01,2022.2.4,119.99645035503994,
9,stimuli/9.png,l,1,0,1,0,84,0,84,0,0,0,0,0,,,,,,,,,,,,,,,,,,417.49117422447307,417.49117422447307,417.49117422447307,417.49117422447307,l,1,0.4910877666261513,418.00787283686805,418.00787283686805,418.00787283686805,,,,,,,,,,,,,,,,,,,,,,,,,,,,109,001,2010-10-15_09h07.42.612,eb_01,2022.2.4,119.99645035503994,
,,,1,0,1,0,84,0,84,0,,,,,,,,,,,,,,,,,,,,,,,,,,,,,,,,,,,,,,,,,,,,,,,,,,,,,,,,,,,109,001,2010-10-15_09h07.42.612,eb_01,2022.2.4,119.99645035503994,
6,stimuli/6.png,s,1,0,1,0,85,0,85,0,0,0,0,0,,,,,,,,,,,,,,,,,,419.02462548032054,419.02462548032054,419.02462548032054,419.02462548032054,s,1,0.5896512652107049,419.6413358648424,419.6413358648424,419.6413358648424,,,,,,,,,,,,,,,,,,,,,,,,,,,,109,001,2010-10-15_09h07.42.612,eb_01,2022.2.4,119.99645035503994,
,,,1,0,1,0,85,0,85,0,,,,,,,,,,,,,,,,,,,,,,,,,,,,,,,,,,,,,,,,,,,,,,,,,,,,,,,,,,,109,001,2010-10-15_09h07.42.612,eb_01,2022.2.4,119.99645035503994,
8,stimuli/8.png,l,1,0,1,0,86,0,86,0,0,0,0,0,,,,,,,,,,,,,,,,,,420.6414261178288,420.6414261178288,420.6414261178288,420.6414261178288,l,1,0.7969080273760483,421.45817845943384,421.45817845943384,421.45817845943384,,,,,,,,,,,,,,,,,,,,,,,,,,,,109,001,2010-10-15_09h07.42.612,eb_01,2022.2.4,119.99645035503994,
,,,1,0,1,0,86,0,86,0,,,,,,,,,,,,,,,,,,,,,,,,,,,,,,,,,,,,,,,,,,,,,,,,,,,,,,,,,,,109,001,2010-10-15_09h07.42.612,eb_01,2022.2.4,119.99645035503994,
6,stimuli/6.png,s,1,0,1,0,87,0,87,0,0,0,0,0,,,,,,,,,,,,,,,,,,422.4832669767784,422.4832669767784,422.4832669767784,422.4832669767784,s,1,1.1390860521350987,423.65002097852994,423.65002097852994,423.65002097852994,,,,,,,,,,,,,,,,,,,,,,,,,,,,109,001,2010-10-15_09h07.42.612,eb_01,2022.2.4,119.99645035503994,
,,,1,0,1,0,87,0,87,0,,,,,,,,,,,,,,,,,,,,,,,,,,,,,,,,,,,,,,,,,,,,,,,,,,,,,,,,,,,109,001,2010-10-15_09h07.42.612,eb_01,2022.2.4,119.99645035503994,
9,stimuli/9.png,l,1,0,1,0,88,0,88,0,0,0,0,0,,,,,,,,,,,,,,,,,,424.65840665760334,424.65840665760334,424.65840665760334,424.65840665760334,l,1,0.4670831905968953,425.1584712533804,425.1584712533804,425.1584712533804,,,,,,,,,,,,,,,,,,,,,,,,,,,,109,001,2010-10-15_09h07.42.612,eb_01,2022.2.4,119.99645035503994,
,,,1,0,1,0,88,0,88,0,,,,,,,,,,,,,,,,,,,,,,,,,,,,,,,,,,,,,,,,,,,,,,,,,,,,,,,,,,,109,001,2010-10-15_09h07.42.612,eb_01,2022.2.4,119.99645035503994,
5,stimuli/5.png,s,1,0,1,0,89,0,89,0,0,0,0,0,,,,,,,,,,,,,,,,,,426.15858505060896,426.15858505060896,426.15858505060896,426.15858505060896,s,1,0.48685432836646214,426.666911567183,426.666911567183,426.666911567183,,,,,,,,,,,,,,,,,,,,,,,,,,,,109,001,2010-10-15_09h07.42.612,eb_01,2022.2.4,119.99645035503994,
,,,1,0,1,0,89,0,89,0,,,,,,,,,,,,,,,,,,,,,,,,,,,,,,,,,,,,,,,,,,,,,,,,,,,,,,,,,,,109,001,2010-10-15_09h07.42.612,eb_01,2022.2.4,119.99645035503994,
6,stimuli/6.png,s,1,0,1,0,90,0,90,0,0,0,0,0,,,,,,,,,,,,,,,,,,427.6920148751524,427.6920148751524,427.6920148751524,427.6920148751524,s,1,0.5454547732952051,428.2670833194861,428.2670833194861,428.2670833194861,,,,,,,,,,,,,,,,,,,,,,,,,,,,109,001,2010-10-15_09h07.42.612,eb_01,2022.2.4,119.99645035503994,
,,,1,0,1,0,90,0,90,0,,,,,,,,,,,,,,,,,,,,,,,,,,,,,,,,,,,,,,,,,,,,,,,,,,,,,,,,,,,109,001,2010-10-15_09h07.42.612,eb_01,2022.2.4,119.99645035503994,
8,stimuli/8.png,l,1,0,1,0,91,0,91,0,0,0,0,0,,,,,,,,,,,,,,,,,,429.2671841372212,429.2671841372212,429.2671841372212,429.2671841372212,l,1,0.5143002897675615,429.8005653639848,429.8005653639848,429.8005653639848,,,,,,,,,,,,,,,,,,,,,,,,,,,,109,001,2010-10-15_09h07.42.612,eb_01,2022.2.4,119.99645035503994,
,,,1,0,1,0,91,0,91,0,,,,,,,,,,,,,,,,,,,,,,,,,,,,,,,,,,,,,,,,,,,,,,,,,,,,,,,,,,,109,001,2010-10-15_09h07.42.612,eb_01,2022.2.4,119.99645035503994,
3,stimuli/3.png,l,1,0,1,0,92,0,92,0,0,0,0,0,,,,,,,,,,,,,,,,,,430.8089685502928,430.8089685502928,430.8089685502928,430.8089685502928,l,1,0.6606193868792616,431.4840379002271,431.4840379002271,431.4840379002271,432.50074677550583,432.50074677550583,432.50074677550583,,,,,,,,,,,,,,,,,,,,,,,,,109,001,2010-10-15_09h07.42.612,eb_01,2022.2.4,119.99645035503994,
,,,1,0,1,0,92,0,92,0,,,,,,,,,,,,,,,,,,,,,,,,,,,,,,,,,,,,,,,,,,,,,,,,,,,,,,,,,,,109,001,2010-10-15_09h07.42.612,eb_01,2022.2.4,119.99645035503994,
4,stimuli/4.png,l,1,0,1,0,93,0,93,0,0,0,0,0,,,,,,,,,,,,,,,,,,432.50074677550583,432.50074677550583,432.50074677550583,432.50074677550583,l,1,0.584828616847517,433.10918286340893,433.10918286340893,433.10918286340893,,,,,,,,,,,,,,,,,,,,,,,,,,,,109,001,2010-10-15_09h07.42.612,eb_01,2022.2.4,119.99645035503994,
,,,1,0,1,0,93,0,93,0,,,,,,,,,,,,,,,,,,,,,,,,,,,,,,,,,,,,,,,,,,,,,,,,,,,,,,,,,,,109,001,2010-10-15_09h07.42.612,eb_01,2022.2.4,119.99645035503994,
1,stimuli/1.png,s,1,0,1,0,94,0,94,0,0,0,0,0,,,,,,,,,,,,,,,,,,434.13423334772233,434.13423334772233,434.13423334772233,434.13423334772233,s,1,0.439343831531005,434.60094569425564,434.60094569425564,434.60094569425564,,,,,,,,,,,,,,,,,,,,,,,,,,,,109,001,2010-10-15_09h07.42.612,eb_01,2022.2.4,119.99645035503994,
,,,1,0,1,0,94,0,94,0,,,,,,,,,,,,,,,,,,,,,,,,,,,,,,,,,,,,,,,,,,,,,,,,,,,,,,,,,,,109,001,2010-10-15_09h07.42.612,eb_01,2022.2.4,119.99645035503994,
4,stimuli/4.png,l,1,0,1,0,95,0,95,0,0,0,0,0,,,,,,,,,,,,,,,,,,435.6093582379108,435.6093582379108,435.6093582379108,435.6093582379108,l,1,0.5562685291806702,436.18444117106264,436.18444117106264,436.18444117106264,,,,,,,,,,,,,,,,,,,,,,,,,,,,109,001,2010-10-15_09h07.42.612,eb_01,2022.2.4,119.99645035503994,
,,,1,0,1,0,95,0,95,0,,,,,,,,,,,,,,,,,,,,,,,,,,,,,,,,,,,,,,,,,,,,,,,,,,,,,,,,,,,109,001,2010-10-15_09h07.42.612,eb_01,2022.2.4,119.99645035503994,
1,stimuli/1.png,s,1,0,1,0,96,0,96,0,0,0,0,0,,,,,,,,,,,,,,,,,,437.2094804869557,437.2094804869557,437.2094804869557,437.2094804869557,s,1,0.5881909176532645,437.8262470154732,437.8262470154732,437.8262470154732,,,,,,,,,,,,,,,,,,,,,,,,,,,,109,001,2010-10-15_09h07.42.612,eb_01,2022.2.4,119.99645035503994,
,,,1,0,1,0,96,0,96,0,,,,,,,,,,,,,,,,,,,,,,,,,,,,,,,,,,,,,,,,,,,,,,,,,,,,,,,,,,,109,001,2010-10-15_09h07.42.612,eb_01,2022.2.4,119.99645035503994,
4,stimuli/4.png,l,1,0,1,0,97,0,97,0,0,0,0,0,,,,,,,,,,,,,,,,,,438.8346544276865,438.8346544276865,438.8346544276865,438.8346544276865,l,1,0.403065453923773,439.2597018934903,439.2597018934903,439.2597018934903,,,,,,,,,,,,,,,,,,,,,,,,,,,,109,001,2010-10-15_09h07.42.612,eb_01,2022.2.4,119.99645035503994,
,,,1,0,1,0,97,0,97,0,,,,,,,,,,,,,,,,,,,,,,,,,,,,,,,,,,,,,,,,,,,,,,,,,,,,,,,,,,,109,001,2010-10-15_09h07.42.612,eb_01,2022.2.4,119.99645035503994,
1,stimuli/1.png,s,1,0,1,0,98,0,98,0,0,0,0,0,,,,,,,,,,,,,,,,,,440.2847747146734,440.2847747146734,440.2847747146734,440.2847747146734,s,1,0.368941677530529,440.6848163699033,440.6848163699033,440.6848163699033,,,,,,,,,,,,,,,,,,,,,,,,,,,,109,001,2010-10-15_09h07.42.612,eb_01,2022.2.4,119.99645035503994,
,,,1,0,1,0,98,0,98,0,,,,,,,,,,,,,,,,,,,,,,,,,,,,,,,,,,,,,,,,,,,,,,,,,,,,,,,,,,,109,001,2010-10-15_09h07.42.612,eb_01,2022.2.4,119.99645035503994,
2,stimuli/2.png,s,1,0,1,0,99,0,99,0,0,0,0,0,,,,,,,,,,,,,,,,,,441.6848873045237,441.6848873045237,441.6848873045237,441.6848873045237,l,0,0.37585734989261255,442.0849171876034,442.0849171876034,442.0849171876034,,,,,,,,,,,,,,,,,,,,,,,,,,,,109,001,2010-10-15_09h07.42.612,eb_01,2022.2.4,119.99645035503994,
,,,1,0,1,0,99,0,99,0,,,,,,,,,,,,,,,,,,,,,,,,,,,,,,,,,,,,,,,,,,,,,,,,,,,,,,,,,,,109,001,2010-10-15_09h07.42.612,eb_01,2022.2.4,119.99645035503994,
,,,1,0,1,0,,,,,,,,,,,,,,,,,,,,,,,,,,,,,,,,,,,,,,,443.08502313675126,443.08502313675126,return,2.6798088607902173,,,,,,,,,,,,,,,,,,,,,109,001,2010-10-15_09h07.42.612,eb_01,2022.2.4,119.99645035503994,
3,stimuli/3.png,l,2,0,2,0,0,0,0,0,0,0,0,0,,,,,,,,,,,,,,,,,,445.7852311110182,445.7852311110182,445.7852311110182,445.7852311110182,l,1,1.0756385090353433,446.88534339901526,446.88534339901526,446.88534339901526,,,,,,,,,,,,,,,,,,,,,,,,,,,,109,001,2010-10-15_09h07.42.612,eb_01,2022.2.4,119.99645035503994,
,,,2,0,2,0,0,0,0,0,,,,,,,,,,,,,,,,,,,,,,,,,,,,,,,,,,,,,,,,,,,,,,,,,,,,,,,,,,,109,001,2010-10-15_09h07.42.612,eb_01,2022.2.4,119.99645035503994,
2,stimuli/2.png,s,2,0,2,0,1,0,1,0,0,0,0,0,,,,,,,,,,,,,,,,,,447.8937767702737,447.8937767702737,447.8937767702737,447.8937767702737,s,1,0.47108269555610605,448.3771406407177,448.3771406407177,448.3771406407177,449.38553809188306,449.38553809188306,449.38553809188306,,,,,,,,,,,,,,,,,,,,,,,,,109,001,2010-10-15_09h07.42.612,eb_01,2022.2.4,119.99645035503994,
,,,2,0,2,0,1,0,1,0,,,,,,,,,,,,,,,,,,,,,,,,,,,,,,,,,,,,,,,,,,,,,,,,,,,,,,,,,,,109,001,2010-10-15_09h07.42.612,eb_01,2022.2.4,119.99645035503994,
3,stimuli/3.png,l,2,0,2,0,2,0,2,0,0,0,0,0,,,,,,,,,,,,,,,,,,449.38553809188306,449.38553809188306,449.38553809188306,449.38553809188306,l,1,0.41939098041621037,449.8189069428481,449.8189069428481,449.8189069428481,450.82734695478575,450.82734695478575,450.82734695478575,,,,,,,,,,,,,,,,,,,,,,,,,109,001,2010-10-15_09h07.42.612,eb_01,2022.2.4,119.99645035503994,
,,,2,0,2,0,2,0,2,0,,,,,,,,,,,,,,,,,,,,,,,,,,,,,,,,,,,,,,,,,,,,,,,,,,,,,,,,,,,109,001,2010-10-15_09h07.42.612,eb_01,2022.2.4,119.99645035503994,
2,stimuli/2.png,s,2,0,2,0,3,0,3,0,0,0,0,0,,,,,,,,,,,,,,,,,,450.82734695478575,450.82734695478575,450.82734695478575,450.82734695478575,s,1,0.3535820692195557,451.1940674512589,451.1940674512589,451.1940674512589,452.2024784856767,452.2024784856767,452.2024784856767,,,,,,,,,,,,,,,,,,,,,,,,,109,001,2010-10-15_09h07.42.612,eb_01,2022.2.4,119.99645035503994,
,,,2,0,2,0,3,0,3,0,,,,,,,,,,,,,,,,,,,,,,,,,,,,,,,,,,,,,,,,,,,,,,,,,,,,,,,,,,,109,001,2010-10-15_09h07.42.612,eb_01,2022.2.4,119.99645035503994,
3,stimuli/3.png,l,2,0,2,0,4,0,4,0,0,0,0,0,,,,,,,,,,,,,,,,,,452.2024784856767,452.2024784856767,452.2024784856767,452.2024784856767,l,1,0.38648395909694955,452.6108469593164,452.6108469593164,452.6108469593164,,,,,,,,,,,,,,,,,,,,,,,,,,,,109,001,2010-10-15_09h07.42.612,eb_01,2022.2.4,119.99645035503994,
,,,2,0,2,0,4,0,4,0,,,,,,,,,,,,,,,,,,,,,,,,,,,,,,,,,,,,,,,,,,,,,,,,,,,,,,,,,,,109,001,2010-10-15_09h07.42.612,eb_01,2022.2.4,119.99645035503994,
2,stimuli/2.png,s,2,0,2,0,5,0,5,0,0,0,0,0,,,,,,,,,,,,,,,,,,453.61926523811417,453.61926523811417,453.61926523811417,453.61926523811417,s,1,0.39368970872601494,454.0275890380435,454.0275890380435,454.0275890380435,455.0443561702559,455.0443561702559,455.0443561702559,,,,,,,,,,,,,,,,,,,,,,,,,109,001,2010-10-15_09h07.42.612,eb_01,2022.2.4,119.99645035503994,
,,,2,0,2,0,5,0,5,0,,,,,,,,,,,,,,,,,,,,,,,,,,,,,,,,,,,,,,,,,,,,,,,,,,,,,,,,,,,109,001,2010-10-15_09h07.42.612,eb_01,2022.2.4,119.99645035503994,
4,stimuli/4.png,l,2,0,2,0,6,0,6,0,0,0,0,0,,,,,,,,,,,,,,,,,,455.0443561702559,455.0443561702559,455.0443561702559,455.0443561702559,l,1,0.6006452251749579,455.6694048434729,455.6694048434729,455.6694048434729,,,,,,,,,,,,,,,,,,,,,,,,,,,,109,001,2010-10-15_09h07.42.612,eb_01,2022.2.4,119.99645035503994,
,,,2,0,2,0,6,0,6,0,,,,,,,,,,,,,,,,,,,,,,,,,,,,,,,,,,,,,,,,,,,,,,,,,,,,,,,,,,,109,001,2010-10-15_09h07.42.612,eb_01,2022.2.4,119.99645035503994,
2,stimuli/2.png,s,2,0,2,0,7,0,7,0,0,0,0,0,,,,,,,,,,,,,,,,,,456.67786266453913,456.67786266453913,456.67786266453913,456.67786266453913,s,1,0.38221973218605854,457.0695515422849,457.0695515422849,457.0695515422849,458.0863032802008,458.0863032802008,458.0863032802008,,,,,,,,,,,,,,,,,,,,,,,,,109,001,2010-10-15_09h07.42.612,eb_01,2022.2.4,119.99645035503994,
