index,stimulus,correct_answer,block.thisRepN,block.thisTrialN,block.thisN,block.thisIndex,trial.thisRepN,trial.thisTrialN,trial.thisN,trial.thisIndex,display_row.thisRepN,display_row.thisTrialN,display_row.thisN,display_row.thisIndex,pair_questions.thisRepN,pair_questions.thisTrialN,pair_questions.thisN,pair_questions.thisIndex,welcome_text.started,instructions_0_keypress.started,instructions_0_keypress.keys,instructions_0_keypress.rt,instructions_1_keypress.started,instructions_1_text.started,instructions_1_keypress.keys,instructions_1_keypress.rt,instructions_2_keypress.started,instructions_2_text.started,instructions_2_keypress.keys,instructions_2_keypress.rt,text_countdown.started,image.started,size_question.started,size_resp.started,keypress_options.started,size_resp.keys,size_resp.corr,size_resp.rt,fb_image.started,fb.started,fb_size_question.started,fb_image.stopped,fb.stopped,fb_size_question.stopped,block_break_text.started,block_break_keypress.started,block_break_keypress.keys,block_break_keypress.rt,seq_reveal.started,seq_reveal_adv.started,seq_reveal_adv.keys,seq_reveal_adv.rt,instruction_2afc_text.started,instruction_2afc_keypress.started,instruction_2afc_keypress.keys,instruction_2afc_keypress.rt,dist_2afc_test.started,dist_2afc_resp.started,text.started,stim_00.started,stim_01.started,stim_10.started,stim_11.started,dist_2afc_resp.keys,dist_2afc_resp.rt,graph.started,debrief_text.started,debriefing_title.started,participant,session,date,expName,psychopyVersion,frameRate,
,,,,,,,,,,,,,,,,,,,12.356371827976545,12.356371827976545,return,103.02350879502774,,,,,,,,,,,,,,,,,,,,,,,,,,,,,,,,,,,,,,,,,,,,,,,110,001,2023-03-02_09h23.00.803,eb_01,2022.2.4,99.95169737229389,
,,,,,,,,,,,,,,,,,,,,,,,115.39857056571054,115.39857056571054,return,12.500488159741508,,,,,,,,,,,,,,,,,,,,,,,,,,,,,,,,,,,,,,,,,,,110,001,2023-03-02_09h23.00.803,eb_01,2022.2.4,99.95169737229389,
,,,,,,,,,,,,,,,,,,,,,,,,,,,127.91615792598168,127.91615792598168,space,9.855098399246344,,,,,,,,,,,,,,,,,,,,,,,,,,,,,,,,,,,,,,,110,001,2023-03-02_09h23.00.803,eb_01,2022.2.4,99.95169737229389,
1,stimuli/1.png,s,0,0,0,0,0,0,0,0,0,0,0,0,,,,,,,,,,,,,,,,,137.79212923708837,142.81516632311104,142.81516632311104,142.81516632311104,142.81516632311104,l,0,3.1632290839916095,146.01681538244884,146.01681538244884,146.01681538244884,,,,,,,,,,,,,,,,,,,,,,,,,,,,110,001,2023-03-02_09h23.00.803,eb_01,2022.2.4,99.95169737229389,
,,,0,0,0,0,0,0,0,0,,,,,,,,,,,,,,,,,,,,,,,,,,,,,,,,,,,,,,,,,,,,,,,,,,,,,,,,,,,110,001,2023-03-02_09h23.00.803,eb_01,2022.2.4,99.95169737229389,
2,stimuli/2.png,s,0,0,0,0,1,0,1,0,0,0,0,0,,,,,,,,,,,,,,,,,,147.0177302855882,147.0177302855882,147.0177302855882,147.0177302855882,l,0,2.7927234966191463,149.82912470844167,149.82912470844167,149.82912470844167,150.85003376175882,150.85003376175882,150.85003376175882,,,,,,,,,,,,,,,,,,,,,,,,,110,001,2023-03-02_09h23.00.803,eb_01,2022.2.4,99.95169737229389,
,,,0,0,0,0,1,0,1,0,,,,,,,,,,,,,,,,,,,,,,,,,,,,,,,,,,,,,,,,,,,,,,,,,,,,,,,,,,,110,001,2023-03-02_09h23.00.803,eb_01,2022.2.4,99.95169737229389,
1,stimuli/1.png,s,0,0,0,0,2,0,2,0,0,0,0,0,,,,,,,,,,,,,,,,,,150.85003376175882,150.85003376175882,150.85003376175882,150.85003376175882,s,1,2.232451422358281,153.1213929468213,153.1213929468213,153.1213929468213,,,,,,,,,,,,,,,,,,,,,,,,,,,,110,001,2023-03-02_09h23.00.803,eb_01,2022.2.4,99.95169737229389,
,,,0,0,0,0,2,0,2,0,,,,,,,,,,,,,,,,,,,,,,,,,,,,,,,,,,,,,,,,,,,,,,,,,,,,,,,,,,,110,001,2023-03-02_09h23.00.803,eb_01,2022.2.4,99.95169737229389,
4,stimuli/4.png,l,0,0,0,0,3,0,3,0,0,0,0,0,,,,,,,,,,,,,,,,,,154.13205001389724,154.13205001389724,154.13205001389724,154.13205001389724,l,1,1.5505120208690641,155.70298821070173,155.70298821070173,155.70298821070173,,,,,,,,,,,,,,,,,,,,,,,,,,,,110,001,2023-03-02_09h23.00.803,eb_01,2022.2.4,99.95169737229389,
,,,0,0,0,0,3,0,3,0,,,,,,,,,,,,,,,,,,,,,,,,,,,,,,,,,,,,,,,,,,,,,,,,,,,,,,,,,,,110,001,2023-03-02_09h23.00.803,eb_01,2022.2.4,99.95169737229389,
1,stimuli/1.png,s,0,0,0,0,4,0,4,0,0,0,0,0,,,,,,,,,,,,,,,,,,156.72361352630833,156.72361352630833,156.72361352630833,156.72361352630833,s,1,1.8299924428283703,158.5847513929475,158.5847513929475,158.5847513929475,,,,,,,,,,,,,,,,,,,,,,,,,,,,110,001,2023-03-02_09h23.00.803,eb_01,2022.2.4,99.95169737229389,
,,,0,0,0,0,4,0,4,0,,,,,,,,,,,,,,,,,,,,,,,,,,,,,,,,,,,,,,,,,,,,,,,,,,,,,,,,,,,110,001,2023-03-02_09h23.00.803,eb_01,2022.2.4,99.95169737229389,
2,stimuli/2.png,s,0,0,0,0,5,0,5,0,0,0,0,0,,,,,,,,,,,,,,,,,,159.58535026060417,159.58535026060417,159.58535026060417,159.58535026060417,s,1,1.2482942485803505,160.8458015423821,160.8458015423821,160.8458015423821,161.85640095637063,161.85640095637063,161.85640095637063,,,,,,,,,,,,,,,,,,,,,,,,,110,001,2023-03-02_09h23.00.803,eb_01,2022.2.4,99.95169737229389,
,,,0,0,0,0,5,0,5,0,,,,,,,,,,,,,,,,,,,,,,,,,,,,,,,,,,,,,,,,,,,,,,,,,,,,,,,,,,,110,001,2023-03-02_09h23.00.803,eb_01,2022.2.4,99.95169737229389,
4,stimuli/4.png,l,0,0,0,0,6,0,6,0,0,0,0,0,,,,,,,,,,,,,,,,,,161.85640095637063,161.85640095637063,161.85640095637063,161.85640095637063,l,1,1.5372970886674011,163.41769358079182,163.41769358079182,163.41769358079182,,,,,,,,,,,,,,,,,,,,,,,,,,,,110,001,2023-03-02_09h23.00.803,eb_01,2022.2.4,99.95169737229389,
,,,0,0,0,0,6,0,6,0,,,,,,,,,,,,,,,,,,,,,,,,,,,,,,,,,,,,,,,,,,,,,,,,,,,,,,,,,,,110,001,2023-03-02_09h23.00.803,eb_01,2022.2.4,99.95169737229389,
1,stimuli/1.png,s,0,0,0,0,7,0,7,0,0,0,0,0,,,,,,,,,,,,,,,,,,164.43796694093908,164.43796694093908,164.43796694093908,164.43796694093908,s,1,0.6357592001731973,165.1087086644693,165.1087086644693,165.1087086644693,,,,,,,,,,,,,,,,,,,,,,,,,,,,110,001,2023-03-02_09h23.00.803,eb_01,2022.2.4,99.95169737229389,
,,,0,0,0,0,7,0,7,0,,,,,,,,,,,,,,,,,,,,,,,,,,,,,,,,,,,,,,,,,,,,,,,,,,,,,,,,,,,110,001,2023-03-02_09h23.00.803,eb_01,2022.2.4,99.95169737229389,
4,stimuli/4.png,l,0,0,0,0,8,0,8,0,0,0,0,0,,,,,,,,,,,,,,,,,,166.10898153560993,166.10898153560993,166.10898153560993,166.10898153560993,l,1,0.6608259162603645,166.78974674599885,166.78974674599885,166.78974674599885,,,,,,,,,,,,,,,,,,,,,,,,,,,,110,001,2023-03-02_09h23.00.803,eb_01,2022.2.4,99.95169737229389,
,,,0,0,0,0,8,0,8,0,,,,,,,,,,,,,,,,,,,,,,,,,,,,,,,,,,,,,,,,,,,,,,,,,,,,,,,,,,,110,001,2023-03-02_09h23.00.803,eb_01,2022.2.4,99.95169737229389,
2,stimuli/2.png,s,0,0,0,0,9,0,9,0,0,0,0,0,,,,,,,,,,,,,,,,,,167.80030601412,167.80030601412,167.80030601412,167.80030601412,s,1,0.3774839450343279,168.19023887996445,168.19023887996445,168.19023887996445,169.20118059028755,169.20118059028755,169.20118059028755,,,,,,,,,,,,,,,,,,,,,,,,,110,001,2023-03-02_09h23.00.803,eb_01,2022.2.4,99.95169737229389,
,,,0,0,0,0,9,0,9,0,,,,,,,,,,,,,,,,,,,,,,,,,,,,,,,,,,,,,,,,,,,,,,,,,,,,,,,,,,,110,001,2023-03-02_09h23.00.803,eb_01,2022.2.4,99.95169737229389,
3,stimuli/3.png,l,0,0,0,0,10,0,10,0,0,0,0,0,,,,,,,,,,,,,,,,,,169.20118059028755,169.20118059028755,169.20118059028755,169.20118059028755,l,1,0.9526277985423803,170.171453935327,170.171453935327,170.171453935327,171.18207568612706,171.18207568612706,171.18207568612706,,,,,,,,,,,,,,,,,,,,,,,,,110,001,2023-03-02_09h23.00.803,eb_01,2022.2.4,99.95169737229389,
,,,0,0,0,0,10,0,10,0,,,,,,,,,,,,,,,,,,,,,,,,,,,,,,,,,,,,,,,,,,,,,,,,,,,,,,,,,,,110,001,2023-03-02_09h23.00.803,eb_01,2022.2.4,99.95169737229389,
4,stimuli/4.png,l,0,0,0,0,11,0,11,0,0,0,0,0,,,,,,,,,,,,,,,,,,171.18207568612706,171.18207568612706,171.18207568612706,171.18207568612706,l,1,0.6997595575667219,171.9028313097806,171.9028313097806,171.9028313097806,,,,,,,,,,,,,,,,,,,,,,,,,,,,110,001,2023-03-02_09h23.00.803,eb_01,2022.2.4,99.95169737229389,
,,,0,0,0,0,11,0,11,0,,,,,,,,,,,,,,,,,,,,,,,,,,,,,,,,,,,,,,,,,,,,,,,,,,,,,,,,,,,110,001,2023-03-02_09h23.00.803,eb_01,2022.2.4,99.95169737229389,
2,stimuli/2.png,s,0,0,0,0,12,0,12,0,0,0,0,0,,,,,,,,,,,,,,,,,,172.91344068478793,172.91344068478793,172.91344068478793,172.91344068478793,s,1,0.7674635974253761,173.69357868393126,173.69357868393126,173.69357868393126,174.70420767908217,174.70420767908217,174.70420767908217,,,,,,,,,,,,,,,,,,,,,,,,,110,001,2023-03-02_09h23.00.803,eb_01,2022.2.4,99.95169737229389,
,,,0,0,0,0,12,0,12,0,,,,,,,,,,,,,,,,,,,,,,,,,,,,,,,,,,,,,,,,,,,,,,,,,,,,,,,,,,,110,001,2023-03-02_09h23.00.803,eb_01,2022.2.4,99.95169737229389,
4,stimuli/4.png,l,0,0,0,0,13,0,13,0,0,0,0,0,,,,,,,,,,,,,,,,,,174.70420767908217,174.70420767908217,174.70420767908217,174.70420767908217,l,1,0.672667739141616,175.4049646248459,175.4049646248459,175.4049646248459,,,,,,,,,,,,,,,,,,,,,,,,,,,,110,001,2023-03-02_09h23.00.803,eb_01,2022.2.4,99.95169737229389,
,,,0,0,0,0,13,0,13,0,,,,,,,,,,,,,,,,,,,,,,,,,,,,,,,,,,,,,,,,,,,,,,,,,,,,,,,,,,,110,001,2023-03-02_09h23.00.803,eb_01,2022.2.4,99.95169737229389,
3,stimuli/3.png,l,0,0,0,0,14,0,14,0,0,0,0,0,,,,,,,,,,,,,,,,,,176.41554804086627,176.41554804086627,176.41554804086627,176.41554804086627,l,1,0.5693784646282438,176.99557731414097,176.99557731414097,176.99557731414097,178.00619725383876,178.00619725383876,178.00619725383876,,,,,,,,,,,,,,,,,,,,,,,,,110,001,2023-03-02_09h23.00.803,eb_01,2022.2.4,99.95169737229389,
,,,0,0,0,0,14,0,14,0,,,,,,,,,,,,,,,,,,,,,,,,,,,,,,,,,,,,,,,,,,,,,,,,,,,,,,,,,,,110,001,2023-03-02_09h23.00.803,eb_01,2022.2.4,99.95169737229389,
4,stimuli/4.png,l,0,0,0,0,15,0,15,0,0,0,0,0,,,,,,,,,,,,,,,,,,178.00619725383876,178.00619725383876,178.00619725383876,178.00619725383876,l,1,0.5787656546017388,178.60687780172157,178.60687780172157,178.60687780172157,,,,,,,,,,,,,,,,,,,,,,,,,,,,110,001,2023-03-02_09h23.00.803,eb_01,2022.2.4,99.95169737229389,
,,,0,0,0,0,15,0,15,0,,,,,,,,,,,,,,,,,,,,,,,,,,,,,,,,,,,,,,,,,,,,,,,,,,,,,,,,,,,110,001,2023-03-02_09h23.00.803,eb_01,2022.2.4,99.95169737229389,
2,stimuli/2.png,s,0,0,0,0,16,0,16,0,0,0,0,0,,,,,,,,,,,,,,,,,,179.6175004580582,179.6175004580582,179.6175004580582,179.6175004580582,s,1,1.7355020553513896,181.3685816043144,181.3685816043144,181.3685816043144,182.3791792072152,182.3791792072152,182.3791792072152,,,,,,,,,,,,,,,,,,,,,,,,,110,001,2023-03-02_09h23.00.803,eb_01,2022.2.4,99.95169737229389,
,,,0,0,0,0,16,0,16,0,,,,,,,,,,,,,,,,,,,,,,,,,,,,,,,,,,,,,,,,,,,,,,,,,,,,,,,,,,,110,001,2023-03-02_09h23.00.803,eb_01,2022.2.4,99.95169737229389,
3,stimuli/3.png,l,0,0,0,0,17,0,17,0,0,0,0,0,,,,,,,,,,,,,,,,,,182.3791792072152,182.3791792072152,182.3791792072152,182.3791792072152,l,1,0.5978427887021098,182.98920619550336,182.98920619550336,182.98920619550336,183.99984364242118,183.99984364242118,183.99984364242118,,,,,,,,,,,,,,,,,,,,,,,,,110,001,2023-03-02_09h23.00.803,eb_01,2022.2.4,99.95169737229389,
,,,0,0,0,0,17,0,17,0,,,,,,,,,,,,,,,,,,,,,,,,,,,,,,,,,,,,,,,,,,,,,,,,,,,,,,,,,,,110,001,2023-03-02_09h23.00.803,eb_01,2022.2.4,99.95169737229389,
4,stimuli/4.png,l,0,0,0,0,18,0,18,0,0,0,0,0,,,,,,,,,,,,,,,,,,183.99984364242118,183.99984364242118,183.99984364242118,183.99984364242118,l,1,0.6652120784419822,184.6905457090761,184.6905457090761,184.6905457090761,,,,,,,,,,,,,,,,,,,,,,,,,,,,110,001,2023-03-02_09h23.00.803,eb_01,2022.2.4,99.95169737229389,
,,,0,0,0,0,18,0,18,0,,,,,,,,,,,,,,,,,,,,,,,,,,,,,,,,,,,,,,,,,,,,,,,,,,,,,,,,,,,110,001,2023-03-02_09h23.00.803,eb_01,2022.2.4,99.95169737229389,
2,stimuli/2.png,s,0,0,0,0,19,0,19,0,0,0,0,0,,,,,,,,,,,,,,,,,,185.7011647432373,185.7011647432373,185.7011647432373,185.7011647432373,s,1,0.6599221815267811,186.3712574922538,186.3712574922538,186.3712574922538,187.39222480235912,187.39222480235912,187.39222480235912,,,,,,,,,,,,,,,,,,,,,,,,,110,001,2023-03-02_09h23.00.803,eb_01,2022.2.4,99.95169737229389,
,,,0,0,0,0,19,0,19,0,,,,,,,,,,,,,,,,,,,,,,,,,,,,,,,,,,,,,,,,,,,,,,,,,,,,,,,,,,,110,001,2023-03-02_09h23.00.803,eb_01,2022.2.4,99.95169737229389,
1,stimuli/1.png,s,0,0,0,0,20,0,20,0,0,0,0,0,,,,,,,,,,,,,,,,,,187.39222480235912,187.39222480235912,187.39222480235912,187.39222480235912,s,1,0.560909196297871,187.99257875003968,187.99257875003968,187.99257875003968,,,,,,,,,,,,,,,,,,,,,,,,,,,,110,001,2023-03-02_09h23.00.803,eb_01,2022.2.4,99.95169737229389,
,,,0,0,0,0,20,0,20,0,,,,,,,,,,,,,,,,,,,,,,,,,,,,,,,,,,,,,,,,,,,,,,,,,,,,,,,,,,,110,001,2023-03-02_09h23.00.803,eb_01,2022.2.4,99.95169737229389,
4,stimuli/4.png,l,0,0,0,0,21,0,21,0,0,0,0,0,,,,,,,,,,,,,,,,,,188.99284045277454,188.99284045277454,188.99284045277454,188.99284045277454,l,1,0.8633289053250337,189.88373364998552,189.88373364998552,189.88373364998552,,,,,,,,,,,,,,,,,,,,,,,,,,,,110,001,2023-03-02_09h23.00.803,eb_01,2022.2.4,99.95169737229389,
,,,0,0,0,0,21,0,21,0,,,,,,,,,,,,,,,,,,,,,,,,,,,,,,,,,,,,,,,,,,,,,,,,,,,,,,,,,,,110,001,2023-03-02_09h23.00.803,eb_01,2022.2.4,99.95169737229389,
3,stimuli/3.png,l,0,0,0,0,22,0,22,0,0,0,0,0,,,,,,,,,,,,,,,,,,190.89433215843746,190.89433215843746,190.89433215843746,190.89433215843746,l,1,0.5458445357944584,191.4543721111113,191.4543721111113,191.4543721111113,192.47530621786427,192.47530621786427,192.47530621786427,,,,,,,,,,,,,,,,,,,,,,,,,110,001,2023-03-02_09h23.00.803,eb_01,2022.2.4,99.95169737229389,
,,,0,0,0,0,22,0,22,0,,,,,,,,,,,,,,,,,,,,,,,,,,,,,,,,,,,,,,,,,,,,,,,,,,,,,,,,,,,110,001,2023-03-02_09h23.00.803,eb_01,2022.2.4,99.95169737229389,
4,stimuli/4.png,l,0,0,0,0,23,0,23,0,0,0,0,0,,,,,,,,,,,,,,,,,,192.47530621786427,192.47530621786427,192.47530621786427,192.47530621786427,l,1,0.5328985506930621,193.03565616907144,193.03565616907144,193.03565616907144,,,,,,,,,,,,,,,,,,,,,,,,,,,,110,001,2023-03-02_09h23.00.803,eb_01,2022.2.4,99.95169737229389,
,,,0,0,0,0,23,0,23,0,,,,,,,,,,,,,,,,,,,,,,,,,,,,,,,,,,,,,,,,,,,,,,,,,,,,,,,,,,,110,001,2023-03-02_09h23.00.803,eb_01,2022.2.4,99.95169737229389,
3,stimuli/3.png,l,0,0,0,0,24,0,24,0,0,0,0,0,,,,,,,,,,,,,,,,,,194.04623234072642,194.04623234072642,194.04623234072642,194.04623234072642,l,1,0.43399694762774743,194.4962155730318,194.4962155730318,194.4962155730318,195.50712830587872,195.50712830587872,195.50712830587872,,,,,,,,,,,,,,,,,,,,,,,,,110,001,2023-03-02_09h23.00.803,eb_01,2022.2.4,99.95169737229389,
,,,0,0,0,0,24,0,24,0,,,,,,,,,,,,,,,,,,,,,,,,,,,,,,,,,,,,,,,,,,,,,,,,,,,,,,,,,,,110,001,2023-03-02_09h23.00.803,eb_01,2022.2.4,99.95169737229389,
2,stimuli/2.png,s,0,0,0,0,25,0,25,0,0,0,0,0,,,,,,,,,,,,,,,,,,195.50712830587872,195.50712830587872,195.50712830587872,195.50712830587872,s,1,1.109136303566629,196.62745180306956,196.62745180306956,196.62745180306956,197.64843390375609,197.64843390375609,197.64843390375609,,,,,,,,,,,,,,,,,,,,,,,,,110,001,2023-03-02_09h23.00.803,eb_01,2022.2.4,99.95169737229389,
,,,0,0,0,0,25,0,25,0,,,,,,,,,,,,,,,,,,,,,,,,,,,,,,,,,,,,,,,,,,,,,,,,,,,,,,,,,,,110,001,2023-03-02_09h23.00.803,eb_01,2022.2.4,99.95169737229389,
1,stimuli/1.png,s,0,0,0,0,26,0,26,0,0,0,0,0,,,,,,,,,,,,,,,,,,197.64843390375609,197.64843390375609,197.64843390375609,197.64843390375609,s,1,0.5278280977217946,198.2087600089144,198.2087600089144,198.2087600089144,,,,,,,,,,,,,,,,,,,,,,,,,,,,110,001,2023-03-02_09h23.00.803,eb_01,2022.2.4,99.95169737229389,
,,,0,0,0,0,26,0,26,0,,,,,,,,,,,,,,,,,,,,,,,,,,,,,,,,,,,,,,,,,,,,,,,,,,,,,,,,,,,110,001,2023-03-02_09h23.00.803,eb_01,2022.2.4,99.95169737229389,
4,stimuli/4.png,l,0,0,0,0,27,0,27,0,0,0,0,0,,,,,,,,,,,,,,,,,,199.20903710594575,199.20903710594575,199.20903710594575,199.20903710594575,l,1,0.7192755795404082,199.9498028777598,199.9498028777598,199.9498028777598,,,,,,,,,,,,,,,,,,,,,,,,,,,,110,001,2023-03-02_09h23.00.803,eb_01,2022.2.4,99.95169737229389,
,,,0,0,0,0,27,0,27,0,,,,,,,,,,,,,,,,,,,,,,,,,,,,,,,,,,,,,,,,,,,,,,,,,,,,,,,,,,,110,001,2023-03-02_09h23.00.803,eb_01,2022.2.4,99.95169737229389,
1,stimuli/1.png,s,0,0,0,0,28,0,28,0,0,0,0,0,,,,,,,,,,,,,,,,,,200.9704598874814,200.9704598874814,200.9704598874814,200.9704598874814,s,1,0.9979002606705762,202.00107910878432,202.00107910878432,202.00107910878432,,,,,,,,,,,,,,,,,,,,,,,,,,,,110,001,2023-03-02_09h23.00.803,eb_01,2022.2.4,99.95169737229389,
,,,0,0,0,0,28,0,28,0,,,,,,,,,,,,,,,,,,,,,,,,,,,,,,,,,,,,,,,,,,,,,,,,,,,,,,,,,,,110,001,2023-03-02_09h23.00.803,eb_01,2022.2.4,99.95169737229389,
4,stimuli/4.png,l,0,0,0,0,29,0,29,0,0,0,0,0,,,,,,,,,,,,,,,,,,203.00135439471342,203.00135439471342,203.00135439471342,203.00135439471342,l,1,0.6381341450469336,203.66207293326443,203.66207293326443,203.66207293326443,,,,,,,,,,,,,,,,,,,,,,,,,,,,110,001,2023-03-02_09h23.00.803,eb_01,2022.2.4,99.95169737229389,
,,,0,0,0,0,29,0,29,0,,,,,,,,,,,,,,,,,,,,,,,,,,,,,,,,,,,,,,,,,,,,,,,,,,,,,,,,,,,110,001,2023-03-02_09h23.00.803,eb_01,2022.2.4,99.95169737229389,
1,stimuli/1.png,s,0,0,0,0,30,0,30,0,0,0,0,0,,,,,,,,,,,,,,,,,,204.68266383814625,204.68266383814625,204.68266383814625,204.68266383814625,s,1,1.036748478814843,205.75335738663853,205.75335738663853,205.75335738663853,,,,,,,,,,,,,,,,,,,,,,,,,,,,110,001,2023-03-02_09h23.00.803,eb_01,2022.2.4,99.95169737229389,
,,,0,0,0,0,30,0,30,0,,,,,,,,,,,,,,,,,,,,,,,,,,,,,,,,,,,,,,,,,,,,,,,,,,,,,,,,,,,110,001,2023-03-02_09h23.00.803,eb_01,2022.2.4,99.95169737229389,
4,stimuli/4.png,l,0,0,0,0,31,0,31,0,0,0,0,0,,,,,,,,,,,,,,,,,,206.75366859255882,206.75366859255882,206.75366859255882,206.75366859255882,l,1,0.5657894846372074,207.34432293695863,207.34432293695863,207.34432293695863,,,,,,,,,,,,,,,,,,,,,,,,,,,,110,001,2023-03-02_09h23.00.803,eb_01,2022.2.4,99.95169737229389,
,,,0,0,0,0,31,0,31,0,,,,,,,,,,,,,,,,,,,,,,,,,,,,,,,,,,,,,,,,,,,,,,,,,,,,,,,,,,,110,001,2023-03-02_09h23.00.803,eb_01,2022.2.4,99.95169737229389,
2,stimuli/2.png,s,0,0,0,0,32,0,32,0,0,0,0,0,,,,,,,,,,,,,,,,,,208.35493110456446,208.35493110456446,208.35493110456446,208.35493110456446,s,1,0.532595796554233,208.90493398721446,208.90493398721446,208.90493398721446,209.92588077161054,209.92588077161054,209.92588077161054,,,,,,,,,,,,,,,,,,,,,,,,,110,001,2023-03-02_09h23.00.803,eb_01,2022.2.4,99.95169737229389,
,,,0,0,0,0,32,0,32,0,,,,,,,,,,,,,,,,,,,,,,,,,,,,,,,,,,,,,,,,,,,,,,,,,,,,,,,,,,,110,001,2023-03-02_09h23.00.803,eb_01,2022.2.4,99.95169737229389,
1,stimuli/1.png,s,0,0,0,0,33,0,33,0,0,0,0,0,,,,,,,,,,,,,,,,,,209.92588077161054,209.92588077161054,209.92588077161054,209.92588077161054,s,1,0.6736249010864412,210.6363086450292,210.6363086450292,210.6363086450292,,,,,,,,,,,,,,,,,,,,,,,,,,,,110,001,2023-03-02_09h23.00.803,eb_01,2022.2.4,99.95169737229389,
,,,0,0,0,0,33,0,33,0,,,,,,,,,,,,,,,,,,,,,,,,,,,,,,,,,,,,,,,,,,,,,,,,,,,,,,,,,,,110,001,2023-03-02_09h23.00.803,eb_01,2022.2.4,99.95169737229389,
2,stimuli/2.png,s,0,0,0,0,34,0,34,0,0,0,0,0,,,,,,,,,,,,,,,,,,211.636916568139,211.636916568139,211.636916568139,211.636916568139,s,1,0.5946290065330686,212.24697645791457,212.24697645791457,212.24697645791457,213.2578964351269,213.2578964351269,213.2578964351269,,,,,,,,,,,,,,,,,,,,,,,,,110,001,2023-03-02_09h23.00.803,eb_01,2022.2.4,99.95169737229389,
,,,0,0,0,0,34,0,34,0,,,,,,,,,,,,,,,,,,,,,,,,,,,,,,,,,,,,,,,,,,,,,,,,,,,,,,,,,,,110,001,2023-03-02_09h23.00.803,eb_01,2022.2.4,99.95169737229389,
3,stimuli/3.png,l,0,0,0,0,35,0,35,0,0,0,0,0,,,,,,,,,,,,,,,,,,213.2578964351269,213.2578964351269,213.2578964351269,213.2578964351269,l,1,0.4457122959283879,213.71786783800053,213.71786783800053,213.71786783800053,214.72846725198906,214.72846725198906,214.72846725198906,,,,,,,,,,,,,,,,,,,,,,,,,110,001,2023-03-02_09h23.00.803,eb_01,2022.2.4,99.95169737229389,
,,,0,0,0,0,35,0,35,0,,,,,,,,,,,,,,,,,,,,,,,,,,,,,,,,,,,,,,,,,,,,,,,,,,,,,,,,,,,110,001,2023-03-02_09h23.00.803,eb_01,2022.2.4,99.95169737229389,
8,stimuli/8.png,l,0,0,0,0,36,0,36,0,0,0,0,0,,,,,,,,,,,,,,,,,,214.72846725198906,214.72846725198906,214.72846725198906,214.72846725198906,l,1,0.6551067906257231,215.40920589969028,215.40920589969028,215.40920589969028,,,,,,,,,,,,,,,,,,,,,,,,,,,,110,001,2023-03-02_09h23.00.803,eb_01,2022.2.4,99.95169737229389,
,,,0,0,0,0,36,0,36,0,,,,,,,,,,,,,,,,,,,,,,,,,,,,,,,,,,,,,,,,,,,,,,,,,,,,,,,,,,,110,001,2023-03-02_09h23.00.803,eb_01,2022.2.4,99.95169737229389,
6,stimuli/6.png,s,0,0,0,0,37,0,37,0,0,0,0,0,,,,,,,,,,,,,,,,,,216.42950401140843,216.42950401140843,216.42950401140843,216.42950401140843,s,1,0.6181650483049452,217.08021596663457,217.08021596663457,217.08021596663457,,,,,,,,,,,,,,,,,,,,,,,,,,,,110,001,2023-03-02_09h23.00.803,eb_01,2022.2.4,99.95169737229389,
,,,0,0,0,0,37,0,37,0,,,,,,,,,,,,,,,,,,,,,,,,,,,,,,,,,,,,,,,,,,,,,,,,,,,,,,,,,,,110,001,2023-03-02_09h23.00.803,eb_01,2022.2.4,99.95169737229389,
9,stimuli/9.png,l,0,0,0,0,38,0,38,0,0,0,0,0,,,,,,,,,,,,,,,,,,218.09093974226562,218.09093974226562,218.09093974226562,218.09093974226562,l,1,0.5967552281508688,218.7108746093727,218.7108746093727,218.7108746093727,,,,,,,,,,,,,,,,,,,,,,,,,,,,110,001,2023-03-02_09h23.00.803,eb_01,2022.2.4,99.95169737229389,
,,,0,0,0,0,38,0,38,0,,,,,,,,,,,,,,,,,,,,,,,,,,,,,,,,,,,,,,,,,,,,,,,,,,,,,,,,,,,110,001,2023-03-02_09h23.00.803,eb_01,2022.2.4,99.95169737229389,
8,stimuli/8.png,l,0,0,0,0,39,0,39,0,0,0,0,0,,,,,,,,,,,,,,,,,,219.72147975847474,219.72147975847474,219.72147975847474,219.72147975847474,l,1,0.6772238420962822,220.42225572071038,220.42225572071038,220.42225572071038,,,,,,,,,,,,,,,,,,,,,,,,,,,,110,001,2023-03-02_09h23.00.803,eb_01,2022.2.4,99.95169737229389,
,,,0,0,0,0,39,0,39,0,,,,,,,,,,,,,,,,,,,,,,,,,,,,,,,,,,,,,,,,,,,,,,,,,,,,,,,,,,,110,001,2023-03-02_09h23.00.803,eb_01,2022.2.4,99.95169737229389,
6,stimuli/6.png,s,0,0,0,0,40,0,40,0,0,0,0,0,,,,,,,,,,,,,,,,,,221.44252636420424,221.44252636420424,221.44252636420424,221.44252636420424,s,1,0.5402180776727619,222.01320406566083,222.01320406566083,222.01320406566083,,,,,,,,,,,,,,,,,,,,,,,,,,,,110,001,2023-03-02_09h23.00.803,eb_01,2022.2.4,99.95169737229389,
,,,0,0,0,0,40,0,40,0,,,,,,,,,,,,,,,,,,,,,,,,,,,,,,,,,,,,,,,,,,,,,,,,,,,,,,,,,,,110,001,2023-03-02_09h23.00.803,eb_01,2022.2.4,99.95169737229389,
5,stimuli/5.png,s,0,0,0,0,41,0,41,0,0,0,0,0,,,,,,,,,,,,,,,,,,223.01383251446532,223.01383251446532,223.01383251446532,223.01383251446532,s,1,0.8969294853595784,223.93435637876973,223.93435637876973,223.93435637876973,,,,,,,,,,,,,,,,,,,,,,,,,,,,110,001,2023-03-02_09h23.00.803,eb_01,2022.2.4,99.95169737229389,
,,,0,0,0,0,41,0,41,0,,,,,,,,,,,,,,,,,,,,,,,,,,,,,,,,,,,,,,,,,,,,,,,,,,,,,,,,,,,110,001,2023-03-02_09h23.00.803,eb_01,2022.2.4,99.95169737229389,
9,stimuli/9.png,l,0,0,0,0,42,0,42,0,0,0,0,0,,,,,,,,,,,,,,,,,,224.95499980529712,224.95499980529712,224.95499980529712,224.95499980529712,l,1,0.6357709722651634,225.61507812295167,225.61507812295167,225.61507812295167,,,,,,,,,,,,,,,,,,,,,,,,,,,,110,001,2023-03-02_09h23.00.803,eb_01,2022.2.4,99.95169737229389,
,,,0,0,0,0,42,0,42,0,,,,,,,,,,,,,,,,,,,,,,,,,,,,,,,,,,,,,,,,,,,,,,,,,,,,,,,,,,,110,001,2023-03-02_09h23.00.803,eb_01,2022.2.4,99.95169737229389,
6,stimuli/6.png,s,0,0,0,0,43,0,43,0,0,0,0,0,,,,,,,,,,,,,,,,,,226.6360007594485,226.6360007594485,226.6360007594485,226.6360007594485,s,1,0.4907982156291837,227.16633639397332,227.16633639397332,227.16633639397332,,,,,,,,,,,,,,,,,,,,,,,,,,,,110,001,2023-03-02_09h23.00.803,eb_01,2022.2.4,99.95169737229389,
,,,0,0,0,0,43,0,43,0,,,,,,,,,,,,,,,,,,,,,,,,,,,,,,,,,,,,,,,,,,,,,,,,,,,,,,,,,,,110,001,2023-03-02_09h23.00.803,eb_01,2022.2.4,99.95169737229389,
9,stimuli/9.png,l,0,0,0,0,44,0,44,0,0,0,0,0,,,,,,,,,,,,,,,,,,228.17696508727386,228.17696508727386,228.17696508727386,228.17696508727386,l,1,0.6298601727612549,228.82703108647547,228.82703108647547,228.82703108647547,,,,,,,,,,,,,,,,,,,,,,,,,,,,110,001,2023-03-02_09h23.00.803,eb_01,2022.2.4,99.95169737229389,
,,,0,0,0,0,44,0,44,0,,,,,,,,,,,,,,,,,,,,,,,,,,,,,,,,,,,,,,,,,,,,,,,,,,,,,,,,,,,110,001,2023-03-02_09h23.00.803,eb_01,2022.2.4,99.95169737229389,
6,stimuli/6.png,s,0,0,0,0,45,0,45,0,0,0,0,0,,,,,,,,,,,,,,,,,,229.8479712302069,229.8479712302069,229.8479712302069,229.8479712302069,s,1,0.3988898411625996,230.27827604598133,230.27827604598133,230.27827604598133,,,,,,,,,,,,,,,,,,,,,,,,,,,,110,001,2023-03-02_09h23.00.803,eb_01,2022.2.4,99.95169737229389,
,,,0,0,0,0,45,0,45,0,,,,,,,,,,,,,,,,,,,,,,,,,,,,,,,,,,,,,,,,,,,,,,,,,,,,,,,,,,,110,001,2023-03-02_09h23.00.803,eb_01,2022.2.4,99.95169737229389,
5,stimuli/5.png,s,0,0,0,0,46,0,46,0,0,0,0,0,,,,,,,,,,,,,,,,,,231.27886434893298,231.27886434893298,231.27886434893298,231.27886434893298,s,1,0.7920207930583274,232.09934562239505,232.09934562239505,232.09934562239505,,,,,,,,,,,,,,,,,,,,,,,,,,,,110,001,2023-03-02_09h23.00.803,eb_01,2022.2.4,99.95169737229389,
,,,0,0,0,0,46,0,46,0,,,,,,,,,,,,,,,,,,,,,,,,,,,,,,,,,,,,,,,,,,,,,,,,,,,,,,,,,,,110,001,2023-03-02_09h23.00.803,eb_01,2022.2.4,99.95169737229389,
9,stimuli/9.png,l,0,0,0,0,47,0,47,0,0,0,0,0,,,,,,,,,,,,,,,,,,233.11996580658888,233.11996580658888,233.11996580658888,233.11996580658888,l,1,0.5429793887888081,233.68998336512595,233.68998336512595,233.68998336512595,,,,,,,,,,,,,,,,,,,,,,,,,,,,110,001,2023-03-02_09h23.00.803,eb_01,2022.2.4,99.95169737229389,
,,,0,0,0,0,47,0,47,0,,,,,,,,,,,,,,,,,,,,,,,,,,,,,,,,,,,,,,,,,,,,,,,,,,,,,,,,,,,110,001,2023-03-02_09h23.00.803,eb_01,2022.2.4,99.95169737229389,
8,stimuli/8.png,l,0,0,0,0,48,0,48,0,0,0,0,0,,,,,,,,,,,,,,,,,,234.7009335272014,234.7009335272014,234.7009335272014,234.7009335272014,l,1,0.5780122404830763,235.30128143790353,235.30128143790353,235.30128143790353,,,,,,,,,,,,,,,,,,,,,,,,,,,,110,001,2023-03-02_09h23.00.803,eb_01,2022.2.4,99.95169737229389,
,,,0,0,0,0,48,0,48,0,,,,,,,,,,,,,,,,,,,,,,,,,,,,,,,,,,,,,,,,,,,,,,,,,,,,,,,,,,,110,001,2023-03-02_09h23.00.803,eb_01,2022.2.4,99.95169737229389,
9,stimuli/9.png,l,0,0,0,0,49,0,49,0,0,0,0,0,,,,,,,,,,,,,,,,,,236.3218983017723,236.3218983017723,236.3218983017723,236.3218983017723,l,1,0.556075996326399,236.90189527724579,236.90189527724579,236.90189527724579,,,,,,,,,,,,,,,,,,,,,,,,,,,,110,001,2023-03-02_09h23.00.803,eb_01,2022.2.4,99.95169737229389,
,,,0,0,0,0,49,0,49,0,,,,,,,,,,,,,,,,,,,,,,,,,,,,,,,,,,,,,,,,,,,,,,,,,,,,,,,,,,,110,001,2023-03-02_09h23.00.803,eb_01,2022.2.4,99.95169737229389,
5,stimuli/5.png,s,0,0,0,0,50,0,50,0,0,0,0,0,,,,,,,,,,,,,,,,,,237.91287260569516,237.91287260569516,237.91287260569516,237.91287260569516,s,1,0.6371075579227181,238.57326062001812,238.57326062001812,238.57326062001812,,,,,,,,,,,,,,,,,,,,,,,,,,,,110,001,2023-03-02_09h23.00.803,eb_01,2022.2.4,99.95169737229389,
,,,0,0,0,0,50,0,50,0,,,,,,,,,,,,,,,,,,,,,,,,,,,,,,,,,,,,,,,,,,,,,,,,,,,,,,,,,,,110,001,2023-03-02_09h23.00.803,eb_01,2022.2.4,99.95169737229389,
9,stimuli/9.png,l,0,0,0,0,51,0,51,0,0,0,0,0,,,,,,,,,,,,,,,,,,239.59388261529966,239.59388261529966,239.59388261529966,239.59388261529966,l,1,0.5001383172057103,240.11386272951495,240.11386272951495,240.11386272951495,,,,,,,,,,,,,,,,,,,,,,,,,,,,110,001,2023-03-02_09h23.00.803,eb_01,2022.2.4,99.95169737229389,
,,,0,0,0,0,51,0,51,0,,,,,,,,,,,,,,,,,,,,,,,,,,,,,,,,,,,,,,,,,,,,,,,,,,,,,,,,,,,110,001,2023-03-02_09h23.00.803,eb_01,2022.2.4,99.95169737229389,
5,stimuli/5.png,s,0,0,0,0,52,0,52,0,0,0,0,0,,,,,,,,,,,,,,,,,,241.1247911584942,241.1247911584942,241.1247911584942,241.1247911584942,s,1,0.5132663170079468,241.6651369985193,241.6651369985193,241.6651369985193,,,,,,,,,,,,,,,,,,,,,,,,,,,,110,001,2023-03-02_09h23.00.803,eb_01,2022.2.4,99.95169737229389,
,,,0,0,0,0,52,0,52,0,,,,,,,,,,,,,,,,,,,,,,,,,,,,,,,,,,,,,,,,,,,,,,,,,,,,,,,,,,,110,001,2023-03-02_09h23.00.803,eb_01,2022.2.4,99.95169737229389,
9,stimuli/9.png,l,0,0,0,0,53,0,53,0,0,0,0,0,,,,,,,,,,,,,,,,,,242.68571009433072,242.68571009433072,242.68571009433072,242.68571009433072,l,1,0.4563678537670057,243.165745072547,243.165745072547,243.165745072547,,,,,,,,,,,,,,,,,,,,,,,,,,,,110,001,2023-03-02_09h23.00.803,eb_01,2022.2.4,99.95169737229389,
,,,0,0,0,0,53,0,53,0,,,,,,,,,,,,,,,,,,,,,,,,,,,,,,,,,,,,,,,,,,,,,,,,,,,,,,,,,,,110,001,2023-03-02_09h23.00.803,eb_01,2022.2.4,99.95169737229389,
5,stimuli/5.png,s,0,0,0,0,54,0,54,0,0,0,0,0,,,,,,,,,,,,,,,,,,244.17665871094505,244.17665871094505,244.17665871094505,244.17665871094505,s,1,0.5574654054944403,244.75699586980045,244.75699586980045,244.75699586980045,,,,,,,,,,,,,,,,,,,,,,,,,,,,110,001,2023-03-02_09h23.00.803,eb_01,2022.2.4,99.95169737229389,
,,,0,0,0,0,54,0,54,0,,,,,,,,,,,,,,,,,,,,,,,,,,,,,,,,,,,,,,,,,,,,,,,,,,,,,,,,,,,110,001,2023-03-02_09h23.00.803,eb_01,2022.2.4,99.95169737229389,
6,stimuli/6.png,s,0,0,0,0,55,0,55,0,0,0,0,0,,,,,,,,,,,,,,,,,,245.77729307598202,245.77729307598202,245.77729307598202,245.77729307598202,s,1,0.5168417138193035,246.327947951635,246.327947951635,246.327947951635,,,,,,,,,,,,,,,,,,,,,,,,,,,,110,001,2023-03-02_09h23.00.803,eb_01,2022.2.4,99.95169737229389,
,,,0,0,0,0,55,0,55,0,,,,,,,,,,,,,,,,,,,,,,,,,,,,,,,,,,,,,,,,,,,,,,,,,,,,,,,,,,,110,001,2023-03-02_09h23.00.803,eb_01,2022.2.4,99.95169737229389,
9,stimuli/9.png,l,0,0,0,0,56,0,56,0,0,0,0,0,,,,,,,,,,,,,,,,,,247.33857272090972,247.33857272090972,247.33857272090972,247.33857272090972,l,1,0.6275975155876949,247.9886465681775,247.9886465681775,247.9886465681775,,,,,,,,,,,,,,,,,,,,,,,,,,,,110,001,2023-03-02_09h23.00.803,eb_01,2022.2.4,99.95169737229389,
,,,0,0,0,0,56,0,56,0,,,,,,,,,,,,,,,,,,,,,,,,,,,,,,,,,,,,,,,,,,,,,,,,,,,,,,,,,,,110,001,2023-03-02_09h23.00.803,eb_01,2022.2.4,99.95169737229389,
5,stimuli/5.png,s,0,0,0,0,57,0,57,0,0,0,0,0,,,,,,,,,,,,,,,,,,248.99958375075948,248.99958375075948,248.99958375075948,248.99958375075948,s,1,0.47066008366527967,249.49989057987113,249.49989057987113,249.49989057987113,,,,,,,,,,,,,,,,,,,,,,,,,,,,110,001,2023-03-02_09h23.00.803,eb_01,2022.2.4,99.95169737229389,
,,,0,0,0,0,57,0,57,0,,,,,,,,,,,,,,,,,,,,,,,,,,,,,,,,,,,,,,,,,,,,,,,,,,,,,,,,,,,110,001,2023-03-02_09h23.00.803,eb_01,2022.2.4,99.95169737229389,
9,stimuli/9.png,l,0,0,0,0,58,0,58,0,0,0,0,0,,,,,,,,,,,,,,,,,,250.52052253617148,250.52052253617148,250.52052253617148,250.52052253617148,l,1,0.4376668230397627,250.980468281894,250.980468281894,250.980468281894,,,,,,,,,,,,,,,,,,,,,,,,,,,,110,001,2023-03-02_09h23.00.803,eb_01,2022.2.4,99.95169737229389,
,,,0,0,0,0,58,0,58,0,,,,,,,,,,,,,,,,,,,,,,,,,,,,,,,,,,,,,,,,,,,,,,,,,,,,,,,,,,,110,001,2023-03-02_09h23.00.803,eb_01,2022.2.4,99.95169737229389,
6,stimuli/6.png,s,0,0,0,0,59,0,59,0,0,0,0,0,,,,,,,,,,,,,,,,,,252.0014072182239,252.0014072182239,252.0014072182239,252.0014072182239,s,1,0.7318813812598819,252.77188726920576,252.77188726920576,252.77188726920576,,,,,,,,,,,,,,,,,,,,,,,,,,,,110,001,2023-03-02_09h23.00.803,eb_01,2022.2.4,99.95169737229389,
,,,0,0,0,0,59,0,59,0,,,,,,,,,,,,,,,,,,,,,,,,,,,,,,,,,,,,,,,,,,,,,,,,,,,,,,,,,,,110,001,2023-03-02_09h23.00.803,eb_01,2022.2.4,99.95169737229389,
5,stimuli/5.png,s,0,0,0,0,60,0,60,0,0,0,0,0,,,,,,,,,,,,,,,,,,253.77249489045062,253.77249489045062,253.77249489045062,253.77249489045062,s,1,0.6008057346771238,254.4028456475935,254.4028456475935,254.4028456475935,,,,,,,,,,,,,,,,,,,,,,,,,,,,110,001,2023-03-02_09h23.00.803,eb_01,2022.2.4,99.95169737229389,
,,,0,0,0,0,60,0,60,0,,,,,,,,,,,,,,,,,,,,,,,,,,,,,,,,,,,,,,,,,,,,,,,,,,,,,,,,,,,110,001,2023-03-02_09h23.00.803,eb_01,2022.2.4,99.95169737229389,
6,stimuli/6.png,s,0,0,0,0,61,0,61,0,0,0,0,0,,,,,,,,,,,,,,,,,,255.42316126654623,255.42316126654623,255.42316126654623,255.42316126654623,s,1,0.4861654431297211,255.94382174752536,255.94382174752536,255.94382174752536,,,,,,,,,,,,,,,,,,,,,,,,,,,,110,001,2023-03-02_09h23.00.803,eb_01,2022.2.4,99.95169737229389,
,,,0,0,0,0,61,0,61,0,,,,,,,,,,,,,,,,,,,,,,,,,,,,,,,,,,,,,,,,,,,,,,,,,,,,,,,,,,,110,001,2023-03-02_09h23.00.803,eb_01,2022.2.4,99.95169737229389,
8,stimuli/8.png,l,0,0,0,0,62,0,62,0,0,0,0,0,,,,,,,,,,,,,,,,,,256.94442635029554,256.94442635029554,256.94442635029554,256.94442635029554,l,1,1.108928329878836,258.07507035335584,258.07507035335584,258.07507035335584,,,,,,,,,,,,,,,,,,,,,,,,,,,,110,001,2023-03-02_09h23.00.803,eb_01,2022.2.4,99.95169737229389,
,,,0,0,0,0,62,0,62,0,,,,,,,,,,,,,,,,,,,,,,,,,,,,,,,,,,,,,,,,,,,,,,,,,,,,,,,,,,,110,001,2023-03-02_09h23.00.803,eb_01,2022.2.4,99.95169737229389,
3,stimuli/3.png,l,0,0,0,0,63,0,63,0,0,0,0,0,,,,,,,,,,,,,,,,,,259.08570961137593,259.08570961137593,259.08570961137593,259.08570961137593,l,1,0.4956751836434705,259.5956949143583,259.5956949143583,259.5956949143583,260.606313948505,260.606313948505,260.606313948505,,,,,,,,,,,,,,,,,,,,,,,,,110,001,2023-03-02_09h23.00.803,eb_01,2022.2.4,99.95169737229389,
,,,0,0,0,0,63,0,63,0,,,,,,,,,,,,,,,,,,,,,,,,,,,,,,,,,,,,,,,,,,,,,,,,,,,,,,,,,,,110,001,2023-03-02_09h23.00.803,eb_01,2022.2.4,99.95169737229389,
8,stimuli/8.png,l,0,0,0,0,64,0,64,0,0,0,0,0,,,,,,,,,,,,,,,,,,260.606313948505,260.606313948505,260.606313948505,260.606313948505,l,1,0.4390646839601686,261.0668842190207,261.0668842190207,261.0668842190207,,,,,,,,,,,,,,,,,,,,,,,,,,,,110,001,2023-03-02_09h23.00.803,eb_01,2022.2.4,99.95169737229389,
,,,0,0,0,0,64,0,64,0,,,,,,,,,,,,,,,,,,,,,,,,,,,,,,,,,,,,,,,,,,,,,,,,,,,,,,,,,,,110,001,2023-03-02_09h23.00.803,eb_01,2022.2.4,99.95169737229389,
3,stimuli/3.png,l,0,0,0,0,65,0,65,0,0,0,0,0,,,,,,,,,,,,,,,,,,262.0775316269428,262.0775316269428,262.0775316269428,262.0775316269428,l,1,0.6319079137465451,262.7275946076552,262.7275946076552,262.7275946076552,263.73819190870563,263.73819190870563,263.73819190870563,,,,,,,,,,,,,,,,,,,,,,,,,110,001,2023-03-02_09h23.00.803,eb_01,2022.2.4,99.95169737229389,
,,,0,0,0,0,65,0,65,0,,,,,,,,,,,,,,,,,,,,,,,,,,,,,,,,,,,,,,,,,,,,,,,,,,,,,,,,,,,110,001,2023-03-02_09h23.00.803,eb_01,2022.2.4,99.95169737229389,
4,stimuli/4.png,l,0,0,0,0,66,0,66,0,0,0,0,0,,,,,,,,,,,,,,,,,,263.73819190870563,263.73819190870563,263.73819190870563,263.73819190870563,l,1,0.6912549729458988,264.4586710390431,264.4586710390431,264.4586710390431,,,,,,,,,,,,,,,,,,,,,,,,,,,,110,001,2023-03-02_09h23.00.803,eb_01,2022.2.4,99.95169737229389,
,,,0,0,0,0,66,0,66,0,,,,,,,,,,,,,,,,,,,,,,,,,,,,,,,,,,,,,,,,,,,,,,,,,,,,,,,,,,,110,001,2023-03-02_09h23.00.803,eb_01,2022.2.4,99.95169737229389,
1,stimuli/1.png,s,0,0,0,0,67,0,67,0,0,0,0,0,,,,,,,,,,,,,,,,,,265.4695831681893,265.4695831681893,265.4695831681893,265.4695831681893,l,0,0.8478905562369619,266.3501232598792,266.3501232598792,266.3501232598792,,,,,,,,,,,,,,,,,,,,,,,,,,,,110,001,2023-03-02_09h23.00.803,eb_01,2022.2.4,99.95169737229389,
,,,0,0,0,0,67,0,67,0,,,,,,,,,,,,,,,,,,,,,,,,,,,,,,,,,,,,,,,,,,,,,,,,,,,,,,,,,,,110,001,2023-03-02_09h23.00.803,eb_01,2022.2.4,99.95169737229389,
2,stimuli/2.png,s,0,0,0,0,68,0,68,0,0,0,0,0,,,,,,,,,,,,,,,,,,267.35072454230976,267.35072454230976,267.35072454230976,267.35072454230976,s,1,0.549785773124313,267.92108258607914,267.92108258607914,267.92108258607914,,,,,,,,,,,,,,,,,,,,,,,,,,,,110,001,2023-03-02_09h23.00.803,eb_01,2022.2.4,99.95169737229389,
,,,0,0,0,0,68,0,68,0,,,,,,,,,,,,,,,,,,,,,,,,,,,,,,,,,,,,,,,,,,,,,,,,,,,,,,,,,,,110,001,2023-03-02_09h23.00.803,eb_01,2022.2.4,99.95169737229389,
4,stimuli/4.png,l,0,0,0,0,69,0,69,0,0,0,0,0,,,,,,,,,,,,,,,,,,268.93136385163234,268.93136385163234,268.93136385163234,268.93136385163234,l,1,0.7771819153131219,269.73214829580684,269.73214829580684,269.73214829580684,,,,,,,,,,,,,,,,,,,,,,,,,,,,110,001,2023-03-02_09h23.00.803,eb_01,2022.2.4,99.95169737229389,
,,,0,0,0,0,69,0,69,0,,,,,,,,,,,,,,,,,,,,,,,,,,,,,,,,,,,,,,,,,,,,,,,,,,,,,,,,,,,110,001,2023-03-02_09h23.00.803,eb_01,2022.2.4,99.95169737229389,
1,stimuli/1.png,s,0,0,0,0,70,0,70,0,0,0,0,0,,,,,,,,,,,,,,,,,,270.75279625007533,270.75279625007533,270.75279625007533,270.75279625007533,s,1,0.5397725491347956,271.3231467476289,271.3231467476289,271.3231467476289,,,,,,,,,,,,,,,,,,,,,,,,,,,,110,001,2023-03-02_09h23.00.803,eb_01,2022.2.4,99.95169737229389,
,,,0,0,0,0,70,0,70,0,,,,,,,,,,,,,,,,,,,,,,,,,,,,,,,,,,,,,,,,,,,,,,,,,,,,,,,,,,,110,001,2023-03-02_09h23.00.803,eb_01,2022.2.4,99.95169737229389,
4,stimuli/4.png,l,0,0,0,0,71,0,71,0,0,0,0,0,,,,,,,,,,,,,,,,,,272.32339094314375,272.32339094314375,272.32339094314375,272.32339094314375,l,1,0.5772250192967476,272.9240871871589,272.9240871871589,272.9240871871589,,,,,,,,,,,,,,,,,,,,,,,,,,,,110,001,2023-03-02_09h23.00.803,eb_01,2022.2.4,99.95169737229389,
,,,0,0,0,0,71,0,71,0,,,,,,,,,,,,,,,,,,,,,,,,,,,,,,,,,,,,,,,,,,,,,,,,,,,,,,,,,,,110,001,2023-03-02_09h23.00.803,eb_01,2022.2.4,99.95169737229389,
1,stimuli/1.png,s,0,0,0,0,72,0,72,0,0,0,0,0,,,,,,,,,,,,,,,,,,273.94470676765195,273.94470676765195,273.94470676765195,273.94470676765195,s,1,0.4199314060242614,274.3950093557942,274.3950093557942,274.3950093557942,,,,,,,,,,,,,,,,,,,,,,,,,,,,110,001,2023-03-02_09h23.00.803,eb_01,2022.2.4,99.95169737229389,
,,,0,0,0,0,72,0,72,0,,,,,,,,,,,,,,,,,,,,,,,,,,,,,,,,,,,,,,,,,,,,,,,,,,,,,,,,,,,110,001,2023-03-02_09h23.00.803,eb_01,2022.2.4,99.95169737229389,
2,stimuli/2.png,s,0,0,0,0,73,0,73,0,0,0,0,0,,,,,,,,,,,,,,,,,,275.3956133548636,275.3956133548636,275.3956133548636,275.3956133548636,s,1,0.5770279121497879,275.98563894860854,275.98563894860854,275.98563894860854,276.9965429278527,276.9965429278527,276.9965429278527,,,,,,,,,,,,,,,,,,,,,,,,,110,001,2023-03-02_09h23.00.803,eb_01,2022.2.4,99.95169737229389,
,,,0,0,0,0,73,0,73,0,,,,,,,,,,,,,,,,,,,,,,,,,,,,,,,,,,,,,,,,,,,,,,,,,,,,,,,,,,,110,001,2023-03-02_09h23.00.803,eb_01,2022.2.4,99.95169737229389,
3,stimuli/3.png,l,0,0,0,0,74,0,74,0,0,0,0,0,,,,,,,,,,,,,,,,,,276.9965429278527,276.9965429278527,276.9965429278527,276.9965429278527,l,1,0.544152976188343,277.55659465263307,277.55659465263307,277.55659465263307,278.56722425148473,278.56722425148473,278.56722425148473,,,,,,,,,,,,,,,,,,,,,,,,,110,001,2023-03-02_09h23.00.803,eb_01,2022.2.4,99.95169737229389,
,,,0,0,0,0,74,0,74,0,,,,,,,,,,,,,,,,,,,,,,,,,,,,,,,,,,,,,,,,,,,,,,,,,,,,,,,,,,,110,001,2023-03-02_09h23.00.803,eb_01,2022.2.4,99.95169737229389,
4,stimuli/4.png,l,0,0,0,0,75,0,75,0,0,0,0,0,,,,,,,,,,,,,,,,,,278.56722425148473,278.56722425148473,278.56722425148473,278.56722425148473,l,1,0.5415311191463843,279.13789350115985,279.13789350115985,279.13789350115985,,,,,,,,,,,,,,,,,,,,,,,,,,,,110,001,2023-03-02_09h23.00.803,eb_01,2022.2.4,99.95169737229389,
,,,0,0,0,0,75,0,75,0,,,,,,,,,,,,,,,,,,,,,,,,,,,,,,,,,,,,,,,,,,,,,,,,,,,,,,,,,,,110,001,2023-03-02_09h23.00.803,eb_01,2022.2.4,99.95169737229389,
1,stimuli/1.png,s,0,0,0,0,76,0,76,0,0,0,0,0,,,,,,,,,,,,,,,,,,280.15851187426597,280.15851187426597,280.15851187426597,280.15851187426597,s,1,0.8222153133538086,281.0190197828488,281.0190197828488,281.0190197828488,,,,,,,,,,,,,,,,,,,,,,,,,,,,110,001,2023-03-02_09h23.00.803,eb_01,2022.2.4,99.95169737229389,
,,,0,0,0,0,76,0,76,0,,,,,,,,,,,,,,,,,,,,,,,,,,,,,,,,,,,,,,,,,,,,,,,,,,,,,,,,,,,110,001,2023-03-02_09h23.00.803,eb_01,2022.2.4,99.95169737229389,
2,stimuli/2.png,s,0,0,0,0,77,0,77,0,0,0,0,0,,,,,,,,,,,,,,,,,,282.01963917620014,282.01963917620014,282.01963917620014,282.01963917620014,s,1,0.5202172868448542,282.5496331181057,282.5496331181057,282.5496331181057,283.5605766395165,283.5605766395165,283.5605766395165,,,,,,,,,,,,,,,,,,,,,,,,,110,001,2023-03-02_09h23.00.803,eb_01,2022.2.4,99.95169737229389,
,,,0,0,0,0,77,0,77,0,,,,,,,,,,,,,,,,,,,,,,,,,,,,,,,,,,,,,,,,,,,,,,,,,,,,,,,,,,,110,001,2023-03-02_09h23.00.803,eb_01,2022.2.4,99.95169737229389,
3,stimuli/3.png,l,0,0,0,0,78,0,78,0,0,0,0,0,,,,,,,,,,,,,,,,,,283.5605766395165,283.5605766395165,283.5605766395165,283.5605766395165,l,1,0.5391890757600777,284.1105774092284,284.1105774092284,284.1105774092284,285.1215103659342,285.1215103659342,285.1215103659342,,,,,,,,,,,,,,,,,,,,,,,,,110,001,2023-03-02_09h23.00.803,eb_01,2022.2.4,99.95169737229389,
,,,0,0,0,0,78,0,78,0,,,,,,,,,,,,,,,,,,,,,,,,,,,,,,,,,,,,,,,,,,,,,,,,,,,,,,,,,,,110,001,2023-03-02_09h23.00.803,eb_01,2022.2.4,99.95169737229389,
2,stimuli/2.png,s,0,0,0,0,79,0,79,0,0,0,0,0,,,,,,,,,,,,,,,,,,285.1215103659342,285.1215103659342,285.1215103659342,285.1215103659342,s,1,0.5383387682231842,285.6715186818619,285.6715186818619,285.6715186818619,286.6824649199116,286.6824649199116,286.6824649199116,,,,,,,,,,,,,,,,,,,,,,,,,110,001,2023-03-02_09h23.00.803,eb_01,2022.2.4,99.95169737229389,
,,,0,0,0,0,79,0,79,0,,,,,,,,,,,,,,,,,,,,,,,,,,,,,,,,,,,,,,,,,,,,,,,,,,,,,,,,,,,110,001,2023-03-02_09h23.00.803,eb_01,2022.2.4,99.95169737229389,
3,stimuli/3.png,l,0,0,0,0,80,0,80,0,0,0,0,0,,,,,,,,,,,,,,,,,,286.6824649199116,286.6824649199116,286.6824649199116,286.6824649199116,l,1,0.465384675480891,287.1624371136131,287.1624371136131,287.1624371136131,288.1733474316716,288.1733474316716,288.1733474316716,,,,,,,,,,,,,,,,,,,,,,,,,110,001,2023-03-02_09h23.00.803,eb_01,2022.2.4,99.95169737229389,
,,,0,0,0,0,80,0,80,0,,,,,,,,,,,,,,,,,,,,,,,,,,,,,,,,,,,,,,,,,,,,,,,,,,,,,,,,,,,110,001,2023-03-02_09h23.00.803,eb_01,2022.2.4,99.95169737229389,
8,stimuli/8.png,l,0,0,0,0,81,0,81,0,0,0,0,0,,,,,,,,,,,,,,,,,,288.1733474316716,288.1733474316716,288.1733474316716,288.1733474316716,l,1,0.4945432513486594,288.6936580701149,288.6936580701149,288.6936580701149,,,,,,,,,,,,,,,,,,,,,,,,,,,,110,001,2023-03-02_09h23.00.803,eb_01,2022.2.4,99.95169737229389,
,,,0,0,0,0,81,0,81,0,,,,,,,,,,,,,,,,,,,,,,,,,,,,,,,,,,,,,,,,,,,,,,,,,,,,,,,,,,,110,001,2023-03-02_09h23.00.803,eb_01,2022.2.4,99.95169737229389,
3,stimuli/3.png,l,0,0,0,0,82,0,82,0,0,0,0,0,,,,,,,,,,,,,,,,,,289.7042758968746,289.7042758968746,289.7042758968746,289.7042758968746,l,1,0.8356611597555457,290.5544823160453,290.5544823160453,290.5544823160453,291.5654007840203,291.5654007840203,291.5654007840203,,,,,,,,,,,,,,,,,,,,,,,,,110,001,2023-03-02_09h23.00.803,eb_01,2022.2.4,99.95169737229389,
,,,0,0,0,0,82,0,82,0,,,,,,,,,,,,,,,,,,,,,,,,,,,,,,,,,,,,,,,,,,,,,,,,,,,,,,,,,,,110,001,2023-03-02_09h23.00.803,eb_01,2022.2.4,99.95169737229389,
2,stimuli/2.png,s,0,0,0,0,83,0,83,0,0,0,0,0,,,,,,,,,,,,,,,,,,291.5654007840203,291.5654007840203,291.5654007840203,291.5654007840203,s,1,1.1665575686201919,292.7458111713495,292.7458111713495,292.7458111713495,293.75645163675654,293.75645163675654,293.75645163675654,,,,,,,,,,,,,,,,,,,,,,,,,110,001,2023-03-02_09h23.00.803,eb_01,2022.2.4,99.95169737229389,
,,,0,0,0,0,83,0,83,0,,,,,,,,,,,,,,,,,,,,,,,,,,,,,,,,,,,,,,,,,,,,,,,,,,,,,,,,,,,110,001,2023-03-02_09h23.00.803,eb_01,2022.2.4,99.95169737229389,
4,stimuli/4.png,l,0,0,0,0,84,0,84,0,0,0,0,0,,,,,,,,,,,,,,,,,,293.75645163675654,293.75645163675654,293.75645163675654,293.75645163675654,l,1,0.43951594762620516,294.2170436403685,294.2170436403685,294.2170436403685,,,,,,,,,,,,,,,,,,,,,,,,,,,,110,001,2023-03-02_09h23.00.803,eb_01,2022.2.4,99.95169737229389,
,,,0,0,0,0,84,0,84,0,,,,,,,,,,,,,,,,,,,,,,,,,,,,,,,,,,,,,,,,,,,,,,,,,,,,,,,,,,,110,001,2023-03-02_09h23.00.803,eb_01,2022.2.4,99.95169737229389,
1,stimuli/1.png,s,0,0,0,0,85,0,85,0,0,0,0,0,,,,,,,,,,,,,,,,,,295.23765416540846,295.23765416540846,295.23765416540846,295.23765416540846,s,1,0.7183507153968094,295.98811923865287,295.98811923865287,295.98811923865287,,,,,,,,,,,,,,,,,,,,,,,,,,,,110,001,2023-03-02_09h23.00.803,eb_01,2022.2.4,99.95169737229389,
,,,0,0,0,0,85,0,85,0,,,,,,,,,,,,,,,,,,,,,,,,,,,,,,,,,,,,,,,,,,,,,,,,,,,,,,,,,,,110,001,2023-03-02_09h23.00.803,eb_01,2022.2.4,99.95169737229389,
4,stimuli/4.png,l,0,0,0,0,86,0,86,0,0,0,0,0,,,,,,,,,,,,,,,,,,296.988372187785,296.988372187785,296.988372187785,296.988372187785,l,1,0.8316921523510246,297.8492501627625,297.8492501627625,297.8492501627625,,,,,,,,,,,,,,,,,,,,,,,,,,,,110,001,2023-03-02_09h23.00.803,eb_01,2022.2.4,99.95169737229389,
,,,0,0,0,0,86,0,86,0,,,,,,,,,,,,,,,,,,,,,,,,,,,,,,,,,,,,,,,,,,,,,,,,,,,,,,,,,,,110,001,2023-03-02_09h23.00.803,eb_01,2022.2.4,99.95169737229389,
2,stimuli/2.png,s,0,0,0,0,87,0,87,0,0,0,0,0,,,,,,,,,,,,,,,,,,298.8598088271974,298.8598088271974,298.8598088271974,298.8598088271974,s,1,0.8152546843775781,299.6899921187287,299.6899921187287,299.6899921187287,300.7109721064626,300.7109721064626,300.7109721064626,,,,,,,,,,,,,,,,,,,,,,,,,110,001,2023-03-02_09h23.00.803,eb_01,2022.2.4,99.95169737229389,
,,,0,0,0,0,87,0,87,0,,,,,,,,,,,,,,,,,,,,,,,,,,,,,,,,,,,,,,,,,,,,,,,,,,,,,,,,,,,110,001,2023-03-02_09h23.00.803,eb_01,2022.2.4,99.95169737229389,
1,stimuli/1.png,s,0,0,0,0,88,0,88,0,0,0,0,0,,,,,,,,,,,,,,,,,,300.7109721064626,300.7109721064626,300.7109721064626,300.7109721064626,l,0,0.5321149516967125,301.28132079292845,301.28132079292845,301.28132079292845,,,,,,,,,,,,,,,,,,,,,,,,,,,,110,001,2023-03-02_09h23.00.803,eb_01,2022.2.4,99.95169737229389,
,,,0,0,0,0,88,0,88,0,,,,,,,,,,,,,,,,,,,,,,,,,,,,,,,,,,,,,,,,,,,,,,,,,,,,,,,,,,,110,001,2023-03-02_09h23.00.803,eb_01,2022.2.4,99.95169737229389,
4,stimuli/4.png,l,0,0,0,0,89,0,89,0,0,0,0,0,,,,,,,,,,,,,,,,,,302.2815997010475,302.2815997010475,302.2815997010475,302.2815997010475,l,1,0.8415610927040689,303.1524495467602,303.1524495467602,303.1524495467602,,,,,,,,,,,,,,,,,,,,,,,,,,,,110,001,2023-03-02_09h23.00.803,eb_01,2022.2.4,99.95169737229389,
,,,0,0,0,0,89,0,89,0,,,,,,,,,,,,,,,,,,,,,,,,,,,,,,,,,,,,,,,,,,,,,,,,,,,,,,,,,,,110,001,2023-03-02_09h23.00.803,eb_01,2022.2.4,99.95169737229389,
2,stimuli/2.png,s,0,0,0,0,90,0,90,0,0,0,0,0,,,,,,,,,,,,,,,,,,304.1630818622507,304.1630818622507,304.1630818622507,304.1630818622507,s,1,0.8240188587951707,305.003287735075,305.003287735075,305.003287735075,306.01420650490036,306.01420650490036,306.01420650490036,,,,,,,,,,,,,,,,,,,,,,,,,110,001,2023-03-02_09h23.00.803,eb_01,2022.2.4,99.95169737229389,
,,,0,0,0,0,90,0,90,0,,,,,,,,,,,,,,,,,,,,,,,,,,,,,,,,,,,,,,,,,,,,,,,,,,,,,,,,,,,110,001,2023-03-02_09h23.00.803,eb_01,2022.2.4,99.95169737229389,
3,stimuli/3.png,l,0,0,0,0,91,0,91,0,0,0,0,0,,,,,,,,,,,,,,,,,,306.01420650490036,306.01420650490036,306.01420650490036,306.01420650490036,l,1,0.4689917663781671,306.49416451172146,306.49416451172146,306.49416451172146,307.50507815010496,307.50507815010496,307.50507815010496,,,,,,,,,,,,,,,,,,,,,,,,,110,001,2023-03-02_09h23.00.803,eb_01,2022.2.4,99.95169737229389,
,,,0,0,0,0,91,0,91,0,,,,,,,,,,,,,,,,,,,,,,,,,,,,,,,,,,,,,,,,,,,,,,,,,,,,,,,,,,,110,001,2023-03-02_09h23.00.803,eb_01,2022.2.4,99.95169737229389,
8,stimuli/8.png,l,0,0,0,0,92,0,92,0,0,0,0,0,,,,,,,,,,,,,,,,,,307.50507815010496,307.50507815010496,307.50507815010496,307.50507815010496,l,1,0.506146010113298,308.0354165012686,308.0354165012686,308.0354165012686,,,,,,,,,,,,,,,,,,,,,,,,,,,,110,001,2023-03-02_09h23.00.803,eb_01,2022.2.4,99.95169737229389,
,,,0,0,0,0,92,0,92,0,,,,,,,,,,,,,,,,,,,,,,,,,,,,,,,,,,,,,,,,,,,,,,,,,,,,,,,,,,,110,001,2023-03-02_09h23.00.803,eb_01,2022.2.4,99.95169737229389,
9,stimuli/9.png,l,0,0,0,0,93,0,93,0,0,0,0,0,,,,,,,,,,,,,,,,,,309.056034270674,309.056034270674,309.056034270674,309.056034270674,l,1,0.7391852121072588,309.8161726863764,309.8161726863764,309.8161726863764,,,,,,,,,,,,,,,,,,,,,,,,,,,,110,001,2023-03-02_09h23.00.803,eb_01,2022.2.4,99.95169737229389,
,,,0,0,0,0,93,0,93,0,,,,,,,,,,,,,,,,,,,,,,,,,,,,,,,,,,,,,,,,,,,,,,,,,,,,,,,,,,,110,001,2023-03-02_09h23.00.803,eb_01,2022.2.4,99.95169737229389,
5,stimuli/5.png,s,0,0,0,0,94,0,94,0,0,0,0,0,,,,,,,,,,,,,,,,,,310.8271210373641,310.8271210373641,310.8271210373641,310.8271210373641,s,1,0.7681976932362886,311.61755328155414,311.61755328155414,311.61755328155414,,,,,,,,,,,,,,,,,,,,,,,,,,,,110,001,2023-03-02_09h23.00.803,eb_01,2022.2.4,99.95169737229389,
,,,0,0,0,0,94,0,94,0,,,,,,,,,,,,,,,,,,,,,,,,,,,,,,,,,,,,,,,,,,,,,,,,,,,,,,,,,,,110,001,2023-03-02_09h23.00.803,eb_01,2022.2.4,99.95169737229389,
9,stimuli/9.png,l,0,0,0,0,95,0,95,0,0,0,0,0,,,,,,,,,,,,,,,,,,312.6382090838888,312.6382090838888,312.6382090838888,312.6382090838888,l,1,0.5891100065346109,313.24828134947165,313.24828134947165,313.24828134947165,,,,,,,,,,,,,,,,,,,,,,,,,,,,110,001,2023-03-02_09h23.00.803,eb_01,2022.2.4,99.95169737229389,
,,,0,0,0,0,95,0,95,0,,,,,,,,,,,,,,,,,,,,,,,,,,,,,,,,,,,,,,,,,,,,,,,,,,,,,,,,,,,110,001,2023-03-02_09h23.00.803,eb_01,2022.2.4,99.95169737229389,
5,stimuli/5.png,s,0,0,0,0,96,0,96,0,0,0,0,0,,,,,,,,,,,,,,,,,,314.25919317676744,314.25919317676744,314.25919317676744,314.25919317676744,s,1,0.663102156642708,314.9496139205294,314.9496139205294,314.9496139205294,,,,,,,,,,,,,,,,,,,,,,,,,,,,110,001,2023-03-02_09h23.00.803,eb_01,2022.2.4,99.95169737229389,
,,,0,0,0,0,96,0,96,0,,,,,,,,,,,,,,,,,,,,,,,,,,,,,,,,,,,,,,,,,,,,,,,,,,,,,,,,,,,110,001,2023-03-02_09h23.00.803,eb_01,2022.2.4,99.95169737229389,
6,stimuli/6.png,s,0,0,0,0,97,0,97,0,0,0,0,0,,,,,,,,,,,,,,,,,,315.96993406720867,315.96993406720867,315.96993406720867,315.96993406720867,s,1,0.8804277236195048,316.8808229238348,316.8808229238348,316.8808229238348,,,,,,,,,,,,,,,,,,,,,,,,,,,,110,001,2023-03-02_09h23.00.803,eb_01,2022.2.4,99.95169737229389,
,,,0,0,0,0,97,0,97,0,,,,,,,,,,,,,,,,,,,,,,,,,,,,,,,,,,,,,,,,,,,,,,,,,,,,,,,,,,,110,001,2023-03-02_09h23.00.803,eb_01,2022.2.4,99.95169737229389,
5,stimuli/5.png,s,0,0,0,0,98,0,98,0,0,0,0,0,,,,,,,,,,,,,,,,,,317.8813928140007,317.8813928140007,317.8813928140007,317.8813928140007,s,1,0.5129865033522947,318.42171239320305,318.42171239320305,318.42171239320305,,,,,,,,,,,,,,,,,,,,,,,,,,,,110,001,2023-03-02_09h23.00.803,eb_01,2022.2.4,99.95169737229389,
,,,0,0,0,0,98,0,98,0,,,,,,,,,,,,,,,,,,,,,,,,,,,,,,,,,,,,,,,,,,,,,,,,,,,,,,,,,,,110,001,2023-03-02_09h23.00.803,eb_01,2022.2.4,99.95169737229389,
9,stimuli/9.png,l,0,0,0,0,99,0,99,0,0,0,0,0,,,,,,,,,,,,,,,,,,319.44235280125577,319.44235280125577,319.44235280125577,319.44235280125577,l,1,0.4800837973016314,319.9423351431178,319.9423351431178,319.9423351431178,,,,,,,,,,,,,,,,,,,,,,,,,,,,110,001,2023-03-02_09h23.00.803,eb_01,2022.2.4,99.95169737229389,
,,,0,0,0,0,99,0,99,0,,,,,,,,,,,,,,,,,,,,,,,,,,,,,,,,,,,,,,,,,,,,,,,,,,,,,,,,,,,110,001,2023-03-02_09h23.00.803,eb_01,2022.2.4,99.95169737229389,
,,,0,0,0,0,,,,,,,,,,,,,,,,,,,,,,,,,,,,,,,,,,,,,,,320.94324702776794,320.94324702776794,return,44.240946951525984,,,,,,,,,,,,,,,,,,,,,110,001,2023-03-02_09h23.00.803,eb_01,2022.2.4,99.95169737229389,
6,stimuli/6.png,s,1,0,1,0,0,0,0,0,0,0,0,0,,,,,,,,,,,,,,,,,,365.2198149124597,365.2198149124597,365.2198149124597,365.2198149124597,s,1,1.5724214004876558,366.8310972891195,366.8310972891195,366.8310972891195,,,,,,,,,,,,,,,,,,,,,,,,,,,,110,001,2023-03-02_09h23.00.803,eb_01,2022.2.4,99.95169737229389,
,,,1,0,1,0,0,0,0,0,,,,,,,,,,,,,,,,,,,,,,,,,,,,,,,,,,,,,,,,,,,,,,,,,,,,,,,,,,,110,001,2023-03-02_09h23.00.803,eb_01,2022.2.4,99.95169737229389,
9,stimuli/9.png,l,1,0,1,0,1,0,1,0,0,0,0,0,,,,,,,,,,,,,,,,,,367.84173745267617,367.84173745267617,367.84173745267617,367.84173745267617,l,1,0.5505524685868295,368.4217404651281,368.4217404651281,368.4217404651281,,,,,,,,,,,,,,,,,,,,,,,,,,,,110,001,2023-03-02_09h23.00.803,eb_01,2022.2.4,99.95169737229389,
,,,1,0,1,0,1,0,1,0,,,,,,,,,,,,,,,,,,,,,,,,,,,,,,,,,,,,,,,,,,,,,,,,,,,,,,,,,,,110,001,2023-03-02_09h23.00.803,eb_01,2022.2.4,99.95169737229389,
5,stimuli/5.png,s,1,0,1,0,2,0,2,0,0,0,0,0,,,,,,,,,,,,,,,,,,369.4326836846885,369.4326836846885,369.4326836846885,369.4326836846885,s,1,0.527605635303189,369.98302463778236,369.98302463778236,369.98302463778236,,,,,,,,,,,,,,,,,,,,,,,,,,,,110,001,2023-03-02_09h23.00.803,eb_01,2022.2.4,99.95169737229389,
,,,1,0,1,0,2,0,2,0,,,,,,,,,,,,,,,,,,,,,,,,,,,,,,,,,,,,,,,,,,,,,,,,,,,,,,,,,,,110,001,2023-03-02_09h23.00.803,eb_01,2022.2.4,99.95169737229389,
9,stimuli/9.png,l,1,0,1,0,3,0,3,0,0,0,0,0,,,,,,,,,,,,,,,,,,371.0036342572712,371.0036342572712,371.0036342572712,371.0036342572712,l,1,0.6366946290363558,371.6636848048511,371.6636848048511,371.6636848048511,,,,,,,,,,,,,,,,,,,,,,,,,,,,110,001,2023-03-02_09h23.00.803,eb_01,2022.2.4,99.95169737229389,
,,,1,0,1,0,3,0,3,0,,,,,,,,,,,,,,,,,,,,,,,,,,,,,,,,,,,,,,,,,,,,,,,,,,,,,,,,,,,110,001,2023-03-02_09h23.00.803,eb_01,2022.2.4,99.95169737229389,
6,stimuli/6.png,s,1,0,1,0,4,0,4,0,0,0,0,0,,,,,,,,,,,,,,,,,,372.68465000200376,372.68465000200376,372.68465000200376,372.68465000200376,s,1,0.6197114187525585,373.3350272071257,373.3350272071257,373.3350272071257,,,,,,,,,,,,,,,,,,,,,,,,,,,,110,001,2023-03-02_09h23.00.803,eb_01,2022.2.4,99.95169737229389,
,,,1,0,1,0,4,0,4,0,,,,,,,,,,,,,,,,,,,,,,,,,,,,,,,,,,,,,,,,,,,,,,,,,,,,,,,,,,,110,001,2023-03-02_09h23.00.803,eb_01,2022.2.4,99.95169737229389,
9,stimuli/9.png,l,1,0,1,0,5,0,5,0,0,0,0,0,,,,,,,,,,,,,,,,,,374.34568608528934,374.34568608528934,374.34568608528934,374.34568608528934,l,1,0.526684695185395,374.89565033132385,374.89565033132385,374.89565033132385,,,,,,,,,,,,,,,,,,,,,,,,,,,,110,001,2023-03-02_09h23.00.803,eb_01,2022.2.4,99.95169737229389,
,,,1,0,1,0,5,0,5,0,,,,,,,,,,,,,,,,,,,,,,,,,,,,,,,,,,,,,,,,,,,,,,,,,,,,,,,,,,,110,001,2023-03-02_09h23.00.803,eb_01,2022.2.4,99.95169737229389,
8,stimuli/8.png,l,1,0,1,0,6,0,6,0,0,0,0,0,,,,,,,,,,,,,,,,,,375.9065844954166,375.9065844954166,375.9065844954166,375.9065844954166,l,1,0.5328261070389999,376.4669459168799,376.4669459168799,376.4669459168799,,,,,,,,,,,,,,,,,,,,,,,,,,,,110,001,2023-03-02_09h23.00.803,eb_01,2022.2.4,99.95169737229389,
,,,1,0,1,0,6,0,6,0,,,,,,,,,,,,,,,,,,,,,,,,,,,,,,,,,,,,,,,,,,,,,,,,,,,,,,,,,,,110,001,2023-03-02_09h23.00.803,eb_01,2022.2.4,99.95169737229389,
9,stimuli/9.png,l,1,0,1,0,7,0,7,0,0,0,0,0,,,,,,,,,,,,,,,,,,377.48756489367224,377.48756489367224,377.48756489367224,377.48756489367224,l,1,0.4878669637546409,377.99758400370774,377.99758400370774,377.99758400370774,,,,,,,,,,,,,,,,,,,,,,,,,,,,110,001,2023-03-02_09h23.00.803,eb_01,2022.2.4,99.95169737229389,
,,,1,0,1,0,7,0,7,0,,,,,,,,,,,,,,,,,,,,,,,,,,,,,,,,,,,,,,,,,,,,,,,,,,,,,,,,,,,110,001,2023-03-02_09h23.00.803,eb_01,2022.2.4,99.95169737229389,
5,stimuli/5.png,s,1,0,1,0,8,0,8,0,0,0,0,0,,,,,,,,,,,,,,,,,,379.008500660595,379.008500660595,379.008500660595,379.008500660595,s,1,0.5189896685333224,379.54882205088506,379.54882205088506,379.54882205088506,,,,,,,,,,,,,,,,,,,,,,,,,,,,110,001,2023-03-02_09h23.00.803,eb_01,2022.2.4,99.95169737229389,
,,,1,0,1,0,8,0,8,0,,,,,,,,,,,,,,,,,,,,,,,,,,,,,,,,,,,,,,,,,,,,,,,,,,,,,,,,,,,110,001,2023-03-02_09h23.00.803,eb_01,2022.2.4,99.95169737229389,
6,stimuli/6.png,s,1,0,1,0,9,0,9,0,0,0,0,0,,,,,,,,,,,,,,,,,,380.5694684959017,380.5694684959017,380.5694684959017,380.5694684959017,s,1,0.5740070112515241,381.17980246423394,381.17980246423394,381.17980246423394,,,,,,,,,,,,,,,,,,,,,,,,,,,,110,001,2023-03-02_09h23.00.803,eb_01,2022.2.4,99.95169737229389,
,,,1,0,1,0,9,0,9,0,,,,,,,,,,,,,,,,,,,,,,,,,,,,,,,,,,,,,,,,,,,,,,,,,,,,,,,,,,,110,001,2023-03-02_09h23.00.803,eb_01,2022.2.4,99.95169737229389,
9,stimuli/9.png,l,1,0,1,0,10,0,10,0,0,0,0,0,,,,,,,,,,,,,,,,,,382.1904233094683,382.1904233094683,382.1904233094683,382.1904233094683,l,1,0.42509090433304664,382.6403676033078,382.6403676033078,382.6403676033078,,,,,,,,,,,,,,,,,,,,,,,,,,,,110,001,2023-03-02_09h23.00.803,eb_01,2022.2.4,99.95169737229389,
,,,1,0,1,0,10,0,10,0,,,,,,,,,,,,,,,,,,,,,,,,,,,,,,,,,,,,,,,,,,,,,,,,,,,,,,,,,,,110,001,2023-03-02_09h23.00.803,eb_01,2022.2.4,99.95169737229389,
6,stimuli/6.png,s,1,0,1,0,11,0,11,0,0,0,0,0,,,,,,,,,,,,,,,,,,383.66130804887507,383.66130804887507,383.66130804887507,383.66130804887507,s,1,0.554231701316894,384.2516575261834,384.2516575261834,384.2516575261834,,,,,,,,,,,,,,,,,,,,,,,,,,,,110,001,2023-03-02_09h23.00.803,eb_01,2022.2.4,99.95169737229389,
,,,1,0,1,0,11,0,11,0,,,,,,,,,,,,,,,,,,,,,,,,,,,,,,,,,,,,,,,,,,,,,,,,,,,,,,,,,,,110,001,2023-03-02_09h23.00.803,eb_01,2022.2.4,99.95169737229389,
8,stimuli/8.png,l,1,0,1,0,12,0,12,0,0,0,0,0,,,,,,,,,,,,,,,,,,385.2523131413618,385.2523131413618,385.2523131413618,385.2523131413618,l,1,0.4832613576290896,385.76260421700135,385.76260421700135,385.76260421700135,,,,,,,,,,,,,,,,,,,,,,,,,,,,110,001,2023-03-02_09h23.00.803,eb_01,2022.2.4,99.95169737229389,
,,,1,0,1,0,12,0,12,0,,,,,,,,,,,,,,,,,,,,,,,,,,,,,,,,,,,,,,,,,,,,,,,,,,,,,,,,,,,110,001,2023-03-02_09h23.00.803,eb_01,2022.2.4,99.95169737229389,
6,stimuli/6.png,s,1,0,1,0,13,0,13,0,0,0,0,0,,,,,,,,,,,,,,,,,,386.78320840322704,386.78320840322704,386.78320840322704,386.78320840322704,s,1,0.6963839845411712,387.51364763219317,387.51364763219317,387.51364763219317,,,,,,,,,,,,,,,,,,,,,,,,,,,,110,001,2023-03-02_09h23.00.803,eb_01,2022.2.4,99.95169737229389,
,,,1,0,1,0,13,0,13,0,,,,,,,,,,,,,,,,,,,,,,,,,,,,,,,,,,,,,,,,,,,,,,,,,,,,,,,,,,,110,001,2023-03-02_09h23.00.803,eb_01,2022.2.4,99.95169737229389,
9,stimuli/9.png,l,1,0,1,0,14,0,14,0,0,0,0,0,,,,,,,,,,,,,,,,,,388.5242711940664,388.5242711940664,388.5242711940664,388.5242711940664,l,1,0.5073766468995018,389.054242799175,389.054242799175,389.054242799175,,,,,,,,,,,,,,,,,,,,,,,,,,,,110,001,2023-03-02_09h23.00.803,eb_01,2022.2.4,99.95169737229389,
,,,1,0,1,0,14,0,14,0,,,,,,,,,,,,,,,,,,,,,,,,,,,,,,,,,,,,,,,,,,,,,,,,,,,,,,,,,,,110,001,2023-03-02_09h23.00.803,eb_01,2022.2.4,99.95169737229389,
6,stimuli/6.png,s,1,0,1,0,15,0,15,0,0,0,0,0,,,,,,,,,,,,,,,,,,390.07519018725725,390.07519018725725,390.07519018725725,390.07519018725725,s,1,0.500479104288388,390.60552733103395,390.60552733103395,390.60552733103395,,,,,,,,,,,,,,,,,,,,,,,,,,,,110,001,2023-03-02_09h23.00.803,eb_01,2022.2.4,99.95169737229389,
,,,1,0,1,0,15,0,15,0,,,,,,,,,,,,,,,,,,,,,,,,,,,,,,,,,,,,,,,,,,,,,,,,,,,,,,,,,,,110,001,2023-03-02_09h23.00.803,eb_01,2022.2.4,99.95169737229389,
5,stimuli/5.png,s,1,0,1,0,16,0,16,0,0,0,0,0,,,,,,,,,,,,,,,,,,391.6061334430415,391.6061334430415,391.6061334430415,391.6061334430415,s,1,0.4965288115054136,392.1264283853525,392.1264283853525,392.1264283853525,,,,,,,,,,,,,,,,,,,,,,,,,,,,110,001,2023-03-02_09h23.00.803,eb_01,2022.2.4,99.95169737229389,
,,,1,0,1,0,16,0,16,0,,,,,,,,,,,,,,,,,,,,,,,,,,,,,,,,,,,,,,,,,,,,,,,,,,,,,,,,,,,110,001,2023-03-02_09h23.00.803,eb_01,2022.2.4,99.95169737229389,
6,stimuli/6.png,s,1,0,1,0,17,0,17,0,0,0,0,0,,,,,,,,,,,,,,,,,,393.14676694480295,393.14676694480295,393.14676694480295,393.14676694480295,s,1,0.6599387832102366,393.837466294819,393.837466294819,393.837466294819,,,,,,,,,,,,,,,,,,,,,,,,,,,,110,001,2023-03-02_09h23.00.803,eb_01,2022.2.4,99.95169737229389,
,,,1,0,1,0,17,0,17,0,,,,,,,,,,,,,,,,,,,,,,,,,,,,,,,,,,,,,,,,,,,,,,,,,,,,,,,,,,,110,001,2023-03-02_09h23.00.803,eb_01,2022.2.4,99.95169737229389,
5,stimuli/5.png,s,1,0,1,0,18,0,18,0,0,0,0,0,,,,,,,,,,,,,,,,,,394.8381267395889,394.8381267395889,394.8381267395889,394.8381267395889,s,1,0.544633519166382,395.4084395060636,395.4084395060636,395.4084395060636,,,,,,,,,,,,,,,,,,,,,,,,,,,,110,001,2023-03-02_09h23.00.803,eb_01,2022.2.4,99.95169737229389,
,,,1,0,1,0,18,0,18,0,,,,,,,,,,,,,,,,,,,,,,,,,,,,,,,,,,,,,,,,,,,,,,,,,,,,,,,,,,,110,001,2023-03-02_09h23.00.803,eb_01,2022.2.4,99.95169737229389,
6,stimuli/6.png,s,1,0,1,0,19,0,19,0,0,0,0,0,,,,,,,,,,,,,,,,,,396.42906150134513,396.42906150134513,396.42906150134513,396.42906150134513,s,1,0.5457195704657352,397.0094095267559,397.0094095267559,397.0094095267559,,,,,,,,,,,,,,,,,,,,,,,,,,,,110,001,2023-03-02_09h23.00.803,eb_01,2022.2.4,99.95169737229389,
,,,1,0,1,0,19,0,19,0,,,,,,,,,,,,,,,,,,,,,,,,,,,,,,,,,,,,,,,,,,,,,,,,,,,,,,,,,,,110,001,2023-03-02_09h23.00.803,eb_01,2022.2.4,99.95169737229389,
8,stimuli/8.png,l,1,0,1,0,20,0,20,0,0,0,0,0,,,,,,,,,,,,,,,,,,398.01000537592336,398.01000537592336,398.01000537592336,398.01000537592336,l,1,0.5247824452380883,398.56034904565604,398.56034904565604,398.56034904565604,,,,,,,,,,,,,,,,,,,,,,,,,,,,110,001,2023-03-02_09h23.00.803,eb_01,2022.2.4,99.95169737229389,
,,,1,0,1,0,20,0,20,0,,,,,,,,,,,,,,,,,,,,,,,,,,,,,,,,,,,,,,,,,,,,,,,,,,,,,,,,,,,110,001,2023-03-02_09h23.00.803,eb_01,2022.2.4,99.95169737229389,
3,stimuli/3.png,l,1,0,1,0,21,0,21,0,0,0,0,0,,,,,,,,,,,,,,,,,,399.57096536316385,399.57096536316385,399.57096536316385,399.57096536316385,l,1,0.4758521816256689,400.06095319565793,400.06095319565793,400.06095319565793,401.0718463083467,401.0718463083467,401.0718463083467,,,,,,,,,,,,,,,,,,,,,,,,,110,001,2023-03-02_09h23.00.803,eb_01,2022.2.4,99.95169737229389,
,,,1,0,1,0,21,0,21,0,,,,,,,,,,,,,,,,,,,,,,,,,,,,,,,,,,,,,,,,,,,,,,,,,,,,,,,,,,,110,001,2023-03-02_09h23.00.803,eb_01,2022.2.4,99.95169737229389,
2,stimuli/2.png,s,1,0,1,0,22,0,22,0,0,0,0,0,,,,,,,,,,,,,,,,,,401.0718463083467,401.0718463083467,401.0718463083467,401.0718463083467,s,1,1.0470418183103902,402.13218433652946,402.13218433652946,402.13218433652946,403.1531398745283,403.1531398745283,403.1531398745283,,,,,,,,,,,,,,,,,,,,,,,,,110,001,2023-03-02_09h23.00.803,eb_01,2022.2.4,99.95169737229389,
,,,1,0,1,0,22,0,22,0,,,,,,,,,,,,,,,,,,,,,,,,,,,,,,,,,,,,,,,,,,,,,,,,,,,,,,,,,,,110,001,2023-03-02_09h23.00.803,eb_01,2022.2.4,99.95169737229389,
1,stimuli/1.png,s,1,0,1,0,23,0,23,0,0,0,0,0,,,,,,,,,,,,,,,,,,403.1531398745283,403.1531398745283,403.1531398745283,403.1531398745283,s,1,0.8217543905193452,404.0136311814422,404.0136311814422,404.0136311814422,,,,,,,,,,,,,,,,,,,,,,,,,,,,110,001,2023-03-02_09h23.00.803,eb_01,2022.2.4,99.95169737229389,
,,,1,0,1,0,23,0,23,0,,,,,,,,,,,,,,,,,,,,,,,,,,,,,,,,,,,,,,,,,,,,,,,,,,,,,,,,,,,110,001,2023-03-02_09h23.00.803,eb_01,2022.2.4,99.95169737229389,
2,stimuli/2.png,s,1,0,1,0,24,0,24,0,0,0,0,0,,,,,,,,,,,,,,,,,,405.01428106150706,405.01428106150706,405.01428106150706,405.01428106150706,s,1,0.71973770976183,405.7444121030421,405.7444121030421,405.7444121030421,406.7553290617652,406.7553290617652,406.7553290617652,,,,,,,,,,,,,,,,,,,,,,,,,110,001,2023-03-02_09h23.00.803,eb_01,2022.2.4,99.95169737229389,
,,,1,0,1,0,24,0,24,0,,,,,,,,,,,,,,,,,,,,,,,,,,,,,,,,,,,,,,,,,,,,,,,,,,,,,,,,,,,110,001,2023-03-02_09h23.00.803,eb_01,2022.2.4,99.95169737229389,
3,stimuli/3.png,l,1,0,1,0,25,0,25,0,0,0,0,0,,,,,,,,,,,,,,,,,,406.7553290617652,406.7553290617652,406.7553290617652,406.7553290617652,l,1,1.2746079012867995,408.04578409553505,408.04578409553505,408.04578409553505,409.0563992056559,409.0563992056559,409.0563992056559,,,,,,,,,,,,,,,,,,,,,,,,,110,001,2023-03-02_09h23.00.803,eb_01,2022.2.4,99.95169737229389,
,,,1,0,1,0,25,0,25,0,,,,,,,,,,,,,,,,,,,,,,,,,,,,,,,,,,,,,,,,,,,,,,,,,,,,,,,,,,,110,001,2023-03-02_09h23.00.803,eb_01,2022.2.4,99.95169737229389,
4,stimuli/4.png,l,1,0,1,0,26,0,26,0,0,0,0,0,,,,,,,,,,,,,,,,,,409.0563992056559,409.0563992056559,409.0563992056559,409.0563992056559,l,1,1.061613258192665,410.1474029398232,410.1474029398232,410.1474029398232,,,,,,,,,,,,,,,,,,,,,,,,,,,,110,001,2023-03-02_09h23.00.803,eb_01,2022.2.4,99.95169737229389,
,,,1,0,1,0,26,0,26,0,,,,,,,,,,,,,,,,,,,,,,,,,,,,,,,,,,,,,,,,,,,,,,,,,,,,,,,,,,,110,001,2023-03-02_09h23.00.803,eb_01,2022.2.4,99.95169737229389,
2,stimuli/2.png,s,1,0,1,0,27,0,27,0,0,0,0,0,,,,,,,,,,,,,,,,,,411.15801925733103,411.15801925733103,411.15801925733103,411.15801925733103,s,1,0.5680213532905327,411.7380162328045,411.7380162328045,411.7380162328045,412.7486434168677,412.7486434168677,412.7486434168677,,,,,,,,,,,,,,,,,,,,,,,,,110,001,2023-03-02_09h23.00.803,eb_01,2022.2.4,99.95169737229389,
,,,1,0,1,0,27,0,27,0,,,,,,,,,,,,,,,,,,,,,,,,,,,,,,,,,,,,,,,,,,,,,,,,,,,,,,,,,,,110,001,2023-03-02_09h23.00.803,eb_01,2022.2.4,99.95169737229389,
4,stimuli/4.png,l,1,0,1,0,28,0,28,0,0,0,0,0,,,,,,,,,,,,,,,,,,412.7486434168677,412.7486434168677,412.7486434168677,412.7486434168677,l,1,0.6014468611247139,413.3793337537063,413.3793337537063,413.3793337537063,,,,,,,,,,,,,,,,,,,,,,,,,,,,110,001,2023-03-02_09h23.00.803,eb_01,2022.2.4,99.95169737229389,
,,,1,0,1,0,28,0,28,0,,,,,,,,,,,,,,,,,,,,,,,,,,,,,,,,,,,,,,,,,,,,,,,,,,,,,,,,,,,110,001,2023-03-02_09h23.00.803,eb_01,2022.2.4,99.95169737229389,
3,stimuli/3.png,l,1,0,1,0,29,0,29,0,0,0,0,0,,,,,,,,,,,,,,,,,,414.3899612396199,414.3899612396199,414.3899612396199,414.3899612396199,l,1,0.4481104831356788,414.8499118149193,414.8499118149193,414.8499118149193,415.86086952321057,415.86086952321057,415.86086952321057,,,,,,,,,,,,,,,,,,,,,,,,,110,001,2023-03-02_09h23.00.803,eb_01,2022.2.4,99.95169737229389,
,,,1,0,1,0,29,0,29,0,,,,,,,,,,,,,,,,,,,,,,,,,,,,,,,,,,,,,,,,,,,,,,,,,,,,,,,,,,,110,001,2023-03-02_09h23.00.803,eb_01,2022.2.4,99.95169737229389,
2,stimuli/2.png,s,1,0,1,0,30,0,30,0,0,0,0,0,,,,,,,,,,,,,,,,,,415.86086952321057,415.86086952321057,415.86086952321057,415.86086952321057,s,1,0.7852593841525959,416.66101102984976,416.66101102984976,416.66101102984976,417.6819077073742,417.6819077073742,417.6819077073742,,,,,,,,,,,,,,,,,,,,,,,,,110,001,2023-03-02_09h23.00.803,eb_01,2022.2.4,99.95169737229389,
,,,1,0,1,0,30,0,30,0,,,,,,,,,,,,,,,,,,,,,,,,,,,,,,,,,,,,,,,,,,,,,,,,,,,,,,,,,,,110,001,2023-03-02_09h23.00.803,eb_01,2022.2.4,99.95169737229389,
1,stimuli/1.png,s,1,0,1,0,31,0,31,0,0,0,0,0,,,,,,,,,,,,,,,,,,417.6819077073742,417.6819077073742,417.6819077073742,417.6819077073742,s,1,0.49222022443427704,418.2122677916341,418.2122677916341,418.2122677916341,,,,,,,,,,,,,,,,,,,,,,,,,,,,110,001,2023-03-02_09h23.00.803,eb_01,2022.2.4,99.95169737229389,
,,,1,0,1,0,31,0,31,0,,,,,,,,,,,,,,,,,,,,,,,,,,,,,,,,,,,,,,,,,,,,,,,,,,,,,,,,,,,110,001,2023-03-02_09h23.00.803,eb_01,2022.2.4,99.95169737229389,
2,stimuli/2.png,s,1,0,1,0,32,0,32,0,0,0,0,0,,,,,,,,,,,,,,,,,,419.21288356279547,419.21288356279547,419.21288356279547,419.21288356279547,s,1,1.0093089307920309,420.2331795615901,420.2331795615901,420.2331795615901,421.24411372568284,421.24411372568284,421.24411372568284,,,,,,,,,,,,,,,,,,,,,,,,,110,001,2023-03-02_09h23.00.803,eb_01,2022.2.4,99.95169737229389,
,,,1,0,1,0,32,0,32,0,,,,,,,,,,,,,,,,,,,,,,,,,,,,,,,,,,,,,,,,,,,,,,,,,,,,,,,,,,,110,001,2023-03-02_09h23.00.803,eb_01,2022.2.4,99.95169737229389,
3,stimuli/3.png,l,1,0,1,0,33,0,33,0,0,0,0,0,,,,,,,,,,,,,,,,,,421.24411372568284,421.24411372568284,421.24411372568284,421.24411372568284,l,1,0.5540756455884548,421.8141349064099,421.8141349064099,421.8141349064099,422.8250370745518,422.8250370745518,422.8250370745518,,,,,,,,,,,,,,,,,,,,,,,,,110,001,2023-03-02_09h23.00.803,eb_01,2022.2.4,99.95169737229389,
,,,1,0,1,0,33,0,33,0,,,,,,,,,,,,,,,,,,,,,,,,,,,,,,,,,,,,,,,,,,,,,,,,,,,,,,,,,,,110,001,2023-03-02_09h23.00.803,eb_01,2022.2.4,99.95169737229389,
2,stimuli/2.png,s,1,0,1,0,34,0,34,0,0,0,0,0,,,,,,,,,,,,,,,,,,422.8250370745518,422.8250370745518,422.8250370745518,422.8250370745518,s,1,0.5961711510899477,423.43508790887427,423.43508790887427,423.43508790887427,424.45608570567856,424.45608570567856,424.45608570567856,,,,,,,,,,,,,,,,,,,,,,,,,110,001,2023-03-02_09h23.00.803,eb_01,2022.2.4,99.95169737229389,
,,,1,0,1,0,34,0,34,0,,,,,,,,,,,,,,,,,,,,,,,,,,,,,,,,,,,,,,,,,,,,,,,,,,,,,,,,,,,110,001,2023-03-02_09h23.00.803,eb_01,2022.2.4,99.95169737229389,
1,stimuli/1.png,s,1,0,1,0,35,0,35,0,0,0,0,0,,,,,,,,,,,,,,,,,,424.45608570567856,424.45608570567856,424.45608570567856,424.45608570567856,s,1,0.557151784785674,425.04642341089493,425.04642341089493,425.04642341089493,,,,,,,,,,,,,,,,,,,,,,,,,,,,110,001,2023-03-02_09h23.00.803,eb_01,2022.2.4,99.95169737229389,
,,,1,0,1,0,35,0,35,0,,,,,,,,,,,,,,,,,,,,,,,,,,,,,,,,,,,,,,,,,,,,,,,,,,,,,,,,,,,110,001,2023-03-02_09h23.00.803,eb_01,2022.2.4,99.95169737229389,
2,stimuli/2.png,s,1,0,1,0,36,0,36,0,0,0,0,0,,,,,,,,,,,,,,,,,,426.0470195618982,426.0470195618982,426.0470195618982,426.0470195618982,s,1,0.43826206849189475,426.49699404060084,426.49699404060084,426.49699404060084,427.5190226504201,427.5190226504201,427.5190226504201,,,,,,,,,,,,,,,,,,,,,,,,,110,001,2023-03-02_09h23.00.803,eb_01,2022.2.4,99.95169737229389,
,,,1,0,1,0,36,0,36,0,,,,,,,,,,,,,,,,,,,,,,,,,,,,,,,,,,,,,,,,,,,,,,,,,,,,,,,,,,,110,001,2023-03-02_09h23.00.803,eb_01,2022.2.4,99.95169737229389,
3,stimuli/3.png,l,1,0,1,0,37,0,37,0,0,0,0,0,,,,,,,,,,,,,,,,,,427.5190226504201,427.5190226504201,427.5190226504201,427.5190226504201,l,1,0.5022729905904271,428.03789498022525,428.03789498022525,428.03789498022525,429.0488617439696,429.0488617439696,429.0488617439696,,,,,,,,,,,,,,,,,,,,,,,,,110,001,2023-03-02_09h23.00.803,eb_01,2022.2.4,99.95169737229389,
,,,1,0,1,0,37,0,37,0,,,,,,,,,,,,,,,,,,,,,,,,,,,,,,,,,,,,,,,,,,,,,,,,,,,,,,,,,,,110,001,2023-03-02_09h23.00.803,eb_01,2022.2.4,99.95169737229389,
8,stimuli/8.png,l,1,0,1,0,38,0,38,0,0,0,0,0,,,,,,,,,,,,,,,,,,429.0488617439696,429.0488617439696,429.0488617439696,429.0488617439696,l,1,1.8205101705389097,430.8899647108774,430.8899647108774,430.8899647108774,,,,,,,,,,,,,,,,,,,,,,,,,,,,110,001,2023-03-02_09h23.00.803,eb_01,2022.2.4,99.95169737229389,
,,,1,0,1,0,38,0,38,0,,,,,,,,,,,,,,,,,,,,,,,,,,,,,,,,,,,,,,,,,,,,,,,,,,,,,,,,,,,110,001,2023-03-02_09h23.00.803,eb_01,2022.2.4,99.95169737229389,
9,stimuli/9.png,l,1,0,1,0,39,0,39,0,0,0,0,0,,,,,,,,,,,,,,,,,,431.91057583960355,431.91057583960355,431.91057583960355,431.91057583960355,l,1,0.5748014767887071,432.5106092240603,432.5106092240603,432.5106092240603,,,,,,,,,,,,,,,,,,,,,,,,,,,,110,001,2023-03-02_09h23.00.803,eb_01,2022.2.4,99.95169737229389,
,,,1,0,1,0,39,0,39,0,,,,,,,,,,,,,,,,,,,,,,,,,,,,,,,,,,,,,,,,,,,,,,,,,,,,,,,,,,,110,001,2023-03-02_09h23.00.803,eb_01,2022.2.4,99.95169737229389,
6,stimuli/6.png,s,1,0,1,0,40,0,40,0,0,0,0,0,,,,,,,,,,,,,,,,,,433.53158196744334,433.53158196744334,433.53158196744334,433.53158196744334,s,1,0.4498744864249602,434.01184393581934,434.01184393581934,434.01184393581934,,,,,,,,,,,,,,,,,,,,,,,,,,,,110,001,2023-03-02_09h23.00.803,eb_01,2022.2.4,99.95169737229389,
,,,1,0,1,0,40,0,40,0,,,,,,,,,,,,,,,,,,,,,,,,,,,,,,,,,,,,,,,,,,,,,,,,,,,,,,,,,,,110,001,2023-03-02_09h23.00.803,eb_01,2022.2.4,99.95169737229389,
5,stimuli/5.png,s,1,0,1,0,41,0,41,0,0,0,0,0,,,,,,,,,,,,,,,,,,435.01248264747846,435.01248264747846,435.01248264747846,435.01248264747846,s,1,0.5129496778099565,435.5527976989397,435.5527976989397,435.5527976989397,,,,,,,,,,,,,,,,,,,,,,,,,,,,110,001,2023-03-02_09h23.00.803,eb_01,2022.2.4,99.95169737229389,
,,,1,0,1,0,41,0,41,0,,,,,,,,,,,,,,,,,,,,,,,,,,,,,,,,,,,,,,,,,,,,,,,,,,,,,,,,,,,110,001,2023-03-02_09h23.00.803,eb_01,2022.2.4,99.95169737229389,
9,stimuli/9.png,l,1,0,1,0,42,0,42,0,0,0,0,0,,,,,,,,,,,,,,,,,,436.57341758128314,436.57341758128314,436.57341758128314,436.57341758128314,l,1,0.6951370479364414,437.29353902101866,437.29353902101866,437.29353902101866,,,,,,,,,,,,,,,,,,,,,,,,,,,,110,001,2023-03-02_09h23.00.803,eb_01,2022.2.4,99.95169737229389,
,,,1,0,1,0,42,0,42,0,,,,,,,,,,,,,,,,,,,,,,,,,,,,,,,,,,,,,,,,,,,,,,,,,,,,,,,,,,,110,001,2023-03-02_09h23.00.803,eb_01,2022.2.4,99.95169737229389,
5,stimuli/5.png,s,1,0,1,0,43,0,43,0,0,0,0,0,,,,,,,,,,,,,,,,,,438.3044529612671,438.3044529612671,438.3044529612671,438.3044529612671,s,1,0.468028567469446,438.7947634699085,438.7947634699085,438.7947634699085,,,,,,,,,,,,,,,,,,,,,,,,,,,,110,001,2023-03-02_09h23.00.803,eb_01,2022.2.4,99.95169737229389,
,,,1,0,1,0,43,0,43,0,,,,,,,,,,,,,,,,,,,,,,,,,,,,,,,,,,,,,,,,,,,,,,,,,,,,,,,,,,,110,001,2023-03-02_09h23.00.803,eb_01,2022.2.4,99.95169737229389,
6,stimuli/6.png,s,1,0,1,0,44,0,44,0,0,0,0,0,,,,,,,,,,,,,,,,,,439.81505916685273,439.81505916685273,439.81505916685273,439.81505916685273,s,1,0.4214804930961691,440.2756466427236,440.2756466427236,440.2756466427236,,,,,,,,,,,,,,,,,,,,,,,,,,,,110,001,2023-03-02_09h23.00.803,eb_01,2022.2.4,99.95169737229389,
,,,1,0,1,0,44,0,44,0,,,,,,,,,,,,,,,,,,,,,,,,,,,,,,,,,,,,,,,,,,,,,,,,,,,,,,,,,,,110,001,2023-03-02_09h23.00.803,eb_01,2022.2.4,99.95169737229389,
8,stimuli/8.png,l,1,0,1,0,45,0,45,0,0,0,0,0,,,,,,,,,,,,,,,,,,441.27623494567524,441.27623494567524,441.27623494567524,441.27623494567524,l,1,0.6003164380672388,441.8966400929203,441.8966400929203,441.8966400929203,,,,,,,,,,,,,,,,,,,,,,,,,,,,110,001,2023-03-02_09h23.00.803,eb_01,2022.2.4,99.95169737229389,
,,,1,0,1,0,45,0,45,0,,,,,,,,,,,,,,,,,,,,,,,,,,,,,,,,,,,,,,,,,,,,,,,,,,,,,,,,,,,110,001,2023-03-02_09h23.00.803,eb_01,2022.2.4,99.95169737229389,
3,stimuli/3.png,l,1,0,1,0,46,0,46,0,0,0,0,0,,,,,,,,,,,,,,,,,,442.9072712010093,442.9072712010093,442.9072712010093,442.9072712010093,l,1,0.561282281181775,443.48725157481385,443.48725157481385,443.48725157481385,444.49790290676174,444.49790290676174,444.49790290676174,,,,,,,,,,,,,,,,,,,,,,,,,110,001,2023-03-02_09h23.00.803,eb_01,2022.2.4,99.95169737229389,
,,,1,0,1,0,46,0,46,0,,,,,,,,,,,,,,,,,,,,,,,,,,,,,,,,,,,,,,,,,,,,,,,,,,,,,,,,,,,110,001,2023-03-02_09h23.00.803,eb_01,2022.2.4,99.95169737229389,
4,stimuli/4.png,l,1,0,1,0,47,0,47,0,0,0,0,0,,,,,,,,,,,,,,,,,,444.49790290676174,444.49790290676174,444.49790290676174,444.49790290676174,l,1,0.8587063956802012,445.37877261712856,445.37877261712856,445.37877261712856,,,,,,,,,,,,,,,,,,,,,,,,,,,,110,001,2023-03-02_09h23.00.803,eb_01,2022.2.4,99.95169737229389,
,,,1,0,1,0,47,0,47,0,,,,,,,,,,,,,,,,,,,,,,,,,,,,,,,,,,,,,,,,,,,,,,,,,,,,,,,,,,,110,001,2023-03-02_09h23.00.803,eb_01,2022.2.4,99.95169737229389,
1,stimuli/1.png,s,1,0,1,0,48,0,48,0,0,0,0,0,,,,,,,,,,,,,,,,,,446.3993647294119,446.3993647294119,446.3993647294119,446.3993647294119,s,1,0.5092734635691158,446.9397138897766,446.9397138897766,446.9397138897766,,,,,,,,,,,,,,,,,,,,,,,,,,,,110,001,2023-03-02_09h23.00.803,eb_01,2022.2.4,99.95169737229389,
,,,1,0,1,0,48,0,48,0,,,,,,,,,,,,,,,,,,,,,,,,,,,,,,,,,,,,,,,,,,,,,,,,,,,,,,,,,,,110,001,2023-03-02_09h23.00.803,eb_01,2022.2.4,99.95169737229389,
2,stimuli/2.png,s,1,0,1,0,49,0,49,0,0,0,0,0,,,,,,,,,,,,,,,,,,447.9402783466794,447.9402783466794,447.9402783466794,447.9402783466794,s,1,0.512384315370582,448.470308510412,448.470308510412,448.470308510412,449.4912555966439,449.4912555966439,449.4912555966439,,,,,,,,,,,,,,,,,,,,,,,,,110,001,2023-03-02_09h23.00.803,eb_01,2022.2.4,99.95169737229389,
,,,1,0,1,0,49,0,49,0,,,,,,,,,,,,,,,,,,,,,,,,,,,,,,,,,,,,,,,,,,,,,,,,,,,,,,,,,,,110,001,2023-03-02_09h23.00.803,eb_01,2022.2.4,99.95169737229389,
1,stimuli/1.png,s,1,0,1,0,50,0,50,0,0,0,0,0,,,,,,,,,,,,,,,,,,449.4912555966439,449.4912555966439,449.4912555966439,449.4912555966439,s,1,0.49742892406356987,450.0215797609271,450.0215797609271,450.0215797609271,,,,,,,,,,,,,,,,,,,,,,,,,,,,110,001,2023-03-02_09h23.00.803,eb_01,2022.2.4,99.95169737229389,
,,,1,0,1,0,50,0,50,0,,,,,,,,,,,,,,,,,,,,,,,,,,,,,,,,,,,,,,,,,,,,,,,,,,,,,,,,,,,110,001,2023-03-02_09h23.00.803,eb_01,2022.2.4,99.95169737229389,
4,stimuli/4.png,l,1,0,1,0,51,0,51,0,0,0,0,0,,,,,,,,,,,,,,,,,,451.0218462932535,451.0218462932535,451.0218462932535,451.0218462932535,l,1,0.48687207073089667,451.5325131704012,451.5325131704012,451.5325131704012,,,,,,,,,,,,,,,,,,,,,,,,,,,,110,001,2023-03-02_09h23.00.803,eb_01,2022.2.4,99.95169737229389,
,,,1,0,1,0,51,0,51,0,,,,,,,,,,,,,,,,,,,,,,,,,,,,,,,,,,,,,,,,,,,,,,,,,,,,,,,,,,,110,001,2023-03-02_09h23.00.803,eb_01,2022.2.4,99.95169737229389,
3,stimuli/3.png,l,1,0,1,0,52,0,52,0,0,0,0,0,,,,,,,,,,,,,,,,,,452.5431198287697,452.5431198287697,452.5431198287697,452.5431198287697,l,1,0.4926974470872665,453.05308219125436,453.05308219125436,453.05308219125436,454.06404412543634,454.06404412543634,454.06404412543634,,,,,,,,,,,,,,,,,,,,,,,,,110,001,2023-03-02_09h23.00.803,eb_01,2022.2.4,99.95169737229389,
,,,1,0,1,0,52,0,52,0,,,,,,,,,,,,,,,,,,,,,,,,,,,,,,,,,,,,,,,,,,,,,,,,,,,,,,,,,,,110,001,2023-03-02_09h23.00.803,eb_01,2022.2.4,99.95169737229389,
8,stimuli/8.png,l,1,0,1,0,53,0,53,0,0,0,0,0,,,,,,,,,,,,,,,,,,454.06404412543634,454.06404412543634,454.06404412543634,454.06404412543634,l,1,0.4997093903220957,454.5842892627261,454.5842892627261,454.5842892627261,,,,,,,,,,,,,,,,,,,,,,,,,,,,110,001,2023-03-02_09h23.00.803,eb_01,2022.2.4,99.95169737229389,
,,,1,0,1,0,53,0,53,0,,,,,,,,,,,,,,,,,,,,,,,,,,,,,,,,,,,,,,,,,,,,,,,,,,,,,,,,,,,110,001,2023-03-02_09h23.00.803,eb_01,2022.2.4,99.95169737229389,
9,stimuli/9.png,l,1,0,1,0,54,0,54,0,0,0,0,0,,,,,,,,,,,,,,,,,,455.60496377966774,455.60496377966774,455.60496377966774,455.60496377966774,l,1,0.5268350158003159,456.1549702845077,456.1549702845077,456.1549702845077,,,,,,,,,,,,,,,,,,,,,,,,,,,,110,001,2023-03-02_09h23.00.803,eb_01,2022.2.4,99.95169737229389,
,,,1,0,1,0,54,0,54,0,,,,,,,,,,,,,,,,,,,,,,,,,,,,,,,,,,,,,,,,,,,,,,,,,,,,,,,,,,,110,001,2023-03-02_09h23.00.803,eb_01,2022.2.4,99.95169737229389,
5,stimuli/5.png,s,1,0,1,0,55,0,55,0,0,0,0,0,,,,,,,,,,,,,,,,,,457.165912598517,457.165912598517,457.165912598517,457.165912598517,s,1,0.9819143582135439,458.1765195587359,458.1765195587359,458.1765195587359,,,,,,,,,,,,,,,,,,,,,,,,,,,,110,001,2023-03-02_09h23.00.803,eb_01,2022.2.4,99.95169737229389,
,,,1,0,1,0,55,0,55,0,,,,,,,,,,,,,,,,,,,,,,,,,,,,,,,,,,,,,,,,,,,,,,,,,,,,,,,,,,,110,001,2023-03-02_09h23.00.803,eb_01,2022.2.4,99.95169737229389,
6,stimuli/6.png,s,1,0,1,0,56,0,56,0,0,0,0,0,,,,,,,,,,,,,,,,,,459.19714759098133,459.19714759098133,459.19714759098133,459.19714759098133,s,1,0.414717273102724,459.64741365544614,459.64741365544614,459.64741365544614,,,,,,,,,,,,,,,,,,,,,,,,,,,,110,001,2023-03-02_09h23.00.803,eb_01,2022.2.4,99.95169737229389,
,,,1,0,1,0,56,0,56,0,,,,,,,,,,,,,,,,,,,,,,,,,,,,,,,,,,,,,,,,,,,,,,,,,,,,,,,,,,,110,001,2023-03-02_09h23.00.803,eb_01,2022.2.4,99.95169737229389,
8,stimuli/8.png,l,1,0,1,0,57,0,57,0,0,0,0,0,,,,,,,,,,,,,,,,,,460.6479775086482,460.6479775086482,460.6479775086482,460.6479775086482,l,1,0.6599396887468174,461.3284294001787,461.3284294001787,461.3284294001787,,,,,,,,,,,,,,,,,,,,,,,,,,,,110,001,2023-03-02_09h23.00.803,eb_01,2022.2.4,99.95169737229389,
,,,1,0,1,0,57,0,57,0,,,,,,,,,,,,,,,,,,,,,,,,,,,,,,,,,,,,,,,,,,,,,,,,,,,,,,,,,,,110,001,2023-03-02_09h23.00.803,eb_01,2022.2.4,99.95169737229389,
3,stimuli/3.png,l,1,0,1,0,58,0,58,0,0,0,0,0,,,,,,,,,,,,,,,,,,462.3390291160176,462.3390291160176,462.3390291160176,462.3390291160176,l,1,0.40088626788929105,462.7589735819056,462.7589735819056,462.7589735819056,463.7695974456292,463.7695974456292,463.7695974456292,,,,,,,,,,,,,,,,,,,,,,,,,110,001,2023-03-02_09h23.00.803,eb_01,2022.2.4,99.95169737229389,
,,,1,0,1,0,58,0,58,0,,,,,,,,,,,,,,,,,,,,,,,,,,,,,,,,,,,,,,,,,,,,,,,,,,,,,,,,,,,110,001,2023-03-02_09h23.00.803,eb_01,2022.2.4,99.95169737229389,
8,stimuli/8.png,l,1,0,1,0,59,0,59,0,0,0,0,0,,,,,,,,,,,,,,,,,,463.7695974456292,463.7695974456292,463.7695974456292,463.7695974456292,l,1,0.4343199256254593,464.23018009193765,464.23018009193765,464.23018009193765,,,,,,,,,,,,,,,,,,,,,,,,,,,,110,001,2023-03-02_09h23.00.803,eb_01,2022.2.4,99.95169737229389,
,,,1,0,1,0,59,0,59,0,,,,,,,,,,,,,,,,,,,,,,,,,,,,,,,,,,,,,,,,,,,,,,,,,,,,,,,,,,,110,001,2023-03-02_09h23.00.803,eb_01,2022.2.4,99.95169737229389,
3,stimuli/3.png,l,1,0,1,0,60,0,60,0,0,0,0,0,,,,,,,,,,,,,,,,,,465.24080908708856,465.24080908708856,465.24080908708856,465.24080908708856,l,1,0.5711798971460667,465.8308386048593,465.8308386048593,465.8308386048593,466.84147363698867,466.84147363698867,466.84147363698867,,,,,,,,,,,,,,,,,,,,,,,,,110,001,2023-03-02_09h23.00.803,eb_01,2022.2.4,99.95169737229389,
,,,1,0,1,0,60,0,60,0,,,,,,,,,,,,,,,,,,,,,,,,,,,,,,,,,,,,,,,,,,,,,,,,,,,,,,,,,,,110,001,2023-03-02_09h23.00.803,eb_01,2022.2.4,99.95169737229389,
4,stimuli/4.png,l,1,0,1,0,61,0,61,0,0,0,0,0,,,,,,,,,,,,,,,,,,466.84147363698867,466.84147363698867,466.84147363698867,466.84147363698867,l,1,0.6665073108306387,467.53217208146816,467.53217208146816,467.53217208146816,,,,,,,,,,,,,,,,,,,,,,,,,,,,110,001,2023-03-02_09h23.00.803,eb_01,2022.2.4,99.95169737229389,
,,,1,0,1,0,61,0,61,0,,,,,,,,,,,,,,,,,,,,,,,,,,,,,,,,,,,,,,,,,,,,,,,,,,,,,,,,,,,110,001,2023-03-02_09h23.00.803,eb_01,2022.2.4,99.95169737229389,
3,stimuli/3.png,l,1,0,1,0,62,0,62,0,0,0,0,0,,,,,,,,,,,,,,,,,,468.542809528386,468.542809528386,468.542809528386,468.542809528386,l,1,0.4852137144480366,469.0427891536092,469.0427891536092,469.0427891536092,470.05340728221927,470.05340728221927,470.05340728221927,,,,,,,,,,,,,,,,,,,,,,,,,110,001,2023-03-02_09h23.00.803,eb_01,2022.2.4,99.95169737229389,
,,,1,0,1,0,62,0,62,0,,,,,,,,,,,,,,,,,,,,,,,,,,,,,,,,,,,,,,,,,,,,,,,,,,,,,,,,,,,110,001,2023-03-02_09h23.00.803,eb_01,2022.2.4,99.95169737229389,
4,stimuli/4.png,l,1,0,1,0,63,0,63,0,0,0,0,0,,,,,,,,,,,,,,,,,,470.05340728221927,470.05340728221927,470.05340728221927,470.05340728221927,l,1,0.6536395045259269,470.7341407984932,470.7341407984932,470.7341407984932,,,,,,,,,,,,,,,,,,,,,,,,,,,,110,001,2023-03-02_09h23.00.803,eb_01,2022.2.4,99.95169737229389,
,,,1,0,1,0,63,0,63,0,,,,,,,,,,,,,,,,,,,,,,,,,,,,,,,,,,,,,,,,,,,,,,,,,,,,,,,,,,,110,001,2023-03-02_09h23.00.803,eb_01,2022.2.4,99.95169737229389,
2,stimuli/2.png,s,1,0,1,0,64,0,64,0,0,0,0,0,,,,,,,,,,,,,,,,,,471.7447550030629,471.7447550030629,471.7447550030629,471.7447550030629,s,1,0.5223190587130375,472.28474677466147,472.28474677466147,472.28474677466147,473.30568631469214,473.30568631469214,473.30568631469214,,,,,,,,,,,,,,,,,,,,,,,,,110,001,2023-03-02_09h23.00.803,eb_01,2022.2.4,99.95169737229389,
,,,1,0,1,0,64,0,64,0,,,,,,,,,,,,,,,,,,,,,,,,,,,,,,,,,,,,,,,,,,,,,,,,,,,,,,,,,,,110,001,2023-03-02_09h23.00.803,eb_01,2022.2.4,99.95169737229389,
1,stimuli/1.png,s,1,0,1,0,65,0,65,0,0,0,0,0,,,,,,,,,,,,,,,,,,473.30568631469214,473.30568631469214,473.30568631469214,473.30568631469214,s,1,0.42546187626430765,473.76599518430885,473.76599518430885,473.76599518430885,,,,,,,,,,,,,,,,,,,,,,,,,,,,110,001,2023-03-02_09h23.00.803,eb_01,2022.2.4,99.95169737229389,
,,,1,0,1,0,65,0,65,0,,,,,,,,,,,,,,,,,,,,,,,,,,,,,,,,,,,,,,,,,,,,,,,,,,,,,,,,,,,110,001,2023-03-02_09h23.00.803,eb_01,2022.2.4,99.95169737229389,
2,stimuli/2.png,s,1,0,1,0,66,0,66,0,0,0,0,0,,,,,,,,,,,,,,,,,,474.7666136721091,474.7666136721091,474.7666136721091,474.7666136721091,s,1,0.45251535992429126,475.236522534964,475.236522534964,475.236522534964,476.2474911097961,476.2474911097961,476.2474911097961,,,,,,,,,,,,,,,,,,,,,,,,,110,001,2023-03-02_09h23.00.803,eb_01,2022.2.4,99.95169737229389,
,,,1,0,1,0,66,0,66,0,,,,,,,,,,,,,,,,,,,,,,,,,,,,,,,,,,,,,,,,,,,,,,,,,,,,,,,,,,,110,001,2023-03-02_09h23.00.803,eb_01,2022.2.4,99.95169737229389,
3,stimuli/3.png,l,1,0,1,0,67,0,67,0,0,0,0,0,,,,,,,,,,,,,,,,,,476.2474911097961,476.2474911097961,476.2474911097961,476.2474911097961,l,1,0.5477244489593431,476.8075011794717,476.8075011794717,476.8075011794717,477.81843594726524,477.81843594726524,477.81843594726524,,,,,,,,,,,,,,,,,,,,,,,,,110,001,2023-03-02_09h23.00.803,eb_01,2022.2.4,99.95169737229389,
,,,1,0,1,0,67,0,67,0,,,,,,,,,,,,,,,,,,,,,,,,,,,,,,,,,,,,,,,,,,,,,,,,,,,,,,,,,,,110,001,2023-03-02_09h23.00.803,eb_01,2022.2.4,99.95169737229389,
2,stimuli/2.png,s,1,0,1,0,68,0,68,0,0,0,0,0,,,,,,,,,,,,,,,,,,477.81843594726524,477.81843594726524,477.81843594726524,477.81843594726524,s,1,0.6407756222615717,478.478521811121,478.478521811121,478.478521811121,479.48945024010027,479.48945024010027,479.48945024010027,,,,,,,,,,,,,,,,,,,,,,,,,110,001,2023-03-02_09h23.00.803,eb_01,2022.2.4,99.95169737229389,
,,,1,0,1,0,68,0,68,0,,,,,,,,,,,,,,,,,,,,,,,,,,,,,,,,,,,,,,,,,,,,,,,,,,,,,,,,,,,110,001,2023-03-02_09h23.00.803,eb_01,2022.2.4,99.95169737229389,
3,stimuli/3.png,l,1,0,1,0,69,0,69,0,0,0,0,0,,,,,,,,,,,,,,,,,,479.48945024010027,479.48945024010027,479.48945024010027,479.48945024010027,l,1,0.6737227000412531,480.1795380448457,480.1795380448457,480.1795380448457,481.19019148973166,481.19019148973166,481.19019148973166,,,,,,,,,,,,,,,,,,,,,,,,,110,001,2023-03-02_09h23.00.803,eb_01,2022.2.4,99.95169737229389,
,,,1,0,1,0,69,0,69,0,,,,,,,,,,,,,,,,,,,,,,,,,,,,,,,,,,,,,,,,,,,,,,,,,,,,,,,,,,,110,001,2023-03-02_09h23.00.803,eb_01,2022.2.4,99.95169737229389,
4,stimuli/4.png,l,1,0,1,0,70,0,70,0,0,0,0,0,,,,,,,,,,,,,,,,,,481.19019148973166,481.19019148973166,481.19019148973166,481.19019148973166,l,1,0.6530756513238885,481.87087942687504,481.87087942687504,481.87087942687504,,,,,,,,,,,,,,,,,,,,,,,,,,,,110,001,2023-03-02_09h23.00.803,eb_01,2022.2.4,99.95169737229389,
,,,1,0,1,0,70,0,70,0,,,,,,,,,,,,,,,,,,,,,,,,,,,,,,,,,,,,,,,,,,,,,,,,,,,,,,,,,,,110,001,2023-03-02_09h23.00.803,eb_01,2022.2.4,99.95169737229389,
2,stimuli/2.png,s,1,0,1,0,71,0,71,0,0,0,0,0,,,,,,,,,,,,,,,,,,482.8815108368144,482.8815108368144,482.8815108368144,482.8815108368144,s,1,1.4017767212790204,484.302350887534,484.302350887534,484.302350887534,485.322992804824,485.322992804824,485.322992804824,,,,,,,,,,,,,,,,,,,,,,,,,110,001,2023-03-02_09h23.00.803,eb_01,2022.2.4,99.95169737229389,
,,,1,0,1,0,71,0,71,0,,,,,,,,,,,,,,,,,,,,,,,,,,,,,,,,,,,,,,,,,,,,,,,,,,,,,,,,,,,110,001,2023-03-02_09h23.00.803,eb_01,2022.2.4,99.95169737229389,
1,stimuli/1.png,s,1,0,1,0,72,0,72,0,0,0,0,0,,,,,,,,,,,,,,,,,,485.322992804824,485.322992804824,485.322992804824,485.322992804824,s,1,0.8153449371020542,486.1735068077396,486.1735068077396,486.1735068077396,,,,,,,,,,,,,,,,,,,,,,,,,,,,110,001,2023-03-02_09h23.00.803,eb_01,2022.2.4,99.95169737229389,
,,,1,0,1,0,72,0,72,0,,,,,,,,,,,,,,,,,,,,,,,,,,,,,,,,,,,,,,,,,,,,,,,,,,,,,,,,,,,110,001,2023-03-02_09h23.00.803,eb_01,2022.2.4,99.95169737229389,
4,stimuli/4.png,l,1,0,1,0,73,0,73,0,0,0,0,0,,,,,,,,,,,,,,,,,,487.1737887343479,487.1737887343479,487.1737887343479,487.1737887343479,l,1,1.0045605502818944,488.2047490445693,488.2047490445693,488.2047490445693,,,,,,,,,,,,,,,,,,,,,,,,,,,,110,001,2023-03-02_09h23.00.803,eb_01,2022.2.4,99.95169737229389,
,,,1,0,1,0,73,0,73,0,,,,,,,,,,,,,,,,,,,,,,,,,,,,,,,,,,,,,,,,,,,,,,,,,,,,,,,,,,,110,001,2023-03-02_09h23.00.803,eb_01,2022.2.4,99.95169737229389,
2,stimuli/2.png,s,1,0,1,0,74,0,74,0,0,0,0,0,,,,,,,,,,,,,,,,,,489.2153608343506,489.2153608343506,489.2153608343506,489.2153608343506,s,1,0.5790128686203388,489.80536529870005,489.80536529870005,489.80536529870005,490.81600516040635,490.81600516040635,490.81600516040635,,,,,,,,,,,,,,,,,,,,,,,,,110,001,2023-03-02_09h23.00.803,eb_01,2022.2.4,99.95169737229389,
,,,1,0,1,0,74,0,74,0,,,,,,,,,,,,,,,,,,,,,,,,,,,,,,,,,,,,,,,,,,,,,,,,,,,,,,,,,,,110,001,2023-03-02_09h23.00.803,eb_01,2022.2.4,99.95169737229389,
4,stimuli/4.png,l,1,0,1,0,75,0,75,0,0,0,0,0,,,,,,,,,,,,,,,,,,490.81600516040635,490.81600516040635,490.81600516040635,490.81600516040635,l,1,0.7384251573093934,491.5768121707806,491.5768121707806,491.5768121707806,,,,,,,,,,,,,,,,,,,,,,,,,,,,110,001,2023-03-02_09h23.00.803,eb_01,2022.2.4,99.95169737229389,
,,,1,0,1,0,75,0,75,0,,,,,,,,,,,,,,,,,,,,,,,,,,,,,,,,,,,,,,,,,,,,,,,,,,,,,,,,,,,110,001,2023-03-02_09h23.00.803,eb_01,2022.2.4,99.95169737229389,
3,stimuli/3.png,l,1,0,1,0,76,0,76,0,0,0,0,0,,,,,,,,,,,,,,,,,,492.58737657032907,492.58737657032907,492.58737657032907,492.58737657032907,l,1,0.48706072611093987,493.08737098613346,493.08737098613346,493.08737098613346,494.0982637969719,494.0982637969719,494.0982637969719,,,,,,,,,,,,,,,,,,,,,,,,,110,001,2023-03-02_09h23.00.803,eb_01,2022.2.4,99.95169737229389,
,,,1,0,1,0,76,0,76,0,,,,,,,,,,,,,,,,,,,,,,,,,,,,,,,,,,,,,,,,,,,,,,,,,,,,,,,,,,,110,001,2023-03-02_09h23.00.803,eb_01,2022.2.4,99.95169737229389,
2,stimuli/2.png,s,1,0,1,0,77,0,77,0,0,0,0,0,,,,,,,,,,,,,,,,,,494.0982637969719,494.0982637969719,494.0982637969719,494.0982637969719,s,1,0.6082046478404664,494.71836075678584,494.71836075678584,494.71836075678584,495.7393066356308,495.7393066356308,495.7393066356308,,,,,,,,,,,,,,,,,,,,,,,,,110,001,2023-03-02_09h23.00.803,eb_01,2022.2.4,99.95169737229389,
,,,1,0,1,0,77,0,77,0,,,,,,,,,,,,,,,,,,,,,,,,,,,,,,,,,,,,,,,,,,,,,,,,,,,,,,,,,,,110,001,2023-03-02_09h23.00.803,eb_01,2022.2.4,99.95169737229389,
4,stimuli/4.png,l,1,0,1,0,78,0,78,0,0,0,0,0,,,,,,,,,,,,,,,,,,495.7393066356308,495.7393066356308,495.7393066356308,495.7393066356308,l,1,0.4551888330897782,496.21960029810725,496.21960029810725,496.21960029810725,,,,,,,,,,,,,,,,,,,,,,,,,,,,110,001,2023-03-02_09h23.00.803,eb_01,2022.2.4,99.95169737229389,
,,,1,0,1,0,78,0,78,0,,,,,,,,,,,,,,,,,,,,,,,,,,,,,,,,,,,,,,,,,,,,,,,,,,,,,,,,,,,110,001,2023-03-02_09h23.00.803,eb_01,2022.2.4,99.95169737229389,
3,stimuli/3.png,l,1,0,1,0,79,0,79,0,0,0,0,0,,,,,,,,,,,,,,,,,,497.23018733630306,497.23018733630306,497.23018733630306,497.23018733630306,l,1,0.6124027583136922,497.86026854263037,497.86026854263037,497.86026854263037,498.8709047821467,498.8709047821467,498.8709047821467,,,,,,,,,,,,,,,,,,,,,,,,,110,001,2023-03-02_09h23.00.803,eb_01,2022.2.4,99.95169737229389,
,,,1,0,1,0,79,0,79,0,,,,,,,,,,,,,,,,,,,,,,,,,,,,,,,,,,,,,,,,,,,,,,,,,,,,,,,,,,,110,001,2023-03-02_09h23.00.803,eb_01,2022.2.4,99.95169737229389,
4,stimuli/4.png,l,1,0,1,0,80,0,80,0,0,0,0,0,,,,,,,,,,,,,,,,,,498.8709047821467,498.8709047821467,498.8709047821467,498.8709047821467,l,1,0.37960231860051863,499.2714192529238,499.2714192529238,499.2714192529238,,,,,,,,,,,,,,,,,,,,,,,,,,,,110,001,2023-03-02_09h23.00.803,eb_01,2022.2.4,99.95169737229389,
,,,1,0,1,0,80,0,80,0,,,,,,,,,,,,,,,,,,,,,,,,,,,,,,,,,,,,,,,,,,,,,,,,,,,,,,,,,,,110,001,2023-03-02_09h23.00.803,eb_01,2022.2.4,99.95169737229389,
1,stimuli/1.png,s,1,0,1,0,81,0,81,0,0,0,0,0,,,,,,,,,,,,,,,,,,500.2917849787482,500.2917849787482,500.2917849787482,500.2917849787482,s,1,0.43784219707595184,500.7623536826577,500.7623536826577,500.7623536826577,,,,,,,,,,,,,,,,,,,,,,,,,,,,110,001,2023-03-02_09h23.00.803,eb_01,2022.2.4,99.95169737229389,
,,,1,0,1,0,81,0,81,0,,,,,,,,,,,,,,,,,,,,,,,,,,,,,,,,,,,,,,,,,,,,,,,,,,,,,,,,,,,110,001,2023-03-02_09h23.00.803,eb_01,2022.2.4,99.95169737229389,
2,stimuli/2.png,s,1,0,1,0,82,0,82,0,0,0,0,0,,,,,,,,,,,,,,,,,,501.7629706612206,501.7629706612206,501.7629706612206,501.7629706612206,s,1,0.7586251682223519,502.5612687783723,502.5612687783723,502.5612687783723,,,,,,,,,,,,,,,,,,,,,,,,,,,,110,001,2023-03-02_09h23.00.803,eb_01,2022.2.4,99.95169737229389,
,,,1,0,1,0,82,0,82,0,,,,,,,,,,,,,,,,,,,,,,,,,,,,,,,,,,,,,,,,,,,,,,,,,,,,,,,,,,,110,001,2023-03-02_09h23.00.803,eb_01,2022.2.4,99.95169737229389,
4,stimuli/4.png,l,1,0,1,0,83,0,83,0,0,0,0,0,,,,,,,,,,,,,,,,,,503.55375878492487,503.55375878492487,503.55375878492487,503.55375878492487,l,1,0.5598651019536192,504.1344017164229,504.1344017164229,504.1344017164229,,,,,,,,,,,,,,,,,,,,,,,,,,,,110,001,2023-03-02_09h23.00.803,eb_01,2022.2.4,99.95169737229389,
,,,1,0,1,0,83,0,83,0,,,,,,,,,,,,,,,,,,,,,,,,,,,,,,,,,,,,,,,,,,,,,,,,,,,,,,,,,,,110,001,2023-03-02_09h23.00.803,eb_01,2022.2.4,99.95169737229389,
1,stimuli/1.png,s,1,0,1,0,84,0,84,0,0,0,0,0,,,,,,,,,,,,,,,,,,505.15502250431746,505.15502250431746,505.15502250431746,505.15502250431746,s,1,0.7426323232502909,505.93548800921417,505.93548800921417,505.93548800921417,,,,,,,,,,,,,,,,,,,,,,,,,,,,110,001,2023-03-02_09h23.00.803,eb_01,2022.2.4,99.95169737229389,
,,,1,0,1,0,84,0,84,0,,,,,,,,,,,,,,,,,,,,,,,,,,,,,,,,,,,,,,,,,,,,,,,,,,,,,,,,,,,110,001,2023-03-02_09h23.00.803,eb_01,2022.2.4,99.95169737229389,
4,stimuli/4.png,l,1,0,1,0,85,0,85,0,0,0,0,0,,,,,,,,,,,,,,,,,,506.9358134020149,506.9358134020149,506.9358134020149,506.9358134020149,l,1,0.44187338527990505,507.40637999298633,507.40637999298633,507.40637999298633,,,,,,,,,,,,,,,,,,,,,,,,,,,,110,001,2023-03-02_09h23.00.803,eb_01,2022.2.4,99.95169737229389,
,,,1,0,1,0,85,0,85,0,,,,,,,,,,,,,,,,,,,,,,,,,,,,,,,,,,,,,,,,,,,,,,,,,,,,,,,,,,,110,001,2023-03-02_09h23.00.803,eb_01,2022.2.4,99.95169737229389,
2,stimuli/2.png,s,1,0,1,0,86,0,86,0,0,0,0,0,,,,,,,,,,,,,,,,,,508.41701200662646,508.41701200662646,508.41701200662646,508.41701200662646,s,1,0.6487175610673148,509.07708640024066,509.07708640024066,509.07708640024066,510.08767917356454,510.08767917356454,510.08767917356454,,,,,,,,,,,,,,,,,,,,,,,,,110,001,2023-03-02_09h23.00.803,eb_01,2022.2.4,99.95169737229389,
,,,1,0,1,0,86,0,86,0,,,,,,,,,,,,,,,,,,,,,,,,,,,,,,,,,,,,,,,,,,,,,,,,,,,,,,,,,,,110,001,2023-03-02_09h23.00.803,eb_01,2022.2.4,99.95169737229389,
4,stimuli/4.png,l,1,0,1,0,87,0,87,0,0,0,0,0,,,,,,,,,,,,,,,,,,510.08767917356454,510.08767917356454,510.08767917356454,510.08767917356454,l,1,0.38606519921449944,510.4982723694702,510.4982723694702,510.4982723694702,,,,,,,,,,,,,,,,,,,,,,,,,,,,110,001,2023-03-02_09h23.00.803,eb_01,2022.2.4,99.95169737229389,
,,,1,0,1,0,87,0,87,0,,,,,,,,,,,,,,,,,,,,,,,,,,,,,,,,,,,,,,,,,,,,,,,,,,,,,,,,,,,110,001,2023-03-02_09h23.00.803,eb_01,2022.2.4,99.95169737229389,
2,stimuli/2.png,s,1,0,1,0,88,0,88,0,0,0,0,0,,,,,,,,,,,,,,,,,,511.5088702742214,511.5088702742214,511.5088702742214,511.5088702742214,s,1,0.5969076617038809,512.1189075253496,512.1189075253496,512.1189075253496,513.1298465190339,513.1298465190339,513.1298465190339,,,,,,,,,,,,,,,,,,,,,,,,,110,001,2023-03-02_09h23.00.803,eb_01,2022.2.4,99.95169737229389,
,,,1,0,1,0,88,0,88,0,,,,,,,,,,,,,,,,,,,,,,,,,,,,,,,,,,,,,,,,,,,,,,,,,,,,,,,,,,,110,001,2023-03-02_09h23.00.803,eb_01,2022.2.4,99.95169737229389,
3,stimuli/3.png,l,1,0,1,0,89,0,89,0,0,0,0,0,,,,,,,,,,,,,,,,,,513.1298465190339,513.1298465190339,513.1298465190339,513.1298465190339,l,1,0.49597129713220056,513.6398571773025,513.6398571773025,513.6398571773025,514.6504668541456,514.6504668541456,514.6504668541456,,,,,,,,,,,,,,,,,,,,,,,,,110,001,2023-03-02_09h23.00.803,eb_01,2022.2.4,99.95169737229389,
,,,1,0,1,0,89,0,89,0,,,,,,,,,,,,,,,,,,,,,,,,,,,,,,,,,,,,,,,,,,,,,,,,,,,,,,,,,,,110,001,2023-03-02_09h23.00.803,eb_01,2022.2.4,99.95169737229389,
8,stimuli/8.png,l,1,0,1,0,90,0,90,0,0,0,0,0,,,,,,,,,,,,,,,,,,514.6504668541456,514.6504668541456,514.6504668541456,514.6504668541456,l,1,0.5753324285033159,515.251081599039,515.251081599039,515.251081599039,,,,,,,,,,,,,,,,,,,,,,,,,,,,110,001,2023-03-02_09h23.00.803,eb_01,2022.2.4,99.95169737229389,
,,,1,0,1,0,90,0,90,0,,,,,,,,,,,,,,,,,,,,,,,,,,,,,,,,,,,,,,,,,,,,,,,,,,,,,,,,,,,110,001,2023-03-02_09h23.00.803,eb_01,2022.2.4,99.95169737229389,
6,stimuli/6.png,s,1,0,1,0,91,0,91,0,0,0,0,0,,,,,,,,,,,,,,,,,,516.271451550725,516.271451550725,516.271451550725,516.271451550725,s,1,0.5533602643699851,516.862110422866,516.862110422866,516.862110422866,,,,,,,,,,,,,,,,,,,,,,,,,,,,110,001,2023-03-02_09h23.00.803,eb_01,2022.2.4,99.95169737229389,
,,,1,0,1,0,91,0,91,0,,,,,,,,,,,,,,,,,,,,,,,,,,,,,,,,,,,,,,,,,,,,,,,,,,,,,,,,,,,110,001,2023-03-02_09h23.00.803,eb_01,2022.2.4,99.95169737229389,
9,stimuli/9.png,l,1,0,1,0,92,0,92,0,0,0,0,0,,,,,,,,,,,,,,,,,,517.8727342865895,517.8727342865895,517.8727342865895,517.8727342865895,l,1,0.6401553233590676,518.5328053598641,518.5328053598641,518.5328053598641,,,,,,,,,,,,,,,,,,,,,,,,,,,,110,001,2023-03-02_09h23.00.803,eb_01,2022.2.4,99.95169737229389,
,,,1,0,1,0,92,0,92,0,,,,,,,,,,,,,,,,,,,,,,,,,,,,,,,,,,,,,,,,,,,,,,,,,,,,,,,,,,,110,001,2023-03-02_09h23.00.803,eb_01,2022.2.4,99.95169737229389,
6,stimuli/6.png,s,1,0,1,0,93,0,93,0,0,0,0,0,,,,,,,,,,,,,,,,,,519.553763010801,519.553763010801,519.553763010801,519.553763010801,s,1,0.4391727457550587,520.0240286587068,520.0240286587068,520.0240286587068,,,,,,,,,,,,,,,,,,,,,,,,,,,,110,001,2023-03-02_09h23.00.803,eb_01,2022.2.4,99.95169737229389,
,,,1,0,1,0,93,0,93,0,,,,,,,,,,,,,,,,,,,,,,,,,,,,,,,,,,,,,,,,,,,,,,,,,,,,,,,,,,,110,001,2023-03-02_09h23.00.803,eb_01,2022.2.4,99.95169737229389,
9,stimuli/9.png,l,1,0,1,0,94,0,94,0,0,0,0,0,,,,,,,,,,,,,,,,,,521.0346446743788,521.0346446743788,521.0346446743788,521.0346446743788,l,1,0.5902890272118384,521.644690377274,521.644690377274,521.644690377274,,,,,,,,,,,,,,,,,,,,,,,,,,,,110,001,2023-03-02_09h23.00.803,eb_01,2022.2.4,99.95169737229389,
,,,1,0,1,0,94,0,94,0,,,,,,,,,,,,,,,,,,,,,,,,,,,,,,,,,,,,,,,,,,,,,,,,,,,,,,,,,,,110,001,2023-03-02_09h23.00.803,eb_01,2022.2.4,99.95169737229389,
6,stimuli/6.png,s,1,0,1,0,95,0,95,0,0,0,0,0,,,,,,,,,,,,,,,,,,522.6656483300612,522.6656483300612,522.6656483300612,522.6656483300612,s,1,0.39130800774728414,523.0959268850129,523.0959268850129,523.0959268850129,,,,,,,,,,,,,,,,,,,,,,,,,,,,110,001,2023-03-02_09h23.00.803,eb_01,2022.2.4,99.95169737229389,
,,,1,0,1,0,95,0,95,0,,,,,,,,,,,,,,,,,,,,,,,,,,,,,,,,,,,,,,,,,,,,,,,,,,,,,,,,,,,110,001,2023-03-02_09h23.00.803,eb_01,2022.2.4,99.95169737229389,
8,stimuli/8.png,l,1,0,1,0,96,0,96,0,0,0,0,0,,,,,,,,,,,,,,,,,,524.0961774193711,524.0961774193711,524.0961774193711,524.0961774193711,l,1,0.3768485537148081,524.496743808093,524.496743808093,524.496743808093,,,,,,,,,,,,,,,,,,,,,,,,,,,,110,001,2023-03-02_09h23.00.803,eb_01,2022.2.4,99.95169737229389,
,,,1,0,1,0,96,0,96,0,,,,,,,,,,,,,,,,,,,,,,,,,,,,,,,,,,,,,,,,,,,,,,,,,,,,,,,,,,,110,001,2023-03-02_09h23.00.803,eb_01,2022.2.4,99.95169737229389,
6,stimuli/6.png,s,1,0,1,0,97,0,97,0,0,0,0,0,,,,,,,,,,,,,,,,,,525.5173694255645,525.5173694255645,525.5173694255645,525.5173694255645,s,1,0.37163351525668986,525.9276034216309,525.9276034216309,525.9276034216309,,,,,,,,,,,,,,,,,,,,,,,,,,,,110,001,2023-03-02_09h23.00.803,eb_01,2022.2.4,99.95169737229389,
,,,1,0,1,0,97,0,97,0,,,,,,,,,,,,,,,,,,,,,,,,,,,,,,,,,,,,,,,,,,,,,,,,,,,,,,,,,,,110,001,2023-03-02_09h23.00.803,eb_01,2022.2.4,99.95169737229389,
9,stimuli/9.png,l,1,0,1,0,98,0,98,0,0,0,0,0,,,,,,,,,,,,,,,,,,526.9382499240019,526.9382499240019,526.9382499240019,526.9382499240019,l,1,0.37484035489615053,527.3382621186902,527.3382621186902,527.3382621186902,,,,,,,,,,,,,,,,,,,,,,,,,,,,110,001,2023-03-02_09h23.00.803,eb_01,2022.2.4,99.95169737229389,
,,,1,0,1,0,98,0,98,0,,,,,,,,,,,,,,,,,,,,,,,,,,,,,,,,,,,,,,,,,,,,,,,,,,,,,,,,,,,110,001,2023-03-02_09h23.00.803,eb_01,2022.2.4,99.95169737229389,
6,stimuli/6.png,s,1,0,1,0,99,0,99,0,0,0,0,0,,,,,,,,,,,,,,,,,,528.3590824285202,528.3590824285202,528.3590824285202,528.3590824285202,s,1,0.33799037456628866,528.7292931097909,528.7292931097909,528.7292931097909,,,,,,,,,,,,,,,,,,,,,,,,,,,,110,001,2023-03-02_09h23.00.803,eb_01,2022.2.4,99.95169737229389,
,,,1,0,1,0,99,0,99,0,,,,,,,,,,,,,,,,,,,,,,,,,,,,,,,,,,,,,,,,,,,,,,,,,,,,,,,,,,,110,001,2023-03-02_09h23.00.803,eb_01,2022.2.4,99.95169737229389,
,,,1,0,1,0,,,,,,,,,,,,,,,,,,,,,,,,,,,,,,,,,,,,,,,529.7199122586462,529.7199122586462,return,45.55096147346194,,,,,,,,,,,,,,,,,,,,,110,001,2023-03-02_09h23.00.803,eb_01,2022.2.4,99.95169737229389,
9,stimuli/9.png,l,2,0,2,0,0,0,0,0,0,0,0,0,,,,,,,,,,,,,,,,,,575.3075040470285,575.3075040470285,575.3075040470285,575.3075040470285,l,1,0.9794295404426521,576.3078557006666,576.3078557006666,576.3078557006666,,,,,,,,,,,,,,,,,,,,,,,,,,,,110,001,2023-03-02_09h23.00.803,eb_01,2022.2.4,99.95169737229389,
,,,2,0,2,0,0,0,0,0,,,,,,,,,,,,,,,,,,,,,,,,,,,,,,,,,,,,,,,,,,,,,,,,,,,,,,,,,,,110,001,2023-03-02_09h23.00.803,eb_01,2022.2.4,99.95169737229389,
8,stimuli/8.png,l,2,0,2,0,1,0,1,0,0,0,0,0,,,,,,,,,,,,,,,,,,577.3187856388831,577.3187856388831,577.3187856388831,577.3187856388831,l,1,0.9831963092728984,578.329414634034,578.329414634034,578.329414634034,,,,,,,,,,,,,,,,,,,,,,,,,,,,110,001,2023-03-02_09h23.00.803,eb_01,2022.2.4,99.95169737229389,
,,,2,0,2,0,1,0,1,0,,,,,,,,,,,,,,,,,,,,,,,,,,,,,,,,,,,,,,,,,,,,,,,,,,,,,,,,,,,110,001,2023-03-02_09h23.00.803,eb_01,2022.2.4,99.95169737229389,
9,stimuli/9.png,l,2,0,2,0,2,0,2,0,0,0,0,0,,,,,,,,,,,,,,,,,,579.3500088592555,579.3500088592555,579.3500088592555,579.3500088592555,l,1,0.4879520850663539,579.860000802917,579.860000802917,579.860000802917,,,,,,,,,,,,,,,,,,,,,,,,,,,,110,001,2023-03-02_09h23.00.803,eb_01,2022.2.4,99.95169737229389,
,,,2,0,2,0,2,0,2,0,,,,,,,,,,,,,,,,,,,,,,,,,,,,,,,,,,,,,,,,,,,,,,,,,,,,,,,,,,,110,001,2023-03-02_09h23.00.803,eb_01,2022.2.4,99.95169737229389,
5,stimuli/5.png,s,2,0,2,0,3,0,3,0,0,0,0,0,,,,,,,,,,,,,,,,,,580.8709283263452,580.8709283263452,580.8709283263452,580.8709283263452,s,1,0.4550511901034042,581.3512111222662,581.3512111222662,581.3512111222662,,,,,,,,,,,,,,,,,,,,,,,,,,,,110,001,2023-03-02_09h23.00.803,eb_01,2022.2.4,99.95169737229389,
,,,2,0,2,0,3,0,3,0,,,,,,,,,,,,,,,,,,,,,,,,,,,,,,,,,,,,,,,,,,,,,,,,,,,,,,,,,,,110,001,2023-03-02_09h23.00.803,eb_01,2022.2.4,99.95169737229389,
6,stimuli/6.png,s,2,0,2,0,4,0,4,0,0,0,0,0,,,,,,,,,,,,,,,,,,582.371850322932,582.371850322932,582.371850322932,582.371850322932,s,1,0.5701753449829994,582.9721967243968,582.9721967243968,582.9721967243968,,,,,,,,,,,,,,,,,,,,,,,,,,,,110,001,2023-03-02_09h23.00.803,eb_01,2022.2.4,99.95169737229389,
,,,2,0,2,0,4,0,4,0,,,,,,,,,,,,,,,,,,,,,,,,,,,,,,,,,,,,,,,,,,,,,,,,,,,,,,,,,,,110,001,2023-03-02_09h23.00.803,eb_01,2022.2.4,99.95169737229389,
9,stimuli/9.png,l,2,0,2,0,5,0,5,0,0,0,0,0,,,,,,,,,,,,,,,,,,583.9828109289665,583.9828109289665,583.9828109289665,583.9828109289665,l,1,0.4872155744524207,584.4928013633908,584.4928013633908,584.4928013633908,,,,,,,,,,,,,,,,,,,,,,,,,,,,110,001,2023-03-02_09h23.00.803,eb_01,2022.2.4,99.95169737229389,
,,,2,0,2,0,5,0,5,0,,,,,,,,,,,,,,,,,,,,,,,,,,,,,,,,,,,,,,,,,,,,,,,,,,,,,,,,,,,110,001,2023-03-02_09h23.00.803,eb_01,2022.2.4,99.95169737229389,
8,stimuli/8.png,l,2,0,2,0,6,0,6,0,0,0,0,0,,,,,,,,,,,,,,,,,,585.5037137943873,585.5037137943873,585.5037137943873,585.5037137943873,l,1,0.5823522198043065,586.114094549237,586.114094549237,586.114094549237,,,,,,,,,,,,,,,,,,,,,,,,,,,,110,001,2023-03-02_09h23.00.803,eb_01,2022.2.4,99.95169737229389,
,,,2,0,2,0,6,0,6,0,,,,,,,,,,,,,,,,,,,,,,,,,,,,,,,,,,,,,,,,,,,,,,,,,,,,,,,,,,,110,001,2023-03-02_09h23.00.803,eb_01,2022.2.4,99.95169737229389,
6,stimuli/6.png,s,2,0,2,0,7,0,7,0,0,0,0,0,,,,,,,,,,,,,,,,,,587.1344020182732,587.1344020182732,587.1344020182732,587.1344020182732,s,1,0.44769574314705096,587.6150129236485,587.6150129236485,587.6150129236485,,,,,,,,,,,,,,,,,,,,,,,,,,,,110,001,2023-03-02_09h23.00.803,eb_01,2022.2.4,99.95169737229389,
,,,2,0,2,0,7,0,7,0,,,,,,,,,,,,,,,,,,,,,,,,,,,,,,,,,,,,,,,,,,,,,,,,,,,,,,,,,,,110,001,2023-03-02_09h23.00.803,eb_01,2022.2.4,99.95169737229389,
5,stimuli/5.png,s,2,0,2,0,8,0,8,0,0,0,0,0,,,,,,,,,,,,,,,,,,588.6155951896217,588.6155951896217,588.6155951896217,588.6155951896217,s,1,0.5105418314487906,589.1559292575548,589.1559292575548,589.1559292575548,,,,,,,,,,,,,,,,,,,,,,,,,,,,110,001,2023-03-02_09h23.00.803,eb_01,2022.2.4,99.95169737229389,
,,,2,0,2,0,8,0,8,0,,,,,,,,,,,,,,,,,,,,,,,,,,,,,,,,,,,,,,,,,,,,,,,,,,,,,,,,,,,110,001,2023-03-02_09h23.00.803,eb_01,2022.2.4,99.95169737229389,
