index,stimulus,correct_answer,block.thisRepN,block.thisTrialN,block.thisN,block.thisIndex,trial.thisRepN,trial.thisTrialN,trial.thisN,trial.thisIndex,display_row.thisRepN,display_row.thisTrialN,display_row.thisN,display_row.thisIndex,pair_questions.thisRepN,pair_questions.thisTrialN,pair_questions.thisN,pair_questions.thisIndex,welcome_text.started,instructions_0_keypress.started,instructions_0_keypress.keys,instructions_0_keypress.rt,instructions_1_keypress.started,instructions_1_text.started,instructions_1_keypress.keys,instructions_1_keypress.rt,instructions_2_keypress.started,instructions_2_text.started,instructions_2_keypress.keys,instructions_2_keypress.rt,text_countdown.started,image.started,size_question.started,size_resp.started,keypress_options.started,size_resp.keys,size_resp.corr,size_resp.rt,fb_image.started,fb.started,fb_size_question.started,fb_image.stopped,fb.stopped,fb_size_question.stopped,block_break_text.started,block_break_keypress.started,block_break_keypress.keys,block_break_keypress.rt,seq_reveal.started,seq_reveal_adv.started,seq_reveal_adv.keys,seq_reveal_adv.rt,instruction_2afc_text.started,instruction_2afc_keypress.started,instruction_2afc_keypress.keys,instruction_2afc_keypress.rt,dist_2afc_test.started,dist_2afc_resp.started,text.started,stim_00.started,stim_01.started,stim_10.started,stim_11.started,dist_2afc_resp.keys,dist_2afc_resp.rt,graph.started,debrief_text.started,debriefing_title.started,participant,session,date,expName,psychopyVersion,frameRate,
,,,,,,,,,,,,,,,,,,,11.565428585308837,11.565428585308837,return,113.38453064009082,,,,,,,,,,,,,,,,,,,,,,,,,,,,,,,,,,,,,,,,,,,,,,,111,001,2023-03-02_09h07.09.268,eb_01,2022.2.4,119.98699745902935,
,,,,,,,,,,,,,,,,,,,,,,,124.95995129256335,124.95995129256335,return,9.653398056310834,,,,,,,,,,,,,,,,,,,,,,,,,,,,,,,,,,,,,,,,,,,111,001,2023-03-02_09h07.09.268,eb_01,2022.2.4,119.98699745902935,
,,,,,,,,,,,,,,,,,,,,,,,,,,,134.62755260514678,134.62755260514678,space,10.393346336335526,,,,,,,,,,,,,,,,,,,,,,,,,,,,,,,,,,,,,,,111,001,2023-03-02_09h07.09.268,eb_01,2022.2.4,119.98699745902935,
5,stimuli/5.png,s,0,0,0,0,0,0,0,0,0,0,0,0,,,,,,,,,,,,,,,,,145.0453191082779,150.05417253650376,150.05417253650376,150.05417253650376,150.05417253650376,s,1,2.054888197235414,152.1293862277089,152.1293862277089,152.1293862277089,,,,,,,,,,,,,,,,,,,,,,,,,,,,111,001,2023-03-02_09h07.09.268,eb_01,2022.2.4,119.98699745902935,
,,,0,0,0,0,0,0,0,0,,,,,,,,,,,,,,,,,,,,,,,,,,,,,,,,,,,,,,,,,,,,,,,,,,,,,,,,,,,111,001,2023-03-02_09h07.09.268,eb_01,2022.2.4,119.98699745902935,
6,stimuli/6.png,s,0,0,0,0,1,0,1,0,0,0,0,0,,,,,,,,,,,,,,,,,,153.1545012271963,153.1545012271963,153.1545012271963,153.1545012271963,s,1,0.6586292158899596,153.84623681002995,153.84623681002995,153.84623681002995,,,,,,,,,,,,,,,,,,,,,,,,,,,,111,001,2023-03-02_09h07.09.268,eb_01,2022.2.4,119.98699745902935,
,,,0,0,0,0,1,0,1,0,,,,,,,,,,,,,,,,,,,,,,,,,,,,,,,,,,,,,,,,,,,,,,,,,,,,,,,,,,,111,001,2023-03-02_09h07.09.268,eb_01,2022.2.4,119.98699745902935,
5,stimuli/5.png,s,0,0,0,0,2,0,2,0,0,0,0,0,,,,,,,,,,,,,,,,,,154.84634517623635,154.84634517623635,154.84634517623635,154.84634517623635,s,1,0.6148942464205902,155.47974985820474,155.47974985820474,155.47974985820474,,,,,,,,,,,,,,,,,,,,,,,,,,,,111,001,2023-03-02_09h07.09.268,eb_01,2022.2.4,119.98699745902935,
,,,0,0,0,0,2,0,2,0,,,,,,,,,,,,,,,,,,,,,,,,,,,,,,,,,,,,,,,,,,,,,,,,,,,,,,,,,,,111,001,2023-03-02_09h07.09.268,eb_01,2022.2.4,119.98699745902935,
6,stimuli/6.png,s,0,0,0,0,3,0,3,0,0,0,0,0,,,,,,,,,,,,,,,,,,156.5048503686121,156.5048503686121,156.5048503686121,156.5048503686121,s,1,0.38839167657715734,156.92155132105108,156.92155132105108,156.92155132105108,,,,,,,,,,,,,,,,,,,,,,,,,,,,111,001,2023-03-02_09h07.09.268,eb_01,2022.2.4,119.98699745902935,
,,,0,0,0,0,3,0,3,0,,,,,,,,,,,,,,,,,,,,,,,,,,,,,,,,,,,,,,,,,,,,,,,,,,,,,,,,,,,111,001,2023-03-02_09h07.09.268,eb_01,2022.2.4,119.98699745902935,
9,stimuli/9.png,l,0,0,0,0,4,0,4,0,0,0,0,0,,,,,,,,,,,,,,,,,,157.92998034013726,157.92998034013726,157.92998034013726,157.92998034013726,s,0,0.4593570504075615,158.42170149426966,158.42170149426966,158.42170149426966,,,,,,,,,,,,,,,,,,,,,,,,,,,,111,001,2023-03-02_09h07.09.268,eb_01,2022.2.4,119.98699745902935,
,,,0,0,0,0,4,0,4,0,,,,,,,,,,,,,,,,,,,,,,,,,,,,,,,,,,,,,,,,,,,,,,,,,,,,,,,,,,,111,001,2023-03-02_09h07.09.268,eb_01,2022.2.4,119.98699745902935,
8,stimuli/8.png,l,0,0,0,0,5,0,5,0,0,0,0,0,,,,,,,,,,,,,,,,,,159.4218497054244,159.4218497054244,159.4218497054244,159.4218497054244,l,1,0.6395791015092982,160.08022057201015,160.08022057201015,160.08022057201015,,,,,,,,,,,,,,,,,,,,,,,,,,,,111,001,2023-03-02_09h07.09.268,eb_01,2022.2.4,119.98699745902935,
,,,0,0,0,0,5,0,5,0,,,,,,,,,,,,,,,,,,,,,,,,,,,,,,,,,,,,,,,,,,,,,,,,,,,,,,,,,,,111,001,2023-03-02_09h07.09.268,eb_01,2022.2.4,119.98699745902935,
6,stimuli/6.png,s,0,0,0,0,6,0,6,0,0,0,0,0,,,,,,,,,,,,,,,,,,161.10532681767654,161.10532681767654,161.10532681767654,161.10532681767654,s,1,0.5151900952041615,161.64703437320713,161.64703437320713,161.64703437320713,,,,,,,,,,,,,,,,,,,,,,,,,,,,111,001,2023-03-02_09h07.09.268,eb_01,2022.2.4,119.98699745902935,
,,,0,0,0,0,6,0,6,0,,,,,,,,,,,,,,,,,,,,,,,,,,,,,,,,,,,,,,,,,,,,,,,,,,,,,,,,,,,111,001,2023-03-02_09h07.09.268,eb_01,2022.2.4,119.98699745902935,
9,stimuli/9.png,l,0,0,0,0,7,0,7,0,0,0,0,0,,,,,,,,,,,,,,,,,,162.65547124054865,162.65547124054865,162.65547124054865,162.65547124054865,s,0,0.37301061845209915,163.0555384336185,163.0555384336185,163.0555384336185,,,,,,,,,,,,,,,,,,,,,,,,,,,,111,001,2023-03-02_09h07.09.268,eb_01,2022.2.4,119.98699745902935,
,,,0,0,0,0,7,0,7,0,,,,,,,,,,,,,,,,,,,,,,,,,,,,,,,,,,,,,,,,,,,,,,,,,,,,,,,,,,,111,001,2023-03-02_09h07.09.268,eb_01,2022.2.4,119.98699745902935,
6,stimuli/6.png,s,0,0,0,0,8,0,8,0,0,0,0,0,,,,,,,,,,,,,,,,,,164.0723354969232,164.0723354969232,164.0723354969232,164.0723354969232,s,1,0.45226253545843065,164.55572543323797,164.55572543323797,164.55572543323797,,,,,,,,,,,,,,,,,,,,,,,,,,,,111,001,2023-03-02_09h07.09.268,eb_01,2022.2.4,119.98699745902935,
,,,0,0,0,0,8,0,8,0,,,,,,,,,,,,,,,,,,,,,,,,,,,,,,,,,,,,,,,,,,,,,,,,,,,,,,,,,,,111,001,2023-03-02_09h07.09.268,eb_01,2022.2.4,119.98699745902935,
8,stimuli/8.png,l,0,0,0,0,9,0,9,0,0,0,0,0,,,,,,,,,,,,,,,,,,165.55581206583884,165.55581206583884,165.55581206583884,165.55581206583884,l,1,0.4488304359401809,166.02250756978174,166.02250756978174,166.02250756978174,,,,,,,,,,,,,,,,,,,,,,,,,,,,111,001,2023-03-02_09h07.09.268,eb_01,2022.2.4,119.98699745902935,
,,,0,0,0,0,9,0,9,0,,,,,,,,,,,,,,,,,,,,,,,,,,,,,,,,,,,,,,,,,,,,,,,,,,,,,,,,,,,111,001,2023-03-02_09h07.09.268,eb_01,2022.2.4,119.98699745902935,
6,stimuli/6.png,s,0,0,0,0,10,0,10,0,0,0,0,0,,,,,,,,,,,,,,,,,,167.04761441916344,167.04761441916344,167.04761441916344,167.04761441916344,s,1,0.49311417911667377,167.57267161327763,167.57267161327763,167.57267161327763,,,,,,,,,,,,,,,,,,,,,,,,,,,,111,001,2023-03-02_09h07.09.268,eb_01,2022.2.4,119.98699745902935,
,,,0,0,0,0,10,0,10,0,,,,,,,,,,,,,,,,,,,,,,,,,,,,,,,,,,,,,,,,,,,,,,,,,,,,,,,,,,,111,001,2023-03-02_09h07.09.268,eb_01,2022.2.4,119.98699745902935,
8,stimuli/8.png,l,0,0,0,0,11,0,11,0,0,0,0,0,,,,,,,,,,,,,,,,,,168.57281408917333,168.57281408917333,168.57281408917333,168.57281408917333,l,1,0.3839275323553011,168.9811635994556,168.9811635994556,168.9811635994556,,,,,,,,,,,,,,,,,,,,,,,,,,,,111,001,2023-03-02_09h07.09.268,eb_01,2022.2.4,119.98699745902935,
,,,0,0,0,0,11,0,11,0,,,,,,,,,,,,,,,,,,,,,,,,,,,,,,,,,,,,,,,,,,,,,,,,,,,,,,,,,,,111,001,2023-03-02_09h07.09.268,eb_01,2022.2.4,119.98699745902935,
3,stimuli/3.png,l,0,0,0,0,12,0,12,0,0,0,0,0,,,,,,,,,,,,,,,,,,169.98957058307133,169.98957058307133,169.98957058307133,169.98957058307133,l,1,0.4712658622156596,170.47295176556509,170.47295176556509,170.47295176556509,171.4814317982673,171.4814317982673,171.4814317982673,,,,,,,,,,,,,,,,,,,,,,,,,111,001,2023-03-02_09h07.09.268,eb_01,2022.2.4,119.98699745902935,
,,,0,0,0,0,12,0,12,0,,,,,,,,,,,,,,,,,,,,,,,,,,,,,,,,,,,,,,,,,,,,,,,,,,,,,,,,,,,111,001,2023-03-02_09h07.09.268,eb_01,2022.2.4,119.98699745902935,
8,stimuli/8.png,l,0,0,0,0,13,0,13,0,0,0,0,0,,,,,,,,,,,,,,,,,,171.4814317982673,171.4814317982673,171.4814317982673,171.4814317982673,l,1,0.547434021209483,172.04813421471044,172.04813421471044,172.04813421471044,,,,,,,,,,,,,,,,,,,,,,,,,,,,111,001,2023-03-02_09h07.09.268,eb_01,2022.2.4,119.98699745902935,
,,,0,0,0,0,13,0,13,0,,,,,,,,,,,,,,,,,,,,,,,,,,,,,,,,,,,,,,,,,,,,,,,,,,,,,,,,,,,111,001,2023-03-02_09h07.09.268,eb_01,2022.2.4,119.98699745902935,
9,stimuli/9.png,l,0,0,0,0,14,0,14,0,0,0,0,0,,,,,,,,,,,,,,,,,,173.06493912625592,173.06493912625592,173.06493912625592,173.06493912625592,l,1,0.4039997302170377,173.49830311807455,173.49830311807455,173.49830311807455,,,,,,,,,,,,,,,,,,,,,,,,,,,,111,001,2023-03-02_09h07.09.268,eb_01,2022.2.4,119.98699745902935,
,,,0,0,0,0,14,0,14,0,,,,,,,,,,,,,,,,,,,,,,,,,,,,,,,,,,,,,,,,,,,,,,,,,,,,,,,,,,,111,001,2023-03-02_09h07.09.268,eb_01,2022.2.4,119.98699745902935,
6,stimuli/6.png,s,0,0,0,0,15,0,15,0,0,0,0,0,,,,,,,,,,,,,,,,,,174.51511225561262,174.51511225561262,174.51511225561262,174.51511225561262,s,1,0.4019063607993303,174.9484068206075,174.9484068206075,174.9484068206075,,,,,,,,,,,,,,,,,,,,,,,,,,,,111,001,2023-03-02_09h07.09.268,eb_01,2022.2.4,119.98699745902935,
,,,0,0,0,0,15,0,15,0,,,,,,,,,,,,,,,,,,,,,,,,,,,,,,,,,,,,,,,,,,,,,,,,,,,,,,,,,,,111,001,2023-03-02_09h07.09.268,eb_01,2022.2.4,119.98699745902935,
9,stimuli/9.png,l,0,0,0,0,16,0,16,0,0,0,0,0,,,,,,,,,,,,,,,,,,175.95686240299256,175.95686240299256,175.95686240299256,175.95686240299256,l,1,0.44019494754320476,176.42359654446773,176.42359654446773,176.42359654446773,,,,,,,,,,,,,,,,,,,,,,,,,,,,111,001,2023-03-02_09h07.09.268,eb_01,2022.2.4,119.98699745902935,
,,,0,0,0,0,16,0,16,0,,,,,,,,,,,,,,,,,,,,,,,,,,,,,,,,,,,,,,,,,,,,,,,,,,,,,,,,,,,111,001,2023-03-02_09h07.09.268,eb_01,2022.2.4,119.98699745902935,
6,stimuli/6.png,s,0,0,0,0,17,0,17,0,0,0,0,0,,,,,,,,,,,,,,,,,,177.44038032612298,177.44038032612298,177.44038032612298,177.44038032612298,s,1,0.5637653211306315,178.0321135243139,178.0321135243139,178.0321135243139,,,,,,,,,,,,,,,,,,,,,,,,,,,,111,001,2023-03-02_09h07.09.268,eb_01,2022.2.4,119.98699745902935,
,,,0,0,0,0,17,0,17,0,,,,,,,,,,,,,,,,,,,,,,,,,,,,,,,,,,,,,,,,,,,,,,,,,,,,,,,,,,,111,001,2023-03-02_09h07.09.268,eb_01,2022.2.4,119.98699745902935,
5,stimuli/5.png,s,0,0,0,0,18,0,18,0,0,0,0,0,,,,,,,,,,,,,,,,,,179.03218566782016,179.03218566782016,179.03218566782016,179.03218566782016,s,1,0.7000205775693757,179.74892154497502,179.74892154497502,179.74892154497502,,,,,,,,,,,,,,,,,,,,,,,,,,,,111,001,2023-03-02_09h07.09.268,eb_01,2022.2.4,119.98699745902935,
,,,0,0,0,0,18,0,18,0,,,,,,,,,,,,,,,,,,,,,,,,,,,,,,,,,,,,,,,,,,,,,,,,,,,,,,,,,,,111,001,2023-03-02_09h07.09.268,eb_01,2022.2.4,119.98699745902935,
6,stimuli/6.png,s,0,0,0,0,19,0,19,0,0,0,0,0,,,,,,,,,,,,,,,,,,180.77404982611188,180.77404982611188,180.77404982611188,180.77404982611188,s,1,0.3982074208324775,181.19911037082784,181.19911037082784,181.19911037082784,,,,,,,,,,,,,,,,,,,,,,,,,,,,111,001,2023-03-02_09h07.09.268,eb_01,2022.2.4,119.98699745902935,
,,,0,0,0,0,19,0,19,0,,,,,,,,,,,,,,,,,,,,,,,,,,,,,,,,,,,,,,,,,,,,,,,,,,,,,,,,,,,111,001,2023-03-02_09h07.09.268,eb_01,2022.2.4,119.98699745902935,
5,stimuli/5.png,s,0,0,0,0,20,0,20,0,0,0,0,0,,,,,,,,,,,,,,,,,,182.1991816087684,182.1991816087684,182.1991816087684,182.1991816087684,s,1,0.4211191754293395,182.64089100563433,182.64089100563433,182.64089100563433,,,,,,,,,,,,,,,,,,,,,,,,,,,,111,001,2023-03-02_09h07.09.268,eb_01,2022.2.4,119.98699745902935,
,,,0,0,0,0,20,0,20,0,,,,,,,,,,,,,,,,,,,,,,,,,,,,,,,,,,,,,,,,,,,,,,,,,,,,,,,,,,,111,001,2023-03-02_09h07.09.268,eb_01,2022.2.4,119.98699745902935,
9,stimuli/9.png,l,0,0,0,0,21,0,21,0,0,0,0,0,,,,,,,,,,,,,,,,,,183.65766663718387,183.65766663718387,183.65766663718387,183.65766663718387,s,0,0.4427045759948669,184.13275131525006,184.13275131525006,184.13275131525006,,,,,,,,,,,,,,,,,,,,,,,,,,,,111,001,2023-03-02_09h07.09.268,eb_01,2022.2.4,119.98699745902935,
,,,0,0,0,0,21,0,21,0,,,,,,,,,,,,,,,,,,,,,,,,,,,,,,,,,,,,,,,,,,,,,,,,,,,,,,,,,,,111,001,2023-03-02_09h07.09.268,eb_01,2022.2.4,119.98699745902935,
6,stimuli/6.png,s,0,0,0,0,22,0,22,0,0,0,0,0,,,,,,,,,,,,,,,,,,185.14954203959496,185.14954203959496,185.14954203959496,185.14954203959496,s,1,0.4149078902992187,185.59120917665132,185.59120917665132,185.59120917665132,,,,,,,,,,,,,,,,,,,,,,,,,,,,111,001,2023-03-02_09h07.09.268,eb_01,2022.2.4,119.98699745902935,
,,,0,0,0,0,22,0,22,0,,,,,,,,,,,,,,,,,,,,,,,,,,,,,,,,,,,,,,,,,,,,,,,,,,,,,,,,,,,111,001,2023-03-02_09h07.09.268,eb_01,2022.2.4,119.98699745902935,
5,stimuli/5.png,s,0,0,0,0,23,0,23,0,0,0,0,0,,,,,,,,,,,,,,,,,,186.59134078574425,186.59134078574425,186.59134078574425,186.59134078574425,s,1,0.47718102687213104,187.0913563313079,187.0913563313079,187.0913563313079,,,,,,,,,,,,,,,,,,,,,,,,,,,,111,001,2023-03-02_09h07.09.268,eb_01,2022.2.4,119.98699745902935,
,,,0,0,0,0,23,0,23,0,,,,,,,,,,,,,,,,,,,,,,,,,,,,,,,,,,,,,,,,,,,,,,,,,,,,,,,,,,,111,001,2023-03-02_09h07.09.268,eb_01,2022.2.4,119.98699745902935,
6,stimuli/6.png,s,0,0,0,0,24,0,24,0,0,0,0,0,,,,,,,,,,,,,,,,,,188.11652415554272,188.11652415554272,188.11652415554272,188.11652415554272,s,1,0.4960328220477095,188.6415315434715,188.6415315434715,188.6415315434715,,,,,,,,,,,,,,,,,,,,,,,,,,,,111,001,2023-03-02_09h07.09.268,eb_01,2022.2.4,119.98699745902935,
,,,0,0,0,0,24,0,24,0,,,,,,,,,,,,,,,,,,,,,,,,,,,,,,,,,,,,,,,,,,,,,,,,,,,,,,,,,,,111,001,2023-03-02_09h07.09.268,eb_01,2022.2.4,119.98699745902935,
5,stimuli/5.png,s,0,0,0,0,25,0,25,0,0,0,0,0,,,,,,,,,,,,,,,,,,189.6416658692615,189.6416658692615,189.6416658692615,189.6416658692615,s,1,0.3629853863239987,190.0249984831753,190.0249984831753,190.0249984831753,,,,,,,,,,,,,,,,,,,,,,,,,,,,111,001,2023-03-02_09h07.09.268,eb_01,2022.2.4,119.98699745902935,
,,,0,0,0,0,25,0,25,0,,,,,,,,,,,,,,,,,,,,,,,,,,,,,,,,,,,,,,,,,,,,,,,,,,,,,,,,,,,111,001,2023-03-02_09h07.09.268,eb_01,2022.2.4,119.98699745902935,
6,stimuli/6.png,s,0,0,0,0,26,0,26,0,0,0,0,0,,,,,,,,,,,,,,,,,,191.05014215894334,191.05014215894334,191.05014215894334,191.05014215894334,s,1,0.46653336826420855,191.5418270904047,191.5418270904047,191.5418270904047,,,,,,,,,,,,,,,,,,,,,,,,,,,,111,001,2023-03-02_09h07.09.268,eb_01,2022.2.4,119.98699745902935,
,,,0,0,0,0,26,0,26,0,,,,,,,,,,,,,,,,,,,,,,,,,,,,,,,,,,,,,,,,,,,,,,,,,,,,,,,,,,,111,001,2023-03-02_09h07.09.268,eb_01,2022.2.4,119.98699745902935,
8,stimuli/8.png,l,0,0,0,0,27,0,27,0,0,0,0,0,,,,,,,,,,,,,,,,,,192.5419701700157,192.5419701700157,192.5419701700157,192.5419701700157,s,0,0.38278138620080426,192.94197246411932,192.94197246411932,192.94197246411932,,,,,,,,,,,,,,,,,,,,,,,,,,,,111,001,2023-03-02_09h07.09.268,eb_01,2022.2.4,119.98699745902935,
,,,0,0,0,0,27,0,27,0,,,,,,,,,,,,,,,,,,,,,,,,,,,,,,,,,,,,,,,,,,,,,,,,,,,,,,,,,,,111,001,2023-03-02_09h07.09.268,eb_01,2022.2.4,119.98699745902935,
3,stimuli/3.png,l,0,0,0,0,28,0,28,0,0,0,0,0,,,,,,,,,,,,,,,,,,193.95040389803762,193.95040389803762,193.95040389803762,193.95040389803762,l,1,0.5654228108905954,194.5338562882971,194.5338562882971,194.5338562882971,,,,,,,,,,,,,,,,,,,,,,,,,,,,111,001,2023-03-02_09h07.09.268,eb_01,2022.2.4,119.98699745902935,
,,,0,0,0,0,28,0,28,0,,,,,,,,,,,,,,,,,,,,,,,,,,,,,,,,,,,,,,,,,,,,,,,,,,,,,,,,,,,111,001,2023-03-02_09h07.09.268,eb_01,2022.2.4,119.98699745902935,
8,stimuli/8.png,l,0,0,0,0,29,0,29,0,0,0,0,0,,,,,,,,,,,,,,,,,,195.5422641774785,195.5422641774785,195.5422641774785,195.5422641774785,l,1,0.3816192416852573,195.94234616149333,195.94234616149333,195.94234616149333,,,,,,,,,,,,,,,,,,,,,,,,,,,,111,001,2023-03-02_09h07.09.268,eb_01,2022.2.4,119.98699745902935,
,,,0,0,0,0,29,0,29,0,,,,,,,,,,,,,,,,,,,,,,,,,,,,,,,,,,,,,,,,,,,,,,,,,,,,,,,,,,,111,001,2023-03-02_09h07.09.268,eb_01,2022.2.4,119.98699745902935,
9,stimuli/9.png,l,0,0,0,0,30,0,30,0,0,0,0,0,,,,,,,,,,,,,,,,,,196.9590650441678,196.9590650441678,196.9590650441678,196.9590650441678,l,1,0.4048642449779436,197.39246012711374,197.39246012711374,197.39246012711374,,,,,,,,,,,,,,,,,,,,,,,,,,,,111,001,2023-03-02_09h07.09.268,eb_01,2022.2.4,119.98699745902935,
,,,0,0,0,0,30,0,30,0,,,,,,,,,,,,,,,,,,,,,,,,,,,,,,,,,,,,,,,,,,,,,,,,,,,,,,,,,,,111,001,2023-03-02_09h07.09.268,eb_01,2022.2.4,119.98699745902935,
6,stimuli/6.png,s,0,0,0,0,31,0,31,0,0,0,0,0,,,,,,,,,,,,,,,,,,198.40924813474703,198.40924813474703,198.40924813474703,198.40924813474703,s,1,0.4187170076183975,198.85926278984698,198.85926278984698,198.85926278984698,,,,,,,,,,,,,,,,,,,,,,,,,,,,111,001,2023-03-02_09h07.09.268,eb_01,2022.2.4,119.98699745902935,
,,,0,0,0,0,31,0,31,0,,,,,,,,,,,,,,,,,,,,,,,,,,,,,,,,,,,,,,,,,,,,,,,,,,,,,,,,,,,111,001,2023-03-02_09h07.09.268,eb_01,2022.2.4,119.98699745902935,
5,stimuli/5.png,s,0,0,0,0,32,0,32,0,0,0,0,0,,,,,,,,,,,,,,,,,,199.859402850896,199.859402850896,199.859402850896,199.859402850896,s,1,0.3766343963361578,200.25944861222524,200.25944861222524,200.25944861222524,,,,,,,,,,,,,,,,,,,,,,,,,,,,111,001,2023-03-02_09h07.09.268,eb_01,2022.2.4,119.98699745902935,
,,,0,0,0,0,32,0,32,0,,,,,,,,,,,,,,,,,,,,,,,,,,,,,,,,,,,,,,,,,,,,,,,,,,,,,,,,,,,111,001,2023-03-02_09h07.09.268,eb_01,2022.2.4,119.98699745902935,
6,stimuli/6.png,s,0,0,0,0,33,0,33,0,0,0,0,0,,,,,,,,,,,,,,,,,,201.2845527449099,201.2845527449099,201.2845527449099,201.2845527449099,s,1,0.4075664573756512,201.71791100145492,201.71791100145492,201.71791100145492,,,,,,,,,,,,,,,,,,,,,,,,,,,,111,001,2023-03-02_09h07.09.268,eb_01,2022.2.4,119.98699745902935,
,,,0,0,0,0,33,0,33,0,,,,,,,,,,,,,,,,,,,,,,,,,,,,,,,,,,,,,,,,,,,,,,,,,,,,,,,,,,,111,001,2023-03-02_09h07.09.268,eb_01,2022.2.4,119.98699745902935,
9,stimuli/9.png,l,0,0,0,0,34,0,34,0,0,0,0,0,,,,,,,,,,,,,,,,,,202.72633639827836,202.72633639827836,202.72633639827836,202.72633639827836,s,0,0.3337980513460934,203.09306453281897,203.09306453281897,203.09306453281897,,,,,,,,,,,,,,,,,,,,,,,,,,,,111,001,2023-03-02_09h07.09.268,eb_01,2022.2.4,119.98699745902935,
,,,0,0,0,0,34,0,34,0,,,,,,,,,,,,,,,,,,,,,,,,,,,,,,,,,,,,,,,,,,,,,,,,,,,,,,,,,,,111,001,2023-03-02_09h07.09.268,eb_01,2022.2.4,119.98699745902935,
6,stimuli/6.png,s,0,0,0,0,35,0,35,0,0,0,0,0,,,,,,,,,,,,,,,,,,204.10984680519323,204.10984680519323,204.10984680519323,204.10984680519323,s,1,0.3183590369153535,204.45986571646063,204.45986571646063,204.45986571646063,,,,,,,,,,,,,,,,,,,,,,,,,,,,111,001,2023-03-02_09h07.09.268,eb_01,2022.2.4,119.98699745902935,
,,,0,0,0,0,35,0,35,0,,,,,,,,,,,,,,,,,,,,,,,,,,,,,,,,,,,,,,,,,,,,,,,,,,,,,,,,,,,111,001,2023-03-02_09h07.09.268,eb_01,2022.2.4,119.98699745902935,
8,stimuli/8.png,l,0,0,0,0,36,0,36,0,0,0,0,0,,,,,,,,,,,,,,,,,,205.45997891236038,205.45997891236038,205.45997891236038,205.45997891236038,l,1,0.3922841060702922,205.87666386645287,205.87666386645287,205.87666386645287,,,,,,,,,,,,,,,,,,,,,,,,,,,,111,001,2023-03-02_09h07.09.268,eb_01,2022.2.4,119.98699745902935,
,,,0,0,0,0,36,0,36,0,,,,,,,,,,,,,,,,,,,,,,,,,,,,,,,,,,,,,,,,,,,,,,,,,,,,,,,,,,,111,001,2023-03-02_09h07.09.268,eb_01,2022.2.4,119.98699745902935,
6,stimuli/6.png,s,0,0,0,0,37,0,37,0,0,0,0,0,,,,,,,,,,,,,,,,,,206.9018135793449,206.9018135793449,206.9018135793449,206.9018135793449,s,1,0.2945151518651983,207.2268297814444,207.2268297814444,207.2268297814444,,,,,,,,,,,,,,,,,,,,,,,,,,,,111,001,2023-03-02_09h07.09.268,eb_01,2022.2.4,119.98699745902935,
,,,0,0,0,0,37,0,37,0,,,,,,,,,,,,,,,,,,,,,,,,,,,,,,,,,,,,,,,,,,,,,,,,,,,,,,,,,,,111,001,2023-03-02_09h07.09.268,eb_01,2022.2.4,119.98699745902935,
9,stimuli/9.png,l,0,0,0,0,38,0,38,0,0,0,0,0,,,,,,,,,,,,,,,,,,208.23528385454847,208.23528385454847,208.23528385454847,208.23528385454847,l,1,0.41615063029166777,208.67695883986016,208.67695883986016,208.67695883986016,,,,,,,,,,,,,,,,,,,,,,,,,,,,111,001,2023-03-02_09h07.09.268,eb_01,2022.2.4,119.98699745902935,
,,,0,0,0,0,38,0,38,0,,,,,,,,,,,,,,,,,,,,,,,,,,,,,,,,,,,,,,,,,,,,,,,,,,,,,,,,,,,111,001,2023-03-02_09h07.09.268,eb_01,2022.2.4,119.98699745902935,
5,stimuli/5.png,s,0,0,0,0,39,0,39,0,0,0,0,0,,,,,,,,,,,,,,,,,,209.67706720605202,209.67706720605202,209.67706720605202,209.67706720605202,s,1,0.446375745232217,210.143796215998,210.143796215998,210.143796215998,,,,,,,,,,,,,,,,,,,,,,,,,,,,111,001,2023-03-02_09h07.09.268,eb_01,2022.2.4,119.98699745902935,
,,,0,0,0,0,39,0,39,0,,,,,,,,,,,,,,,,,,,,,,,,,,,,,,,,,,,,,,,,,,,,,,,,,,,,,,,,,,,111,001,2023-03-02_09h07.09.268,eb_01,2022.2.4,119.98699745902935,
9,stimuli/9.png,l,0,0,0,0,40,0,40,0,0,0,0,0,,,,,,,,,,,,,,,,,,211.1605745642446,211.1605745642446,211.1605745642446,211.1605745642446,l,1,0.32291796382924076,211.5105983051908,211.5105983051908,211.5105983051908,,,,,,,,,,,,,,,,,,,,,,,,,,,,111,001,2023-03-02_09h07.09.268,eb_01,2022.2.4,119.98699745902935,
,,,0,0,0,0,40,0,40,0,,,,,,,,,,,,,,,,,,,,,,,,,,,,,,,,,,,,,,,,,,,,,,,,,,,,,,,,,,,111,001,2023-03-02_09h07.09.268,eb_01,2022.2.4,119.98699745902935,
6,stimuli/6.png,s,0,0,0,0,41,0,41,0,0,0,0,0,,,,,,,,,,,,,,,,,,212.5273995944881,212.5273995944881,212.5273995944881,212.5273995944881,s,1,0.3401656977221137,212.89408909151098,212.89408909151098,212.89408909151098,,,,,,,,,,,,,,,,,,,,,,,,,,,,111,001,2023-03-02_09h07.09.268,eb_01,2022.2.4,119.98699745902935,
,,,0,0,0,0,41,0,41,0,,,,,,,,,,,,,,,,,,,,,,,,,,,,,,,,,,,,,,,,,,,,,,,,,,,,,,,,,,,111,001,2023-03-02_09h07.09.268,eb_01,2022.2.4,119.98699745902935,
8,stimuli/8.png,l,0,0,0,0,42,0,42,0,0,0,0,0,,,,,,,,,,,,,,,,,,213.89419323172478,213.89419323172478,213.89419323172478,213.89419323172478,l,1,0.32543513865675777,214.24423146175104,214.24423146175104,214.24423146175104,,,,,,,,,,,,,,,,,,,,,,,,,,,,111,001,2023-03-02_09h07.09.268,eb_01,2022.2.4,119.98699745902935,
,,,0,0,0,0,42,0,42,0,,,,,,,,,,,,,,,,,,,,,,,,,,,,,,,,,,,,,,,,,,,,,,,,,,,,,,,,,,,111,001,2023-03-02_09h07.09.268,eb_01,2022.2.4,119.98699745902935,
9,stimuli/9.png,l,0,0,0,0,43,0,43,0,0,0,0,0,,,,,,,,,,,,,,,,,,215.261023393512,215.261023393512,215.261023393512,215.261023393512,s,0,0.47863144359143917,215.76940487031243,215.76940487031243,215.76940487031243,,,,,,,,,,,,,,,,,,,,,,,,,,,,111,001,2023-03-02_09h07.09.268,eb_01,2022.2.4,119.98699745902935,
,,,0,0,0,0,43,0,43,0,,,,,,,,,,,,,,,,,,,,,,,,,,,,,,,,,,,,,,,,,,,,,,,,,,,,,,,,,,,111,001,2023-03-02_09h07.09.268,eb_01,2022.2.4,119.98699745902935,
5,stimuli/5.png,s,0,0,0,0,44,0,44,0,0,0,0,0,,,,,,,,,,,,,,,,,,216.76951021795685,216.76951021795685,216.76951021795685,216.76951021795685,s,1,0.5062436954322038,217.2945535267063,217.2945535267063,217.2945535267063,,,,,,,,,,,,,,,,,,,,,,,,,,,,111,001,2023-03-02_09h07.09.268,eb_01,2022.2.4,119.98699745902935,
,,,0,0,0,0,44,0,44,0,,,,,,,,,,,,,,,,,,,,,,,,,,,,,,,,,,,,,,,,,,,,,,,,,,,,,,,,,,,111,001,2023-03-02_09h07.09.268,eb_01,2022.2.4,119.98699745902935,
9,stimuli/9.png,l,0,0,0,0,45,0,45,0,0,0,0,0,,,,,,,,,,,,,,,,,,218.31134515661688,218.31134515661688,218.31134515661688,218.31134515661688,l,1,0.38843997349613346,218.75302768831898,218.75302768831898,218.75302768831898,,,,,,,,,,,,,,,,,,,,,,,,,,,,111,001,2023-03-02_09h07.09.268,eb_01,2022.2.4,119.98699745902935,
,,,0,0,0,0,45,0,45,0,,,,,,,,,,,,,,,,,,,,,,,,,,,,,,,,,,,,,,,,,,,,,,,,,,,,,,,,,,,111,001,2023-03-02_09h07.09.268,eb_01,2022.2.4,119.98699745902935,
5,stimuli/5.png,s,0,0,0,0,46,0,46,0,0,0,0,0,,,,,,,,,,,,,,,,,,219.75316473080602,219.75316473080602,219.75316473080602,219.75316473080602,l,0,0.4426819368090946,220.21985208465776,220.21985208465776,220.21985208465776,,,,,,,,,,,,,,,,,,,,,,,,,,,,111,001,2023-03-02_09h07.09.268,eb_01,2022.2.4,119.98699745902935,
,,,0,0,0,0,46,0,46,0,,,,,,,,,,,,,,,,,,,,,,,,,,,,,,,,,,,,,,,,,,,,,,,,,,,,,,,,,,,111,001,2023-03-02_09h07.09.268,eb_01,2022.2.4,119.98699745902935,
9,stimuli/9.png,l,0,0,0,0,47,0,47,0,0,0,0,0,,,,,,,,,,,,,,,,,,221.23663405518164,221.23663405518164,221.23663405518164,221.23663405518164,l,1,0.47128095498192124,221.73669216240523,221.73669216240523,221.73669216240523,,,,,,,,,,,,,,,,,,,,,,,,,,,,111,001,2023-03-02_09h07.09.268,eb_01,2022.2.4,119.98699745902935,
,,,0,0,0,0,47,0,47,0,,,,,,,,,,,,,,,,,,,,,,,,,,,,,,,,,,,,,,,,,,,,,,,,,,,,,,,,,,,111,001,2023-03-02_09h07.09.268,eb_01,2022.2.4,119.98699745902935,
6,stimuli/6.png,s,0,0,0,0,48,0,48,0,0,0,0,0,,,,,,,,,,,,,,,,,,222.75345994569943,222.75345994569943,222.75345994569943,222.75345994569943,s,1,0.43361388916673604,223.22018050367478,223.22018050367478,223.22018050367478,,,,,,,,,,,,,,,,,,,,,,,,,,,,111,001,2023-03-02_09h07.09.268,eb_01,2022.2.4,119.98699745902935,
,,,0,0,0,0,48,0,48,0,,,,,,,,,,,,,,,,,,,,,,,,,,,,,,,,,,,,,,,,,,,,,,,,,,,,,,,,,,,111,001,2023-03-02_09h07.09.268,eb_01,2022.2.4,119.98699745902935,
8,stimuli/8.png,l,0,0,0,0,49,0,49,0,0,0,0,0,,,,,,,,,,,,,,,,,,224.22028524761845,224.22028524761845,224.22028524761845,224.22028524761845,l,1,0.3747873412066838,224.6119904335792,224.6119904335792,224.6119904335792,,,,,,,,,,,,,,,,,,,,,,,,,,,,111,001,2023-03-02_09h07.09.268,eb_01,2022.2.4,119.98699745902935,
,,,0,0,0,0,49,0,49,0,,,,,,,,,,,,,,,,,,,,,,,,,,,,,,,,,,,,,,,,,,,,,,,,,,,,,,,,,,,111,001,2023-03-02_09h07.09.268,eb_01,2022.2.4,119.98699745902935,
3,stimuli/3.png,l,0,0,0,0,50,0,50,0,0,0,0,0,,,,,,,,,,,,,,,,,,225.6204321305995,225.6204321305995,225.6204321305995,225.6204321305995,l,1,0.5187136570166331,226.15382114626118,226.15382114626118,226.15382114626118,227.16229393442336,227.16229393442336,227.16229393442336,,,,,,,,,,,,,,,,,,,,,,,,,111,001,2023-03-02_09h07.09.268,eb_01,2022.2.4,119.98699745902935,
,,,0,0,0,0,50,0,50,0,,,,,,,,,,,,,,,,,,,,,,,,,,,,,,,,,,,,,,,,,,,,,,,,,,,,,,,,,,,111,001,2023-03-02_09h07.09.268,eb_01,2022.2.4,119.98699745902935,
8,stimuli/8.png,l,0,0,0,0,51,0,51,0,0,0,0,0,,,,,,,,,,,,,,,,,,227.16229393442336,227.16229393442336,227.16229393442336,227.16229393442336,l,1,0.39286940429883543,227.57897073841013,227.57897073841013,227.57897073841013,,,,,,,,,,,,,,,,,,,,,,,,,,,,111,001,2023-03-02_09h07.09.268,eb_01,2022.2.4,119.98699745902935,
,,,0,0,0,0,51,0,51,0,,,,,,,,,,,,,,,,,,,,,,,,,,,,,,,,,,,,,,,,,,,,,,,,,,,,,,,,,,,111,001,2023-03-02_09h07.09.268,eb_01,2022.2.4,119.98699745902935,
9,stimuli/9.png,l,0,0,0,0,52,0,52,0,0,0,0,0,,,,,,,,,,,,,,,,,,228.59572674933588,228.59572674933588,228.59572674933588,228.59572674933588,l,1,0.34349244959594216,228.97080391120107,228.97080391120107,228.97080391120107,,,,,,,,,,,,,,,,,,,,,,,,,,,,111,001,2023-03-02_09h07.09.268,eb_01,2022.2.4,119.98699745902935,
,,,0,0,0,0,52,0,52,0,,,,,,,,,,,,,,,,,,,,,,,,,,,,,,,,,,,,,,,,,,,,,,,,,,,,,,,,,,,111,001,2023-03-02_09h07.09.268,eb_01,2022.2.4,119.98699745902935,
5,stimuli/5.png,s,0,0,0,0,53,0,53,0,0,0,0,0,,,,,,,,,,,,,,,,,,229.9709460852464,229.9709460852464,229.9709460852464,229.9709460852464,l,0,0.39232093245664146,230.38758244056953,230.38758244056953,230.38758244056953,,,,,,,,,,,,,,,,,,,,,,,,,,,,111,001,2023-03-02_09h07.09.268,eb_01,2022.2.4,119.98699745902935,
,,,0,0,0,0,53,0,53,0,,,,,,,,,,,,,,,,,,,,,,,,,,,,,,,,,,,,,,,,,,,,,,,,,,,,,,,,,,,111,001,2023-03-02_09h07.09.268,eb_01,2022.2.4,119.98699745902935,
6,stimuli/6.png,s,0,0,0,0,54,0,54,0,0,0,0,0,,,,,,,,,,,,,,,,,,231.4127167588158,231.4127167588158,231.4127167588158,231.4127167588158,s,1,0.5106127550970996,231.95445872590062,231.95445872590062,231.95445872590062,,,,,,,,,,,,,,,,,,,,,,,,,,,,111,001,2023-03-02_09h07.09.268,eb_01,2022.2.4,119.98699745902935,
,,,0,0,0,0,54,0,54,0,,,,,,,,,,,,,,,,,,,,,,,,,,,,,,,,,,,,,,,,,,,,,,,,,,,,,,,,,,,111,001,2023-03-02_09h07.09.268,eb_01,2022.2.4,119.98699745902935,
5,stimuli/5.png,s,0,0,0,0,55,0,55,0,0,0,0,0,,,,,,,,,,,,,,,,,,232.95454596220225,232.95454596220225,232.95454596220225,232.95454596220225,l,0,0.3608642461913405,233.33789487632748,233.33789487632748,233.33789487632748,,,,,,,,,,,,,,,,,,,,,,,,,,,,111,001,2023-03-02_09h07.09.268,eb_01,2022.2.4,119.98699745902935,
,,,0,0,0,0,55,0,55,0,,,,,,,,,,,,,,,,,,,,,,,,,,,,,,,,,,,,,,,,,,,,,,,,,,,,,,,,,,,111,001,2023-03-02_09h07.09.268,eb_01,2022.2.4,119.98699745902935,
9,stimuli/9.png,l,0,0,0,0,56,0,56,0,0,0,0,0,,,,,,,,,,,,,,,,,,234.3547046175663,234.3547046175663,234.3547046175663,234.3547046175663,l,1,0.3847346945403842,234.77141281455988,234.77141281455988,234.77141281455988,,,,,,,,,,,,,,,,,,,,,,,,,,,,111,001,2023-03-02_09h07.09.268,eb_01,2022.2.4,119.98699745902935,
,,,0,0,0,0,56,0,56,0,,,,,,,,,,,,,,,,,,,,,,,,,,,,,,,,,,,,,,,,,,,,,,,,,,,,,,,,,,,111,001,2023-03-02_09h07.09.268,eb_01,2022.2.4,119.98699745902935,
5,stimuli/5.png,s,0,0,0,0,57,0,57,0,0,0,0,0,,,,,,,,,,,,,,,,,,235.77150638983585,235.77150638983585,235.77150638983585,235.77150638983585,s,1,0.3759971789258998,236.17155879197526,236.17155879197526,236.17155879197526,,,,,,,,,,,,,,,,,,,,,,,,,,,,111,001,2023-03-02_09h07.09.268,eb_01,2022.2.4,119.98699745902935,
,,,0,0,0,0,57,0,57,0,,,,,,,,,,,,,,,,,,,,,,,,,,,,,,,,,,,,,,,,,,,,,,,,,,,,,,,,,,,111,001,2023-03-02_09h07.09.268,eb_01,2022.2.4,119.98699745902935,
6,stimuli/6.png,s,0,0,0,0,58,0,58,0,0,0,0,0,,,,,,,,,,,,,,,,,,237.19664964301046,237.19664964301046,237.19664964301046,237.19664964301046,s,1,0.5349365907459287,237.76341001574474,237.76341001574474,237.76341001574474,,,,,,,,,,,,,,,,,,,,,,,,,,,,111,001,2023-03-02_09h07.09.268,eb_01,2022.2.4,119.98699745902935,
,,,0,0,0,0,58,0,58,0,,,,,,,,,,,,,,,,,,,,,,,,,,,,,,,,,,,,,,,,,,,,,,,,,,,,,,,,,,,111,001,2023-03-02_09h07.09.268,eb_01,2022.2.4,119.98699745902935,
9,stimuli/9.png,l,0,0,0,0,59,0,59,0,0,0,0,0,,,,,,,,,,,,,,,,,,238.77184114782722,238.77184114782722,238.77184114782722,238.77184114782722,l,1,0.32688434796000365,239.13020636969304,239.13020636969304,239.13020636969304,,,,,,,,,,,,,,,,,,,,,,,,,,,,111,001,2023-03-02_09h07.09.268,eb_01,2022.2.4,119.98699745902935,
,,,0,0,0,0,59,0,59,0,,,,,,,,,,,,,,,,,,,,,,,,,,,,,,,,,,,,,,,,,,,,,,,,,,,,,,,,,,,111,001,2023-03-02_09h07.09.268,eb_01,2022.2.4,119.98699745902935,
8,stimuli/8.png,l,0,0,0,0,60,0,60,0,0,0,0,0,,,,,,,,,,,,,,,,,,240.13028153177584,240.13028153177584,240.13028153177584,240.13028153177584,s,0,0.3524246621527709,240.50531884867814,240.50531884867814,240.50531884867814,,,,,,,,,,,,,,,,,,,,,,,,,,,,111,001,2023-03-02_09h07.09.268,eb_01,2022.2.4,119.98699745902935,
,,,0,0,0,0,60,0,60,0,,,,,,,,,,,,,,,,,,,,,,,,,,,,,,,,,,,,,,,,,,,,,,,,,,,,,,,,,,,111,001,2023-03-02_09h07.09.268,eb_01,2022.2.4,119.98699745902935,
3,stimuli/3.png,l,0,0,0,0,61,0,61,0,0,0,0,0,,,,,,,,,,,,,,,,,,241.51377563849383,241.51377563849383,241.51377563849383,241.51377563849383,l,1,0.5209845175850205,242.0554967775388,242.0554967775388,242.0554967775388,,,,,,,,,,,,,,,,,,,,,,,,,,,,111,001,2023-03-02_09h07.09.268,eb_01,2022.2.4,119.98699745902935,
,,,0,0,0,0,61,0,61,0,,,,,,,,,,,,,,,,,,,,,,,,,,,,,,,,,,,,,,,,,,,,,,,,,,,,,,,,,,,111,001,2023-03-02_09h07.09.268,eb_01,2022.2.4,119.98699745902935,
8,stimuli/8.png,l,0,0,0,0,62,0,62,0,0,0,0,0,,,,,,,,,,,,,,,,,,243.06392489104473,243.06392489104473,243.06392489104473,243.06392489104473,l,1,0.4828993816045113,243.5639790741552,243.5639790741552,243.5639790741552,,,,,,,,,,,,,,,,,,,,,,,,,,,,111,001,2023-03-02_09h07.09.268,eb_01,2022.2.4,119.98699745902935,
,,,0,0,0,0,62,0,62,0,,,,,,,,,,,,,,,,,,,,,,,,,,,,,,,,,,,,,,,,,,,,,,,,,,,,,,,,,,,111,001,2023-03-02_09h07.09.268,eb_01,2022.2.4,119.98699745902935,
6,stimuli/6.png,s,0,0,0,0,63,0,63,0,0,0,0,0,,,,,,,,,,,,,,,,,,244.58910011075204,244.58910011075204,244.58910011075204,244.58910011075204,s,1,0.5737908550945576,245.18916331932996,245.18916331932996,245.18916331932996,,,,,,,,,,,,,,,,,,,,,,,,,,,,111,001,2023-03-02_09h07.09.268,eb_01,2022.2.4,119.98699745902935,
,,,0,0,0,0,63,0,63,0,,,,,,,,,,,,,,,,,,,,,,,,,,,,,,,,,,,,,,,,,,,,,,,,,,,,,,,,,,,111,001,2023-03-02_09h07.09.268,eb_01,2022.2.4,119.98699745902935,
8,stimuli/8.png,l,0,0,0,0,64,0,64,0,0,0,0,0,,,,,,,,,,,,,,,,,,246.18928828759817,246.18928828759817,246.18928828759817,246.18928828759817,l,1,0.3656604316929588,246.57264142770146,246.57264142770146,246.57264142770146,,,,,,,,,,,,,,,,,,,,,,,,,,,,111,001,2023-03-02_09h07.09.268,eb_01,2022.2.4,119.98699745902935,
,,,0,0,0,0,64,0,64,0,,,,,,,,,,,,,,,,,,,,,,,,,,,,,,,,,,,,,,,,,,,,,,,,,,,,,,,,,,,111,001,2023-03-02_09h07.09.268,eb_01,2022.2.4,119.98699745902935,
9,stimuli/9.png,l,0,0,0,0,65,0,65,0,0,0,0,0,,,,,,,,,,,,,,,,,,247.58941826666705,247.58941826666705,247.58941826666705,247.58941826666705,l,1,0.4055853782920167,248.02277954178862,248.02277954178862,248.02277954178862,,,,,,,,,,,,,,,,,,,,,,,,,,,,111,001,2023-03-02_09h07.09.268,eb_01,2022.2.4,119.98699745902935,
,,,0,0,0,0,65,0,65,0,,,,,,,,,,,,,,,,,,,,,,,,,,,,,,,,,,,,,,,,,,,,,,,,,,,,,,,,,,,111,001,2023-03-02_09h07.09.268,eb_01,2022.2.4,119.98699745902935,
6,stimuli/6.png,s,0,0,0,0,66,0,66,0,0,0,0,0,,,,,,,,,,,,,,,,,,249.03956181416288,249.03956181416288,249.03956181416288,249.03956181416288,s,1,0.419505756610306,249.48960876782076,249.48960876782076,249.48960876782076,,,,,,,,,,,,,,,,,,,,,,,,,,,,111,001,2023-03-02_09h07.09.268,eb_01,2022.2.4,119.98699745902935,
,,,0,0,0,0,66,0,66,0,,,,,,,,,,,,,,,,,,,,,,,,,,,,,,,,,,,,,,,,,,,,,,,,,,,,,,,,,,,111,001,2023-03-02_09h07.09.268,eb_01,2022.2.4,119.98699745902935,
5,stimuli/5.png,s,0,0,0,0,67,0,67,0,0,0,0,0,,,,,,,,,,,,,,,,,,250.48972709526424,250.48972709526424,250.48972709526424,250.48972709526424,s,1,0.3293665075470926,250.8397909830237,250.8397909830237,250.8397909830237,,,,,,,,,,,,,,,,,,,,,,,,,,,,111,001,2023-03-02_09h07.09.268,eb_01,2022.2.4,119.98699745902935,
,,,0,0,0,0,67,0,67,0,,,,,,,,,,,,,,,,,,,,,,,,,,,,,,,,,,,,,,,,,,,,,,,,,,,,,,,,,,,111,001,2023-03-02_09h07.09.268,eb_01,2022.2.4,119.98699745902935,
9,stimuli/9.png,l,0,0,0,0,68,0,68,0,0,0,0,0,,,,,,,,,,,,,,,,,,251.8565539366391,251.8565539366391,251.8565539366391,251.8565539366391,l,1,0.3546091919997707,252.23991130270588,252.23991130270588,252.23991130270588,,,,,,,,,,,,,,,,,,,,,,,,,,,,111,001,2023-03-02_09h07.09.268,eb_01,2022.2.4,119.98699745902935,
,,,0,0,0,0,68,0,68,0,,,,,,,,,,,,,,,,,,,,,,,,,,,,,,,,,,,,,,,,,,,,,,,,,,,,,,,,,,,111,001,2023-03-02_09h07.09.268,eb_01,2022.2.4,119.98699745902935,
8,stimuli/8.png,l,0,0,0,0,69,0,69,0,0,0,0,0,,,,,,,,,,,,,,,,,,253.24004049695213,253.24004049695213,253.24004049695213,253.24004049695213,l,1,0.3151817036268767,253.57339244472678,253.57339244472678,253.57339244472678,,,,,,,,,,,,,,,,,,,,,,,,,,,,111,001,2023-03-02_09h07.09.268,eb_01,2022.2.4,119.98699745902935,
,,,0,0,0,0,69,0,69,0,,,,,,,,,,,,,,,,,,,,,,,,,,,,,,,,,,,,,,,,,,,,,,,,,,,,,,,,,,,111,001,2023-03-02_09h07.09.268,eb_01,2022.2.4,119.98699745902935,
9,stimuli/9.png,l,0,0,0,0,70,0,70,0,0,0,0,0,,,,,,,,,,,,,,,,,,254.59014362595917,254.59014362595917,254.59014362595917,254.59014362595917,l,1,0.5491618433297845,255.16520382354793,255.16520382354793,255.16520382354793,,,,,,,,,,,,,,,,,,,,,,,,,,,,111,001,2023-03-02_09h07.09.268,eb_01,2022.2.4,119.98699745902935,
,,,0,0,0,0,70,0,70,0,,,,,,,,,,,,,,,,,,,,,,,,,,,,,,,,,,,,,,,,,,,,,,,,,,,,,,,,,,,111,001,2023-03-02_09h07.09.268,eb_01,2022.2.4,119.98699745902935,
8,stimuli/8.png,l,0,0,0,0,71,0,71,0,0,0,0,0,,,,,,,,,,,,,,,,,,256.1653124916047,256.1653124916047,256.1653124916047,256.1653124916047,l,1,0.3570786736381706,256.54036369387177,256.54036369387177,256.54036369387177,,,,,,,,,,,,,,,,,,,,,,,,,,,,111,001,2023-03-02_09h07.09.268,eb_01,2022.2.4,119.98699745902935,
,,,0,0,0,0,71,0,71,0,,,,,,,,,,,,,,,,,,,,,,,,,,,,,,,,,,,,,,,,,,,,,,,,,,,,,,,,,,,111,001,2023-03-02_09h07.09.268,eb_01,2022.2.4,119.98699745902935,
9,stimuli/9.png,l,0,0,0,0,72,0,72,0,0,0,0,0,,,,,,,,,,,,,,,,,,257.5571248363558,257.5571248363558,257.5571248363558,257.5571248363558,l,1,0.3332876133208629,257.9155495238083,257.9155495238083,257.9155495238083,,,,,,,,,,,,,,,,,,,,,,,,,,,,111,001,2023-03-02_09h07.09.268,eb_01,2022.2.4,119.98699745902935,
,,,0,0,0,0,72,0,72,0,,,,,,,,,,,,,,,,,,,,,,,,,,,,,,,,,,,,,,,,,,,,,,,,,,,,,,,,,,,111,001,2023-03-02_09h07.09.268,eb_01,2022.2.4,119.98699745902935,
6,stimuli/6.png,s,0,0,0,0,73,0,73,0,0,0,0,0,,,,,,,,,,,,,,,,,,258.9322750473075,258.9322750473075,258.9322750473075,258.9322750473075,s,1,0.3341756728477776,259.2989923150453,259.2989923150453,259.2989923150453,,,,,,,,,,,,,,,,,,,,,,,,,,,,111,001,2023-03-02_09h07.09.268,eb_01,2022.2.4,119.98699745902935,
,,,0,0,0,0,73,0,73,0,,,,,,,,,,,,,,,,,,,,,,,,,,,,,,,,,,,,,,,,,,,,,,,,,,,,,,,,,,,111,001,2023-03-02_09h07.09.268,eb_01,2022.2.4,119.98699745902935,
9,stimuli/9.png,l,0,0,0,0,74,0,74,0,0,0,0,0,,,,,,,,,,,,,,,,,,260.30743461578095,260.30743461578095,260.30743461578095,260.30743461578095,l,1,0.35104578523896635,260.6907871521689,260.6907871521689,260.6907871521689,,,,,,,,,,,,,,,,,,,,,,,,,,,,111,001,2023-03-02_09h07.09.268,eb_01,2022.2.4,119.98699745902935,
,,,0,0,0,0,74,0,74,0,,,,,,,,,,,,,,,,,,,,,,,,,,,,,,,,,,,,,,,,,,,,,,,,,,,,,,,,,,,111,001,2023-03-02_09h07.09.268,eb_01,2022.2.4,119.98699745902935,
6,stimuli/6.png,s,0,0,0,0,75,0,75,0,0,0,0,0,,,,,,,,,,,,,,,,,,261.70757425423653,261.70757425423653,261.70757425423653,261.70757425423653,s,1,0.36697471150546335,262.1076613697951,262.1076613697951,262.1076613697951,,,,,,,,,,,,,,,,,,,,,,,,,,,,111,001,2023-03-02_09h07.09.268,eb_01,2022.2.4,119.98699745902935,
,,,0,0,0,0,75,0,75,0,,,,,,,,,,,,,,,,,,,,,,,,,,,,,,,,,,,,,,,,,,,,,,,,,,,,,,,,,,,111,001,2023-03-02_09h07.09.268,eb_01,2022.2.4,119.98699745902935,
8,stimuli/8.png,l,0,0,0,0,76,0,76,0,0,0,0,0,,,,,,,,,,,,,,,,,,263.10773924857494,263.10773924857494,263.10773924857494,263.10773924857494,l,1,0.23089754993270617,263.3577491343458,263.3577491343458,263.3577491343458,,,,,,,,,,,,,,,,,,,,,,,,,,,,111,001,2023-03-02_09h07.09.268,eb_01,2022.2.4,119.98699745902935,
,,,0,0,0,0,76,0,76,0,,,,,,,,,,,,,,,,,,,,,,,,,,,,,,,,,,,,,,,,,,,,,,,,,,,,,,,,,,,111,001,2023-03-02_09h07.09.268,eb_01,2022.2.4,119.98699745902935,
9,stimuli/9.png,l,0,0,0,0,77,0,77,0,0,0,0,0,,,,,,,,,,,,,,,,,,264.3745477069315,264.3745477069315,264.3745477069315,264.3745477069315,l,1,0.37214127398328856,264.7745786773303,264.7745786773303,264.7745786773303,,,,,,,,,,,,,,,,,,,,,,,,,,,,111,001,2023-03-02_09h07.09.268,eb_01,2022.2.4,119.98699745902935,
,,,0,0,0,0,77,0,77,0,,,,,,,,,,,,,,,,,,,,,,,,,,,,,,,,,,,,,,,,,,,,,,,,,,,,,,,,,,,111,001,2023-03-02_09h07.09.268,eb_01,2022.2.4,119.98699745902935,
5,stimuli/5.png,s,0,0,0,0,78,0,78,0,0,0,0,0,,,,,,,,,,,,,,,,,,265.77470696601085,265.77470696601085,265.77470696601085,265.77470696601085,s,1,0.564035180141218,266.3580733273848,266.3580733273848,266.3580733273848,,,,,,,,,,,,,,,,,,,,,,,,,,,,111,001,2023-03-02_09h07.09.268,eb_01,2022.2.4,119.98699745902935,
,,,0,0,0,0,78,0,78,0,,,,,,,,,,,,,,,,,,,,,,,,,,,,,,,,,,,,,,,,,,,,,,,,,,,,,,,,,,,111,001,2023-03-02_09h07.09.268,eb_01,2022.2.4,119.98699745902935,
9,stimuli/9.png,l,0,0,0,0,79,0,79,0,0,0,0,0,,,,,,,,,,,,,,,,,,267.3748610331677,267.3748610331677,267.3748610331677,267.3748610331677,l,1,0.4119424597301986,267.816579485705,267.816579485705,267.816579485705,,,,,,,,,,,,,,,,,,,,,,,,,,,,111,001,2023-03-02_09h07.09.268,eb_01,2022.2.4,119.98699745902935,
,,,0,0,0,0,79,0,79,0,,,,,,,,,,,,,,,,,,,,,,,,,,,,,,,,,,,,,,,,,,,,,,,,,,,,,,,,,,,111,001,2023-03-02_09h07.09.268,eb_01,2022.2.4,119.98699745902935,
6,stimuli/6.png,s,0,0,0,0,80,0,80,0,0,0,0,0,,,,,,,,,,,,,,,,,,268.8333194982697,268.8333194982697,268.8333194982697,268.8333194982697,s,1,0.4095704774954356,269.2750482138945,269.2750482138945,269.2750482138945,,,,,,,,,,,,,,,,,,,,,,,,,,,,111,001,2023-03-02_09h07.09.268,eb_01,2022.2.4,119.98699745902935,
,,,0,0,0,0,80,0,80,0,,,,,,,,,,,,,,,,,,,,,,,,,,,,,,,,,,,,,,,,,,,,,,,,,,,,,,,,,,,111,001,2023-03-02_09h07.09.268,eb_01,2022.2.4,119.98699745902935,
8,stimuli/8.png,l,0,0,0,0,81,0,81,0,0,0,0,0,,,,,,,,,,,,,,,,,,270.27515959866287,270.27515959866287,270.27515959866287,270.27515959866287,l,1,0.27975893508119043,270.5752032771852,270.5752032771852,270.5752032771852,,,,,,,,,,,,,,,,,,,,,,,,,,,,111,001,2023-03-02_09h07.09.268,eb_01,2022.2.4,119.98699745902935,
,,,0,0,0,0,81,0,81,0,,,,,,,,,,,,,,,,,,,,,,,,,,,,,,,,,,,,,,,,,,,,,,,,,,,,,,,,,,,111,001,2023-03-02_09h07.09.268,eb_01,2022.2.4,119.98699745902935,
6,stimuli/6.png,s,0,0,0,0,82,0,82,0,0,0,0,0,,,,,,,,,,,,,,,,,,271.60031465439533,271.60031465439533,271.60031465439533,271.60031465439533,s,1,0.36966484965523705,272.00033868211904,272.00033868211904,272.00033868211904,,,,,,,,,,,,,,,,,,,,,,,,,,,,111,001,2023-03-02_09h07.09.268,eb_01,2022.2.4,119.98699745902935,
,,,0,0,0,0,82,0,82,0,,,,,,,,,,,,,,,,,,,,,,,,,,,,,,,,,,,,,,,,,,,,,,,,,,,,,,,,,,,111,001,2023-03-02_09h07.09.268,eb_01,2022.2.4,119.98699745902935,
8,stimuli/8.png,l,0,0,0,0,83,0,83,0,0,0,0,0,,,,,,,,,,,,,,,,,,273.00046153739095,273.00046153739095,273.00046153739095,273.00046153739095,l,1,0.2975657057540957,273.3171552754793,273.3171552754793,273.3171552754793,,,,,,,,,,,,,,,,,,,,,,,,,,,,111,001,2023-03-02_09h07.09.268,eb_01,2022.2.4,119.98699745902935,
,,,0,0,0,0,83,0,83,0,,,,,,,,,,,,,,,,,,,,,,,,,,,,,,,,,,,,,,,,,,,,,,,,,,,,,,,,,,,111,001,2023-03-02_09h07.09.268,eb_01,2022.2.4,119.98699745902935,
6,stimuli/6.png,s,0,0,0,0,84,0,84,0,0,0,0,0,,,,,,,,,,,,,,,,,,274.34226846383535,274.34226846383535,274.34226846383535,274.34226846383535,s,1,0.4358183414879022,274.8089890218107,274.8089890218107,274.8089890218107,,,,,,,,,,,,,,,,,,,,,,,,,,,,111,001,2023-03-02_09h07.09.268,eb_01,2022.2.4,119.98699745902935,
,,,0,0,0,0,84,0,84,0,,,,,,,,,,,,,,,,,,,,,,,,,,,,,,,,,,,,,,,,,,,,,,,,,,,,,,,,,,,111,001,2023-03-02_09h07.09.268,eb_01,2022.2.4,119.98699745902935,
8,stimuli/8.png,l,0,0,0,0,85,0,85,0,0,0,0,0,,,,,,,,,,,,,,,,,,275.8091034251265,275.8091034251265,275.8091034251265,275.8091034251265,l,1,0.25705546092649456,276.0841018328356,276.0841018328356,276.0841018328356,,,,,,,,,,,,,,,,,,,,,,,,,,,,111,001,2023-03-02_09h07.09.268,eb_01,2022.2.4,119.98699745902935,
,,,0,0,0,0,85,0,85,0,,,,,,,,,,,,,,,,,,,,,,,,,,,,,,,,,,,,,,,,,,,,,,,,,,,,,,,,,,,111,001,2023-03-02_09h07.09.268,eb_01,2022.2.4,119.98699745902935,
6,stimuli/6.png,s,0,0,0,0,86,0,86,0,0,0,0,0,,,,,,,,,,,,,,,,,,277.10921803973906,277.10921803973906,277.10921803973906,277.10921803973906,s,1,0.3489995053241728,277.4842933904729,277.4842933904729,277.4842933904729,,,,,,,,,,,,,,,,,,,,,,,,,,,,111,001,2023-03-02_09h07.09.268,eb_01,2022.2.4,119.98699745902935,
,,,0,0,0,0,86,0,86,0,,,,,,,,,,,,,,,,,,,,,,,,,,,,,,,,,,,,,,,,,,,,,,,,,,,,,,,,,,,111,001,2023-03-02_09h07.09.268,eb_01,2022.2.4,119.98699745902935,
5,stimuli/5.png,s,0,0,0,0,87,0,87,0,0,0,0,0,,,,,,,,,,,,,,,,,,278.48435255419463,278.48435255419463,278.48435255419463,278.48435255419463,s,1,0.38990397372981533,278.892720779535,278.892720779535,278.892720779535,,,,,,,,,,,,,,,,,,,,,,,,,,,,111,001,2023-03-02_09h07.09.268,eb_01,2022.2.4,119.98699745902935,
,,,0,0,0,0,87,0,87,0,,,,,,,,,,,,,,,,,,,,,,,,,,,,,,,,,,,,,,,,,,,,,,,,,,,,,,,,,,,111,001,2023-03-02_09h07.09.268,eb_01,2022.2.4,119.98699745902935,
9,stimuli/9.png,l,0,0,0,0,88,0,88,0,0,0,0,0,,,,,,,,,,,,,,,,,,279.909511202015,279.909511202015,279.909511202015,279.909511202015,l,1,0.3807894403144019,280.3178742957971,280.3178742957971,280.3178742957971,,,,,,,,,,,,,,,,,,,,,,,,,,,,111,001,2023-03-02_09h07.09.268,eb_01,2022.2.4,119.98699745902935,
,,,0,0,0,0,88,0,88,0,,,,,,,,,,,,,,,,,,,,,,,,,,,,,,,,,,,,,,,,,,,,,,,,,,,,,,,,,,,111,001,2023-03-02_09h07.09.268,eb_01,2022.2.4,119.98699745902935,
8,stimuli/8.png,l,0,0,0,0,89,0,89,0,0,0,0,0,,,,,,,,,,,,,,,,,,281.3179974529339,281.3179974529339,281.3179974529339,281.3179974529339,s,0,0.3563892351667164,281.69301696035836,281.69301696035836,281.69301696035836,,,,,,,,,,,,,,,,,,,,,,,,,,,,111,001,2023-03-02_09h07.09.268,eb_01,2022.2.4,119.98699745902935,
,,,0,0,0,0,89,0,89,0,,,,,,,,,,,,,,,,,,,,,,,,,,,,,,,,,,,,,,,,,,,,,,,,,,,,,,,,,,,111,001,2023-03-02_09h07.09.268,eb_01,2022.2.4,119.98699745902935,
3,stimuli/3.png,l,0,0,0,0,90,0,90,0,0,0,0,0,,,,,,,,,,,,,,,,,,282.7014698260464,282.7014698260464,282.7014698260464,282.7014698260464,l,1,0.468979003286222,283.19319309317507,283.19319309317507,283.19319309317507,,,,,,,,,,,,,,,,,,,,,,,,,,,,111,001,2023-03-02_09h07.09.268,eb_01,2022.2.4,119.98699745902935,
,,,0,0,0,0,90,0,90,0,,,,,,,,,,,,,,,,,,,,,,,,,,,,,,,,,,,,,,,,,,,,,,,,,,,,,,,,,,,111,001,2023-03-02_09h07.09.268,eb_01,2022.2.4,119.98699745902935,
4,stimuli/4.png,l,0,0,0,0,91,0,91,0,0,0,0,0,,,,,,,,,,,,,,,,,,284.2099663098779,284.2099663098779,284.2099663098779,284.2099663098779,s,0,0.5365554429590702,284.7683861072728,284.7683861072728,284.7683861072728,,,,,,,,,,,,,,,,,,,,,,,,,,,,111,001,2023-03-02_09h07.09.268,eb_01,2022.2.4,119.98699745902935,
,,,0,0,0,0,91,0,91,0,,,,,,,,,,,,,,,,,,,,,,,,,,,,,,,,,,,,,,,,,,,,,,,,,,,,,,,,,,,111,001,2023-03-02_09h07.09.268,eb_01,2022.2.4,119.98699745902935,
1,stimuli/1.png,s,0,0,0,0,92,0,92,0,0,0,0,0,,,,,,,,,,,,,,,,,,285.79346790262207,285.79346790262207,285.79346790262207,285.79346790262207,l,0,0.7201685412146617,286.5435503846966,286.5435503846966,286.5435503846966,,,,,,,,,,,,,,,,,,,,,,,,,,,,111,001,2023-03-02_09h07.09.268,eb_01,2022.2.4,119.98699745902935,
,,,0,0,0,0,92,0,92,0,,,,,,,,,,,,,,,,,,,,,,,,,,,,,,,,,,,,,,,,,,,,,,,,,,,,,,,,,,,111,001,2023-03-02_09h07.09.268,eb_01,2022.2.4,119.98699745902935,
2,stimuli/2.png,s,0,0,0,0,93,0,93,0,0,0,0,0,,,,,,,,,,,,,,,,,,287.54365965646866,287.54365965646866,287.54365965646866,287.54365965646866,s,1,0.9460076321993256,288.5104437550617,288.5104437550617,288.5104437550617,,,,,,,,,,,,,,,,,,,,,,,,,,,,111,001,2023-03-02_09h07.09.268,eb_01,2022.2.4,119.98699745902935,
,,,0,0,0,0,93,0,93,0,,,,,,,,,,,,,,,,,,,,,,,,,,,,,,,,,,,,,,,,,,,,,,,,,,,,,,,,,,,111,001,2023-03-02_09h07.09.268,eb_01,2022.2.4,119.98699745902935,
3,stimuli/3.png,l,0,0,0,0,94,0,94,0,0,0,0,0,,,,,,,,,,,,,,,,,,289.5188673407538,289.5188673407538,289.5188673407538,289.5188673407538,l,1,0.5068652163608931,290.03558727991185,290.03558727991185,290.03558727991185,291.04402988249785,291.04402988249785,291.04402988249785,,,,,,,,,,,,,,,,,,,,,,,,,111,001,2023-03-02_09h07.09.268,eb_01,2022.2.4,119.98699745902935,
,,,0,0,0,0,94,0,94,0,,,,,,,,,,,,,,,,,,,,,,,,,,,,,,,,,,,,,,,,,,,,,,,,,,,,,,,,,,,111,001,2023-03-02_09h07.09.268,eb_01,2022.2.4,119.98699745902935,
8,stimuli/8.png,l,0,0,0,0,95,0,95,0,0,0,0,0,,,,,,,,,,,,,,,,,,291.04402988249785,291.04402988249785,291.04402988249785,291.04402988249785,l,1,0.5257447822659742,291.594087974634,291.594087974634,291.594087974634,,,,,,,,,,,,,,,,,,,,,,,,,,,,111,001,2023-03-02_09h07.09.268,eb_01,2022.2.4,119.98699745902935,
,,,0,0,0,0,95,0,95,0,,,,,,,,,,,,,,,,,,,,,,,,,,,,,,,,,,,,,,,,,,,,,,,,,,,,,,,,,,,111,001,2023-03-02_09h07.09.268,eb_01,2022.2.4,119.98699745902935,
3,stimuli/3.png,l,0,0,0,0,96,0,96,0,0,0,0,0,,,,,,,,,,,,,,,,,,292.60252816237335,292.60252816237335,292.60252816237335,292.60252816237335,l,1,0.41527434314775746,293.02757753843616,293.02757753843616,293.02757753843616,294.04434773657704,294.04434773657704,294.04434773657704,,,,,,,,,,,,,,,,,,,,,,,,,111,001,2023-03-02_09h07.09.268,eb_01,2022.2.4,119.98699745902935,
,,,0,0,0,0,96,0,96,0,,,,,,,,,,,,,,,,,,,,,,,,,,,,,,,,,,,,,,,,,,,,,,,,,,,,,,,,,,,111,001,2023-03-02_09h07.09.268,eb_01,2022.2.4,119.98699745902935,
4,stimuli/4.png,l,0,0,0,0,97,0,97,0,0,0,0,0,,,,,,,,,,,,,,,,,,294.04434773657704,294.04434773657704,294.04434773657704,294.04434773657704,s,0,0.7815563349577133,294.84444499449455,294.84444499449455,294.84444499449455,,,,,,,,,,,,,,,,,,,,,,,,,,,,111,001,2023-03-02_09h07.09.268,eb_01,2022.2.4,119.98699745902935,
,,,0,0,0,0,97,0,97,0,,,,,,,,,,,,,,,,,,,,,,,,,,,,,,,,,,,,,,,,,,,,,,,,,,,,,,,,,,,111,001,2023-03-02_09h07.09.268,eb_01,2022.2.4,119.98699745902935,
2,stimuli/2.png,s,0,0,0,0,98,0,98,0,0,0,0,0,,,,,,,,,,,,,,,,,,295.8528927286243,295.8528927286243,295.8528927286243,295.8528927286243,s,1,0.7810809121874627,296.6529425951885,296.6529425951885,296.6529425951885,,,,,,,,,,,,,,,,,,,,,,,,,,,,111,001,2023-03-02_09h07.09.268,eb_01,2022.2.4,119.98699745902935,
,,,0,0,0,0,98,0,98,0,,,,,,,,,,,,,,,,,,,,,,,,,,,,,,,,,,,,,,,,,,,,,,,,,,,,,,,,,,,111,001,2023-03-02_09h07.09.268,eb_01,2022.2.4,119.98699745902935,
3,stimuli/3.png,l,0,0,0,0,99,0,99,0,0,0,0,0,,,,,,,,,,,,,,,,,,297.66139968685457,297.66139968685457,297.66139968685457,297.66139968685457,l,1,0.5166999775101431,298.19481858621293,298.19481858621293,298.19481858621293,,,,,,,,,,,,,,,,,,,,,,,,,,,,111,001,2023-03-02_09h07.09.268,eb_01,2022.2.4,119.98699745902935,
,,,0,0,0,0,99,0,99,0,,,,,,,,,,,,,,,,,,,,,,,,,,,,,,,,,,,,,,,,,,,,,,,,,,,,,,,,,,,111,001,2023-03-02_09h07.09.268,eb_01,2022.2.4,119.98699745902935,
,,,0,0,0,0,,,,,,,,,,,,,,,,,,,,,,,,,,,,,,,,,,,,,,,299.194887107471,299.194887107471,return,3.750378261494916,,,,,,,,,,,,,,,,,,,,,111,001,2023-03-02_09h07.09.268,eb_01,2022.2.4,119.98699745902935,
4,stimuli/4.png,l,1,0,1,0,0,0,0,0,0,0,0,0,,,,,,,,,,,,,,,,,,302.97032245133596,302.97032245133596,302.97032245133596,302.97032245133596,l,1,1.0469895386486314,304.03707844715973,304.03707844715973,304.03707844715973,,,,,,,,,,,,,,,,,,,,,,,,,,,,111,001,2023-03-02_09h07.09.268,eb_01,2022.2.4,119.98699745902935,
,,,1,0,1,0,0,0,0,0,,,,,,,,,,,,,,,,,,,,,,,,,,,,,,,,,,,,,,,,,,,,,,,,,,,,,,,,,,,111,001,2023-03-02_09h07.09.268,eb_01,2022.2.4,119.98699745902935,
3,stimuli/3.png,l,1,0,1,0,1,0,1,0,0,0,0,0,,,,,,,,,,,,,,,,,,305.0455445944972,305.0455445944972,305.0455445944972,305.0455445944972,l,1,0.4358207563345786,305.4955716256809,305.4955716256809,305.4955716256809,306.50400909672317,306.50400909672317,306.50400909672317,,,,,,,,,,,,,,,,,,,,,,,,,111,001,2023-03-02_09h07.09.268,eb_01,2022.2.4,119.98699745902935,
,,,1,0,1,0,1,0,1,0,,,,,,,,,,,,,,,,,,,,,,,,,,,,,,,,,,,,,,,,,,,,,,,,,,,,,,,,,,,111,001,2023-03-02_09h07.09.268,eb_01,2022.2.4,119.98699745902935,
8,stimuli/8.png,l,1,0,1,0,2,0,2,0,0,0,0,0,,,,,,,,,,,,,,,,,,306.50400909672317,306.50400909672317,306.50400909672317,306.50400909672317,l,1,0.35339965613093227,306.8790292078629,306.8790292078629,306.8790292078629,,,,,,,,,,,,,,,,,,,,,,,,,,,,111,001,2023-03-02_09h07.09.268,eb_01,2022.2.4,119.98699745902935,
,,,1,0,1,0,2,0,2,0,,,,,,,,,,,,,,,,,,,,,,,,,,,,,,,,,,,,,,,,,,,,,,,,,,,,,,,,,,,111,001,2023-03-02_09h07.09.268,eb_01,2022.2.4,119.98699745902935,
9,stimuli/9.png,l,1,0,1,0,3,0,3,0,0,0,0,0,,,,,,,,,,,,,,,,,,307.8958226488903,307.8958226488903,307.8958226488903,307.8958226488903,l,1,0.3536302738939412,308.2791748834279,308.2791748834279,308.2791748834279,,,,,,,,,,,,,,,,,,,,,,,,,,,,111,001,2023-03-02_09h07.09.268,eb_01,2022.2.4,119.98699745902935,
,,,1,0,1,0,3,0,3,0,,,,,,,,,,,,,,,,,,,,,,,,,,,,,,,,,,,,,,,,,,,,,,,,,,,,,,,,,,,111,001,2023-03-02_09h07.09.268,eb_01,2022.2.4,119.98699745902935,
8,stimuli/8.png,l,1,0,1,0,4,0,4,0,0,0,0,0,,,,,,,,,,,,,,,,,,309.28763348437496,309.28763348437496,309.28763348437496,309.28763348437496,l,1,0.44197468885977287,309.7543769833719,309.7543769833719,309.7543769833719,,,,,,,,,,,,,,,,,,,,,,,,,,,,111,001,2023-03-02_09h07.09.268,eb_01,2022.2.4,119.98699745902935,
,,,1,0,1,0,4,0,4,0,,,,,,,,,,,,,,,,,,,,,,,,,,,,,,,,,,,,,,,,,,,,,,,,,,,,,,,,,,,111,001,2023-03-02_09h07.09.268,eb_01,2022.2.4,119.98699745902935,
6,stimuli/6.png,s,1,0,1,0,5,0,5,0,0,0,0,0,,,,,,,,,,,,,,,,,,310.7794759845128,310.7794759845128,310.7794759845128,310.7794759845128,s,1,0.5101086560607655,311.32120044397016,311.32120044397016,311.32120044397016,,,,,,,,,,,,,,,,,,,,,,,,,,,,111,001,2023-03-02_09h07.09.268,eb_01,2022.2.4,119.98699745902935,
,,,1,0,1,0,5,0,5,0,,,,,,,,,,,,,,,,,,,,,,,,,,,,,,,,,,,,,,,,,,,,,,,,,,,,,,,,,,,111,001,2023-03-02_09h07.09.268,eb_01,2022.2.4,119.98699745902935,
9,stimuli/9.png,l,1,0,1,0,6,0,6,0,0,0,0,0,,,,,,,,,,,,,,,,,,312.32961316283036,312.32961316283036,312.32961316283036,312.32961316283036,l,1,0.392018774888129,312.7546821595024,312.7546821595024,312.7546821595024,,,,,,,,,,,,,,,,,,,,,,,,,,,,111,001,2023-03-02_09h07.09.268,eb_01,2022.2.4,119.98699745902935,
,,,1,0,1,0,6,0,6,0,,,,,,,,,,,,,,,,,,,,,,,,,,,,,,,,,,,,,,,,,,,,,,,,,,,,,,,,,,,111,001,2023-03-02_09h07.09.268,eb_01,2022.2.4,119.98699745902935,
5,stimuli/5.png,s,1,0,1,0,7,0,7,0,0,0,0,0,,,,,,,,,,,,,,,,,,313.75478962014313,313.75478962014313,313.75478962014313,313.75478962014313,l,0,0.3829410678736167,314.15484322971315,314.15484322971315,314.15484322971315,,,,,,,,,,,,,,,,,,,,,,,,,,,,111,001,2023-03-02_09h07.09.268,eb_01,2022.2.4,119.98699745902935,
,,,1,0,1,0,7,0,7,0,,,,,,,,,,,,,,,,,,,,,,,,,,,,,,,,,,,,,,,,,,,,,,,,,,,,,,,,,,,111,001,2023-03-02_09h07.09.268,eb_01,2022.2.4,119.98699745902935,
9,stimuli/9.png,l,1,0,1,0,8,0,8,0,0,0,0,0,,,,,,,,,,,,,,,,,,315.17161584271525,315.17161584271525,315.17161584271525,315.17161584271525,l,1,0.3581421113194665,315.5549701902346,315.5549701902346,315.5549701902346,,,,,,,,,,,,,,,,,,,,,,,,,,,,111,001,2023-03-02_09h07.09.268,eb_01,2022.2.4,119.98699745902935,
,,,1,0,1,0,8,0,8,0,,,,,,,,,,,,,,,,,,,,,,,,,,,,,,,,,,,,,,,,,,,,,,,,,,,,,,,,,,,111,001,2023-03-02_09h07.09.268,eb_01,2022.2.4,119.98699745902935,
5,stimuli/5.png,s,1,0,1,0,9,0,9,0,0,0,0,0,,,,,,,,,,,,,,,,,,316.555080065722,316.555080065722,316.555080065722,316.555080065722,s,1,0.44673736838740297,317.02180847193813,317.02180847193813,317.02180847193813,,,,,,,,,,,,,,,,,,,,,,,,,,,,111,001,2023-03-02_09h07.09.268,eb_01,2022.2.4,119.98699745902935,
,,,1,0,1,0,9,0,9,0,,,,,,,,,,,,,,,,,,,,,,,,,,,,,,,,,,,,,,,,,,,,,,,,,,,,,,,,,,,111,001,2023-03-02_09h07.09.268,eb_01,2022.2.4,119.98699745902935,
9,stimuli/9.png,l,1,0,1,0,10,0,10,0,0,0,0,0,,,,,,,,,,,,,,,,,,318.0385530123458,318.0385530123458,318.0385530123458,318.0385530123458,s,0,0.3943294804194011,318.4636066143721,318.4636066143721,318.4636066143721,,,,,,,,,,,,,,,,,,,,,,,,,,,,111,001,2023-03-02_09h07.09.268,eb_01,2022.2.4,119.98699745902935,
,,,1,0,1,0,10,0,10,0,,,,,,,,,,,,,,,,,,,,,,,,,,,,,,,,,,,,,,,,,,,,,,,,,,,,,,,,,,,111,001,2023-03-02_09h07.09.268,eb_01,2022.2.4,119.98699745902935,
6,stimuli/6.png,s,1,0,1,0,11,0,11,0,0,0,0,0,,,,,,,,,,,,,,,,,,319.48040367769136,319.48040367769136,319.48040367769136,319.48040367769136,s,1,0.4485168078535935,319.9554684332834,319.9554684332834,319.9554684332834,,,,,,,,,,,,,,,,,,,,,,,,,,,,111,001,2023-03-02_09h07.09.268,eb_01,2022.2.4,119.98699745902935,
,,,1,0,1,0,11,0,11,0,,,,,,,,,,,,,,,,,,,,,,,,,,,,,,,,,,,,,,,,,,,,,,,,,,,,,,,,,,,111,001,2023-03-02_09h07.09.268,eb_01,2022.2.4,119.98699745902935,
5,stimuli/5.png,s,1,0,1,0,12,0,12,0,0,0,0,0,,,,,,,,,,,,,,,,,,320.9555647252564,320.9555647252564,320.9555647252564,320.9555647252564,s,1,0.49347670782299247,321.472277419889,321.472277419889,321.472277419889,,,,,,,,,,,,,,,,,,,,,,,,,,,,111,001,2023-03-02_09h07.09.268,eb_01,2022.2.4,119.98699745902935,
,,,1,0,1,0,12,0,12,0,,,,,,,,,,,,,,,,,,,,,,,,,,,,,,,,,,,,,,,,,,,,,,,,,,,,,,,,,,,111,001,2023-03-02_09h07.09.268,eb_01,2022.2.4,119.98699745902935,
9,stimuli/9.png,l,1,0,1,0,13,0,13,0,0,0,0,0,,,,,,,,,,,,,,,,,,322.4890358456614,322.4890358456614,322.4890358456614,322.4890358456614,l,1,0.376004423465929,322.89741735265125,322.89741735265125,322.89741735265125,,,,,,,,,,,,,,,,,,,,,,,,,,,,111,001,2023-03-02_09h07.09.268,eb_01,2022.2.4,119.98699745902935,
,,,1,0,1,0,13,0,13,0,,,,,,,,,,,,,,,,,,,,,,,,,,,,,,,,,,,,,,,,,,,,,,,,,,,,,,,,,,,111,001,2023-03-02_09h07.09.268,eb_01,2022.2.4,119.98699745902935,
6,stimuli/6.png,s,1,0,1,0,14,0,14,0,0,0,0,0,,,,,,,,,,,,,,,,,,323.91421471782087,323.91421471782087,323.91421471782087,323.91421471782087,s,1,0.32692872076586355,324.27255065969075,324.27255065969075,324.27255065969075,,,,,,,,,,,,,,,,,,,,,,,,,,,,111,001,2023-03-02_09h07.09.268,eb_01,2022.2.4,119.98699745902935,
,,,1,0,1,0,14,0,14,0,,,,,,,,,,,,,,,,,,,,,,,,,,,,,,,,,,,,,,,,,,,,,,,,,,,,,,,,,,,111,001,2023-03-02_09h07.09.268,eb_01,2022.2.4,119.98699745902935,
9,stimuli/9.png,l,1,0,1,0,15,0,15,0,0,0,0,0,,,,,,,,,,,,,,,,,,325.28099024371477,325.28099024371477,325.28099024371477,325.28099024371477,l,1,0.39220411430869717,325.7060716164706,325.7060716164706,325.7060716164706,,,,,,,,,,,,,,,,,,,,,,,,,,,,111,001,2023-03-02_09h07.09.268,eb_01,2022.2.4,119.98699745902935,
,,,1,0,1,0,15,0,15,0,,,,,,,,,,,,,,,,,,,,,,,,,,,,,,,,,,,,,,,,,,,,,,,,,,,,,,,,,,,111,001,2023-03-02_09h07.09.268,eb_01,2022.2.4,119.98699745902935,
8,stimuli/8.png,l,1,0,1,0,16,0,16,0,0,0,0,0,,,,,,,,,,,,,,,,,,326.7062026218482,326.7062026218482,326.7062026218482,326.7062026218482,l,1,0.4630798369908007,327.1895623725868,327.1895623725868,327.1895623725868,,,,,,,,,,,,,,,,,,,,,,,,,,,,111,001,2023-03-02_09h07.09.268,eb_01,2022.2.4,119.98699745902935,
,,,1,0,1,0,16,0,16,0,,,,,,,,,,,,,,,,,,,,,,,,,,,,,,,,,,,,,,,,,,,,,,,,,,,,,,,,,,,111,001,2023-03-02_09h07.09.268,eb_01,2022.2.4,119.98699745902935,
9,stimuli/9.png,l,1,0,1,0,17,0,17,0,0,0,0,0,,,,,,,,,,,,,,,,,,328.20630510187766,328.20630510187766,328.20630510187766,328.20630510187766,l,1,0.394981488774647,328.631361420601,328.631361420601,328.631361420601,,,,,,,,,,,,,,,,,,,,,,,,,,,,111,001,2023-03-02_09h07.09.268,eb_01,2022.2.4,119.98699745902935,
,,,1,0,1,0,17,0,17,0,,,,,,,,,,,,,,,,,,,,,,,,,,,,,,,,,,,,,,,,,,,,,,,,,,,,,,,,,,,111,001,2023-03-02_09h07.09.268,eb_01,2022.2.4,119.98699745902935,
6,stimuli/6.png,s,1,0,1,0,18,0,18,0,0,0,0,0,,,,,,,,,,,,,,,,,,329.6481409762782,329.6481409762782,329.6481409762782,329.6481409762782,s,1,0.3771822644775966,330.05650588120625,330.05650588120625,330.05650588120625,,,,,,,,,,,,,,,,,,,,,,,,,,,,111,001,2023-03-02_09h07.09.268,eb_01,2022.2.4,119.98699745902935,
,,,1,0,1,0,18,0,18,0,,,,,,,,,,,,,,,,,,,,,,,,,,,,,,,,,,,,,,,,,,,,,,,,,,,,,,,,,,,111,001,2023-03-02_09h07.09.268,eb_01,2022.2.4,119.98699745902935,
5,stimuli/5.png,s,1,0,1,0,19,0,19,0,0,0,0,0,,,,,,,,,,,,,,,,,,331.0566079084383,331.0566079084383,331.0566079084383,331.0566079084383,s,1,0.3847962731233565,331.4650153750117,331.4650153750117,331.4650153750117,,,,,,,,,,,,,,,,,,,,,,,,,,,,111,001,2023-03-02_09h07.09.268,eb_01,2022.2.4,119.98699745902935,
,,,1,0,1,0,19,0,19,0,,,,,,,,,,,,,,,,,,,,,,,,,,,,,,,,,,,,,,,,,,,,,,,,,,,,,,,,,,,111,001,2023-03-02_09h07.09.268,eb_01,2022.2.4,119.98699745902935,
9,stimuli/9.png,l,1,0,1,0,20,0,20,0,0,0,0,0,,,,,,,,,,,,,,,,,,332.48178406388615,332.48178406388615,332.48178406388615,332.48178406388615,l,1,0.4157050912617706,332.923470217851,332.923470217851,332.923470217851,,,,,,,,,,,,,,,,,,,,,,,,,,,,111,001,2023-03-02_09h07.09.268,eb_01,2022.2.4,119.98699745902935,
,,,1,0,1,0,20,0,20,0,,,,,,,,,,,,,,,,,,,,,,,,,,,,,,,,,,,,,,,,,,,,,,,,,,,,,,,,,,,111,001,2023-03-02_09h07.09.268,eb_01,2022.2.4,119.98699745902935,
6,stimuli/6.png,s,1,0,1,0,21,0,21,0,0,0,0,0,,,,,,,,,,,,,,,,,,333.9402618477616,333.9402618477616,333.9402618477616,333.9402618477616,s,1,0.3962689034087816,334.36531031824416,334.36531031824416,334.36531031824416,,,,,,,,,,,,,,,,,,,,,,,,,,,,111,001,2023-03-02_09h07.09.268,eb_01,2022.2.4,119.98699745902935,
,,,1,0,1,0,21,0,21,0,,,,,,,,,,,,,,,,,,,,,,,,,,,,,,,,,,,,,,,,,,,,,,,,,,,,,,,,,,,111,001,2023-03-02_09h07.09.268,eb_01,2022.2.4,119.98699745902935,
9,stimuli/9.png,l,1,0,1,0,22,0,22,0,0,0,0,0,,,,,,,,,,,,,,,,,,335.3737586560892,335.3737586560892,335.3737586560892,335.3737586560892,l,1,0.4908484500774648,335.89045535236073,335.89045535236073,335.89045535236073,,,,,,,,,,,,,,,,,,,,,,,,,,,,111,001,2023-03-02_09h07.09.268,eb_01,2022.2.4,119.98699745902935,
,,,1,0,1,0,22,0,22,0,,,,,,,,,,,,,,,,,,,,,,,,,,,,,,,,,,,,,,,,,,,,,,,,,,,,,,,,,,,111,001,2023-03-02_09h07.09.268,eb_01,2022.2.4,119.98699745902935,
8,stimuli/8.png,l,1,0,1,0,23,0,23,0,0,0,0,0,,,,,,,,,,,,,,,,,,336.8905646241328,336.8905646241328,336.8905646241328,336.8905646241328,l,1,0.4140847297676373,337.323959103378,337.323959103378,337.323959103378,,,,,,,,,,,,,,,,,,,,,,,,,,,,111,001,2023-03-02_09h07.09.268,eb_01,2022.2.4,119.98699745902935,
,,,1,0,1,0,23,0,23,0,,,,,,,,,,,,,,,,,,,,,,,,,,,,,,,,,,,,,,,,,,,,,,,,,,,,,,,,,,,111,001,2023-03-02_09h07.09.268,eb_01,2022.2.4,119.98699745902935,
6,stimuli/6.png,s,1,0,1,0,24,0,24,0,0,0,0,0,,,,,,,,,,,,,,,,,,338.34906806574145,338.34906806574145,338.34906806574145,338.34906806574145,s,1,0.411642415143433,338.79078380156716,338.79078380156716,338.79078380156716,,,,,,,,,,,,,,,,,,,,,,,,,,,,111,001,2023-03-02_09h07.09.268,eb_01,2022.2.4,119.98699745902935,
,,,1,0,1,0,24,0,24,0,,,,,,,,,,,,,,,,,,,,,,,,,,,,,,,,,,,,,,,,,,,,,,,,,,,,,,,,,,,111,001,2023-03-02_09h07.09.268,eb_01,2022.2.4,119.98699745902935,
9,stimuli/9.png,l,1,0,1,0,25,0,25,0,0,0,0,0,,,,,,,,,,,,,,,,,,339.799216744781,339.799216744781,339.799216744781,339.799216744781,l,1,0.38555966623243876,340.215919206501,340.215919206501,340.215919206501,,,,,,,,,,,,,,,,,,,,,,,,,,,,111,001,2023-03-02_09h07.09.268,eb_01,2022.2.4,119.98699745902935,
,,,1,0,1,0,25,0,25,0,,,,,,,,,,,,,,,,,,,,,,,,,,,,,,,,,,,,,,,,,,,,,,,,,,,,,,,,,,,111,001,2023-03-02_09h07.09.268,eb_01,2022.2.4,119.98699745902935,
6,stimuli/6.png,s,1,0,1,0,26,0,26,0,0,0,0,0,,,,,,,,,,,,,,,,,,341.2327060067182,341.2327060067182,341.2327060067182,341.2327060067182,s,1,0.5601149799331324,341.8244401104603,341.8244401104603,341.8244401104603,,,,,,,,,,,,,,,,,,,,,,,,,,,,111,001,2023-03-02_09h07.09.268,eb_01,2022.2.4,119.98699745902935,
,,,1,0,1,0,26,0,26,0,,,,,,,,,,,,,,,,,,,,,,,,,,,,,,,,,,,,,,,,,,,,,,,,,,,,,,,,,,,111,001,2023-03-02_09h07.09.268,eb_01,2022.2.4,119.98699745902935,
9,stimuli/9.png,l,1,0,1,0,27,0,27,0,0,0,0,0,,,,,,,,,,,,,,,,,,342.8328984095424,342.8328984095424,342.8328984095424,342.8328984095424,l,1,0.45596570140332915,343.3162451804965,343.3162451804965,343.3162451804965,,,,,,,,,,,,,,,,,,,,,,,,,,,,111,001,2023-03-02_09h07.09.268,eb_01,2022.2.4,119.98699745902935,
,,,1,0,1,0,27,0,27,0,,,,,,,,,,,,,,,,,,,,,,,,,,,,,,,,,,,,,,,,,,,,,,,,,,,,,,,,,,,111,001,2023-03-02_09h07.09.268,eb_01,2022.2.4,119.98699745902935,
5,stimuli/5.png,s,1,0,1,0,28,0,28,0,0,0,0,0,,,,,,,,,,,,,,,,,,344.316355961535,344.316355961535,344.316355961535,344.316355961535,s,1,0.3565960063278908,344.6914367456775,344.6914367456775,344.6914367456775,,,,,,,,,,,,,,,,,,,,,,,,,,,,111,001,2023-03-02_09h07.09.268,eb_01,2022.2.4,119.98699745902935,
,,,1,0,1,0,28,0,28,0,,,,,,,,,,,,,,,,,,,,,,,,,,,,,,,,,,,,,,,,,,,,,,,,,,,,,,,,,,,111,001,2023-03-02_09h07.09.268,eb_01,2022.2.4,119.98699745902935,
6,stimuli/6.png,s,1,0,1,0,29,0,29,0,0,0,0,0,,,,,,,,,,,,,,,,,,345.7165173336107,345.7165173336107,345.7165173336107,345.7165173336107,s,1,0.3884924963786034,346.1332339825458,346.1332339825458,346.1332339825458,,,,,,,,,,,,,,,,,,,,,,,,,,,,111,001,2023-03-02_09h07.09.268,eb_01,2022.2.4,119.98699745902935,
,,,1,0,1,0,29,0,29,0,,,,,,,,,,,,,,,,,,,,,,,,,,,,,,,,,,,,,,,,,,,,,,,,,,,,,,,,,,,111,001,2023-03-02_09h07.09.268,eb_01,2022.2.4,119.98699745902935,
8,stimuli/8.png,l,1,0,1,0,30,0,30,0,0,0,0,0,,,,,,,,,,,,,,,,,,347.14171975050704,347.14171975050704,347.14171975050704,347.14171975050704,l,1,0.2673882840172155,347.4333531250013,347.4333531250013,347.4333531250013,,,,,,,,,,,,,,,,,,,,,,,,,,,,111,001,2023-03-02_09h07.09.268,eb_01,2022.2.4,119.98699745902935,
,,,1,0,1,0,30,0,30,0,,,,,,,,,,,,,,,,,,,,,,,,,,,,,,,,,,,,,,,,,,,,,,,,,,,,,,,,,,,111,001,2023-03-02_09h07.09.268,eb_01,2022.2.4,119.98699745902935,
9,stimuli/9.png,l,1,0,1,0,31,0,31,0,0,0,0,0,,,,,,,,,,,,,,,,,,348.45014535861264,348.45014535861264,348.45014535861264,348.45014535861264,s,0,0.32602104061516,348.80851933431404,348.80851933431404,348.80851933431404,,,,,,,,,,,,,,,,,,,,,,,,,,,,111,001,2023-03-02_09h07.09.268,eb_01,2022.2.4,119.98699745902935,
,,,1,0,1,0,31,0,31,0,,,,,,,,,,,,,,,,,,,,,,,,,,,,,,,,,,,,,,,,,,,,,,,,,,,,,,,,,,,111,001,2023-03-02_09h07.09.268,eb_01,2022.2.4,119.98699745902935,
8,stimuli/8.png,l,1,0,1,0,32,0,32,0,0,0,0,0,,,,,,,,,,,,,,,,,,349.80865064154204,349.80865064154204,349.80865064154204,349.80865064154204,s,0,0.3915699154458707,350.21699773697765,350.21699773697765,350.21699773697765,,,,,,,,,,,,,,,,,,,,,,,,,,,,111,001,2023-03-02_09h07.09.268,eb_01,2022.2.4,119.98699745902935,
,,,1,0,1,0,32,0,32,0,,,,,,,,,,,,,,,,,,,,,,,,,,,,,,,,,,,,,,,,,,,,,,,,,,,,,,,,,,,111,001,2023-03-02_09h07.09.268,eb_01,2022.2.4,119.98699745902935,
9,stimuli/9.png,l,1,0,1,0,33,0,33,0,0,0,0,0,,,,,,,,,,,,,,,,,,351.2337730666768,351.2337730666768,351.2337730666768,351.2337730666768,l,1,0.45448600468807854,351.7171765864914,351.7171765864914,351.7171765864914,,,,,,,,,,,,,,,,,,,,,,,,,,,,111,001,2023-03-02_09h07.09.268,eb_01,2022.2.4,119.98699745902935,
,,,1,0,1,0,33,0,33,0,,,,,,,,,,,,,,,,,,,,,,,,,,,,,,,,,,,,,,,,,,,,,,,,,,,,,,,,,,,111,001,2023-03-02_09h07.09.268,eb_01,2022.2.4,119.98699745902935,
6,stimuli/6.png,s,1,0,1,0,34,0,34,0,0,0,0,0,,,,,,,,,,,,,,,,,,352.73393561597914,352.73393561597914,352.73393561597914,352.73393561597914,s,1,0.6023811194754671,353.3673300348455,353.3673300348455,353.3673300348455,,,,,,,,,,,,,,,,,,,,,,,,,,,,111,001,2023-03-02_09h07.09.268,eb_01,2022.2.4,119.98699745902935,
,,,1,0,1,0,34,0,34,0,,,,,,,,,,,,,,,,,,,,,,,,,,,,,,,,,,,,,,,,,,,,,,,,,,,,,,,,,,,111,001,2023-03-02_09h07.09.268,eb_01,2022.2.4,119.98699745902935,
9,stimuli/9.png,l,1,0,1,0,35,0,35,0,0,0,0,0,,,,,,,,,,,,,,,,,,354.37577897640585,354.37577897640585,354.37577897640585,354.37577897640585,l,1,0.4965761623461731,354.90083466123906,354.90083466123906,354.90083466123906,,,,,,,,,,,,,,,,,,,,,,,,,,,,111,001,2023-03-02_09h07.09.268,eb_01,2022.2.4,119.98699745902935,
,,,1,0,1,0,35,0,35,0,,,,,,,,,,,,,,,,,,,,,,,,,,,,,,,,,,,,,,,,,,,,,,,,,,,,,,,,,,,111,001,2023-03-02_09h07.09.268,eb_01,2022.2.4,119.98699745902935,
8,stimuli/8.png,l,1,0,1,0,36,0,36,0,0,0,0,0,,,,,,,,,,,,,,,,,,355.9009599313722,355.9009599313722,355.9009599313722,355.9009599313722,l,1,0.4274886329367291,356.3510083942965,356.3510083942965,356.3510083942965,,,,,,,,,,,,,,,,,,,,,,,,,,,,111,001,2023-03-02_09h07.09.268,eb_01,2022.2.4,119.98699745902935,
,,,1,0,1,0,36,0,36,0,,,,,,,,,,,,,,,,,,,,,,,,,,,,,,,,,,,,,,,,,,,,,,,,,,,,,,,,,,,111,001,2023-03-02_09h07.09.268,eb_01,2022.2.4,119.98699745902935,
3,stimuli/3.png,l,1,0,1,0,37,0,37,0,0,0,0,0,,,,,,,,,,,,,,,,,,357.3594359041017,357.3594359041017,357.3594359041017,357.3594359041017,l,1,0.5050329521473031,357.8761356189352,357.8761356189352,357.8761356189352,358.89292453214875,358.89292453214875,358.89292453214875,,,,,,,,,,,,,,,,,,,,,,,,,111,001,2023-03-02_09h07.09.268,eb_01,2022.2.4,119.98699745902935,
,,,1,0,1,0,37,0,37,0,,,,,,,,,,,,,,,,,,,,,,,,,,,,,,,,,,,,,,,,,,,,,,,,,,,,,,,,,,,111,001,2023-03-02_09h07.09.268,eb_01,2022.2.4,119.98699745902935,
8,stimuli/8.png,l,1,0,1,0,38,0,38,0,0,0,0,0,,,,,,,,,,,,,,,,,,358.89292453214875,358.89292453214875,358.89292453214875,358.89292453214875,l,1,0.3636256223107921,359.27630121698894,359.27630121698894,359.27630121698894,,,,,,,,,,,,,,,,,,,,,,,,,,,,111,001,2023-03-02_09h07.09.268,eb_01,2022.2.4,119.98699745902935,
,,,1,0,1,0,38,0,38,0,,,,,,,,,,,,,,,,,,,,,,,,,,,,,,,,,,,,,,,,,,,,,,,,,,,,,,,,,,,111,001,2023-03-02_09h07.09.268,eb_01,2022.2.4,119.98699745902935,
3,stimuli/3.png,l,1,0,1,0,39,0,39,0,0,0,0,0,,,,,,,,,,,,,,,,,,360.28472570823214,360.28472570823214,360.28472570823214,360.28472570823214,l,1,0.4919399603677448,360.79313042793365,360.79313042793365,360.79313042793365,361.80158812330046,361.80158812330046,361.80158812330046,,,,,,,,,,,,,,,,,,,,,,,,,111,001,2023-03-02_09h07.09.268,eb_01,2022.2.4,119.98699745902935,
,,,1,0,1,0,39,0,39,0,,,,,,,,,,,,,,,,,,,,,,,,,,,,,,,,,,,,,,,,,,,,,,,,,,,,,,,,,,,111,001,2023-03-02_09h07.09.268,eb_01,2022.2.4,119.98699745902935,
2,stimuli/2.png,s,1,0,1,0,40,0,40,0,0,0,0,0,,,,,,,,,,,,,,,,,,361.80158812330046,361.80158812330046,361.80158812330046,361.80158812330046,s,1,1.0791453227720922,362.89335437468253,362.89335437468253,362.89335437468253,363.91846122406423,363.91846122406423,363.91846122406423,,,,,,,,,,,,,,,,,,,,,,,,,111,001,2023-03-02_09h07.09.268,eb_01,2022.2.4,119.98699745902935,
,,,1,0,1,0,40,0,40,0,,,,,,,,,,,,,,,,,,,,,,,,,,,,,,,,,,,,,,,,,,,,,,,,,,,,,,,,,,,111,001,2023-03-02_09h07.09.268,eb_01,2022.2.4,119.98699745902935,
1,stimuli/1.png,s,1,0,1,0,41,0,41,0,0,0,0,0,,,,,,,,,,,,,,,,,,363.91846122406423,363.91846122406423,363.91846122406423,363.91846122406423,l,0,1.089322388303117,365.0352356180083,365.0352356180083,365.0352356180083,,,,,,,,,,,,,,,,,,,,,,,,,,,,111,001,2023-03-02_09h07.09.268,eb_01,2022.2.4,119.98699745902935,
,,,1,0,1,0,41,0,41,0,,,,,,,,,,,,,,,,,,,,,,,,,,,,,,,,,,,,,,,,,,,,,,,,,,,,,,,,,,,111,001,2023-03-02_09h07.09.268,eb_01,2022.2.4,119.98699745902935,
4,stimuli/4.png,l,1,0,1,0,42,0,42,0,0,0,0,0,,,,,,,,,,,,,,,,,,366.0436872762657,366.0436872762657,366.0436872762657,366.0436872762657,l,1,0.4921763133897912,366.56042079893814,366.56042079893814,366.56042079893814,,,,,,,,,,,,,,,,,,,,,,,,,,,,111,001,2023-03-02_09h07.09.268,eb_01,2022.2.4,119.98699745902935,
,,,1,0,1,0,42,0,42,0,,,,,,,,,,,,,,,,,,,,,,,,,,,,,,,,,,,,,,,,,,,,,,,,,,,,,,,,,,,111,001,2023-03-02_09h07.09.268,eb_01,2022.2.4,119.98699745902935,
2,stimuli/2.png,s,1,0,1,0,43,0,43,0,0,0,0,0,,,,,,,,,,,,,,,,,,367.56886340152414,367.56886340152414,367.56886340152414,367.56886340152414,s,1,0.8310766711219912,368.4105929019861,368.4105929019861,368.4105929019861,369.4273875504441,369.4273875504441,369.4273875504441,,,,,,,,,,,,,,,,,,,,,,,,,111,001,2023-03-02_09h07.09.268,eb_01,2022.2.4,119.98699745902935,
,,,1,0,1,0,43,0,43,0,,,,,,,,,,,,,,,,,,,,,,,,,,,,,,,,,,,,,,,,,,,,,,,,,,,,,,,,,,,111,001,2023-03-02_09h07.09.268,eb_01,2022.2.4,119.98699745902935,
4,stimuli/4.png,l,1,0,1,0,44,0,44,0,0,0,0,0,,,,,,,,,,,,,,,,,,369.4273875504441,369.4273875504441,369.4273875504441,369.4273875504441,l,1,0.5326219611015404,369.97744594443066,369.97744594443066,369.97744594443066,,,,,,,,,,,,,,,,,,,,,,,,,,,,111,001,2023-03-02_09h07.09.268,eb_01,2022.2.4,119.98699745902935,
,,,1,0,1,0,44,0,44,0,,,,,,,,,,,,,,,,,,,,,,,,,,,,,,,,,,,,,,,,,,,,,,,,,,,,,,,,,,,111,001,2023-03-02_09h07.09.268,eb_01,2022.2.4,119.98699745902935,
3,stimuli/3.png,l,1,0,1,0,45,0,45,0,0,0,0,0,,,,,,,,,,,,,,,,,,370.98590816764045,370.98590816764045,370.98590816764045,370.98590816764045,l,1,0.518143753419281,371.51926397916395,371.51926397916395,371.51926397916395,372.5277201652498,372.5277201652498,372.5277201652498,,,,,,,,,,,,,,,,,,,,,,,,,111,001,2023-03-02_09h07.09.268,eb_01,2022.2.4,119.98699745902935,
,,,1,0,1,0,45,0,45,0,,,,,,,,,,,,,,,,,,,,,,,,,,,,,,,,,,,,,,,,,,,,,,,,,,,,,,,,,,,111,001,2023-03-02_09h07.09.268,eb_01,2022.2.4,119.98699745902935,
8,stimuli/8.png,l,1,0,1,0,46,0,46,0,0,0,0,0,,,,,,,,,,,,,,,,,,372.5277201652498,372.5277201652498,372.5277201652498,372.5277201652498,l,1,0.4004640941711841,372.9527453928458,372.9527453928458,372.9527453928458,,,,,,,,,,,,,,,,,,,,,,,,,,,,111,001,2023-03-02_09h07.09.268,eb_01,2022.2.4,119.98699745902935,
,,,1,0,1,0,46,0,46,0,,,,,,,,,,,,,,,,,,,,,,,,,,,,,,,,,,,,,,,,,,,,,,,,,,,,,,,,,,,111,001,2023-03-02_09h07.09.268,eb_01,2022.2.4,119.98699745902935,
3,stimuli/3.png,l,1,0,1,0,47,0,47,0,0,0,0,0,,,,,,,,,,,,,,,,,,373.96122240698605,373.96122240698605,373.96122240698605,373.96122240698605,l,1,0.3669541853159899,374.34458098048344,374.34458098048344,374.34458098048344,375.3530380721495,375.3530380721495,375.3530380721495,,,,,,,,,,,,,,,,,,,,,,,,,111,001,2023-03-02_09h07.09.268,eb_01,2022.2.4,119.98699745902935,
,,,1,0,1,0,47,0,47,0,,,,,,,,,,,,,,,,,,,,,,,,,,,,,,,,,,,,,,,,,,,,,,,,,,,,,,,,,,,111,001,2023-03-02_09h07.09.268,eb_01,2022.2.4,119.98699745902935,
2,stimuli/2.png,s,1,0,1,0,48,0,48,0,0,0,0,0,,,,,,,,,,,,,,,,,,375.3530380721495,375.3530380721495,375.3530380721495,375.3530380721495,l,0,0.40714959462638944,375.77804579211806,375.77804579211806,375.77804579211806,,,,,,,,,,,,,,,,,,,,,,,,,,,,111,001,2023-03-02_09h07.09.268,eb_01,2022.2.4,119.98699745902935,
,,,1,0,1,0,48,0,48,0,,,,,,,,,,,,,,,,,,,,,,,,,,,,,,,,,,,,,,,,,,,,,,,,,,,,,,,,,,,111,001,2023-03-02_09h07.09.268,eb_01,2022.2.4,119.98699745902935,
4,stimuli/4.png,l,1,0,1,0,49,0,49,0,0,0,0,0,,,,,,,,,,,,,,,,,,376.79485432594083,376.79485432594083,376.79485432594083,376.79485432594083,l,1,0.5734277226729318,377.38658329813916,377.38658329813916,377.38658329813916,,,,,,,,,,,,,,,,,,,,,,,,,,,,111,001,2023-03-02_09h07.09.268,eb_01,2022.2.4,119.98699745902935,
,,,1,0,1,0,49,0,49,0,,,,,,,,,,,,,,,,,,,,,,,,,,,,,,,,,,,,,,,,,,,,,,,,,,,,,,,,,,,111,001,2023-03-02_09h07.09.268,eb_01,2022.2.4,119.98699745902935,
2,stimuli/2.png,s,1,0,1,0,50,0,50,0,0,0,0,0,,,,,,,,,,,,,,,,,,378.3950111097947,378.3950111097947,378.3950111097947,378.3950111097947,s,1,0.47732953987724613,378.88673045279575,378.88673045279575,378.88673045279575,379.8951688294037,379.8951688294037,379.8951688294037,,,,,,,,,,,,,,,,,,,,,,,,,111,001,2023-03-02_09h07.09.268,eb_01,2022.2.4,119.98699745902935,
,,,1,0,1,0,50,0,50,0,,,,,,,,,,,,,,,,,,,,,,,,,,,,,,,,,,,,,,,,,,,,,,,,,,,,,,,,,,,111,001,2023-03-02_09h07.09.268,eb_01,2022.2.4,119.98699745902935,
3,stimuli/3.png,l,1,0,1,0,51,0,51,0,0,0,0,0,,,,,,,,,,,,,,,,,,379.8951688294037,379.8951688294037,379.8951688294037,379.8951688294037,l,1,0.3922669002931798,380.3035427900031,380.3035427900031,380.3035427900031,381.3119817703264,381.3119817703264,381.3119817703264,,,,,,,,,,,,,,,,,,,,,,,,,111,001,2023-03-02_09h07.09.268,eb_01,2022.2.4,119.98699745902935,
,,,1,0,1,0,51,0,51,0,,,,,,,,,,,,,,,,,,,,,,,,,,,,,,,,,,,,,,,,,,,,,,,,,,,,,,,,,,,111,001,2023-03-02_09h07.09.268,eb_01,2022.2.4,119.98699745902935,
8,stimuli/8.png,l,1,0,1,0,52,0,52,0,0,0,0,0,,,,,,,,,,,,,,,,,,381.3119817703264,381.3119817703264,381.3119817703264,381.3119817703264,s,0,0.551504545554053,381.8870329122292,381.8870329122292,381.8870329122292,,,,,,,,,,,,,,,,,,,,,,,,,,,,111,001,2023-03-02_09h07.09.268,eb_01,2022.2.4,119.98699745902935,
,,,1,0,1,0,52,0,52,0,,,,,,,,,,,,,,,,,,,,,,,,,,,,,,,,,,,,,,,,,,,,,,,,,,,,,,,,,,,111,001,2023-03-02_09h07.09.268,eb_01,2022.2.4,119.98699745902935,
3,stimuli/3.png,l,1,0,1,0,53,0,53,0,0,0,0,0,,,,,,,,,,,,,,,,,,382.8955078133731,382.8955078133731,382.8955078133731,382.8955078133731,l,1,0.4880460215936182,383.40386182130896,383.40386182130896,383.40386182130896,,,,,,,,,,,,,,,,,,,,,,,,,,,,111,001,2023-03-02_09h07.09.268,eb_01,2022.2.4,119.98699745902935,
,,,1,0,1,0,53,0,53,0,,,,,,,,,,,,,,,,,,,,,,,,,,,,,,,,,,,,,,,,,,,,,,,,,,,,,,,,,,,111,001,2023-03-02_09h07.09.268,eb_01,2022.2.4,119.98699745902935,
2,stimuli/2.png,s,1,0,1,0,54,0,54,0,0,0,0,0,,,,,,,,,,,,,,,,,,384.41233762803313,384.41233762803313,384.41233762803313,384.41233762803313,s,1,0.7632919510069769,385.1874185932829,385.1874185932829,385.1874185932829,386.20419573411345,386.20419573411345,386.20419573411345,,,,,,,,,,,,,,,,,,,,,,,,,111,001,2023-03-02_09h07.09.268,eb_01,2022.2.4,119.98699745902935,
,,,1,0,1,0,54,0,54,0,,,,,,,,,,,,,,,,,,,,,,,,,,,,,,,,,,,,,,,,,,,,,,,,,,,,,,,,,,,111,001,2023-03-02_09h07.09.268,eb_01,2022.2.4,119.98699745902935,
4,stimuli/4.png,l,1,0,1,0,55,0,55,0,0,0,0,0,,,,,,,,,,,,,,,,,,386.20419573411345,386.20419573411345,386.20419573411345,386.20419573411345,l,1,0.2994468705874169,386.5208746812714,386.5208746812714,386.5208746812714,,,,,,,,,,,,,,,,,,,,,,,,,,,,111,001,2023-03-02_09h07.09.268,eb_01,2022.2.4,119.98699745902935,
,,,1,0,1,0,55,0,55,0,,,,,,,,,,,,,,,,,,,,,,,,,,,,,,,,,,,,,,,,,,,,,,,,,,,,,,,,,,,111,001,2023-03-02_09h07.09.268,eb_01,2022.2.4,119.98699745902935,
3,stimuli/3.png,l,1,0,1,0,56,0,56,0,0,0,0,0,,,,,,,,,,,,,,,,,,387.52930309664225,387.52930309664225,387.52930309664225,387.52930309664225,l,1,0.3824203667609254,387.9210119048803,387.9210119048803,387.9210119048803,388.92947201510833,388.92947201510833,388.92947201510833,,,,,,,,,,,,,,,,,,,,,,,,,111,001,2023-03-02_09h07.09.268,eb_01,2022.2.4,119.98699745902935,
,,,1,0,1,0,56,0,56,0,,,,,,,,,,,,,,,,,,,,,,,,,,,,,,,,,,,,,,,,,,,,,,,,,,,,,,,,,,,111,001,2023-03-02_09h07.09.268,eb_01,2022.2.4,119.98699745902935,
8,stimuli/8.png,l,1,0,1,0,57,0,57,0,0,0,0,0,,,,,,,,,,,,,,,,,,388.92947201510833,388.92947201510833,388.92947201510833,388.92947201510833,l,1,0.37428837369952817,389.321168749113,389.321168749113,389.321168749113,,,,,,,,,,,,,,,,,,,,,,,,,,,,111,001,2023-03-02_09h07.09.268,eb_01,2022.2.4,119.98699745902935,
,,,1,0,1,0,57,0,57,0,,,,,,,,,,,,,,,,,,,,,,,,,,,,,,,,,,,,,,,,,,,,,,,,,,,,,,,,,,,111,001,2023-03-02_09h07.09.268,eb_01,2022.2.4,119.98699745902935,
9,stimuli/9.png,l,1,0,1,0,58,0,58,0,0,0,0,0,,,,,,,,,,,,,,,,,,390.3379458899435,390.3379458899435,390.3379458899435,390.3379458899435,l,1,0.4138969755003927,390.7796685684589,390.7796685684589,390.7796685684589,,,,,,,,,,,,,,,,,,,,,,,,,,,,111,001,2023-03-02_09h07.09.268,eb_01,2022.2.4,119.98699745902935,
,,,1,0,1,0,58,0,58,0,,,,,,,,,,,,,,,,,,,,,,,,,,,,,,,,,,,,,,,,,,,,,,,,,,,,,,,,,,,111,001,2023-03-02_09h07.09.268,eb_01,2022.2.4,119.98699745902935,
5,stimuli/5.png,s,1,0,1,0,59,0,59,0,0,0,0,0,,,,,,,,,,,,,,,,,,391.779774821669,391.779774821669,391.779774821669,391.779774821669,s,1,0.5161176978435833,392.3131644410314,392.3131644410314,392.3131644410314,,,,,,,,,,,,,,,,,,,,,,,,,,,,111,001,2023-03-02_09h07.09.268,eb_01,2022.2.4,119.98699745902935,
,,,1,0,1,0,59,0,59,0,,,,,,,,,,,,,,,,,,,,,,,,,,,,,,,,,,,,,,,,,,,,,,,,,,,,,,,,,,,111,001,2023-03-02_09h07.09.268,eb_01,2022.2.4,119.98699745902935,
6,stimuli/6.png,s,1,0,1,0,60,0,60,0,0,0,0,0,,,,,,,,,,,,,,,,,,393.3382712904131,393.3382712904131,393.3382712904131,393.3382712904131,s,1,0.40571004470984917,393.7716832772858,393.7716832772858,393.7716832772858,,,,,,,,,,,,,,,,,,,,,,,,,,,,111,001,2023-03-02_09h07.09.268,eb_01,2022.2.4,119.98699745902935,
,,,1,0,1,0,60,0,60,0,,,,,,,,,,,,,,,,,,,,,,,,,,,,,,,,,,,,,,,,,,,,,,,,,,,,,,,,,,,111,001,2023-03-02_09h07.09.268,eb_01,2022.2.4,119.98699745902935,
9,stimuli/9.png,l,1,0,1,0,61,0,61,0,0,0,0,0,,,,,,,,,,,,,,,,,,394.78008120521554,394.78008120521554,394.78008120521554,394.78008120521554,l,1,0.4199485789577011,395.230176153942,395.230176153942,395.230176153942,,,,,,,,,,,,,,,,,,,,,,,,,,,,111,001,2023-03-02_09h07.09.268,eb_01,2022.2.4,119.98699745902935,
,,,1,0,1,0,61,0,61,0,,,,,,,,,,,,,,,,,,,,,,,,,,,,,,,,,,,,,,,,,,,,,,,,,,,,,,,,,,,111,001,2023-03-02_09h07.09.268,eb_01,2022.2.4,119.98699745902935,
8,stimuli/8.png,l,1,0,1,0,62,0,62,0,0,0,0,0,,,,,,,,,,,,,,,,,,396.23025252344087,396.23025252344087,396.23025252344087,396.23025252344087,l,1,0.4888501652312698,396.7386231334385,396.7386231334385,396.7386231334385,,,,,,,,,,,,,,,,,,,,,,,,,,,,111,001,2023-03-02_09h07.09.268,eb_01,2022.2.4,119.98699745902935,
,,,1,0,1,0,62,0,62,0,,,,,,,,,,,,,,,,,,,,,,,,,,,,,,,,,,,,,,,,,,,,,,,,,,,,,,,,,,,111,001,2023-03-02_09h07.09.268,eb_01,2022.2.4,119.98699745902935,
3,stimuli/3.png,l,1,0,1,0,63,0,63,0,0,0,0,0,,,,,,,,,,,,,,,,,,397.747077508393,397.747077508393,397.747077508393,397.747077508393,l,1,0.41205988159345,398.17211631948885,398.17211631948885,398.17211631948885,399.1805477534217,399.1805477534217,399.1805477534217,,,,,,,,,,,,,,,,,,,,,,,,,111,001,2023-03-02_09h07.09.268,eb_01,2022.2.4,119.98699745902935,
,,,1,0,1,0,63,0,63,0,,,,,,,,,,,,,,,,,,,,,,,,,,,,,,,,,,,,,,,,,,,,,,,,,,,,,,,,,,,111,001,2023-03-02_09h07.09.268,eb_01,2022.2.4,119.98699745902935,
2,stimuli/2.png,s,1,0,1,0,64,0,64,0,0,0,0,0,,,,,,,,,,,,,,,,,,399.1805477534217,399.1805477534217,399.1805477534217,399.1805477534217,l,0,0.37862090882845223,399.5806249077432,399.5806249077432,399.5806249077432,,,,,,,,,,,,,,,,,,,,,,,,,,,,111,001,2023-03-02_09h07.09.268,eb_01,2022.2.4,119.98699745902935,
,,,1,0,1,0,64,0,64,0,,,,,,,,,,,,,,,,,,,,,,,,,,,,,,,,,,,,,,,,,,,,,,,,,,,,,,,,,,,111,001,2023-03-02_09h07.09.268,eb_01,2022.2.4,119.98699745902935,
3,stimuli/3.png,l,1,0,1,0,65,0,65,0,0,0,0,0,,,,,,,,,,,,,,,,,,400.58906479363213,400.58906479363213,400.58906479363213,400.58906479363213,l,1,0.3461922471469734,400.955754290655,400.955754290655,400.955754290655,,,,,,,,,,,,,,,,,,,,,,,,,,,,111,001,2023-03-02_09h07.09.268,eb_01,2022.2.4,119.98699745902935,
,,,1,0,1,0,65,0,65,0,,,,,,,,,,,,,,,,,,,,,,,,,,,,,,,,,,,,,,,,,,,,,,,,,,,,,,,,,,,111,001,2023-03-02_09h07.09.268,eb_01,2022.2.4,119.98699745902935,
4,stimuli/4.png,l,1,0,1,0,66,0,66,0,0,0,0,0,,,,,,,,,,,,,,,,,,401.9725598059158,401.9725598059158,401.9725598059158,401.9725598059158,s,0,0.4027246916521108,402.3975968058803,402.3975968058803,402.3975968058803,,,,,,,,,,,,,,,,,,,,,,,,,,,,111,001,2023-03-02_09h07.09.268,eb_01,2022.2.4,119.98699745902935,
,,,1,0,1,0,66,0,66,0,,,,,,,,,,,,,,,,,,,,,,,,,,,,,,,,,,,,,,,,,,,,,,,,,,,,,,,,,,,111,001,2023-03-02_09h07.09.268,eb_01,2022.2.4,119.98699745902935,
3,stimuli/3.png,l,1,0,1,0,67,0,67,0,0,0,0,0,,,,,,,,,,,,,,,,,,403.40601707114547,403.40601707114547,403.40601707114547,403.40601707114547,l,1,0.401365435362095,403.83106433419744,403.83106433419744,403.83106433419744,,,,,,,,,,,,,,,,,,,,,,,,,,,,111,001,2023-03-02_09h07.09.268,eb_01,2022.2.4,119.98699745902935,
,,,1,0,1,0,67,0,67,0,,,,,,,,,,,,,,,,,,,,,,,,,,,,,,,,,,,,,,,,,,,,,,,,,,,,,,,,,,,111,001,2023-03-02_09h07.09.268,eb_01,2022.2.4,119.98699745902935,
4,stimuli/4.png,l,1,0,1,0,68,0,68,0,0,0,0,0,,,,,,,,,,,,,,,,,,404.84783543791855,404.84783543791855,404.84783543791855,404.84783543791855,s,0,0.5276180988585111,405.3978959449014,405.3978959449014,405.3978959449014,,,,,,,,,,,,,,,,,,,,,,,,,,,,111,001,2023-03-02_09h07.09.268,eb_01,2022.2.4,119.98699745902935,
,,,1,0,1,0,68,0,68,0,,,,,,,,,,,,,,,,,,,,,,,,,,,,,,,,,,,,,,,,,,,,,,,,,,,,,,,,,,,111,001,2023-03-02_09h07.09.268,eb_01,2022.2.4,119.98699745902935,
1,stimuli/1.png,s,1,0,1,0,69,0,69,0,0,0,0,0,,,,,,,,,,,,,,,,,,406.4229910219001,406.4229910219001,406.4229910219001,406.4229910219001,l,0,0.5205546750366921,406.97306782909436,406.97306782909436,406.97306782909436,,,,,,,,,,,,,,,,,,,,,,,,,,,,111,001,2023-03-02_09h07.09.268,eb_01,2022.2.4,119.98699745902935,
,,,1,0,1,0,69,0,69,0,,,,,,,,,,,,,,,,,,,,,,,,,,,,,,,,,,,,,,,,,,,,,,,,,,,,,,,,,,,111,001,2023-03-02_09h07.09.268,eb_01,2022.2.4,119.98699745902935,
2,stimuli/2.png,s,1,0,1,0,70,0,70,0,0,0,0,0,,,,,,,,,,,,,,,,,,407.97320306045003,407.97320306045003,407.97320306045003,407.97320306045003,s,1,0.5943867726309691,408.5899072729371,408.5899072729371,408.5899072729371,,,,,,,,,,,,,,,,,,,,,,,,,,,,111,001,2023-03-02_09h07.09.268,eb_01,2022.2.4,119.98699745902935,
,,,1,0,1,0,70,0,70,0,,,,,,,,,,,,,,,,,,,,,,,,,,,,,,,,,,,,,,,,,,,,,,,,,,,,,,,,,,,111,001,2023-03-02_09h07.09.268,eb_01,2022.2.4,119.98699745902935,
3,stimuli/3.png,l,1,0,1,0,71,0,71,0,0,0,0,0,,,,,,,,,,,,,,,,,,409.5983462532604,409.5983462532604,409.5983462532604,409.5983462532604,l,1,0.43332229655061383,410.0400804022793,410.0400804022793,410.0400804022793,411.0485293438396,411.0485293438396,411.0485293438396,,,,,,,,,,,,,,,,,,,,,,,,,111,001,2023-03-02_09h07.09.268,eb_01,2022.2.4,119.98699745902935,
,,,1,0,1,0,71,0,71,0,,,,,,,,,,,,,,,,,,,,,,,,,,,,,,,,,,,,,,,,,,,,,,,,,,,,,,,,,,,111,001,2023-03-02_09h07.09.268,eb_01,2022.2.4,119.98699745902935,
2,stimuli/2.png,s,1,0,1,0,72,0,72,0,0,0,0,0,,,,,,,,,,,,,,,,,,411.0485293438396,411.0485293438396,411.0485293438396,411.0485293438396,s,1,0.9741411888535367,412.0319595779001,412.0319595779001,412.0319595779001,413.04037923945,413.04037923945,413.04037923945,,,,,,,,,,,,,,,,,,,,,,,,,111,001,2023-03-02_09h07.09.268,eb_01,2022.2.4,119.98699745902935,
,,,1,0,1,0,72,0,72,0,,,,,,,,,,,,,,,,,,,,,,,,,,,,,,,,,,,,,,,,,,,,,,,,,,,,,,,,,,,111,001,2023-03-02_09h07.09.268,eb_01,2022.2.4,119.98699745902935,
3,stimuli/3.png,l,1,0,1,0,73,0,73,0,0,0,0,0,,,,,,,,,,,,,,,,,,413.04037923945,413.04037923945,413.04037923945,413.04037923945,l,1,0.47836098086554557,413.53212061792146,413.53212061792146,413.53212061792146,414.540542694318,414.540542694318,414.540542694318,,,,,,,,,,,,,,,,,,,,,,,,,111,001,2023-03-02_09h07.09.268,eb_01,2022.2.4,119.98699745902935,
,,,1,0,1,0,73,0,73,0,,,,,,,,,,,,,,,,,,,,,,,,,,,,,,,,,,,,,,,,,,,,,,,,,,,,,,,,,,,111,001,2023-03-02_09h07.09.268,eb_01,2022.2.4,119.98699745902935,
8,stimuli/8.png,l,1,0,1,0,74,0,74,0,0,0,0,0,,,,,,,,,,,,,,,,,,414.540542694318,414.540542694318,414.540542694318,414.540542694318,l,1,0.4343307965027634,414.9989522588003,414.9989522588003,414.9989522588003,,,,,,,,,,,,,,,,,,,,,,,,,,,,111,001,2023-03-02_09h07.09.268,eb_01,2022.2.4,119.98699745902935,
,,,1,0,1,0,74,0,74,0,,,,,,,,,,,,,,,,,,,,,,,,,,,,,,,,,,,,,,,,,,,,,,,,,,,,,,,,,,,111,001,2023-03-02_09h07.09.268,eb_01,2022.2.4,119.98699745902935,
9,stimuli/9.png,l,1,0,1,0,75,0,75,0,0,0,0,0,,,,,,,,,,,,,,,,,,416.0157185328135,416.0157185328135,416.0157185328135,416.0157185328135,l,1,0.3831913062604144,416.424076193216,416.424076193216,416.424076193216,,,,,,,,,,,,,,,,,,,,,,,,,,,,111,001,2023-03-02_09h07.09.268,eb_01,2022.2.4,119.98699745902935,
,,,1,0,1,0,75,0,75,0,,,,,,,,,,,,,,,,,,,,,,,,,,,,,,,,,,,,,,,,,,,,,,,,,,,,,,,,,,,111,001,2023-03-02_09h07.09.268,eb_01,2022.2.4,119.98699745902935,
6,stimuli/6.png,s,1,0,1,0,76,0,76,0,0,0,0,0,,,,,,,,,,,,,,,,,,417.44085031548457,417.44085031548457,417.44085031548457,417.44085031548457,s,1,0.3501284457161091,417.81589427322615,417.81589427322615,417.81589427322615,,,,,,,,,,,,,,,,,,,,,,,,,,,,111,001,2023-03-02_09h07.09.268,eb_01,2022.2.4,119.98699745902935,
,,,1,0,1,0,76,0,76,0,,,,,,,,,,,,,,,,,,,,,,,,,,,,,,,,,,,,,,,,,,,,,,,,,,,,,,,,,,,111,001,2023-03-02_09h07.09.268,eb_01,2022.2.4,119.98699745902935,
9,stimuli/9.png,l,1,0,1,0,77,0,77,0,0,0,0,0,,,,,,,,,,,,,,,,,,418.83273510560684,418.83273510560684,418.83273510560684,418.83273510560684,l,1,0.36627591551223304,419.22437478888605,419.22437478888605,419.22437478888605,,,,,,,,,,,,,,,,,,,,,,,,,,,,111,001,2023-03-02_09h07.09.268,eb_01,2022.2.4,119.98699745902935,
,,,1,0,1,0,77,0,77,0,,,,,,,,,,,,,,,,,,,,,,,,,,,,,,,,,,,,,,,,,,,,,,,,,,,,,,,,,,,111,001,2023-03-02_09h07.09.268,eb_01,2022.2.4,119.98699745902935,
5,stimuli/5.png,s,1,0,1,0,78,0,78,0,0,0,0,0,,,,,,,,,,,,,,,,,,420.2245130388037,420.2245130388037,420.2245130388037,420.2245130388037,s,1,0.4945721422263887,420.74122090374294,420.74122090374294,420.74122090374294,,,,,,,,,,,,,,,,,,,,,,,,,,,,111,001,2023-03-02_09h07.09.268,eb_01,2022.2.4,119.98699745902935,
,,,1,0,1,0,78,0,78,0,,,,,,,,,,,,,,,,,,,,,,,,,,,,,,,,,,,,,,,,,,,,,,,,,,,,,,,,,,,111,001,2023-03-02_09h07.09.268,eb_01,2022.2.4,119.98699745902935,
9,stimuli/9.png,l,1,0,1,0,79,0,79,0,0,0,0,0,,,,,,,,,,,,,,,,,,421.75800196870114,421.75800196870114,421.75800196870114,421.75800196870114,l,1,0.33710608817636967,422.12471501046093,422.12471501046093,422.12471501046093,,,,,,,,,,,,,,,,,,,,,,,,,,,,111,001,2023-03-02_09h07.09.268,eb_01,2022.2.4,119.98699745902935,
,,,1,0,1,0,79,0,79,0,,,,,,,,,,,,,,,,,,,,,,,,,,,,,,,,,,,,,,,,,,,,,,,,,,,,,,,,,,,111,001,2023-03-02_09h07.09.268,eb_01,2022.2.4,119.98699745902935,
8,stimuli/8.png,l,1,0,1,0,80,0,80,0,0,0,0,0,,,,,,,,,,,,,,,,,,423.12477870202565,423.12477870202565,423.12477870202565,423.12477870202565,l,1,0.38639037316897884,423.5331698684022,423.5331698684022,423.5331698684022,,,,,,,,,,,,,,,,,,,,,,,,,,,,111,001,2023-03-02_09h07.09.268,eb_01,2022.2.4,119.98699745902935,
,,,1,0,1,0,80,0,80,0,,,,,,,,,,,,,,,,,,,,,,,,,,,,,,,,,,,,,,,,,,,,,,,,,,,,,,,,,,,111,001,2023-03-02_09h07.09.268,eb_01,2022.2.4,119.98699745902935,
6,stimuli/6.png,s,1,0,1,0,81,0,81,0,0,0,0,0,,,,,,,,,,,,,,,,,,424.5582903012837,424.5582903012837,424.5582903012837,424.5582903012837,s,1,0.4649365515069803,425.0500023997447,425.0500023997447,425.0500023997447,,,,,,,,,,,,,,,,,,,,,,,,,,,,111,001,2023-03-02_09h07.09.268,eb_01,2022.2.4,119.98699745902935,
,,,1,0,1,0,81,0,81,0,,,,,,,,,,,,,,,,,,,,,,,,,,,,,,,,,,,,,,,,,,,,,,,,,,,,,,,,,,,111,001,2023-03-02_09h07.09.268,eb_01,2022.2.4,119.98699745902935,
5,stimuli/5.png,s,1,0,1,0,82,0,82,0,0,0,0,0,,,,,,,,,,,,,,,,,,426.05009235275793,426.05009235275793,426.05009235275793,426.05009235275793,s,1,0.4282580631697783,426.50016828456137,426.50016828456137,426.50016828456137,,,,,,,,,,,,,,,,,,,,,,,,,,,,111,001,2023-03-02_09h07.09.268,eb_01,2022.2.4,119.98699745902935,
,,,1,0,1,0,82,0,82,0,,,,,,,,,,,,,,,,,,,,,,,,,,,,,,,,,,,,,,,,,,,,,,,,,,,,,,,,,,,111,001,2023-03-02_09h07.09.268,eb_01,2022.2.4,119.98699745902935,
6,stimuli/6.png,s,1,0,1,0,83,0,83,0,0,0,0,0,,,,,,,,,,,,,,,,,,427.5252666819724,427.5252666819724,427.5252666819724,427.5252666819724,s,1,0.4330895657913061,427.9836786613014,427.9836786613014,427.9836786613014,,,,,,,,,,,,,,,,,,,,,,,,,,,,111,001,2023-03-02_09h07.09.268,eb_01,2022.2.4,119.98699745902935,
,,,1,0,1,0,83,0,83,0,,,,,,,,,,,,,,,,,,,,,,,,,,,,,,,,,,,,,,,,,,,,,,,,,,,,,,,,,,,111,001,2023-03-02_09h07.09.268,eb_01,2022.2.4,119.98699745902935,
8,stimuli/8.png,l,1,0,1,0,84,0,84,0,0,0,0,0,,,,,,,,,,,,,,,,,,428.9837568419316,428.9837568419316,428.9837568419316,428.9837568419316,l,1,0.2946295551810181,429.3004840860085,429.3004840860085,429.3004840860085,,,,,,,,,,,,,,,,,,,,,,,,,,,,111,001,2023-03-02_09h07.09.268,eb_01,2022.2.4,119.98699745902935,
,,,1,0,1,0,84,0,84,0,,,,,,,,,,,,,,,,,,,,,,,,,,,,,,,,,,,,,,,,,,,,,,,,,,,,,,,,,,,111,001,2023-03-02_09h07.09.268,eb_01,2022.2.4,119.98699745902935,
3,stimuli/3.png,l,1,0,1,0,85,0,85,0,0,0,0,0,,,,,,,,,,,,,,,,,,430.3088838250842,430.3088838250842,430.3088838250842,430.3088838250842,l,1,0.44162996963132173,430.7589470789535,430.7589470789535,430.7589470789535,431.76738636112714,431.76738636112714,431.76738636112714,,,,,,,,,,,,,,,,,,,,,,,,,111,001,2023-03-02_09h07.09.268,eb_01,2022.2.4,119.98699745902935,
,,,1,0,1,0,85,0,85,0,,,,,,,,,,,,,,,,,,,,,,,,,,,,,,,,,,,,,,,,,,,,,,,,,,,,,,,,,,,111,001,2023-03-02_09h07.09.268,eb_01,2022.2.4,119.98699745902935,
8,stimuli/8.png,l,1,0,1,0,86,0,86,0,0,0,0,0,,,,,,,,,,,,,,,,,,431.76738636112714,431.76738636112714,431.76738636112714,431.76738636112714,l,1,0.3271487735764822,432.11742338373733,432.11742338373733,432.11742338373733,,,,,,,,,,,,,,,,,,,,,,,,,,,,111,001,2023-03-02_09h07.09.268,eb_01,2022.2.4,119.98699745902935,
,,,1,0,1,0,86,0,86,0,,,,,,,,,,,,,,,,,,,,,,,,,,,,,,,,,,,,,,,,,,,,,,,,,,,,,,,,,,,111,001,2023-03-02_09h07.09.268,eb_01,2022.2.4,119.98699745902935,
6,stimuli/6.png,s,1,0,1,0,87,0,87,0,0,0,0,0,,,,,,,,,,,,,,,,,,433.1425308368198,433.1425308368198,433.1425308368198,433.1425308368198,s,1,0.3600235780177172,433.53423119310173,433.53423119310173,433.53423119310173,,,,,,,,,,,,,,,,,,,,,,,,,,,,111,001,2023-03-02_09h07.09.268,eb_01,2022.2.4,119.98699745902935,
,,,1,0,1,0,87,0,87,0,,,,,,,,,,,,,,,,,,,,,,,,,,,,,,,,,,,,,,,,,,,,,,,,,,,,,,,,,,,111,001,2023-03-02_09h07.09.268,eb_01,2022.2.4,119.98699745902935,
8,stimuli/8.png,l,1,0,1,0,88,0,88,0,0,0,0,0,,,,,,,,,,,,,,,,,,434.53434921869484,434.53434921869484,434.53434921869484,434.53434921869484,l,1,0.2723015895462595,434.826063188666,434.826063188666,434.826063188666,,,,,,,,,,,,,,,,,,,,,,,,,,,,111,001,2023-03-02_09h07.09.268,eb_01,2022.2.4,119.98699745902935,
,,,1,0,1,0,88,0,88,0,,,,,,,,,,,,,,,,,,,,,,,,,,,,,,,,,,,,,,,,,,,,,,,,,,,,,,,,,,,111,001,2023-03-02_09h07.09.268,eb_01,2022.2.4,119.98699745902935,
3,stimuli/3.png,l,1,0,1,0,89,0,89,0,0,0,0,0,,,,,,,,,,,,,,,,,,435.8345066968177,435.8345066968177,435.8345066968177,435.8345066968177,l,1,0.4122280152369058,436.25952679285547,436.25952679285547,436.25952679285547,437.27630725409836,437.27630725409836,437.27630725409836,,,,,,,,,,,,,,,,,,,,,,,,,111,001,2023-03-02_09h07.09.268,eb_01,2022.2.4,119.98699745902935,
,,,1,0,1,0,89,0,89,0,,,,,,,,,,,,,,,,,,,,,,,,,,,,,,,,,,,,,,,,,,,,,,,,,,,,,,,,,,,111,001,2023-03-02_09h07.09.268,eb_01,2022.2.4,119.98699745902935,
4,stimuli/4.png,l,1,0,1,0,90,0,90,0,0,0,0,0,,,,,,,,,,,,,,,,,,437.27630725409836,437.27630725409836,437.27630725409836,437.27630725409836,l,1,0.6104922844824614,437.90970046554867,437.90970046554867,437.90970046554867,,,,,,,,,,,,,,,,,,,,,,,,,,,,111,001,2023-03-02_09h07.09.268,eb_01,2022.2.4,119.98699745902935,
,,,1,0,1,0,90,0,90,0,,,,,,,,,,,,,,,,,,,,,,,,,,,,,,,,,,,,,,,,,,,,,,,,,,,,,,,,,,,111,001,2023-03-02_09h07.09.268,eb_01,2022.2.4,119.98699745902935,
1,stimuli/1.png,s,1,0,1,0,91,0,91,0,0,0,0,0,,,,,,,,,,,,,,,,,,438.9348208984302,438.9348208984302,438.9348208984302,438.9348208984302,s,1,0.5840062563220272,439.5515438259754,439.5515438259754,439.5515438259754,,,,,,,,,,,,,,,,,,,,,,,,,,,,111,001,2023-03-02_09h07.09.268,eb_01,2022.2.4,119.98699745902935,
,,,1,0,1,0,91,0,91,0,,,,,,,,,,,,,,,,,,,,,,,,,,,,,,,,,,,,,,,,,,,,,,,,,,,,,,,,,,,111,001,2023-03-02_09h07.09.268,eb_01,2022.2.4,119.98699745902935,
4,stimuli/4.png,l,1,0,1,0,92,0,92,0,0,0,0,0,,,,,,,,,,,,,,,,,,440.55998823969276,440.55998823969276,440.55998823969276,440.55998823969276,l,1,0.46291049593128264,441.04337817600754,441.04337817600754,441.04337817600754,,,,,,,,,,,,,,,,,,,,,,,,,,,,111,001,2023-03-02_09h07.09.268,eb_01,2022.2.4,119.98699745902935,
,,,1,0,1,0,92,0,92,0,,,,,,,,,,,,,,,,,,,,,,,,,,,,,,,,,,,,,,,,,,,,,,,,,,,,,,,,,,,111,001,2023-03-02_09h07.09.268,eb_01,2022.2.4,119.98699745902935,
3,stimuli/3.png,l,1,0,1,0,93,0,93,0,0,0,0,0,,,,,,,,,,,,,,,,,,442.0518186656118,442.0518186656118,442.0518186656118,442.0518186656118,l,1,0.43415753133012913,442.50185082833923,442.50185082833923,442.50185082833923,443.51030973113666,443.51030973113666,443.51030973113666,,,,,,,,,,,,,,,,,,,,,,,,,111,001,2023-03-02_09h07.09.268,eb_01,2022.2.4,119.98699745902935,
,,,1,0,1,0,93,0,93,0,,,,,,,,,,,,,,,,,,,,,,,,,,,,,,,,,,,,,,,,,,,,,,,,,,,,,,,,,,,111,001,2023-03-02_09h07.09.268,eb_01,2022.2.4,119.98699745902935,
2,stimuli/2.png,s,1,0,1,0,94,0,94,0,0,0,0,0,,,,,,,,,,,,,,,,,,443.51030973113666,443.51030973113666,443.51030973113666,443.51030973113666,s,1,0.5677401572320377,444.0937240875646,444.0937240875646,444.0937240875646,445.1104794947896,445.1104794947896,445.1104794947896,,,,,,,,,,,,,,,,,,,,,,,,,111,001,2023-03-02_09h07.09.268,eb_01,2022.2.4,119.98699745902935,
,,,1,0,1,0,94,0,94,0,,,,,,,,,,,,,,,,,,,,,,,,,,,,,,,,,,,,,,,,,,,,,,,,,,,,,,,,,,,111,001,2023-03-02_09h07.09.268,eb_01,2022.2.4,119.98699745902935,
4,stimuli/4.png,l,1,0,1,0,95,0,95,0,0,0,0,0,,,,,,,,,,,,,,,,,,445.1104794947896,445.1104794947896,445.1104794947896,445.1104794947896,l,1,0.41562026980682276,445.5438803129946,445.5438803129946,445.5438803129946,,,,,,,,,,,,,,,,,,,,,,,,,,,,111,001,2023-03-02_09h07.09.268,eb_01,2022.2.4,119.98699745902935,
,,,1,0,1,0,95,0,95,0,,,,,,,,,,,,,,,,,,,,,,,,,,,,,,,,,,,,,,,,,,,,,,,,,,,,,,,,,,,111,001,2023-03-02_09h07.09.268,eb_01,2022.2.4,119.98699745902935,
2,stimuli/2.png,s,1,0,1,0,96,0,96,0,0,0,0,0,,,,,,,,,,,,,,,,,,446.5523008801101,446.5523008801101,446.5523008801101,446.5523008801101,s,1,0.5258969175483799,447.0940298674104,447.0940298674104,447.0940298674104,448.102467942168,448.102467942168,448.102467942168,,,,,,,,,,,,,,,,,,,,,,,,,111,001,2023-03-02_09h07.09.268,eb_01,2022.2.4,119.98699745902935,
,,,1,0,1,0,96,0,96,0,,,,,,,,,,,,,,,,,,,,,,,,,,,,,,,,,,,,,,,,,,,,,,,,,,,,,,,,,,,111,001,2023-03-02_09h07.09.268,eb_01,2022.2.4,119.98699745902935,
3,stimuli/3.png,l,1,0,1,0,97,0,97,0,0,0,0,0,,,,,,,,,,,,,,,,,,448.102467942168,448.102467942168,448.102467942168,448.102467942168,l,1,0.415787497870042,448.5274998105742,448.5274998105742,448.5274998105742,449.5442998924409,449.5442998924409,449.5442998924409,,,,,,,,,,,,,,,,,,,,,,,,,111,001,2023-03-02_09h07.09.268,eb_01,2022.2.4,119.98699745902935,
,,,1,0,1,0,97,0,97,0,,,,,,,,,,,,,,,,,,,,,,,,,,,,,,,,,,,,,,,,,,,,,,,,,,,,,,,,,,,111,001,2023-03-02_09h07.09.268,eb_01,2022.2.4,119.98699745902935,
4,stimuli/4.png,l,1,0,1,0,98,0,98,0,0,0,0,0,,,,,,,,,,,,,,,,,,449.5442998924409,449.5442998924409,449.5442998924409,449.5442998924409,s,0,0.5019594572222559,450.0693425974896,450.0693425974896,450.0693425974896,,,,,,,,,,,,,,,,,,,,,,,,,,,,111,001,2023-03-02_09h07.09.268,eb_01,2022.2.4,119.98699745902935,
,,,1,0,1,0,98,0,98,0,,,,,,,,,,,,,,,,,,,,,,,,,,,,,,,,,,,,,,,,,,,,,,,,,,,,,,,,,,,111,001,2023-03-02_09h07.09.268,eb_01,2022.2.4,119.98699745902935,
3,stimuli/3.png,l,1,0,1,0,99,0,99,0,0,0,0,0,,,,,,,,,,,,,,,,,,451.07777071099554,451.07777071099554,451.07777071099554,451.07777071099554,l,1,0.4245458415389294,451.51949912476994,451.51949912476994,451.51949912476994,,,,,,,,,,,,,,,,,,,,,,,,,,,,111,001,2023-03-02_09h07.09.268,eb_01,2022.2.4,119.98699745902935,
,,,1,0,1,0,99,0,99,0,,,,,,,,,,,,,,,,,,,,,,,,,,,,,,,,,,,,,,,,,,,,,,,,,,,,,,,,,,,111,001,2023-03-02_09h07.09.268,eb_01,2022.2.4,119.98699745902935,
,,,1,0,1,0,,,,,,,,,,,,,,,,,,,,,,,,,,,,,,,,,,,,,,,452.5195972278743,452.5195972278743,return,3.2949299016181612,,,,,,,,,,,,,,,,,,,,,111,001,2023-03-02_09h07.09.268,eb_01,2022.2.4,119.98699745902935,
8,stimuli/8.png,l,2,0,2,0,0,0,0,0,0,0,0,0,,,,,,,,,,,,,,,,,,455.84496056404896,455.84496056404896,455.84496056404896,455.84496056404896,l,1,0.5855840561562218,456.45335982016695,456.45335982016695,456.45335982016695,,,,,,,,,,,,,,,,,,,,,,,,,,,,111,001,2023-03-02_09h07.09.268,eb_01,2022.2.4,119.98699745902935,
,,,2,0,2,0,0,0,0,0,,,,,,,,,,,,,,,,,,,,,,,,,,,,,,,,,,,,,,,,,,,,,,,,,,,,,,,,,,,111,001,2023-03-02_09h07.09.268,eb_01,2022.2.4,119.98699745902935,
3,stimuli/3.png,l,2,0,2,0,1,0,1,0,0,0,0,0,,,,,,,,,,,,,,,,,,457.46178672625683,457.46178672625683,457.46178672625683,457.46178672625683,l,1,0.4238391973049147,457.895167923838,457.895167923838,457.895167923838,458.9036497676716,458.9036497676716,458.9036497676716,,,,,,,,,,,,,,,,,,,,,,,,,111,001,2023-03-02_09h07.09.268,eb_01,2022.2.4,119.98699745902935,
,,,2,0,2,0,1,0,1,0,,,,,,,,,,,,,,,,,,,,,,,,,,,,,,,,,,,,,,,,,,,,,,,,,,,,,,,,,,,111,001,2023-03-02_09h07.09.268,eb_01,2022.2.4,119.98699745902935,
2,stimuli/2.png,s,2,0,2,0,2,0,2,0,0,0,0,0,,,,,,,,,,,,,,,,,,458.9036497676716,458.9036497676716,458.9036497676716,458.9036497676716,s,1,0.5019947743421653,459.4203449546767,459.4203449546767,459.4203449546767,460.4287966129341,460.4287966129341,460.4287966129341,,,,,,,,,,,,,,,,,,,,,,,,,111,001,2023-03-02_09h07.09.268,eb_01,2022.2.4,119.98699745902935,
,,,2,0,2,0,2,0,2,0,,,,,,,,,,,,,,,,,,,,,,,,,,,,,,,,,,,,,,,,,,,,,,,,,,,,,,,,,,,111,001,2023-03-02_09h07.09.268,eb_01,2022.2.4,119.98699745902935,
3,stimuli/3.png,l,2,0,2,0,3,0,3,0,0,0,0,0,,,,,,,,,,,,,,,,,,460.4287966129341,460.4287966129341,460.4287966129341,460.4287966129341,l,1,0.36088024455239065,460.80383634469763,460.80383634469763,460.80383634469763,461.8206020150101,461.8206020150101,461.8206020150101,,,,,,,,,,,,,,,,,,,,,,,,,111,001,2023-03-02_09h07.09.268,eb_01,2022.2.4,119.98699745902935,
,,,2,0,2,0,3,0,3,0,,,,,,,,,,,,,,,,,,,,,,,,,,,,,,,,,,,,,,,,,,,,,,,,,,,,,,,,,,,111,001,2023-03-02_09h07.09.268,eb_01,2022.2.4,119.98699745902935,
4,stimuli/4.png,l,2,0,2,0,4,0,4,0,0,0,0,0,,,,,,,,,,,,,,,,,,461.8206020150101,461.8206020150101,461.8206020150101,461.8206020150101,l,1,0.5371389300562441,462.3789955509419,462.3789955509419,462.3789955509419,,,,,,,,,,,,,,,,,,,,,,,,,,,,111,001,2023-03-02_09h07.09.268,eb_01,2022.2.4,119.98699745902935,
,,,2,0,2,0,4,0,4,0,,,,,,,,,,,,,,,,,,,,,,,,,,,,,,,,,,,,,,,,,,,,,,,,,,,,,,,,,,,111,001,2023-03-02_09h07.09.268,eb_01,2022.2.4,119.98699745902935,
1,stimuli/1.png,s,2,0,2,0,5,0,5,0,0,0,0,0,,,,,,,,,,,,,,,,,,463.4041054188856,463.4041054188856,463.4041054188856,463.4041054188856,s,1,0.529781800636556,463.9625119346165,463.9625119346165,463.9625119346165,,,,,,,,,,,,,,,,,,,,,,,,,,,,111,001,2023-03-02_09h07.09.268,eb_01,2022.2.4,119.98699745902935,
,,,2,0,2,0,5,0,5,0,,,,,,,,,,,,,,,,,,,,,,,,,,,,,,,,,,,,,,,,,,,,,,,,,,,,,,,,,,,111,001,2023-03-02_09h07.09.268,eb_01,2022.2.4,119.98699745902935,
4,stimuli/4.png,l,2,0,2,0,6,0,6,0,0,0,0,0,,,,,,,,,,,,,,,,,,464.97096842256724,464.97096842256724,464.97096842256724,464.97096842256724,l,1,0.4029112384887412,465.396001800269,465.396001800269,465.396001800269,,,,,,,,,,,,,,,,,,,,,,,,,,,,111,001,2023-03-02_09h07.09.268,eb_01,2022.2.4,119.98699745902935,
,,,2,0,2,0,6,0,6,0,,,,,,,,,,,,,,,,,,,,,,,,,,,,,,,,,,,,,,,,,,,,,,,,,,,,,,,,,,,111,001,2023-03-02_09h07.09.268,eb_01,2022.2.4,119.98699745902935,
1,stimuli/1.png,s,2,0,2,0,7,0,7,0,0,0,0,0,,,,,,,,,,,,,,,,,,466.42107755850884,466.42107755850884,466.42107755850884,466.42107755850884,s,1,0.5448945090465713,466.9961908826808,466.9961908826808,466.9961908826808,,,,,,,,,,,,,,,,,,,,,,,,,,,,111,001,2023-03-02_09h07.09.268,eb_01,2022.2.4,119.98699745902935,
,,,2,0,2,0,7,0,7,0,,,,,,,,,,,,,,,,,,,,,,,,,,,,,,,,,,,,,,,,,,,,,,,,,,,,,,,,,,,111,001,2023-03-02_09h07.09.268,eb_01,2022.2.4,119.98699745902935,
2,stimuli/2.png,s,2,0,2,0,8,0,8,0,0,0,0,0,,,,,,,,,,,,,,,,,,467.99627932641306,467.99627932641306,467.99627932641306,467.99627932641306,l,0,0.5697493088955525,468.58801976912946,468.58801976912946,468.58801976912946,,,,,,,,,,,,,,,,,,,,,,,,,,,,111,001,2023-03-02_09h07.09.268,eb_01,2022.2.4,119.98699745902935,
,,,2,0,2,0,8,0,8,0,,,,,,,,,,,,,,,,,,,,,,,,,,,,,,,,,,,,,,,,,,,,,,,,,,,,,,,,,,,111,001,2023-03-02_09h07.09.268,eb_01,2022.2.4,119.98699745902935,
1,stimuli/1.png,s,2,0,2,0,9,0,9,0,0,0,0,0,,,,,,,,,,,,,,,,,,469.6130916032416,469.6130916032416,469.6130916032416,469.6130916032416,s,1,0.45697148465842474,470.0964730876003,470.0964730876003,470.0964730876003,,,,,,,,,,,,,,,,,,,,,,,,,,,,111,001,2023-03-02_09h07.09.268,eb_01,2022.2.4,119.98699745902935,
,,,2,0,2,0,9,0,9,0,,,,,,,,,,,,,,,,,,,,,,,,,,,,,,,,,,,,,,,,,,,,,,,,,,,,,,,,,,,111,001,2023-03-02_09h07.09.268,eb_01,2022.2.4,119.98699745902935,
2,stimuli/2.png,s,2,0,2,0,10,0,10,0,0,0,0,0,,,,,,,,,,,,,,,,,,471.096615563496,471.096615563496,471.096615563496,471.096615563496,s,1,0.4535620243259473,471.563289031983,471.563289031983,471.563289031983,472.5800725117733,472.5800725117733,472.5800725117733,,,,,,,,,,,,,,,,,,,,,,,,,111,001,2023-03-02_09h07.09.268,eb_01,2022.2.4,119.98699745902935,
,,,2,0,2,0,10,0,10,0,,,,,,,,,,,,,,,,,,,,,,,,,,,,,,,,,,,,,,,,,,,,,,,,,,,,,,,,,,,111,001,2023-03-02_09h07.09.268,eb_01,2022.2.4,119.98699745902935,
4,stimuli/4.png,l,2,0,2,0,11,0,11,0,0,0,0,0,,,,,,,,,,,,,,,,,,472.5800725117733,472.5800725117733,472.5800725117733,472.5800725117733,l,1,0.569201138918288,473.1718072192307,473.1718072192307,473.1718072192307,,,,,,,,,,,,,,,,,,,,,,,,,,,,111,001,2023-03-02_09h07.09.268,eb_01,2022.2.4,119.98699745902935,
,,,2,0,2,0,11,0,11,0,,,,,,,,,,,,,,,,,,,,,,,,,,,,,,,,,,,,,,,,,,,,,,,,,,,,,,,,,,,111,001,2023-03-02_09h07.09.268,eb_01,2022.2.4,119.98699745902935,
