index,stimulus,correct_answer,block.thisRepN,block.thisTrialN,block.thisN,block.thisIndex,trial.thisRepN,trial.thisTrialN,trial.thisN,trial.thisIndex,display_row.thisRepN,display_row.thisTrialN,display_row.thisN,display_row.thisIndex,pair_questions.thisRepN,pair_questions.thisTrialN,pair_questions.thisN,pair_questions.thisIndex,welcome_text.started,instructions_0_keypress.started,instructions_0_keypress.keys,instructions_0_keypress.rt,instructions_1_keypress.started,instructions_1_text.started,instructions_1_keypress.keys,instructions_1_keypress.rt,instructions_2_keypress.started,instructions_2_text.started,instructions_2_keypress.keys,instructions_2_keypress.rt,text_countdown.started,image.started,size_question.started,size_resp.started,keypress_options.started,size_resp.keys,size_resp.corr,size_resp.rt,fb_image.started,fb.started,fb_size_question.started,fb_image.stopped,fb.stopped,fb_size_question.stopped,block_break_text.started,block_break_keypress.started,block_break_keypress.keys,block_break_keypress.rt,seq_reveal.started,seq_reveal_adv.started,seq_reveal_adv.keys,seq_reveal_adv.rt,instruction_2afc_text.started,instruction_2afc_keypress.started,instruction_2afc_keypress.keys,instruction_2afc_keypress.rt,dist_2afc_test.started,dist_2afc_resp.started,text.started,stim_00.started,stim_01.started,stim_10.started,stim_11.started,dist_2afc_resp.keys,dist_2afc_resp.rt,graph.started,debrief_text.started,debriefing_title.started,participant,session,date,expName,psychopyVersion,frameRate,
,,,,,,,,,,,,,,,,,,,17.872504535276676,17.872504535276676,return,3.2568252589553595,,,,,,,,,,,,,,,,,,,,,,,,,,,,,,,,,,,,,,,,,,,,,,,112,001,2010-10-15_11h15.37.215,eb_01,2022.2.4,119.99253875404543,
,,,,,,,,,,,,,,,,,,,,,,,21.139182169164997,21.139182169164997,return,22.349558837595396,,,,,,,,,,,,,,,,,,,,,,,,,,,,,,,,,,,,,,,,,,,112,001,2010-10-15_11h15.37.215,eb_01,2022.2.4,119.99253875404543,
,,,,,,,,,,,,,,,,,,,,,,,,,,,43.49936098474427,43.49936098474427,space,4.900696960889036,,,,,,,,,,,,,,,,,,,,,,,,,,,,,,,,,,,,,,,112,001,2010-10-15_11h15.37.215,eb_01,2022.2.4,119.99253875404543,
3,stimuli/3.png,l,0,0,0,0,0,0,0,0,0,0,0,0,,,,,,,,,,,,,,,,,48.416477960476186,53.43354573473334,53.43354573473334,53.43354573473334,53.43354573473334,l,1,1.9104639029537793,55.36705343640642,55.36705343640642,55.36705343640642,,,,,,,,,,,,,,,,,,,,,,,,,,,,112,001,2010-10-15_11h15.37.215,eb_01,2022.2.4,119.99253875404543,
,,,0,0,0,0,0,0,0,0,,,,,,,,,,,,,,,,,,,,,,,,,,,,,,,,,,,,,,,,,,,,,,,,,,,,,,,,,,,112,001,2010-10-15_11h15.37.215,eb_01,2022.2.4,119.99253875404543,
2,stimuli/2.png,s,0,0,0,0,1,0,1,0,0,0,0,0,,,,,,,,,,,,,,,,,,56.37549284467241,56.37549284467241,56.37549284467241,56.37549284467241,s,1,0.9525190749554895,57.342238998331595,57.342238998331595,57.342238998331595,58.350675689958734,58.350675689958734,58.350675689958734,,,,,,,,,,,,,,,,,,,,,,,,,112,001,2010-10-15_11h15.37.215,eb_01,2022.2.4,119.99253875404543,
,,,0,0,0,0,1,0,1,0,,,,,,,,,,,,,,,,,,,,,,,,,,,,,,,,,,,,,,,,,,,,,,,,,,,,,,,,,,,112,001,2010-10-15_11h15.37.215,eb_01,2022.2.4,119.99253875404543,
3,stimuli/3.png,l,0,0,0,0,2,0,2,0,0,0,0,0,,,,,,,,,,,,,,,,,,58.350675689958734,58.350675689958734,58.350675689958734,58.350675689958734,l,1,0.6734209407004528,59.03405284177279,59.03405284177279,59.03405284177279,60.05080820186413,60.05080820186413,60.05080820186413,,,,,,,,,,,,,,,,,,,,,,,,,112,001,2010-10-15_11h15.37.215,eb_01,2022.2.4,119.99253875404543,
,,,0,0,0,0,2,0,2,0,,,,,,,,,,,,,,,,,,,,,,,,,,,,,,,,,,,,,,,,,,,,,,,,,,,,,,,,,,,112,001,2010-10-15_11h15.37.215,eb_01,2022.2.4,119.99253875404543,
8,stimuli/8.png,l,0,0,0,0,3,0,3,0,0,0,0,0,,,,,,,,,,,,,,,,,,60.05080820186413,60.05080820186413,60.05080820186413,60.05080820186413,l,1,1.1163122356520034,61.18420633219648,61.18420633219648,61.18420633219648,,,,,,,,,,,,,,,,,,,,,,,,,,,,112,001,2010-10-15_11h15.37.215,eb_01,2022.2.4,119.99253875404543,
,,,0,0,0,0,3,0,3,0,,,,,,,,,,,,,,,,,,,,,,,,,,,,,,,,,,,,,,,,,,,,,,,,,,,,,,,,,,,112,001,2010-10-15_11h15.37.215,eb_01,2022.2.4,119.99253875404543,
6,stimuli/6.png,s,0,0,0,0,4,0,4,0,0,0,0,0,,,,,,,,,,,,,,,,,,62.20934254175518,62.20934254175518,62.20934254175518,62.20934254175518,s,1,0.5818135622830596,62.817719467188,62.817719467188,62.817719467188,,,,,,,,,,,,,,,,,,,,,,,,,,,,112,001,2010-10-15_11h15.37.215,eb_01,2022.2.4,119.99253875404543,
,,,0,0,0,0,4,0,4,0,,,,,,,,,,,,,,,,,,,,,,,,,,,,,,,,,,,,,,,,,,,,,,,,,,,,,,,,,,,112,001,2010-10-15_11h15.37.215,eb_01,2022.2.4,119.99253875404543,
8,stimuli/8.png,l,0,0,0,0,5,0,5,0,0,0,0,0,,,,,,,,,,,,,,,,,,63.81776685753721,63.81776685753721,63.81776685753721,63.81776685753721,l,1,1.4613886186562013,65.30126988055417,65.30126988055417,65.30126988055417,,,,,,,,,,,,,,,,,,,,,,,,,,,,112,001,2010-10-15_11h15.37.215,eb_01,2022.2.4,119.99253875404543,
,,,0,0,0,0,5,0,5,0,,,,,,,,,,,,,,,,,,,,,,,,,,,,,,,,,,,,,,,,,,,,,,,,,,,,,,,,,,,112,001,2010-10-15_11h15.37.215,eb_01,2022.2.4,119.99253875404543,
6,stimuli/6.png,s,0,0,0,0,6,0,6,0,0,0,0,0,,,,,,,,,,,,,,,,,,66.32634239987237,66.32634239987237,66.32634239987237,66.32634239987237,s,1,0.7528837090940215,67.10973705895594,67.10973705895594,67.10973705895594,,,,,,,,,,,,,,,,,,,,,,,,,,,,112,001,2010-10-15_11h15.37.215,eb_01,2022.2.4,119.99253875404543,
,,,0,0,0,0,6,0,6,0,,,,,,,,,,,,,,,,,,,,,,,,,,,,,,,,,,,,,,,,,,,,,,,,,,,,,,,,,,,112,001,2010-10-15_11h15.37.215,eb_01,2022.2.4,119.99253875404543,
8,stimuli/8.png,l,0,0,0,0,7,0,7,0,0,0,0,0,,,,,,,,,,,,,,,,,,68.10979350481648,68.10979350481648,68.10979350481648,68.10979350481648,l,1,0.8014896175009198,68.93491039599758,68.93491039599758,68.93491039599758,,,,,,,,,,,,,,,,,,,,,,,,,,,,112,001,2010-10-15_11h15.37.215,eb_01,2022.2.4,119.99253875404543,
,,,0,0,0,0,7,0,7,0,,,,,,,,,,,,,,,,,,,,,,,,,,,,,,,,,,,,,,,,,,,,,,,,,,,,,,,,,,,112,001,2010-10-15_11h15.37.215,eb_01,2022.2.4,119.99253875404543,
6,stimuli/6.png,s,0,0,0,0,8,0,8,0,0,0,0,0,,,,,,,,,,,,,,,,,,69.96000223368173,69.96000223368173,69.96000223368173,69.96000223368173,s,1,1.055320539540844,71.04342677586828,71.04342677586828,71.04342677586828,,,,,,,,,,,,,,,,,,,,,,,,,,,,112,001,2010-10-15_11h15.37.215,eb_01,2022.2.4,119.99253875404543,
,,,0,0,0,0,8,0,8,0,,,,,,,,,,,,,,,,,,,,,,,,,,,,,,,,,,,,,,,,,,,,,,,,,,,,,,,,,,,112,001,2010-10-15_11h15.37.215,eb_01,2022.2.4,119.99253875404543,
9,stimuli/9.png,l,0,0,0,0,9,0,9,0,0,0,0,0,,,,,,,,,,,,,,,,,,72.05182634000084,72.05182634000084,72.05182634000084,72.05182634000084,s,0,1.3955443910963368,73.47695168296923,73.47695168296923,73.47695168296923,,,,,,,,,,,,,,,,,,,,,,,,,,,,112,001,2010-10-15_11h15.37.215,eb_01,2022.2.4,119.99253875404543,
,,,0,0,0,0,9,0,9,0,,,,,,,,,,,,,,,,,,,,,,,,,,,,,,,,,,,,,,,,,,,,,,,,,,,,,,,,,,,112,001,2010-10-15_11h15.37.215,eb_01,2022.2.4,119.99253875404543,
6,stimuli/6.png,s,0,0,0,0,10,0,10,0,0,0,0,0,,,,,,,,,,,,,,,,,,74.49370160975377,74.49370160975377,74.49370160975377,74.49370160975377,s,1,1.112710568238981,75.63544134914991,75.63544134914991,75.63544134914991,,,,,,,,,,,,,,,,,,,,,,,,,,,,112,001,2010-10-15_11h15.37.215,eb_01,2022.2.4,119.99253875404543,
,,,0,0,0,0,10,0,10,0,,,,,,,,,,,,,,,,,,,,,,,,,,,,,,,,,,,,,,,,,,,,,,,,,,,,,,,,,,,112,001,2010-10-15_11h15.37.215,eb_01,2022.2.4,119.99253875404543,
9,stimuli/9.png,l,0,0,0,0,11,0,11,0,0,0,0,0,,,,,,,,,,,,,,,,,,76.64388347405475,76.64388347405475,76.64388347405475,76.64388347405475,l,1,1.1945763599360362,77.86899945969344,77.86899945969344,77.86899945969344,,,,,,,,,,,,,,,,,,,,,,,,,,,,112,001,2010-10-15_11h15.37.215,eb_01,2022.2.4,119.99253875404543,
,,,0,0,0,0,11,0,11,0,,,,,,,,,,,,,,,,,,,,,,,,,,,,,,,,,,,,,,,,,,,,,,,,,,,,,,,,,,,112,001,2010-10-15_11h15.37.215,eb_01,2022.2.4,119.99253875404543,
6,stimuli/6.png,s,0,0,0,0,12,0,12,0,0,0,0,0,,,,,,,,,,,,,,,,,,78.8857605549274,78.8857605549274,78.8857605549274,78.8857605549274,s,1,0.416743880341528,79.32747856114293,79.32747856114293,79.32747856114293,,,,,,,,,,,,,,,,,,,,,,,,,,,,112,001,2010-10-15_11h15.37.215,eb_01,2022.2.4,119.99253875404543,
,,,0,0,0,0,12,0,12,0,,,,,,,,,,,,,,,,,,,,,,,,,,,,,,,,,,,,,,,,,,,,,,,,,,,,,,,,,,,112,001,2010-10-15_11h15.37.215,eb_01,2022.2.4,119.99253875404543,
5,stimuli/5.png,s,0,0,0,0,13,0,13,0,0,0,0,0,,,,,,,,,,,,,,,,,,80.3275606641837,80.3275606641837,80.3275606641837,80.3275606641837,s,1,0.9909713722008746,81.33591525277006,81.33591525277006,81.33591525277006,,,,,,,,,,,,,,,,,,,,,,,,,,,,112,001,2010-10-15_11h15.37.215,eb_01,2022.2.4,119.99253875404543,
,,,0,0,0,0,13,0,13,0,,,,,,,,,,,,,,,,,,,,,,,,,,,,,,,,,,,,,,,,,,,,,,,,,,,,,,,,,,,112,001,2010-10-15_11h15.37.215,eb_01,2022.2.4,119.99253875404543,
9,stimuli/9.png,l,0,0,0,0,14,0,14,0,0,0,0,0,,,,,,,,,,,,,,,,,,82.35271196623216,82.35271196623216,82.35271196623216,82.35271196623216,l,1,1.6538469106017146,84.03614707311499,84.03614707311499,84.03614707311499,,,,,,,,,,,,,,,,,,,,,,,,,,,,112,001,2010-10-15_11h15.37.215,eb_01,2022.2.4,119.99253875404543,
,,,0,0,0,0,14,0,14,0,,,,,,,,,,,,,,,,,,,,,,,,,,,,,,,,,,,,,,,,,,,,,,,,,,,,,,,,,,,112,001,2010-10-15_11h15.37.215,eb_01,2022.2.4,119.99253875404543,
5,stimuli/5.png,s,0,0,0,0,15,0,15,0,0,0,0,0,,,,,,,,,,,,,,,,,,85.03623460946255,85.03623460946255,85.03623460946255,85.03623460946255,s,1,1.3703964093874674,86.42804483068176,86.42804483068176,86.42804483068176,,,,,,,,,,,,,,,,,,,,,,,,,,,,112,001,2010-10-15_11h15.37.215,eb_01,2022.2.4,119.99253875404543,
,,,0,0,0,0,15,0,15,0,,,,,,,,,,,,,,,,,,,,,,,,,,,,,,,,,,,,,,,,,,,,,,,,,,,,,,,,,,,112,001,2010-10-15_11h15.37.215,eb_01,2022.2.4,119.99253875404543,
9,stimuli/9.png,l,0,0,0,0,16,0,16,0,0,0,0,0,,,,,,,,,,,,,,,,,,87.44479837967083,87.44479837967083,87.44479837967083,87.44479837967083,l,1,1.489908560353797,88.96156460634666,88.96156460634666,88.96156460634666,,,,,,,,,,,,,,,,,,,,,,,,,,,,112,001,2010-10-15_11h15.37.215,eb_01,2022.2.4,119.99253875404543,
,,,0,0,0,0,16,0,16,0,,,,,,,,,,,,,,,,,,,,,,,,,,,,,,,,,,,,,,,,,,,,,,,,,,,,,,,,,,,112,001,2010-10-15_11h15.37.215,eb_01,2022.2.4,119.99253875404543,
8,stimuli/8.png,l,0,0,0,0,17,0,17,0,0,0,0,0,,,,,,,,,,,,,,,,,,89.9700178996718,89.9700178996718,89.9700178996718,89.9700178996718,l,1,1.0366919018852059,91.02843361275154,91.02843361275154,91.02843361275154,,,,,,,,,,,,,,,,,,,,,,,,,,,,112,001,2010-10-15_11h15.37.215,eb_01,2022.2.4,119.99253875404543,
,,,0,0,0,0,17,0,17,0,,,,,,,,,,,,,,,,,,,,,,,,,,,,,,,,,,,,,,,,,,,,,,,,,,,,,,,,,,,112,001,2010-10-15_11h15.37.215,eb_01,2022.2.4,119.99253875404543,
9,stimuli/9.png,l,0,0,0,0,18,0,18,0,0,0,0,0,,,,,,,,,,,,,,,,,,92.04518414323684,92.04518414323684,92.04518414323684,92.04518414323684,l,1,0.6405531598138623,92.71188290655846,92.71188290655846,92.71188290655846,,,,,,,,,,,,,,,,,,,,,,,,,,,,112,001,2010-10-15_11h15.37.215,eb_01,2022.2.4,119.99253875404543,
,,,0,0,0,0,18,0,18,0,,,,,,,,,,,,,,,,,,,,,,,,,,,,,,,,,,,,,,,,,,,,,,,,,,,,,,,,,,,112,001,2010-10-15_11h15.37.215,eb_01,2022.2.4,119.99253875404543,
8,stimuli/8.png,l,0,0,0,0,19,0,19,0,0,0,0,0,,,,,,,,,,,,,,,,,,93.71200515559758,93.71200515559758,93.71200515559758,93.71200515559758,l,1,0.37377953782561235,94.10371576651232,94.10371576651232,94.10371576651232,,,,,,,,,,,,,,,,,,,,,,,,,,,,112,001,2010-10-15_11h15.37.215,eb_01,2022.2.4,119.99253875404543,
,,,0,0,0,0,19,0,19,0,,,,,,,,,,,,,,,,,,,,,,,,,,,,,,,,,,,,,,,,,,,,,,,,,,,,,,,,,,,112,001,2010-10-15_11h15.37.215,eb_01,2022.2.4,119.99253875404543,
6,stimuli/6.png,s,0,0,0,0,20,0,20,0,0,0,0,0,,,,,,,,,,,,,,,,,,95.12883265770506,95.12883265770506,95.12883265770506,95.12883265770506,s,1,0.5569644115457777,95.71214793037507,95.71214793037507,95.71214793037507,,,,,,,,,,,,,,,,,,,,,,,,,,,,112,001,2010-10-15_11h15.37.215,eb_01,2022.2.4,119.99253875404543,
,,,0,0,0,0,20,0,20,0,,,,,,,,,,,,,,,,,,,,,,,,,,,,,,,,,,,,,,,,,,,,,,,,,,,,,,,,,,,112,001,2010-10-15_11h15.37.215,eb_01,2022.2.4,119.99253875404543,
5,stimuli/5.png,s,0,0,0,0,21,0,21,0,0,0,0,0,,,,,,,,,,,,,,,,,,96.71223033528076,96.71223033528076,96.71223033528076,96.71223033528076,s,1,0.6535975830047391,97.3873105517414,97.3873105517414,97.3873105517414,,,,,,,,,,,,,,,,,,,,,,,,,,,,112,001,2010-10-15_11h15.37.215,eb_01,2022.2.4,119.99253875404543,
,,,0,0,0,0,21,0,21,0,,,,,,,,,,,,,,,,,,,,,,,,,,,,,,,,,,,,,,,,,,,,,,,,,,,,,,,,,,,112,001,2010-10-15_11h15.37.215,eb_01,2022.2.4,119.99253875404543,
9,stimuli/9.png,l,0,0,0,0,22,0,22,0,0,0,0,0,,,,,,,,,,,,,,,,,,98.40409488938167,98.40409488938167,98.40409488938167,98.40409488938167,l,1,0.793745670322096,99.22911850910168,99.22911850910168,99.22911850910168,,,,,,,,,,,,,,,,,,,,,,,,,,,,112,001,2010-10-15_11h15.37.215,eb_01,2022.2.4,119.99253875404543,
,,,0,0,0,0,22,0,22,0,,,,,,,,,,,,,,,,,,,,,,,,,,,,,,,,,,,,,,,,,,,,,,,,,,,,,,,,,,,112,001,2010-10-15_11h15.37.215,eb_01,2022.2.4,119.99253875404543,
5,stimuli/5.png,s,0,0,0,0,23,0,23,0,0,0,0,0,,,,,,,,,,,,,,,,,,100.22927848930703,100.22927848930703,100.22927848930703,100.22927848930703,s,1,0.5446447288559284,100.79593861589092,100.79593861589092,100.79593861589092,,,,,,,,,,,,,,,,,,,,,,,,,,,,112,001,2010-10-15_11h15.37.215,eb_01,2022.2.4,119.99253875404543,
,,,0,0,0,0,23,0,23,0,,,,,,,,,,,,,,,,,,,,,,,,,,,,,,,,,,,,,,,,,,,,,,,,,,,,,,,,,,,112,001,2010-10-15_11h15.37.215,eb_01,2022.2.4,119.99253875404543,
9,stimuli/9.png,l,0,0,0,0,24,0,24,0,0,0,0,0,,,,,,,,,,,,,,,,,,101.81266741323634,101.81266741323634,101.81266741323634,101.81266741323634,l,1,0.56127150109387,102.40442420711042,102.40442420711042,102.40442420711042,,,,,,,,,,,,,,,,,,,,,,,,,,,,112,001,2010-10-15_11h15.37.215,eb_01,2022.2.4,119.99253875404543,
,,,0,0,0,0,24,0,24,0,,,,,,,,,,,,,,,,,,,,,,,,,,,,,,,,,,,,,,,,,,,,,,,,,,,,,,,,,,,112,001,2010-10-15_11h15.37.215,eb_01,2022.2.4,119.99253875404543,
5,stimuli/5.png,s,0,0,0,0,25,0,25,0,0,0,0,0,,,,,,,,,,,,,,,,,,103.40451053605648,103.40451053605648,103.40451053605648,103.40451053605648,s,1,0.5614779661118519,103.98788557492662,103.98788557492662,103.98788557492662,,,,,,,,,,,,,,,,,,,,,,,,,,,,112,001,2010-10-15_11h15.37.215,eb_01,2022.2.4,119.99253875404543,
,,,0,0,0,0,25,0,25,0,,,,,,,,,,,,,,,,,,,,,,,,,,,,,,,,,,,,,,,,,,,,,,,,,,,,,,,,,,,112,001,2010-10-15_11h15.37.215,eb_01,2022.2.4,119.99253875404543,
9,stimuli/9.png,l,0,0,0,0,26,0,26,0,0,0,0,0,,,,,,,,,,,,,,,,,,105.00463338877307,105.00463338877307,105.00463338877307,105.00463338877307,l,1,0.5293654124834575,105.56301106882165,105.56301106882165,105.56301106882165,,,,,,,,,,,,,,,,,,,,,,,,,,,,112,001,2010-10-15_11h15.37.215,eb_01,2022.2.4,119.99253875404543,
,,,0,0,0,0,26,0,26,0,,,,,,,,,,,,,,,,,,,,,,,,,,,,,,,,,,,,,,,,,,,,,,,,,,,,,,,,,,,112,001,2010-10-15_11h15.37.215,eb_01,2022.2.4,119.99253875404543,
8,stimuli/8.png,l,0,0,0,0,27,0,27,0,0,0,0,0,,,,,,,,,,,,,,,,,,106.56310192550882,106.56310192550882,106.56310192550882,106.56310192550882,l,1,0.7939319114375394,107.37981834702077,107.37981834702077,107.37981834702077,,,,,,,,,,,,,,,,,,,,,,,,,,,,112,001,2010-10-15_11h15.37.215,eb_01,2022.2.4,119.99253875404543,
,,,0,0,0,0,27,0,27,0,,,,,,,,,,,,,,,,,,,,,,,,,,,,,,,,,,,,,,,,,,,,,,,,,,,,,,,,,,,112,001,2010-10-15_11h15.37.215,eb_01,2022.2.4,119.99253875404543,
6,stimuli/6.png,s,0,0,0,0,28,0,28,0,0,0,0,0,,,,,,,,,,,,,,,,,,108.40493554004934,108.40493554004934,108.40493554004934,108.40493554004934,s,1,0.5761221912689507,109.01330823957687,109.01330823957687,109.01330823957687,,,,,,,,,,,,,,,,,,,,,,,,,,,,112,001,2010-10-15_11h15.37.215,eb_01,2022.2.4,119.99253875404543,
,,,0,0,0,0,28,0,28,0,,,,,,,,,,,,,,,,,,,,,,,,,,,,,,,,,,,,,,,,,,,,,,,,,,,,,,,,,,,112,001,2010-10-15_11h15.37.215,eb_01,2022.2.4,119.99253875404543,
8,stimuli/8.png,l,0,0,0,0,29,0,29,0,0,0,0,0,,,,,,,,,,,,,,,,,,110.01336559097399,110.01336559097399,110.01336559097399,110.01336559097399,l,1,0.4077345803671051,110.43843660104903,110.43843660104903,110.43843660104903,,,,,,,,,,,,,,,,,,,,,,,,,,,,112,001,2010-10-15_11h15.37.215,eb_01,2022.2.4,119.99253875404543,
,,,0,0,0,0,29,0,29,0,,,,,,,,,,,,,,,,,,,,,,,,,,,,,,,,,,,,,,,,,,,,,,,,,,,,,,,,,,,112,001,2010-10-15_11h15.37.215,eb_01,2022.2.4,119.99253875404543,
9,stimuli/9.png,l,0,0,0,0,30,0,30,0,0,0,0,0,,,,,,,,,,,,,,,,,,111.45519980922109,111.45519980922109,111.45519980922109,111.45519980922109,s,0,0.41391977708553895,111.8968550307618,111.8968550307618,111.8968550307618,,,,,,,,,,,,,,,,,,,,,,,,,,,,112,001,2010-10-15_11h15.37.215,eb_01,2022.2.4,119.99253875404543,
,,,0,0,0,0,30,0,30,0,,,,,,,,,,,,,,,,,,,,,,,,,,,,,,,,,,,,,,,,,,,,,,,,,,,,,,,,,,,112,001,2010-10-15_11h15.37.215,eb_01,2022.2.4,119.99253875404543,
5,stimuli/5.png,s,0,0,0,0,31,0,31,0,0,0,0,0,,,,,,,,,,,,,,,,,,112.89694196340861,112.89694196340861,112.89694196340861,112.89694196340861,s,1,0.5482460944331251,113.46368721153704,113.46368721153704,113.46368721153704,,,,,,,,,,,,,,,,,,,,,,,,,,,,112,001,2010-10-15_11h15.37.215,eb_01,2022.2.4,119.99253875404543,
,,,0,0,0,0,31,0,31,0,,,,,,,,,,,,,,,,,,,,,,,,,,,,,,,,,,,,,,,,,,,,,,,,,,,,,,,,,,,112,001,2010-10-15_11h15.37.215,eb_01,2022.2.4,119.99253875404543,
6,stimuli/6.png,s,0,0,0,0,32,0,32,0,0,0,0,0,,,,,,,,,,,,,,,,,,114.48878750103177,114.48878750103177,114.48878750103177,114.48878750103177,s,1,0.6764584515476599,115.19714963581646,115.19714963581646,115.19714963581646,,,,,,,,,,,,,,,,,,,,,,,,,,,,112,001,2010-10-15_11h15.37.215,eb_01,2022.2.4,119.99253875404543,
,,,0,0,0,0,32,0,32,0,,,,,,,,,,,,,,,,,,,,,,,,,,,,,,,,,,,,,,,,,,,,,,,,,,,,,,,,,,,112,001,2010-10-15_11h15.37.215,eb_01,2022.2.4,119.99253875404543,
9,stimuli/9.png,l,0,0,0,0,33,0,33,0,0,0,0,0,,,,,,,,,,,,,,,,,,116.20560111803934,116.20560111803934,116.20560111803934,116.20560111803934,l,1,0.543644701683661,116.78063907561591,116.78063907561591,116.78063907561591,,,,,,,,,,,,,,,,,,,,,,,,,,,,112,001,2010-10-15_11h15.37.215,eb_01,2022.2.4,119.99253875404543,
,,,0,0,0,0,33,0,33,0,,,,,,,,,,,,,,,,,,,,,,,,,,,,,,,,,,,,,,,,,,,,,,,,,,,,,,,,,,,112,001,2010-10-15_11h15.37.215,eb_01,2022.2.4,119.99253875404543,
8,stimuli/8.png,l,0,0,0,0,34,0,34,0,0,0,0,0,,,,,,,,,,,,,,,,,,117.78071514167823,117.78071514167823,117.78071514167823,117.78071514167823,l,1,0.6805391539819539,118.48075136361877,118.48075136361877,118.48075136361877,,,,,,,,,,,,,,,,,,,,,,,,,,,,112,001,2010-10-15_11h15.37.215,eb_01,2022.2.4,119.99253875404543,
,,,0,0,0,0,34,0,34,0,,,,,,,,,,,,,,,,,,,,,,,,,,,,,,,,,,,,,,,,,,,,,,,,,,,,,,,,,,,112,001,2010-10-15_11h15.37.215,eb_01,2022.2.4,119.99253875404543,
3,stimuli/3.png,l,0,0,0,0,35,0,35,0,0,0,0,0,,,,,,,,,,,,,,,,,,119.48918382931151,119.48918382931151,119.48918382931151,119.48918382931151,l,1,0.5160988281131722,120.01422495630686,120.01422495630686,120.01422495630686,121.02266889231396,121.02266889231396,121.02266889231396,,,,,,,,,,,,,,,,,,,,,,,,,112,001,2010-10-15_11h15.37.215,eb_01,2022.2.4,119.99253875404543,
,,,0,0,0,0,35,0,35,0,,,,,,,,,,,,,,,,,,,,,,,,,,,,,,,,,,,,,,,,,,,,,,,,,,,,,,,,,,,112,001,2010-10-15_11h15.37.215,eb_01,2022.2.4,119.99253875404543,
8,stimuli/8.png,l,0,0,0,0,36,0,36,0,0,0,0,0,,,,,,,,,,,,,,,,,,121.02266889231396,121.02266889231396,121.02266889231396,121.02266889231396,l,1,0.574650977156125,121.61441361220204,121.61441361220204,121.61441361220204,,,,,,,,,,,,,,,,,,,,,,,,,,,,112,001,2010-10-15_11h15.37.215,eb_01,2022.2.4,119.99253875404543,
,,,0,0,0,0,36,0,36,0,,,,,,,,,,,,,,,,,,,,,,,,,,,,,,,,,,,,,,,,,,,,,,,,,,,,,,,,,,,112,001,2010-10-15_11h15.37.215,eb_01,2022.2.4,119.99253875404543,
9,stimuli/9.png,l,0,0,0,0,37,0,37,0,0,0,0,0,,,,,,,,,,,,,,,,,,122.63112037454266,122.63112037454266,122.63112037454266,122.63112037454266,l,1,0.3812288799381349,123.03953171079047,123.03953171079047,123.03953171079047,,,,,,,,,,,,,,,,,,,,,,,,,,,,112,001,2010-10-15_11h15.37.215,eb_01,2022.2.4,119.99253875404543,
,,,0,0,0,0,37,0,37,0,,,,,,,,,,,,,,,,,,,,,,,,,,,,,,,,,,,,,,,,,,,,,,,,,,,,,,,,,,,112,001,2010-10-15_11h15.37.215,eb_01,2022.2.4,119.99253875404543,
5,stimuli/5.png,s,0,0,0,0,38,0,38,0,0,0,0,0,,,,,,,,,,,,,,,,,,124.03955797170056,124.03955797170056,124.03955797170056,124.03955797170056,s,1,0.3648263818467967,124.42296802508645,124.42296802508645,124.42296802508645,,,,,,,,,,,,,,,,,,,,,,,,,,,,112,001,2010-10-15_11h15.37.215,eb_01,2022.2.4,119.99253875404543,
,,,0,0,0,0,38,0,38,0,,,,,,,,,,,,,,,,,,,,,,,,,,,,,,,,,,,,,,,,,,,,,,,,,,,,,,,,,,,112,001,2010-10-15_11h15.37.215,eb_01,2022.2.4,119.99253875404543,
9,stimuli/9.png,l,0,0,0,0,39,0,39,0,0,0,0,0,,,,,,,,,,,,,,,,,,125.43970889641787,125.43970889641787,125.43970889641787,125.43970889641787,s,0,0.19670077625778504,125.66474126974936,125.66474126974936,125.66474126974936,,,,,,,,,,,,,,,,,,,,,,,,,,,,112,001,2010-10-15_11h15.37.215,eb_01,2022.2.4,119.99253875404543,
,,,0,0,0,0,39,0,39,0,,,,,,,,,,,,,,,,,,,,,,,,,,,,,,,,,,,,,,,,,,,,,,,,,,,,,,,,,,,112,001,2010-10-15_11h15.37.215,eb_01,2022.2.4,119.99253875404543,
6,stimuli/6.png,s,0,0,0,0,40,0,40,0,0,0,0,0,,,,,,,,,,,,,,,,,,126.68144954135641,126.68144954135641,126.68144954135641,126.68144954135641,s,1,0.651004998217104,127.36488887414453,127.36488887414453,127.36488887414453,,,,,,,,,,,,,,,,,,,,,,,,,,,,112,001,2010-10-15_11h15.37.215,eb_01,2022.2.4,119.99253875404543,
,,,0,0,0,0,40,0,40,0,,,,,,,,,,,,,,,,,,,,,,,,,,,,,,,,,,,,,,,,,,,,,,,,,,,,,,,,,,,112,001,2010-10-15_11h15.37.215,eb_01,2022.2.4,119.99253875404543,
5,stimuli/5.png,s,0,0,0,0,41,0,41,0,0,0,0,0,,,,,,,,,,,,,,,,,,128.36492902011378,128.36492902011378,128.36492902011378,128.36492902011378,s,1,0.5755187942704652,128.96497701416956,128.96497701416956,128.96497701416956,,,,,,,,,,,,,,,,,,,,,,,,,,,,112,001,2010-10-15_11h15.37.215,eb_01,2022.2.4,119.99253875404543,
,,,0,0,0,0,41,0,41,0,,,,,,,,,,,,,,,,,,,,,,,,,,,,,,,,,,,,,,,,,,,,,,,,,,,,,,,,,,,112,001,2010-10-15_11h15.37.215,eb_01,2022.2.4,119.99253875404543,
9,stimuli/9.png,l,0,0,0,0,42,0,42,0,0,0,0,0,,,,,,,,,,,,,,,,,,129.98177674613544,129.98177674613544,129.98177674613544,129.98177674613544,l,1,0.6067505512328353,130.61515163406148,130.61515163406148,130.61515163406148,,,,,,,,,,,,,,,,,,,,,,,,,,,,112,001,2010-10-15_11h15.37.215,eb_01,2022.2.4,119.99253875404543,
,,,0,0,0,0,42,0,42,0,,,,,,,,,,,,,,,,,,,,,,,,,,,,,,,,,,,,,,,,,,,,,,,,,,,,,,,,,,,112,001,2010-10-15_11h15.37.215,eb_01,2022.2.4,119.99253875404543,
8,stimuli/8.png,l,0,0,0,0,43,0,43,0,0,0,0,0,,,,,,,,,,,,,,,,,,131.61520506141824,131.61520506141824,131.61520506141824,131.61520506141824,l,1,0.6293406608165242,132.26529033388942,132.26529033388942,132.26529033388942,,,,,,,,,,,,,,,,,,,,,,,,,,,,112,001,2010-10-15_11h15.37.215,eb_01,2022.2.4,119.99253875404543,
,,,0,0,0,0,43,0,43,0,,,,,,,,,,,,,,,,,,,,,,,,,,,,,,,,,,,,,,,,,,,,,,,,,,,,,,,,,,,112,001,2010-10-15_11h15.37.215,eb_01,2022.2.4,119.99253875404543,
3,stimuli/3.png,l,0,0,0,0,44,0,44,0,0,0,0,0,,,,,,,,,,,,,,,,,,133.27368204991217,133.27368204991217,133.27368204991217,133.27368204991217,l,1,0.5789124873990659,133.86542707166518,133.86542707166518,133.86542707166518,134.87383297464112,134.87383297464112,134.87383297464112,,,,,,,,,,,,,,,,,,,,,,,,,112,001,2010-10-15_11h15.37.215,eb_01,2022.2.4,119.99253875404543,
,,,0,0,0,0,44,0,44,0,,,,,,,,,,,,,,,,,,,,,,,,,,,,,,,,,,,,,,,,,,,,,,,,,,,,,,,,,,,112,001,2010-10-15_11h15.37.215,eb_01,2022.2.4,119.99253875404543,
8,stimuli/8.png,l,0,0,0,0,45,0,45,0,0,0,0,0,,,,,,,,,,,,,,,,,,134.87383297464112,134.87383297464112,134.87383297464112,134.87383297464112,l,1,0.7628166683425661,135.65724725392647,135.65724725392647,135.65724725392647,,,,,,,,,,,,,,,,,,,,,,,,,,,,112,001,2010-10-15_11h15.37.215,eb_01,2022.2.4,119.99253875404543,
,,,0,0,0,0,45,0,45,0,,,,,,,,,,,,,,,,,,,,,,,,,,,,,,,,,,,,,,,,,,,,,,,,,,,,,,,,,,,112,001,2010-10-15_11h15.37.215,eb_01,2022.2.4,119.99253875404543,
9,stimuli/9.png,l,0,0,0,0,46,0,46,0,0,0,0,0,,,,,,,,,,,,,,,,,,136.67400653805817,136.67400653805817,136.67400653805817,136.67400653805817,l,1,0.5466149000858422,137.2740551358147,137.2740551358147,137.2740551358147,,,,,,,,,,,,,,,,,,,,,,,,,,,,112,001,2010-10-15_11h15.37.215,eb_01,2022.2.4,119.99253875404543,
,,,0,0,0,0,46,0,46,0,,,,,,,,,,,,,,,,,,,,,,,,,,,,,,,,,,,,,,,,,,,,,,,,,,,,,,,,,,,112,001,2010-10-15_11h15.37.215,eb_01,2022.2.4,119.99253875404543,
6,stimuli/6.png,s,0,0,0,0,47,0,47,0,0,0,0,0,,,,,,,,,,,,,,,,,,138.2908331346116,138.2908331346116,138.2908331346116,138.2908331346116,s,1,0.560825971304439,138.8825361992931,138.8825361992931,138.8825361992931,,,,,,,,,,,,,,,,,,,,,,,,,,,,112,001,2010-10-15_11h15.37.215,eb_01,2022.2.4,119.99253875404543,
,,,0,0,0,0,47,0,47,0,,,,,,,,,,,,,,,,,,,,,,,,,,,,,,,,,,,,,,,,,,,,,,,,,,,,,,,,,,,112,001,2010-10-15_11h15.37.215,eb_01,2022.2.4,119.99253875404543,
5,stimuli/5.png,s,0,0,0,0,48,0,48,0,0,0,0,0,,,,,,,,,,,,,,,,,,139.88262222637422,139.88262222637422,139.88262222637422,139.88262222637422,s,1,0.5530919852026273,140.45765746731195,140.45765746731195,140.45765746731195,,,,,,,,,,,,,,,,,,,,,,,,,,,,112,001,2010-10-15_11h15.37.215,eb_01,2022.2.4,119.99253875404543,
,,,0,0,0,0,48,0,48,0,,,,,,,,,,,,,,,,,,,,,,,,,,,,,,,,,,,,,,,,,,,,,,,,,,,,,,,,,,,112,001,2010-10-15_11h15.37.215,eb_01,2022.2.4,119.99253875404543,
6,stimuli/6.png,s,0,0,0,0,49,0,49,0,0,0,0,0,,,,,,,,,,,,,,,,,,141.48274749389384,141.48274749389384,141.48274749389384,141.48274749389384,s,1,0.448991360666696,141.95777156637632,141.95777156637632,141.95777156637632,,,,,,,,,,,,,,,,,,,,,,,,,,,,112,001,2010-10-15_11h15.37.215,eb_01,2022.2.4,119.99253875404543,
,,,0,0,0,0,49,0,49,0,,,,,,,,,,,,,,,,,,,,,,,,,,,,,,,,,,,,,,,,,,,,,,,,,,,,,,,,,,,112,001,2010-10-15_11h15.37.215,eb_01,2022.2.4,119.99253875404543,
8,stimuli/8.png,l,0,0,0,0,50,0,50,0,0,0,0,0,,,,,,,,,,,,,,,,,,142.95788475993322,142.95788475993322,142.95788475993322,142.95788475993322,l,1,0.7018793050956447,143.68289660752635,143.68289660752635,143.68289660752635,,,,,,,,,,,,,,,,,,,,,,,,,,,,112,001,2010-10-15_11h15.37.215,eb_01,2022.2.4,119.99253875404543,
,,,0,0,0,0,50,0,50,0,,,,,,,,,,,,,,,,,,,,,,,,,,,,,,,,,,,,,,,,,,,,,,,,,,,,,,,,,,,112,001,2010-10-15_11h15.37.215,eb_01,2022.2.4,119.99253875404543,
6,stimuli/6.png,s,0,0,0,0,51,0,51,0,0,0,0,0,,,,,,,,,,,,,,,,,,144.70800474507269,144.70800474507269,144.70800474507269,144.70800474507269,s,1,0.5597966647474095,145.2997189781745,145.2997189781745,145.2997189781745,,,,,,,,,,,,,,,,,,,,,,,,,,,,112,001,2010-10-15_11h15.37.215,eb_01,2022.2.4,119.99253875404543,
,,,0,0,0,0,51,0,51,0,,,,,,,,,,,,,,,,,,,,,,,,,,,,,,,,,,,,,,,,,,,,,,,,,,,,,,,,,,,112,001,2010-10-15_11h15.37.215,eb_01,2022.2.4,119.99253875404543,
9,stimuli/9.png,l,0,0,0,0,52,0,52,0,0,0,0,0,,,,,,,,,,,,,,,,,,146.30817196966382,146.30817196966382,146.30817196966382,146.30817196966382,l,1,1.007678134541493,147.34159243686008,147.34159243686008,147.34159243686008,,,,,,,,,,,,,,,,,,,,,,,,,,,,112,001,2010-10-15_11h15.37.215,eb_01,2022.2.4,119.99253875404543,
,,,0,0,0,0,52,0,52,0,,,,,,,,,,,,,,,,,,,,,,,,,,,,,,,,,,,,,,,,,,,,,,,,,,,,,,,,,,,112,001,2010-10-15_11h15.37.215,eb_01,2022.2.4,119.99253875404543,
8,stimuli/8.png,l,0,0,0,0,53,0,53,0,0,0,0,0,,,,,,,,,,,,,,,,,,148.34165491969907,148.34165491969907,148.34165491969907,148.34165491969907,l,1,0.6302389647462405,148.99172932558577,148.99172932558577,148.99172932558577,,,,,,,,,,,,,,,,,,,,,,,,,,,,112,001,2010-10-15_11h15.37.215,eb_01,2022.2.4,119.99253875404543,
,,,0,0,0,0,53,0,53,0,,,,,,,,,,,,,,,,,,,,,,,,,,,,,,,,,,,,,,,,,,,,,,,,,,,,,,,,,,,112,001,2010-10-15_11h15.37.215,eb_01,2022.2.4,119.99253875404543,
6,stimuli/6.png,s,0,0,0,0,54,0,54,0,0,0,0,0,,,,,,,,,,,,,,,,,,150.0168208614341,150.0168208614341,150.0168208614341,150.0168208614341,s,1,0.6271115027775522,150.67516533803428,150.67516533803428,150.67516533803428,,,,,,,,,,,,,,,,,,,,,,,,,,,,112,001,2010-10-15_11h15.37.215,eb_01,2022.2.4,119.99253875404543,
,,,0,0,0,0,54,0,54,0,,,,,,,,,,,,,,,,,,,,,,,,,,,,,,,,,,,,,,,,,,,,,,,,,,,,,,,,,,,112,001,2010-10-15_11h15.37.215,eb_01,2022.2.4,119.99253875404543,
5,stimuli/5.png,s,0,0,0,0,55,0,55,0,0,0,0,0,,,,,,,,,,,,,,,,,,151.6752909073839,151.6752909073839,151.6752909073839,151.6752909073839,s,1,0.5526401165989228,152.25029596337117,152.25029596337117,152.25029596337117,,,,,,,,,,,,,,,,,,,,,,,,,,,,112,001,2010-10-15_11h15.37.215,eb_01,2022.2.4,119.99253875404543,
,,,0,0,0,0,55,0,55,0,,,,,,,,,,,,,,,,,,,,,,,,,,,,,,,,,,,,,,,,,,,,,,,,,,,,,,,,,,,112,001,2010-10-15_11h15.37.215,eb_01,2022.2.4,119.99253875404543,
9,stimuli/9.png,l,0,0,0,0,56,0,56,0,0,0,0,0,,,,,,,,,,,,,,,,,,153.26718353352044,153.26718353352044,153.26718353352044,153.26718353352044,l,1,0.8078088353504427,154.10045518894913,154.10045518894913,154.10045518894913,,,,,,,,,,,,,,,,,,,,,,,,,,,,112,001,2010-10-15_11h15.37.215,eb_01,2022.2.4,119.99253875404543,
,,,0,0,0,0,56,0,56,0,,,,,,,,,,,,,,,,,,,,,,,,,,,,,,,,,,,,,,,,,,,,,,,,,,,,,,,,,,,112,001,2010-10-15_11h15.37.215,eb_01,2022.2.4,119.99253875404543,
5,stimuli/5.png,s,0,0,0,0,57,0,57,0,0,0,0,0,,,,,,,,,,,,,,,,,,155.1005451400706,155.1005451400706,155.1005451400706,155.1005451400706,s,1,0.6384725116658956,155.7589327811438,155.7589327811438,155.7589327811438,,,,,,,,,,,,,,,,,,,,,,,,,,,,112,001,2010-10-15_11h15.37.215,eb_01,2022.2.4,119.99253875404543,
,,,0,0,0,0,57,0,57,0,,,,,,,,,,,,,,,,,,,,,,,,,,,,,,,,,,,,,,,,,,,,,,,,,,,,,,,,,,,112,001,2010-10-15_11h15.37.215,eb_01,2022.2.4,119.99253875404543,
9,stimuli/9.png,l,0,0,0,0,58,0,58,0,0,0,0,0,,,,,,,,,,,,,,,,,,156.77569991338532,156.77569991338532,156.77569991338532,156.77569991338532,l,1,0.5073497223493177,157.30913849154604,157.30913849154604,157.30913849154604,,,,,,,,,,,,,,,,,,,,,,,,,,,,112,001,2010-10-15_11h15.37.215,eb_01,2022.2.4,119.99253875404543,
,,,0,0,0,0,58,0,58,0,,,,,,,,,,,,,,,,,,,,,,,,,,,,,,,,,,,,,,,,,,,,,,,,,,,,,,,,,,,112,001,2010-10-15_11h15.37.215,eb_01,2022.2.4,119.99253875404543,
6,stimuli/6.png,s,0,0,0,0,59,0,59,0,0,0,0,0,,,,,,,,,,,,,,,,,,158.32586427038768,158.32586427038768,158.32586427038768,158.32586427038768,s,1,0.5412296043941751,158.89257903172984,158.89257903172984,158.89257903172984,,,,,,,,,,,,,,,,,,,,,,,,,,,,112,001,2010-10-15_11h15.37.215,eb_01,2022.2.4,119.99253875404543,
,,,0,0,0,0,59,0,59,0,,,,,,,,,,,,,,,,,,,,,,,,,,,,,,,,,,,,,,,,,,,,,,,,,,,,,,,,,,,112,001,2010-10-15_11h15.37.215,eb_01,2022.2.4,119.99253875404543,
9,stimuli/9.png,l,0,0,0,0,60,0,60,0,0,0,0,0,,,,,,,,,,,,,,,,,,159.90096048489795,159.90096048489795,159.90096048489795,159.90096048489795,l,1,0.5741456811956596,160.5010302121227,160.5010302121227,160.5010302121227,,,,,,,,,,,,,,,,,,,,,,,,,,,,112,001,2010-10-15_11h15.37.215,eb_01,2022.2.4,119.99253875404543,
,,,0,0,0,0,60,0,60,0,,,,,,,,,,,,,,,,,,,,,,,,,,,,,,,,,,,,,,,,,,,,,,,,,,,,,,,,,,,112,001,2010-10-15_11h15.37.215,eb_01,2022.2.4,119.99253875404543,
5,stimuli/5.png,s,0,0,0,0,61,0,61,0,0,0,0,0,,,,,,,,,,,,,,,,,,161.50113525570487,161.50113525570487,161.50113525570487,161.50113525570487,s,1,0.5260070356889628,162.05113691589213,162.05113691589213,162.05113691589213,,,,,,,,,,,,,,,,,,,,,,,,,,,,112,001,2010-10-15_11h15.37.215,eb_01,2022.2.4,119.99253875404543,
,,,0,0,0,0,61,0,61,0,,,,,,,,,,,,,,,,,,,,,,,,,,,,,,,,,,,,,,,,,,,,,,,,,,,,,,,,,,,112,001,2010-10-15_11h15.37.215,eb_01,2022.2.4,119.99253875404543,
6,stimuli/6.png,s,0,0,0,0,62,0,62,0,0,0,0,0,,,,,,,,,,,,,,,,,,163.076260749629,163.076260749629,163.076260749629,163.076260749629,s,1,0.4389237765863072,163.5429631351435,163.5429631351435,163.5429631351435,,,,,,,,,,,,,,,,,,,,,,,,,,,,112,001,2010-10-15_11h15.37.215,eb_01,2022.2.4,119.99253875404543,
,,,0,0,0,0,62,0,62,0,,,,,,,,,,,,,,,,,,,,,,,,,,,,,,,,,,,,,,,,,,,,,,,,,,,,,,,,,,,112,001,2010-10-15_11h15.37.215,eb_01,2022.2.4,119.99253875404543,
9,stimuli/9.png,l,0,0,0,0,63,0,63,0,0,0,0,0,,,,,,,,,,,,,,,,,,164.5513838287152,164.5513838287152,164.5513838287152,164.5513838287152,l,1,0.5958163574396167,165.17645242399885,165.17645242399885,165.17645242399885,,,,,,,,,,,,,,,,,,,,,,,,,,,,112,001,2010-10-15_11h15.37.215,eb_01,2022.2.4,119.99253875404543,
,,,0,0,0,0,63,0,63,0,,,,,,,,,,,,,,,,,,,,,,,,,,,,,,,,,,,,,,,,,,,,,,,,,,,,,,,,,,,112,001,2010-10-15_11h15.37.215,eb_01,2022.2.4,119.99253875404543,
6,stimuli/6.png,s,0,0,0,0,64,0,64,0,0,0,0,0,,,,,,,,,,,,,,,,,,166.19319993600948,166.19319993600948,166.19319993600948,166.19319993600948,s,1,0.4740089433907997,166.69322166917846,166.69322166917846,166.69322166917846,,,,,,,,,,,,,,,,,,,,,,,,,,,,112,001,2010-10-15_11h15.37.215,eb_01,2022.2.4,119.99253875404543,
,,,0,0,0,0,64,0,64,0,,,,,,,,,,,,,,,,,,,,,,,,,,,,,,,,,,,,,,,,,,,,,,,,,,,,,,,,,,,112,001,2010-10-15_11h15.37.215,eb_01,2022.2.4,119.99253875404543,
9,stimuli/9.png,l,0,0,0,0,65,0,65,0,0,0,0,0,,,,,,,,,,,,,,,,,,167.70166530332062,167.70166530332062,167.70166530332062,167.70166530332062,l,1,0.5016019054746721,168.23502962652128,168.23502962652128,168.23502962652128,,,,,,,,,,,,,,,,,,,,,,,,,,,,112,001,2010-10-15_11h15.37.215,eb_01,2022.2.4,119.99253875404543,
,,,0,0,0,0,65,0,65,0,,,,,,,,,,,,,,,,,,,,,,,,,,,,,,,,,,,,,,,,,,,,,,,,,,,,,,,,,,,112,001,2010-10-15_11h15.37.215,eb_01,2022.2.4,119.99253875404543,
6,stimuli/6.png,s,0,0,0,0,66,0,66,0,0,0,0,0,,,,,,,,,,,,,,,,,,169.2517880051164,169.2517880051164,169.2517880051164,169.2517880051164,s,1,0.3985372282040771,169.67681615258334,169.67681615258334,169.67681615258334,,,,,,,,,,,,,,,,,,,,,,,,,,,,112,001,2010-10-15_11h15.37.215,eb_01,2022.2.4,119.99253875404543,
,,,0,0,0,0,66,0,66,0,,,,,,,,,,,,,,,,,,,,,,,,,,,,,,,,,,,,,,,,,,,,,,,,,,,,,,,,,,,112,001,2010-10-15_11h15.37.215,eb_01,2022.2.4,119.99253875404543,
5,stimuli/5.png,s,0,0,0,0,67,0,67,0,0,0,0,0,,,,,,,,,,,,,,,,,,170.676893727883,170.676893727883,170.676893727883,170.676893727883,s,1,0.5414357675472274,171.2353003854514,171.2353003854514,171.2353003854514,,,,,,,,,,,,,,,,,,,,,,,,,,,,112,001,2010-10-15_11h15.37.215,eb_01,2022.2.4,119.99253875404543,
,,,0,0,0,0,67,0,67,0,,,,,,,,,,,,,,,,,,,,,,,,,,,,,,,,,,,,,,,,,,,,,,,,,,,,,,,,,,,112,001,2010-10-15_11h15.37.215,eb_01,2022.2.4,119.99253875404543,
9,stimuli/9.png,l,0,0,0,0,68,0,68,0,0,0,0,0,,,,,,,,,,,,,,,,,,172.25205544370692,172.25205544370692,172.25205544370692,172.25205544370692,l,1,0.5103024134878069,172.79376650738413,172.79376650738413,172.79376650738413,,,,,,,,,,,,,,,,,,,,,,,,,,,,112,001,2010-10-15_11h15.37.215,eb_01,2022.2.4,119.99253875404543,
,,,0,0,0,0,68,0,68,0,,,,,,,,,,,,,,,,,,,,,,,,,,,,,,,,,,,,,,,,,,,,,,,,,,,,,,,,,,,112,001,2010-10-15_11h15.37.215,eb_01,2022.2.4,119.99253875404543,
5,stimuli/5.png,s,0,0,0,0,69,0,69,0,0,0,0,0,,,,,,,,,,,,,,,,,,173.79385494926828,173.79385494926828,173.79385494926828,173.79385494926828,s,1,0.48053643736056983,174.29386249551317,174.29386249551317,174.29386249551317,,,,,,,,,,,,,,,,,,,,,,,,,,,,112,001,2010-10-15_11h15.37.215,eb_01,2022.2.4,119.99253875404543,
,,,0,0,0,0,69,0,69,0,,,,,,,,,,,,,,,,,,,,,,,,,,,,,,,,,,,,,,,,,,,,,,,,,,,,,,,,,,,112,001,2010-10-15_11h15.37.215,eb_01,2022.2.4,119.99253875404543,
9,stimuli/9.png,l,0,0,0,0,70,0,70,0,0,0,0,0,,,,,,,,,,,,,,,,,,175.31063807950704,175.31063807950704,175.31063807950704,175.31063807950704,l,1,0.4597827797115315,175.8023586514464,175.8023586514464,175.8023586514464,,,,,,,,,,,,,,,,,,,,,,,,,,,,112,001,2010-10-15_11h15.37.215,eb_01,2022.2.4,119.99253875404543,
,,,0,0,0,0,70,0,70,0,,,,,,,,,,,,,,,,,,,,,,,,,,,,,,,,,,,,,,,,,,,,,,,,,,,,,,,,,,,112,001,2010-10-15_11h15.37.215,eb_01,2022.2.4,119.99253875404543,
8,stimuli/8.png,l,0,0,0,0,71,0,71,0,0,0,0,0,,,,,,,,,,,,,,,,,,176.80241087140166,176.80241087140166,176.80241087140166,176.80241087140166,l,1,0.5200304169557057,177.3441231425095,177.3441231425095,177.3441231425095,,,,,,,,,,,,,,,,,,,,,,,,,,,,112,001,2010-10-15_11h15.37.215,eb_01,2022.2.4,119.99253875404543,
,,,0,0,0,0,71,0,71,0,,,,,,,,,,,,,,,,,,,,,,,,,,,,,,,,,,,,,,,,,,,,,,,,,,,,,,,,,,,112,001,2010-10-15_11h15.37.215,eb_01,2022.2.4,119.99253875404543,
9,stimuli/9.png,l,0,0,0,0,72,0,72,0,0,0,0,0,,,,,,,,,,,,,,,,,,178.36089933020412,178.36089933020412,178.36089933020412,178.36089933020412,l,1,0.5455705010681413,178.9359143472102,178.9359143472102,178.9359143472102,,,,,,,,,,,,,,,,,,,,,,,,,,,,112,001,2010-10-15_11h15.37.215,eb_01,2022.2.4,119.99253875404543,
,,,0,0,0,0,72,0,72,0,,,,,,,,,,,,,,,,,,,,,,,,,,,,,,,,,,,,,,,,,,,,,,,,,,,,,,,,,,,112,001,2010-10-15_11h15.37.215,eb_01,2022.2.4,119.99253875404543,
8,stimuli/8.png,l,0,0,0,0,73,0,73,0,0,0,0,0,,,,,,,,,,,,,,,,,,179.936001279857,179.936001279857,179.936001279857,179.936001279857,l,1,0.6024784762121271,180.5610547826509,180.5610547826509,180.5610547826509,,,,,,,,,,,,,,,,,,,,,,,,,,,,112,001,2010-10-15_11h15.37.215,eb_01,2022.2.4,119.99253875404543,
,,,0,0,0,0,73,0,73,0,,,,,,,,,,,,,,,,,,,,,,,,,,,,,,,,,,,,,,,,,,,,,,,,,,,,,,,,,,,112,001,2010-10-15_11h15.37.215,eb_01,2022.2.4,119.99253875404543,
3,stimuli/3.png,l,0,0,0,0,74,0,74,0,0,0,0,0,,,,,,,,,,,,,,,,,,181.5695295072801,181.5695295072801,181.5695295072801,181.5695295072801,l,1,0.6489732497138903,182.22786402286147,182.22786402286147,182.22786402286147,183.23632878647186,183.23632878647186,183.23632878647186,,,,,,,,,,,,,,,,,,,,,,,,,112,001,2010-10-15_11h15.37.215,eb_01,2022.2.4,119.99253875404543,
,,,0,0,0,0,74,0,74,0,,,,,,,,,,,,,,,,,,,,,,,,,,,,,,,,,,,,,,,,,,,,,,,,,,,,,,,,,,,112,001,2010-10-15_11h15.37.215,eb_01,2022.2.4,119.99253875404543,
8,stimuli/8.png,l,0,0,0,0,75,0,75,0,0,0,0,0,,,,,,,,,,,,,,,,,,183.23632878647186,183.23632878647186,183.23632878647186,183.23632878647186,l,1,0.5582693066389766,183.81137610136648,183.81137610136648,183.81137610136648,,,,,,,,,,,,,,,,,,,,,,,,,,,,112,001,2010-10-15_11h15.37.215,eb_01,2022.2.4,119.99253875404543,
,,,0,0,0,0,75,0,75,0,,,,,,,,,,,,,,,,,,,,,,,,,,,,,,,,,,,,,,,,,,,,,,,,,,,,,,,,,,,112,001,2010-10-15_11h15.37.215,eb_01,2022.2.4,119.99253875404543,
9,stimuli/9.png,l,0,0,0,0,76,0,76,0,0,0,0,0,,,,,,,,,,,,,,,,,,184.82811787823448,184.82811787823448,184.82811787823448,184.82811787823448,l,1,0.46150905659305863,185.31983875203878,185.31983875203878,185.31983875203878,,,,,,,,,,,,,,,,,,,,,,,,,,,,112,001,2010-10-15_11h15.37.215,eb_01,2022.2.4,119.99253875404543,
,,,0,0,0,0,76,0,76,0,,,,,,,,,,,,,,,,,,,,,,,,,,,,,,,,,,,,,,,,,,,,,,,,,,,,,,,,,,,112,001,2010-10-15_11h15.37.215,eb_01,2022.2.4,119.99253875404543,
6,stimuli/6.png,s,0,0,0,0,77,0,77,0,0,0,0,0,,,,,,,,,,,,,,,,,,186.3365829437098,186.3365829437098,186.3365829437098,186.3365829437098,s,1,0.48909809460747056,186.85330419481033,186.85330419481033,186.85330419481033,,,,,,,,,,,,,,,,,,,,,,,,,,,,112,001,2010-10-15_11h15.37.215,eb_01,2022.2.4,119.99253875404543,
,,,0,0,0,0,77,0,77,0,,,,,,,,,,,,,,,,,,,,,,,,,,,,,,,,,,,,,,,,,,,,,,,,,,,,,,,,,,,112,001,2010-10-15_11h15.37.215,eb_01,2022.2.4,119.99253875404543,
8,stimuli/8.png,l,0,0,0,0,78,0,78,0,0,0,0,0,,,,,,,,,,,,,,,,,,187.8617445086129,187.8617445086129,187.8617445086129,187.8617445086129,l,1,0.44394474002183415,188.3284148980747,188.3284148980747,188.3284148980747,,,,,,,,,,,,,,,,,,,,,,,,,,,,112,001,2010-10-15_11h15.37.215,eb_01,2022.2.4,119.99253875404543,
,,,0,0,0,0,78,0,78,0,,,,,,,,,,,,,,,,,,,,,,,,,,,,,,,,,,,,,,,,,,,,,,,,,,,,,,,,,,,112,001,2010-10-15_11h15.37.215,eb_01,2022.2.4,119.99253875404543,
3,stimuli/3.png,l,0,0,0,0,79,0,79,0,0,0,0,0,,,,,,,,,,,,,,,,,,189.3368567211437,189.3368567211437,189.3368567211437,189.3368567211437,l,1,0.5528662018186878,189.90355246595573,189.90355246595573,189.90355246595573,190.91193965426646,190.91193965426646,190.91193965426646,,,,,,,,,,,,,,,,,,,,,,,,,112,001,2010-10-15_11h15.37.215,eb_01,2022.2.4,119.99253875404543,
,,,0,0,0,0,79,0,79,0,,,,,,,,,,,,,,,,,,,,,,,,,,,,,,,,,,,,,,,,,,,,,,,,,,,,,,,,,,,112,001,2010-10-15_11h15.37.215,eb_01,2022.2.4,119.99253875404543,
2,stimuli/2.png,s,0,0,0,0,80,0,80,0,0,0,0,0,,,,,,,,,,,,,,,,,,190.91193965426646,190.91193965426646,190.91193965426646,190.91193965426646,s,1,1.161815735627897,192.0870397928229,192.0870397928229,192.0870397928229,193.11216000435525,193.11216000435525,193.11216000435525,,,,,,,,,,,,,,,,,,,,,,,,,112,001,2010-10-15_11h15.37.215,eb_01,2022.2.4,119.99253875404543,
,,,0,0,0,0,80,0,80,0,,,,,,,,,,,,,,,,,,,,,,,,,,,,,,,,,,,,,,,,,,,,,,,,,,,,,,,,,,,112,001,2010-10-15_11h15.37.215,eb_01,2022.2.4,119.99253875404543,
1,stimuli/1.png,s,0,0,0,0,81,0,81,0,0,0,0,0,,,,,,,,,,,,,,,,,,193.11216000435525,193.11216000435525,193.11216000435525,193.11216000435525,s,1,0.5936140639823861,193.7371953961847,193.7371953961847,193.7371953961847,,,,,,,,,,,,,,,,,,,,,,,,,,,,112,001,2010-10-15_11h15.37.215,eb_01,2022.2.4,119.99253875404543,
,,,0,0,0,0,81,0,81,0,,,,,,,,,,,,,,,,,,,,,,,,,,,,,,,,,,,,,,,,,,,,,,,,,,,,,,,,,,,112,001,2010-10-15_11h15.37.215,eb_01,2022.2.4,119.99253875404543,
4,stimuli/4.png,l,0,0,0,0,82,0,82,0,0,0,0,0,,,,,,,,,,,,,,,,,,194.74561729718698,194.74561729718698,194.74561729718698,194.74561729718698,l,1,1.4402063348097727,196.20409368199762,196.20409368199762,196.20409368199762,,,,,,,,,,,,,,,,,,,,,,,,,,,,112,001,2010-10-15_11h15.37.215,eb_01,2022.2.4,119.99253875404543,
,,,0,0,0,0,82,0,82,0,,,,,,,,,,,,,,,,,,,,,,,,,,,,,,,,,,,,,,,,,,,,,,,,,,,,,,,,,,,112,001,2010-10-15_11h15.37.215,eb_01,2022.2.4,119.99253875404543,
3,stimuli/3.png,l,0,0,0,0,83,0,83,0,0,0,0,0,,,,,,,,,,,,,,,,,,197.21252494031796,197.21252494031796,197.21252494031796,197.21252494031796,l,1,1.1253674167382997,198.354276753671,198.354276753671,198.354276753671,199.36266333828098,199.36266333828098,199.36266333828098,,,,,,,,,,,,,,,,,,,,,,,,,112,001,2010-10-15_11h15.37.215,eb_01,2022.2.4,119.99253875404543,
,,,0,0,0,0,83,0,83,0,,,,,,,,,,,,,,,,,,,,,,,,,,,,,,,,,,,,,,,,,,,,,,,,,,,,,,,,,,,112,001,2010-10-15_11h15.37.215,eb_01,2022.2.4,119.99253875404543,
8,stimuli/8.png,l,0,0,0,0,84,0,84,0,0,0,0,0,,,,,,,,,,,,,,,,,,199.36266333828098,199.36266333828098,199.36266333828098,199.36266333828098,l,1,0.5832781357457861,199.96274332838948,199.96274332838948,199.96274332838948,,,,,,,,,,,,,,,,,,,,,,,,,,,,112,001,2010-10-15_11h15.37.215,eb_01,2022.2.4,119.99253875404543,
,,,0,0,0,0,84,0,84,0,,,,,,,,,,,,,,,,,,,,,,,,,,,,,,,,,,,,,,,,,,,,,,,,,,,,,,,,,,,112,001,2010-10-15_11h15.37.215,eb_01,2022.2.4,119.99253875404543,
9,stimuli/9.png,l,0,0,0,0,85,0,85,0,0,0,0,0,,,,,,,,,,,,,,,,,,200.97951257353998,200.97951257353998,200.97951257353998,200.97951257353998,l,1,0.6294327249052003,201.6379080626939,201.6379080626939,201.6379080626939,,,,,,,,,,,,,,,,,,,,,,,,,,,,112,001,2010-10-15_11h15.37.215,eb_01,2022.2.4,119.99253875404543,
,,,0,0,0,0,85,0,85,0,,,,,,,,,,,,,,,,,,,,,,,,,,,,,,,,,,,,,,,,,,,,,,,,,,,,,,,,,,,112,001,2010-10-15_11h15.37.215,eb_01,2022.2.4,119.99253875404543,
5,stimuli/5.png,s,0,0,0,0,86,0,86,0,0,0,0,0,,,,,,,,,,,,,,,,,,202.63797567697475,202.63797567697475,202.63797567697475,202.63797567697475,s,1,0.467044975142926,203.12968568419456,203.12968568419456,203.12968568419456,,,,,,,,,,,,,,,,,,,,,,,,,,,,112,001,2010-10-15_11h15.37.215,eb_01,2022.2.4,119.99253875404543,
,,,0,0,0,0,86,0,86,0,,,,,,,,,,,,,,,,,,,,,,,,,,,,,,,,,,,,,,,,,,,,,,,,,,,,,,,,,,,112,001,2010-10-15_11h15.37.215,eb_01,2022.2.4,119.99253875404543,
6,stimuli/6.png,s,0,0,0,0,87,0,87,0,0,0,0,0,,,,,,,,,,,,,,,,,,204.15478597366018,204.15478597366018,204.15478597366018,204.15478597366018,s,1,0.4942337608663365,204.67981653590687,204.67981653590687,204.67981653590687,,,,,,,,,,,,,,,,,,,,,,,,,,,,112,001,2010-10-15_11h15.37.215,eb_01,2022.2.4,119.99253875404543,
,,,0,0,0,0,87,0,87,0,,,,,,,,,,,,,,,,,,,,,,,,,,,,,,,,,,,,,,,,,,,,,,,,,,,,,,,,,,,112,001,2010-10-15_11h15.37.215,eb_01,2022.2.4,119.99253875404543,
9,stimuli/9.png,l,0,0,0,0,88,0,88,0,0,0,0,0,,,,,,,,,,,,,,,,,,205.68822213704698,205.68822213704698,205.68822213704698,205.68822213704698,l,1,0.6328161551791709,206.34663875566912,206.34663875566912,206.34663875566912,,,,,,,,,,,,,,,,,,,,,,,,,,,,112,001,2010-10-15_11h15.37.215,eb_01,2022.2.4,119.99253875404543,
,,,0,0,0,0,88,0,88,0,,,,,,,,,,,,,,,,,,,,,,,,,,,,,,,,,,,,,,,,,,,,,,,,,,,,,,,,,,,112,001,2010-10-15_11h15.37.215,eb_01,2022.2.4,119.99253875404543,
5,stimuli/5.png,s,0,0,0,0,89,0,89,0,0,0,0,0,,,,,,,,,,,,,,,,,,207.34668886265717,207.34668886265717,207.34668886265717,207.34668886265717,s,1,0.5263952140812762,207.8967705129471,207.8967705129471,207.8967705129471,,,,,,,,,,,,,,,,,,,,,,,,,,,,112,001,2010-10-15_11h15.37.215,eb_01,2022.2.4,119.99253875404543,
,,,0,0,0,0,89,0,89,0,,,,,,,,,,,,,,,,,,,,,,,,,,,,,,,,,,,,,,,,,,,,,,,,,,,,,,,,,,,112,001,2010-10-15_11h15.37.215,eb_01,2022.2.4,119.99253875404543,
6,stimuli/6.png,s,0,0,0,0,90,0,90,0,0,0,0,0,,,,,,,,,,,,,,,,,,208.92182793977554,208.92182793977554,208.92182793977554,208.92182793977554,s,1,0.5352614374132827,209.48852821235778,209.48852821235778,209.48852821235778,,,,,,,,,,,,,,,,,,,,,,,,,,,,112,001,2010-10-15_11h15.37.215,eb_01,2022.2.4,119.99253875404543,
,,,0,0,0,0,90,0,90,0,,,,,,,,,,,,,,,,,,,,,,,,,,,,,,,,,,,,,,,,,,,,,,,,,,,,,,,,,,,112,001,2010-10-15_11h15.37.215,eb_01,2022.2.4,119.99253875404543,
9,stimuli/9.png,l,0,0,0,0,91,0,91,0,0,0,0,0,,,,,,,,,,,,,,,,,,210.4969516225974,210.4969516225974,210.4969516225974,210.4969516225974,l,1,0.5441982935590204,211.07202972614323,211.07202972614323,211.07202972614323,,,,,,,,,,,,,,,,,,,,,,,,,,,,112,001,2010-10-15_11h15.37.215,eb_01,2022.2.4,119.99253875404543,
,,,0,0,0,0,91,0,91,0,,,,,,,,,,,,,,,,,,,,,,,,,,,,,,,,,,,,,,,,,,,,,,,,,,,,,,,,,,,112,001,2010-10-15_11h15.37.215,eb_01,2022.2.4,119.99253875404543,
8,stimuli/8.png,l,0,0,0,0,92,0,92,0,0,0,0,0,,,,,,,,,,,,,,,,,,212.07210609404137,212.07210609404137,212.07210609404137,212.07210609404137,l,1,0.5210651568195317,212.61382862800383,212.61382862800383,212.61382862800383,,,,,,,,,,,,,,,,,,,,,,,,,,,,112,001,2010-10-15_11h15.37.215,eb_01,2022.2.4,119.99253875404543,
,,,0,0,0,0,92,0,92,0,,,,,,,,,,,,,,,,,,,,,,,,,,,,,,,,,,,,,,,,,,,,,,,,,,,,,,,,,,,112,001,2010-10-15_11h15.37.215,eb_01,2022.2.4,119.99253875404543,
6,stimuli/6.png,s,0,0,0,0,93,0,93,0,0,0,0,0,,,,,,,,,,,,,,,,,,213.6389171453484,213.6389171453484,213.6389171453484,213.6389171453484,s,1,0.5462692824949045,214.21393306792015,214.21393306792015,214.21393306792015,,,,,,,,,,,,,,,,,,,,,,,,,,,,112,001,2010-10-15_11h15.37.215,eb_01,2022.2.4,119.99253875404543,
,,,0,0,0,0,93,0,93,0,,,,,,,,,,,,,,,,,,,,,,,,,,,,,,,,,,,,,,,,,,,,,,,,,,,,,,,,,,,112,001,2010-10-15_11h15.37.215,eb_01,2022.2.4,119.99253875404543,
9,stimuli/9.png,l,0,0,0,0,94,0,94,0,0,0,0,0,,,,,,,,,,,,,,,,,,215.22240688701277,215.22240688701277,215.22240688701277,215.22240688701277,l,1,0.5778726161224768,215.83076902179164,215.83076902179164,215.83076902179164,,,,,,,,,,,,,,,,,,,,,,,,,,,,112,001,2010-10-15_11h15.37.215,eb_01,2022.2.4,119.99253875404543,
,,,0,0,0,0,94,0,94,0,,,,,,,,,,,,,,,,,,,,,,,,,,,,,,,,,,,,,,,,,,,,,,,,,,,,,,,,,,,112,001,2010-10-15_11h15.37.215,eb_01,2022.2.4,119.99253875404543,
8,stimuli/8.png,l,0,0,0,0,95,0,95,0,0,0,0,0,,,,,,,,,,,,,,,,,,216.83083965457627,216.83083965457627,216.83083965457627,216.83083965457627,l,1,0.4574081301980186,217.30591202297364,217.30591202297364,217.30591202297364,,,,,,,,,,,,,,,,,,,,,,,,,,,,112,001,2010-10-15_11h15.37.215,eb_01,2022.2.4,119.99253875404543,
,,,0,0,0,0,95,0,95,0,,,,,,,,,,,,,,,,,,,,,,,,,,,,,,,,,,,,,,,,,,,,,,,,,,,,,,,,,,,112,001,2010-10-15_11h15.37.215,eb_01,2022.2.4,119.99253875404543,
6,stimuli/6.png,s,0,0,0,0,96,0,96,0,0,0,0,0,,,,,,,,,,,,,,,,,,218.33098907003296,218.33098907003296,218.33098907003296,218.33098907003296,s,1,0.4853141101775691,218.84769673791016,218.84769673791016,218.84769673791016,,,,,,,,,,,,,,,,,,,,,,,,,,,,112,001,2010-10-15_11h15.37.215,eb_01,2022.2.4,119.99253875404543,
,,,0,0,0,0,96,0,96,0,,,,,,,,,,,,,,,,,,,,,,,,,,,,,,,,,,,,,,,,,,,,,,,,,,,,,,,,,,,112,001,2010-10-15_11h15.37.215,eb_01,2022.2.4,119.99253875404543,
8,stimuli/8.png,l,0,0,0,0,97,0,97,0,0,0,0,0,,,,,,,,,,,,,,,,,,219.84775076896767,219.84775076896767,219.84775076896767,219.84775076896767,l,1,0.5205511072417721,220.38953729500645,220.38953729500645,220.38953729500645,,,,,,,,,,,,,,,,,,,,,,,,,,,,112,001,2010-10-15_11h15.37.215,eb_01,2022.2.4,119.99253875404543,
,,,0,0,0,0,97,0,97,0,,,,,,,,,,,,,,,,,,,,,,,,,,,,,,,,,,,,,,,,,,,,,,,,,,,,,,,,,,,112,001,2010-10-15_11h15.37.215,eb_01,2022.2.4,119.99253875404543,
3,stimuli/3.png,l,0,0,0,0,98,0,98,0,0,0,0,0,,,,,,,,,,,,,,,,,,221.3979148241342,221.3979148241342,221.3979148241342,221.3979148241342,l,1,0.5864221994124819,221.99793504804256,221.99793504804256,221.99793504804256,223.01468467299128,223.01468467299128,223.01468467299128,,,,,,,,,,,,,,,,,,,,,,,,,112,001,2010-10-15_11h15.37.215,eb_01,2022.2.4,119.99253875404543,
,,,0,0,0,0,98,0,98,0,,,,,,,,,,,,,,,,,,,,,,,,,,,,,,,,,,,,,,,,,,,,,,,,,,,,,,,,,,,112,001,2010-10-15_11h15.37.215,eb_01,2022.2.4,119.99253875404543,
4,stimuli/4.png,l,0,0,0,0,99,0,99,0,0,0,0,0,,,,,,,,,,,,,,,,,,223.01468467299128,223.01468467299128,223.01468467299128,223.01468467299128,l,1,1.0977370253531262,224.13152726757107,224.13152726757107,224.13152726757107,,,,,,,,,,,,,,,,,,,,,,,,,,,,112,001,2010-10-15_11h15.37.215,eb_01,2022.2.4,119.99253875404543,
,,,0,0,0,0,99,0,99,0,,,,,,,,,,,,,,,,,,,,,,,,,,,,,,,,,,,,,,,,,,,,,,,,,,,,,,,,,,,112,001,2010-10-15_11h15.37.215,eb_01,2022.2.4,119.99253875404543,
,,,0,0,0,0,,,,,,,,,,,,,,,,,,,,,,,,,,,,,,,,,,,,,,,225.13153481381596,225.13153481381596,return,1.7089232634170912,,,,,,,,,,,,,,,,,,,,,112,001,2010-10-15_11h15.37.215,eb_01,2022.2.4,119.99253875404543,
2,stimuli/2.png,s,1,0,1,0,0,0,0,0,0,0,0,0,,,,,,,,,,,,,,,,,,226.8650633431098,226.8650633431098,226.8650633431098,226.8650633431098,s,1,3.1834900340472814,230.05698977634893,230.05698977634893,230.05698977634893,231.0654213365342,231.0654213365342,231.0654213365342,,,,,,,,,,,,,,,,,,,,,,,,,112,001,2010-10-15_11h15.37.215,eb_01,2022.2.4,119.99253875404543,
,,,1,0,1,0,0,0,0,0,,,,,,,,,,,,,,,,,,,,,,,,,,,,,,,,,,,,,,,,,,,,,,,,,,,,,,,,,,,112,001,2010-10-15_11h15.37.215,eb_01,2022.2.4,119.99253875404543,
3,stimuli/3.png,l,1,0,1,0,1,0,1,0,0,0,0,0,,,,,,,,,,,,,,,,,,231.0654213365342,231.0654213365342,231.0654213365342,231.0654213365342,l,1,0.6141754435375333,231.69880769474548,231.69880769474548,231.69880769474548,,,,,,,,,,,,,,,,,,,,,,,,,,,,112,001,2010-10-15_11h15.37.215,eb_01,2022.2.4,119.99253875404543,
,,,1,0,1,0,1,0,1,0,,,,,,,,,,,,,,,,,,,,,,,,,,,,,,,,,,,,,,,,,,,,,,,,,,,,,,,,,,,112,001,2010-10-15_11h15.37.215,eb_01,2022.2.4,119.99253875404543,
2,stimuli/2.png,s,1,0,1,0,2,0,2,0,0,0,0,0,,,,,,,,,,,,,,,,,,232.7071825072344,232.7071825072344,232.7071825072344,232.7071825072344,s,1,0.8683821681479458,233.59065625086077,233.59065625086077,233.59065625086077,234.60737780379714,234.60737780379714,234.60737780379714,,,,,,,,,,,,,,,,,,,,,,,,,112,001,2010-10-15_11h15.37.215,eb_01,2022.2.4,119.99253875404543,
,,,1,0,1,0,2,0,2,0,,,,,,,,,,,,,,,,,,,,,,,,,,,,,,,,,,,,,,,,,,,,,,,,,,,,,,,,,,,112,001,2010-10-15_11h15.37.215,eb_01,2022.2.4,119.99253875404543,
4,stimuli/4.png,l,1,0,1,0,3,0,3,0,0,0,0,0,,,,,,,,,,,,,,,,,,234.60737780379714,234.60737780379714,234.60737780379714,234.60737780379714,l,1,1.0242415183747653,235.64912508943235,235.64912508943235,235.64912508943235,,,,,,,,,,,,,,,,,,,,,,,,,,,,112,001,2010-10-15_11h15.37.215,eb_01,2022.2.4,119.99253875404543,
,,,1,0,1,0,3,0,3,0,,,,,,,,,,,,,,,,,,,,,,,,,,,,,,,,,,,,,,,,,,,,,,,,,,,,,,,,,,,112,001,2010-10-15_11h15.37.215,eb_01,2022.2.4,119.99253875404543,
1,stimuli/1.png,s,1,0,1,0,4,0,4,0,0,0,0,0,,,,,,,,,,,,,,,,,,236.67423473624513,236.67423473624513,236.67423473624513,236.67423473624513,s,1,1.0134126700286288,237.71594610175816,237.71594610175816,237.71594610175816,,,,,,,,,,,,,,,,,,,,,,,,,,,,112,001,2010-10-15_11h15.37.215,eb_01,2022.2.4,119.99253875404543,
,,,1,0,1,0,4,0,4,0,,,,,,,,,,,,,,,,,,,,,,,,,,,,,,,,,,,,,,,,,,,,,,,,,,,,,,,,,,,112,001,2010-10-15_11h15.37.215,eb_01,2022.2.4,119.99253875404543,
2,stimuli/2.png,s,1,0,1,0,5,0,5,0,0,0,0,0,,,,,,,,,,,,,,,,,,238.71606110638822,238.71606110638822,238.71606110638822,238.71606110638822,s,1,0.83562516598613,239.5661391344911,239.5661391344911,239.5661391344911,240.59120531496592,240.59120531496592,240.59120531496592,,,,,,,,,,,,,,,,,,,,,,,,,112,001,2010-10-15_11h15.37.215,eb_01,2022.2.4,119.99253875404543,
,,,1,0,1,0,5,0,5,0,,,,,,,,,,,,,,,,,,,,,,,,,,,,,,,,,,,,,,,,,,,,,,,,,,,,,,,,,,,112,001,2010-10-15_11h15.37.215,eb_01,2022.2.4,119.99253875404543,
1,stimuli/1.png,s,1,0,1,0,6,0,6,0,0,0,0,0,,,,,,,,,,,,,,,,,,240.59120531496592,240.59120531496592,240.59120531496592,240.59120531496592,s,1,0.6885402768675704,241.30796429724433,241.30796429724433,241.30796429724433,,,,,,,,,,,,,,,,,,,,,,,,,,,,112,001,2010-10-15_11h15.37.215,eb_01,2022.2.4,119.99253875404543,
,,,1,0,1,0,6,0,6,0,,,,,,,,,,,,,,,,,,,,,,,,,,,,,,,,,,,,,,,,,,,,,,,,,,,,,,,,,,,112,001,2010-10-15_11h15.37.215,eb_01,2022.2.4,119.99253875404543,
2,stimuli/2.png,s,1,0,1,0,7,0,7,0,0,0,0,0,,,,,,,,,,,,,,,,,,242.30803462816402,242.30803462816402,242.30803462816402,242.30803462816402,s,1,0.6517698846873827,242.9747406358656,242.9747406358656,242.9747406358656,243.99985843262402,243.99985843262402,243.99985843262402,,,,,,,,,,,,,,,,,,,,,,,,,112,001,2010-10-15_11h15.37.215,eb_01,2022.2.4,119.99253875404543,
,,,1,0,1,0,7,0,7,0,,,,,,,,,,,,,,,,,,,,,,,,,,,,,,,,,,,,,,,,,,,,,,,,,,,,,,,,,,,112,001,2010-10-15_11h15.37.215,eb_01,2022.2.4,119.99253875404543,
1,stimuli/1.png,s,1,0,1,0,8,0,8,0,0,0,0,0,,,,,,,,,,,,,,,,,,243.99985843262402,243.99985843262402,243.99985843262402,243.99985843262402,s,1,0.3919372903765179,244.42490257808822,244.42490257808822,244.42490257808822,,,,,,,,,,,,,,,,,,,,,,,,,,,,112,001,2010-10-15_11h15.37.215,eb_01,2022.2.4,119.99253875404543,
,,,1,0,1,0,8,0,8,0,,,,,,,,,,,,,,,,,,,,,,,,,,,,,,,,,,,,,,,,,,,,,,,,,,,,,,,,,,,112,001,2010-10-15_11h15.37.215,eb_01,2022.2.4,119.99253875404543,
4,stimuli/4.png,l,1,0,1,0,9,0,9,0,0,0,0,0,,,,,,,,,,,,,,,,,,245.4332870497601,245.4332870497601,245.4332870497601,245.4332870497601,s,0,0.3745335576822981,245.8249904162949,245.8249904162949,245.8249904162949,,,,,,,,,,,,,,,,,,,,,,,,,,,,112,001,2010-10-15_11h15.37.215,eb_01,2022.2.4,119.99253875404543,
,,,1,0,1,0,9,0,9,0,,,,,,,,,,,,,,,,,,,,,,,,,,,,,,,,,,,,,,,,,,,,,,,,,,,,,,,,,,,112,001,2010-10-15_11h15.37.215,eb_01,2022.2.4,119.99253875404543,
1,stimuli/1.png,s,1,0,1,0,10,0,10,0,0,0,0,0,,,,,,,,,,,,,,,,,,246.85010942042572,246.85010942042572,246.85010942042572,246.85010942042572,s,1,1.3887618343578652,248.26694295951165,248.26694295951165,248.26694295951165,,,,,,,,,,,,,,,,,,,,,,,,,,,,112,001,2010-10-15_11h15.37.215,eb_01,2022.2.4,119.99253875404543,
,,,1,0,1,0,10,0,10,0,,,,,,,,,,,,,,,,,,,,,,,,,,,,,,,,,,,,,,,,,,,,,,,,,,,,,,,,,,,112,001,2010-10-15_11h15.37.215,eb_01,2022.2.4,119.99253875404543,
4,stimuli/4.png,l,1,0,1,0,11,0,11,0,0,0,0,0,,,,,,,,,,,,,,,,,,249.27531445166096,249.27531445166096,249.27531445166096,249.27531445166096,l,1,0.6676127539249137,249.96701057377504,249.96701057377504,249.96701057377504,,,,,,,,,,,,,,,,,,,,,,,,,,,,112,001,2010-10-15_11h15.37.215,eb_01,2022.2.4,119.99253875404543,
,,,1,0,1,0,11,0,11,0,,,,,,,,,,,,,,,,,,,,,,,,,,,,,,,,,,,,,,,,,,,,,,,,,,,,,,,,,,,112,001,2010-10-15_11h15.37.215,eb_01,2022.2.4,119.99253875404543,
2,stimuli/2.png,s,1,0,1,0,12,0,12,0,0,0,0,0,,,,,,,,,,,,,,,,,,250.97546235786285,250.97546235786285,250.97546235786285,250.97546235786285,s,1,0.5515036534925457,251.54214542501722,251.54214542501722,251.54214542501722,252.55059388876543,252.55059388876543,252.55059388876543,,,,,,,,,,,,,,,,,,,,,,,,,112,001,2010-10-15_11h15.37.215,eb_01,2022.2.4,119.99253875404543,
,,,1,0,1,0,12,0,12,0,,,,,,,,,,,,,,,,,,,,,,,,,,,,,,,,,,,,,,,,,,,,,,,,,,,,,,,,,,,112,001,2010-10-15_11h15.37.215,eb_01,2022.2.4,119.99253875404543,
3,stimuli/3.png,l,1,0,1,0,13,0,13,0,0,0,0,0,,,,,,,,,,,,,,,,,,252.55059388876543,252.55059388876543,252.55059388876543,252.55059388876543,l,1,0.5283840999763925,253.10063901526155,253.10063901526155,253.10063901526155,,,,,,,,,,,,,,,,,,,,,,,,,,,,112,001,2010-10-15_11h15.37.215,eb_01,2022.2.4,119.99253875404543,
,,,1,0,1,0,13,0,13,0,,,,,,,,,,,,,,,,,,,,,,,,,,,,,,,,,,,,,,,,,,,,,,,,,,,,,,,,,,,112,001,2010-10-15_11h15.37.215,eb_01,2022.2.4,119.99253875404543,
2,stimuli/2.png,s,1,0,1,0,14,0,14,0,0,0,0,0,,,,,,,,,,,,,,,,,,254.10906121809967,254.10906121809967,254.10906121809967,254.10906121809967,s,1,0.6899514229444321,254.80914603776182,254.80914603776182,254.80914603776182,255.82582865215954,255.82582865215954,255.82582865215954,,,,,,,,,,,,,,,,,,,,,,,,,112,001,2010-10-15_11h15.37.215,eb_01,2022.2.4,119.99253875404543,
,,,1,0,1,0,14,0,14,0,,,,,,,,,,,,,,,,,,,,,,,,,,,,,,,,,,,,,,,,,,,,,,,,,,,,,,,,,,,112,001,2010-10-15_11h15.37.215,eb_01,2022.2.4,119.99253875404543,
4,stimuli/4.png,l,1,0,1,0,15,0,15,0,0,0,0,0,,,,,,,,,,,,,,,,,,255.82582865215954,255.82582865215954,255.82582865215954,255.82582865215954,l,1,0.7252119642798789,256.56758982283645,256.56758982283645,256.56758982283645,,,,,,,,,,,,,,,,,,,,,,,,,,,,112,001,2010-10-15_11h15.37.215,eb_01,2022.2.4,119.99253875404543,
,,,1,0,1,0,15,0,15,0,,,,,,,,,,,,,,,,,,,,,,,,,,,,,,,,,,,,,,,,,,,,,,,,,,,,,,,,,,,112,001,2010-10-15_11h15.37.215,eb_01,2022.2.4,119.99253875404543,
1,stimuli/1.png,s,1,0,1,0,16,0,16,0,0,0,0,0,,,,,,,,,,,,,,,,,,257.58434488109197,257.58434488109197,257.58434488109197,257.58434488109197,l,0,0.526776751736179,258.14272588148015,258.14272588148015,258.14272588148015,,,,,,,,,,,,,,,,,,,,,,,,,,,,112,001,2010-10-15_11h15.37.215,eb_01,2022.2.4,119.99253875404543,
,,,1,0,1,0,16,0,16,0,,,,,,,,,,,,,,,,,,,,,,,,,,,,,,,,,,,,,,,,,,,,,,,,,,,,,,,,,,,112,001,2010-10-15_11h15.37.215,eb_01,2022.2.4,119.99253875404543,
4,stimuli/4.png,l,1,0,1,0,17,0,17,0,0,0,0,0,,,,,,,,,,,,,,,,,,259.15111035312293,259.15111035312293,259.15111035312293,259.15111035312293,l,1,0.6560169061995111,259.8262240749027,259.8262240749027,259.8262240749027,,,,,,,,,,,,,,,,,,,,,,,,,,,,112,001,2010-10-15_11h15.37.215,eb_01,2022.2.4,119.99253875404543,
,,,1,0,1,0,17,0,17,0,,,,,,,,,,,,,,,,,,,,,,,,,,,,,,,,,,,,,,,,,,,,,,,,,,,,,,,,,,,112,001,2010-10-15_11h15.37.215,eb_01,2022.2.4,119.99253875404543,
3,stimuli/3.png,l,1,0,1,0,18,0,18,0,0,0,0,0,,,,,,,,,,,,,,,,,,260.83459164301166,260.83459164301166,260.83459164301166,260.83459164301166,l,1,1.0765607784851454,261.9263819421758,261.9263819421758,261.9263819421758,262.9431668834877,262.9431668834877,262.9431668834877,,,,,,,,,,,,,,,,,,,,,,,,,112,001,2010-10-15_11h15.37.215,eb_01,2022.2.4,119.99253875404543,
,,,1,0,1,0,18,0,18,0,,,,,,,,,,,,,,,,,,,,,,,,,,,,,,,,,,,,,,,,,,,,,,,,,,,,,,,,,,,112,001,2010-10-15_11h15.37.215,eb_01,2022.2.4,119.99253875404543,
4,stimuli/4.png,l,1,0,1,0,19,0,19,0,0,0,0,0,,,,,,,,,,,,,,,,,,262.9431668834877,262.9431668834877,262.9431668834877,262.9431668834877,l,1,0.6150003980146721,263.576536640001,263.576536640001,263.576536640001,,,,,,,,,,,,,,,,,,,,,,,,,,,,112,001,2010-10-15_11h15.37.215,eb_01,2022.2.4,119.99253875404543,
,,,1,0,1,0,19,0,19,0,,,,,,,,,,,,,,,,,,,,,,,,,,,,,,,,,,,,,,,,,,,,,,,,,,,,,,,,,,,112,001,2010-10-15_11h15.37.215,eb_01,2022.2.4,119.99253875404543,
1,stimuli/1.png,s,1,0,1,0,20,0,20,0,0,0,0,0,,,,,,,,,,,,,,,,,,264.59329682966927,264.59329682966927,264.59329682966927,264.59329682966927,s,1,0.6769066979468334,265.30167315140716,265.30167315140716,265.30167315140716,,,,,,,,,,,,,,,,,,,,,,,,,,,,112,001,2010-10-15_11h15.37.215,eb_01,2022.2.4,119.99253875404543,
,,,1,0,1,0,20,0,20,0,,,,,,,,,,,,,,,,,,,,,,,,,,,,,,,,,,,,,,,,,,,,,,,,,,,,,,,,,,,112,001,2010-10-15_11h15.37.215,eb_01,2022.2.4,119.99253875404543,
4,stimuli/4.png,l,1,0,1,0,21,0,21,0,0,0,0,0,,,,,,,,,,,,,,,,,,266.3100980708841,266.3100980708841,266.3100980708841,266.3100980708841,l,1,0.7361899262759835,267.06849688038346,267.06849688038346,267.06849688038346,,,,,,,,,,,,,,,,,,,,,,,,,,,,112,001,2010-10-15_11h15.37.215,eb_01,2022.2.4,119.99253875404543,
,,,1,0,1,0,21,0,21,0,,,,,,,,,,,,,,,,,,,,,,,,,,,,,,,,,,,,,,,,,,,,,,,,,,,,,,,,,,,112,001,2010-10-15_11h15.37.215,eb_01,2022.2.4,119.99253875404543,
2,stimuli/2.png,s,1,0,1,0,22,0,22,0,0,0,0,0,,,,,,,,,,,,,,,,,,268.0769227054261,268.0769227054261,268.0769227054261,268.0769227054261,s,1,0.7773896570433863,268.86865776614286,268.86865776614286,268.86865776614286,269.89371489113546,269.89371489113546,269.89371489113546,,,,,,,,,,,,,,,,,,,,,,,,,112,001,2010-10-15_11h15.37.215,eb_01,2022.2.4,119.99253875404543,
,,,1,0,1,0,22,0,22,0,,,,,,,,,,,,,,,,,,,,,,,,,,,,,,,,,,,,,,,,,,,,,,,,,,,,,,,,,,,112,001,2010-10-15_11h15.37.215,eb_01,2022.2.4,119.99253875404543,
1,stimuli/1.png,s,1,0,1,0,23,0,23,0,0,0,0,0,,,,,,,,,,,,,,,,,,269.89371489113546,269.89371489113546,269.89371489113546,269.89371489113546,s,1,0.6566142662195489,270.5771349055576,270.5771349055576,270.5771349055576,,,,,,,,,,,,,,,,,,,,,,,,,,,,112,001,2010-10-15_11h15.37.215,eb_01,2022.2.4,119.99253875404543,
,,,1,0,1,0,23,0,23,0,,,,,,,,,,,,,,,,,,,,,,,,,,,,,,,,,,,,,,,,,,,,,,,,,,,,,,,,,,,112,001,2010-10-15_11h15.37.215,eb_01,2022.2.4,119.99253875404543,
2,stimuli/2.png,s,1,0,1,0,24,0,24,0,0,0,0,0,,,,,,,,,,,,,,,,,,271.577191653254,271.577191653254,271.577191653254,271.577191653254,s,1,0.6371591647912282,272.22727783126174,272.22727783126174,272.22727783126174,273.25236242456594,273.25236242456594,273.25236242456594,,,,,,,,,,,,,,,,,,,,,,,,,112,001,2010-10-15_11h15.37.215,eb_01,2022.2.4,119.99253875404543,
,,,1,0,1,0,24,0,24,0,,,,,,,,,,,,,,,,,,,,,,,,,,,,,,,,,,,,,,,,,,,,,,,,,,,,,,,,,,,112,001,2010-10-15_11h15.37.215,eb_01,2022.2.4,119.99253875404543,
1,stimuli/1.png,s,1,0,1,0,25,0,25,0,0,0,0,0,,,,,,,,,,,,,,,,,,273.25236242456594,273.25236242456594,273.25236242456594,273.25236242456594,s,1,0.6100343712023459,273.89404119038954,273.89404119038954,273.89404119038954,,,,,,,,,,,,,,,,,,,,,,,,,,,,112,001,2010-10-15_11h15.37.215,eb_01,2022.2.4,119.99253875404543,
,,,1,0,1,0,25,0,25,0,,,,,,,,,,,,,,,,,,,,,,,,,,,,,,,,,,,,,,,,,,,,,,,,,,,,,,,,,,,112,001,2010-10-15_11h15.37.215,eb_01,2022.2.4,119.99253875404543,
2,stimuli/2.png,s,1,0,1,0,26,0,26,0,0,0,0,0,,,,,,,,,,,,,,,,,,274.8941420080955,274.8941420080955,274.8941420080955,274.8941420080955,s,1,0.712330539827235,275.61922116810456,275.61922116810456,275.61922116810456,276.64428915968165,276.64428915968165,276.64428915968165,,,,,,,,,,,,,,,,,,,,,,,,,112,001,2010-10-15_11h15.37.215,eb_01,2022.2.4,119.99253875404543,
,,,1,0,1,0,26,0,26,0,,,,,,,,,,,,,,,,,,,,,,,,,,,,,,,,,,,,,,,,,,,,,,,,,,,,,,,,,,,112,001,2010-10-15_11h15.37.215,eb_01,2022.2.4,119.99253875404543,
1,stimuli/1.png,s,1,0,1,0,27,0,27,0,0,0,0,0,,,,,,,,,,,,,,,,,,276.64428915968165,276.64428915968165,276.64428915968165,276.64428915968165,s,1,0.6741767716885079,277.3443510388315,277.3443510388315,277.3443510388315,,,,,,,,,,,,,,,,,,,,,,,,,,,,112,001,2010-10-15_11h15.37.215,eb_01,2022.2.4,119.99253875404543,
,,,1,0,1,0,27,0,27,0,,,,,,,,,,,,,,,,,,,,,,,,,,,,,,,,,,,,,,,,,,,,,,,,,,,,,,,,,,,112,001,2010-10-15_11h15.37.215,eb_01,2022.2.4,119.99253875404543,
4,stimuli/4.png,l,1,0,1,0,28,0,28,0,0,0,0,0,,,,,,,,,,,,,,,,,,278.3527572436433,278.3527572436433,278.3527572436433,278.3527572436433,l,1,0.700738917948911,279.0778593441937,279.0778593441937,279.0778593441937,,,,,,,,,,,,,,,,,,,,,,,,,,,,112,001,2010-10-15_11h15.37.215,eb_01,2022.2.4,119.99253875404543,
,,,1,0,1,0,28,0,28,0,,,,,,,,,,,,,,,,,,,,,,,,,,,,,,,,,,,,,,,,,,,,,,,,,,,,,,,,,,,112,001,2010-10-15_11h15.37.215,eb_01,2022.2.4,119.99253875404543,
1,stimuli/1.png,s,1,0,1,0,29,0,29,0,0,0,0,0,,,,,,,,,,,,,,,,,,280.1029216006573,280.1029216006573,280.1029216006573,280.1029216006573,s,1,0.6466269740776625,280.7779939690372,280.7779939690372,280.7779939690372,,,,,,,,,,,,,,,,,,,,,,,,,,,,112,001,2010-10-15_11h15.37.215,eb_01,2022.2.4,119.99253875404543,
,,,1,0,1,0,29,0,29,0,,,,,,,,,,,,,,,,,,,,,,,,,,,,,,,,,,,,,,,,,,,,,,,,,,,,,,,,,,,112,001,2010-10-15_11h15.37.215,eb_01,2022.2.4,119.99253875404543,
2,stimuli/2.png,s,1,0,1,0,30,0,30,0,0,0,0,0,,,,,,,,,,,,,,,,,,281.77808361832285,281.77808361832285,281.77808361832285,281.77808361832285,s,1,0.7555022528977133,282.54483369606896,282.54483369606896,282.54483369606896,283.5615772840101,283.5615772840101,283.5615772840101,,,,,,,,,,,,,,,,,,,,,,,,,112,001,2010-10-15_11h15.37.215,eb_01,2022.2.4,119.99253875404543,
,,,1,0,1,0,30,0,30,0,,,,,,,,,,,,,,,,,,,,,,,,,,,,,,,,,,,,,,,,,,,,,,,,,,,,,,,,,,,112,001,2010-10-15_11h15.37.215,eb_01,2022.2.4,119.99253875404543,
4,stimuli/4.png,l,1,0,1,0,31,0,31,0,0,0,0,0,,,,,,,,,,,,,,,,,,283.5615772840101,283.5615772840101,283.5615772840101,283.5615772840101,l,1,0.7960409334045835,284.3783045721066,284.3783045721066,284.3783045721066,,,,,,,,,,,,,,,,,,,,,,,,,,,,112,001,2010-10-15_11h15.37.215,eb_01,2022.2.4,119.99253875404543,
,,,1,0,1,0,31,0,31,0,,,,,,,,,,,,,,,,,,,,,,,,,,,,,,,,,,,,,,,,,,,,,,,,,,,,,,,,,,,112,001,2010-10-15_11h15.37.215,eb_01,2022.2.4,119.99253875404543,
1,stimuli/1.png,s,1,0,1,0,32,0,32,0,0,0,0,0,,,,,,,,,,,,,,,,,,285.4034060689737,285.4034060689737,285.4034060689737,285.4034060689737,s,1,0.49023425587802194,285.92010407769703,285.92010407769703,285.92010407769703,,,,,,,,,,,,,,,,,,,,,,,,,,,,112,001,2010-10-15_11h15.37.215,eb_01,2022.2.4,119.99253875404543,
,,,1,0,1,0,32,0,32,0,,,,,,,,,,,,,,,,,,,,,,,,,,,,,,,,,,,,,,,,,,,,,,,,,,,,,,,,,,,112,001,2010-10-15_11h15.37.215,eb_01,2022.2.4,119.99253875404543,
4,stimuli/4.png,l,1,0,1,0,33,0,33,0,0,0,0,0,,,,,,,,,,,,,,,,,,286.9285069621692,286.9285069621692,286.9285069621692,286.9285069621692,l,1,0.661177022207994,287.6119164118718,287.6119164118718,287.6119164118718,,,,,,,,,,,,,,,,,,,,,,,,,,,,112,001,2010-10-15_11h15.37.215,eb_01,2022.2.4,119.99253875404543,
,,,1,0,1,0,33,0,33,0,,,,,,,,,,,,,,,,,,,,,,,,,,,,,,,,,,,,,,,,,,,,,,,,,,,,,,,,,,,112,001,2010-10-15_11h15.37.215,eb_01,2022.2.4,119.99253875404543,
2,stimuli/2.png,s,1,0,1,0,34,0,34,0,0,0,0,0,,,,,,,,,,,,,,,,,,288.6203485757287,288.6203485757287,288.6203485757287,288.6203485757287,s,1,0.4813801065029111,289.1120440941595,289.1120440941595,289.1120440941595,290.12882390405866,290.12882390405866,290.12882390405866,,,,,,,,,,,,,,,,,,,,,,,,,112,001,2010-10-15_11h15.37.215,eb_01,2022.2.4,119.99253875404543,
,,,1,0,1,0,34,0,34,0,,,,,,,,,,,,,,,,,,,,,,,,,,,,,,,,,,,,,,,,,,,,,,,,,,,,,,,,,,,112,001,2010-10-15_11h15.37.215,eb_01,2022.2.4,119.99253875404543,
4,stimuli/4.png,l,1,0,1,0,35,0,35,0,0,0,0,0,,,,,,,,,,,,,,,,,,290.12882390405866,290.12882390405866,290.12882390405866,290.12882390405866,l,1,0.5729500555898994,290.7205154984549,290.7205154984549,290.7205154984549,,,,,,,,,,,,,,,,,,,,,,,,,,,,112,001,2010-10-15_11h15.37.215,eb_01,2022.2.4,119.99253875404543,
,,,1,0,1,0,35,0,35,0,,,,,,,,,,,,,,,,,,,,,,,,,,,,,,,,,,,,,,,,,,,,,,,,,,,,,,,,,,,112,001,2010-10-15_11h15.37.215,eb_01,2022.2.4,119.99253875404543,
3,stimuli/3.png,l,1,0,1,0,36,0,36,0,0,0,0,0,,,,,,,,,,,,,,,,,,291.7289337772527,291.7289337772527,291.7289337772527,291.7289337772527,l,1,0.6208402790070977,292.37066747964127,292.37066747964127,292.37066747964127,,,,,,,,,,,,,,,,,,,,,,,,,,,,112,001,2010-10-15_11h15.37.215,eb_01,2022.2.4,119.99253875404543,
,,,1,0,1,0,36,0,36,0,,,,,,,,,,,,,,,,,,,,,,,,,,,,,,,,,,,,,,,,,,,,,,,,,,,,,,,,,,,112,001,2010-10-15_11h15.37.215,eb_01,2022.2.4,119.99253875404543,
2,stimuli/2.png,s,1,0,1,0,37,0,37,0,0,0,0,0,,,,,,,,,,,,,,,,,,293.3790878713771,293.3790878713771,293.3790878713771,293.3790878713771,s,1,0.5937628757383209,293.9874620801711,293.9874620801711,293.9874620801711,295.0125179977622,295.0125179977622,295.0125179977622,,,,,,,,,,,,,,,,,,,,,,,,,112,001,2010-10-15_11h15.37.215,eb_01,2022.2.4,119.99253875404543,
,,,1,0,1,0,37,0,37,0,,,,,,,,,,,,,,,,,,,,,,,,,,,,,,,,,,,,,,,,,,,,,,,,,,,,,,,,,,,112,001,2010-10-15_11h15.37.215,eb_01,2022.2.4,119.99253875404543,
1,stimuli/1.png,s,1,0,1,0,38,0,38,0,0,0,0,0,,,,,,,,,,,,,,,,,,295.0125179977622,295.0125179977622,295.0125179977622,295.0125179977622,s,1,0.5603167513327207,295.60425456773373,295.60425456773373,295.60425456773373,,,,,,,,,,,,,,,,,,,,,,,,,,,,112,001,2010-10-15_11h15.37.215,eb_01,2022.2.4,119.99253875404543,
,,,1,0,1,0,38,0,38,0,,,,,,,,,,,,,,,,,,,,,,,,,,,,,,,,,,,,,,,,,,,,,,,,,,,,,,,,,,,112,001,2010-10-15_11h15.37.215,eb_01,2022.2.4,119.99253875404543,
4,stimuli/4.png,l,1,0,1,0,39,0,39,0,0,0,0,0,,,,,,,,,,,,,,,,,,296.6127006166789,296.6127006166789,296.6127006166789,296.6127006166789,l,1,0.6161773089552298,297.24604682892095,297.24604682892095,297.24604682892095,,,,,,,,,,,,,,,,,,,,,,,,,,,,112,001,2010-10-15_11h15.37.215,eb_01,2022.2.4,119.99253875404543,
,,,1,0,1,0,39,0,39,0,,,,,,,,,,,,,,,,,,,,,,,,,,,,,,,,,,,,,,,,,,,,,,,,,,,,,,,,,,,112,001,2010-10-15_11h15.37.215,eb_01,2022.2.4,119.99253875404543,
1,stimuli/1.png,s,1,0,1,0,40,0,40,0,0,0,0,0,,,,,,,,,,,,,,,,,,298.2711619090114,298.2711619090114,298.2711619090114,298.2711619090114,s,1,0.5257362767879386,298.829542003863,298.829542003863,298.829542003863,,,,,,,,,,,,,,,,,,,,,,,,,,,,112,001,2010-10-15_11h15.37.215,eb_01,2022.2.4,119.99253875404543,
,,,1,0,1,0,40,0,40,0,,,,,,,,,,,,,,,,,,,,,,,,,,,,,,,,,,,,,,,,,,,,,,,,,,,,,,,,,,,112,001,2010-10-15_11h15.37.215,eb_01,2022.2.4,119.99253875404543,
2,stimuli/2.png,s,1,0,1,0,41,0,41,0,0,0,0,0,,,,,,,,,,,,,,,,,,299.82962893650983,299.82962893650983,299.82962893650983,299.82962893650983,s,1,0.6233329515962396,300.4713128337462,300.4713128337462,300.4713128337462,,,,,,,,,,,,,,,,,,,,,,,,,,,,112,001,2010-10-15_11h15.37.215,eb_01,2022.2.4,119.99253875404543,
,,,1,0,1,0,41,0,41,0,,,,,,,,,,,,,,,,,,,,,,,,,,,,,,,,,,,,,,,,,,,,,,,,,,,,,,,,,,,112,001,2010-10-15_11h15.37.215,eb_01,2022.2.4,119.99253875404543,
4,stimuli/4.png,l,1,0,1,0,42,0,42,0,0,0,0,0,,,,,,,,,,,,,,,,,,301.4881282618735,301.4881282618735,301.4881282618735,301.4881282618735,l,1,0.5088366326526739,302.02149560357793,302.02149560357793,302.02149560357793,,,,,,,,,,,,,,,,,,,,,,,,,,,,112,001,2010-10-15_11h15.37.215,eb_01,2022.2.4,119.99253875404543,
,,,1,0,1,0,42,0,42,0,,,,,,,,,,,,,,,,,,,,,,,,,,,,,,,,,,,,,,,,,,,,,,,,,,,,,,,,,,,112,001,2010-10-15_11h15.37.215,eb_01,2022.2.4,119.99253875404543,
1,stimuli/1.png,s,1,0,1,0,43,0,43,0,0,0,0,0,,,,,,,,,,,,,,,,,,303.0465678210312,303.0465678210312,303.0465678210312,303.0465678210312,s,1,0.5504414453462232,303.6299751577899,303.6299751577899,303.6299751577899,,,,,,,,,,,,,,,,,,,,,,,,,,,,112,001,2010-10-15_11h15.37.215,eb_01,2022.2.4,119.99253875404543,
,,,1,0,1,0,43,0,43,0,,,,,,,,,,,,,,,,,,,,,,,,,,,,,,,,,,,,,,,,,,,,,,,,,,,,,,,,,,,112,001,2010-10-15_11h15.37.215,eb_01,2022.2.4,119.99253875404543,
4,stimuli/4.png,l,1,0,1,0,44,0,44,0,0,0,0,0,,,,,,,,,,,,,,,,,,304.6383861922077,304.6383861922077,304.6383861922077,304.6383861922077,l,1,0.5426389393687714,305.2050707685994,305.2050707685994,305.2050707685994,,,,,,,,,,,,,,,,,,,,,,,,,,,,112,001,2010-10-15_11h15.37.215,eb_01,2022.2.4,119.99253875404543,
,,,1,0,1,0,44,0,44,0,,,,,,,,,,,,,,,,,,,,,,,,,,,,,,,,,,,,,,,,,,,,,,,,,,,,,,,,,,,112,001,2010-10-15_11h15.37.215,eb_01,2022.2.4,119.99253875404543,
2,stimuli/2.png,s,1,0,1,0,45,0,45,0,0,0,0,0,,,,,,,,,,,,,,,,,,306.21356903749984,306.21356903749984,306.21356903749984,306.21356903749984,s,1,0.43146447342587635,306.6551916592871,306.6551916592871,306.6551916592871,307.6719322287827,307.6719322287827,307.6719322287827,,,,,,,,,,,,,,,,,,,,,,,,,112,001,2010-10-15_11h15.37.215,eb_01,2022.2.4,119.99253875404543,
,,,1,0,1,0,45,0,45,0,,,,,,,,,,,,,,,,,,,,,,,,,,,,,,,,,,,,,,,,,,,,,,,,,,,,,,,,,,,112,001,2010-10-15_11h15.37.215,eb_01,2022.2.4,119.99253875404543,
4,stimuli/4.png,l,1,0,1,0,46,0,46,0,0,0,0,0,,,,,,,,,,,,,,,,,,307.6719322287827,307.6719322287827,307.6719322287827,307.6719322287827,l,1,0.3971499282051809,308.08864865027135,308.08864865027135,308.08864865027135,,,,,,,,,,,,,,,,,,,,,,,,,,,,112,001,2010-10-15_11h15.37.215,eb_01,2022.2.4,119.99253875404543,
,,,1,0,1,0,46,0,46,0,,,,,,,,,,,,,,,,,,,,,,,,,,,,,,,,,,,,,,,,,,,,,,,,,,,,,,,,,,,112,001,2010-10-15_11h15.37.215,eb_01,2022.2.4,119.99253875404543,
3,stimuli/3.png,l,1,0,1,0,47,0,47,0,0,0,0,0,,,,,,,,,,,,,,,,,,309.0970820215589,309.0970820215589,309.0970820215589,309.0970820215589,l,1,0.6270182313164696,309.7387776909163,309.7387776909163,309.7387776909163,310.747265696933,310.747265696933,310.747265696933,,,,,,,,,,,,,,,,,,,,,,,,,112,001,2010-10-15_11h15.37.215,eb_01,2022.2.4,119.99253875404543,
,,,1,0,1,0,47,0,47,0,,,,,,,,,,,,,,,,,,,,,,,,,,,,,,,,,,,,,,,,,,,,,,,,,,,,,,,,,,,112,001,2010-10-15_11h15.37.215,eb_01,2022.2.4,119.99253875404543,
8,stimuli/8.png,l,1,0,1,0,48,0,48,0,0,0,0,0,,,,,,,,,,,,,,,,,,310.747265696933,310.747265696933,310.747265696933,310.747265696933,l,1,0.5288395907555241,311.29725166092976,311.29725166092976,311.29725166092976,,,,,,,,,,,,,,,,,,,,,,,,,,,,112,001,2010-10-15_11h15.37.215,eb_01,2022.2.4,119.99253875404543,
,,,1,0,1,0,48,0,48,0,,,,,,,,,,,,,,,,,,,,,,,,,,,,,,,,,,,,,,,,,,,,,,,,,,,,,,,,,,,112,001,2010-10-15_11h15.37.215,eb_01,2022.2.4,119.99253875404543,
9,stimuli/9.png,l,1,0,1,0,49,0,49,0,0,0,0,0,,,,,,,,,,,,,,,,,,312.3139973618381,312.3139973618381,312.3139973618381,312.3139973618381,l,1,0.7142207209544722,313.05576758802636,313.05576758802636,313.05576758802636,,,,,,,,,,,,,,,,,,,,,,,,,,,,112,001,2010-10-15_11h15.37.215,eb_01,2022.2.4,119.99253875404543,
,,,1,0,1,0,49,0,49,0,,,,,,,,,,,,,,,,,,,,,,,,,,,,,,,,,,,,,,,,,,,,,,,,,,,,,,,,,,,112,001,2010-10-15_11h15.37.215,eb_01,2022.2.4,119.99253875404543,
5,stimuli/5.png,s,1,0,1,0,50,0,50,0,0,0,0,0,,,,,,,,,,,,,,,,,,314.0558442577603,314.0558442577603,314.0558442577603,314.0558442577603,s,1,0.5643720984517131,314.639239520533,314.639239520533,314.639239520533,,,,,,,,,,,,,,,,,,,,,,,,,,,,112,001,2010-10-15_11h15.37.215,eb_01,2022.2.4,119.99253875404543,
,,,1,0,1,0,50,0,50,0,,,,,,,,,,,,,,,,,,,,,,,,,,,,,,,,,,,,,,,,,,,,,,,,,,,,,,,,,,,112,001,2010-10-15_11h15.37.215,eb_01,2022.2.4,119.99253875404543,
9,stimuli/9.png,l,1,0,1,0,51,0,51,0,0,0,0,0,,,,,,,,,,,,,,,,,,315.6559988046647,315.6559988046647,315.6559988046647,315.6559988046647,l,1,0.5642241922323592,316.2477181692375,316.2477181692375,316.2477181692375,,,,,,,,,,,,,,,,,,,,,,,,,,,,112,001,2010-10-15_11h15.37.215,eb_01,2022.2.4,119.99253875404543,
,,,1,0,1,0,51,0,51,0,,,,,,,,,,,,,,,,,,,,,,,,,,,,,,,,,,,,,,,,,,,,,,,,,,,,,,,,,,,112,001,2010-10-15_11h15.37.215,eb_01,2022.2.4,119.99253875404543,
6,stimuli/6.png,s,1,0,1,0,52,0,52,0,0,0,0,0,,,,,,,,,,,,,,,,,,317.2644448536157,317.2644448536157,317.2644448536157,317.2644448536157,s,1,0.4758792024804279,317.7728335511638,317.7728335511638,317.7728335511638,,,,,,,,,,,,,,,,,,,,,,,,,,,,112,001,2010-10-15_11h15.37.215,eb_01,2022.2.4,119.99253875404543,
,,,1,0,1,0,52,0,52,0,,,,,,,,,,,,,,,,,,,,,,,,,,,,,,,,,,,,,,,,,,,,,,,,,,,,,,,,,,,112,001,2010-10-15_11h15.37.215,eb_01,2022.2.4,119.99253875404543,
8,stimuli/8.png,l,1,0,1,0,53,0,53,0,0,0,0,0,,,,,,,,,,,,,,,,,,318.77293104853015,318.77293104853015,318.77293104853015,318.77293104853015,l,1,0.5753893008513842,319.37294161325553,319.37294161325553,319.37294161325553,,,,,,,,,,,,,,,,,,,,,,,,,,,,112,001,2010-10-15_11h15.37.215,eb_01,2022.2.4,119.99253875404543,
,,,1,0,1,0,53,0,53,0,,,,,,,,,,,,,,,,,,,,,,,,,,,,,,,,,,,,,,,,,,,,,,,,,,,,,,,,,,,112,001,2010-10-15_11h15.37.215,eb_01,2022.2.4,119.99253875404543,
6,stimuli/6.png,s,1,0,1,0,54,0,54,0,0,0,0,0,,,,,,,,,,,,,,,,,,320.3980524674698,320.3980524674698,320.3980524674698,320.3980524674698,s,1,0.45424595556687564,320.88145406908006,320.88145406908006,320.88145406908006,,,,,,,,,,,,,,,,,,,,,,,,,,,,112,001,2010-10-15_11h15.37.215,eb_01,2022.2.4,119.99253875404543,
,,,1,0,1,0,54,0,54,0,,,,,,,,,,,,,,,,,,,,,,,,,,,,,,,,,,,,,,,,,,,,,,,,,,,,,,,,,,,112,001,2010-10-15_11h15.37.215,eb_01,2022.2.4,119.99253875404543,
9,stimuli/9.png,l,1,0,1,0,55,0,55,0,0,0,0,0,,,,,,,,,,,,,,,,,,321.88981650574715,321.88981650574715,321.88981650574715,321.88981650574715,l,1,0.43454545058193617,322.3565569242637,322.3565569242637,322.3565569242637,,,,,,,,,,,,,,,,,,,,,,,,,,,,112,001,2010-10-15_11h15.37.215,eb_01,2022.2.4,119.99253875404543,
,,,1,0,1,0,55,0,55,0,,,,,,,,,,,,,,,,,,,,,,,,,,,,,,,,,,,,,,,,,,,,,,,,,,,,,,,,,,,112,001,2010-10-15_11h15.37.215,eb_01,2022.2.4,119.99253875404543,
6,stimuli/6.png,s,1,0,1,0,56,0,56,0,0,0,0,0,,,,,,,,,,,,,,,,,,323.37327606242616,323.37327606242616,323.37327606242616,323.37327606242616,s,1,0.44617933136760257,323.84833092355984,323.84833092355984,323.84833092355984,,,,,,,,,,,,,,,,,,,,,,,,,,,,112,001,2010-10-15_11h15.37.215,eb_01,2022.2.4,119.99253875404543,
,,,1,0,1,0,56,0,56,0,,,,,,,,,,,,,,,,,,,,,,,,,,,,,,,,,,,,,,,,,,,,,,,,,,,,,,,,,,,112,001,2010-10-15_11h15.37.215,eb_01,2022.2.4,119.99253875404543,
9,stimuli/9.png,l,1,0,1,0,57,0,57,0,0,0,0,0,,,,,,,,,,,,,,,,,,324.85678934832686,324.85678934832686,324.85678934832686,324.85678934832686,l,1,0.5146351602161303,325.3984964879928,325.3984964879928,325.3984964879928,,,,,,,,,,,,,,,,,,,,,,,,,,,,112,001,2010-10-15_11h15.37.215,eb_01,2022.2.4,119.99253875404543,
,,,1,0,1,0,57,0,57,0,,,,,,,,,,,,,,,,,,,,,,,,,,,,,,,,,,,,,,,,,,,,,,,,,,,,,,,,,,,112,001,2010-10-15_11h15.37.215,eb_01,2022.2.4,119.99253875404543,
8,stimuli/8.png,l,1,0,1,0,58,0,58,0,0,0,0,0,,,,,,,,,,,,,,,,,,326.39858040213585,326.39858040213585,326.39858040213585,326.39858040213585,s,0,0.42090457293670624,326.8402802973869,326.8402802973869,326.8402802973869,,,,,,,,,,,,,,,,,,,,,,,,,,,,112,001,2010-10-15_11h15.37.215,eb_01,2022.2.4,119.99253875404543,
,,,1,0,1,0,58,0,58,0,,,,,,,,,,,,,,,,,,,,,,,,,,,,,,,,,,,,,,,,,,,,,,,,,,,,,,,,,,,112,001,2010-10-15_11h15.37.215,eb_01,2022.2.4,119.99253875404543,
3,stimuli/3.png,l,1,0,1,0,59,0,59,0,0,0,0,0,,,,,,,,,,,,,,,,,,327.8486711078731,327.8486711078731,327.8486711078731,327.8486711078731,l,1,0.5548230916901957,328.42373955223593,328.42373955223593,328.42373955223593,,,,,,,,,,,,,,,,,,,,,,,,,,,,112,001,2010-10-15_11h15.37.215,eb_01,2022.2.4,119.99253875404543,
,,,1,0,1,0,59,0,59,0,,,,,,,,,,,,,,,,,,,,,,,,,,,,,,,,,,,,,,,,,,,,,,,,,,,,,,,,,,,112,001,2010-10-15_11h15.37.215,eb_01,2022.2.4,119.99253875404543,
8,stimuli/8.png,l,1,0,1,0,60,0,60,0,0,0,0,0,,,,,,,,,,,,,,,,,,329.4321312682878,329.4321312682878,329.4321312682878,329.4321312682878,l,1,0.5713837588846218,330.0238762900408,330.0238762900408,330.0238762900408,,,,,,,,,,,,,,,,,,,,,,,,,,,,112,001,2010-10-15_11h15.37.215,eb_01,2022.2.4,119.99253875404543,
,,,1,0,1,0,60,0,60,0,,,,,,,,,,,,,,,,,,,,,,,,,,,,,,,,,,,,,,,,,,,,,,,,,,,,,,,,,,,112,001,2010-10-15_11h15.37.215,eb_01,2022.2.4,119.99253875404543,
9,stimuli/9.png,l,1,0,1,0,61,0,61,0,0,0,0,0,,,,,,,,,,,,,,,,,,331.040663042455,331.040663042455,331.040663042455,331.040663042455,l,1,0.5068987592821941,331.57399325669394,331.57399325669394,331.57399325669394,,,,,,,,,,,,,,,,,,,,,,,,,,,,112,001,2010-10-15_11h15.37.215,eb_01,2022.2.4,119.99253875404543,
,,,1,0,1,0,61,0,61,0,,,,,,,,,,,,,,,,,,,,,,,,,,,,,,,,,,,,,,,,,,,,,,,,,,,,,,,,,,,112,001,2010-10-15_11h15.37.215,eb_01,2022.2.4,119.99253875404543,
6,stimuli/6.png,s,1,0,1,0,62,0,62,0,0,0,0,0,,,,,,,,,,,,,,,,,,332.59072839285363,332.59072839285363,332.59072839285363,332.59072839285363,s,1,0.5489014095510356,333.16578114105505,333.16578114105505,333.16578114105505,,,,,,,,,,,,,,,,,,,,,,,,,,,,112,001,2010-10-15_11h15.37.215,eb_01,2022.2.4,119.99253875404543,
,,,1,0,1,0,62,0,62,0,,,,,,,,,,,,,,,,,,,,,,,,,,,,,,,,,,,,,,,,,,,,,,,,,,,,,,,,,,,112,001,2010-10-15_11h15.37.215,eb_01,2022.2.4,119.99253875404543,
5,stimuli/5.png,s,1,0,1,0,63,0,63,0,0,0,0,0,,,,,,,,,,,,,,,,,,334.1659027863643,334.1659027863643,334.1659027863643,334.1659027863643,s,1,0.5497305899043567,334.7325958145666,334.7325958145666,334.7325958145666,,,,,,,,,,,,,,,,,,,,,,,,,,,,112,001,2010-10-15_11h15.37.215,eb_01,2022.2.4,119.99253875404543,
,,,1,0,1,0,63,0,63,0,,,,,,,,,,,,,,,,,,,,,,,,,,,,,,,,,,,,,,,,,,,,,,,,,,,,,,,,,,,112,001,2010-10-15_11h15.37.215,eb_01,2022.2.4,119.99253875404543,
6,stimuli/6.png,s,1,0,1,0,64,0,64,0,0,0,0,0,,,,,,,,,,,,,,,,,,335.75773292966187,335.75773292966187,335.75773292966187,335.75773292966187,s,1,0.4698799450416118,336.25779994024197,336.25779994024197,336.25779994024197,,,,,,,,,,,,,,,,,,,,,,,,,,,,112,001,2010-10-15_11h15.37.215,eb_01,2022.2.4,119.99253875404543,
,,,1,0,1,0,64,0,64,0,,,,,,,,,,,,,,,,,,,,,,,,,,,,,,,,,,,,,,,,,,,,,,,,,,,,,,,,,,,112,001,2010-10-15_11h15.37.215,eb_01,2022.2.4,119.99253875404543,
8,stimuli/8.png,l,1,0,1,0,65,0,65,0,0,0,0,0,,,,,,,,,,,,,,,,,,337.25783616217086,337.25783616217086,337.25783616217086,337.25783616217086,l,1,0.5138449184014462,337.7911805633048,337.7911805633048,337.7911805633048,,,,,,,,,,,,,,,,,,,,,,,,,,,,112,001,2010-10-15_11h15.37.215,eb_01,2022.2.4,119.99253875404543,
,,,1,0,1,0,65,0,65,0,,,,,,,,,,,,,,,,,,,,,,,,,,,,,,,,,,,,,,,,,,,,,,,,,,,,,,,,,,,112,001,2010-10-15_11h15.37.215,eb_01,2022.2.4,119.99253875404543,
6,stimuli/6.png,s,1,0,1,0,66,0,66,0,0,0,0,0,,,,,,,,,,,,,,,,,,338.8163004730013,338.8163004730013,338.8163004730013,338.8163004730013,s,1,0.6504577452142257,339.49971897818614,339.49971897818614,339.49971897818614,,,,,,,,,,,,,,,,,,,,,,,,,,,,112,001,2010-10-15_11h15.37.215,eb_01,2022.2.4,119.99253875404543,
,,,1,0,1,0,66,0,66,0,,,,,,,,,,,,,,,,,,,,,,,,,,,,,,,,,,,,,,,,,,,,,,,,,,,,,,,,,,,112,001,2010-10-15_11h15.37.215,eb_01,2022.2.4,119.99253875404543,
8,stimuli/8.png,l,1,0,1,0,67,0,67,0,0,0,0,0,,,,,,,,,,,,,,,,,,340.49978961094166,340.49978961094166,340.49978961094166,340.49978961094166,l,1,0.4709472846298013,340.9914649054699,340.9914649054699,340.9914649054699,,,,,,,,,,,,,,,,,,,,,,,,,,,,112,001,2010-10-15_11h15.37.215,eb_01,2022.2.4,119.99253875404543,
,,,1,0,1,0,67,0,67,0,,,,,,,,,,,,,,,,,,,,,,,,,,,,,,,,,,,,,,,,,,,,,,,,,,,,,,,,,,,112,001,2010-10-15_11h15.37.215,eb_01,2022.2.4,119.99253875404543,
6,stimuli/6.png,s,1,0,1,0,68,0,68,0,0,0,0,0,,,,,,,,,,,,,,,,,,342.01658390962984,342.01658390962984,342.01658390962984,342.01658390962984,s,1,0.5622223268146627,342.6083011612063,342.6083011612063,342.6083011612063,,,,,,,,,,,,,,,,,,,,,,,,,,,,112,001,2010-10-15_11h15.37.215,eb_01,2022.2.4,119.99253875404543,
,,,1,0,1,0,68,0,68,0,,,,,,,,,,,,,,,,,,,,,,,,,,,,,,,,,,,,,,,,,,,,,,,,,,,,,,,,,,,112,001,2010-10-15_11h15.37.215,eb_01,2022.2.4,119.99253875404543,
8,stimuli/8.png,l,1,0,1,0,69,0,69,0,0,0,0,0,,,,,,,,,,,,,,,,,,343.6083886975539,343.6083886975539,343.6083886975539,343.6083886975539,l,1,0.5464039073558524,344.1750962145161,344.1750962145161,344.1750962145161,,,,,,,,,,,,,,,,,,,,,,,,,,,,112,001,2010-10-15_11h15.37.215,eb_01,2022.2.4,119.99253875404543,
,,,1,0,1,0,69,0,69,0,,,,,,,,,,,,,,,,,,,,,,,,,,,,,,,,,,,,,,,,,,,,,,,,,,,,,,,,,,,112,001,2010-10-15_11h15.37.215,eb_01,2022.2.4,119.99253875404543,
9,stimuli/9.png,l,1,0,1,0,70,0,70,0,0,0,0,0,,,,,,,,,,,,,,,,,,345.1918434246618,345.1918434246618,345.1918434246618,345.1918434246618,l,1,0.6990032837202307,345.9169114162505,345.9169114162505,345.9169114162505,,,,,,,,,,,,,,,,,,,,,,,,,,,,112,001,2010-10-15_11h15.37.215,eb_01,2022.2.4,119.99253875404543,
,,,1,0,1,0,70,0,70,0,,,,,,,,,,,,,,,,,,,,,,,,,,,,,,,,,,,,,,,,,,,,,,,,,,,,,,,,,,,112,001,2010-10-15_11h15.37.215,eb_01,2022.2.4,119.99253875404543,
5,stimuli/5.png,s,1,0,1,0,71,0,71,0,0,0,0,0,,,,,,,,,,,,,,,,,,346.9169684657827,346.9169684657827,346.9169684657827,346.9169684657827,s,1,0.5659063991042785,347.5003386750759,347.5003386750759,347.5003386750759,,,,,,,,,,,,,,,,,,,,,,,,,,,,112,001,2010-10-15_11h15.37.215,eb_01,2022.2.4,119.99253875404543,
,,,1,0,1,0,71,0,71,0,,,,,,,,,,,,,,,,,,,,,,,,,,,,,,,,,,,,,,,,,,,,,,,,,,,,,,,,,,,112,001,2010-10-15_11h15.37.215,eb_01,2022.2.4,119.99253875404543,
9,stimuli/9.png,l,1,0,1,0,72,0,72,0,0,0,0,0,,,,,,,,,,,,,,,,,,348.51712572935503,348.51712572935503,348.51712572935503,348.51712572935503,l,1,0.46981172706000507,349.01713599223876,349.01713599223876,349.01713599223876,,,,,,,,,,,,,,,,,,,,,,,,,,,,112,001,2010-10-15_11h15.37.215,eb_01,2022.2.4,119.99253875404543,
,,,1,0,1,0,72,0,72,0,,,,,,,,,,,,,,,,,,,,,,,,,,,,,,,,,,,,,,,,,,,,,,,,,,,,,,,,,,,112,001,2010-10-15_11h15.37.215,eb_01,2022.2.4,119.99253875404543,
5,stimuli/5.png,s,1,0,1,0,73,0,73,0,0,0,0,0,,,,,,,,,,,,,,,,,,350.017257637548,350.017257637548,350.017257637548,350.017257637548,s,1,0.4976805795158725,350.53399730147794,350.53399730147794,350.53399730147794,,,,,,,,,,,,,,,,,,,,,,,,,,,,112,001,2010-10-15_11h15.37.215,eb_01,2022.2.4,119.99253875404543,
,,,1,0,1,0,73,0,73,0,,,,,,,,,,,,,,,,,,,,,,,,,,,,,,,,,,,,,,,,,,,,,,,,,,,,,,,,,,,112,001,2010-10-15_11h15.37.215,eb_01,2022.2.4,119.99253875404543,
9,stimuli/9.png,l,1,0,1,0,74,0,74,0,0,0,0,0,,,,,,,,,,,,,,,,,,351.55072066551656,351.55072066551656,351.55072066551656,351.55072066551656,l,1,0.516263637895463,352.09244591611787,352.09244591611787,352.09244591611787,,,,,,,,,,,,,,,,,,,,,,,,,,,,112,001,2010-10-15_11h15.37.215,eb_01,2022.2.4,119.99253875404543,
,,,1,0,1,0,74,0,74,0,,,,,,,,,,,,,,,,,,,,,,,,,,,,,,,,,,,,,,,,,,,,,,,,,,,,,,,,,,,112,001,2010-10-15_11h15.37.215,eb_01,2022.2.4,119.99253875404543,
8,stimuli/8.png,l,1,0,1,0,75,0,75,0,0,0,0,0,,,,,,,,,,,,,,,,,,353.0925331506296,353.0925331506296,353.0925331506296,353.0925331506296,l,1,0.510482315759873,353.6259101514879,353.6259101514879,353.6259101514879,,,,,,,,,,,,,,,,,,,,,,,,,,,,112,001,2010-10-15_11h15.37.215,eb_01,2022.2.4,119.99253875404543,
,,,1,0,1,0,75,0,75,0,,,,,,,,,,,,,,,,,,,,,,,,,,,,,,,,,,,,,,,,,,,,,,,,,,,,,,,,,,,112,001,2010-10-15_11h15.37.215,eb_01,2022.2.4,119.99253875404543,
9,stimuli/9.png,l,1,0,1,0,76,0,76,0,0,0,0,0,,,,,,,,,,,,,,,,,,354.64266430420685,354.64266430420685,354.64266430420685,354.64266430420685,l,1,0.5843723399448209,355.2593701609876,355.2593701609876,355.2593701609876,,,,,,,,,,,,,,,,,,,,,,,,,,,,112,001,2010-10-15_11h15.37.215,eb_01,2022.2.4,119.99253875404543,
,,,1,0,1,0,76,0,76,0,,,,,,,,,,,,,,,,,,,,,,,,,,,,,,,,,,,,,,,,,,,,,,,,,,,,,,,,,,,112,001,2010-10-15_11h15.37.215,eb_01,2022.2.4,119.99253875404543,
6,stimuli/6.png,s,1,0,1,0,77,0,77,0,0,0,0,0,,,,,,,,,,,,,,,,,,356.2761297469551,356.2761297469551,356.2761297469551,356.2761297469551,s,1,0.5019297139660921,356.809474449954,356.809474449954,356.809474449954,,,,,,,,,,,,,,,,,,,,,,,,,,,,112,001,2010-10-15_11h15.37.215,eb_01,2022.2.4,119.99253875404543,
,,,1,0,1,0,77,0,77,0,,,,,,,,,,,,,,,,,,,,,,,,,,,,,,,,,,,,,,,,,,,,,,,,,,,,,,,,,,,112,001,2010-10-15_11h15.37.215,eb_01,2022.2.4,119.99253875404543,
8,stimuli/8.png,l,1,0,1,0,78,0,78,0,0,0,0,0,,,,,,,,,,,,,,,,,,357.80955866596196,357.80955866596196,357.80955866596196,357.80955866596196,l,1,0.44065367567236535,358.26796954942984,358.26796954942984,358.26796954942984,,,,,,,,,,,,,,,,,,,,,,,,,,,,112,001,2010-10-15_11h15.37.215,eb_01,2022.2.4,119.99253875404543,
,,,1,0,1,0,78,0,78,0,,,,,,,,,,,,,,,,,,,,,,,,,,,,,,,,,,,,,,,,,,,,,,,,,,,,,,,,,,,112,001,2010-10-15_11h15.37.215,eb_01,2022.2.4,119.99253875404543,
3,stimuli/3.png,l,1,0,1,0,79,0,79,0,0,0,0,0,,,,,,,,,,,,,,,,,,359.27638420602307,359.27638420602307,359.27638420602307,359.27638420602307,l,1,0.5737255067797378,359.8597347950854,359.8597347950854,359.8597347950854,360.8682294417813,360.8682294417813,360.8682294417813,,,,,,,,,,,,,,,,,,,,,,,,,112,001,2010-10-15_11h15.37.215,eb_01,2022.2.4,119.99253875404543,
,,,1,0,1,0,79,0,79,0,,,,,,,,,,,,,,,,,,,,,,,,,,,,,,,,,,,,,,,,,,,,,,,,,,,,,,,,,,,112,001,2010-10-15_11h15.37.215,eb_01,2022.2.4,119.99253875404543,
2,stimuli/2.png,s,1,0,1,0,80,0,80,0,0,0,0,0,,,,,,,,,,,,,,,,,,360.8682294417813,360.8682294417813,360.8682294417813,360.8682294417813,s,1,0.5419344228284899,361.4265503741335,361.4265503741335,361.4265503741335,362.45165096546407,362.45165096546407,362.45165096546407,,,,,,,,,,,,,,,,,,,,,,,,,112,001,2010-10-15_11h15.37.215,eb_01,2022.2.4,119.99253875404543,
,,,1,0,1,0,80,0,80,0,,,,,,,,,,,,,,,,,,,,,,,,,,,,,,,,,,,,,,,,,,,,,,,,,,,,,,,,,,,112,001,2010-10-15_11h15.37.215,eb_01,2022.2.4,119.99253875404543,
1,stimuli/1.png,s,1,0,1,0,81,0,81,0,0,0,0,0,,,,,,,,,,,,,,,,,,362.45165096546407,362.45165096546407,362.45165096546407,362.45165096546407,s,1,0.5586393740668427,363.04335825605085,363.04335825605085,363.04335825605085,,,,,,,,,,,,,,,,,,,,,,,,,,,,112,001,2010-10-15_11h15.37.215,eb_01,2022.2.4,119.99253875404543,
,,,1,0,1,0,81,0,81,0,,,,,,,,,,,,,,,,,,,,,,,,,,,,,,,,,,,,,,,,,,,,,,,,,,,,,,,,,,,112,001,2010-10-15_11h15.37.215,eb_01,2022.2.4,119.99253875404543,
4,stimuli/4.png,l,1,0,1,0,82,0,82,0,0,0,0,0,,,,,,,,,,,,,,,,,,364.0517907217436,364.0517907217436,364.0517907217436,364.0517907217436,l,1,0.5904331746569369,364.6601465177082,364.6601465177082,364.6601465177082,,,,,,,,,,,,,,,,,,,,,,,,,,,,112,001,2010-10-15_11h15.37.215,eb_01,2022.2.4,119.99253875404543,
,,,1,0,1,0,82,0,82,0,,,,,,,,,,,,,,,,,,,,,,,,,,,,,,,,,,,,,,,,,,,,,,,,,,,,,,,,,,,112,001,2010-10-15_11h15.37.215,eb_01,2022.2.4,119.99253875404543,
2,stimuli/2.png,s,1,0,1,0,83,0,83,0,0,0,0,0,,,,,,,,,,,,,,,,,,365.6685693242471,365.6685693242471,365.6685693242471,365.6685693242471,s,1,0.5176533526973799,366.2019894896075,366.2019894896075,366.2019894896075,367.21873941642116,367.21873941642116,367.21873941642116,,,,,,,,,,,,,,,,,,,,,,,,,112,001,2010-10-15_11h15.37.215,eb_01,2022.2.4,119.99253875404543,
,,,1,0,1,0,83,0,83,0,,,,,,,,,,,,,,,,,,,,,,,,,,,,,,,,,,,,,,,,,,,,,,,,,,,,,,,,,,,112,001,2010-10-15_11h15.37.215,eb_01,2022.2.4,119.99253875404543,
4,stimuli/4.png,l,1,0,1,0,84,0,84,0,0,0,0,0,,,,,,,,,,,,,,,,,,367.21873941642116,367.21873941642116,367.21873941642116,367.21873941642116,l,1,0.4795312787464354,367.71876899764175,367.71876899764175,367.71876899764175,,,,,,,,,,,,,,,,,,,,,,,,,,,,112,001,2010-10-15_11h15.37.215,eb_01,2022.2.4,119.99253875404543,
,,,1,0,1,0,84,0,84,0,,,,,,,,,,,,,,,,,,,,,,,,,,,,,,,,,,,,,,,,,,,,,,,,,,,,,,,,,,,112,001,2010-10-15_11h15.37.215,eb_01,2022.2.4,119.99253875404543,
3,stimuli/3.png,l,1,0,1,0,85,0,85,0,0,0,0,0,,,,,,,,,,,,,,,,,,368.7271905967791,368.7271905967791,368.7271905967791,368.7271905967791,l,1,0.46813374606426805,369.2105629190046,369.2105629190046,369.2105629190046,370.21895282395417,370.21895282395417,370.21895282395417,,,,,,,,,,,,,,,,,,,,,,,,,112,001,2010-10-15_11h15.37.215,eb_01,2022.2.4,119.99253875404543,
,,,1,0,1,0,85,0,85,0,,,,,,,,,,,,,,,,,,,,,,,,,,,,,,,,,,,,,,,,,,,,,,,,,,,,,,,,,,,112,001,2010-10-15_11h15.37.215,eb_01,2022.2.4,119.99253875404543,
2,stimuli/2.png,s,1,0,1,0,86,0,86,0,0,0,0,0,,,,,,,,,,,,,,,,,,370.21895282395417,370.21895282395417,370.21895282395417,370.21895282395417,s,1,0.48737574176630005,370.7190267770784,370.7190267770784,370.7190267770784,371.73579421112663,371.73579421112663,371.73579421112663,,,,,,,,,,,,,,,,,,,,,,,,,112,001,2010-10-15_11h15.37.215,eb_01,2022.2.4,119.99253875404543,
,,,1,0,1,0,86,0,86,0,,,,,,,,,,,,,,,,,,,,,,,,,,,,,,,,,,,,,,,,,,,,,,,,,,,,,,,,,,,112,001,2010-10-15_11h15.37.215,eb_01,2022.2.4,119.99253875404543,
4,stimuli/4.png,l,1,0,1,0,87,0,87,0,0,0,0,0,,,,,,,,,,,,,,,,,,371.73579421112663,371.73579421112663,371.73579421112663,371.73579421112663,l,1,0.48957139454432763,372.2441542329907,372.2441542329907,372.2441542329907,,,,,,,,,,,,,,,,,,,,,,,,,,,,112,001,2010-10-15_11h15.37.215,eb_01,2022.2.4,119.99253875404543,
,,,1,0,1,0,87,0,87,0,,,,,,,,,,,,,,,,,,,,,,,,,,,,,,,,,,,,,,,,,,,,,,,,,,,,,,,,,,,112,001,2010-10-15_11h15.37.215,eb_01,2022.2.4,119.99253875404543,
3,stimuli/3.png,l,1,0,1,0,88,0,88,0,0,0,0,0,,,,,,,,,,,,,,,,,,373.2525420250022,373.2525420250022,373.2525420250022,373.2525420250022,l,1,0.47685236504185013,373.74425173035706,373.74425173035706,373.74425173035706,374.75271770136897,374.75271770136897,374.75271770136897,,,,,,,,,,,,,,,,,,,,,,,,,112,001,2010-10-15_11h15.37.215,eb_01,2022.2.4,119.99253875404543,
,,,1,0,1,0,88,0,88,0,,,,,,,,,,,,,,,,,,,,,,,,,,,,,,,,,,,,,,,,,,,,,,,,,,,,,,,,,,,112,001,2010-10-15_11h15.37.215,eb_01,2022.2.4,119.99253875404543,
2,stimuli/2.png,s,1,0,1,0,89,0,89,0,0,0,0,0,,,,,,,,,,,,,,,,,,374.75271770136897,374.75271770136897,374.75271770136897,374.75271770136897,s,1,0.5207210484659299,375.28608594861,375.28608594861,375.28608594861,376.30283074398176,376.30283074398176,376.30283074398176,,,,,,,,,,,,,,,,,,,,,,,,,112,001,2010-10-15_11h15.37.215,eb_01,2022.2.4,119.99253875404543,
,,,1,0,1,0,89,0,89,0,,,,,,,,,,,,,,,,,,,,,,,,,,,,,,,,,,,,,,,,,,,,,,,,,,,,,,,,,,,112,001,2010-10-15_11h15.37.215,eb_01,2022.2.4,119.99253875404543,
4,stimuli/4.png,l,1,0,1,0,90,0,90,0,0,0,0,0,,,,,,,,,,,,,,,,,,376.30283074398176,376.30283074398176,376.30283074398176,376.30283074398176,l,1,0.43462785545852967,376.76119906667736,376.76119906667736,376.76119906667736,,,,,,,,,,,,,,,,,,,,,,,,,,,,112,001,2010-10-15_11h15.37.215,eb_01,2022.2.4,119.99253875404543,
,,,1,0,1,0,90,0,90,0,,,,,,,,,,,,,,,,,,,,,,,,,,,,,,,,,,,,,,,,,,,,,,,,,,,,,,,,,,,112,001,2010-10-15_11h15.37.215,eb_01,2022.2.4,119.99253875404543,
3,stimuli/3.png,l,1,0,1,0,91,0,91,0,0,0,0,0,,,,,,,,,,,,,,,,,,377.7696016493137,377.7696016493137,377.7696016493137,377.7696016493137,l,1,0.5199078661098611,378.30301638136734,378.30301638136734,378.30301638136734,379.31142741578515,379.31142741578515,379.31142741578515,,,,,,,,,,,,,,,,,,,,,,,,,112,001,2010-10-15_11h15.37.215,eb_01,2022.2.4,119.99253875404543,
,,,1,0,1,0,91,0,91,0,,,,,,,,,,,,,,,,,,,,,,,,,,,,,,,,,,,,,,,,,,,,,,,,,,,,,,,,,,,112,001,2010-10-15_11h15.37.215,eb_01,2022.2.4,119.99253875404543,
8,stimuli/8.png,l,1,0,1,0,92,0,92,0,0,0,0,0,,,,,,,,,,,,,,,,,,379.31142741578515,379.31142741578515,379.31142741578515,379.31142741578515,l,1,0.5780962865392212,379.91147782464395,379.91147782464395,379.91147782464395,,,,,,,,,,,,,,,,,,,,,,,,,,,,112,001,2010-10-15_11h15.37.215,eb_01,2022.2.4,119.99253875404543,
,,,1,0,1,0,92,0,92,0,,,,,,,,,,,,,,,,,,,,,,,,,,,,,,,,,,,,,,,,,,,,,,,,,,,,,,,,,,,112,001,2010-10-15_11h15.37.215,eb_01,2022.2.4,119.99253875404543,
6,stimuli/6.png,s,1,0,1,0,93,0,93,0,0,0,0,0,,,,,,,,,,,,,,,,,,380.9365892825299,380.9365892825299,380.9365892825299,380.9365892825299,s,1,0.5129783087177202,381.47827982046874,381.47827982046874,381.47827982046874,,,,,,,,,,,,,,,,,,,,,,,,,,,,112,001,2010-10-15_11h15.37.215,eb_01,2022.2.4,119.99253875404543,
,,,1,0,1,0,93,0,93,0,,,,,,,,,,,,,,,,,,,,,,,,,,,,,,,,,,,,,,,,,,,,,,,,,,,,,,,,,,,112,001,2010-10-15_11h15.37.215,eb_01,2022.2.4,119.99253875404543,
9,stimuli/9.png,l,1,0,1,0,94,0,94,0,0,0,0,0,,,,,,,,,,,,,,,,,,382.48667787533486,382.48667787533486,382.48667787533486,382.48667787533486,l,1,0.37094185131718405,382.88670866398024,382.88670866398024,382.88670866398024,,,,,,,,,,,,,,,,,,,,,,,,,,,,112,001,2010-10-15_11h15.37.215,eb_01,2022.2.4,119.99253875404543,
,,,1,0,1,0,94,0,94,0,,,,,,,,,,,,,,,,,,,,,,,,,,,,,,,,,,,,,,,,,,,,,,,,,,,,,,,,,,,112,001,2010-10-15_11h15.37.215,eb_01,2022.2.4,119.99253875404543,
5,stimuli/5.png,s,1,0,1,0,95,0,95,0,0,0,0,0,,,,,,,,,,,,,,,,,,383.8951378093625,383.8951378093625,383.8951378093625,383.8951378093625,s,1,0.4344775344361551,384.3534919451631,384.3534919451631,384.3534919451631,,,,,,,,,,,,,,,,,,,,,,,,,,,,112,001,2010-10-15_11h15.37.215,eb_01,2022.2.4,119.99253875404543,
,,,1,0,1,0,95,0,95,0,,,,,,,,,,,,,,,,,,,,,,,,,,,,,,,,,,,,,,,,,,,,,,,,,,,,,,,,,,,112,001,2010-10-15_11h15.37.215,eb_01,2022.2.4,119.99253875404543,
6,stimuli/6.png,s,1,0,1,0,96,0,96,0,0,0,0,0,,,,,,,,,,,,,,,,,,385.3786498878617,385.3786498878617,385.3786498878617,385.3786498878617,s,1,0.5510074130143039,385.96201858788845,385.96201858788845,385.96201858788845,,,,,,,,,,,,,,,,,,,,,,,,,,,,112,001,2010-10-15_11h15.37.215,eb_01,2022.2.4,119.99253875404543,
,,,1,0,1,0,96,0,96,0,,,,,,,,,,,,,,,,,,,,,,,,,,,,,,,,,,,,,,,,,,,,,,,,,,,,,,,,,,,112,001,2010-10-15_11h15.37.215,eb_01,2022.2.4,119.99253875404543,
5,stimuli/5.png,s,1,0,1,0,97,0,97,0,0,0,0,0,,,,,,,,,,,,,,,,,,386.9620840892312,386.9620840892312,386.9620840892312,386.9620840892312,l,0,0.47063366303336807,387.45382639431045,387.45382639431045,387.45382639431045,,,,,,,,,,,,,,,,,,,,,,,,,,,,112,001,2010-10-15_11h15.37.215,eb_01,2022.2.4,119.99253875404543,
,,,1,0,1,0,97,0,97,0,,,,,,,,,,,,,,,,,,,,,,,,,,,,,,,,,,,,,,,,,,,,,,,,,,,,,,,,,,,112,001,2010-10-15_11h15.37.215,eb_01,2022.2.4,119.99253875404543,
9,stimuli/9.png,l,1,0,1,0,98,0,98,0,0,0,0,0,,,,,,,,,,,,,,,,,,388.47054492877214,388.47054492877214,388.47054492877214,388.47054492877214,l,1,0.4501320496783592,388.9455862066825,388.9455862066825,388.9455862066825,,,,,,,,,,,,,,,,,,,,,,,,,,,,112,001,2010-10-15_11h15.37.215,eb_01,2022.2.4,119.99253875404543,
,,,1,0,1,0,98,0,98,0,,,,,,,,,,,,,,,,,,,,,,,,,,,,,,,,,,,,,,,,,,,,,,,,,,,,,,,,,,,112,001,2010-10-15_11h15.37.215,eb_01,2022.2.4,119.99253875404543,
8,stimuli/8.png,l,1,0,1,0,99,0,99,0,0,0,0,0,,,,,,,,,,,,,,,,,,389.94569698543637,389.94569698543637,389.94569698543637,389.94569698543637,l,1,0.46304697945015505,390.4290575355117,390.4290575355117,390.4290575355117,,,,,,,,,,,,,,,,,,,,,,,,,,,,112,001,2010-10-15_11h15.37.215,eb_01,2022.2.4,119.99253875404543,
,,,1,0,1,0,99,0,99,0,,,,,,,,,,,,,,,,,,,,,,,,,,,,,,,,,,,,,,,,,,,,,,,,,,,,,,,,,,,112,001,2010-10-15_11h15.37.215,eb_01,2022.2.4,119.99253875404543,
,,,1,0,1,0,,,,,,,,,,,,,,,,,,,,,,,,,,,,,,,,,,,,,,,391.42913873301586,391.42913873301586,return,1.1476623176131397,,,,,,,,,,,,,,,,,,,,,112,001,2010-10-15_11h15.37.215,eb_01,2022.2.4,119.99253875404543,
6,stimuli/6.png,s,2,0,2,0,0,0,0,0,0,0,0,0,,,,,,,,,,,,,,,,,,392.61254818271846,392.61254818271846,392.61254818271846,392.61254818271846,s,1,1.8922901523474138,394.5377293678466,394.5377293678466,394.5377293678466,,,,,,,,,,,,,,,,,,,,,,,,,,,,112,001,2010-10-15_11h15.37.215,eb_01,2022.2.4,119.99253875404543,
,,,2,0,2,0,0,0,0,0,,,,,,,,,,,,,,,,,,,,,,,,,,,,,,,,,,,,,,,,,,,,,,,,,,,,,,,,,,,112,001,2010-10-15_11h15.37.215,eb_01,2022.2.4,119.99253875404543,
8,stimuli/8.png,l,2,0,2,0,1,0,1,0,0,0,0,0,,,,,,,,,,,,,,,,,,395.5378081505478,395.5378081505478,395.5378081505478,395.5378081505478,l,1,2.343089600588428,397.9046979845443,397.9046979845443,397.9046979845443,,,,,,,,,,,,,,,,,,,,,,,,,,,,112,001,2010-10-15_11h15.37.215,eb_01,2022.2.4,119.99253875404543,
,,,2,0,2,0,1,0,1,0,,,,,,,,,,,,,,,,,,,,,,,,,,,,,,,,,,,,,,,,,,,,,,,,,,,,,,,,,,,112,001,2010-10-15_11h15.37.215,eb_01,2022.2.4,119.99253875404543,
6,stimuli/6.png,s,2,0,2,0,2,0,2,0,0,0,0,0,,,,,,,,,,,,,,,,,,398.9297711075924,398.9297711075924,398.9297711075924,398.9297711075924,s,1,0.5191493184538558,399.4798171396251,399.4798171396251,399.4798171396251,,,,,,,,,,,,,,,,,,,,,,,,,,,,112,001,2010-10-15_11h15.37.215,eb_01,2022.2.4,119.99253875404543,
,,,2,0,2,0,2,0,2,0,,,,,,,,,,,,,,,,,,,,,,,,,,,,,,,,,,,,,,,,,,,,,,,,,,,,,,,,,,,112,001,2010-10-15_11h15.37.215,eb_01,2022.2.4,119.99253875404543,
8,stimuli/8.png,l,2,0,2,0,3,0,3,0,0,0,0,0,,,,,,,,,,,,,,,,,,400.47993546459475,400.47993546459475,400.47993546459475,400.47993546459475,l,1,0.673049062199425,401.1716113628354,401.1716113628354,401.1716113628354,,,,,,,,,,,,,,,,,,,,,,,,,,,,112,001,2010-10-15_11h15.37.215,eb_01,2022.2.4,119.99253875404543,
,,,2,0,2,0,3,0,3,0,,,,,,,,,,,,,,,,,,,,,,,,,,,,,,,,,,,,,,,,,,,,,,,,,,,,,,,,,,,112,001,2010-10-15_11h15.37.215,eb_01,2022.2.4,119.99253875404543,
9,stimuli/9.png,l,2,0,2,0,4,0,4,0,0,0,0,0,,,,,,,,,,,,,,,,,,402.1883818153874,402.1883818153874,402.1883818153874,402.1883818153874,l,1,0.6196476718760096,402.83844143064925,402.83844143064925,402.83844143064925,,,,,,,,,,,,,,,,,,,,,,,,,,,,112,001,2010-10-15_11h15.37.215,eb_01,2022.2.4,119.99253875404543,
,,,2,0,2,0,4,0,4,0,,,,,,,,,,,,,,,,,,,,,,,,,,,,,,,,,,,,,,,,,,,,,,,,,,,,,,,,,,,112,001,2010-10-15_11h15.37.215,eb_01,2022.2.4,119.99253875404543,
8,stimuli/8.png,l,2,0,2,0,5,0,5,0,0,0,0,0,,,,,,,,,,,,,,,,,,403.8384945561411,403.8384945561411,403.8384945561411,403.8384945561411,l,1,0.5215236661024392,404.3802080346213,404.3802080346213,404.3802080346213,,,,,,,,,,,,,,,,,,,,,,,,,,,,112,001,2010-10-15_11h15.37.215,eb_01,2022.2.4,119.99253875404543,
,,,2,0,2,0,5,0,5,0,,,,,,,,,,,,,,,,,,,,,,,,,,,,,,,,,,,,,,,,,,,,,,,,,,,,,,,,,,,112,001,2010-10-15_11h15.37.215,eb_01,2022.2.4,119.99253875404543,
3,stimuli/3.png,l,2,0,2,0,6,0,6,0,0,0,0,0,,,,,,,,,,,,,,,,,,405.3886574039061,405.3886574039061,405.3886574039061,405.3886574039061,l,1,0.5714030772505794,405.9803888424358,405.9803888424358,405.9803888424358,,,,,,,,,,,,,,,,,,,,,,,,,,,,112,001,2010-10-15_11h15.37.215,eb_01,2022.2.4,119.99253875404543,
,,,2,0,2,0,6,0,6,0,,,,,,,,,,,,,,,,,,,,,,,,,,,,,,,,,,,,,,,,,,,,,,,,,,,,,,,,,,,112,001,2010-10-15_11h15.37.215,eb_01,2022.2.4,119.99253875404543,
2,stimuli/2.png,s,2,0,2,0,7,0,7,0,0,0,0,0,,,,,,,,,,,,,,,,,,406.9888068193977,406.9888068193977,406.9888068193977,406.9888068193977,s,1,0.6032810938486364,407.6055280705041,407.6055280705041,407.6055280705041,408.62229037311045,408.62229037311045,408.62229037311045,,,,,,,,,,,,,,,,,,,,,,,,,112,001,2010-10-15_11h15.37.215,eb_01,2022.2.4,119.99253875404543,
,,,2,0,2,0,7,0,7,0,,,,,,,,,,,,,,,,,,,,,,,,,,,,,,,,,,,,,,,,,,,,,,,,,,,,,,,,,,,112,001,2010-10-15_11h15.37.215,eb_01,2022.2.4,119.99253875404543,
4,stimuli/4.png,l,2,0,2,0,8,0,8,0,0,0,0,0,,,,,,,,,,,,,,,,,,408.62229037311045,408.62229037311045,408.62229037311045,408.62229037311045,l,1,0.5138358629192226,409.15561455034185,409.15561455034185,409.15561455034185,,,,,,,,,,,,,,,,,,,,,,,,,,,,112,001,2010-10-15_11h15.37.215,eb_01,2022.2.4,119.99253875404543,
,,,2,0,2,0,8,0,8,0,,,,,,,,,,,,,,,,,,,,,,,,,,,,,,,,,,,,,,,,,,,,,,,,,,,,,,,,,,,112,001,2010-10-15_11h15.37.215,eb_01,2022.2.4,119.99253875404543,
1,stimuli/1.png,s,2,0,2,0,9,0,9,0,0,0,0,0,,,,,,,,,,,,,,,,,,410.18070035104756,410.18070035104756,410.18070035104756,410.18070035104756,s,1,0.9554533532937057,411.1641647373617,411.1641647373617,411.1641647373617,,,,,,,,,,,,,,,,,,,,,,,,,,,,112,001,2010-10-15_11h15.37.215,eb_01,2022.2.4,119.99253875404543,
,,,2,0,2,0,9,0,9,0,,,,,,,,,,,,,,,,,,,,,,,,,,,,,,,,,,,,,,,,,,,,,,,,,,,,,,,,,,,112,001,2010-10-15_11h15.37.215,eb_01,2022.2.4,119.99253875404543,
2,stimuli/2.png,s,2,0,2,0,10,0,10,0,0,0,0,0,,,,,,,,,,,,,,,,,,412.164257706987,412.164257706987,412.164257706987,412.164257706987,s,1,0.5639410574513022,412.7392663851497,412.7392663851497,412.7392663851497,413.7476731936622,413.7476731936622,413.7476731936622,,,,,,,,,,,,,,,,,,,,,,,,,112,001,2010-10-15_11h15.37.215,eb_01,2022.2.4,119.99253875404543,
,,,2,0,2,0,10,0,10,0,,,,,,,,,,,,,,,,,,,,,,,,,,,,,,,,,,,,,,,,,,,,,,,,,,,,,,,,,,,112,001,2010-10-15_11h15.37.215,eb_01,2022.2.4,119.99253875404543,
