index,stimulus,correct_answer,block.thisRepN,block.thisTrialN,block.thisN,block.thisIndex,trial.thisRepN,trial.thisTrialN,trial.thisN,trial.thisIndex,display_row.thisRepN,display_row.thisTrialN,display_row.thisN,display_row.thisIndex,pair_questions.thisRepN,pair_questions.thisTrialN,pair_questions.thisN,pair_questions.thisIndex,welcome_text.started,instructions_0_keypress.started,instructions_0_keypress.keys,instructions_0_keypress.rt,instructions_1_keypress.started,instructions_1_text.started,instructions_1_keypress.keys,instructions_1_keypress.rt,instructions_2_keypress.started,instructions_2_text.started,instructions_2_keypress.keys,instructions_2_keypress.rt,text_countdown.started,image.started,size_question.started,size_resp.started,keypress_options.started,size_resp.keys,size_resp.corr,size_resp.rt,fb_image.started,fb.started,fb_size_question.started,fb_image.stopped,fb.stopped,fb_size_question.stopped,block_break_text.started,block_break_keypress.started,block_break_keypress.keys,block_break_keypress.rt,seq_reveal.started,seq_reveal_adv.started,seq_reveal_adv.keys,seq_reveal_adv.rt,instruction_2afc_text.started,instruction_2afc_keypress.started,instruction_2afc_keypress.keys,instruction_2afc_keypress.rt,dist_2afc_test.started,dist_2afc_resp.started,text.started,stim_00.started,stim_01.started,stim_10.started,stim_11.started,dist_2afc_resp.keys,dist_2afc_resp.rt,graph.started,debrief_text.started,debriefing_title.started,participant,session,date,expName,psychopyVersion,frameRate,
,,,,,,,,,,,,,,,,,,,298.6914413612103,298.6914413612103,return,30.704089581937296,,,,,,,,,,,,,,,,,,,,,,,,,,,,,,,,,,,,,,,,,,,,,,,113,001,2010-10-15_13h21.06.018,eb_01,2022.2.4,119.95083077466099,
,,,,,,,,,,,,,,,,,,,,,,,329.4103854315181,329.4103854315181,return,13.904403807187919,,,,,,,,,,,,,,,,,,,,,,,,,,,,,,,,,,,,,,,,,,,113,001,2010-10-15_13h21.06.018,eb_01,2022.2.4,119.95083077466099,
,,,,,,,,,,,,,,,,,,,,,,,,,,,343.3282256384846,343.3282256384846,space,13.561884994414868,,,,,,,,,,,,,,,,,,,,,,,,,,,,,,,,,,,,,,,113,001,2010-10-15_13h21.06.018,eb_01,2022.2.4,119.95083077466099,
3,stimuli/3.png,l,0,0,0,0,0,0,0,0,0,0,0,0,,,,,,,,,,,,,,,,,356.91273563119466,361.9298447588226,361.9298447588226,361.9298447588226,361.9298447588226,l,1,1.0083429422811605,362.9549021856801,362.9549021856801,362.9549021856801,,,,,,,,,,,,,,,,,,,,,,,,,,,,113,001,2010-10-15_13h21.06.018,eb_01,2022.2.4,119.95083077466099,
,,,0,0,0,0,0,0,0,0,,,,,,,,,,,,,,,,,,,,,,,,,,,,,,,,,,,,,,,,,,,,,,,,,,,,,,,,,,,113,001,2010-10-15_13h21.06.018,eb_01,2022.2.4,119.95083077466099,
4,stimuli/4.png,l,0,0,0,0,1,0,1,0,0,0,0,0,,,,,,,,,,,,,,,,,,363.9716735437978,363.9716735437978,363.9716735437978,363.9716735437978,l,1,1.2065493529371452,365.1967599481868,365.1967599481868,365.1967599481868,,,,,,,,,,,,,,,,,,,,,,,,,,,,113,001,2010-10-15_13h21.06.018,eb_01,2022.2.4,119.95083077466099,
,,,0,0,0,0,1,0,1,0,,,,,,,,,,,,,,,,,,,,,,,,,,,,,,,,,,,,,,,,,,,,,,,,,,,,,,,,,,,113,001,2010-10-15_13h21.06.018,eb_01,2022.2.4,119.95083077466099,
2,stimuli/2.png,s,0,0,0,0,2,0,2,0,0,0,0,0,,,,,,,,,,,,,,,,,,366.20519543241244,366.20519543241244,366.20519543241244,366.20519543241244,s,1,1.6290763760043774,367.84699312687735,367.84699312687735,367.84699312687735,368.863759655389,368.863759655389,368.863759655389,,,,,,,,,,,,,,,,,,,,,,,,,113,001,2010-10-15_13h21.06.018,eb_01,2022.2.4,119.95083077466099,
,,,0,0,0,0,2,0,2,0,,,,,,,,,,,,,,,,,,,,,,,,,,,,,,,,,,,,,,,,,,,,,,,,,,,,,,,,,,,113,001,2010-10-15_13h21.06.018,eb_01,2022.2.4,119.95083077466099,
4,stimuli/4.png,l,0,0,0,0,3,0,3,0,0,0,0,0,,,,,,,,,,,,,,,,,,368.863759655389,368.863759655389,368.863759655389,368.863759655389,l,1,0.6185493771045003,369.50546739873243,369.50546739873243,369.50546739873243,,,,,,,,,,,,,,,,,,,,,,,,,,,,113,001,2010-10-15_13h21.06.018,eb_01,2022.2.4,119.95083077466099,
,,,0,0,0,0,3,0,3,0,,,,,,,,,,,,,,,,,,,,,,,,,,,,,,,,,,,,,,,,,,,,,,,,,,,,,,,,,,,113,001,2010-10-15_13h21.06.018,eb_01,2022.2.4,119.95083077466099,
1,stimuli/1.png,s,0,0,0,0,4,0,4,0,0,0,0,0,,,,,,,,,,,,,,,,,,370.53054021991557,370.53054021991557,370.53054021991557,370.53054021991557,s,1,1.5668301936530042,372.12240054813446,372.12240054813446,372.12240054813446,,,,,,,,,,,,,,,,,,,,,,,,,,,,113,001,2010-10-15_13h21.06.018,eb_01,2022.2.4,119.95083077466099,
,,,0,0,0,0,4,0,4,0,,,,,,,,,,,,,,,,,,,,,,,,,,,,,,,,,,,,,,,,,,,,,,,,,,,,,,,,,,,113,001,2010-10-15_13h21.06.018,eb_01,2022.2.4,119.95083077466099,
2,stimuli/2.png,s,0,0,0,0,5,0,5,0,0,0,0,0,,,,,,,,,,,,,,,,,,373.1224527680897,373.1224527680897,373.1224527680897,373.1224527680897,s,1,0.8549647943582386,373.9891747738293,373.9891747738293,373.9891747738293,375.01427657256136,375.01427657256136,375.01427657256136,,,,,,,,,,,,,,,,,,,,,,,,,113,001,2010-10-15_13h21.06.018,eb_01,2022.2.4,119.95083077466099,
,,,0,0,0,0,5,0,5,0,,,,,,,,,,,,,,,,,,,,,,,,,,,,,,,,,,,,,,,,,,,,,,,,,,,,,,,,,,,113,001,2010-10-15_13h21.06.018,eb_01,2022.2.4,119.95083077466099,
1,stimuli/1.png,s,0,0,0,0,6,0,6,0,0,0,0,0,,,,,,,,,,,,,,,,,,375.01427657256136,375.01427657256136,375.01427657256136,375.01427657256136,s,1,1.1871555269754026,376.2310482324974,376.2310482324974,376.2310482324974,,,,,,,,,,,,,,,,,,,,,,,,,,,,113,001,2010-10-15_13h21.06.018,eb_01,2022.2.4,119.95083077466099,
,,,0,0,0,0,6,0,6,0,,,,,,,,,,,,,,,,,,,,,,,,,,,,,,,,,,,,,,,,,,,,,,,,,,,,,,,,,,,113,001,2010-10-15_13h21.06.018,eb_01,2022.2.4,119.95083077466099,
2,stimuli/2.png,s,0,0,0,0,7,0,7,0,0,0,0,0,,,,,,,,,,,,,,,,,,377.2311339577427,377.2311339577427,377.2311339577427,377.2311339577427,s,1,0.6983121838129591,377.93956008463283,377.93956008463283,377.93956008463283,378.9479312749172,378.9479312749172,378.9479312749172,,,,,,,,,,,,,,,,,,,,,,,,,113,001,2010-10-15_13h21.06.018,eb_01,2022.2.4,119.95083077466099,
,,,0,0,0,0,7,0,7,0,,,,,,,,,,,,,,,,,,,,,,,,,,,,,,,,,,,,,,,,,,,,,,,,,,,,,,,,,,,113,001,2010-10-15_13h21.06.018,eb_01,2022.2.4,119.95083077466099,
3,stimuli/3.png,l,0,0,0,0,8,0,8,0,0,0,0,0,,,,,,,,,,,,,,,,,,378.9479312749172,378.9479312749172,378.9479312749172,378.9479312749172,l,1,0.6695999640505761,379.63969410577556,379.63969410577556,379.63969410577556,,,,,,,,,,,,,,,,,,,,,,,,,,,,113,001,2010-10-15_13h21.06.018,eb_01,2022.2.4,119.95083077466099,
,,,0,0,0,0,8,0,8,0,,,,,,,,,,,,,,,,,,,,,,,,,,,,,,,,,,,,,,,,,,,,,,,,,,,,,,,,,,,113,001,2010-10-15_13h21.06.018,eb_01,2022.2.4,119.95083077466099,
8,stimuli/8.png,l,0,0,0,0,9,0,9,0,0,0,0,0,,,,,,,,,,,,,,,,,,380.64808280332363,380.64808280332363,380.64808280332363,380.64808280332363,l,1,0.7934681041224394,381.46481099695666,381.46481099695666,381.46481099695666,,,,,,,,,,,,,,,,,,,,,,,,,,,,113,001,2010-10-15_13h21.06.018,eb_01,2022.2.4,119.95083077466099,
,,,0,0,0,0,9,0,9,0,,,,,,,,,,,,,,,,,,,,,,,,,,,,,,,,,,,,,,,,,,,,,,,,,,,,,,,,,,,113,001,2010-10-15_13h21.06.018,eb_01,2022.2.4,119.95083077466099,
6,stimuli/6.png,s,0,0,0,0,10,0,10,0,0,0,0,0,,,,,,,,,,,,,,,,,,382.4899137012253,382.4899137012253,382.4899137012253,382.4899137012253,s,1,0.6636713393672835,383.1816406120197,383.1816406120197,383.1816406120197,,,,,,,,,,,,,,,,,,,,,,,,,,,,113,001,2010-10-15_13h21.06.018,eb_01,2022.2.4,119.95083077466099,
,,,0,0,0,0,10,0,10,0,,,,,,,,,,,,,,,,,,,,,,,,,,,,,,,,,,,,,,,,,,,,,,,,,,,,,,,,,,,113,001,2010-10-15_13h21.06.018,eb_01,2022.2.4,119.95083077466099,
5,stimuli/5.png,s,0,0,0,0,11,0,11,0,0,0,0,0,,,,,,,,,,,,,,,,,,384.1817278465023,384.1817278465023,384.1817278465023,384.1817278465023,s,1,0.6038924742606468,384.8067765197193,384.8067765197193,384.8067765197193,,,,,,,,,,,,,,,,,,,,,,,,,,,,113,001,2010-10-15_13h21.06.018,eb_01,2022.2.4,119.95083077466099,
,,,0,0,0,0,11,0,11,0,,,,,,,,,,,,,,,,,,,,,,,,,,,,,,,,,,,,,,,,,,,,,,,,,,,,,,,,,,,113,001,2010-10-15_13h21.06.018,eb_01,2022.2.4,119.95083077466099,
9,stimuli/9.png,l,0,0,0,0,12,0,12,0,0,0,0,0,,,,,,,,,,,,,,,,,,385.8235336909129,385.8235336909129,385.8235336909129,385.8235336909129,l,1,0.7771136000810657,386.6319411031145,386.6319411031145,386.6319411031145,,,,,,,,,,,,,,,,,,,,,,,,,,,,113,001,2010-10-15_13h21.06.018,eb_01,2022.2.4,119.95083077466099,
,,,0,0,0,0,12,0,12,0,,,,,,,,,,,,,,,,,,,,,,,,,,,,,,,,,,,,,,,,,,,,,,,,,,,,,,,,,,,113,001,2010-10-15_13h21.06.018,eb_01,2022.2.4,119.95083077466099,
8,stimuli/8.png,l,0,0,0,0,13,0,13,0,0,0,0,0,,,,,,,,,,,,,,,,,,387.6320198858157,387.6320198858157,387.6320198858157,387.6320198858157,l,1,0.5206653415807523,388.1737146496598,388.1737146496598,388.1737146496598,,,,,,,,,,,,,,,,,,,,,,,,,,,,113,001,2010-10-15_13h21.06.018,eb_01,2022.2.4,119.95083077466099,
,,,0,0,0,0,13,0,13,0,,,,,,,,,,,,,,,,,,,,,,,,,,,,,,,,,,,,,,,,,,,,,,,,,,,,,,,,,,,113,001,2010-10-15_13h21.06.018,eb_01,2022.2.4,119.95083077466099,
3,stimuli/3.png,l,0,0,0,0,14,0,14,0,0,0,0,0,,,,,,,,,,,,,,,,,,389.18213413583,389.18213413583,389.18213413583,389.18213413583,l,1,0.522576954041142,389.7155322661856,389.7155322661856,389.7155322661856,390.7239351506578,390.7239351506578,390.7239351506578,,,,,,,,,,,,,,,,,,,,,,,,,113,001,2010-10-15_13h21.06.018,eb_01,2022.2.4,119.95083077466099,
,,,0,0,0,0,14,0,14,0,,,,,,,,,,,,,,,,,,,,,,,,,,,,,,,,,,,,,,,,,,,,,,,,,,,,,,,,,,,113,001,2010-10-15_13h21.06.018,eb_01,2022.2.4,119.95083077466099,
8,stimuli/8.png,l,0,0,0,0,15,0,15,0,0,0,0,0,,,,,,,,,,,,,,,,,,390.7239351506578,390.7239351506578,390.7239351506578,390.7239351506578,l,1,0.44481148503837176,391.1906517230964,391.1906517230964,391.1906517230964,,,,,,,,,,,,,,,,,,,,,,,,,,,,113,001,2010-10-15_13h21.06.018,eb_01,2022.2.4,119.95083077466099,
,,,0,0,0,0,15,0,15,0,,,,,,,,,,,,,,,,,,,,,,,,,,,,,,,,,,,,,,,,,,,,,,,,,,,,,,,,,,,113,001,2010-10-15_13h21.06.018,eb_01,2022.2.4,119.95083077466099,
6,stimuli/6.png,s,0,0,0,0,16,0,16,0,0,0,0,0,,,,,,,,,,,,,,,,,,392.2157275627542,392.2157275627542,392.2157275627542,392.2157275627542,s,1,0.6410673446953297,392.8824516814493,392.8824516814493,392.8824516814493,,,,,,,,,,,,,,,,,,,,,,,,,,,,113,001,2010-10-15_13h21.06.018,eb_01,2022.2.4,119.95083077466099,
,,,0,0,0,0,16,0,16,0,,,,,,,,,,,,,,,,,,,,,,,,,,,,,,,,,,,,,,,,,,,,,,,,,,,,,,,,,,,113,001,2010-10-15_13h21.06.018,eb_01,2022.2.4,119.95083077466099,
5,stimuli/5.png,s,0,0,0,0,17,0,17,0,0,0,0,0,,,,,,,,,,,,,,,,,,393.88255310285604,393.88255310285604,393.88255310285604,393.88255310285604,s,1,0.526239595055813,394.4325822313258,394.4325822313258,394.4325822313258,,,,,,,,,,,,,,,,,,,,,,,,,,,,113,001,2010-10-15_13h21.06.018,eb_01,2022.2.4,119.95083077466099,
,,,0,0,0,0,17,0,17,0,,,,,,,,,,,,,,,,,,,,,,,,,,,,,,,,,,,,,,,,,,,,,,,,,,,,,,,,,,,113,001,2010-10-15_13h21.06.018,eb_01,2022.2.4,119.95083077466099,
9,stimuli/9.png,l,0,0,0,0,18,0,18,0,0,0,0,0,,,,,,,,,,,,,,,,,,395.44935208017705,395.44935208017705,395.44935208017705,395.44935208017705,l,1,0.6955143414379563,396.1743929053191,396.1743929053191,396.1743929053191,,,,,,,,,,,,,,,,,,,,,,,,,,,,113,001,2010-10-15_13h21.06.018,eb_01,2022.2.4,119.95083077466099,
,,,0,0,0,0,18,0,18,0,,,,,,,,,,,,,,,,,,,,,,,,,,,,,,,,,,,,,,,,,,,,,,,,,,,,,,,,,,,113,001,2010-10-15_13h21.06.018,eb_01,2022.2.4,119.95083077466099,
5,stimuli/5.png,s,0,0,0,0,19,0,19,0,0,0,0,0,,,,,,,,,,,,,,,,,,397.17449885446695,397.17449885446695,397.17449885446695,397.17449885446695,s,1,0.6183839636214543,397.8162352735235,397.8162352735235,397.8162352735235,,,,,,,,,,,,,,,,,,,,,,,,,,,,113,001,2010-10-15_13h21.06.018,eb_01,2022.2.4,119.95083077466099,
,,,0,0,0,0,19,0,19,0,,,,,,,,,,,,,,,,,,,,,,,,,,,,,,,,,,,,,,,,,,,,,,,,,,,,,,,,,,,113,001,2010-10-15_13h21.06.018,eb_01,2022.2.4,119.95083077466099,
9,stimuli/9.png,l,0,0,0,0,20,0,20,0,0,0,0,0,,,,,,,,,,,,,,,,,,398.8329785596288,398.8329785596288,398.8329785596288,398.8329785596288,l,1,0.5679099090921227,399.43304255171097,399.43304255171097,399.43304255171097,,,,,,,,,,,,,,,,,,,,,,,,,,,,113,001,2010-10-15_13h21.06.018,eb_01,2022.2.4,119.95083077466099,
,,,0,0,0,0,20,0,20,0,,,,,,,,,,,,,,,,,,,,,,,,,,,,,,,,,,,,,,,,,,,,,,,,,,,,,,,,,,,113,001,2010-10-15_13h21.06.018,eb_01,2022.2.4,119.95083077466099,
5,stimuli/5.png,s,0,0,0,0,21,0,21,0,0,0,0,0,,,,,,,,,,,,,,,,,,400.43311046782765,400.43311046782765,400.43311046782765,400.43311046782765,s,1,0.4718342535488773,400.9248014585173,400.9248014585173,400.9248014585173,,,,,,,,,,,,,,,,,,,,,,,,,,,,113,001,2010-10-15_13h21.06.018,eb_01,2022.2.4,119.95083077466099,
,,,0,0,0,0,21,0,21,0,,,,,,,,,,,,,,,,,,,,,,,,,,,,,,,,,,,,,,,,,,,,,,,,,,,,,,,,,,,113,001,2010-10-15_13h21.06.018,eb_01,2022.2.4,119.95083077466099,
9,stimuli/9.png,l,0,0,0,0,22,0,22,0,0,0,0,0,,,,,,,,,,,,,,,,,,401.9415737221716,401.9415737221716,401.9415737221716,401.9415737221716,l,1,0.39441319470643066,402.36661424546037,402.36661424546037,402.36661424546037,,,,,,,,,,,,,,,,,,,,,,,,,,,,113,001,2010-10-15_13h21.06.018,eb_01,2022.2.4,119.95083077466099,
,,,0,0,0,0,22,0,22,0,,,,,,,,,,,,,,,,,,,,,,,,,,,,,,,,,,,,,,,,,,,,,,,,,,,,,,,,,,,113,001,2010-10-15_13h21.06.018,eb_01,2022.2.4,119.95083077466099,
8,stimuli/8.png,l,0,0,0,0,23,0,23,0,0,0,0,0,,,,,,,,,,,,,,,,,,403.3750132058922,403.3750132058922,403.3750132058922,403.3750132058922,l,1,0.4729734332941007,403.866715968732,403.866715968732,403.866715968732,,,,,,,,,,,,,,,,,,,,,,,,,,,,113,001,2010-10-15_13h21.06.018,eb_01,2022.2.4,119.95083077466099,
,,,0,0,0,0,23,0,23,0,,,,,,,,,,,,,,,,,,,,,,,,,,,,,,,,,,,,,,,,,,,,,,,,,,,,,,,,,,,113,001,2010-10-15_13h21.06.018,eb_01,2022.2.4,119.95083077466099,
9,stimuli/9.png,l,0,0,0,0,24,0,24,0,0,0,0,0,,,,,,,,,,,,,,,,,,404.883477063966,404.883477063966,404.883477063966,404.883477063966,l,1,0.524557991855545,405.4335164553195,405.4335164553195,405.4335164553195,,,,,,,,,,,,,,,,,,,,,,,,,,,,113,001,2010-10-15_13h21.06.018,eb_01,2022.2.4,119.95083077466099,
,,,0,0,0,0,24,0,24,0,,,,,,,,,,,,,,,,,,,,,,,,,,,,,,,,,,,,,,,,,,,,,,,,,,,,,,,,,,,113,001,2010-10-15_13h21.06.018,eb_01,2022.2.4,119.95083077466099,
5,stimuli/5.png,s,0,0,0,0,25,0,25,0,0,0,0,0,,,,,,,,,,,,,,,,,,406.4336396098661,406.4336396098661,406.4336396098661,406.4336396098661,s,1,0.4944246649974957,406.9503101502778,406.9503101502778,406.9503101502778,,,,,,,,,,,,,,,,,,,,,,,,,,,,113,001,2010-10-15_13h21.06.018,eb_01,2022.2.4,119.95083077466099,
,,,0,0,0,0,25,0,25,0,,,,,,,,,,,,,,,,,,,,,,,,,,,,,,,,,,,,,,,,,,,,,,,,,,,,,,,,,,,113,001,2010-10-15_13h21.06.018,eb_01,2022.2.4,119.95083077466099,
6,stimuli/6.png,s,0,0,0,0,26,0,26,0,0,0,0,0,,,,,,,,,,,,,,,,,,407.97541858968907,407.97541858968907,407.97541858968907,407.97541858968907,s,1,0.4966770654427819,408.5004440204939,408.5004440204939,408.5004440204939,,,,,,,,,,,,,,,,,,,,,,,,,,,,113,001,2010-10-15_13h21.06.018,eb_01,2022.2.4,119.95083077466099,
,,,0,0,0,0,26,0,26,0,,,,,,,,,,,,,,,,,,,,,,,,,,,,,,,,,,,,,,,,,,,,,,,,,,,,,,,,,,,113,001,2010-10-15_13h21.06.018,eb_01,2022.2.4,119.95083077466099,
9,stimuli/9.png,l,0,0,0,0,27,0,27,0,0,0,0,0,,,,,,,,,,,,,,,,,,409.5088659214962,409.5088659214962,409.5088659214962,409.5088659214962,l,1,0.5552512494614348,410.0922639009077,410.0922639009077,410.0922639009077,,,,,,,,,,,,,,,,,,,,,,,,,,,,113,001,2010-10-15_13h21.06.018,eb_01,2022.2.4,119.95083077466099,
,,,0,0,0,0,27,0,27,0,,,,,,,,,,,,,,,,,,,,,,,,,,,,,,,,,,,,,,,,,,,,,,,,,,,,,,,,,,,113,001,2010-10-15_13h21.06.018,eb_01,2022.2.4,119.95083077466099,
6,stimuli/6.png,s,0,0,0,0,28,0,28,0,0,0,0,0,,,,,,,,,,,,,,,,,,411.10901805359754,411.10901805359754,411.10901805359754,411.10901805359754,s,1,0.49116921887616627,411.62572994738,411.62572994738,411.62572994738,,,,,,,,,,,,,,,,,,,,,,,,,,,,113,001,2010-10-15_13h21.06.018,eb_01,2022.2.4,119.95083077466099,
,,,0,0,0,0,28,0,28,0,,,,,,,,,,,,,,,,,,,,,,,,,,,,,,,,,,,,,,,,,,,,,,,,,,,,,,,,,,,113,001,2010-10-15_13h21.06.018,eb_01,2022.2.4,119.95083077466099,
5,stimuli/5.png,s,0,0,0,0,29,0,29,0,0,0,0,0,,,,,,,,,,,,,,,,,,412.6258195966657,412.6258195966657,412.6258195966657,412.6258195966657,s,1,0.6303728193452116,413.2758680434781,413.2758680434781,413.2758680434781,,,,,,,,,,,,,,,,,,,,,,,,,,,,113,001,2010-10-15_13h21.06.018,eb_01,2022.2.4,119.95083077466099,
,,,0,0,0,0,29,0,29,0,,,,,,,,,,,,,,,,,,,,,,,,,,,,,,,,,,,,,,,,,,,,,,,,,,,,,,,,,,,113,001,2010-10-15_13h21.06.018,eb_01,2022.2.4,119.95083077466099,
6,stimuli/6.png,s,0,0,0,0,30,0,30,0,0,0,0,0,,,,,,,,,,,,,,,,,,414.3009393554239,414.3009393554239,414.3009393554239,414.3009393554239,s,1,0.5552717752289027,414.88436269017984,414.88436269017984,414.88436269017984,,,,,,,,,,,,,,,,,,,,,,,,,,,,113,001,2010-10-15_13h21.06.018,eb_01,2022.2.4,119.95083077466099,
,,,0,0,0,0,30,0,30,0,,,,,,,,,,,,,,,,,,,,,,,,,,,,,,,,,,,,,,,,,,,,,,,,,,,,,,,,,,,113,001,2010-10-15_13h21.06.018,eb_01,2022.2.4,119.95083077466099,
5,stimuli/5.png,s,0,0,0,0,31,0,31,0,0,0,0,0,,,,,,,,,,,,,,,,,,415.88442547488376,415.88442547488376,415.88442547488376,415.88442547488376,s,1,0.5068988945859019,416.40947354439413,416.40947354439413,416.40947354439413,,,,,,,,,,,,,,,,,,,,,,,,,,,,113,001,2010-10-15_13h21.06.018,eb_01,2022.2.4,119.95083077466099,
,,,0,0,0,0,31,0,31,0,,,,,,,,,,,,,,,,,,,,,,,,,,,,,,,,,,,,,,,,,,,,,,,,,,,,,,,,,,,113,001,2010-10-15_13h21.06.018,eb_01,2022.2.4,119.95083077466099,
9,stimuli/9.png,l,0,0,0,0,32,0,32,0,0,0,0,0,,,,,,,,,,,,,,,,,,417.4262599949725,417.4262599949725,417.4262599949725,417.4262599949725,l,1,0.5170594483206514,417.9762522978126,417.9762522978126,417.9762522978126,,,,,,,,,,,,,,,,,,,,,,,,,,,,113,001,2010-10-15_13h21.06.018,eb_01,2022.2.4,119.95083077466099,
,,,0,0,0,0,32,0,32,0,,,,,,,,,,,,,,,,,,,,,,,,,,,,,,,,,,,,,,,,,,,,,,,,,,,,,,,,,,,113,001,2010-10-15_13h21.06.018,eb_01,2022.2.4,119.95083077466099,
8,stimuli/8.png,l,0,0,0,0,33,0,33,0,0,0,0,0,,,,,,,,,,,,,,,,,,418.9763805838302,418.9763805838302,418.9763805838302,418.9763805838302,l,1,0.42292619385989383,419.4180554255727,419.4180554255727,419.4180554255727,,,,,,,,,,,,,,,,,,,,,,,,,,,,113,001,2010-10-15_13h21.06.018,eb_01,2022.2.4,119.95083077466099,
,,,0,0,0,0,33,0,33,0,,,,,,,,,,,,,,,,,,,,,,,,,,,,,,,,,,,,,,,,,,,,,,,,,,,,,,,,,,,113,001,2010-10-15_13h21.06.018,eb_01,2022.2.4,119.95083077466099,
6,stimuli/6.png,s,0,0,0,0,34,0,34,0,0,0,0,0,,,,,,,,,,,,,,,,,,420.4431315670954,420.4431315670954,420.4431315670954,420.4431315670954,s,1,0.5082451430498622,420.976524867845,420.976524867845,420.976524867845,,,,,,,,,,,,,,,,,,,,,,,,,,,,113,001,2010-10-15_13h21.06.018,eb_01,2022.2.4,119.95083077466099,
,,,0,0,0,0,34,0,34,0,,,,,,,,,,,,,,,,,,,,,,,,,,,,,,,,,,,,,,,,,,,,,,,,,,,,,,,,,,,113,001,2010-10-15_13h21.06.018,eb_01,2022.2.4,119.95083077466099,
8,stimuli/8.png,l,0,0,0,0,35,0,35,0,0,0,0,0,,,,,,,,,,,,,,,,,,421.9765976135677,421.9765976135677,421.9765976135677,421.9765976135677,l,1,0.45482896210160106,422.45165277653723,422.45165277653723,422.45165277653723,,,,,,,,,,,,,,,,,,,,,,,,,,,,113,001,2010-10-15_13h21.06.018,eb_01,2022.2.4,119.95083077466099,
,,,0,0,0,0,35,0,35,0,,,,,,,,,,,,,,,,,,,,,,,,,,,,,,,,,,,,,,,,,,,,,,,,,,,,,,,,,,,113,001,2010-10-15_13h21.06.018,eb_01,2022.2.4,119.95083077466099,
9,stimuli/9.png,l,0,0,0,0,36,0,36,0,0,0,0,0,,,,,,,,,,,,,,,,,,423.4684247383557,423.4684247383557,423.4684247383557,423.4684247383557,l,1,0.5230040710011963,424.0184366614267,424.0184366614267,424.0184366614267,,,,,,,,,,,,,,,,,,,,,,,,,,,,113,001,2010-10-15_13h21.06.018,eb_01,2022.2.4,119.95083077466099,
,,,0,0,0,0,36,0,36,0,,,,,,,,,,,,,,,,,,,,,,,,,,,,,,,,,,,,,,,,,,,,,,,,,,,,,,,,,,,113,001,2010-10-15_13h21.06.018,eb_01,2022.2.4,119.95083077466099,
5,stimuli/5.png,s,0,0,0,0,37,0,37,0,0,0,0,0,,,,,,,,,,,,,,,,,,425.0185477420164,425.0185477420164,425.0185477420164,425.0185477420164,s,1,0.5249316814879421,425.56024824097403,425.56024824097403,425.56024824097403,,,,,,,,,,,,,,,,,,,,,,,,,,,,113,001,2010-10-15_13h21.06.018,eb_01,2022.2.4,119.95083077466099,
,,,0,0,0,0,37,0,37,0,,,,,,,,,,,,,,,,,,,,,,,,,,,,,,,,,,,,,,,,,,,,,,,,,,,,,,,,,,,113,001,2010-10-15_13h21.06.018,eb_01,2022.2.4,119.95083077466099,
9,stimuli/9.png,l,0,0,0,0,38,0,38,0,0,0,0,0,,,,,,,,,,,,,,,,,,426.5769885085756,426.5769885085756,426.5769885085756,426.5769885085756,l,1,0.5024876669922378,427.11036369836074,427.11036369836074,427.11036369836074,,,,,,,,,,,,,,,,,,,,,,,,,,,,113,001,2010-10-15_13h21.06.018,eb_01,2022.2.4,119.95083077466099,
,,,0,0,0,0,38,0,38,0,,,,,,,,,,,,,,,,,,,,,,,,,,,,,,,,,,,,,,,,,,,,,,,,,,,,,,,,,,,113,001,2010-10-15_13h21.06.018,eb_01,2022.2.4,119.95083077466099,
5,stimuli/5.png,s,0,0,0,0,39,0,39,0,0,0,0,0,,,,,,,,,,,,,,,,,,428.1104624031286,428.1104624031286,428.1104624031286,428.1104624031286,s,1,0.5290594724647235,428.66049666304025,428.66049666304025,428.66049666304025,,,,,,,,,,,,,,,,,,,,,,,,,,,,113,001,2010-10-15_13h21.06.018,eb_01,2022.2.4,119.95083077466099,
,,,0,0,0,0,39,0,39,0,,,,,,,,,,,,,,,,,,,,,,,,,,,,,,,,,,,,,,,,,,,,,,,,,,,,,,,,,,,113,001,2010-10-15_13h21.06.018,eb_01,2022.2.4,119.95083077466099,
6,stimuli/6.png,s,0,0,0,0,40,0,40,0,0,0,0,0,,,,,,,,,,,,,,,,,,429.6855996691738,429.6855996691738,429.6855996691738,429.6855996691738,s,1,0.553936091484502,430.2689891968039,430.2689891968039,430.2689891968039,,,,,,,,,,,,,,,,,,,,,,,,,,,,113,001,2010-10-15_13h21.06.018,eb_01,2022.2.4,119.95083077466099,
,,,0,0,0,0,40,0,40,0,,,,,,,,,,,,,,,,,,,,,,,,,,,,,,,,,,,,,,,,,,,,,,,,,,,,,,,,,,,113,001,2010-10-15_13h21.06.018,eb_01,2022.2.4,119.95083077466099,
9,stimuli/9.png,l,0,0,0,0,41,0,41,0,0,0,0,0,,,,,,,,,,,,,,,,,,431.27738755353494,431.27738755353494,431.27738755353494,431.27738755353494,l,1,0.5621690347325057,431.8691527991905,431.8691527991905,431.8691527991905,,,,,,,,,,,,,,,,,,,,,,,,,,,,113,001,2010-10-15_13h21.06.018,eb_01,2022.2.4,119.95083077466099,
,,,0,0,0,0,41,0,41,0,,,,,,,,,,,,,,,,,,,,,,,,,,,,,,,,,,,,,,,,,,,,,,,,,,,,,,,,,,,113,001,2010-10-15_13h21.06.018,eb_01,2022.2.4,119.95083077466099,
5,stimuli/5.png,s,0,0,0,0,42,0,42,0,0,0,0,0,,,,,,,,,,,,,,,,,,432.86922705415054,432.86922705415054,432.86922705415054,432.86922705415054,s,1,0.5533574461296666,433.4442583710188,433.4442583710188,433.4442583710188,,,,,,,,,,,,,,,,,,,,,,,,,,,,113,001,2010-10-15_13h21.06.018,eb_01,2022.2.4,119.95083077466099,
,,,0,0,0,0,42,0,42,0,,,,,,,,,,,,,,,,,,,,,,,,,,,,,,,,,,,,,,,,,,,,,,,,,,,,,,,,,,,113,001,2010-10-15_13h21.06.018,eb_01,2022.2.4,119.95083077466099,
9,stimuli/9.png,l,0,0,0,0,43,0,43,0,0,0,0,0,,,,,,,,,,,,,,,,,,434.46099622384645,434.46099622384645,434.46099622384645,434.46099622384645,l,1,0.5296239308663644,435.01939171302365,435.01939171302365,435.01939171302365,,,,,,,,,,,,,,,,,,,,,,,,,,,,113,001,2010-10-15_13h21.06.018,eb_01,2022.2.4,119.95083077466099,
,,,0,0,0,0,43,0,43,0,,,,,,,,,,,,,,,,,,,,,,,,,,,,,,,,,,,,,,,,,,,,,,,,,,,,,,,,,,,113,001,2010-10-15_13h21.06.018,eb_01,2022.2.4,119.95083077466099,
8,stimuli/8.png,l,0,0,0,0,44,0,44,0,0,0,0,0,,,,,,,,,,,,,,,,,,436.0194623457792,436.0194623457792,436.0194623457792,436.0194623457792,l,1,0.5312179977481719,436.569505661173,436.569505661173,436.569505661173,,,,,,,,,,,,,,,,,,,,,,,,,,,,113,001,2010-10-15_13h21.06.018,eb_01,2022.2.4,119.95083077466099,
,,,0,0,0,0,44,0,44,0,,,,,,,,,,,,,,,,,,,,,,,,,,,,,,,,,,,,,,,,,,,,,,,,,,,,,,,,,,,113,001,2010-10-15_13h21.06.018,eb_01,2022.2.4,119.95083077466099,
3,stimuli/3.png,l,0,0,0,0,45,0,45,0,0,0,0,0,,,,,,,,,,,,,,,,,,437.577942654636,437.577942654636,437.577942654636,437.577942654636,l,1,0.2927490987931378,437.8862881877285,437.8862881877285,437.8862881877285,438.90307343090535,438.90307343090535,438.90307343090535,,,,,,,,,,,,,,,,,,,,,,,,,113,001,2010-10-15_13h21.06.018,eb_01,2022.2.4,119.95083077466099,
,,,0,0,0,0,45,0,45,0,,,,,,,,,,,,,,,,,,,,,,,,,,,,,,,,,,,,,,,,,,,,,,,,,,,,,,,,,,,113,001,2010-10-15_13h21.06.018,eb_01,2022.2.4,119.95083077466099,
4,stimuli/4.png,l,0,0,0,0,46,0,46,0,0,0,0,0,,,,,,,,,,,,,,,,,,438.90307343090535,438.90307343090535,438.90307343090535,438.90307343090535,s,0,0.40762544618337415,439.33642296347534,439.33642296347534,439.33642296347534,,,,,,,,,,,,,,,,,,,,,,,,,,,,113,001,2010-10-15_13h21.06.018,eb_01,2022.2.4,119.95083077466099,
,,,0,0,0,0,46,0,46,0,,,,,,,,,,,,,,,,,,,,,,,,,,,,,,,,,,,,,,,,,,,,,,,,,,,,,,,,,,,113,001,2010-10-15_13h21.06.018,eb_01,2022.2.4,119.95083077466099,
1,stimuli/1.png,s,0,0,0,0,47,0,47,0,0,0,0,0,,,,,,,,,,,,,,,,,,440.35323718423024,440.35323718423024,440.35323718423024,440.35323718423024,s,1,0.8855053161387332,441.2699379095575,441.2699379095575,441.2699379095575,,,,,,,,,,,,,,,,,,,,,,,,,,,,113,001,2010-10-15_13h21.06.018,eb_01,2022.2.4,119.95083077466099,
,,,0,0,0,0,47,0,47,0,,,,,,,,,,,,,,,,,,,,,,,,,,,,,,,,,,,,,,,,,,,,,,,,,,,,,,,,,,,113,001,2010-10-15_13h21.06.018,eb_01,2022.2.4,119.95083077466099,
4,stimuli/4.png,l,0,0,0,0,48,0,48,0,0,0,0,0,,,,,,,,,,,,,,,,,,442.2783426051319,442.2783426051319,442.2783426051319,442.2783426051319,l,1,0.45644506395910867,442.753369997954,442.753369997954,442.753369997954,,,,,,,,,,,,,,,,,,,,,,,,,,,,113,001,2010-10-15_13h21.06.018,eb_01,2022.2.4,119.95083077466099,
,,,0,0,0,0,48,0,48,0,,,,,,,,,,,,,,,,,,,,,,,,,,,,,,,,,,,,,,,,,,,,,,,,,,,,,,,,,,,113,001,2010-10-15_13h21.06.018,eb_01,2022.2.4,119.95083077466099,
2,stimuli/2.png,s,0,0,0,0,49,0,49,0,0,0,0,0,,,,,,,,,,,,,,,,,,443.7617976340989,443.7617976340989,443.7617976340989,443.7617976340989,s,1,1.165053507895209,444.9369026022323,444.9369026022323,444.9369026022323,445.96197361231316,445.96197361231316,445.96197361231316,,,,,,,,,,,,,,,,,,,,,,,,,113,001,2010-10-15_13h21.06.018,eb_01,2022.2.4,119.95083077466099,
,,,0,0,0,0,49,0,49,0,,,,,,,,,,,,,,,,,,,,,,,,,,,,,,,,,,,,,,,,,,,,,,,,,,,,,,,,,,,113,001,2010-10-15_13h21.06.018,eb_01,2022.2.4,119.95083077466099,
1,stimuli/1.png,s,0,0,0,0,50,0,50,0,0,0,0,0,,,,,,,,,,,,,,,,,,445.96197361231316,445.96197361231316,445.96197361231316,445.96197361231316,s,1,0.5968962081242353,446.5870651481382,446.5870651481382,446.5870651481382,,,,,,,,,,,,,,,,,,,,,,,,,,,,113,001,2010-10-15_13h21.06.018,eb_01,2022.2.4,119.95083077466099,
,,,0,0,0,0,50,0,50,0,,,,,,,,,,,,,,,,,,,,,,,,,,,,,,,,,,,,,,,,,,,,,,,,,,,,,,,,,,,113,001,2010-10-15_13h21.06.018,eb_01,2022.2.4,119.95083077466099,
4,stimuli/4.png,l,0,0,0,0,51,0,51,0,0,0,0,0,,,,,,,,,,,,,,,,,,447.5954704474134,447.5954704474134,447.5954704474134,447.5954704474134,l,1,0.6744733231025748,448.2871913212002,448.2871913212002,448.2871913212002,,,,,,,,,,,,,,,,,,,,,,,,,,,,113,001,2010-10-15_13h21.06.018,eb_01,2022.2.4,119.95083077466099,
,,,0,0,0,0,51,0,51,0,,,,,,,,,,,,,,,,,,,,,,,,,,,,,,,,,,,,,,,,,,,,,,,,,,,,,,,,,,,113,001,2010-10-15_13h21.06.018,eb_01,2022.2.4,119.95083077466099,
1,stimuli/1.png,s,0,0,0,0,52,0,52,0,0,0,0,0,,,,,,,,,,,,,,,,,,449.31226867012447,449.31226867012447,449.31226867012447,449.31226867012447,s,1,0.973719605099177,450.3123779396119,450.3123779396119,450.3123779396119,,,,,,,,,,,,,,,,,,,,,,,,,,,,113,001,2010-10-15_13h21.06.018,eb_01,2022.2.4,119.95083077466099,
,,,0,0,0,0,52,0,52,0,,,,,,,,,,,,,,,,,,,,,,,,,,,,,,,,,,,,,,,,,,,,,,,,,,,,,,,,,,,113,001,2010-10-15_13h21.06.018,eb_01,2022.2.4,119.95083077466099,
2,stimuli/2.png,s,0,0,0,0,53,0,53,0,0,0,0,0,,,,,,,,,,,,,,,,,,451.31245008163387,451.31245008163387,451.31245008163387,451.31245008163387,s,1,0.5415201188297942,451.86247830456705,451.86247830456705,451.86247830456705,452.8876154196623,452.8876154196623,452.8876154196623,,,,,,,,,,,,,,,,,,,,,,,,,113,001,2010-10-15_13h21.06.018,eb_01,2022.2.4,119.95083077466099,
,,,0,0,0,0,53,0,53,0,,,,,,,,,,,,,,,,,,,,,,,,,,,,,,,,,,,,,,,,,,,,,,,,,,,,,,,,,,,113,001,2010-10-15_13h21.06.018,eb_01,2022.2.4,119.95083077466099,
1,stimuli/1.png,s,0,0,0,0,54,0,54,0,0,0,0,0,,,,,,,,,,,,,,,,,,452.8876154196623,452.8876154196623,452.8876154196623,452.8876154196623,s,1,0.6783837825059891,453.5959597453475,453.5959597453475,453.5959597453475,,,,,,,,,,,,,,,,,,,,,,,,,,,,113,001,2010-10-15_13h21.06.018,eb_01,2022.2.4,119.95083077466099,
,,,0,0,0,0,54,0,54,0,,,,,,,,,,,,,,,,,,,,,,,,,,,,,,,,,,,,,,,,,,,,,,,,,,,,,,,,,,,113,001,2010-10-15_13h21.06.018,eb_01,2022.2.4,119.95083077466099,
2,stimuli/2.png,s,0,0,0,0,55,0,55,0,0,0,0,0,,,,,,,,,,,,,,,,,,454.5960672037327,454.5960672037327,454.5960672037327,454.5960672037327,s,1,0.6259709490695968,455.23778883216437,455.23778883216437,455.23778883216437,456.25453694787575,456.25453694787575,456.25453694787575,,,,,,,,,,,,,,,,,,,,,,,,,113,001,2010-10-15_13h21.06.018,eb_01,2022.2.4,119.95083077466099,
,,,0,0,0,0,55,0,55,0,,,,,,,,,,,,,,,,,,,,,,,,,,,,,,,,,,,,,,,,,,,,,,,,,,,,,,,,,,,113,001,2010-10-15_13h21.06.018,eb_01,2022.2.4,119.95083077466099,
4,stimuli/4.png,l,0,0,0,0,56,0,56,0,0,0,0,0,,,,,,,,,,,,,,,,,,456.25453694787575,456.25453694787575,456.25453694787575,456.25453694787575,l,1,0.4715191227151081,456.74624152178876,456.74624152178876,456.74624152178876,,,,,,,,,,,,,,,,,,,,,,,,,,,,113,001,2010-10-15_13h21.06.018,eb_01,2022.2.4,119.95083077466099,
,,,0,0,0,0,56,0,56,0,,,,,,,,,,,,,,,,,,,,,,,,,,,,,,,,,,,,,,,,,,,,,,,,,,,,,,,,,,,113,001,2010-10-15_13h21.06.018,eb_01,2022.2.4,119.95083077466099,
1,stimuli/1.png,s,0,0,0,0,57,0,57,0,0,0,0,0,,,,,,,,,,,,,,,,,,457.7713339631737,457.7713339631737,457.7713339631737,457.7713339631737,s,1,0.46675774978939444,458.26302585942904,458.26302585942904,458.26302585942904,,,,,,,,,,,,,,,,,,,,,,,,,,,,113,001,2010-10-15_13h21.06.018,eb_01,2022.2.4,119.95083077466099,
,,,0,0,0,0,57,0,57,0,,,,,,,,,,,,,,,,,,,,,,,,,,,,,,,,,,,,,,,,,,,,,,,,,,,,,,,,,,,113,001,2010-10-15_13h21.06.018,eb_01,2022.2.4,119.95083077466099,
2,stimuli/2.png,s,0,0,0,0,58,0,58,0,0,0,0,0,,,,,,,,,,,,,,,,,,459.26313029933954,459.26313029933954,459.26313029933954,459.26313029933954,s,1,0.5910056164721027,459.8631755767565,459.8631755767565,459.8631755767565,460.87993576642475,460.87993576642475,460.87993576642475,,,,,,,,,,,,,,,,,,,,,,,,,113,001,2010-10-15_13h21.06.018,eb_01,2022.2.4,119.95083077466099,
,,,0,0,0,0,58,0,58,0,,,,,,,,,,,,,,,,,,,,,,,,,,,,,,,,,,,,,,,,,,,,,,,,,,,,,,,,,,,113,001,2010-10-15_13h21.06.018,eb_01,2022.2.4,119.95083077466099,
4,stimuli/4.png,l,0,0,0,0,59,0,59,0,0,0,0,0,,,,,,,,,,,,,,,,,,460.87993576642475,460.87993576642475,460.87993576642475,460.87993576642475,l,1,0.390222619054839,461.28832959540887,461.28832959540887,461.28832959540887,,,,,,,,,,,,,,,,,,,,,,,,,,,,113,001,2010-10-15_13h21.06.018,eb_01,2022.2.4,119.95083077466099,
,,,0,0,0,0,59,0,59,0,,,,,,,,,,,,,,,,,,,,,,,,,,,,,,,,,,,,,,,,,,,,,,,,,,,,,,,,,,,113,001,2010-10-15_13h21.06.018,eb_01,2022.2.4,119.95083077466099,
3,stimuli/3.png,l,0,0,0,0,60,0,60,0,0,0,0,0,,,,,,,,,,,,,,,,,,462.29670984117547,462.29670984117547,462.29670984117547,462.29670984117547,l,1,0.517490187427029,462.83008442728897,462.83008442728897,462.83008442728897,463.8468376744131,463.8468376744131,463.8468376744131,,,,,,,,,,,,,,,,,,,,,,,,,113,001,2010-10-15_13h21.06.018,eb_01,2022.2.4,119.95083077466099,
,,,0,0,0,0,60,0,60,0,,,,,,,,,,,,,,,,,,,,,,,,,,,,,,,,,,,,,,,,,,,,,,,,,,,,,,,,,,,113,001,2010-10-15_13h21.06.018,eb_01,2022.2.4,119.95083077466099,
4,stimuli/4.png,l,0,0,0,0,61,0,61,0,0,0,0,0,,,,,,,,,,,,,,,,,,463.8468376744131,463.8468376744131,463.8468376744131,463.8468376744131,l,1,0.4863981867674738,464.3552429736883,464.3552429736883,464.3552429736883,,,,,,,,,,,,,,,,,,,,,,,,,,,,113,001,2010-10-15_13h21.06.018,eb_01,2022.2.4,119.95083077466099,
,,,0,0,0,0,61,0,61,0,,,,,,,,,,,,,,,,,,,,,,,,,,,,,,,,,,,,,,,,,,,,,,,,,,,,,,,,,,,113,001,2010-10-15_13h21.06.018,eb_01,2022.2.4,119.95083077466099,
2,stimuli/2.png,s,0,0,0,0,62,0,62,0,0,0,0,0,,,,,,,,,,,,,,,,,,465.36363499157596,465.36363499157596,465.36363499157596,465.36363499157596,s,1,0.6176408103201538,465.99703795151436,465.99703795151436,465.99703795151436,467.0054683042981,467.0054683042981,467.0054683042981,,,,,,,,,,,,,,,,,,,,,,,,,113,001,2010-10-15_13h21.06.018,eb_01,2022.2.4,119.95083077466099,
,,,0,0,0,0,62,0,62,0,,,,,,,,,,,,,,,,,,,,,,,,,,,,,,,,,,,,,,,,,,,,,,,,,,,,,,,,,,,113,001,2010-10-15_13h21.06.018,eb_01,2022.2.4,119.95083077466099,
3,stimuli/3.png,l,0,0,0,0,63,0,63,0,0,0,0,0,,,,,,,,,,,,,,,,,,467.0054683042981,467.0054683042981,467.0054683042981,467.0054683042981,l,1,0.4318005671375431,467.44714676824515,467.44714676824515,467.44714676824515,468.46391601339565,468.46391601339565,468.46391601339565,,,,,,,,,,,,,,,,,,,,,,,,,113,001,2010-10-15_13h21.06.018,eb_01,2022.2.4,119.95083077466099,
,,,0,0,0,0,63,0,63,0,,,,,,,,,,,,,,,,,,,,,,,,,,,,,,,,,,,,,,,,,,,,,,,,,,,,,,,,,,,113,001,2010-10-15_13h21.06.018,eb_01,2022.2.4,119.95083077466099,
4,stimuli/4.png,l,0,0,0,0,64,0,64,0,0,0,0,0,,,,,,,,,,,,,,,,,,468.46391601339565,468.46391601339565,468.46391601339565,468.46391601339565,l,1,0.5894190958642866,469.0722920332628,469.0722920332628,469.0722920332628,,,,,,,,,,,,,,,,,,,,,,,,,,,,113,001,2010-10-15_13h21.06.018,eb_01,2022.2.4,119.95083077466099,
,,,0,0,0,0,64,0,64,0,,,,,,,,,,,,,,,,,,,,,,,,,,,,,,,,,,,,,,,,,,,,,,,,,,,,,,,,,,,113,001,2010-10-15_13h21.06.018,eb_01,2022.2.4,119.95083077466099,
1,stimuli/1.png,s,0,0,0,0,65,0,65,0,0,0,0,0,,,,,,,,,,,,,,,,,,470.097403189342,470.097403189342,470.097403189342,470.097403189342,s,1,0.5079562731552869,470.6307756624592,470.6307756624592,470.6307756624592,,,,,,,,,,,,,,,,,,,,,,,,,,,,113,001,2010-10-15_13h21.06.018,eb_01,2022.2.4,119.95083077466099,
,,,0,0,0,0,65,0,65,0,,,,,,,,,,,,,,,,,,,,,,,,,,,,,,,,,,,,,,,,,,,,,,,,,,,,,,,,,,,113,001,2010-10-15_13h21.06.018,eb_01,2022.2.4,119.95083077466099,
4,stimuli/4.png,l,0,0,0,0,66,0,66,0,0,0,0,0,,,,,,,,,,,,,,,,,,471.63920571340714,471.63920571340714,471.63920571340714,471.63920571340714,l,1,0.5021743472898379,472.1642338608508,472.1642338608508,472.1642338608508,,,,,,,,,,,,,,,,,,,,,,,,,,,,113,001,2010-10-15_13h21.06.018,eb_01,2022.2.4,119.95083077466099,
,,,0,0,0,0,66,0,66,0,,,,,,,,,,,,,,,,,,,,,,,,,,,,,,,,,,,,,,,,,,,,,,,,,,,,,,,,,,,113,001,2010-10-15_13h21.06.018,eb_01,2022.2.4,119.95083077466099,
1,stimuli/1.png,s,0,0,0,0,67,0,67,0,0,0,0,0,,,,,,,,,,,,,,,,,,473.1809692988754,473.1809692988754,473.1809692988754,473.1809692988754,s,1,0.4964286433532834,473.70601434991113,473.70601434991113,473.70601434991113,,,,,,,,,,,,,,,,,,,,,,,,,,,,113,001,2010-10-15_13h21.06.018,eb_01,2022.2.4,119.95083077466099,
,,,0,0,0,0,67,0,67,0,,,,,,,,,,,,,,,,,,,,,,,,,,,,,,,,,,,,,,,,,,,,,,,,,,,,,,,,,,,113,001,2010-10-15_13h21.06.018,eb_01,2022.2.4,119.95083077466099,
4,stimuli/4.png,l,0,0,0,0,68,0,68,0,0,0,0,0,,,,,,,,,,,,,,,,,,474.71446190809365,474.71446190809365,474.71446190809365,474.71446190809365,l,1,0.4669956071302295,475.2061779522919,475.2061779522919,475.2061779522919,,,,,,,,,,,,,,,,,,,,,,,,,,,,113,001,2010-10-15_13h21.06.018,eb_01,2022.2.4,119.95083077466099,
,,,0,0,0,0,68,0,68,0,,,,,,,,,,,,,,,,,,,,,,,,,,,,,,,,,,,,,,,,,,,,,,,,,,,,,,,,,,,113,001,2010-10-15_13h21.06.018,eb_01,2022.2.4,119.95083077466099,
2,stimuli/2.png,s,0,0,0,0,69,0,69,0,0,0,0,0,,,,,,,,,,,,,,,,,,476.21457389424904,476.21457389424904,476.21457389424904,476.21457389424904,s,1,0.47891654673730955,476.70626971451566,476.70626971451566,476.70626971451566,477.7230534484552,477.7230534484552,477.7230534484552,,,,,,,,,,,,,,,,,,,,,,,,,113,001,2010-10-15_13h21.06.018,eb_01,2022.2.4,119.95083077466099,
,,,0,0,0,0,69,0,69,0,,,,,,,,,,,,,,,,,,,,,,,,,,,,,,,,,,,,,,,,,,,,,,,,,,,,,,,,,,,113,001,2010-10-15_13h21.06.018,eb_01,2022.2.4,119.95083077466099,
4,stimuli/4.png,l,0,0,0,0,70,0,70,0,0,0,0,0,,,,,,,,,,,,,,,,,,477.7230534484552,477.7230534484552,477.7230534484552,477.7230534484552,l,1,0.4664486559922807,478.206398604234,478.206398604234,478.206398604234,,,,,,,,,,,,,,,,,,,,,,,,,,,,113,001,2010-10-15_13h21.06.018,eb_01,2022.2.4,119.95083077466099,
,,,0,0,0,0,70,0,70,0,,,,,,,,,,,,,,,,,,,,,,,,,,,,,,,,,,,,,,,,,,,,,,,,,,,,,,,,,,,113,001,2010-10-15_13h21.06.018,eb_01,2022.2.4,119.95083077466099,
3,stimuli/3.png,l,0,0,0,0,71,0,71,0,0,0,0,0,,,,,,,,,,,,,,,,,,479.214847369818,479.214847369818,479.214847369818,479.214847369818,l,1,0.46968448188272305,479.69821697540465,479.69821697540465,479.69821697540465,480.7149463764508,480.7149463764508,480.7149463764508,,,,,,,,,,,,,,,,,,,,,,,,,113,001,2010-10-15_13h21.06.018,eb_01,2022.2.4,119.95083077466099,
,,,0,0,0,0,71,0,71,0,,,,,,,,,,,,,,,,,,,,,,,,,,,,,,,,,,,,,,,,,,,,,,,,,,,,,,,,,,,113,001,2010-10-15_13h21.06.018,eb_01,2022.2.4,119.95083077466099,
4,stimuli/4.png,l,0,0,0,0,72,0,72,0,0,0,0,0,,,,,,,,,,,,,,,,,,480.7149463764508,480.7149463764508,480.7149463764508,480.7149463764508,l,1,0.4416342179174535,481.17331801948603,481.17331801948603,481.17331801948603,,,,,,,,,,,,,,,,,,,,,,,,,,,,113,001,2010-10-15_13h21.06.018,eb_01,2022.2.4,119.95083077466099,
,,,0,0,0,0,72,0,72,0,,,,,,,,,,,,,,,,,,,,,,,,,,,,,,,,,,,,,,,,,,,,,,,,,,,,,,,,,,,113,001,2010-10-15_13h21.06.018,eb_01,2022.2.4,119.95083077466099,
3,stimuli/3.png,l,0,0,0,0,73,0,73,0,0,0,0,0,,,,,,,,,,,,,,,,,,482.18173810938606,482.18173810938606,482.18173810938606,482.18173810938606,l,1,0.4628726457594894,482.65680081860046,482.65680081860046,482.65680081860046,483.67357640259434,483.67357640259434,483.67357640259434,,,,,,,,,,,,,,,,,,,,,,,,,113,001,2010-10-15_13h21.06.018,eb_01,2022.2.4,119.95083077466099,
,,,0,0,0,0,73,0,73,0,,,,,,,,,,,,,,,,,,,,,,,,,,,,,,,,,,,,,,,,,,,,,,,,,,,,,,,,,,,113,001,2010-10-15_13h21.06.018,eb_01,2022.2.4,119.95083077466099,
4,stimuli/4.png,l,0,0,0,0,74,0,74,0,0,0,0,0,,,,,,,,,,,,,,,,,,483.67357640259434,483.67357640259434,483.67357640259434,483.67357640259434,l,1,0.5070594784920104,484.1986066630052,484.1986066630052,484.1986066630052,,,,,,,,,,,,,,,,,,,,,,,,,,,,113,001,2010-10-15_13h21.06.018,eb_01,2022.2.4,119.95083077466099,
,,,0,0,0,0,74,0,74,0,,,,,,,,,,,,,,,,,,,,,,,,,,,,,,,,,,,,,,,,,,,,,,,,,,,,,,,,,,,113,001,2010-10-15_13h21.06.018,eb_01,2022.2.4,119.95083077466099,
3,stimuli/3.png,l,0,0,0,0,75,0,75,0,0,0,0,0,,,,,,,,,,,,,,,,,,485.20699626611895,485.20699626611895,485.20699626611895,485.20699626611895,l,1,0.38167363943648525,485.59873193051317,485.59873193051317,485.59873193051317,486.61547883882304,486.61547883882304,486.61547883882304,,,,,,,,,,,,,,,,,,,,,,,,,113,001,2010-10-15_13h21.06.018,eb_01,2022.2.4,119.95083077466099,
,,,0,0,0,0,75,0,75,0,,,,,,,,,,,,,,,,,,,,,,,,,,,,,,,,,,,,,,,,,,,,,,,,,,,,,,,,,,,113,001,2010-10-15_13h21.06.018,eb_01,2022.2.4,119.95083077466099,
4,stimuli/4.png,l,0,0,0,0,76,0,76,0,0,0,0,0,,,,,,,,,,,,,,,,,,486.61547883882304,486.61547883882304,486.61547883882304,486.61547883882304,l,1,0.3252591881027911,486.9655106839491,486.9655106839491,486.9655106839491,,,,,,,,,,,,,,,,,,,,,,,,,,,,113,001,2010-10-15_13h21.06.018,eb_01,2022.2.4,119.95083077466099,
,,,0,0,0,0,76,0,76,0,,,,,,,,,,,,,,,,,,,,,,,,,,,,,,,,,,,,,,,,,,,,,,,,,,,,,,,,,,,113,001,2010-10-15_13h21.06.018,eb_01,2022.2.4,119.95083077466099,
3,stimuli/3.png,l,0,0,0,0,77,0,77,0,0,0,0,0,,,,,,,,,,,,,,,,,,487.973935905291,487.973935905291,487.973935905291,487.973935905291,l,1,0.2787949014164042,488.2656220663921,488.2656220663921,488.2656220663921,489.2823759172461,489.2823759172461,489.2823759172461,,,,,,,,,,,,,,,,,,,,,,,,,113,001,2010-10-15_13h21.06.018,eb_01,2022.2.4,119.95083077466099,
,,,0,0,0,0,77,0,77,0,,,,,,,,,,,,,,,,,,,,,,,,,,,,,,,,,,,,,,,,,,,,,,,,,,,,,,,,,,,113,001,2010-10-15_13h21.06.018,eb_01,2022.2.4,119.95083077466099,
4,stimuli/4.png,l,0,0,0,0,78,0,78,0,0,0,0,0,,,,,,,,,,,,,,,,,,489.2823759172461,489.2823759172461,489.2823759172461,489.2823759172461,l,1,0.3383356073172763,489.64073307151557,489.64073307151557,489.64073307151557,,,,,,,,,,,,,,,,,,,,,,,,,,,,113,001,2010-10-15_13h21.06.018,eb_01,2022.2.4,119.95083077466099,
,,,0,0,0,0,78,0,78,0,,,,,,,,,,,,,,,,,,,,,,,,,,,,,,,,,,,,,,,,,,,,,,,,,,,,,,,,,,,113,001,2010-10-15_13h21.06.018,eb_01,2022.2.4,119.95083077466099,
1,stimuli/1.png,s,0,0,0,0,79,0,79,0,0,0,0,0,,,,,,,,,,,,,,,,,,490.6658116278413,490.6658116278413,490.6658116278413,490.6658116278413,s,1,0.5629707468324341,491.2575300868193,491.2575300868193,491.2575300868193,,,,,,,,,,,,,,,,,,,,,,,,,,,,113,001,2010-10-15_13h21.06.018,eb_01,2022.2.4,119.95083077466099,
,,,0,0,0,0,79,0,79,0,,,,,,,,,,,,,,,,,,,,,,,,,,,,,,,,,,,,,,,,,,,,,,,,,,,,,,,,,,,113,001,2010-10-15_13h21.06.018,eb_01,2022.2.4,119.95083077466099,
4,stimuli/4.png,l,0,0,0,0,80,0,80,0,0,0,0,0,,,,,,,,,,,,,,,,,,492.2659640618076,492.2659640618076,492.2659640618076,492.2659640618076,l,1,0.5788522528018802,492.86601597990375,492.86601597990375,492.86601597990375,,,,,,,,,,,,,,,,,,,,,,,,,,,,113,001,2010-10-15_13h21.06.018,eb_01,2022.2.4,119.95083077466099,
,,,0,0,0,0,80,0,80,0,,,,,,,,,,,,,,,,,,,,,,,,,,,,,,,,,,,,,,,,,,,,,,,,,,,,,,,,,,,113,001,2010-10-15_13h21.06.018,eb_01,2022.2.4,119.95083077466099,
2,stimuli/2.png,s,0,0,0,0,81,0,81,0,0,0,0,0,,,,,,,,,,,,,,,,,,493.8744031682145,493.8744031682145,493.8744031682145,493.8744031682145,s,1,0.6335657826275565,494.5161646407505,494.5161646407505,494.5161646407505,495.5245735622011,495.5245735622011,495.5245735622011,,,,,,,,,,,,,,,,,,,,,,,,,113,001,2010-10-15_13h21.06.018,eb_01,2022.2.4,119.95083077466099,
,,,0,0,0,0,81,0,81,0,,,,,,,,,,,,,,,,,,,,,,,,,,,,,,,,,,,,,,,,,,,,,,,,,,,,,,,,,,,113,001,2010-10-15_13h21.06.018,eb_01,2022.2.4,119.95083077466099,
3,stimuli/3.png,l,0,0,0,0,82,0,82,0,0,0,0,0,,,,,,,,,,,,,,,,,,495.5245735622011,495.5245735622011,495.5245735622011,495.5245735622011,l,1,0.46333296614466235,495.9996166512137,495.9996166512137,495.9996166512137,497.00804458919447,497.00804458919447,497.00804458919447,,,,,,,,,,,,,,,,,,,,,,,,,113,001,2010-10-15_13h21.06.018,eb_01,2022.2.4,119.95083077466099,
,,,0,0,0,0,82,0,82,0,,,,,,,,,,,,,,,,,,,,,,,,,,,,,,,,,,,,,,,,,,,,,,,,,,,,,,,,,,,113,001,2010-10-15_13h21.06.018,eb_01,2022.2.4,119.95083077466099,
8,stimuli/8.png,l,0,0,0,0,83,0,83,0,0,0,0,0,,,,,,,,,,,,,,,,,,497.00804458919447,497.00804458919447,497.00804458919447,497.00804458919447,l,1,0.5478112646669615,497.57474305067444,497.57474305067444,497.57474305067444,,,,,,,,,,,,,,,,,,,,,,,,,,,,113,001,2010-10-15_13h21.06.018,eb_01,2022.2.4,119.95083077466099,
,,,0,0,0,0,83,0,83,0,,,,,,,,,,,,,,,,,,,,,,,,,,,,,,,,,,,,,,,,,,,,,,,,,,,,,,,,,,,113,001,2010-10-15_13h21.06.018,eb_01,2022.2.4,119.95083077466099,
3,stimuli/3.png,l,0,0,0,0,84,0,84,0,0,0,0,0,,,,,,,,,,,,,,,,,,498.58317370529403,498.58317370529403,498.58317370529403,498.58317370529403,l,1,0.508801451564068,499.1082175488991,499.1082175488991,499.1082175488991,500.11660594461136,500.11660594461136,500.11660594461136,,,,,,,,,,,,,,,,,,,,,,,,,113,001,2010-10-15_13h21.06.018,eb_01,2022.2.4,119.95083077466099,
,,,0,0,0,0,84,0,84,0,,,,,,,,,,,,,,,,,,,,,,,,,,,,,,,,,,,,,,,,,,,,,,,,,,,,,,,,,,,113,001,2010-10-15_13h21.06.018,eb_01,2022.2.4,119.95083077466099,
8,stimuli/8.png,l,0,0,0,0,85,0,85,0,0,0,0,0,,,,,,,,,,,,,,,,,,500.11660594461136,500.11660594461136,500.11660594461136,500.11660594461136,l,1,0.43133209680672735,500.56666525802575,500.56666525802575,500.56666525802575,,,,,,,,,,,,,,,,,,,,,,,,,,,,113,001,2010-10-15_13h21.06.018,eb_01,2022.2.4,119.95083077466099,
,,,0,0,0,0,85,0,85,0,,,,,,,,,,,,,,,,,,,,,,,,,,,,,,,,,,,,,,,,,,,,,,,,,,,,,,,,,,,113,001,2010-10-15_13h21.06.018,eb_01,2022.2.4,119.95083077466099,
3,stimuli/3.png,l,0,0,0,0,86,0,86,0,0,0,0,0,,,,,,,,,,,,,,,,,,501.5750880645646,501.5750880645646,501.5750880645646,501.5750880645646,l,1,0.8049184604897164,502.39183799136663,502.39183799136663,502.39183799136663,503.4002363480977,503.4002363480977,503.4002363480977,,,,,,,,,,,,,,,,,,,,,,,,,113,001,2010-10-15_13h21.06.018,eb_01,2022.2.4,119.95083077466099,
,,,0,0,0,0,86,0,86,0,,,,,,,,,,,,,,,,,,,,,,,,,,,,,,,,,,,,,,,,,,,,,,,,,,,,,,,,,,,113,001,2010-10-15_13h21.06.018,eb_01,2022.2.4,119.95083077466099,
2,stimuli/2.png,s,0,0,0,0,87,0,87,0,0,0,0,0,,,,,,,,,,,,,,,,,,503.4002363480977,503.4002363480977,503.4002363480977,503.4002363480977,s,1,0.6358058072219137,504.0502760412928,504.0502760412928,504.0502760412928,505.0587287309172,505.0587287309172,505.0587287309172,,,,,,,,,,,,,,,,,,,,,,,,,113,001,2010-10-15_13h21.06.018,eb_01,2022.2.4,119.95083077466099,
,,,0,0,0,0,87,0,87,0,,,,,,,,,,,,,,,,,,,,,,,,,,,,,,,,,,,,,,,,,,,,,,,,,,,,,,,,,,,113,001,2010-10-15_13h21.06.018,eb_01,2022.2.4,119.95083077466099,
3,stimuli/3.png,l,0,0,0,0,88,0,88,0,0,0,0,0,,,,,,,,,,,,,,,,,,505.0587287309172,505.0587287309172,505.0587287309172,505.0587287309172,l,1,0.45734065122087486,505.52543051273096,505.52543051273096,505.52543051273096,506.5421641396824,506.5421641396824,506.5421641396824,,,,,,,,,,,,,,,,,,,,,,,,,113,001,2010-10-15_13h21.06.018,eb_01,2022.2.4,119.95083077466099,
,,,0,0,0,0,88,0,88,0,,,,,,,,,,,,,,,,,,,,,,,,,,,,,,,,,,,,,,,,,,,,,,,,,,,,,,,,,,,113,001,2010-10-15_13h21.06.018,eb_01,2022.2.4,119.95083077466099,
8,stimuli/8.png,l,0,0,0,0,89,0,89,0,0,0,0,0,,,,,,,,,,,,,,,,,,506.5421641396824,506.5421641396824,506.5421641396824,506.5421641396824,l,1,0.43791694214451127,507.0005264253996,507.0005264253996,507.0005264253996,,,,,,,,,,,,,,,,,,,,,,,,,,,,113,001,2010-10-15_13h21.06.018,eb_01,2022.2.4,119.95083077466099,
,,,0,0,0,0,89,0,89,0,,,,,,,,,,,,,,,,,,,,,,,,,,,,,,,,,,,,,,,,,,,,,,,,,,,,,,,,,,,113,001,2010-10-15_13h21.06.018,eb_01,2022.2.4,119.95083077466099,
6,stimuli/6.png,s,0,0,0,0,90,0,90,0,0,0,0,0,,,,,,,,,,,,,,,,,,508.0256134335068,508.0256134335068,508.0256134335068,508.0256134335068,s,1,0.41049784535425715,508.46733838226646,508.46733838226646,508.46733838226646,,,,,,,,,,,,,,,,,,,,,,,,,,,,113,001,2010-10-15_13h21.06.018,eb_01,2022.2.4,119.95083077466099,
,,,0,0,0,0,90,0,90,0,,,,,,,,,,,,,,,,,,,,,,,,,,,,,,,,,,,,,,,,,,,,,,,,,,,,,,,,,,,113,001,2010-10-15_13h21.06.018,eb_01,2022.2.4,119.95083077466099,
5,stimuli/5.png,s,0,0,0,0,91,0,91,0,0,0,0,0,,,,,,,,,,,,,,,,,,509.46744584065164,509.46744584065164,509.46744584065164,509.46744584065164,s,1,0.53669475382776,510.02581386151724,510.02581386151724,510.02581386151724,,,,,,,,,,,,,,,,,,,,,,,,,,,,113,001,2010-10-15_13h21.06.018,eb_01,2022.2.4,119.95083077466099,
,,,0,0,0,0,91,0,91,0,,,,,,,,,,,,,,,,,,,,,,,,,,,,,,,,,,,,,,,,,,,,,,,,,,,,,,,,,,,113,001,2010-10-15_13h21.06.018,eb_01,2022.2.4,119.95083077466099,
6,stimuli/6.png,s,0,0,0,0,92,0,92,0,0,0,0,0,,,,,,,,,,,,,,,,,,511.05090962324175,511.05090962324175,511.05090962324175,511.05090962324175,s,1,0.4642693030764349,511.5425818992953,511.5425818992953,511.5425818992953,,,,,,,,,,,,,,,,,,,,,,,,,,,,113,001,2010-10-15_13h21.06.018,eb_01,2022.2.4,119.95083077466099,
,,,0,0,0,0,92,0,92,0,,,,,,,,,,,,,,,,,,,,,,,,,,,,,,,,,,,,,,,,,,,,,,,,,,,,,,,,,,,113,001,2010-10-15_13h21.06.018,eb_01,2022.2.4,119.95083077466099,
9,stimuli/9.png,l,0,0,0,0,93,0,93,0,0,0,0,0,,,,,,,,,,,,,,,,,,512.5510309667152,512.5510309667152,512.5510309667152,512.5510309667152,l,1,0.5561733994982205,513.1344147592317,513.1344147592317,513.1344147592317,,,,,,,,,,,,,,,,,,,,,,,,,,,,113,001,2010-10-15_13h21.06.018,eb_01,2022.2.4,119.95083077466099,
,,,0,0,0,0,93,0,93,0,,,,,,,,,,,,,,,,,,,,,,,,,,,,,,,,,,,,,,,,,,,,,,,,,,,,,,,,,,,113,001,2010-10-15_13h21.06.018,eb_01,2022.2.4,119.95083077466099,
8,stimuli/8.png,l,0,0,0,0,94,0,94,0,0,0,0,0,,,,,,,,,,,,,,,,,,514.1344727143005,514.1344727143005,514.1344727143005,514.1344727143005,l,1,0.68479808291886,514.8428650340647,514.8428650340647,514.8428650340647,,,,,,,,,,,,,,,,,,,,,,,,,,,,113,001,2010-10-15_13h21.06.018,eb_01,2022.2.4,119.95083077466099,
,,,0,0,0,0,94,0,94,0,,,,,,,,,,,,,,,,,,,,,,,,,,,,,,,,,,,,,,,,,,,,,,,,,,,,,,,,,,,113,001,2010-10-15_13h21.06.018,eb_01,2022.2.4,119.95083077466099,
3,stimuli/3.png,l,0,0,0,0,95,0,95,0,0,0,0,0,,,,,,,,,,,,,,,,,,515.8512845202349,515.8512845202349,515.8512845202349,515.8512845202349,l,1,0.4239742150530219,516.2846920079319,516.2846920079319,516.2846920079319,517.3014537068375,517.3014537068375,517.3014537068375,,,,,,,,,,,,,,,,,,,,,,,,,113,001,2010-10-15_13h21.06.018,eb_01,2022.2.4,119.95083077466099,
,,,0,0,0,0,95,0,95,0,,,,,,,,,,,,,,,,,,,,,,,,,,,,,,,,,,,,,,,,,,,,,,,,,,,,,,,,,,,113,001,2010-10-15_13h21.06.018,eb_01,2022.2.4,119.95083077466099,
4,stimuli/4.png,l,0,0,0,0,96,0,96,0,0,0,0,0,,,,,,,,,,,,,,,,,,517.3014537068375,517.3014537068375,517.3014537068375,517.3014537068375,l,1,0.5338259768032003,517.8598175018269,517.8598175018269,517.8598175018269,,,,,,,,,,,,,,,,,,,,,,,,,,,,113,001,2010-10-15_13h21.06.018,eb_01,2022.2.4,119.95083077466099,
,,,0,0,0,0,96,0,96,0,,,,,,,,,,,,,,,,,,,,,,,,,,,,,,,,,,,,,,,,,,,,,,,,,,,,,,,,,,,113,001,2010-10-15_13h21.06.018,eb_01,2022.2.4,119.95083077466099,
2,stimuli/2.png,s,0,0,0,0,97,0,97,0,0,0,0,0,,,,,,,,,,,,,,,,,,518.8682400065009,518.8682400065009,518.8682400065009,518.8682400065009,s,1,0.48708006463130005,519.3682535897242,519.3682535897242,519.3682535897242,520.3850349088898,520.3850349088898,520.3850349088898,,,,,,,,,,,,,,,,,,,,,,,,,113,001,2010-10-15_13h21.06.018,eb_01,2022.2.4,119.95083077466099,
,,,0,0,0,0,97,0,97,0,,,,,,,,,,,,,,,,,,,,,,,,,,,,,,,,,,,,,,,,,,,,,,,,,,,,,,,,,,,113,001,2010-10-15_13h21.06.018,eb_01,2022.2.4,119.95083077466099,
4,stimuli/4.png,l,0,0,0,0,98,0,98,0,0,0,0,0,,,,,,,,,,,,,,,,,,520.3850349088898,520.3850349088898,520.3850349088898,520.3850349088898,l,1,0.4983230503858067,520.9017341249855,520.9017341249855,520.9017341249855,,,,,,,,,,,,,,,,,,,,,,,,,,,,113,001,2010-10-15_13h21.06.018,eb_01,2022.2.4,119.95083077466099,
,,,0,0,0,0,98,0,98,0,,,,,,,,,,,,,,,,,,,,,,,,,,,,,,,,,,,,,,,,,,,,,,,,,,,,,,,,,,,113,001,2010-10-15_13h21.06.018,eb_01,2022.2.4,119.95083077466099,
1,stimuli/1.png,s,0,0,0,0,99,0,99,0,0,0,0,0,,,,,,,,,,,,,,,,,,521.9268039276649,521.9268039276649,521.9268039276649,521.9268039276649,s,1,0.7805978480610065,522.7352046991873,522.7352046991873,522.7352046991873,,,,,,,,,,,,,,,,,,,,,,,,,,,,113,001,2010-10-15_13h21.06.018,eb_01,2022.2.4,119.95083077466099,
,,,0,0,0,0,99,0,99,0,,,,,,,,,,,,,,,,,,,,,,,,,,,,,,,,,,,,,,,,,,,,,,,,,,,,,,,,,,,113,001,2010-10-15_13h21.06.018,eb_01,2022.2.4,119.95083077466099,
,,,0,0,0,0,,,,,,,,,,,,,,,,,,,,,,,,,,,,,,,,,,,,,,,523.7269660207967,523.7269660207967,return,4.8915483417513315,,,,,,,,,,,,,,,,,,,,,113,001,2010-10-15_13h21.06.018,eb_01,2022.2.4,119.95083077466099,
4,stimuli/4.png,l,1,0,1,0,0,0,0,0,0,0,0,0,,,,,,,,,,,,,,,,,,528.6440645836992,528.6440645836992,528.6440645836992,528.6440645836992,l,1,1.0624609231308568,529.7274746370967,529.7274746370967,529.7274746370967,,,,,,,,,,,,,,,,,,,,,,,,,,,,113,001,2010-10-15_13h21.06.018,eb_01,2022.2.4,119.95083077466099,
,,,1,0,1,0,0,0,0,0,,,,,,,,,,,,,,,,,,,,,,,,,,,,,,,,,,,,,,,,,,,,,,,,,,,,,,,,,,,113,001,2010-10-15_13h21.06.018,eb_01,2022.2.4,119.95083077466099,
3,stimuli/3.png,l,1,0,1,0,1,0,1,0,0,0,0,0,,,,,,,,,,,,,,,,,,530.7359255156189,530.7359255156189,530.7359255156189,530.7359255156189,l,1,0.43462316115619615,531.1859528330097,531.1859528330097,531.1859528330097,532.1943520952773,532.1943520952773,532.1943520952773,,,,,,,,,,,,,,,,,,,,,,,,,113,001,2010-10-15_13h21.06.018,eb_01,2022.2.4,119.95083077466099,
,,,1,0,1,0,1,0,1,0,,,,,,,,,,,,,,,,,,,,,,,,,,,,,,,,,,,,,,,,,,,,,,,,,,,,,,,,,,,113,001,2010-10-15_13h21.06.018,eb_01,2022.2.4,119.95083077466099,
8,stimuli/8.png,l,1,0,1,0,2,0,2,0,0,0,0,0,,,,,,,,,,,,,,,,,,532.1943520952773,532.1943520952773,532.1943520952773,532.1943520952773,l,1,0.44023544766241685,532.6527140791586,532.6527140791586,532.6527140791586,,,,,,,,,,,,,,,,,,,,,,,,,,,,113,001,2010-10-15_13h21.06.018,eb_01,2022.2.4,119.95083077466099,
,,,1,0,1,0,2,0,2,0,,,,,,,,,,,,,,,,,,,,,,,,,,,,,,,,,,,,,,,,,,,,,,,,,,,,,,,,,,,113,001,2010-10-15_13h21.06.018,eb_01,2022.2.4,119.95083077466099,
6,stimuli/6.png,s,1,0,1,0,3,0,3,0,0,0,0,0,,,,,,,,,,,,,,,,,,533.6778385165671,533.6778385165671,533.6778385165671,533.6778385165671,s,1,0.6287820728321094,534.3362177058589,534.3362177058589,534.3362177058589,,,,,,,,,,,,,,,,,,,,,,,,,,,,113,001,2010-10-15_13h21.06.018,eb_01,2022.2.4,119.95083077466099,
,,,1,0,1,0,3,0,3,0,,,,,,,,,,,,,,,,,,,,,,,,,,,,,,,,,,,,,,,,,,,,,,,,,,,,,,,,,,,113,001,2010-10-15_13h21.06.018,eb_01,2022.2.4,119.95083077466099,
8,stimuli/8.png,l,1,0,1,0,4,0,4,0,0,0,0,0,,,,,,,,,,,,,,,,,,535.3362874330778,535.3362874330778,535.3362874330778,535.3362874330778,l,1,0.5303634619922377,535.8863591223198,535.8863591223198,535.8863591223198,,,,,,,,,,,,,,,,,,,,,,,,,,,,113,001,2010-10-15_13h21.06.018,eb_01,2022.2.4,119.95083077466099,
,,,1,0,1,0,4,0,4,0,,,,,,,,,,,,,,,,,,,,,,,,,,,,,,,,,,,,,,,,,,,,,,,,,,,,,,,,,,,113,001,2010-10-15_13h21.06.018,eb_01,2022.2.4,119.95083077466099,
6,stimuli/6.png,s,1,0,1,0,5,0,5,0,0,0,0,0,,,,,,,,,,,,,,,,,,536.9114180584438,536.9114180584438,536.9114180584438,536.9114180584438,s,1,0.4832752525107935,537.419818528113,537.419818528113,537.419818528113,,,,,,,,,,,,,,,,,,,,,,,,,,,,113,001,2010-10-15_13h21.06.018,eb_01,2022.2.4,119.95083077466099,
,,,1,0,1,0,5,0,5,0,,,,,,,,,,,,,,,,,,,,,,,,,,,,,,,,,,,,,,,,,,,,,,,,,,,,,,,,,,,113,001,2010-10-15_13h21.06.018,eb_01,2022.2.4,119.95083077466099,
5,stimuli/5.png,s,1,0,1,0,6,0,6,0,0,0,0,0,,,,,,,,,,,,,,,,,,538.4199181384174,538.4199181384174,538.4199181384174,538.4199181384174,s,1,0.4948273321206216,538.9365941121068,538.9365941121068,538.9365941121068,,,,,,,,,,,,,,,,,,,,,,,,,,,,113,001,2010-10-15_13h21.06.018,eb_01,2022.2.4,119.95083077466099,
,,,1,0,1,0,6,0,6,0,,,,,,,,,,,,,,,,,,,,,,,,,,,,,,,,,,,,,,,,,,,,,,,,,,,,,,,,,,,113,001,2010-10-15_13h21.06.018,eb_01,2022.2.4,119.95083077466099,
6,stimuli/6.png,s,1,0,1,0,7,0,7,0,0,0,0,0,,,,,,,,,,,,,,,,,,539.9616892701597,539.9616892701597,539.9616892701597,539.9616892701597,s,1,0.5291159182670526,540.5200907962862,540.5200907962862,540.5200907962862,,,,,,,,,,,,,,,,,,,,,,,,,,,,113,001,2010-10-15_13h21.06.018,eb_01,2022.2.4,119.95083077466099,
,,,1,0,1,0,7,0,7,0,,,,,,,,,,,,,,,,,,,,,,,,,,,,,,,,,,,,,,,,,,,,,,,,,,,,,,,,,,,113,001,2010-10-15_13h21.06.018,eb_01,2022.2.4,119.95083077466099,
9,stimuli/9.png,l,1,0,1,0,8,0,8,0,0,0,0,0,,,,,,,,,,,,,,,,,,541.5285102824855,541.5285102824855,541.5285102824855,541.5285102824855,l,1,0.625322576466715,542.1868870569742,542.1868870569742,542.1868870569742,,,,,,,,,,,,,,,,,,,,,,,,,,,,113,001,2010-10-15_13h21.06.018,eb_01,2022.2.4,119.95083077466099,
,,,1,0,1,0,8,0,8,0,,,,,,,,,,,,,,,,,,,,,,,,,,,,,,,,,,,,,,,,,,,,,,,,,,,,,,,,,,,113,001,2010-10-15_13h21.06.018,eb_01,2022.2.4,119.95083077466099,
6,stimuli/6.png,s,1,0,1,0,9,0,9,0,0,0,0,0,,,,,,,,,,,,,,,,,,543.2036339652841,543.2036339652841,543.2036339652841,543.2036339652841,s,1,0.48617330892011523,543.7203754403163,543.7203754403163,543.7203754403163,,,,,,,,,,,,,,,,,,,,,,,,,,,,113,001,2010-10-15_13h21.06.018,eb_01,2022.2.4,119.95083077466099,
,,,1,0,1,0,9,0,9,0,,,,,,,,,,,,,,,,,,,,,,,,,,,,,,,,,,,,,,,,,,,,,,,,,,,,,,,,,,,113,001,2010-10-15_13h21.06.018,eb_01,2022.2.4,119.95083077466099,
9,stimuli/9.png,l,1,0,1,0,10,0,10,0,0,0,0,0,,,,,,,,,,,,,,,,,,544.7287943228148,544.7287943228148,544.7287943228148,544.7287943228148,l,1,0.5050518779316917,545.2621311777038,545.2621311777038,545.2621311777038,,,,,,,,,,,,,,,,,,,,,,,,,,,,113,001,2010-10-15_13h21.06.018,eb_01,2022.2.4,119.95083077466099,
,,,1,0,1,0,10,0,10,0,,,,,,,,,,,,,,,,,,,,,,,,,,,,,,,,,,,,,,,,,,,,,,,,,,,,,,,,,,,113,001,2010-10-15_13h21.06.018,eb_01,2022.2.4,119.95083077466099,
6,stimuli/6.png,s,1,0,1,0,11,0,11,0,0,0,0,0,,,,,,,,,,,,,,,,,,546.2789025358215,546.2789025358215,546.2789025358215,546.2789025358215,s,1,0.48299996586865745,546.7872812723508,546.7872812723508,546.7872812723508,,,,,,,,,,,,,,,,,,,,,,,,,,,,113,001,2010-10-15_13h21.06.018,eb_01,2022.2.4,119.95083077466099,
,,,1,0,1,0,11,0,11,0,,,,,,,,,,,,,,,,,,,,,,,,,,,,,,,,,,,,,,,,,,,,,,,,,,,,,,,,,,,113,001,2010-10-15_13h21.06.018,eb_01,2022.2.4,119.95083077466099,
8,stimuli/8.png,l,1,0,1,0,12,0,12,0,0,0,0,0,,,,,,,,,,,,,,,,,,547.787369714235,547.787369714235,547.787369714235,547.787369714235,l,1,0.3665428330132272,548.1707432438561,548.1707432438561,548.1707432438561,,,,,,,,,,,,,,,,,,,,,,,,,,,,113,001,2010-10-15_13h21.06.018,eb_01,2022.2.4,119.95083077466099,
,,,1,0,1,0,12,0,12,0,,,,,,,,,,,,,,,,,,,,,,,,,,,,,,,,,,,,,,,,,,,,,,,,,,,,,,,,,,,113,001,2010-10-15_13h21.06.018,eb_01,2022.2.4,119.95083077466099,
6,stimuli/6.png,s,1,0,1,0,13,0,13,0,0,0,0,0,,,,,,,,,,,,,,,,,,549.1958311574999,549.1958311574999,549.1958311574999,549.1958311574999,s,1,0.3181135065096896,549.5458337232121,549.5458337232121,549.5458337232121,,,,,,,,,,,,,,,,,,,,,,,,,,,,113,001,2010-10-15_13h21.06.018,eb_01,2022.2.4,119.95083077466099,
,,,1,0,1,0,13,0,13,0,,,,,,,,,,,,,,,,,,,,,,,,,,,,,,,,,,,,,,,,,,,,,,,,,,,,,,,,,,,113,001,2010-10-15_13h21.06.018,eb_01,2022.2.4,119.95083077466099,
8,stimuli/8.png,l,1,0,1,0,14,0,14,0,0,0,0,0,,,,,,,,,,,,,,,,,,550.5459680462081,550.5459680462081,550.5459680462081,550.5459680462081,l,1,0.3359573356283363,550.9043034673377,550.9043034673377,550.9043034673377,,,,,,,,,,,,,,,,,,,,,,,,,,,,113,001,2010-10-15_13h21.06.018,eb_01,2022.2.4,119.95083077466099,
,,,1,0,1,0,14,0,14,0,,,,,,,,,,,,,,,,,,,,,,,,,,,,,,,,,,,,,,,,,,,,,,,,,,,,,,,,,,,113,001,2010-10-15_13h21.06.018,eb_01,2022.2.4,119.95083077466099,
6,stimuli/6.png,s,1,0,1,0,15,0,15,0,0,0,0,0,,,,,,,,,,,,,,,,,,551.9293992290623,551.9293992290623,551.9293992290623,551.9293992290623,s,1,0.31259207671973854,552.2711051613151,552.2711051613151,552.2711051613151,,,,,,,,,,,,,,,,,,,,,,,,,,,,113,001,2010-10-15_13h21.06.018,eb_01,2022.2.4,119.95083077466099,
,,,1,0,1,0,15,0,15,0,,,,,,,,,,,,,,,,,,,,,,,,,,,,,,,,,,,,,,,,,,,,,,,,,,,,,,,,,,,113,001,2010-10-15_13h21.06.018,eb_01,2022.2.4,119.95083077466099,
9,stimuli/9.png,l,1,0,1,0,16,0,16,0,0,0,0,0,,,,,,,,,,,,,,,,,,553.2795161957329,553.2795161957329,553.2795161957329,553.2795161957329,l,1,0.3224752308160532,553.6295368724095,553.6295368724095,553.6295368724095,,,,,,,,,,,,,,,,,,,,,,,,,,,,113,001,2010-10-15_13h21.06.018,eb_01,2022.2.4,119.95083077466099,
,,,1,0,1,0,16,0,16,0,,,,,,,,,,,,,,,,,,,,,,,,,,,,,,,,,,,,,,,,,,,,,,,,,,,,,,,,,,,113,001,2010-10-15_13h21.06.018,eb_01,2022.2.4,119.95083077466099,
6,stimuli/6.png,s,1,0,1,0,17,0,17,0,0,0,0,0,,,,,,,,,,,,,,,,,,554.6462940436031,554.6462940436031,554.6462940436031,554.6462940436031,s,1,0.923755977943074,555.5963793160627,555.5963793160627,555.5963793160627,,,,,,,,,,,,,,,,,,,,,,,,,,,,113,001,2010-10-15_13h21.06.018,eb_01,2022.2.4,119.95083077466099,
,,,1,0,1,0,17,0,17,0,,,,,,,,,,,,,,,,,,,,,,,,,,,,,,,,,,,,,,,,,,,,,,,,,,,,,,,,,,,113,001,2010-10-15_13h21.06.018,eb_01,2022.2.4,119.95083077466099,
5,stimuli/5.png,s,1,0,1,0,18,0,18,0,0,0,0,0,,,,,,,,,,,,,,,,,,556.5964674560819,556.5964674560819,556.5964674560819,556.5964674560819,s,1,0.5566506234172266,557.1714836804895,557.1714836804895,557.1714836804895,,,,,,,,,,,,,,,,,,,,,,,,,,,,113,001,2010-10-15_13h21.06.018,eb_01,2022.2.4,119.95083077466099,
,,,1,0,1,0,18,0,18,0,,,,,,,,,,,,,,,,,,,,,,,,,,,,,,,,,,,,,,,,,,,,,,,,,,,,,,,,,,,113,001,2010-10-15_13h21.06.018,eb_01,2022.2.4,119.95083077466099,
6,stimuli/6.png,s,1,0,1,0,19,0,19,0,0,0,0,0,,,,,,,,,,,,,,,,,,558.196601175383,558.196601175383,558.196601175383,558.196601175383,s,1,0.5085128835053183,558.7300002112752,558.7300002112752,558.7300002112752,,,,,,,,,,,,,,,,,,,,,,,,,,,,113,001,2010-10-15_13h21.06.018,eb_01,2022.2.4,119.95083077466099,
,,,1,0,1,0,19,0,19,0,,,,,,,,,,,,,,,,,,,,,,,,,,,,,,,,,,,,,,,,,,,,,,,,,,,,,,,,,,,113,001,2010-10-15_13h21.06.018,eb_01,2022.2.4,119.95083077466099,
8,stimuli/8.png,l,1,0,1,0,20,0,20,0,0,0,0,0,,,,,,,,,,,,,,,,,,559.730039149872,559.730039149872,559.730039149872,559.730039149872,l,1,0.5431365225522313,560.2967524019477,560.2967524019477,560.2967524019477,,,,,,,,,,,,,,,,,,,,,,,,,,,,113,001,2010-10-15_13h21.06.018,eb_01,2022.2.4,119.95083077466099,
,,,1,0,1,0,20,0,20,0,,,,,,,,,,,,,,,,,,,,,,,,,,,,,,,,,,,,,,,,,,,,,,,,,,,,,,,,,,,113,001,2010-10-15_13h21.06.018,eb_01,2022.2.4,119.95083077466099,
6,stimuli/6.png,s,1,0,1,0,21,0,21,0,0,0,0,0,,,,,,,,,,,,,,,,,,561.3218409192923,561.3218409192923,561.3218409192923,561.3218409192923,s,1,0.5753541197627783,561.9302305224119,561.9302305224119,561.9302305224119,,,,,,,,,,,,,,,,,,,,,,,,,,,,113,001,2010-10-15_13h21.06.018,eb_01,2022.2.4,119.95083077466099,
,,,1,0,1,0,21,0,21,0,,,,,,,,,,,,,,,,,,,,,,,,,,,,,,,,,,,,,,,,,,,,,,,,,,,,,,,,,,,113,001,2010-10-15_13h21.06.018,eb_01,2022.2.4,119.95083077466099,
8,stimuli/8.png,l,1,0,1,0,22,0,22,0,0,0,0,0,,,,,,,,,,,,,,,,,,562.9303331512201,562.9303331512201,562.9303331512201,562.9303331512201,l,1,0.27890024686348625,563.230363034294,563.230363034294,563.230363034294,,,,,,,,,,,,,,,,,,,,,,,,,,,,113,001,2010-10-15_13h21.06.018,eb_01,2022.2.4,119.95083077466099,
,,,1,0,1,0,22,0,22,0,,,,,,,,,,,,,,,,,,,,,,,,,,,,,,,,,,,,,,,,,,,,,,,,,,,,,,,,,,,113,001,2010-10-15_13h21.06.018,eb_01,2022.2.4,119.95083077466099,
6,stimuli/6.png,s,1,0,1,0,23,0,23,0,0,0,0,0,,,,,,,,,,,,,,,,,,564.2554427980212,564.2554427980212,564.2554427980212,564.2554427980212,s,1,0.40980117686558515,564.6971632190398,564.6971632190398,564.6971632190398,,,,,,,,,,,,,,,,,,,,,,,,,,,,113,001,2010-10-15_13h21.06.018,eb_01,2022.2.4,119.95083077466099,
,,,1,0,1,0,23,0,23,0,,,,,,,,,,,,,,,,,,,,,,,,,,,,,,,,,,,,,,,,,,,,,,,,,,,,,,,,,,,113,001,2010-10-15_13h21.06.018,eb_01,2022.2.4,119.95083077466099,
5,stimuli/5.png,s,1,0,1,0,24,0,24,0,0,0,0,0,,,,,,,,,,,,,,,,,,565.6972435109783,565.6972435109783,565.6972435109783,565.6972435109783,s,1,0.8560019489959814,566.5723086349899,566.5723086349899,566.5723086349899,,,,,,,,,,,,,,,,,,,,,,,,,,,,113,001,2010-10-15_13h21.06.018,eb_01,2022.2.4,119.95083077466099,
,,,1,0,1,0,24,0,24,0,,,,,,,,,,,,,,,,,,,,,,,,,,,,,,,,,,,,,,,,,,,,,,,,,,,,,,,,,,,113,001,2010-10-15_13h21.06.018,eb_01,2022.2.4,119.95083077466099,
9,stimuli/9.png,l,1,0,1,0,25,0,25,0,0,0,0,0,,,,,,,,,,,,,,,,,,567.5890736542642,567.5890736542642,567.5890736542642,567.5890736542642,l,1,0.5002563959860709,568.1224370719283,568.1224370719283,568.1224370719283,,,,,,,,,,,,,,,,,,,,,,,,,,,,113,001,2010-10-15_13h21.06.018,eb_01,2022.2.4,119.95083077466099,
,,,1,0,1,0,25,0,25,0,,,,,,,,,,,,,,,,,,,,,,,,,,,,,,,,,,,,,,,,,,,,,,,,,,,,,,,,,,,113,001,2010-10-15_13h21.06.018,eb_01,2022.2.4,119.95083077466099,
6,stimuli/6.png,s,1,0,1,0,26,0,26,0,0,0,0,0,,,,,,,,,,,,,,,,,,569.1392045060056,569.1392045060056,569.1392045060056,569.1392045060056,s,1,0.5421549081802368,569.7142249562894,569.7142249562894,569.7142249562894,,,,,,,,,,,,,,,,,,,,,,,,,,,,113,001,2010-10-15_13h21.06.018,eb_01,2022.2.4,119.95083077466099,
,,,1,0,1,0,26,0,26,0,,,,,,,,,,,,,,,,,,,,,,,,,,,,,,,,,,,,,,,,,,,,,,,,,,,,,,,,,,,113,001,2010-10-15_13h21.06.018,eb_01,2022.2.4,119.95083077466099,
5,stimuli/5.png,s,1,0,1,0,27,0,27,0,0,0,0,0,,,,,,,,,,,,,,,,,,570.7143137000385,570.7143137000385,570.7143137000385,570.7143137000385,s,1,0.47908196024945937,571.2143852383306,571.2143852383306,571.2143852383306,,,,,,,,,,,,,,,,,,,,,,,,,,,,113,001,2010-10-15_13h21.06.018,eb_01,2022.2.4,119.95083077466099,
,,,1,0,1,0,27,0,27,0,,,,,,,,,,,,,,,,,,,,,,,,,,,,,,,,,,,,,,,,,,,,,,,,,,,,,,,,,,,113,001,2010-10-15_13h21.06.018,eb_01,2022.2.4,119.95083077466099,
9,stimuli/9.png,l,1,0,1,0,28,0,28,0,0,0,0,0,,,,,,,,,,,,,,,,,,572.2311279207643,572.2311279207643,572.2311279207643,572.2311279207643,l,1,0.5693210551689845,572.8311846684664,572.8311846684664,572.8311846684664,,,,,,,,,,,,,,,,,,,,,,,,,,,,113,001,2010-10-15_13h21.06.018,eb_01,2022.2.4,119.95083077466099,
,,,1,0,1,0,28,0,28,0,,,,,,,,,,,,,,,,,,,,,,,,,,,,,,,,,,,,,,,,,,,,,,,,,,,,,,,,,,,113,001,2010-10-15_13h21.06.018,eb_01,2022.2.4,119.95083077466099,
5,stimuli/5.png,s,1,0,1,0,29,0,29,0,0,0,0,0,,,,,,,,,,,,,,,,,,573.8312972582935,573.8312972582935,573.8312972582935,573.8312972582935,s,1,0.9211440747894812,574.7730077182932,574.7730077182932,574.7730077182932,,,,,,,,,,,,,,,,,,,,,,,,,,,,113,001,2010-10-15_13h21.06.018,eb_01,2022.2.4,119.95083077466099,
,,,1,0,1,0,29,0,29,0,,,,,,,,,,,,,,,,,,,,,,,,,,,,,,,,,,,,,,,,,,,,,,,,,,,,,,,,,,,113,001,2010-10-15_13h21.06.018,eb_01,2022.2.4,119.95083077466099,
9,stimuli/9.png,l,1,0,1,0,30,0,30,0,0,0,0,0,,,,,,,,,,,,,,,,,,575.7897482877597,575.7897482877597,575.7897482877597,575.7897482877597,l,1,0.33071390917757526,576.1481160067488,576.1481160067488,576.1481160067488,,,,,,,,,,,,,,,,,,,,,,,,,,,,113,001,2010-10-15_13h21.06.018,eb_01,2022.2.4,119.95083077466099,
,,,1,0,1,0,30,0,30,0,,,,,,,,,,,,,,,,,,,,,,,,,,,,,,,,,,,,,,,,,,,,,,,,,,,,,,,,,,,113,001,2010-10-15_13h21.06.018,eb_01,2022.2.4,119.95083077466099,
5,stimuli/5.png,s,1,0,1,0,31,0,31,0,0,0,0,0,,,,,,,,,,,,,,,,,,577.1481972042529,577.1481972042529,577.1481972042529,577.1481972042529,s,1,0.5003086159704253,577.6732232387585,577.6732232387585,577.6732232387585,,,,,,,,,,,,,,,,,,,,,,,,,,,,113,001,2010-10-15_13h21.06.018,eb_01,2022.2.4,119.95083077466099,
,,,1,0,1,0,31,0,31,0,,,,,,,,,,,,,,,,,,,,,,,,,,,,,,,,,,,,,,,,,,,,,,,,,,,,,,,,,,,113,001,2010-10-15_13h21.06.018,eb_01,2022.2.4,119.95083077466099,
6,stimuli/6.png,s,1,0,1,0,32,0,32,0,0,0,0,0,,,,,,,,,,,,,,,,,,578.6983419410535,578.6983419410535,578.6983419410535,578.6983419410535,s,1,1.046195162809454,579.7734499276849,579.7734499276849,579.7734499276849,,,,,,,,,,,,,,,,,,,,,,,,,,,,113,001,2010-10-15_13h21.06.018,eb_01,2022.2.4,119.95083077466099,
,,,1,0,1,0,32,0,32,0,,,,,,,,,,,,,,,,,,,,,,,,,,,,,,,,,,,,,,,,,,,,,,,,,,,,,,,,,,,113,001,2010-10-15_13h21.06.018,eb_01,2022.2.4,119.95083077466099,
5,stimuli/5.png,s,1,0,1,0,33,0,33,0,0,0,0,0,,,,,,,,,,,,,,,,,,580.7735238808091,580.7735238808091,580.7735238808091,580.7735238808091,s,1,0.4751902155112475,581.2652109474584,581.2652109474584,581.2652109474584,,,,,,,,,,,,,,,,,,,,,,,,,,,,113,001,2010-10-15_13h21.06.018,eb_01,2022.2.4,119.95083077466099,
,,,1,0,1,0,33,0,33,0,,,,,,,,,,,,,,,,,,,,,,,,,,,,,,,,,,,,,,,,,,,,,,,,,,,,,,,,,,,113,001,2010-10-15_13h21.06.018,eb_01,2022.2.4,119.95083077466099,
6,stimuli/6.png,s,1,0,1,0,34,0,34,0,0,0,0,0,,,,,,,,,,,,,,,,,,582.2903181794682,582.2903181794682,582.2903181794682,582.2903181794682,s,1,0.43828700957237743,582.7570259982895,582.7570259982895,582.7570259982895,,,,,,,,,,,,,,,,,,,,,,,,,,,,113,001,2010-10-15_13h21.06.018,eb_01,2022.2.4,119.95083077466099,
,,,1,0,1,0,34,0,34,0,,,,,,,,,,,,,,,,,,,,,,,,,,,,,,,,,,,,,,,,,,,,,,,,,,,,,,,,,,,113,001,2010-10-15_13h21.06.018,eb_01,2022.2.4,119.95083077466099,
5,stimuli/5.png,s,1,0,1,0,35,0,35,0,0,0,0,0,,,,,,,,,,,,,,,,,,583.7571126290713,583.7571126290713,583.7571126290713,583.7571126290713,s,1,0.39553516905289143,584.1738323709287,584.1738323709287,584.1738323709287,,,,,,,,,,,,,,,,,,,,,,,,,,,,113,001,2010-10-15_13h21.06.018,eb_01,2022.2.4,119.95083077466099,
,,,1,0,1,0,35,0,35,0,,,,,,,,,,,,,,,,,,,,,,,,,,,,,,,,,,,,,,,,,,,,,,,,,,,,,,,,,,,113,001,2010-10-15_13h21.06.018,eb_01,2022.2.4,119.95083077466099,
6,stimuli/6.png,s,1,0,1,0,36,0,36,0,0,0,0,0,,,,,,,,,,,,,,,,,,585.1989178697695,585.1989178697695,585.1989178697695,585.1989178697695,s,1,0.3937569740519393,585.6239659393032,585.6239659393032,585.6239659393032,,,,,,,,,,,,,,,,,,,,,,,,,,,,113,001,2010-10-15_13h21.06.018,eb_01,2022.2.4,119.95083077466099,
,,,1,0,1,0,36,0,36,0,,,,,,,,,,,,,,,,,,,,,,,,,,,,,,,,,,,,,,,,,,,,,,,,,,,,,,,,,,,113,001,2010-10-15_13h21.06.018,eb_01,2022.2.4,119.95083077466099,
9,stimuli/9.png,l,1,0,1,0,37,0,37,0,0,0,0,0,,,,,,,,,,,,,,,,,,586.6323573534901,586.6323573534901,586.6323573534901,586.6323573534901,l,1,0.4883402859850321,587.1490583806881,587.1490583806881,587.1490583806881,,,,,,,,,,,,,,,,,,,,,,,,,,,,113,001,2010-10-15_13h21.06.018,eb_01,2022.2.4,119.95083077466099,
,,,1,0,1,0,37,0,37,0,,,,,,,,,,,,,,,,,,,,,,,,,,,,,,,,,,,,,,,,,,,,,,,,,,,,,,,,,,,113,001,2010-10-15_13h21.06.018,eb_01,2022.2.4,119.95083077466099,
5,stimuli/5.png,s,1,0,1,0,38,0,38,0,0,0,0,0,,,,,,,,,,,,,,,,,,588.1491543688171,588.1491543688171,588.1491543688171,588.1491543688171,s,1,0.4826238614623435,588.6492126257508,588.6492126257508,588.6492126257508,,,,,,,,,,,,,,,,,,,,,,,,,,,,113,001,2010-10-15_13h21.06.018,eb_01,2022.2.4,119.95083077466099,
,,,1,0,1,0,38,0,38,0,,,,,,,,,,,,,,,,,,,,,,,,,,,,,,,,,,,,,,,,,,,,,,,,,,,,,,,,,,,113,001,2010-10-15_13h21.06.018,eb_01,2022.2.4,119.95083077466099,
9,stimuli/9.png,l,1,0,1,0,39,0,39,0,0,0,0,0,,,,,,,,,,,,,,,,,,589.6659314620483,589.6659314620483,589.6659314620483,589.6659314620483,l,1,0.4618354911217466,590.1576402618666,590.1576402618666,590.1576402618666,,,,,,,,,,,,,,,,,,,,,,,,,,,,113,001,2010-10-15_13h21.06.018,eb_01,2022.2.4,119.95083077466099,
,,,1,0,1,0,39,0,39,0,,,,,,,,,,,,,,,,,,,,,,,,,,,,,,,,,,,,,,,,,,,,,,,,,,,,,,,,,,,113,001,2010-10-15_13h21.06.018,eb_01,2022.2.4,119.95083077466099,
6,stimuli/6.png,s,1,0,1,0,40,0,40,0,0,0,0,0,,,,,,,,,,,,,,,,,,591.1744119218201,591.1744119218201,591.1744119218201,591.1744119218201,s,1,0.5453641713538673,591.7494589348789,591.7494589348789,591.7494589348789,,,,,,,,,,,,,,,,,,,,,,,,,,,,113,001,2010-10-15_13h21.06.018,eb_01,2022.2.4,119.95083077466099,
,,,1,0,1,0,40,0,40,0,,,,,,,,,,,,,,,,,,,,,,,,,,,,,,,,,,,,,,,,,,,,,,,,,,,,,,,,,,,113,001,2010-10-15_13h21.06.018,eb_01,2022.2.4,119.95083077466099,
5,stimuli/5.png,s,1,0,1,0,41,0,41,0,0,0,0,0,,,,,,,,,,,,,,,,,,592.749547678628,592.749547678628,592.749547678628,592.749547678628,s,1,0.3942840031522792,593.1662677223212,593.1662677223212,593.1662677223212,,,,,,,,,,,,,,,,,,,,,,,,,,,,113,001,2010-10-15_13h21.06.018,eb_01,2022.2.4,119.95083077466099,
,,,1,0,1,0,41,0,41,0,,,,,,,,,,,,,,,,,,,,,,,,,,,,,,,,,,,,,,,,,,,,,,,,,,,,,,,,,,,113,001,2010-10-15_13h21.06.018,eb_01,2022.2.4,119.95083077466099,
6,stimuli/6.png,s,1,0,1,0,42,0,42,0,0,0,0,0,,,,,,,,,,,,,,,,,,594.191334204661,594.191334204661,594.191334204661,594.191334204661,s,1,0.4005353048851248,594.6247362590511,594.6247362590511,594.6247362590511,,,,,,,,,,,,,,,,,,,,,,,,,,,,113,001,2010-10-15_13h21.06.018,eb_01,2022.2.4,119.95083077466099,
,,,1,0,1,0,42,0,42,0,,,,,,,,,,,,,,,,,,,,,,,,,,,,,,,,,,,,,,,,,,,,,,,,,,,,,,,,,,,113,001,2010-10-15_13h21.06.018,eb_01,2022.2.4,119.95083077466099,
5,stimuli/5.png,s,1,0,1,0,43,0,43,0,0,0,0,0,,,,,,,,,,,,,,,,,,595.624794214149,595.624794214149,595.624794214149,595.624794214149,s,1,0.47913176540168934,596.1248153435881,596.1248153435881,596.1248153435881,,,,,,,,,,,,,,,,,,,,,,,,,,,,113,001,2010-10-15_13h21.06.018,eb_01,2022.2.4,119.95083077466099,
,,,1,0,1,0,43,0,43,0,,,,,,,,,,,,,,,,,,,,,,,,,,,,,,,,,,,,,,,,,,,,,,,,,,,,,,,,,,,113,001,2010-10-15_13h21.06.018,eb_01,2022.2.4,119.95083077466099,
9,stimuli/9.png,l,1,0,1,0,44,0,44,0,0,0,0,0,,,,,,,,,,,,,,,,,,597.1415725147817,597.1415725147817,597.1415725147817,597.1415725147817,l,1,0.4182994457660243,597.5916291115573,597.5916291115573,597.5916291115573,,,,,,,,,,,,,,,,,,,,,,,,,,,,113,001,2010-10-15_13h21.06.018,eb_01,2022.2.4,119.95083077466099,
,,,1,0,1,0,44,0,44,0,,,,,,,,,,,,,,,,,,,,,,,,,,,,,,,,,,,,,,,,,,,,,,,,,,,,,,,,,,,113,001,2010-10-15_13h21.06.018,eb_01,2022.2.4,119.95083077466099,
5,stimuli/5.png,s,1,0,1,0,45,0,45,0,0,0,0,0,,,,,,,,,,,,,,,,,,598.591699442477,598.591699442477,598.591699442477,598.591699442477,s,1,0.5362383574829437,599.1500728966203,599.1500728966203,599.1500728966203,,,,,,,,,,,,,,,,,,,,,,,,,,,,113,001,2010-10-15_13h21.06.018,eb_01,2022.2.4,119.95083077466099,
,,,1,0,1,0,45,0,45,0,,,,,,,,,,,,,,,,,,,,,,,,,,,,,,,,,,,,,,,,,,,,,,,,,,,,,,,,,,,113,001,2010-10-15_13h21.06.018,eb_01,2022.2.4,119.95083077466099,
6,stimuli/6.png,s,1,0,1,0,46,0,46,0,0,0,0,0,,,,,,,,,,,,,,,,,,600.1751798267942,600.1751798267942,600.1751798267942,600.1751798267942,s,1,0.5367620662145782,600.7418846270884,600.7418846270884,600.7418846270884,,,,,,,,,,,,,,,,,,,,,,,,,,,,113,001,2010-10-15_13h21.06.018,eb_01,2022.2.4,119.95083077466099,
,,,1,0,1,0,46,0,46,0,,,,,,,,,,,,,,,,,,,,,,,,,,,,,,,,,,,,,,,,,,,,,,,,,,,,,,,,,,,113,001,2010-10-15_13h21.06.018,eb_01,2022.2.4,119.95083077466099,
5,stimuli/5.png,s,1,0,1,0,47,0,47,0,0,0,0,0,,,,,,,,,,,,,,,,,,601.7419860484952,601.7419860484952,601.7419860484952,601.7419860484952,s,1,0.4180132925102953,602.1836687383475,602.1836687383475,602.1836687383475,,,,,,,,,,,,,,,,,,,,,,,,,,,,113,001,2010-10-15_13h21.06.018,eb_01,2022.2.4,119.95083077466099,
,,,1,0,1,0,47,0,47,0,,,,,,,,,,,,,,,,,,,,,,,,,,,,,,,,,,,,,,,,,,,,,,,,,,,,,,,,,,,113,001,2010-10-15_13h21.06.018,eb_01,2022.2.4,119.95083077466099,
6,stimuli/6.png,s,1,0,1,0,48,0,48,0,0,0,0,0,,,,,,,,,,,,,,,,,,603.2087720463169,603.2087720463169,603.2087720463169,603.2087720463169,s,1,0.39127486615325324,603.625487562269,603.625487562269,603.625487562269,,,,,,,,,,,,,,,,,,,,,,,,,,,,113,001,2010-10-15_13h21.06.018,eb_01,2022.2.4,119.95083077466099,
,,,1,0,1,0,48,0,48,0,,,,,,,,,,,,,,,,,,,,,,,,,,,,,,,,,,,,,,,,,,,,,,,,,,,,,,,,,,,113,001,2010-10-15_13h21.06.018,eb_01,2022.2.4,119.95083077466099,
8,stimuli/8.png,l,1,0,1,0,49,0,49,0,0,0,0,0,,,,,,,,,,,,,,,,,,604.6255639301962,604.6255639301962,604.6255639301962,604.6255639301962,l,1,0.4934973835479468,605.1422574111493,605.1422574111493,605.1422574111493,,,,,,,,,,,,,,,,,,,,,,,,,,,,113,001,2010-10-15_13h21.06.018,eb_01,2022.2.4,119.95083077466099,
,,,1,0,1,0,49,0,49,0,,,,,,,,,,,,,,,,,,,,,,,,,,,,,,,,,,,,,,,,,,,,,,,,,,,,,,,,,,,113,001,2010-10-15_13h21.06.018,eb_01,2022.2.4,119.95083077466099,
6,stimuli/6.png,s,1,0,1,0,50,0,50,0,0,0,0,0,,,,,,,,,,,,,,,,,,606.1673414007528,606.1673414007528,606.1673414007528,606.1673414007528,s,1,0.7677731712756213,606.9674117316608,606.9674117316608,606.9674117316608,,,,,,,,,,,,,,,,,,,,,,,,,,,,113,001,2010-10-15_13h21.06.018,eb_01,2022.2.4,119.95083077466099,
,,,1,0,1,0,50,0,50,0,,,,,,,,,,,,,,,,,,,,,,,,,,,,,,,,,,,,,,,,,,,,,,,,,,,,,,,,,,,113,001,2010-10-15_13h21.06.018,eb_01,2022.2.4,119.95083077466099,
8,stimuli/8.png,l,1,0,1,0,51,0,51,0,0,0,0,0,,,,,,,,,,,,,,,,,,607.9675197937759,607.9675197937759,607.9675197937759,607.9675197937759,l,1,0.5035945488780271,608.49257088179,608.49257088179,608.49257088179,,,,,,,,,,,,,,,,,,,,,,,,,,,,113,001,2010-10-15_13h21.06.018,eb_01,2022.2.4,119.95083077466099,
,,,1,0,1,0,51,0,51,0,,,,,,,,,,,,,,,,,,,,,,,,,,,,,,,,,,,,,,,,,,,,,,,,,,,,,,,,,,,113,001,2010-10-15_13h21.06.018,eb_01,2022.2.4,119.95083077466099,
6,stimuli/6.png,s,1,0,1,0,52,0,52,0,0,0,0,0,,,,,,,,,,,,,,,,,,609.5176452122105,609.5176452122105,609.5176452122105,609.5176452122105,s,1,0.569481639075093,610.1177306355967,610.1177306355967,610.1177306355967,,,,,,,,,,,,,,,,,,,,,,,,,,,,113,001,2010-10-15_13h21.06.018,eb_01,2022.2.4,119.95083077466099,
,,,1,0,1,0,52,0,52,0,,,,,,,,,,,,,,,,,,,,,,,,,,,,,,,,,,,,,,,,,,,,,,,,,,,,,,,,,,,113,001,2010-10-15_13h21.06.018,eb_01,2022.2.4,119.95083077466099,
8,stimuli/8.png,l,1,0,1,0,53,0,53,0,0,0,0,0,,,,,,,,,,,,,,,,,,611.117785270355,611.117785270355,611.117785270355,611.117785270355,l,1,0.5453961673774756,611.6844846373715,611.6844846373715,611.6844846373715,,,,,,,,,,,,,,,,,,,,,,,,,,,,113,001,2010-10-15_13h21.06.018,eb_01,2022.2.4,119.95083077466099,
,,,1,0,1,0,53,0,53,0,,,,,,,,,,,,,,,,,,,,,,,,,,,,,,,,,,,,,,,,,,,,,,,,,,,,,,,,,,,113,001,2010-10-15_13h21.06.018,eb_01,2022.2.4,119.95083077466099,
3,stimuli/3.png,l,1,0,1,0,54,0,54,0,0,0,0,0,,,,,,,,,,,,,,,,,,612.6929186123307,612.6929186123307,612.6929186123307,612.6929186123307,l,1,0.49030140176182613,613.1929451750766,613.1929451750766,613.1929451750766,614.2097068740113,614.2097068740113,614.2097068740113,,,,,,,,,,,,,,,,,,,,,,,,,113,001,2010-10-15_13h21.06.018,eb_01,2022.2.4,119.95083077466099,
,,,1,0,1,0,54,0,54,0,,,,,,,,,,,,,,,,,,,,,,,,,,,,,,,,,,,,,,,,,,,,,,,,,,,,,,,,,,,113,001,2010-10-15_13h21.06.018,eb_01,2022.2.4,119.95083077466099,
4,stimuli/4.png,l,1,0,1,0,55,0,55,0,0,0,0,0,,,,,,,,,,,,,,,,,,614.2097068740113,614.2097068740113,614.2097068740113,614.2097068740113,l,1,0.5415611703647301,614.768098740984,614.768098740984,614.768098740984,,,,,,,,,,,,,,,,,,,,,,,,,,,,113,001,2010-10-15_13h21.06.018,eb_01,2022.2.4,119.95083077466099,
,,,1,0,1,0,55,0,55,0,,,,,,,,,,,,,,,,,,,,,,,,,,,,,,,,,,,,,,,,,,,,,,,,,,,,,,,,,,,113,001,2010-10-15_13h21.06.018,eb_01,2022.2.4,119.95083077466099,
2,stimuli/2.png,s,1,0,1,0,56,0,56,0,0,0,0,0,,,,,,,,,,,,,,,,,,615.7765176234825,615.7765176234825,615.7765176234825,615.7765176234825,s,1,0.6627700169337913,616.4515745975368,616.4515745975368,616.4515745975368,617.4599771801732,617.4599771801732,617.4599771801732,,,,,,,,,,,,,,,,,,,,,,,,,113,001,2010-10-15_13h21.06.018,eb_01,2022.2.4,119.95083077466099,
,,,1,0,1,0,56,0,56,0,,,,,,,,,,,,,,,,,,,,,,,,,,,,,,,,,,,,,,,,,,,,,,,,,,,,,,,,,,,113,001,2010-10-15_13h21.06.018,eb_01,2022.2.4,119.95083077466099,
3,stimuli/3.png,l,1,0,1,0,57,0,57,0,0,0,0,0,,,,,,,,,,,,,,,,,,617.4599771801732,617.4599771801732,617.4599771801732,617.4599771801732,l,1,0.4673886150994804,617.9433781780826,617.9433781780826,617.9433781780826,618.9517849865952,618.9517849865952,618.9517849865952,,,,,,,,,,,,,,,,,,,,,,,,,113,001,2010-10-15_13h21.06.018,eb_01,2022.2.4,119.95083077466099,
,,,1,0,1,0,57,0,57,0,,,,,,,,,,,,,,,,,,,,,,,,,,,,,,,,,,,,,,,,,,,,,,,,,,,,,,,,,,,113,001,2010-10-15_13h21.06.018,eb_01,2022.2.4,119.95083077466099,
2,stimuli/2.png,s,1,0,1,0,58,0,58,0,0,0,0,0,,,,,,,,,,,,,,,,,,618.9517849865952,618.9517849865952,618.9517849865952,618.9517849865952,s,1,0.5026440249930602,619.4685204246198,619.4685204246198,619.4685204246198,620.4769199887523,620.4769199887523,620.4769199887523,,,,,,,,,,,,,,,,,,,,,,,,,113,001,2010-10-15_13h21.06.018,eb_01,2022.2.4,119.95083077466099,
,,,1,0,1,0,58,0,58,0,,,,,,,,,,,,,,,,,,,,,,,,,,,,,,,,,,,,,,,,,,,,,,,,,,,,,,,,,,,113,001,2010-10-15_13h21.06.018,eb_01,2022.2.4,119.95083077466099,
3,stimuli/3.png,l,1,0,1,0,59,0,59,0,0,0,0,0,,,,,,,,,,,,,,,,,,620.4769199887523,620.4769199887523,620.4769199887523,620.4769199887523,l,1,0.4094416742154863,620.9019737934286,620.9019737934286,620.9019737934286,621.918707420351,621.918707420351,621.918707420351,,,,,,,,,,,,,,,,,,,,,,,,,113,001,2010-10-15_13h21.06.018,eb_01,2022.2.4,119.95083077466099,
,,,1,0,1,0,59,0,59,0,,,,,,,,,,,,,,,,,,,,,,,,,,,,,,,,,,,,,,,,,,,,,,,,,,,,,,,,,,,113,001,2010-10-15_13h21.06.018,eb_01,2022.2.4,119.95083077466099,
4,stimuli/4.png,l,1,0,1,0,60,0,60,0,0,0,0,0,,,,,,,,,,,,,,,,,,621.918707420351,621.918707420351,621.918707420351,621.918707420351,l,1,0.5517165926285088,622.493742057588,622.493742057588,622.493742057588,,,,,,,,,,,,,,,,,,,,,,,,,,,,113,001,2010-10-15_13h21.06.018,eb_01,2022.2.4,119.95083077466099,
,,,1,0,1,0,60,0,60,0,,,,,,,,,,,,,,,,,,,,,,,,,,,,,,,,,,,,,,,,,,,,,,,,,,,,,,,,,,,113,001,2010-10-15_13h21.06.018,eb_01,2022.2.4,119.95083077466099,
3,stimuli/3.png,l,1,0,1,0,61,0,61,0,0,0,0,0,,,,,,,,,,,,,,,,,,623.5021817676898,623.5021817676898,623.5021817676898,623.5021817676898,l,1,0.44025446416344494,623.9522163294314,623.9522163294314,623.9522163294314,624.9689668599458,624.9689668599458,624.9689668599458,,,,,,,,,,,,,,,,,,,,,,,,,113,001,2010-10-15_13h21.06.018,eb_01,2022.2.4,119.95083077466099,
,,,1,0,1,0,61,0,61,0,,,,,,,,,,,,,,,,,,,,,,,,,,,,,,,,,,,,,,,,,,,,,,,,,,,,,,,,,,,113,001,2010-10-15_13h21.06.018,eb_01,2022.2.4,119.95083077466099,
4,stimuli/4.png,l,1,0,1,0,62,0,62,0,0,0,0,0,,,,,,,,,,,,,,,,,,624.9689668599458,624.9689668599458,624.9689668599458,624.9689668599458,l,1,0.3015142025833484,625.2939775001432,625.2939775001432,625.2939775001432,,,,,,,,,,,,,,,,,,,,,,,,,,,,113,001,2010-10-15_13h21.06.018,eb_01,2022.2.4,119.95083077466099,
,,,1,0,1,0,62,0,62,0,,,,,,,,,,,,,,,,,,,,,,,,,,,,,,,,,,,,,,,,,,,,,,,,,,,,,,,,,,,113,001,2010-10-15_13h21.06.018,eb_01,2022.2.4,119.95083077466099,
2,stimuli/2.png,s,1,0,1,0,63,0,63,0,0,0,0,0,,,,,,,,,,,,,,,,,,626.3023981937149,626.3023981937149,626.3023981937149,626.3023981937149,l,0,0.24808292917441577,626.5691099365649,626.5691099365649,626.5691099365649,,,,,,,,,,,,,,,,,,,,,,,,,,,,113,001,2010-10-15_13h21.06.018,eb_01,2022.2.4,119.95083077466099,
,,,1,0,1,0,63,0,63,0,,,,,,,,,,,,,,,,,,,,,,,,,,,,,,,,,,,,,,,,,,,,,,,,,,,,,,,,,,,113,001,2010-10-15_13h21.06.018,eb_01,2022.2.4,119.95083077466099,
1,stimuli/1.png,s,1,0,1,0,64,0,64,0,0,0,0,0,,,,,,,,,,,,,,,,,,627.5941909076937,627.5941909076937,627.5941909076937,627.5941909076937,s,1,1.0443442220857833,628.6692886314413,628.6692886314413,628.6692886314413,,,,,,,,,,,,,,,,,,,,,,,,,,,,113,001,2010-10-15_13h21.06.018,eb_01,2022.2.4,119.95083077466099,
,,,1,0,1,0,64,0,64,0,,,,,,,,,,,,,,,,,,,,,,,,,,,,,,,,,,,,,,,,,,,,,,,,,,,,,,,,,,,113,001,2010-10-15_13h21.06.018,eb_01,2022.2.4,119.95083077466099,
4,stimuli/4.png,l,1,0,1,0,65,0,65,0,0,0,0,0,,,,,,,,,,,,,,,,,,629.6777011750964,629.6777011750964,629.6777011750964,629.6777011750964,l,1,0.47286416380666196,630.1694311043539,630.1694311043539,630.1694311043539,,,,,,,,,,,,,,,,,,,,,,,,,,,,113,001,2010-10-15_13h21.06.018,eb_01,2022.2.4,119.95083077466099,
,,,1,0,1,0,65,0,65,0,,,,,,,,,,,,,,,,,,,,,,,,,,,,,,,,,,,,,,,,,,,,,,,,,,,,,,,,,,,113,001,2010-10-15_13h21.06.018,eb_01,2022.2.4,119.95083077466099,
1,stimuli/1.png,s,1,0,1,0,66,0,66,0,0,0,0,0,,,,,,,,,,,,,,,,,,631.1945009070332,631.1945009070332,631.1945009070332,631.1945009070332,s,1,0.5721047106198967,631.7945721435244,631.7945721435244,631.7945721435244,,,,,,,,,,,,,,,,,,,,,,,,,,,,113,001,2010-10-15_13h21.06.018,eb_01,2022.2.4,119.95083077466099,
,,,1,0,1,0,66,0,66,0,,,,,,,,,,,,,,,,,,,,,,,,,,,,,,,,,,,,,,,,,,,,,,,,,,,,,,,,,,,113,001,2010-10-15_13h21.06.018,eb_01,2022.2.4,119.95083077466099,
4,stimuli/4.png,l,1,0,1,0,67,0,67,0,0,0,0,0,,,,,,,,,,,,,,,,,,632.8029747261317,632.8029747261317,632.8029747261317,632.8029747261317,l,1,0.4356316401390359,633.26132705083,633.26132705083,633.26132705083,,,,,,,,,,,,,,,,,,,,,,,,,,,,113,001,2010-10-15_13h21.06.018,eb_01,2022.2.4,119.95083077466099,
,,,1,0,1,0,67,0,67,0,,,,,,,,,,,,,,,,,,,,,,,,,,,,,,,,,,,,,,,,,,,,,,,,,,,,,,,,,,,113,001,2010-10-15_13h21.06.018,eb_01,2022.2.4,119.95083077466099,
2,stimuli/2.png,s,1,0,1,0,68,0,68,0,0,0,0,0,,,,,,,,,,,,,,,,,,634.2697794386186,634.2697794386186,634.2697794386186,634.2697794386186,s,1,0.679892124113394,634.9614746551961,634.9614746551961,634.9614746551961,635.9698935376946,635.9698935376946,635.9698935376946,,,,,,,,,,,,,,,,,,,,,,,,,113,001,2010-10-15_13h21.06.018,eb_01,2022.2.4,119.95083077466099,
,,,1,0,1,0,68,0,68,0,,,,,,,,,,,,,,,,,,,,,,,,,,,,,,,,,,,,,,,,,,,,,,,,,,,,,,,,,,,113,001,2010-10-15_13h21.06.018,eb_01,2022.2.4,119.95083077466099,
3,stimuli/3.png,l,1,0,1,0,69,0,69,0,0,0,0,0,,,,,,,,,,,,,,,,,,635.9698935376946,635.9698935376946,635.9698935376946,635.9698935376946,l,1,0.46779128225171007,636.4532845745853,636.4532845745853,636.4532845745853,637.4700348032347,637.4700348032347,637.4700348032347,,,,,,,,,,,,,,,,,,,,,,,,,113,001,2010-10-15_13h21.06.018,eb_01,2022.2.4,119.95083077466099,
,,,1,0,1,0,69,0,69,0,,,,,,,,,,,,,,,,,,,,,,,,,,,,,,,,,,,,,,,,,,,,,,,,,,,,,,,,,,,113,001,2010-10-15_13h21.06.018,eb_01,2022.2.4,119.95083077466099,
4,stimuli/4.png,l,1,0,1,0,70,0,70,0,0,0,0,0,,,,,,,,,,,,,,,,,,637.4700348032347,637.4700348032347,637.4700348032347,637.4700348032347,l,1,0.45568530895980075,637.9450603849546,637.9450603849546,637.9450603849546,,,,,,,,,,,,,,,,,,,,,,,,,,,,113,001,2010-10-15_13h21.06.018,eb_01,2022.2.4,119.95083077466099,
,,,1,0,1,0,70,0,70,0,,,,,,,,,,,,,,,,,,,,,,,,,,,,,,,,,,,,,,,,,,,,,,,,,,,,,,,,,,,113,001,2010-10-15_13h21.06.018,eb_01,2022.2.4,119.95083077466099,
2,stimuli/2.png,s,1,0,1,0,71,0,71,0,0,0,0,0,,,,,,,,,,,,,,,,,,638.9534970765817,638.9534970765817,638.9534970765817,638.9534970765817,s,1,0.5802531360241119,639.5452164411254,639.5452164411254,639.5452164411254,640.5536573586287,640.5536573586287,640.5536573586287,,,,,,,,,,,,,,,,,,,,,,,,,113,001,2010-10-15_13h21.06.018,eb_01,2022.2.4,119.95083077466099,
,,,1,0,1,0,71,0,71,0,,,,,,,,,,,,,,,,,,,,,,,,,,,,,,,,,,,,,,,,,,,,,,,,,,,,,,,,,,,113,001,2010-10-15_13h21.06.018,eb_01,2022.2.4,119.95083077466099,
3,stimuli/3.png,l,1,0,1,0,72,0,72,0,0,0,0,0,,,,,,,,,,,,,,,,,,640.5536573586287,640.5536573586287,640.5536573586287,640.5536573586287,l,1,0.5081256106786896,641.0786652821698,641.0786652821698,641.0786652821698,,,,,,,,,,,,,,,,,,,,,,,,,,,,113,001,2010-10-15_13h21.06.018,eb_01,2022.2.4,119.95083077466099,
,,,1,0,1,0,72,0,72,0,,,,,,,,,,,,,,,,,,,,,,,,,,,,,,,,,,,,,,,,,,,,,,,,,,,,,,,,,,,113,001,2010-10-15_13h21.06.018,eb_01,2022.2.4,119.95083077466099,
2,stimuli/2.png,s,1,0,1,0,73,0,73,0,0,0,0,0,,,,,,,,,,,,,,,,,,642.087099257129,642.087099257129,642.087099257129,642.087099257129,s,1,0.7267204412200954,642.8288166596612,642.8288166596612,642.8288166596612,643.8372799140343,643.8372799140343,643.8372799140343,,,,,,,,,,,,,,,,,,,,,,,,,113,001,2010-10-15_13h21.06.018,eb_01,2022.2.4,119.95083077466099,
,,,1,0,1,0,73,0,73,0,,,,,,,,,,,,,,,,,,,,,,,,,,,,,,,,,,,,,,,,,,,,,,,,,,,,,,,,,,,113,001,2010-10-15_13h21.06.018,eb_01,2022.2.4,119.95083077466099,
3,stimuli/3.png,l,1,0,1,0,74,0,74,0,0,0,0,0,,,,,,,,,,,,,,,,,,643.8372799140343,643.8372799140343,643.8372799140343,643.8372799140343,l,1,0.4965484775893856,644.3539583024976,644.3539583024976,644.3539583024976,,,,,,,,,,,,,,,,,,,,,,,,,,,,113,001,2010-10-15_13h21.06.018,eb_01,2022.2.4,119.95083077466099,
,,,1,0,1,0,74,0,74,0,,,,,,,,,,,,,,,,,,,,,,,,,,,,,,,,,,,,,,,,,,,,,,,,,,,,,,,,,,,113,001,2010-10-15_13h21.06.018,eb_01,2022.2.4,119.95083077466099,
2,stimuli/2.png,s,1,0,1,0,75,0,75,0,0,0,0,0,,,,,,,,,,,,,,,,,,645.362360583269,645.362360583269,645.362360583269,645.362360583269,s,1,0.739545721677132,646.112443742808,646.112443742808,646.112443742808,647.1208798307052,647.1208798307052,647.1208798307052,,,,,,,,,,,,,,,,,,,,,,,,,113,001,2010-10-15_13h21.06.018,eb_01,2022.2.4,119.95083077466099,
,,,1,0,1,0,75,0,75,0,,,,,,,,,,,,,,,,,,,,,,,,,,,,,,,,,,,,,,,,,,,,,,,,,,,,,,,,,,,113,001,2010-10-15_13h21.06.018,eb_01,2022.2.4,119.95083077466099,
3,stimuli/3.png,l,1,0,1,0,76,0,76,0,0,0,0,0,,,,,,,,,,,,,,,,,,647.1208798307052,647.1208798307052,647.1208798307052,647.1208798307052,l,1,0.48502296072547324,647.6209076008527,647.6209076008527,647.6209076008527,648.6293282944534,648.6293282944534,648.6293282944534,,,,,,,,,,,,,,,,,,,,,,,,,113,001,2010-10-15_13h21.06.018,eb_01,2022.2.4,119.95083077466099,
,,,1,0,1,0,76,0,76,0,,,,,,,,,,,,,,,,,,,,,,,,,,,,,,,,,,,,,,,,,,,,,,,,,,,,,,,,,,,113,001,2010-10-15_13h21.06.018,eb_01,2022.2.4,119.95083077466099,
8,stimuli/8.png,l,1,0,1,0,77,0,77,0,0,0,0,0,,,,,,,,,,,,,,,,,,648.6293282944534,648.6293282944534,648.6293282944534,648.6293282944534,l,1,0.5926030036644079,649.2460450178187,649.2460450178187,649.2460450178187,,,,,,,,,,,,,,,,,,,,,,,,,,,,113,001,2010-10-15_13h21.06.018,eb_01,2022.2.4,119.95083077466099,
,,,1,0,1,0,77,0,77,0,,,,,,,,,,,,,,,,,,,,,,,,,,,,,,,,,,,,,,,,,,,,,,,,,,,,,,,,,,,113,001,2010-10-15_13h21.06.018,eb_01,2022.2.4,119.95083077466099,
6,stimuli/6.png,s,1,0,1,0,78,0,78,0,0,0,0,0,,,,,,,,,,,,,,,,,,650.2711296111229,650.2711296111229,650.2711296111229,650.2711296111229,s,1,0.6139090457872953,650.9128790096729,650.9128790096729,650.9128790096729,,,,,,,,,,,,,,,,,,,,,,,,,,,,113,001,2010-10-15_13h21.06.018,eb_01,2022.2.4,119.95083077466099,
,,,1,0,1,0,78,0,78,0,,,,,,,,,,,,,,,,,,,,,,,,,,,,,,,,,,,,,,,,,,,,,,,,,,,,,,,,,,,113,001,2010-10-15_13h21.06.018,eb_01,2022.2.4,119.95083077466099,
5,stimuli/5.png,s,1,0,1,0,79,0,79,0,0,0,0,0,,,,,,,,,,,,,,,,,,651.9129457184172,651.9129457184172,651.9129457184172,651.9129457184172,s,1,0.6200694908329751,652.5546655357175,652.5546655357175,652.5546655357175,,,,,,,,,,,,,,,,,,,,,,,,,,,,113,001,2010-10-15_13h21.06.018,eb_01,2022.2.4,119.95083077466099,
,,,1,0,1,0,79,0,79,0,,,,,,,,,,,,,,,,,,,,,,,,,,,,,,,,,,,,,,,,,,,,,,,,,,,,,,,,,,,113,001,2010-10-15_13h21.06.018,eb_01,2022.2.4,119.95083077466099,
6,stimuli/6.png,s,1,0,1,0,80,0,80,0,0,0,0,0,,,,,,,,,,,,,,,,,,653.5797938971955,653.5797938971955,653.5797938971955,653.5797938971955,s,1,0.6252631121315062,654.2381676532095,654.2381676532095,654.2381676532095,,,,,,,,,,,,,,,,,,,,,,,,,,,,113,001,2010-10-15_13h21.06.018,eb_01,2022.2.4,119.95083077466099,
,,,1,0,1,0,80,0,80,0,,,,,,,,,,,,,,,,,,,,,,,,,,,,,,,,,,,,,,,,,,,,,,,,,,,,,,,,,,,113,001,2010-10-15_13h21.06.018,eb_01,2022.2.4,119.95083077466099,
8,stimuli/8.png,l,1,0,1,0,81,0,81,0,0,0,0,0,,,,,,,,,,,,,,,,,,655.2382250046066,655.2382250046066,655.2382250046066,655.2382250046066,l,1,0.5428533877711743,655.8049572732125,655.8049572732125,655.8049572732125,,,,,,,,,,,,,,,,,,,,,,,,,,,,113,001,2010-10-15_13h21.06.018,eb_01,2022.2.4,119.95083077466099,
,,,1,0,1,0,81,0,81,0,,,,,,,,,,,,,,,,,,,,,,,,,,,,,,,,,,,,,,,,,,,,,,,,,,,,,,,,,,,113,001,2010-10-15_13h21.06.018,eb_01,2022.2.4,119.95083077466099,
6,stimuli/6.png,s,1,0,1,0,82,0,82,0,0,0,0,0,,,,,,,,,,,,,,,,,,656.8300358295091,656.8300358295091,656.8300358295091,656.8300358295091,s,1,0.9990550352667924,657.8551047266519,657.8551047266519,657.8551047266519,,,,,,,,,,,,,,,,,,,,,,,,,,,,113,001,2010-10-15_13h21.06.018,eb_01,2022.2.4,119.95083077466099,
,,,1,0,1,0,82,0,82,0,,,,,,,,,,,,,,,,,,,,,,,,,,,,,,,,,,,,,,,,,,,,,,,,,,,,,,,,,,,113,001,2010-10-15_13h21.06.018,eb_01,2022.2.4,119.95083077466099,
8,stimuli/8.png,l,1,0,1,0,83,0,83,0,0,0,0,0,,,,,,,,,,,,,,,,,,658.8552118832013,658.8552118832013,658.8552118832013,658.8552118832013,l,1,0.4379359586746432,659.3135753763199,659.3135753763199,659.3135753763199,,,,,,,,,,,,,,,,,,,,,,,,,,,,113,001,2010-10-15_13h21.06.018,eb_01,2022.2.4,119.95083077466099,
,,,1,0,1,0,83,0,83,0,,,,,,,,,,,,,,,,,,,,,,,,,,,,,,,,,,,,,,,,,,,,,,,,,,,,,,,,,,,113,001,2010-10-15_13h21.06.018,eb_01,2022.2.4,119.95083077466099,
3,stimuli/3.png,l,1,0,1,0,84,0,84,0,0,0,0,0,,,,,,,,,,,,,,,,,,660.3219894292124,660.3219894292124,660.3219894292124,660.3219894292124,l,1,0.5231743140902836,660.8553890688054,660.8553890688054,660.8553890688054,661.8637904440402,661.8637904440402,661.8637904440402,,,,,,,,,,,,,,,,,,,,,,,,,113,001,2010-10-15_13h21.06.018,eb_01,2022.2.4,119.95083077466099,
,,,1,0,1,0,84,0,84,0,,,,,,,,,,,,,,,,,,,,,,,,,,,,,,,,,,,,,,,,,,,,,,,,,,,,,,,,,,,113,001,2010-10-15_13h21.06.018,eb_01,2022.2.4,119.95083077466099,
8,stimuli/8.png,l,1,0,1,0,85,0,85,0,0,0,0,0,,,,,,,,,,,,,,,,,,661.8637904440402,661.8637904440402,661.8637904440402,661.8637904440402,l,1,0.4694366634939797,662.355479019956,662.355479019956,662.355479019956,,,,,,,,,,,,,,,,,,,,,,,,,,,,113,001,2010-10-15_13h21.06.018,eb_01,2022.2.4,119.95083077466099,
,,,1,0,1,0,85,0,85,0,,,,,,,,,,,,,,,,,,,,,,,,,,,,,,,,,,,,,,,,,,,,,,,,,,,,,,,,,,,113,001,2010-10-15_13h21.06.018,eb_01,2022.2.4,119.95083077466099,
9,stimuli/9.png,l,1,0,1,0,86,0,86,0,0,0,0,0,,,,,,,,,,,,,,,,,,663.3722497743438,663.3722497743438,663.3722497743438,663.3722497743438,l,1,0.5929833339469042,663.9973277269746,663.9973277269746,663.9973277269746,,,,,,,,,,,,,,,,,,,,,,,,,,,,113,001,2010-10-15_13h21.06.018,eb_01,2022.2.4,119.95083077466099,
,,,1,0,1,0,86,0,86,0,,,,,,,,,,,,,,,,,,,,,,,,,,,,,,,,,,,,,,,,,,,,,,,,,,,,,,,,,,,113,001,2010-10-15_13h21.06.018,eb_01,2022.2.4,119.95083077466099,
8,stimuli/8.png,l,1,0,1,0,87,0,87,0,0,0,0,0,,,,,,,,,,,,,,,,,,664.9973890024121,664.9973890024121,664.9973890024121,664.9973890024121,l,1,0.39895482125575654,665.4140939536446,665.4140939536446,665.4140939536446,,,,,,,,,,,,,,,,,,,,,,,,,,,,113,001,2010-10-15_13h21.06.018,eb_01,2022.2.4,119.95083077466099,
,,,1,0,1,0,87,0,87,0,,,,,,,,,,,,,,,,,,,,,,,,,,,,,,,,,,,,,,,,,,,,,,,,,,,,,,,,,,,113,001,2010-10-15_13h21.06.018,eb_01,2022.2.4,119.95083077466099,
6,stimuli/6.png,s,1,0,1,0,88,0,88,0,0,0,0,0,,,,,,,,,,,,,,,,,,666.4392008838186,666.4392008838186,666.4392008838186,666.4392008838186,s,1,0.5651048223080579,667.0308791968273,667.0308791968273,667.0308791968273,,,,,,,,,,,,,,,,,,,,,,,,,,,,113,001,2010-10-15_13h21.06.018,eb_01,2022.2.4,119.95083077466099,
,,,1,0,1,0,88,0,88,0,,,,,,,,,,,,,,,,,,,,,,,,,,,,,,,,,,,,,,,,,,,,,,,,,,,,,,,,,,,113,001,2010-10-15_13h21.06.018,eb_01,2022.2.4,119.95083077466099,
5,stimuli/5.png,s,1,0,1,0,89,0,89,0,0,0,0,0,,,,,,,,,,,,,,,,,,668.0309670350107,668.0309670350107,668.0309670350107,668.0309670350107,s,1,1.613419747853186,669.6644889236195,669.6644889236195,669.6644889236195,,,,,,,,,,,,,,,,,,,,,,,,,,,,113,001,2010-10-15_13h21.06.018,eb_01,2022.2.4,119.95083077466099,
,,,1,0,1,0,89,0,89,0,,,,,,,,,,,,,,,,,,,,,,,,,,,,,,,,,,,,,,,,,,,,,,,,,,,,,,,,,,,113,001,2010-10-15_13h21.06.018,eb_01,2022.2.4,119.95083077466099,
9,stimuli/9.png,l,1,0,1,0,90,0,90,0,0,0,0,0,,,,,,,,,,,,,,,,,,670.6812116839865,670.6812116839865,670.6812116839865,670.6812116839865,l,1,0.45120224117999896,671.1645725359267,671.1645725359267,671.1645725359267,,,,,,,,,,,,,,,,,,,,,,,,,,,,113,001,2010-10-15_13h21.06.018,eb_01,2022.2.4,119.95083077466099,
,,,1,0,1,0,90,0,90,0,,,,,,,,,,,,,,,,,,,,,,,,,,,,,,,,,,,,,,,,,,,,,,,,,,,,,,,,,,,113,001,2010-10-15_13h21.06.018,eb_01,2022.2.4,119.95083077466099,
8,stimuli/8.png,l,1,0,1,0,91,0,91,0,0,0,0,0,,,,,,,,,,,,,,,,,,672.1646519223286,672.1646519223286,672.1646519223286,672.1646519223286,l,1,0.5037527179520112,672.689699991839,672.689699991839,672.689699991839,,,,,,,,,,,,,,,,,,,,,,,,,,,,113,001,2010-10-15_13h21.06.018,eb_01,2022.2.4,119.95083077466099,
,,,1,0,1,0,91,0,91,0,,,,,,,,,,,,,,,,,,,,,,,,,,,,,,,,,,,,,,,,,,,,,,,,,,,,,,,,,,,113,001,2010-10-15_13h21.06.018,eb_01,2022.2.4,119.95083077466099,
6,stimuli/6.png,s,1,0,1,0,92,0,92,0,0,0,0,0,,,,,,,,,,,,,,,,,,673.7148165811959,673.7148165811959,673.7148165811959,673.7148165811959,s,1,0.9296689064358361,674.6731987889798,674.6731987889798,674.6731987889798,,,,,,,,,,,,,,,,,,,,,,,,,,,,113,001,2010-10-15_13h21.06.018,eb_01,2022.2.4,119.95083077466099,
,,,1,0,1,0,92,0,92,0,,,,,,,,,,,,,,,,,,,,,,,,,,,,,,,,,,,,,,,,,,,,,,,,,,,,,,,,,,,113,001,2010-10-15_13h21.06.018,eb_01,2022.2.4,119.95083077466099,
5,stimuli/5.png,s,1,0,1,0,93,0,93,0,0,0,0,0,,,,,,,,,,,,,,,,,,675.6732875326998,675.6732875326998,675.6732875326998,675.6732875326998,s,1,0.5072260993474629,676.1983443558565,676.1983443558565,676.1983443558565,,,,,,,,,,,,,,,,,,,,,,,,,,,,113,001,2010-10-15_13h21.06.018,eb_01,2022.2.4,119.95083077466099,
,,,1,0,1,0,93,0,93,0,,,,,,,,,,,,,,,,,,,,,,,,,,,,,,,,,,,,,,,,,,,,,,,,,,,,,,,,,,,113,001,2010-10-15_13h21.06.018,eb_01,2022.2.4,119.95083077466099,
6,stimuli/6.png,s,1,0,1,0,94,0,94,0,0,0,0,0,,,,,,,,,,,,,,,,,,677.2234364954056,677.2234364954056,677.2234364954056,677.2234364954056,s,1,0.4691031198890414,677.7234872060944,677.7234872060944,677.7234872060944,,,,,,,,,,,,,,,,,,,,,,,,,,,,113,001,2010-10-15_13h21.06.018,eb_01,2022.2.4,119.95083077466099,
,,,1,0,1,0,94,0,94,0,,,,,,,,,,,,,,,,,,,,,,,,,,,,,,,,,,,,,,,,,,,,,,,,,,,,,,,,,,,113,001,2010-10-15_13h21.06.018,eb_01,2022.2.4,119.95083077466099,
8,stimuli/8.png,l,1,0,1,0,95,0,95,0,0,0,0,0,,,,,,,,,,,,,,,,,,678.7236016070237,678.7236016070237,678.7236016070237,678.7236016070237,l,1,0.4409864490153268,679.1819162005559,679.1819162005559,679.1819162005559,,,,,,,,,,,,,,,,,,,,,,,,,,,,113,001,2010-10-15_13h21.06.018,eb_01,2022.2.4,119.95083077466099,
,,,1,0,1,0,95,0,95,0,,,,,,,,,,,,,,,,,,,,,,,,,,,,,,,,,,,,,,,,,,,,,,,,,,,,,,,,,,,113,001,2010-10-15_13h21.06.018,eb_01,2022.2.4,119.95083077466099,
3,stimuli/3.png,l,1,0,1,0,96,0,96,0,0,0,0,0,,,,,,,,,,,,,,,,,,680.1903387052298,680.1903387052298,680.1903387052298,680.1903387052298,l,1,0.4622251787222922,680.6653805868409,680.6653805868409,680.6653805868409,681.673834182031,681.673834182031,681.673834182031,,,,,,,,,,,,,,,,,,,,,,,,,113,001,2010-10-15_13h21.06.018,eb_01,2022.2.4,119.95083077466099,
,,,1,0,1,0,96,0,96,0,,,,,,,,,,,,,,,,,,,,,,,,,,,,,,,,,,,,,,,,,,,,,,,,,,,,,,,,,,,113,001,2010-10-15_13h21.06.018,eb_01,2022.2.4,119.95083077466099,
2,stimuli/2.png,s,1,0,1,0,97,0,97,0,0,0,0,0,,,,,,,,,,,,,,,,,,681.673834182031,681.673834182031,681.673834182031,681.673834182031,l,0,0.4337837178900372,682.1321886196674,682.1321886196674,682.1321886196674,,,,,,,,,,,,,,,,,,,,,,,,,,,,113,001,2010-10-15_13h21.06.018,eb_01,2022.2.4,119.95083077466099,
,,,1,0,1,0,97,0,97,0,,,,,,,,,,,,,,,,,,,,,,,,,,,,,,,,,,,,,,,,,,,,,,,,,,,,,,,,,,,113,001,2010-10-15_13h21.06.018,eb_01,2022.2.4,119.95083077466099,
1,stimuli/1.png,s,1,0,1,0,98,0,98,0,0,0,0,0,,,,,,,,,,,,,,,,,,683.1489231521555,683.1489231521555,683.1489231521555,683.1489231521555,s,1,0.5987151527951937,683.7739787678875,683.7739787678875,683.7739787678875,,,,,,,,,,,,,,,,,,,,,,,,,,,,113,001,2010-10-15_13h21.06.018,eb_01,2022.2.4,119.95083077466099,
,,,1,0,1,0,98,0,98,0,,,,,,,,,,,,,,,,,,,,,,,,,,,,,,,,,,,,,,,,,,,,,,,,,,,,,,,,,,,113,001,2010-10-15_13h21.06.018,eb_01,2022.2.4,119.95083077466099,
2,stimuli/2.png,s,1,0,1,0,99,0,99,0,0,0,0,0,,,,,,,,,,,,,,,,,,684.7740946780832,684.7740946780832,684.7740946780832,684.7740946780832,s,1,0.5335615567164496,685.3241277305933,685.3241277305933,685.3241277305933,686.32420289109,686.32420289109,686.32420289109,,,,,,,,,,,,,,,,,,,,,,,,,113,001,2010-10-15_13h21.06.018,eb_01,2022.2.4,119.95083077466099,
,,,1,0,1,0,99,0,99,0,,,,,,,,,,,,,,,,,,,,,,,,,,,,,,,,,,,,,,,,,,,,,,,,,,,,,,,,,,,113,001,2010-10-15_13h21.06.018,eb_01,2022.2.4,119.95083077466099,
,,,1,0,1,0,,,,,,,,,,,,,,,,,,,,,,,,,,,,,,,,,,,,,,,686.32420289109,686.32420289109,return,8.447664867708227,,,,,,,,,,,,,,,,,,,,,113,001,2010-10-15_13h21.06.018,eb_01,2022.2.4,119.95083077466099,
4,stimuli/4.png,l,2,0,2,0,0,0,0,0,0,0,0,0,,,,,,,,,,,,,,,,,,694.7999468744965,694.7999468744965,694.7999468744965,694.7999468744965,l,1,1.0519402630452532,695.8750379575649,695.8750379575649,695.8750379575649,,,,,,,,,,,,,,,,,,,,,,,,,,,,113,001,2010-10-15_13h21.06.018,eb_01,2022.2.4,119.95083077466099,
,,,2,0,2,0,0,0,0,0,,,,,,,,,,,,,,,,,,,,,,,,,,,,,,,,,,,,,,,,,,,,,,,,,,,,,,,,,,,113,001,2010-10-15_13h21.06.018,eb_01,2022.2.4,119.95083077466099,
2,stimuli/2.png,s,2,0,2,0,1,0,1,0,0,0,0,0,,,,,,,,,,,,,,,,,,696.8834311828541,696.8834311828541,696.8834311828541,696.8834311828541,s,1,0.5275318124622572,697.425188731344,697.425188731344,697.425188731344,698.4335813529324,698.4335813529324,698.4335813529324,,,,,,,,,,,,,,,,,,,,,,,,,113,001,2010-10-15_13h21.06.018,eb_01,2022.2.4,119.95083077466099,
,,,2,0,2,0,1,0,1,0,,,,,,,,,,,,,,,,,,,,,,,,,,,,,,,,,,,,,,,,,,,,,,,,,,,,,,,,,,,113,001,2010-10-15_13h21.06.018,eb_01,2022.2.4,119.95083077466099,
3,stimuli/3.png,l,2,0,2,0,2,0,2,0,0,0,0,0,,,,,,,,,,,,,,,,,,698.4335813529324,698.4335813529324,698.4335813529324,698.4335813529324,l,1,0.6893692906887736,699.1336254229536,699.1336254229536,699.1336254229536,700.1421007512836,700.1421007512836,700.1421007512836,,,,,,,,,,,,,,,,,,,,,,,,,113,001,2010-10-15_13h21.06.018,eb_01,2022.2.4,119.95083077466099,
,,,2,0,2,0,2,0,2,0,,,,,,,,,,,,,,,,,,,,,,,,,,,,,,,,,,,,,,,,,,,,,,,,,,,,,,,,,,,113,001,2010-10-15_13h21.06.018,eb_01,2022.2.4,119.95083077466099,
2,stimuli/2.png,s,2,0,2,0,3,0,3,0,0,0,0,0,,,,,,,,,,,,,,,,,,700.1421007512836,700.1421007512836,700.1421007512836,700.1421007512836,s,1,0.6369066521001514,700.7921386334056,700.7921386334056,700.7921386334056,701.8088635066815,701.8088635066815,701.8088635066815,,,,,,,,,,,,,,,,,,,,,,,,,113,001,2010-10-15_13h21.06.018,eb_01,2022.2.4,119.95083077466099,
,,,2,0,2,0,3,0,3,0,,,,,,,,,,,,,,,,,,,,,,,,,,,,,,,,,,,,,,,,,,,,,,,,,,,,,,,,,,,113,001,2010-10-15_13h21.06.018,eb_01,2022.2.4,119.95083077466099,
1,stimuli/1.png,s,2,0,2,0,4,0,4,0,0,0,0,0,,,,,,,,,,,,,,,,,,701.8088635066815,701.8088635066815,701.8088635066815,701.8088635066815,s,1,0.6261526624148246,702.4672568828973,702.4672568828973,702.4672568828973,,,,,,,,,,,,,,,,,,,,,,,,,,,,113,001,2010-10-15_13h21.06.018,eb_01,2022.2.4,119.95083077466099,
,,,2,0,2,0,4,0,4,0,,,,,,,,,,,,,,,,,,,,,,,,,,,,,,,,,,,,,,,,,,,,,,,,,,,,,,,,,,,113,001,2010-10-15_13h21.06.018,eb_01,2022.2.4,119.95083077466099,
4,stimuli/4.png,l,2,0,2,0,5,0,5,0,0,0,0,0,,,,,,,,,,,,,,,,,,703.4756772746623,703.4756772746623,703.4756772746623,703.4756772746623,l,1,0.4633598307555076,703.9590580486401,703.9590580486401,703.9590580486401,,,,,,,,,,,,,,,,,,,,,,,,,,,,113,001,2010-10-15_13h21.06.018,eb_01,2022.2.4,119.95083077466099,
,,,2,0,2,0,5,0,5,0,,,,,,,,,,,,,,,,,,,,,,,,,,,,,,,,,,,,,,,,,,,,,,,,,,,,,,,,,,,113,001,2010-10-15_13h21.06.018,eb_01,2022.2.4,119.95083077466099,
2,stimuli/2.png,s,2,0,2,0,6,0,6,0,0,0,0,0,,,,,,,,,,,,,,,,,,704.9674696867587,704.9674696867587,704.9674696867587,704.9674696867587,s,1,0.6356319419865031,705.6175311131228,705.6175311131228,705.6175311131228,706.625945769716,706.625945769716,706.625945769716,,,,,,,,,,,,,,,,,,,,,,,,,113,001,2010-10-15_13h21.06.018,eb_01,2022.2.4,119.95083077466099,
,,,2,0,2,0,6,0,6,0,,,,,,,,,,,,,,,,,,,,,,,,,,,,,,,,,,,,,,,,,,,,,,,,,,,,,,,,,,,113,001,2010-10-15_13h21.06.018,eb_01,2022.2.4,119.95083077466099,
3,stimuli/3.png,l,2,0,2,0,7,0,7,0,0,0,0,0,,,,,,,,,,,,,,,,,,706.625945769716,706.625945769716,706.625945769716,706.625945769716,l,1,0.47321219617151655,707.1093217141461,707.1093217141461,707.1093217141461,708.1177457280573,708.1177457280573,708.1177457280573,,,,,,,,,,,,,,,,,,,,,,,,,113,001,2010-10-15_13h21.06.018,eb_01,2022.2.4,119.95083077466099,
,,,2,0,2,0,7,0,7,0,,,,,,,,,,,,,,,,,,,,,,,,,,,,,,,,,,,,,,,,,,,,,,,,,,,,,,,,,,,113,001,2010-10-15_13h21.06.018,eb_01,2022.2.4,119.95083077466099,
8,stimuli/8.png,l,2,0,2,0,8,0,8,0,0,0,0,0,,,,,,,,,,,,,,,,,,708.1177457280573,708.1177457280573,708.1177457280573,708.1177457280573,l,1,0.5253769093833398,708.6677851194108,708.6677851194108,708.6677851194108,,,,,,,,,,,,,,,,,,,,,,,,,,,,113,001,2010-10-15_13h21.06.018,eb_01,2022.2.4,119.95083077466099,
,,,2,0,2,0,8,0,8,0,,,,,,,,,,,,,,,,,,,,,,,,,,,,,,,,,,,,,,,,,,,,,,,,,,,,,,,,,,,113,001,2010-10-15_13h21.06.018,eb_01,2022.2.4,119.95083077466099,
9,stimuli/9.png,l,2,0,2,0,9,0,9,0,0,0,0,0,,,,,,,,,,,,,,,,,,709.6845416869037,709.6845416869037,709.6845416869037,709.6845416869037,l,1,0.4946284133475274,710.2096108858823,710.2096108858823,710.2096108858823,,,,,,,,,,,,,,,,,,,,,,,,,,,,113,001,2010-10-15_13h21.06.018,eb_01,2022.2.4,119.95083077466099,
,,,2,0,2,0,9,0,9,0,,,,,,,,,,,,,,,,,,,,,,,,,,,,,,,,,,,,,,,,,,,,,,,,,,,,,,,,,,,113,001,2010-10-15_13h21.06.018,eb_01,2022.2.4,119.95083077466099,
6,stimuli/6.png,s,2,0,2,0,10,0,10,0,0,0,0,0,,,,,,,,,,,,,,,,,,711.2263324388477,711.2263324388477,711.2263324388477,711.2263324388477,s,1,0.6329231451672968,711.8847258150636,711.8847258150636,711.8847258150636,,,,,,,,,,,,,,,,,,,,,,,,,,,,113,001,2010-10-15_13h21.06.018,eb_01,2022.2.4,119.95083077466099,
,,,2,0,2,0,10,0,10,0,,,,,,,,,,,,,,,,,,,,,,,,,,,,,,,,,,,,,,,,,,,,,,,,,,,,,,,,,,,113,001,2010-10-15_13h21.06.018,eb_01,2022.2.4,119.95083077466099,
