index,stimulus,correct_answer,block.thisRepN,block.thisTrialN,block.thisN,block.thisIndex,trial.thisRepN,trial.thisTrialN,trial.thisN,trial.thisIndex,display_row.thisRepN,display_row.thisTrialN,display_row.thisN,display_row.thisIndex,pair_questions.thisRepN,pair_questions.thisTrialN,pair_questions.thisN,pair_questions.thisIndex,welcome_text.started,instructions_0_keypress.started,instructions_0_keypress.keys,instructions_0_keypress.rt,instructions_1_keypress.started,instructions_1_text.started,instructions_1_keypress.keys,instructions_1_keypress.rt,instructions_2_keypress.started,instructions_2_text.started,instructions_2_keypress.keys,instructions_2_keypress.rt,text_countdown.started,image.started,size_question.started,size_resp.started,keypress_options.started,size_resp.keys,size_resp.corr,size_resp.rt,fb_image.started,fb.started,fb_size_question.started,fb_image.stopped,fb.stopped,fb_size_question.stopped,block_break_text.started,block_break_keypress.started,block_break_keypress.keys,block_break_keypress.rt,seq_reveal.started,seq_reveal_adv.started,seq_reveal_adv.keys,seq_reveal_adv.rt,instruction_2afc_text.started,instruction_2afc_keypress.started,instruction_2afc_keypress.keys,instruction_2afc_keypress.rt,dist_2afc_test.started,dist_2afc_resp.started,text.started,stim_00.started,stim_01.started,stim_10.started,stim_11.started,dist_2afc_resp.keys,dist_2afc_resp.rt,graph.started,debrief_text.started,debriefing_title.started,participant,session,date,expName,psychopyVersion,frameRate,
,,,,,,,,,,,,,,,,,,,1099.1347449825262,1099.1347449825262,return,10.965487368841423,,,,,,,,,,,,,,,,,,,,,,,,,,,,,,,,,,,,,,,,,,,,,,,114,001,2010-10-15_14h19.54.522,eb_01,2022.2.4,119.98732365479623,
,,,,,,,,,,,,,,,,,,,,,,,1110.1104174275824,1110.1104174275824,return,37.72356470869272,,,,,,,,,,,,,,,,,,,,,,,,,,,,,,,,,,,,,,,,,,,114,001,2010-10-15_14h19.54.522,eb_01,2022.2.4,119.98732365479623,
,,,,,,,,,,,,,,,,,,,,,,,,,,,1147.8469421143527,1147.8469421143527,space,7.64318220509449,,,,,,,,,,,,,,,,,,,,,,,,,,,,,,,,,,,,,,,114,001,2010-10-15_14h19.54.522,eb_01,2022.2.4,119.98732365479623,
5,stimuli/5.png,s,0,0,0,0,0,0,0,0,0,0,0,0,,,,,,,,,,,,,,,,,1155.5142738559225,1160.531376946572,1160.531376946572,1160.531376946572,1160.531376946572,l,0,0.8699565515271388,1161.4230688428215,1161.4230688428215,1161.4230688428215,,,,,,,,,,,,,,,,,,,,,,,,,,,,114,001,2010-10-15_14h19.54.522,eb_01,2022.2.4,119.98732365479623,
,,,0,0,0,0,0,0,0,0,,,,,,,,,,,,,,,,,,,,,,,,,,,,,,,,,,,,,,,,,,,,,,,,,,,,,,,,,,,114,001,2010-10-15_14h19.54.522,eb_01,2022.2.4,119.98732365479623,
6,stimuli/6.png,s,0,0,0,0,1,0,1,0,0,0,0,0,,,,,,,,,,,,,,,,,,1162.4481944876316,1162.4481944876316,1162.4481944876316,1162.4481944876316,s,1,0.7530964496545494,1163.2398815542983,1163.2398815542983,1163.2398815542983,,,,,,,,,,,,,,,,,,,,,,,,,,,,114,001,2010-10-15_14h19.54.522,eb_01,2022.2.4,119.98732365479623,
,,,0,0,0,0,1,0,1,0,,,,,,,,,,,,,,,,,,,,,,,,,,,,,,,,,,,,,,,,,,,,,,,,,,,,,,,,,,,114,001,2010-10-15_14h19.54.522,eb_01,2022.2.4,119.98732365479623,
5,stimuli/5.png,s,0,0,0,0,2,0,2,0,0,0,0,0,,,,,,,,,,,,,,,,,,1164.2316790978366,1164.2316790978366,1164.2316790978366,1164.2316790978366,s,1,0.6416536395845469,1164.89005225015,1164.89005225015,1164.89005225015,,,,,,,,,,,,,,,,,,,,,,,,,,,,114,001,2010-10-15_14h19.54.522,eb_01,2022.2.4,119.98732365479623,
,,,0,0,0,0,2,0,2,0,,,,,,,,,,,,,,,,,,,,,,,,,,,,,,,,,,,,,,,,,,,,,,,,,,,,,,,,,,,114,001,2010-10-15_14h19.54.522,eb_01,2022.2.4,119.98732365479623,
9,stimuli/9.png,l,0,0,0,0,3,0,3,0,0,0,0,0,,,,,,,,,,,,,,,,,,1165.9067988565948,1165.9067988565948,1165.9067988565948,1165.9067988565948,l,1,1.438553344050888,1167.3735727804305,1167.3735727804305,1167.3735727804305,,,,,,,,,,,,,,,,,,,,,,,,,,,,114,001,2010-10-15_14h19.54.522,eb_01,2022.2.4,119.98732365479623,
,,,0,0,0,0,3,0,3,0,,,,,,,,,,,,,,,,,,,,,,,,,,,,,,,,,,,,,,,,,,,,,,,,,,,,,,,,,,,114,001,2010-10-15_14h19.54.522,eb_01,2022.2.4,119.98732365479623,
5,stimuli/5.png,s,0,0,0,0,4,0,4,0,0,0,0,0,,,,,,,,,,,,,,,,,,1168.3736968405428,1168.3736968405428,1168.3736968405428,1168.3736968405428,s,1,0.4917075196863152,1168.8820580698084,1168.8820580698084,1168.8820580698084,,,,,,,,,,,,,,,,,,,,,,,,,,,,114,001,2010-10-15_14h19.54.522,eb_01,2022.2.4,119.98732365479623,
,,,0,0,0,0,4,0,4,0,,,,,,,,,,,,,,,,,,,,,,,,,,,,,,,,,,,,,,,,,,,,,,,,,,,,,,,,,,,114,001,2010-10-15_14h19.54.522,eb_01,2022.2.4,119.98732365479623,
9,stimuli/9.png,l,0,0,0,0,5,0,5,0,0,0,0,0,,,,,,,,,,,,,,,,,,1169.8987823394127,1169.8987823394127,1169.8987823394127,1169.8987823394127,l,1,0.4786344208114315,1170.407199410809,1170.407199410809,1170.407199410809,,,,,,,,,,,,,,,,,,,,,,,,,,,,114,001,2010-10-15_14h19.54.522,eb_01,2022.2.4,119.98732365479623,
,,,0,0,0,0,5,0,5,0,,,,,,,,,,,,,,,,,,,,,,,,,,,,,,,,,,,,,,,,,,,,,,,,,,,,,,,,,,,114,001,2010-10-15_14h19.54.522,eb_01,2022.2.4,119.98732365479623,
8,stimuli/8.png,l,0,0,0,0,6,0,6,0,0,0,0,0,,,,,,,,,,,,,,,,,,1171.4072869471274,1171.4072869471274,1171.4072869471274,1171.4072869471274,l,1,0.6661620023078285,1172.090667419281,1172.090667419281,1172.090667419281,,,,,,,,,,,,,,,,,,,,,,,,,,,,114,001,2010-10-15_14h19.54.522,eb_01,2022.2.4,119.98732365479623,
,,,0,0,0,0,6,0,6,0,,,,,,,,,,,,,,,,,,,,,,,,,,,,,,,,,,,,,,,,,,,,,,,,,,,,,,,,,,,114,001,2010-10-15_14h19.54.522,eb_01,2022.2.4,119.98732365479623,
9,stimuli/9.png,l,0,0,0,0,7,0,7,0,0,0,0,0,,,,,,,,,,,,,,,,,,1173.107416742394,1173.107416742394,1173.107416742394,1173.107416742394,l,1,0.47006340621737763,1173.607467151247,1173.607467151247,1173.607467151247,,,,,,,,,,,,,,,,,,,,,,,,,,,,114,001,2010-10-15_14h19.54.522,eb_01,2022.2.4,119.98732365479623,
,,,0,0,0,0,7,0,7,0,,,,,,,,,,,,,,,,,,,,,,,,,,,,,,,,,,,,,,,,,,,,,,,,,,,,,,,,,,,114,001,2010-10-15_14h19.54.522,eb_01,2022.2.4,119.98732365479623,
6,stimuli/6.png,s,0,0,0,0,8,0,8,0,0,0,0,0,,,,,,,,,,,,,,,,,,1174.6241805542668,1174.6241805542668,1174.6241805542668,1174.6241805542668,s,1,0.5133136001823004,1175.1658907124074,1175.1658907124074,1175.1658907124074,,,,,,,,,,,,,,,,,,,,,,,,,,,,114,001,2010-10-15_14h19.54.522,eb_01,2022.2.4,119.98732365479623,
,,,0,0,0,0,8,0,8,0,,,,,,,,,,,,,,,,,,,,,,,,,,,,,,,,,,,,,,,,,,,,,,,,,,,,,,,,,,,114,001,2010-10-15_14h19.54.522,eb_01,2022.2.4,119.98732365479623,
9,stimuli/9.png,l,0,0,0,0,9,0,9,0,0,0,0,0,,,,,,,,,,,,,,,,,,1176.174357588956,1176.174357588956,1176.174357588956,1176.174357588956,l,1,0.4272101442911662,1176.63271021549,1176.63271021549,1176.63271021549,,,,,,,,,,,,,,,,,,,,,,,,,,,,114,001,2010-10-15_14h19.54.522,eb_01,2022.2.4,119.98732365479623,
,,,0,0,0,0,9,0,9,0,,,,,,,,,,,,,,,,,,,,,,,,,,,,,,,,,,,,,,,,,,,,,,,,,,,,,,,,,,,114,001,2010-10-15_14h19.54.522,eb_01,2022.2.4,119.98732365479623,
8,stimuli/8.png,l,0,0,0,0,10,0,10,0,0,0,0,0,,,,,,,,,,,,,,,,,,1177.6411366442335,1177.6411366442335,1177.6411366442335,1177.6411366442335,l,1,0.5114901277411263,1178.1744904027146,1178.1744904027146,1178.1744904027146,,,,,,,,,,,,,,,,,,,,,,,,,,,,114,001,2010-10-15_14h19.54.522,eb_01,2022.2.4,119.98732365479623,
,,,0,0,0,0,10,0,10,0,,,,,,,,,,,,,,,,,,,,,,,,,,,,,,,,,,,,,,,,,,,,,,,,,,,,,,,,,,,114,001,2010-10-15_14h19.54.522,eb_01,2022.2.4,119.98732365479623,
9,stimuli/9.png,l,0,0,0,0,11,0,11,0,0,0,0,0,,,,,,,,,,,,,,,,,,1179.1912798717967,1179.1912798717967,1179.1912798717967,1179.1912798717967,l,1,0.45733622676925734,1179.674631064554,1179.674631064554,1179.674631064554,,,,,,,,,,,,,,,,,,,,,,,,,,,,114,001,2010-10-15_14h19.54.522,eb_01,2022.2.4,119.98732365479623,
,,,0,0,0,0,11,0,11,0,,,,,,,,,,,,,,,,,,,,,,,,,,,,,,,,,,,,,,,,,,,,,,,,,,,,,,,,,,,114,001,2010-10-15_14h19.54.522,eb_01,2022.2.4,119.98732365479623,
8,stimuli/8.png,l,0,0,0,0,12,0,12,0,0,0,0,0,,,,,,,,,,,,,,,,,,1180.6747659912508,1180.6747659912508,1180.6747659912508,1180.6747659912508,l,1,0.5018647530523594,1181.1997657648462,1181.1997657648462,1181.1997657648462,,,,,,,,,,,,,,,,,,,,,,,,,,,,114,001,2010-10-15_14h19.54.522,eb_01,2022.2.4,119.98732365479623,
,,,0,0,0,0,12,0,12,0,,,,,,,,,,,,,,,,,,,,,,,,,,,,,,,,,,,,,,,,,,,,,,,,,,,,,,,,,,,114,001,2010-10-15_14h19.54.522,eb_01,2022.2.4,119.98732365479623,
9,stimuli/9.png,l,0,0,0,0,13,0,13,0,0,0,0,0,,,,,,,,,,,,,,,,,,1182.2165241434413,1182.2165241434413,1182.2165241434413,1182.2165241434413,l,1,0.39217840481433086,1182.6415737222123,1182.6415737222123,1182.6415737222123,,,,,,,,,,,,,,,,,,,,,,,,,,,,114,001,2010-10-15_14h19.54.522,eb_01,2022.2.4,119.98732365479623,
,,,0,0,0,0,13,0,13,0,,,,,,,,,,,,,,,,,,,,,,,,,,,,,,,,,,,,,,,,,,,,,,,,,,,,,,,,,,,114,001,2010-10-15_14h19.54.522,eb_01,2022.2.4,119.98732365479623,
6,stimuli/6.png,s,0,0,0,0,14,0,14,0,0,0,0,0,,,,,,,,,,,,,,,,,,1183.6583260638,1183.6583260638,1183.6583260638,1183.6583260638,l,0,0.4303671874804422,1184.1166638997092,1184.1166638997092,1184.1166638997092,,,,,,,,,,,,,,,,,,,,,,,,,,,,114,001,2010-10-15_14h19.54.522,eb_01,2022.2.4,119.98732365479623,
,,,0,0,0,0,14,0,14,0,,,,,,,,,,,,,,,,,,,,,,,,,,,,,,,,,,,,,,,,,,,,,,,,,,,,,,,,,,,114,001,2010-10-15_14h19.54.522,eb_01,2022.2.4,119.98732365479623,
8,stimuli/8.png,l,0,0,0,0,15,0,15,0,0,0,0,0,,,,,,,,,,,,,,,,,,1185.1168000338075,1185.1168000338075,1185.1168000338075,1185.1168000338075,l,1,0.45192044429131784,1185.5917966380075,1185.5917966380075,1185.5917966380075,,,,,,,,,,,,,,,,,,,,,,,,,,,,114,001,2010-10-15_14h19.54.522,eb_01,2022.2.4,119.98732365479623,
,,,0,0,0,0,15,0,15,0,,,,,,,,,,,,,,,,,,,,,,,,,,,,,,,,,,,,,,,,,,,,,,,,,,,,,,,,,,,114,001,2010-10-15_14h19.54.522,eb_01,2022.2.4,119.98732365479623,
9,stimuli/9.png,l,0,0,0,0,16,0,16,0,0,0,0,0,,,,,,,,,,,,,,,,,,1186.6085767497425,1186.6085767497425,1186.6085767497425,1186.6085767497425,l,1,0.6481802279886324,1187.28361440546,1187.28361440546,1187.28361440546,,,,,,,,,,,,,,,,,,,,,,,,,,,,114,001,2010-10-15_14h19.54.522,eb_01,2022.2.4,119.98732365479623,
,,,0,0,0,0,16,0,16,0,,,,,,,,,,,,,,,,,,,,,,,,,,,,,,,,,,,,,,,,,,,,,,,,,,,,,,,,,,,114,001,2010-10-15_14h19.54.522,eb_01,2022.2.4,119.98732365479623,
8,stimuli/8.png,l,0,0,0,0,17,0,17,0,0,0,0,0,,,,,,,,,,,,,,,,,,1188.2837049603113,1188.2837049603113,1188.2837049603113,1188.2837049603113,l,1,0.4530922237900086,1188.7587178643735,1188.7587178643735,1188.7587178643735,,,,,,,,,,,,,,,,,,,,,,,,,,,,114,001,2010-10-15_14h19.54.522,eb_01,2022.2.4,119.98732365479623,
,,,0,0,0,0,17,0,17,0,,,,,,,,,,,,,,,,,,,,,,,,,,,,,,,,,,,,,,,,,,,,,,,,,,,,,,,,,,,114,001,2010-10-15_14h19.54.522,eb_01,2022.2.4,119.98732365479623,
9,stimuli/9.png,l,0,0,0,0,18,0,18,0,0,0,0,0,,,,,,,,,,,,,,,,,,1189.7754705077969,1189.7754705077969,1189.7754705077969,1189.7754705077969,l,1,0.4413463568489533,1190.2421861746989,1190.2421861746989,1190.2421861746989,,,,,,,,,,,,,,,,,,,,,,,,,,,,114,001,2010-10-15_14h19.54.522,eb_01,2022.2.4,119.98732365479623,
,,,0,0,0,0,18,0,18,0,,,,,,,,,,,,,,,,,,,,,,,,,,,,,,,,,,,,,,,,,,,,,,,,,,,,,,,,,,,114,001,2010-10-15_14h19.54.522,eb_01,2022.2.4,119.98732365479623,
8,stimuli/8.png,l,0,0,0,0,19,0,19,0,0,0,0,0,,,,,,,,,,,,,,,,,,1191.2423051033693,1191.2423051033693,1191.2423051033693,1191.2423051033693,l,1,0.3745567368459888,1191.6340024329256,1191.6340024329256,1191.6340024329256,,,,,,,,,,,,,,,,,,,,,,,,,,,,114,001,2010-10-15_14h19.54.522,eb_01,2022.2.4,119.98732365479623,
,,,0,0,0,0,19,0,19,0,,,,,,,,,,,,,,,,,,,,,,,,,,,,,,,,,,,,,,,,,,,,,,,,,,,,,,,,,,,114,001,2010-10-15_14h19.54.522,eb_01,2022.2.4,119.98732365479623,
6,stimuli/6.png,s,0,0,0,0,20,0,20,0,0,0,0,0,,,,,,,,,,,,,,,,,,1192.6590680096997,1192.6590680096997,1192.6590680096997,1192.6590680096997,l,0,0.46092461282387376,1193.1507931093802,1193.1507931093802,1193.1507931093802,,,,,,,,,,,,,,,,,,,,,,,,,,,,114,001,2010-10-15_14h19.54.522,eb_01,2022.2.4,119.98732365479623,
,,,0,0,0,0,20,0,20,0,,,,,,,,,,,,,,,,,,,,,,,,,,,,,,,,,,,,,,,,,,,,,,,,,,,,,,,,,,,114,001,2010-10-15_14h19.54.522,eb_01,2022.2.4,119.98732365479623,
5,stimuli/5.png,s,0,0,0,0,21,0,21,0,0,0,0,0,,,,,,,,,,,,,,,,,,1194.1508507626422,1194.1508507626422,1194.1508507626422,1194.1508507626422,s,1,0.8330829268379603,1195.0009469016804,1195.0009469016804,1195.0009469016804,,,,,,,,,,,,,,,,,,,,,,,,,,,,114,001,2010-10-15_14h19.54.522,eb_01,2022.2.4,119.98732365479623,
,,,0,0,0,0,21,0,21,0,,,,,,,,,,,,,,,,,,,,,,,,,,,,,,,,,,,,,,,,,,,,,,,,,,,,,,,,,,,114,001,2010-10-15_14h19.54.522,eb_01,2022.2.4,119.98732365479623,
6,stimuli/6.png,s,0,0,0,0,22,0,22,0,0,0,0,0,,,,,,,,,,,,,,,,,,1196.0260586614313,1196.0260586614313,1196.0260586614313,1196.0260586614313,s,1,0.365891243389342,1196.4177436151367,1196.4177436151367,1196.4177436151367,,,,,,,,,,,,,,,,,,,,,,,,,,,,114,001,2010-10-15_14h19.54.522,eb_01,2022.2.4,119.98732365479623,
,,,0,0,0,0,22,0,22,0,,,,,,,,,,,,,,,,,,,,,,,,,,,,,,,,,,,,,,,,,,,,,,,,,,,,,,,,,,,114,001,2010-10-15_14h19.54.522,eb_01,2022.2.4,119.98732365479623,
9,stimuli/9.png,l,0,0,0,0,23,0,23,0,0,0,0,0,,,,,,,,,,,,,,,,,,1197.42614378297,1197.42614378297,1197.42614378297,1197.42614378297,l,1,0.4778275772987399,1197.9345288583136,1197.9345288583136,1197.9345288583136,,,,,,,,,,,,,,,,,,,,,,,,,,,,114,001,2010-10-15_14h19.54.522,eb_01,2022.2.4,119.98732365479623,
,,,0,0,0,0,23,0,23,0,,,,,,,,,,,,,,,,,,,,,,,,,,,,,,,,,,,,,,,,,,,,,,,,,,,,,,,,,,,114,001,2010-10-15_14h19.54.522,eb_01,2022.2.4,119.98732365479623,
5,stimuli/5.png,s,0,0,0,0,24,0,24,0,0,0,0,0,,,,,,,,,,,,,,,,,,1198.93462635568,1198.93462635568,1198.93462635568,1198.93462635568,s,1,0.5213772058777977,1199.4763250435644,1199.4763250435644,1199.4763250435644,,,,,,,,,,,,,,,,,,,,,,,,,,,,114,001,2010-10-15_14h19.54.522,eb_01,2022.2.4,119.98732365479623,
,,,0,0,0,0,24,0,24,0,,,,,,,,,,,,,,,,,,,,,,,,,,,,,,,,,,,,,,,,,,,,,,,,,,,,,,,,,,,114,001,2010-10-15_14h19.54.522,eb_01,2022.2.4,119.98732365479623,
6,stimuli/6.png,s,0,0,0,0,25,0,25,0,0,0,0,0,,,,,,,,,,,,,,,,,,1200.5014250311651,1200.5014250311651,1200.5014250311651,1200.5014250311651,s,1,0.5945892762101721,1201.1264625359618,1201.1264625359618,1201.1264625359618,,,,,,,,,,,,,,,,,,,,,,,,,,,,114,001,2010-10-15_14h19.54.522,eb_01,2022.2.4,119.98732365479623,
,,,0,0,0,0,25,0,25,0,,,,,,,,,,,,,,,,,,,,,,,,,,,,,,,,,,,,,,,,,,,,,,,,,,,,,,,,,,,114,001,2010-10-15_14h19.54.522,eb_01,2022.2.4,119.98732365479623,
5,stimuli/5.png,s,0,0,0,0,26,0,26,0,0,0,0,0,,,,,,,,,,,,,,,,,,1202.1265452427033,1202.1265452427033,1202.1265452427033,1202.1265452427033,s,1,0.43353238064446487,1202.5849235264468,1202.5849235264468,1202.5849235264468,,,,,,,,,,,,,,,,,,,,,,,,,,,,114,001,2010-10-15_14h19.54.522,eb_01,2022.2.4,119.98732365479623,
,,,0,0,0,0,26,0,26,0,,,,,,,,,,,,,,,,,,,,,,,,,,,,,,,,,,,,,,,,,,,,,,,,,,,,,,,,,,,114,001,2010-10-15_14h19.54.522,eb_01,2022.2.4,119.98732365479623,
6,stimuli/6.png,s,0,0,0,0,27,0,27,0,0,0,0,0,,,,,,,,,,,,,,,,,,1203.6100220048393,1203.6100220048393,1203.6100220048393,1203.6100220048393,s,1,0.42207628916366957,1204.0600508314674,1204.0600508314674,1204.0600508314674,,,,,,,,,,,,,,,,,,,,,,,,,,,,114,001,2010-10-15_14h19.54.522,eb_01,2022.2.4,119.98732365479623,
,,,0,0,0,0,27,0,27,0,,,,,,,,,,,,,,,,,,,,,,,,,,,,,,,,,,,,,,,,,,,,,,,,,,,,,,,,,,,114,001,2010-10-15_14h19.54.522,eb_01,2022.2.4,119.98732365479623,
5,stimuli/5.png,s,0,0,0,0,28,0,28,0,0,0,0,0,,,,,,,,,,,,,,,,,,1205.0601386696508,1205.0601386696508,1205.0601386696508,1205.0601386696508,s,1,0.3799858007405419,1205.4601939080749,1205.4601939080749,1205.4601939080749,,,,,,,,,,,,,,,,,,,,,,,,,,,,114,001,2010-10-15_14h19.54.522,eb_01,2022.2.4,119.98732365479623,
,,,0,0,0,0,28,0,28,0,,,,,,,,,,,,,,,,,,,,,,,,,,,,,,,,,,,,,,,,,,,,,,,,,,,,,,,,,,,114,001,2010-10-15_14h19.54.522,eb_01,2022.2.4,119.98732365479623,
6,stimuli/6.png,s,0,0,0,0,29,0,29,0,0,0,0,0,,,,,,,,,,,,,,,,,,1206.4852800106455,1206.4852800106455,1206.4852800106455,1206.4852800106455,s,1,0.38690237861010246,1206.9019580972672,1206.9019580972672,1206.9019580972672,,,,,,,,,,,,,,,,,,,,,,,,,,,,114,001,2010-10-15_14h19.54.522,eb_01,2022.2.4,119.98732365479623,
,,,0,0,0,0,29,0,29,0,,,,,,,,,,,,,,,,,,,,,,,,,,,,,,,,,,,,,,,,,,,,,,,,,,,,,,,,,,,114,001,2010-10-15_14h19.54.522,eb_01,2022.2.4,119.98732365479623,
8,stimuli/8.png,l,0,0,0,0,30,0,30,0,0,0,0,0,,,,,,,,,,,,,,,,,,1207.9020359744318,1207.9020359744318,1207.9020359744318,1207.9020359744318,l,1,0.4332812418870162,1208.3520801953564,1208.3520801953564,1208.3520801953564,,,,,,,,,,,,,,,,,,,,,,,,,,,,114,001,2010-10-15_14h19.54.522,eb_01,2022.2.4,119.98732365479623,
,,,0,0,0,0,30,0,30,0,,,,,,,,,,,,,,,,,,,,,,,,,,,,,,,,,,,,,,,,,,,,,,,,,,,,,,,,,,,114,001,2010-10-15_14h19.54.522,eb_01,2022.2.4,119.98732365479623,
3,stimuli/3.png,l,0,0,0,0,31,0,31,0,0,0,0,0,,,,,,,,,,,,,,,,,,1209.360491833475,1209.360491833475,1209.360491833475,1209.360491833475,l,1,0.6787270885834005,1210.0522021425422,1210.0522021425422,1210.0522021425422,1211.0606569451047,1211.0606569451047,1211.0606569451047,,,,,,,,,,,,,,,,,,,,,,,,,114,001,2010-10-15_14h19.54.522,eb_01,2022.2.4,119.98732365479623,
,,,0,0,0,0,31,0,31,0,,,,,,,,,,,,,,,,,,,,,,,,,,,,,,,,,,,,,,,,,,,,,,,,,,,,,,,,,,,114,001,2010-10-15_14h19.54.522,eb_01,2022.2.4,119.98732365479623,
2,stimuli/2.png,s,0,0,0,0,32,0,32,0,0,0,0,0,,,,,,,,,,,,,,,,,,1211.0606569451047,1211.0606569451047,1211.0606569451047,1211.0606569451047,l,0,1.1946025576035026,1212.277399325685,1212.277399325685,1212.277399325685,,,,,,,,,,,,,,,,,,,,,,,,,,,,114,001,2010-10-15_14h19.54.522,eb_01,2022.2.4,119.98732365479623,
,,,0,0,0,0,32,0,32,0,,,,,,,,,,,,,,,,,,,,,,,,,,,,,,,,,,,,,,,,,,,,,,,,,,,,,,,,,,,114,001,2010-10-15_14h19.54.522,eb_01,2022.2.4,119.98732365479623,
3,stimuli/3.png,l,0,0,0,0,33,0,33,0,0,0,0,0,,,,,,,,,,,,,,,,,,1213.2858444690646,1213.2858444690646,1213.2858444690646,1213.2858444690646,l,1,0.6894671932095662,1213.994238901767,1213.994238901767,1213.994238901767,,,,,,,,,,,,,,,,,,,,,,,,,,,,114,001,2010-10-15_14h19.54.522,eb_01,2022.2.4,119.98732365479623,
,,,0,0,0,0,33,0,33,0,,,,,,,,,,,,,,,,,,,,,,,,,,,,,,,,,,,,,,,,,,,,,,,,,,,,,,,,,,,114,001,2010-10-15_14h19.54.522,eb_01,2022.2.4,119.98732365479623,
2,stimuli/2.png,s,0,0,0,0,34,0,34,0,0,0,0,0,,,,,,,,,,,,,,,,,,1215.0026266937493,1215.0026266937493,1215.0026266937493,1215.0026266937493,s,1,0.5007017272000667,1215.5193591132993,1215.5193591132993,1215.5193591132993,1216.5277900697547,1216.5277900697547,1216.5277900697547,,,,,,,,,,,,,,,,,,,,,,,,,114,001,2010-10-15_14h19.54.522,eb_01,2022.2.4,119.98732365479623,
,,,0,0,0,0,34,0,34,0,,,,,,,,,,,,,,,,,,,,,,,,,,,,,,,,,,,,,,,,,,,,,,,,,,,,,,,,,,,114,001,2010-10-15_14h19.54.522,eb_01,2022.2.4,119.98732365479623,
3,stimuli/3.png,l,0,0,0,0,35,0,35,0,0,0,0,0,,,,,,,,,,,,,,,,,,1216.5277900697547,1216.5277900697547,1216.5277900697547,1216.5277900697547,l,1,0.5035653727827594,1217.04449320992,1217.04449320992,1217.04449320992,1218.0529211478715,1218.0529211478715,1218.0529211478715,,,,,,,,,,,,,,,,,,,,,,,,,114,001,2010-10-15_14h19.54.522,eb_01,2022.2.4,119.98732365479623,
,,,0,0,0,0,35,0,35,0,,,,,,,,,,,,,,,,,,,,,,,,,,,,,,,,,,,,,,,,,,,,,,,,,,,,,,,,,,,114,001,2010-10-15_14h19.54.522,eb_01,2022.2.4,119.98732365479623,
8,stimuli/8.png,l,0,0,0,0,36,0,36,0,0,0,0,0,,,,,,,,,,,,,,,,,,1218.0529211478715,1218.0529211478715,1218.0529211478715,1218.0529211478715,l,1,0.5464627047185786,1218.6196220241545,1218.6196220241545,1218.6196220241545,,,,,,,,,,,,,,,,,,,,,,,,,,,,114,001,2010-10-15_14h19.54.522,eb_01,2022.2.4,119.98732365479623,
,,,0,0,0,0,36,0,36,0,,,,,,,,,,,,,,,,,,,,,,,,,,,,,,,,,,,,,,,,,,,,,,,,,,,,,,,,,,,114,001,2010-10-15_14h19.54.522,eb_01,2022.2.4,119.98732365479623,
9,stimuli/9.png,l,0,0,0,0,37,0,37,0,0,0,0,0,,,,,,,,,,,,,,,,,,1219.6363574621791,1219.6363574621791,1219.6363574621791,1219.6363574621791,l,1,0.5710791295568924,1220.2364344337839,1220.2364344337839,1220.2364344337839,,,,,,,,,,,,,,,,,,,,,,,,,,,,114,001,2010-10-15_14h19.54.522,eb_01,2022.2.4,119.98732365479623,
,,,0,0,0,0,37,0,37,0,,,,,,,,,,,,,,,,,,,,,,,,,,,,,,,,,,,,,,,,,,,,,,,,,,,,,,,,,,,114,001,2010-10-15_14h19.54.522,eb_01,2022.2.4,119.98732365479623,
6,stimuli/6.png,s,0,0,0,0,38,0,38,0,0,0,0,0,,,,,,,,,,,,,,,,,,1221.2531910012767,1221.2531910012767,1221.2531910012767,1221.2531910012767,s,1,0.4262605259718839,1221.7115566073335,1221.7115566073335,1221.7115566073335,,,,,,,,,,,,,,,,,,,,,,,,,,,,114,001,2010-10-15_14h19.54.522,eb_01,2022.2.4,119.98732365479623,
,,,0,0,0,0,38,0,38,0,,,,,,,,,,,,,,,,,,,,,,,,,,,,,,,,,,,,,,,,,,,,,,,,,,,,,,,,,,,114,001,2010-10-15_14h19.54.522,eb_01,2022.2.4,119.98732365479623,
5,stimuli/5.png,s,0,0,0,0,39,0,39,0,0,0,0,0,,,,,,,,,,,,,,,,,,1222.7116381067026,1222.7116381067026,1222.7116381067026,1222.7116381067026,s,1,0.43184443860081956,1223.1616624055605,1223.1616624055605,1223.1616624055605,,,,,,,,,,,,,,,,,,,,,,,,,,,,114,001,2010-10-15_14h19.54.522,eb_01,2022.2.4,119.98732365479623,
,,,0,0,0,0,39,0,39,0,,,,,,,,,,,,,,,,,,,,,,,,,,,,,,,,,,,,,,,,,,,,,,,,,,,,,,,,,,,114,001,2010-10-15_14h19.54.522,eb_01,2022.2.4,119.98732365479623,
6,stimuli/6.png,s,0,0,0,0,40,0,40,0,0,0,0,0,,,,,,,,,,,,,,,,,,1224.1867675246322,1224.1867675246322,1224.1867675246322,1224.1867675246322,l,0,0.38780702132498845,1224.603445611283,1224.603445611283,1224.603445611283,,,,,,,,,,,,,,,,,,,,,,,,,,,,114,001,2010-10-15_14h19.54.522,eb_01,2022.2.4,119.98732365479623,
,,,0,0,0,0,40,0,40,0,,,,,,,,,,,,,,,,,,,,,,,,,,,,,,,,,,,,,,,,,,,,,,,,,,,,,,,,,,,114,001,2010-10-15_14h19.54.522,eb_01,2022.2.4,119.98732365479623,
5,stimuli/5.png,s,0,0,0,0,41,0,41,0,0,0,0,0,,,,,,,,,,,,,,,,,,1225.6035681621288,1225.6035681621288,1225.6035681621288,1225.6035681621288,s,1,0.5309802436677273,1226.1536075534823,1226.1536075534823,1226.1536075534823,,,,,,,,,,,,,,,,,,,,,,,,,,,,114,001,2010-10-15_14h19.54.522,eb_01,2022.2.4,119.98732365479623,
,,,0,0,0,0,41,0,41,0,,,,,,,,,,,,,,,,,,,,,,,,,,,,,,,,,,,,,,,,,,,,,,,,,,,,,,,,,,,114,001,2010-10-15_14h19.54.522,eb_01,2022.2.4,119.98732365479623,
9,stimuli/9.png,l,0,0,0,0,42,0,42,0,0,0,0,0,,,,,,,,,,,,,,,,,,1227.1703635172744,1227.1703635172744,1227.1703635172744,1227.1703635172744,l,1,0.476208758802386,1227.6787096540502,1227.6787096540502,1227.6787096540502,,,,,,,,,,,,,,,,,,,,,,,,,,,,114,001,2010-10-15_14h19.54.522,eb_01,2022.2.4,119.98732365479623,
,,,0,0,0,0,42,0,42,0,,,,,,,,,,,,,,,,,,,,,,,,,,,,,,,,,,,,,,,,,,,,,,,,,,,,,,,,,,,114,001,2010-10-15_14h19.54.522,eb_01,2022.2.4,119.98732365479623,
5,stimuli/5.png,s,0,0,0,0,43,0,43,0,0,0,0,0,,,,,,,,,,,,,,,,,,1228.6788319030893,1228.6788319030893,1228.6788319030893,1228.6788319030893,s,1,0.5437714151921682,1229.2455273460655,1229.2455273460655,1229.2455273460655,,,,,,,,,,,,,,,,,,,,,,,,,,,,114,001,2010-10-15_14h19.54.522,eb_01,2022.2.4,119.98732365479623,
,,,0,0,0,0,43,0,43,0,,,,,,,,,,,,,,,,,,,,,,,,,,,,,,,,,,,,,,,,,,,,,,,,,,,,,,,,,,,114,001,2010-10-15_14h19.54.522,eb_01,2022.2.4,119.98732365479623,
6,stimuli/6.png,s,0,0,0,0,44,0,44,0,0,0,0,0,,,,,,,,,,,,,,,,,,1230.270637294714,1230.270637294714,1230.270637294714,1230.270637294714,s,1,0.5039973192906473,1230.803984110651,1230.803984110651,1230.803984110651,,,,,,,,,,,,,,,,,,,,,,,,,,,,114,001,2010-10-15_14h19.54.522,eb_01,2022.2.4,119.98732365479623,
,,,0,0,0,0,44,0,44,0,,,,,,,,,,,,,,,,,,,,,,,,,,,,,,,,,,,,,,,,,,,,,,,,,,,,,,,,,,,114,001,2010-10-15_14h19.54.522,eb_01,2022.2.4,119.98732365479623,
5,stimuli/5.png,s,0,0,0,0,45,0,45,0,0,0,0,0,,,,,,,,,,,,,,,,,,1231.8040589693119,1231.8040589693119,1231.8040589693119,1231.8040589693119,s,1,0.3706037166994065,1232.1961115756421,1232.1961115756421,1232.1961115756421,,,,,,,,,,,,,,,,,,,,,,,,,,,,114,001,2010-10-15_14h19.54.522,eb_01,2022.2.4,119.98732365479623,
,,,0,0,0,0,45,0,45,0,,,,,,,,,,,,,,,,,,,,,,,,,,,,,,,,,,,,,,,,,,,,,,,,,,,,,,,,,,,114,001,2010-10-15_14h19.54.522,eb_01,2022.2.4,119.98732365479623,
6,stimuli/6.png,s,0,0,0,0,46,0,46,0,0,0,0,0,,,,,,,,,,,,,,,,,,1233.2208405903075,1233.2208405903075,1233.2208405903075,1233.2208405903075,s,1,0.40984565202961676,1233.6625670483045,1233.6625670483045,1233.6625670483045,,,,,,,,,,,,,,,,,,,,,,,,,,,,114,001,2010-10-15_14h19.54.522,eb_01,2022.2.4,119.98732365479623,
,,,0,0,0,0,46,0,46,0,,,,,,,,,,,,,,,,,,,,,,,,,,,,,,,,,,,,,,,,,,,,,,,,,,,,,,,,,,,114,001,2010-10-15_14h19.54.522,eb_01,2022.2.4,119.98732365479623,
8,stimuli/8.png,l,0,0,0,0,47,0,47,0,0,0,0,0,,,,,,,,,,,,,,,,,,1234.6626539809513,1234.6626539809513,1234.6626539809513,1234.6626539809513,l,1,0.4080903975991532,1235.0877080874634,1235.0877080874634,1235.0877080874634,,,,,,,,,,,,,,,,,,,,,,,,,,,,114,001,2010-10-15_14h19.54.522,eb_01,2022.2.4,119.98732365479623,
,,,0,0,0,0,47,0,47,0,,,,,,,,,,,,,,,,,,,,,,,,,,,,,,,,,,,,,,,,,,,,,,,,,,,,,,,,,,,114,001,2010-10-15_14h19.54.522,eb_01,2022.2.4,119.98732365479623,
6,stimuli/6.png,s,0,0,0,0,48,0,48,0,0,0,0,0,,,,,,,,,,,,,,,,,,1236.1127667217224,1236.1127667217224,1236.1127667217224,1236.1127667217224,s,1,0.44596495499718003,1236.5877877757011,1236.5877877757011,1236.5877877757011,,,,,,,,,,,,,,,,,,,,,,,,,,,,114,001,2010-10-15_14h19.54.522,eb_01,2022.2.4,119.98732365479623,
,,,0,0,0,0,48,0,48,0,,,,,,,,,,,,,,,,,,,,,,,,,,,,,,,,,,,,,,,,,,,,,,,,,,,,,,,,,,,114,001,2010-10-15_14h19.54.522,eb_01,2022.2.4,119.98732365479623,
5,stimuli/5.png,s,0,0,0,0,49,0,49,0,0,0,0,0,,,,,,,,,,,,,,,,,,1237.5879184765217,1237.5879184765217,1237.5879184765217,1237.5879184765217,s,1,0.3468602404172998,1237.9546030529018,1237.9546030529018,1237.9546030529018,,,,,,,,,,,,,,,,,,,,,,,,,,,,114,001,2010-10-15_14h19.54.522,eb_01,2022.2.4,119.98732365479623,
,,,0,0,0,0,49,0,49,0,,,,,,,,,,,,,,,,,,,,,,,,,,,,,,,,,,,,,,,,,,,,,,,,,,,,,,,,,,,114,001,2010-10-15_14h19.54.522,eb_01,2022.2.4,119.98732365479623,
6,stimuli/6.png,s,0,0,0,0,50,0,50,0,0,0,0,0,,,,,,,,,,,,,,,,,,1238.9797012294293,1238.9797012294293,1238.9797012294293,1238.9797012294293,s,1,0.3871037121571135,1239.3963925974676,1239.3963925974676,1239.3963925974676,,,,,,,,,,,,,,,,,,,,,,,,,,,,114,001,2010-10-15_14h19.54.522,eb_01,2022.2.4,119.98732365479623,
,,,0,0,0,0,50,0,50,0,,,,,,,,,,,,,,,,,,,,,,,,,,,,,,,,,,,,,,,,,,,,,,,,,,,,,,,,,,,114,001,2010-10-15_14h19.54.522,eb_01,2022.2.4,119.98732365479623,
9,stimuli/9.png,l,0,0,0,0,51,0,51,0,0,0,0,0,,,,,,,,,,,,,,,,,,1240.4048247613246,1240.4048247613246,1240.4048247613246,1240.4048247613246,s,0,0.36103539157193154,1240.7965205816145,1240.7965205816145,1240.7965205816145,,,,,,,,,,,,,,,,,,,,,,,,,,,,114,001,2010-10-15_14h19.54.522,eb_01,2022.2.4,119.98732365479623,
,,,0,0,0,0,51,0,51,0,,,,,,,,,,,,,,,,,,,,,,,,,,,,,,,,,,,,,,,,,,,,,,,,,,,,,,,,,,,114,001,2010-10-15_14h19.54.522,eb_01,2022.2.4,119.98732365479623,
6,stimuli/6.png,s,0,0,0,0,52,0,52,0,0,0,0,0,,,,,,,,,,,,,,,,,,1241.8132843934873,1241.8132843934873,1241.8132843934873,1241.8132843934873,s,1,0.6405956573144067,1242.4800097195548,1242.4800097195548,1242.4800097195548,,,,,,,,,,,,,,,,,,,,,,,,,,,,114,001,2010-10-15_14h19.54.522,eb_01,2022.2.4,119.98732365479623,
,,,0,0,0,0,52,0,52,0,,,,,,,,,,,,,,,,,,,,,,,,,,,,,,,,,,,,,,,,,,,,,,,,,,,,,,,,,,,114,001,2010-10-15_14h19.54.522,eb_01,2022.2.4,119.98732365479623,
5,stimuli/5.png,s,0,0,0,0,53,0,53,0,0,0,0,0,,,,,,,,,,,,,,,,,,1243.480066769116,1243.480066769116,1243.480066769116,1243.480066769116,s,1,0.4298286880948581,1243.930114914081,1243.930114914081,1243.930114914081,,,,,,,,,,,,,,,,,,,,,,,,,,,,114,001,2010-10-15_14h19.54.522,eb_01,2022.2.4,119.98732365479623,
,,,0,0,0,0,53,0,53,0,,,,,,,,,,,,,,,,,,,,,,,,,,,,,,,,,,,,,,,,,,,,,,,,,,,,,,,,,,,114,001,2010-10-15_14h19.54.522,eb_01,2022.2.4,119.98732365479623,
9,stimuli/9.png,l,0,0,0,0,54,0,54,0,0,0,0,0,,,,,,,,,,,,,,,,,,1244.9468775185524,1244.9468775185524,1244.9468775185524,1244.9468775185524,l,1,0.5150607046671212,1245.4885795267764,1245.4885795267764,1245.4885795267764,,,,,,,,,,,,,,,,,,,,,,,,,,,,114,001,2010-10-15_14h19.54.522,eb_01,2022.2.4,119.98732365479623,
,,,0,0,0,0,54,0,54,0,,,,,,,,,,,,,,,,,,,,,,,,,,,,,,,,,,,,,,,,,,,,,,,,,,,,,,,,,,,114,001,2010-10-15_14h19.54.522,eb_01,2022.2.4,119.98732365479623,
8,stimuli/8.png,l,0,0,0,0,55,0,55,0,0,0,0,0,,,,,,,,,,,,,,,,,,1246.4970279904956,1246.4970279904956,1246.4970279904956,1246.4970279904956,s,0,0.46093246090458706,1246.9803948794433,1246.9803948794433,1246.9803948794433,,,,,,,,,,,,,,,,,,,,,,,,,,,,114,001,2010-10-15_14h19.54.522,eb_01,2022.2.4,119.98732365479623,
,,,0,0,0,0,55,0,55,0,,,,,,,,,,,,,,,,,,,,,,,,,,,,,,,,,,,,,,,,,,,,,,,,,,,,,,,,,,,114,001,2010-10-15_14h19.54.522,eb_01,2022.2.4,119.98732365479623,
6,stimuli/6.png,s,0,0,0,0,56,0,56,0,0,0,0,0,,,,,,,,,,,,,,,,,,1248.0054707191011,1248.0054707191011,1248.0054707191011,1248.0054707191011,s,1,0.560556960204849,1248.5971647283004,1248.5971647283004,1248.5971647283004,,,,,,,,,,,,,,,,,,,,,,,,,,,,114,001,2010-10-15_14h19.54.522,eb_01,2022.2.4,119.98732365479623,
,,,0,0,0,0,56,0,56,0,,,,,,,,,,,,,,,,,,,,,,,,,,,,,,,,,,,,,,,,,,,,,,,,,,,,,,,,,,,114,001,2010-10-15_14h19.54.522,eb_01,2022.2.4,119.98732365479623,
5,stimuli/5.png,s,0,0,0,0,57,0,57,0,0,0,0,0,,,,,,,,,,,,,,,,,,1249.5972730922513,1249.5972730922513,1249.5972730922513,1249.5972730922513,s,1,0.40075726751820184,1250.0222638103878,1250.0222638103878,1250.0222638103878,,,,,,,,,,,,,,,,,,,,,,,,,,,,114,001,2010-10-15_14h19.54.522,eb_01,2022.2.4,119.98732365479623,
,,,0,0,0,0,57,0,57,0,,,,,,,,,,,,,,,,,,,,,,,,,,,,,,,,,,,,,,,,,,,,,,,,,,,,,,,,,,,114,001,2010-10-15_14h19.54.522,eb_01,2022.2.4,119.98732365479623,
6,stimuli/6.png,s,0,0,0,0,58,0,58,0,0,0,0,0,,,,,,,,,,,,,,,,,,1251.047386436694,1251.047386436694,1251.047386436694,1251.047386436694,s,1,0.4066720071423333,1251.4807232916064,1251.4807232916064,1251.4807232916064,,,,,,,,,,,,,,,,,,,,,,,,,,,,114,001,2010-10-15_14h19.54.522,eb_01,2022.2.4,119.98732365479623,
,,,0,0,0,0,58,0,58,0,,,,,,,,,,,,,,,,,,,,,,,,,,,,,,,,,,,,,,,,,,,,,,,,,,,,,,,,,,,114,001,2010-10-15_14h19.54.522,eb_01,2022.2.4,119.98732365479623,
9,stimuli/9.png,l,0,0,0,0,59,0,59,0,0,0,0,0,,,,,,,,,,,,,,,,,,1252.4892052606447,1252.4892052606447,1252.4892052606447,1252.4892052606447,l,1,0.36487370895338245,1252.8808419184352,1252.8808419184352,1252.8808419184352,,,,,,,,,,,,,,,,,,,,,,,,,,,,114,001,2010-10-15_14h19.54.522,eb_01,2022.2.4,119.98732365479623,
,,,0,0,0,0,59,0,59,0,,,,,,,,,,,,,,,,,,,,,,,,,,,,,,,,,,,,,,,,,,,,,,,,,,,,,,,,,,,114,001,2010-10-15_14h19.54.522,eb_01,2022.2.4,119.98732365479623,
8,stimuli/8.png,l,0,0,0,0,60,0,60,0,0,0,0,0,,,,,,,,,,,,,,,,,,1253.8809738266573,1253.8809738266573,1253.8809738266573,1253.8809738266573,l,1,0.44513456721324474,1254.347641801316,1254.347641801316,1254.347641801316,,,,,,,,,,,,,,,,,,,,,,,,,,,,114,001,2010-10-15_14h19.54.522,eb_01,2022.2.4,119.98732365479623,
,,,0,0,0,0,60,0,60,0,,,,,,,,,,,,,,,,,,,,,,,,,,,,,,,,,,,,,,,,,,,,,,,,,,,,,,,,,,,114,001,2010-10-15_14h19.54.522,eb_01,2022.2.4,119.98732365479623,
9,stimuli/9.png,l,0,0,0,0,61,0,61,0,0,0,0,0,,,,,,,,,,,,,,,,,,1255.3644201019779,1255.3644201019779,1255.3644201019779,1255.3644201019779,l,1,0.40078896170598455,1255.7978025361372,1255.7978025361372,1255.7978025361372,,,,,,,,,,,,,,,,,,,,,,,,,,,,114,001,2010-10-15_14h19.54.522,eb_01,2022.2.4,119.98732365479623,
,,,0,0,0,0,61,0,61,0,,,,,,,,,,,,,,,,,,,,,,,,,,,,,,,,,,,,,,,,,,,,,,,,,,,,,,,,,,,114,001,2010-10-15_14h19.54.522,eb_01,2022.2.4,119.98732365479623,
6,stimuli/6.png,s,0,0,0,0,62,0,62,0,0,0,0,0,,,,,,,,,,,,,,,,,,1256.8145147317846,1256.8145147317846,1256.8145147317846,1256.8145147317846,s,1,0.5026368839317001,1257.347925237933,1257.347925237933,1257.347925237933,,,,,,,,,,,,,,,,,,,,,,,,,,,,114,001,2010-10-15_14h19.54.522,eb_01,2022.2.4,119.98732365479623,
,,,0,0,0,0,62,0,62,0,,,,,,,,,,,,,,,,,,,,,,,,,,,,,,,,,,,,,,,,,,,,,,,,,,,,,,,,,,,114,001,2010-10-15_14h19.54.522,eb_01,2022.2.4,119.98732365479623,
9,stimuli/9.png,l,0,0,0,0,63,0,63,0,0,0,0,0,,,,,,,,,,,,,,,,,,1258.3563465352345,1258.3563465352345,1258.3563465352345,1258.3563465352345,l,1,0.48085241045919247,1258.864712594077,1258.864712594077,1258.864712594077,,,,,,,,,,,,,,,,,,,,,,,,,,,,114,001,2010-10-15_14h19.54.522,eb_01,2022.2.4,119.98732365479623,
,,,0,0,0,0,63,0,63,0,,,,,,,,,,,,,,,,,,,,,,,,,,,,,,,,,,,,,,,,,,,,,,,,,,,,,,,,,,,114,001,2010-10-15_14h19.54.522,eb_01,2022.2.4,119.98732365479623,
5,stimuli/5.png,s,0,0,0,0,64,0,64,0,0,0,0,0,,,,,,,,,,,,,,,,,,1259.8647910749132,1259.8647910749132,1259.8647910749132,1259.8647910749132,s,1,0.6285044746473432,1260.5148250329948,1260.5148250329948,1260.5148250329948,,,,,,,,,,,,,,,,,,,,,,,,,,,,114,001,2010-10-15_14h19.54.522,eb_01,2022.2.4,119.98732365479623,
,,,0,0,0,0,64,0,64,0,,,,,,,,,,,,,,,,,,,,,,,,,,,,,,,,,,,,,,,,,,,,,,,,,,,,,,,,,,,114,001,2010-10-15_14h19.54.522,eb_01,2022.2.4,119.98732365479623,
9,stimuli/9.png,l,0,0,0,0,65,0,65,0,0,0,0,0,,,,,,,,,,,,,,,,,,1261.5316247649316,1261.5316247649316,1261.5316247649316,1261.5316247649316,l,1,0.44963936813292094,1262.0066198598943,1262.0066198598943,1262.0066198598943,,,,,,,,,,,,,,,,,,,,,,,,,,,,114,001,2010-10-15_14h19.54.522,eb_01,2022.2.4,119.98732365479623,
,,,0,0,0,0,65,0,65,0,,,,,,,,,,,,,,,,,,,,,,,,,,,,,,,,,,,,,,,,,,,,,,,,,,,,,,,,,,,114,001,2010-10-15_14h19.54.522,eb_01,2022.2.4,119.98732365479623,
6,stimuli/6.png,s,0,0,0,0,66,0,66,0,0,0,0,0,,,,,,,,,,,,,,,,,,1263.023458228563,1263.023458228563,1263.023458228563,1263.023458228563,s,1,0.5898882731853519,1263.6401287689805,1263.6401287689805,1263.6401287689805,,,,,,,,,,,,,,,,,,,,,,,,,,,,114,001,2010-10-15_14h19.54.522,eb_01,2022.2.4,119.98732365479623,
,,,0,0,0,0,66,0,66,0,,,,,,,,,,,,,,,,,,,,,,,,,,,,,,,,,,,,,,,,,,,,,,,,,,,,,,,,,,,114,001,2010-10-15_14h19.54.522,eb_01,2022.2.4,119.98732365479623,
8,stimuli/8.png,l,0,0,0,0,67,0,67,0,0,0,0,0,,,,,,,,,,,,,,,,,,1264.6402256626461,1264.6402256626461,1264.6402256626461,1264.6402256626461,l,1,0.4371147296624258,1265.098595796444,1265.098595796444,1265.098595796444,,,,,,,,,,,,,,,,,,,,,,,,,,,,114,001,2010-10-15_14h19.54.522,eb_01,2022.2.4,119.98732365479623,
,,,0,0,0,0,67,0,67,0,,,,,,,,,,,,,,,,,,,,,,,,,,,,,,,,,,,,,,,,,,,,,,,,,,,,,,,,,,,114,001,2010-10-15_14h19.54.522,eb_01,2022.2.4,119.98732365479623,
6,stimuli/6.png,s,0,0,0,0,68,0,68,0,0,0,0,0,,,,,,,,,,,,,,,,,,1266.1236710324301,1266.1236710324301,1266.1236710324301,1266.1236710324301,s,1,0.521707127278205,1266.6736883887788,1266.6736883887788,1266.6736883887788,,,,,,,,,,,,,,,,,,,,,,,,,,,,114,001,2010-10-15_14h19.54.522,eb_01,2022.2.4,119.98732365479623,
,,,0,0,0,0,68,0,68,0,,,,,,,,,,,,,,,,,,,,,,,,,,,,,,,,,,,,,,,,,,,,,,,,,,,,,,,,,,,114,001,2010-10-15_14h19.54.522,eb_01,2022.2.4,119.98732365479623,
9,stimuli/9.png,l,0,0,0,0,69,0,69,0,0,0,0,0,,,,,,,,,,,,,,,,,,1267.6821117989894,1267.6821117989894,1267.6821117989894,1267.6821117989894,l,1,0.3792698138859123,1268.0905249463685,1268.0905249463685,1268.0905249463685,,,,,,,,,,,,,,,,,,,,,,,,,,,,114,001,2010-10-15_14h19.54.522,eb_01,2022.2.4,119.98732365479623,
,,,0,0,0,0,69,0,69,0,,,,,,,,,,,,,,,,,,,,,,,,,,,,,,,,,,,,,,,,,,,,,,,,,,,,,,,,,,,114,001,2010-10-15_14h19.54.522,eb_01,2022.2.4,119.98732365479623,
6,stimuli/6.png,s,0,0,0,0,70,0,70,0,0,0,0,0,,,,,,,,,,,,,,,,,,1269.1072715528135,1269.1072715528135,1269.1072715528135,1269.1072715528135,s,1,0.46617558551952243,1269.5989362826222,1269.5989362826222,1269.5989362826222,,,,,,,,,,,,,,,,,,,,,,,,,,,,114,001,2010-10-15_14h19.54.522,eb_01,2022.2.4,119.98732365479623,
,,,0,0,0,0,70,0,70,0,,,,,,,,,,,,,,,,,,,,,,,,,,,,,,,,,,,,,,,,,,,,,,,,,,,,,,,,,,,114,001,2010-10-15_14h19.54.522,eb_01,2022.2.4,119.98732365479623,
8,stimuli/8.png,l,0,0,0,0,71,0,71,0,0,0,0,0,,,,,,,,,,,,,,,,,,1270.5990669834136,1270.5990669834136,1270.5990669834136,1270.5990669834136,l,1,0.41346241190331057,1271.0324288918346,1271.0324288918346,1271.0324288918346,,,,,,,,,,,,,,,,,,,,,,,,,,,,114,001,2010-10-15_14h19.54.522,eb_01,2022.2.4,119.98732365479623,
,,,0,0,0,0,71,0,71,0,,,,,,,,,,,,,,,,,,,,,,,,,,,,,,,,,,,,,,,,,,,,,,,,,,,,,,,,,,,114,001,2010-10-15_14h19.54.522,eb_01,2022.2.4,119.98732365479623,
6,stimuli/6.png,s,0,0,0,0,72,0,72,0,0,0,0,0,,,,,,,,,,,,,,,,,,1272.0574968834117,1272.0574968834117,1272.0574968834117,1272.0574968834117,s,1,0.3869902167643886,1272.4742181345064,1272.4742181345064,1272.4742181345064,,,,,,,,,,,,,,,,,,,,,,,,,,,,114,001,2010-10-15_14h19.54.522,eb_01,2022.2.4,119.98732365479623,
,,,0,0,0,0,72,0,72,0,,,,,,,,,,,,,,,,,,,,,,,,,,,,,,,,,,,,,,,,,,,,,,,,,,,,,,,,,,,114,001,2010-10-15_14h19.54.522,eb_01,2022.2.4,119.98732365479623,
9,stimuli/9.png,l,0,0,0,0,73,0,73,0,0,0,0,0,,,,,,,,,,,,,,,,,,1273.4826279615227,1273.4826279615227,1273.4826279615227,1273.4826279615227,l,1,0.521881294407649,1274.032653467817,1274.032653467817,1274.032653467817,,,,,,,,,,,,,,,,,,,,,,,,,,,,114,001,2010-10-15_14h19.54.522,eb_01,2022.2.4,119.98732365479623,
,,,0,0,0,0,73,0,73,0,,,,,,,,,,,,,,,,,,,,,,,,,,,,,,,,,,,,,,,,,,,,,,,,,,,,,,,,,,,114,001,2010-10-15_14h19.54.522,eb_01,2022.2.4,119.98732365479623,
5,stimuli/5.png,s,0,0,0,0,74,0,74,0,0,0,0,0,,,,,,,,,,,,,,,,,,1275.032766057644,1275.032766057644,1275.032766057644,1275.032766057644,s,1,0.4677802171208896,1275.5244745555974,1275.5244745555974,1275.5244745555974,,,,,,,,,,,,,,,,,,,,,,,,,,,,114,001,2010-10-15_14h19.54.522,eb_01,2022.2.4,119.98732365479623,
,,,0,0,0,0,74,0,74,0,,,,,,,,,,,,,,,,,,,,,,,,,,,,,,,,,,,,,,,,,,,,,,,,,,,,,,,,,,,114,001,2010-10-15_14h19.54.522,eb_01,2022.2.4,119.98732365479623,
9,stimuli/9.png,l,0,0,0,0,75,0,75,0,0,0,0,0,,,,,,,,,,,,,,,,,,1276.5412401785725,1276.5412401785725,1276.5412401785725,1276.5412401785725,l,1,0.3433515426295344,1276.916264552914,1276.916264552914,1276.916264552914,,,,,,,,,,,,,,,,,,,,,,,,,,,,114,001,2010-10-15_14h19.54.522,eb_01,2022.2.4,119.98732365479623,
,,,0,0,0,0,75,0,75,0,,,,,,,,,,,,,,,,,,,,,,,,,,,,,,,,,,,,,,,,,,,,,,,,,,,,,,,,,,,114,001,2010-10-15_14h19.54.522,eb_01,2022.2.4,119.98732365479623,
8,stimuli/8.png,l,0,0,0,0,76,0,76,0,0,0,0,0,,,,,,,,,,,,,,,,,,1277.9163596355065,1277.9163596355065,1277.9163596355065,1277.9163596355065,l,1,0.5602454516047146,1278.4997322595736,1278.4997322595736,1278.4997322595736,,,,,,,,,,,,,,,,,,,,,,,,,,,,114,001,2010-10-15_14h19.54.522,eb_01,2022.2.4,119.98732365479623,
,,,0,0,0,0,76,0,76,0,,,,,,,,,,,,,,,,,,,,,,,,,,,,,,,,,,,,,,,,,,,,,,,,,,,,,,,,,,,114,001,2010-10-15_14h19.54.522,eb_01,2022.2.4,119.98732365479623,
9,stimuli/9.png,l,0,0,0,0,77,0,77,0,0,0,0,0,,,,,,,,,,,,,,,,,,1279.5164933548076,1279.5164933548076,1279.5164933548076,1279.5164933548076,l,1,0.5201326806563884,1280.0665191629087,1280.0665191629087,1280.0665191629087,,,,,,,,,,,,,,,,,,,,,,,,,,,,114,001,2010-10-15_14h19.54.522,eb_01,2022.2.4,119.98732365479623,
,,,0,0,0,0,77,0,77,0,,,,,,,,,,,,,,,,,,,,,,,,,,,,,,,,,,,,,,,,,,,,,,,,,,,,,,,,,,,114,001,2010-10-15_14h19.54.522,eb_01,2022.2.4,119.98732365479623,
5,stimuli/5.png,s,0,0,0,0,78,0,78,0,0,0,0,0,,,,,,,,,,,,,,,,,,1281.0666519766673,1281.0666519766673,1281.0666519766673,1281.0666519766673,s,1,0.4501235346251633,1281.5332855405286,1281.5332855405286,1281.5332855405286,,,,,,,,,,,,,,,,,,,,,,,,,,,,114,001,2010-10-15_14h19.54.522,eb_01,2022.2.4,119.98732365479623,
,,,0,0,0,0,78,0,78,0,,,,,,,,,,,,,,,,,,,,,,,,,,,,,,,,,,,,,,,,,,,,,,,,,,,,,,,,,,,114,001,2010-10-15_14h19.54.522,eb_01,2022.2.4,119.98732365479623,
9,stimuli/9.png,l,0,0,0,0,79,0,79,0,0,0,0,0,,,,,,,,,,,,,,,,,,1282.5500538801425,1282.5500538801425,1282.5500538801425,1282.5500538801425,l,1,0.34262831139494665,1282.9251075338689,1282.9251075338689,1282.9251075338689,,,,,,,,,,,,,,,,,,,,,,,,,,,,114,001,2010-10-15_14h19.54.522,eb_01,2022.2.4,119.98732365479623,
,,,0,0,0,0,79,0,79,0,,,,,,,,,,,,,,,,,,,,,,,,,,,,,,,,,,,,,,,,,,,,,,,,,,,,,,,,,,,114,001,2010-10-15_14h19.54.522,eb_01,2022.2.4,119.98732365479623,
6,stimuli/6.png,s,0,0,0,0,80,0,80,0,0,0,0,0,,,,,,,,,,,,,,,,,,1283.9418650068983,1283.9418650068983,1283.9418650068983,1283.9418650068983,s,1,0.6468526941898745,1284.6169234902482,1284.6169234902482,1284.6169234902482,,,,,,,,,,,,,,,,,,,,,,,,,,,,114,001,2010-10-15_14h19.54.522,eb_01,2022.2.4,119.98732365479623,
,,,0,0,0,0,80,0,80,0,,,,,,,,,,,,,,,,,,,,,,,,,,,,,,,,,,,,,,,,,,,,,,,,,,,,,,,,,,,114,001,2010-10-15_14h19.54.522,eb_01,2022.2.4,119.98732365479623,
9,stimuli/9.png,l,0,0,0,0,81,0,81,0,0,0,0,0,,,,,,,,,,,,,,,,,,1285.6253499189625,1285.6253499189625,1285.6253499189625,1285.6253499189625,l,1,0.4024898832431063,1286.0587275235448,1286.0587275235448,1286.0587275235448,,,,,,,,,,,,,,,,,,,,,,,,,,,,114,001,2010-10-15_14h19.54.522,eb_01,2022.2.4,119.98732365479623,
,,,0,0,0,0,81,0,81,0,,,,,,,,,,,,,,,,,,,,,,,,,,,,,,,,,,,,,,,,,,,,,,,,,,,,,,,,,,,114,001,2010-10-15_14h19.54.522,eb_01,2022.2.4,119.98732365479623,
5,stimuli/5.png,s,0,0,0,0,82,0,82,0,0,0,0,0,,,,,,,,,,,,,,,,,,1287.058770084317,1287.058770084317,1287.058770084317,1287.058770084317,s,1,0.49703425660845824,1287.5755043149402,1287.5755043149402,1287.5755043149402,,,,,,,,,,,,,,,,,,,,,,,,,,,,114,001,2010-10-15_14h19.54.522,eb_01,2022.2.4,119.98732365479623,
,,,0,0,0,0,82,0,82,0,,,,,,,,,,,,,,,,,,,,,,,,,,,,,,,,,,,,,,,,,,,,,,,,,,,,,,,,,,,114,001,2010-10-15_14h19.54.522,eb_01,2022.2.4,119.98732365479623,
9,stimuli/9.png,l,0,0,0,0,83,0,83,0,0,0,0,0,,,,,,,,,,,,,,,,,,1288.5922687305138,1288.5922687305138,1288.5922687305138,1288.5922687305138,l,1,0.36353711964329705,1288.983956702723,1288.983956702723,1288.983956702723,,,,,,,,,,,,,,,,,,,,,,,,,,,,114,001,2010-10-15_14h19.54.522,eb_01,2022.2.4,119.98732365479623,
,,,0,0,0,0,83,0,83,0,,,,,,,,,,,,,,,,,,,,,,,,,,,,,,,,,,,,,,,,,,,,,,,,,,,,,,,,,,,114,001,2010-10-15_14h19.54.522,eb_01,2022.2.4,119.98732365479623,
5,stimuli/5.png,s,0,0,0,0,84,0,84,0,0,0,0,0,,,,,,,,,,,,,,,,,,1289.984023713303,1289.984023713303,1289.984023713303,1289.984023713303,s,1,0.45987357309786603,1290.4673839615425,1290.4673839615425,1290.4673839615425,,,,,,,,,,,,,,,,,,,,,,,,,,,,114,001,2010-10-15_14h19.54.522,eb_01,2022.2.4,119.98732365479623,
,,,0,0,0,0,84,0,84,0,,,,,,,,,,,,,,,,,,,,,,,,,,,,,,,,,,,,,,,,,,,,,,,,,,,,,,,,,,,114,001,2010-10-15_14h19.54.522,eb_01,2022.2.4,119.98732365479623,
9,stimuli/9.png,l,0,0,0,0,85,0,85,0,0,0,0,0,,,,,,,,,,,,,,,,,,1291.4841695065843,1291.4841695065843,1291.4841695065843,1291.4841695065843,l,1,0.3757055758032948,1291.892550054181,1291.892550054181,1291.892550054181,,,,,,,,,,,,,,,,,,,,,,,,,,,,114,001,2010-10-15_14h19.54.522,eb_01,2022.2.4,119.98732365479623,
,,,0,0,0,0,85,0,85,0,,,,,,,,,,,,,,,,,,,,,,,,,,,,,,,,,,,,,,,,,,,,,,,,,,,,,,,,,,,114,001,2010-10-15_14h19.54.522,eb_01,2022.2.4,119.98732365479623,
6,stimuli/6.png,s,0,0,0,0,86,0,86,0,0,0,0,0,,,,,,,,,,,,,,,,,,1292.9093051124364,1292.9093051124364,1292.9093051124364,1292.9093051124364,s,1,0.36661658753291704,1293.3010229677311,1293.3010229677311,1293.3010229677311,,,,,,,,,,,,,,,,,,,,,,,,,,,,114,001,2010-10-15_14h19.54.522,eb_01,2022.2.4,119.98732365479623,
,,,0,0,0,0,86,0,86,0,,,,,,,,,,,,,,,,,,,,,,,,,,,,,,,,,,,,,,,,,,,,,,,,,,,,,,,,,,,114,001,2010-10-15_14h19.54.522,eb_01,2022.2.4,119.98732365479623,
9,stimuli/9.png,l,0,0,0,0,87,0,87,0,0,0,0,0,,,,,,,,,,,,,,,,,,1294.3094249466667,1294.3094249466667,1294.3094249466667,1294.3094249466667,l,1,0.4384993130224757,1294.7760923176538,1294.7760923176538,1294.7760923176538,,,,,,,,,,,,,,,,,,,,,,,,,,,,114,001,2010-10-15_14h19.54.522,eb_01,2022.2.4,119.98732365479623,
,,,0,0,0,0,87,0,87,0,,,,,,,,,,,,,,,,,,,,,,,,,,,,,,,,,,,,,,,,,,,,,,,,,,,,,,,,,,,114,001,2010-10-15_14h19.54.522,eb_01,2022.2.4,119.98732365479623,
8,stimuli/8.png,l,0,0,0,0,88,0,88,0,0,0,0,0,,,,,,,,,,,,,,,,,,1295.7761970594001,1295.7761970594001,1295.7761970594001,1295.7761970594001,l,1,0.5397580251737963,1296.3345602506597,1296.3345602506597,1296.3345602506597,,,,,,,,,,,,,,,,,,,,,,,,,,,,114,001,2010-10-15_14h19.54.522,eb_01,2022.2.4,119.98732365479623,
,,,0,0,0,0,88,0,88,0,,,,,,,,,,,,,,,,,,,,,,,,,,,,,,,,,,,,,,,,,,,,,,,,,,,,,,,,,,,114,001,2010-10-15_14h19.54.522,eb_01,2022.2.4,119.98732365479623,
3,stimuli/3.png,l,0,0,0,0,89,0,89,0,0,0,0,0,,,,,,,,,,,,,,,,,,1297.3430165624886,1297.3430165624886,1297.3430165624886,1297.3430165624886,l,1,0.4689679946168326,1297.8263876773126,1297.8263876773126,1297.8263876773126,1298.834801730205,1298.834801730205,1298.834801730205,,,,,,,,,,,,,,,,,,,,,,,,,114,001,2010-10-15_14h19.54.522,eb_01,2022.2.4,119.98732365479623,
,,,0,0,0,0,89,0,89,0,,,,,,,,,,,,,,,,,,,,,,,,,,,,,,,,,,,,,,,,,,,,,,,,,,,,,,,,,,,114,001,2010-10-15_14h19.54.522,eb_01,2022.2.4,119.98732365479623,
2,stimuli/2.png,s,0,0,0,0,90,0,90,0,0,0,0,0,,,,,,,,,,,,,,,,,,1298.834801730205,1298.834801730205,1298.834801730205,1298.834801730205,s,1,0.865218722843565,1299.7098792300385,1299.7098792300385,1299.7098792300385,1300.7266379104985,1300.7266379104985,1300.7266379104985,,,,,,,,,,,,,,,,,,,,,,,,,114,001,2010-10-15_14h19.54.522,eb_01,2022.2.4,119.98732365479623,
,,,0,0,0,0,90,0,90,0,,,,,,,,,,,,,,,,,,,,,,,,,,,,,,,,,,,,,,,,,,,,,,,,,,,,,,,,,,,114,001,2010-10-15_14h19.54.522,eb_01,2022.2.4,119.98732365479623,
4,stimuli/4.png,l,0,0,0,0,91,0,91,0,0,0,0,0,,,,,,,,,,,,,,,,,,1300.7266379104985,1300.7266379104985,1300.7266379104985,1300.7266379104985,l,1,1.3485264492919669,1302.0933777253376,1302.0933777253376,1302.0933777253376,,,,,,,,,,,,,,,,,,,,,,,,,,,,114,001,2010-10-15_14h19.54.522,eb_01,2022.2.4,119.98732365479623,
,,,0,0,0,0,91,0,91,0,,,,,,,,,,,,,,,,,,,,,,,,,,,,,,,,,,,,,,,,,,,,,,,,,,,,,,,,,,,114,001,2010-10-15_14h19.54.522,eb_01,2022.2.4,119.98732365479623,
1,stimuli/1.png,s,0,0,0,0,92,0,92,0,0,0,0,0,,,,,,,,,,,,,,,,,,1303.1185078978888,1303.1185078978888,1303.1185078978888,1303.1185078978888,s,1,0.6926009940216318,1303.8435707580356,1303.8435707580356,1303.8435707580356,,,,,,,,,,,,,,,,,,,,,,,,,,,,114,001,2010-10-15_14h19.54.522,eb_01,2022.2.4,119.98732365479623,
,,,0,0,0,0,92,0,92,0,,,,,,,,,,,,,,,,,,,,,,,,,,,,,,,,,,,,,,,,,,,,,,,,,,,,,,,,,,,114,001,2010-10-15_14h19.54.522,eb_01,2022.2.4,119.98732365479623,
4,stimuli/4.png,l,0,0,0,0,93,0,93,0,0,0,0,0,,,,,,,,,,,,,,,,,,1304.8519793776504,1304.8519793776504,1304.8519793776504,1304.8519793776504,l,1,0.4871680061041843,1305.3603234014881,1305.3603234014881,1305.3603234014881,,,,,,,,,,,,,,,,,,,,,,,,,,,,114,001,2010-10-15_14h19.54.522,eb_01,2022.2.4,119.98732365479623,
,,,0,0,0,0,93,0,93,0,,,,,,,,,,,,,,,,,,,,,,,,,,,,,,,,,,,,,,,,,,,,,,,,,,,,,,,,,,,114,001,2010-10-15_14h19.54.522,eb_01,2022.2.4,119.98732365479623,
3,stimuli/3.png,l,0,0,0,0,94,0,94,0,0,0,0,0,,,,,,,,,,,,,,,,,,1306.3687893725,1306.3687893725,1306.3687893725,1306.3687893725,l,1,0.530406729754759,1306.9104895695928,1306.9104895695928,1306.9104895695928,1307.9272926218982,1307.9272926218982,1307.9272926218982,,,,,,,,,,,,,,,,,,,,,,,,,114,001,2010-10-15_14h19.54.522,eb_01,2022.2.4,119.98732365479623,
,,,0,0,0,0,94,0,94,0,,,,,,,,,,,,,,,,,,,,,,,,,,,,,,,,,,,,,,,,,,,,,,,,,,,,,,,,,,,114,001,2010-10-15_14h19.54.522,eb_01,2022.2.4,119.98732365479623,
4,stimuli/4.png,l,0,0,0,0,95,0,95,0,0,0,0,0,,,,,,,,,,,,,,,,,,1307.9272926218982,1307.9272926218982,1307.9272926218982,1307.9272926218982,l,1,0.5959035286505241,1308.5439296570257,1308.5439296570257,1308.5439296570257,,,,,,,,,,,,,,,,,,,,,,,,,,,,114,001,2010-10-15_14h19.54.522,eb_01,2022.2.4,119.98732365479623,
,,,0,0,0,0,95,0,95,0,,,,,,,,,,,,,,,,,,,,,,,,,,,,,,,,,,,,,,,,,,,,,,,,,,,,,,,,,,,114,001,2010-10-15_14h19.54.522,eb_01,2022.2.4,119.98732365479623,
1,stimuli/1.png,s,0,0,0,0,96,0,96,0,0,0,0,0,,,,,,,,,,,,,,,,,,1309.5607254649221,1309.5607254649221,1309.5607254649221,1309.5607254649221,s,1,0.4665501806885004,1310.0524028724176,1310.0524028724176,1310.0524028724176,,,,,,,,,,,,,,,,,,,,,,,,,,,,114,001,2010-10-15_14h19.54.522,eb_01,2022.2.4,119.98732365479623,
,,,0,0,0,0,96,0,96,0,,,,,,,,,,,,,,,,,,,,,,,,,,,,,,,,,,,,,,,,,,,,,,,,,,,,,,,,,,,114,001,2010-10-15_14h19.54.522,eb_01,2022.2.4,119.98732365479623,
2,stimuli/2.png,s,0,0,0,0,97,0,97,0,0,0,0,0,,,,,,,,,,,,,,,,,,1311.0525064067624,1311.0525064067624,1311.0525064067624,1311.0525064067624,l,0,0.8227717502450105,1311.8942120371503,1311.8942120371503,1311.8942120371503,,,,,,,,,,,,,,,,,,,,,,,,,,,,114,001,2010-10-15_14h19.54.522,eb_01,2022.2.4,119.98732365479623,
,,,0,0,0,0,97,0,97,0,,,,,,,,,,,,,,,,,,,,,,,,,,,,,,,,,,,,,,,,,,,,,,,,,,,,,,,,,,,114,001,2010-10-15_14h19.54.522,eb_01,2022.2.4,119.98732365479623,
3,stimuli/3.png,l,0,0,0,0,98,0,98,0,0,0,0,0,,,,,,,,,,,,,,,,,,1312.9026780081622,1312.9026780081622,1312.9026780081622,1312.9026780081622,l,1,0.5406303700292483,1313.461050556769,1313.461050556769,1313.461050556769,,,,,,,,,,,,,,,,,,,,,,,,,,,,114,001,2010-10-15_14h19.54.522,eb_01,2022.2.4,119.98732365479623,
,,,0,0,0,0,98,0,98,0,,,,,,,,,,,,,,,,,,,,,,,,,,,,,,,,,,,,,,,,,,,,,,,,,,,,,,,,,,,114,001,2010-10-15_14h19.54.522,eb_01,2022.2.4,119.98732365479623,
8,stimuli/8.png,l,0,0,0,0,99,0,99,0,0,0,0,0,,,,,,,,,,,,,,,,,,1314.4694790984504,1314.4694790984504,1314.4694790984504,1314.4694790984504,l,1,0.533853548404295,1315.0278525525937,1315.0278525525937,1315.0278525525937,,,,,,,,,,,,,,,,,,,,,,,,,,,,114,001,2010-10-15_14h19.54.522,eb_01,2022.2.4,119.98732365479623,
,,,0,0,0,0,99,0,99,0,,,,,,,,,,,,,,,,,,,,,,,,,,,,,,,,,,,,,,,,,,,,,,,,,,,,,,,,,,,114,001,2010-10-15_14h19.54.522,eb_01,2022.2.4,119.98732365479623,
,,,0,0,0,0,,,,,,,,,,,,,,,,,,,,,,,,,,,,,,,,,,,,,,,1316.0279373723024,1316.0279373723024,return,15.0787295033806,,,,,,,,,,,,,,,,,,,,,114,001,2010-10-15_14h19.54.522,eb_01,2022.2.4,119.98732365479623,
9,stimuli/9.png,l,1,0,1,0,0,0,0,0,0,0,0,0,,,,,,,,,,,,,,,,,,1331.1458620970661,1331.1458620970661,1331.1458620970661,1331.1458620970661,l,1,1.7118924930109642,1332.8876757895632,1332.8876757895632,1332.8876757895632,,,,,,,,,,,,,,,,,,,,,,,,,,,,114,001,2010-10-15_14h19.54.522,eb_01,2022.2.4,119.98732365479623,
,,,1,0,1,0,0,0,0,0,,,,,,,,,,,,,,,,,,,,,,,,,,,,,,,,,,,,,,,,,,,,,,,,,,,,,,,,,,,114,001,2010-10-15_14h19.54.522,eb_01,2022.2.4,119.98732365479623,
6,stimuli/6.png,s,1,0,1,0,1,0,1,0,0,0,0,0,,,,,,,,,,,,,,,,,,1333.9044740122918,1333.9044740122918,1333.9044740122918,1333.9044740122918,s,1,0.4813263140677009,1334.412859993201,1334.412859993201,1334.412859993201,,,,,,,,,,,,,,,,,,,,,,,,,,,,114,001,2010-10-15_14h19.54.522,eb_01,2022.2.4,119.98732365479623,
,,,1,0,1,0,1,0,1,0,,,,,,,,,,,,,,,,,,,,,,,,,,,,,,,,,,,,,,,,,,,,,,,,,,,,,,,,,,,114,001,2010-10-15_14h19.54.522,eb_01,2022.2.4,119.98732365479623,
5,stimuli/5.png,s,1,0,1,0,2,0,2,0,0,0,0,0,,,,,,,,,,,,,,,,,,1335.4129022521083,1335.4129022521083,1335.4129022521083,1335.4129022521083,s,1,0.396856769133592,1335.829628634645,1335.829628634645,1335.829628634645,,,,,,,,,,,,,,,,,,,,,,,,,,,,114,001,2010-10-15_14h19.54.522,eb_01,2022.2.4,119.98732365479623,
,,,1,0,1,0,2,0,2,0,,,,,,,,,,,,,,,,,,,,,,,,,,,,,,,,,,,,,,,,,,,,,,,,,,,,,,,,,,,114,001,2010-10-15_14h19.54.522,eb_01,2022.2.4,119.98732365479623,
6,stimuli/6.png,s,1,0,1,0,3,0,3,0,0,0,0,0,,,,,,,,,,,,,,,,,,1336.8547720885836,1336.8547720885836,1336.8547720885836,1336.8547720885836,s,1,0.42699492565589026,1337.3130863802508,1337.3130863802508,1337.3130863802508,,,,,,,,,,,,,,,,,,,,,,,,,,,,114,001,2010-10-15_14h19.54.522,eb_01,2022.2.4,119.98732365479623,
,,,1,0,1,0,3,0,3,0,,,,,,,,,,,,,,,,,,,,,,,,,,,,,,,,,,,,,,,,,,,,,,,,,,,,,,,,,,,114,001,2010-10-15_14h19.54.522,eb_01,2022.2.4,119.98732365479623,
5,stimuli/5.png,s,1,0,1,0,4,0,4,0,0,0,0,0,,,,,,,,,,,,,,,,,,1338.3131708980945,1338.3131708980945,1338.3131708980945,1338.3131708980945,s,1,0.4086919834953733,1338.7465451823373,1338.7465451823373,1338.7465451823373,,,,,,,,,,,,,,,,,,,,,,,,,,,,114,001,2010-10-15_14h19.54.522,eb_01,2022.2.4,119.98732365479623,
,,,1,0,1,0,4,0,4,0,,,,,,,,,,,,,,,,,,,,,,,,,,,,,,,,,,,,,,,,,,,,,,,,,,,,,,,,,,,114,001,2010-10-15_14h19.54.522,eb_01,2022.2.4,119.98732365479623,
9,stimuli/9.png,l,1,0,1,0,5,0,5,0,0,0,0,0,,,,,,,,,,,,,,,,,,1339.7633053720347,1339.7633053720347,1339.7633053720347,1339.7633053720347,l,1,0.45451574568869546,1340.2466435852693,1340.2466435852693,1340.2466435852693,,,,,,,,,,,,,,,,,,,,,,,,,,,,114,001,2010-10-15_14h19.54.522,eb_01,2022.2.4,119.98732365479623,
,,,1,0,1,0,5,0,5,0,,,,,,,,,,,,,,,,,,,,,,,,,,,,,,,,,,,,,,,,,,,,,,,,,,,,,,,,,,,114,001,2010-10-15_14h19.54.522,eb_01,2022.2.4,119.98732365479623,
6,stimuli/6.png,s,1,0,1,0,6,0,6,0,0,0,0,0,,,,,,,,,,,,,,,,,,1341.2634019638353,1341.2634019638353,1341.2634019638353,1341.2634019638353,s,1,0.4664946403936483,1341.755134307925,1341.755134307925,1341.755134307925,,,,,,,,,,,,,,,,,,,,,,,,,,,,114,001,2010-10-15_14h19.54.522,eb_01,2022.2.4,119.98732365479623,
,,,1,0,1,0,6,0,6,0,,,,,,,,,,,,,,,,,,,,,,,,,,,,,,,,,,,,,,,,,,,,,,,,,,,,,,,,,,,114,001,2010-10-15_14h19.54.522,eb_01,2022.2.4,119.98732365479623,
5,stimuli/5.png,s,1,0,1,0,7,0,7,0,0,0,0,0,,,,,,,,,,,,,,,,,,1342.7552233535098,1342.7552233535098,1342.7552233535098,1342.7552233535098,s,1,0.3986723934940528,1343.1719083826756,1343.1719083826756,1343.1719083826756,,,,,,,,,,,,,,,,,,,,,,,,,,,,114,001,2010-10-15_14h19.54.522,eb_01,2022.2.4,119.98732365479623,
,,,1,0,1,0,7,0,7,0,,,,,,,,,,,,,,,,,,,,,,,,,,,,,,,,,,,,,,,,,,,,,,,,,,,,,,,,,,,114,001,2010-10-15_14h19.54.522,eb_01,2022.2.4,119.98732365479623,
6,stimuli/6.png,s,1,0,1,0,8,0,8,0,0,0,0,0,,,,,,,,,,,,,,,,,,1344.1970204442623,1344.1970204442623,1344.1970204442623,1344.1970204442623,s,1,0.3969150260963943,1344.6220603638503,1344.6220603638503,1344.6220603638503,,,,,,,,,,,,,,,,,,,,,,,,,,,,114,001,2010-10-15_14h19.54.522,eb_01,2022.2.4,119.98732365479623,
,,,1,0,1,0,8,0,8,0,,,,,,,,,,,,,,,,,,,,,,,,,,,,,,,,,,,,,,,,,,,,,,,,,,,,,,,,,,,114,001,2010-10-15_14h19.54.522,eb_01,2022.2.4,119.98732365479623,
9,stimuli/9.png,l,1,0,1,0,9,0,9,0,0,0,0,0,,,,,,,,,,,,,,,,,,1345.6304738130711,1345.6304738130711,1345.6304738130711,1345.6304738130711,l,1,0.5314948969462421,1346.1888451542764,1346.1888451542764,1346.1888451542764,,,,,,,,,,,,,,,,,,,,,,,,,,,,114,001,2010-10-15_14h19.54.522,eb_01,2022.2.4,119.98732365479623,
,,,1,0,1,0,9,0,9,0,,,,,,,,,,,,,,,,,,,,,,,,,,,,,,,,,,,,,,,,,,,,,,,,,,,,,,,,,,,114,001,2010-10-15_14h19.54.522,eb_01,2022.2.4,119.98732365479623,
6,stimuli/6.png,s,1,0,1,0,10,0,10,0,0,0,0,0,,,,,,,,,,,,,,,,,,1347.2056174179306,1347.2056174179306,1347.2056174179306,1347.2056174179306,s,1,0.460368908039527,1347.6972724885563,1347.6972724885563,1347.6972724885563,,,,,,,,,,,,,,,,,,,,,,,,,,,,114,001,2010-10-15_14h19.54.522,eb_01,2022.2.4,119.98732365479623,
,,,1,0,1,0,10,0,10,0,,,,,,,,,,,,,,,,,,,,,,,,,,,,,,,,,,,,,,,,,,,,,,,,,,,,,,,,,,,114,001,2010-10-15_14h19.54.522,eb_01,2022.2.4,119.98732365479623,
9,stimuli/9.png,l,1,0,1,0,11,0,11,0,0,0,0,0,,,,,,,,,,,,,,,,,,1348.7057233670785,1348.7057233670785,1348.7057233670785,1348.7057233670785,l,1,0.4233431512257084,1349.1557570232835,1349.1557570232835,1349.1557570232835,,,,,,,,,,,,,,,,,,,,,,,,,,,,114,001,2010-10-15_14h19.54.522,eb_01,2022.2.4,119.98732365479623,
,,,1,0,1,0,11,0,11,0,,,,,,,,,,,,,,,,,,,,,,,,,,,,,,,,,,,,,,,,,,,,,,,,,,,,,,,,,,,114,001,2010-10-15_14h19.54.522,eb_01,2022.2.4,119.98732365479623,
5,stimuli/5.png,s,1,0,1,0,12,0,12,0,0,0,0,0,,,,,,,,,,,,,,,,,,1350.155849389208,1350.155849389208,1350.155849389208,1350.155849389208,s,1,0.5732044514152221,1350.747565433412,1350.747565433412,1350.747565433412,,,,,,,,,,,,,,,,,,,,,,,,,,,,114,001,2010-10-15_14h19.54.522,eb_01,2022.2.4,119.98732365479623,
,,,1,0,1,0,12,0,12,0,,,,,,,,,,,,,,,,,,,,,,,,,,,,,,,,,,,,,,,,,,,,,,,,,,,,,,,,,,,114,001,2010-10-15_14h19.54.522,eb_01,2022.2.4,119.98732365479623,
6,stimuli/6.png,s,1,0,1,0,13,0,13,0,0,0,0,0,,,,,,,,,,,,,,,,,,1351.772638858296,1351.772638858296,1351.772638858296,1351.772638858296,s,1,0.6204713557090145,1352.4227159808215,1352.4227159808215,1352.4227159808215,,,,,,,,,,,,,,,,,,,,,,,,,,,,114,001,2010-10-15_14h19.54.522,eb_01,2022.2.4,119.98732365479623,
,,,1,0,1,0,13,0,13,0,,,,,,,,,,,,,,,,,,,,,,,,,,,,,,,,,,,,,,,,,,,,,,,,,,,,,,,,,,,114,001,2010-10-15_14h19.54.522,eb_01,2022.2.4,119.98732365479623,
5,stimuli/5.png,s,1,0,1,0,14,0,14,0,0,0,0,0,,,,,,,,,,,,,,,,,,1353.422805931943,1353.422805931943,1353.422805931943,1353.422805931943,s,1,0.4423180101730395,1353.8894669640868,1353.8894669640868,1353.8894669640868,,,,,,,,,,,,,,,,,,,,,,,,,,,,114,001,2010-10-15_14h19.54.522,eb_01,2022.2.4,119.98732365479623,
,,,1,0,1,0,14,0,14,0,,,,,,,,,,,,,,,,,,,,,,,,,,,,,,,,,,,,,,,,,,,,,,,,,,,,,,,,,,,114,001,2010-10-15_14h19.54.522,eb_01,2022.2.4,119.98732365479623,
9,stimuli/9.png,l,1,0,1,0,15,0,15,0,0,0,0,0,,,,,,,,,,,,,,,,,,1354.9062842033163,1354.9062842033163,1354.9062842033163,1354.9062842033163,l,1,0.48687611770583317,1355.42295987517,1355.42295987517,1355.42295987517,,,,,,,,,,,,,,,,,,,,,,,,,,,,114,001,2010-10-15_14h19.54.522,eb_01,2022.2.4,119.98732365479623,
,,,1,0,1,0,15,0,15,0,,,,,,,,,,,,,,,,,,,,,,,,,,,,,,,,,,,,,,,,,,,,,,,,,,,,,,,,,,,114,001,2010-10-15_14h19.54.522,eb_01,2022.2.4,119.98732365479623,
8,stimuli/8.png,l,1,0,1,0,16,0,16,0,0,0,0,0,,,,,,,,,,,,,,,,,,1356.4230646169162,1356.4230646169162,1356.4230646169162,1356.4230646169162,l,1,0.562112692190567,1357.0064327132422,1357.0064327132422,1357.0064327132422,,,,,,,,,,,,,,,,,,,,,,,,,,,,114,001,2010-10-15_14h19.54.522,eb_01,2022.2.4,119.98732365479623,
,,,1,0,1,0,16,0,16,0,,,,,,,,,,,,,,,,,,,,,,,,,,,,,,,,,,,,,,,,,,,,,,,,,,,,,,,,,,,114,001,2010-10-15_14h19.54.522,eb_01,2022.2.4,119.98732365479623,
6,stimuli/6.png,s,1,0,1,0,17,0,17,0,0,0,0,0,,,,,,,,,,,,,,,,,,1358.0315333045728,1358.0315333045728,1358.0315333045728,1358.0315333045728,s,1,0.43370715144556016,1358.4982275401417,1358.4982275401417,1358.4982275401417,,,,,,,,,,,,,,,,,,,,,,,,,,,,114,001,2010-10-15_14h19.54.522,eb_01,2022.2.4,119.98732365479623,
,,,1,0,1,0,17,0,17,0,,,,,,,,,,,,,,,,,,,,,,,,,,,,,,,,,,,,,,,,,,,,,,,,,,,,,,,,,,,114,001,2010-10-15_14h19.54.522,eb_01,2022.2.4,119.98732365479623,
9,stimuli/9.png,l,1,0,1,0,18,0,18,0,0,0,0,0,,,,,,,,,,,,,,,,,,1359.5066461208044,1359.5066461208044,1359.5066461208044,1359.5066461208044,l,1,0.46259806607849896,1359.998370616784,1359.998370616784,1359.998370616784,,,,,,,,,,,,,,,,,,,,,,,,,,,,114,001,2010-10-15_14h19.54.522,eb_01,2022.2.4,119.98732365479623,
,,,1,0,1,0,18,0,18,0,,,,,,,,,,,,,,,,,,,,,,,,,,,,,,,,,,,,,,,,,,,,,,,,,,,,,,,,,,,114,001,2010-10-15_14h19.54.522,eb_01,2022.2.4,119.98732365479623,
6,stimuli/6.png,s,1,0,1,0,19,0,19,0,0,0,0,0,,,,,,,,,,,,,,,,,,1361.0151072622102,1361.0151072622102,1361.0151072622102,1361.0151072622102,s,1,0.33018577596521936,1361.3734432870406,1361.3734432870406,1361.3734432870406,,,,,,,,,,,,,,,,,,,,,,,,,,,,114,001,2010-10-15_14h19.54.522,eb_01,2022.2.4,119.98732365479623,
,,,1,0,1,0,19,0,19,0,,,,,,,,,,,,,,,,,,,,,,,,,,,,,,,,,,,,,,,,,,,,,,,,,,,,,,,,,,,114,001,2010-10-15_14h19.54.522,eb_01,2022.2.4,119.98732365479623,
8,stimuli/8.png,l,1,0,1,0,20,0,20,0,0,0,0,0,,,,,,,,,,,,,,,,,,1362.3735727804305,1362.3735727804305,1362.3735727804305,1362.3735727804305,l,1,0.3877448403509334,1362.7819047303055,1362.7819047303055,1362.7819047303055,,,,,,,,,,,,,,,,,,,,,,,,,,,,114,001,2010-10-15_14h19.54.522,eb_01,2022.2.4,119.98732365479623,
,,,1,0,1,0,20,0,20,0,,,,,,,,,,,,,,,,,,,,,,,,,,,,,,,,,,,,,,,,,,,,,,,,,,,,,,,,,,,114,001,2010-10-15_14h19.54.522,eb_01,2022.2.4,119.98732365479623,
9,stimuli/9.png,l,1,0,1,0,21,0,21,0,0,0,0,0,,,,,,,,,,,,,,,,,,1363.798654958955,1363.798654958955,1363.798654958955,1363.798654958955,l,1,0.5137518855335657,1364.3403983205208,1364.3403983205208,1364.3403983205208,,,,,,,,,,,,,,,,,,,,,,,,,,,,114,001,2010-10-15_14h19.54.522,eb_01,2022.2.4,119.98732365479623,
,,,1,0,1,0,21,0,21,0,,,,,,,,,,,,,,,,,,,,,,,,,,,,,,,,,,,,,,,,,,,,,,,,,,,,,,,,,,,114,001,2010-10-15_14h19.54.522,eb_01,2022.2.4,119.98732365479623,
5,stimuli/5.png,s,1,0,1,0,22,0,22,0,0,0,0,0,,,,,,,,,,,,,,,,,,1365.340500647464,1365.340500647464,1365.340500647464,1365.340500647464,s,1,0.5398657853947952,1365.8988599147124,1365.8988599147124,1365.8988599147124,,,,,,,,,,,,,,,,,,,,,,,,,,,,114,001,2010-10-15_14h19.54.522,eb_01,2022.2.4,119.98732365479623,
,,,1,0,1,0,22,0,22,0,,,,,,,,,,,,,,,,,,,,,,,,,,,,,,,,,,,,,,,,,,,,,,,,,,,,,,,,,,,114,001,2010-10-15_14h19.54.522,eb_01,2022.2.4,119.98732365479623,
6,stimuli/6.png,s,1,0,1,0,23,0,23,0,0,0,0,0,,,,,,,,,,,,,,,,,,1366.92395809124,1366.92395809124,1366.92395809124,1366.92395809124,s,1,0.3804340471397154,1367.3323156982951,1367.3323156982951,1367.3323156982951,,,,,,,,,,,,,,,,,,,,,,,,,,,,114,001,2010-10-15_14h19.54.522,eb_01,2022.2.4,119.98732365479623,
,,,1,0,1,0,23,0,23,0,,,,,,,,,,,,,,,,,,,,,,,,,,,,,,,,,,,,,,,,,,,,,,,,,,,,,,,,,,,114,001,2010-10-15_14h19.54.522,eb_01,2022.2.4,119.98732365479623,
5,stimuli/5.png,s,1,0,1,0,24,0,24,0,0,0,0,0,,,,,,,,,,,,,,,,,,1368.3324222511437,1368.3324222511437,1368.3324222511437,1368.3324222511437,s,1,0.44402406315202825,1368.7990721148672,1368.7990721148672,1368.7990721148672,,,,,,,,,,,,,,,,,,,,,,,,,,,,114,001,2010-10-15_14h19.54.522,eb_01,2022.2.4,119.98732365479623,
,,,1,0,1,0,24,0,24,0,,,,,,,,,,,,,,,,,,,,,,,,,,,,,,,,,,,,,,,,,,,,,,,,,,,,,,,,,,,114,001,2010-10-15_14h19.54.522,eb_01,2022.2.4,119.98732365479623,
6,stimuli/6.png,s,1,0,1,0,25,0,25,0,0,0,0,0,,,,,,,,,,,,,,,,,,1369.8241630469856,1369.8241630469856,1369.8241630469856,1369.8241630469856,s,1,0.4242822047963273,1370.2742136067827,1370.2742136067827,1370.2742136067827,,,,,,,,,,,,,,,,,,,,,,,,,,,,114,001,2010-10-15_14h19.54.522,eb_01,2022.2.4,119.98732365479623,
,,,1,0,1,0,25,0,25,0,,,,,,,,,,,,,,,,,,,,,,,,,,,,,,,,,,,,,,,,,,,,,,,,,,,,,,,,,,,114,001,2010-10-15_14h19.54.522,eb_01,2022.2.4,119.98732365479623,
9,stimuli/9.png,l,1,0,1,0,26,0,26,0,0,0,0,0,,,,,,,,,,,,,,,,,,1371.2826397336612,1371.2826397336612,1371.2826397336612,1371.2826397336612,l,1,0.42981329376925714,1371.7409914546588,1371.7409914546588,1371.7409914546588,,,,,,,,,,,,,,,,,,,,,,,,,,,,114,001,2010-10-15_14h19.54.522,eb_01,2022.2.4,119.98732365479623,
,,,1,0,1,0,26,0,26,0,,,,,,,,,,,,,,,,,,,,,,,,,,,,,,,,,,,,,,,,,,,,,,,,,,,,,,,,,,,114,001,2010-10-15_14h19.54.522,eb_01,2022.2.4,119.98732365479623,
5,stimuli/5.png,s,1,0,1,0,27,0,27,0,0,0,0,0,,,,,,,,,,,,,,,,,,1372.7411124962673,1372.7411124962673,1372.7411124962673,1372.7411124962673,s,1,0.4994080005562864,1373.257833143667,1373.257833143667,1373.257833143667,,,,,,,,,,,,,,,,,,,,,,,,,,,,114,001,2010-10-15_14h19.54.522,eb_01,2022.2.4,119.98732365479623,
,,,1,0,1,0,27,0,27,0,,,,,,,,,,,,,,,,,,,,,,,,,,,,,,,,,,,,,,,,,,,,,,,,,,,,,,,,,,,114,001,2010-10-15_14h19.54.522,eb_01,2022.2.4,119.98732365479623,
9,stimuli/9.png,l,1,0,1,0,28,0,28,0,0,0,0,0,,,,,,,,,,,,,,,,,,1374.2745725057612,1374.2745725057612,1374.2745725057612,1374.2745725057612,l,1,0.4939448277000338,1374.7996187641693,1374.7996187641693,1374.7996187641693,,,,,,,,,,,,,,,,,,,,,,,,,,,,114,001,2010-10-15_14h19.54.522,eb_01,2022.2.4,119.98732365479623,
,,,1,0,1,0,28,0,28,0,,,,,,,,,,,,,,,,,,,,,,,,,,,,,,,,,,,,,,,,,,,,,,,,,,,,,,,,,,,114,001,2010-10-15_14h19.54.522,eb_01,2022.2.4,119.98732365479623,
5,stimuli/5.png,s,1,0,1,0,29,0,29,0,0,0,0,0,,,,,,,,,,,,,,,,,,1375.7996957357682,1375.7996957357682,1375.7996957357682,1375.7996957357682,s,1,0.4169119472207967,1376.2413862737012,1376.2413862737012,1376.2413862737012,,,,,,,,,,,,,,,,,,,,,,,,,,,,114,001,2010-10-15_14h19.54.522,eb_01,2022.2.4,119.98732365479623,
,,,1,0,1,0,29,0,29,0,,,,,,,,,,,,,,,,,,,,,,,,,,,,,,,,,,,,,,,,,,,,,,,,,,,,,,,,,,,114,001,2010-10-15_14h19.54.522,eb_01,2022.2.4,119.98732365479623,
9,stimuli/9.png,l,1,0,1,0,30,0,30,0,0,0,0,0,,,,,,,,,,,,,,,,,,1377.258212568413,1377.258212568413,1377.258212568413,1377.258212568413,l,1,0.33440110328956507,1377.6248745061166,1377.6248745061166,1377.6248745061166,,,,,,,,,,,,,,,,,,,,,,,,,,,,114,001,2010-10-15_14h19.54.522,eb_01,2022.2.4,119.98732365479623,
,,,1,0,1,0,30,0,30,0,,,,,,,,,,,,,,,,,,,,,,,,,,,,,,,,,,,,,,,,,,,,,,,,,,,,,,,,,,,114,001,2010-10-15_14h19.54.522,eb_01,2022.2.4,119.98732365479623,
5,stimuli/5.png,s,1,0,1,0,31,0,31,0,0,0,0,0,,,,,,,,,,,,,,,,,,1378.6249614387343,1378.6249614387343,1378.6249614387343,1378.6249614387343,s,1,0.3436585235176608,1378.9916547687899,1378.9916547687899,1378.9916547687899,,,,,,,,,,,,,,,,,,,,,,,,,,,,114,001,2010-10-15_14h19.54.522,eb_01,2022.2.4,119.98732365479623,
,,,1,0,1,0,31,0,31,0,,,,,,,,,,,,,,,,,,,,,,,,,,,,,,,,,,,,,,,,,,,,,,,,,,,,,,,,,,,114,001,2010-10-15_14h19.54.522,eb_01,2022.2.4,119.98732365479623,
9,stimuli/9.png,l,1,0,1,0,32,0,32,0,0,0,0,0,,,,,,,,,,,,,,,,,,1380.0084098270163,1380.0084098270163,1380.0084098270163,1380.0084098270163,l,1,0.3592879851930775,1380.4000754623557,1380.4000754623557,1380.4000754623557,,,,,,,,,,,,,,,,,,,,,,,,,,,,114,001,2010-10-15_14h19.54.522,eb_01,2022.2.4,119.98732365479623,
,,,1,0,1,0,32,0,32,0,,,,,,,,,,,,,,,,,,,,,,,,,,,,,,,,,,,,,,,,,,,,,,,,,,,,,,,,,,,114,001,2010-10-15_14h19.54.522,eb_01,2022.2.4,119.98732365479623,
6,stimuli/6.png,s,1,0,1,0,33,0,33,0,0,0,0,0,,,,,,,,,,,,,,,,,,1381.4168507445138,1381.4168507445138,1381.4168507445138,1381.4168507445138,s,1,0.35883370181545615,1381.808548375906,1381.808548375906,1381.808548375906,,,,,,,,,,,,,,,,,,,,,,,,,,,,114,001,2010-10-15_14h19.54.522,eb_01,2022.2.4,119.98732365479623,
,,,1,0,1,0,33,0,33,0,,,,,,,,,,,,,,,,,,,,,,,,,,,,,,,,,,,,,,,,,,,,,,,,,,,,,,,,,,,114,001,2010-10-15_14h19.54.522,eb_01,2022.2.4,119.98732365479623,
8,stimuli/8.png,l,1,0,1,0,34,0,34,0,0,0,0,0,,,,,,,,,,,,,,,,,,1382.8086510047142,1382.8086510047142,1382.8086510047142,1382.8086510047142,l,1,0.3830631556629669,1383.2086368177843,1383.2086368177843,1383.2086368177843,,,,,,,,,,,,,,,,,,,,,,,,,,,,114,001,2010-10-15_14h19.54.522,eb_01,2022.2.4,119.98732365479623,
,,,1,0,1,0,34,0,34,0,,,,,,,,,,,,,,,,,,,,,,,,,,,,,,,,,,,,,,,,,,,,,,,,,,,,,,,,,,,114,001,2010-10-15_14h19.54.522,eb_01,2022.2.4,119.98732365479623,
3,stimuli/3.png,l,1,0,1,0,35,0,35,0,0,0,0,0,,,,,,,,,,,,,,,,,,1384.217103090632,1384.217103090632,1384.217103090632,1384.217103090632,l,1,0.4466320422361605,1384.6754653763783,1384.6754653763783,1384.6754653763783,1385.6839141419623,1385.6839141419623,1385.6839141419623,,,,,,,,,,,,,,,,,,,,,,,,,114,001,2010-10-15_14h19.54.522,eb_01,2022.2.4,119.98732365479623,
,,,1,0,1,0,35,0,35,0,,,,,,,,,,,,,,,,,,,,,,,,,,,,,,,,,,,,,,,,,,,,,,,,,,,,,,,,,,,114,001,2010-10-15_14h19.54.522,eb_01,2022.2.4,119.98732365479623,
8,stimuli/8.png,l,1,0,1,0,36,0,36,0,0,0,0,0,,,,,,,,,,,,,,,,,,1385.6839141419623,1385.6839141419623,1385.6839141419623,1385.6839141419623,l,1,0.45984851961839013,1386.1672562792373,1386.1672562792373,1386.1672562792373,,,,,,,,,,,,,,,,,,,,,,,,,,,,114,001,2010-10-15_14h19.54.522,eb_01,2022.2.4,119.98732365479623,
,,,1,0,1,0,36,0,36,0,,,,,,,,,,,,,,,,,,,,,,,,,,,,,,,,,,,,,,,,,,,,,,,,,,,,,,,,,,,114,001,2010-10-15_14h19.54.522,eb_01,2022.2.4,119.98732365479623,
3,stimuli/3.png,l,1,0,1,0,37,0,37,0,0,0,0,0,,,,,,,,,,,,,,,,,,1387.1756881412584,1387.1756881412584,1387.1756881412584,1387.1756881412584,l,1,0.4081139418412931,1387.59238132037,1387.59238132037,1387.59238132037,1388.6091333600925,1388.6091333600925,1388.6091333600925,,,,,,,,,,,,,,,,,,,,,,,,,114,001,2010-10-15_14h19.54.522,eb_01,2022.2.4,119.98732365479623,
,,,1,0,1,0,37,0,37,0,,,,,,,,,,,,,,,,,,,,,,,,,,,,,,,,,,,,,,,,,,,,,,,,,,,,,,,,,,,114,001,2010-10-15_14h19.54.522,eb_01,2022.2.4,119.98732365479623,
4,stimuli/4.png,l,1,0,1,0,38,0,38,0,0,0,0,0,,,,,,,,,,,,,,,,,,1388.6091333600925,1388.6091333600925,1388.6091333600925,1388.6091333600925,l,1,0.9426959256525151,1389.5758991340117,1389.5758991340117,1389.5758991340117,,,,,,,,,,,,,,,,,,,,,,,,,,,,114,001,2010-10-15_14h19.54.522,eb_01,2022.2.4,119.98732365479623,
,,,1,0,1,0,38,0,38,0,,,,,,,,,,,,,,,,,,,,,,,,,,,,,,,,,,,,,,,,,,,,,,,,,,,,,,,,,,,114,001,2010-10-15_14h19.54.522,eb_01,2022.2.4,119.98732365479623,
3,stimuli/3.png,l,1,0,1,0,39,0,39,0,0,0,0,0,,,,,,,,,,,,,,,,,,1390.584316205408,1390.584316205408,1390.584316205408,1390.584316205408,l,1,0.47954811906674877,1391.076013534941,1391.076013534941,1391.076013534941,1392.0844297007716,1392.0844297007716,1392.0844297007716,,,,,,,,,,,,,,,,,,,,,,,,,114,001,2010-10-15_14h19.54.522,eb_01,2022.2.4,119.98732365479623,
,,,1,0,1,0,39,0,39,0,,,,,,,,,,,,,,,,,,,,,,,,,,,,,,,,,,,,,,,,,,,,,,,,,,,,,,,,,,,114,001,2010-10-15_14h19.54.522,eb_01,2022.2.4,119.98732365479623,
8,stimuli/8.png,l,1,0,1,0,40,0,40,0,0,0,0,0,,,,,,,,,,,,,,,,,,1392.0844297007716,1392.0844297007716,1392.0844297007716,1392.0844297007716,l,1,0.3874819295015186,1392.4927972688747,1392.4927972688747,1392.4927972688747,,,,,,,,,,,,,,,,,,,,,,,,,,,,114,001,2010-10-15_14h19.54.522,eb_01,2022.2.4,119.98732365479623,
,,,1,0,1,0,40,0,40,0,,,,,,,,,,,,,,,,,,,,,,,,,,,,,,,,,,,,,,,,,,,,,,,,,,,,,,,,,,,114,001,2010-10-15_14h19.54.522,eb_01,2022.2.4,119.98732365479623,
3,stimuli/3.png,l,1,0,1,0,41,0,41,0,0,0,0,0,,,,,,,,,,,,,,,,,,1393.5012294327316,1393.5012294327316,1393.5012294327316,1393.5012294327316,l,1,0.3626979782420676,1393.8762344887073,1393.8762344887073,1393.8762344887073,1394.8930257688917,1394.8930257688917,1394.8930257688917,,,,,,,,,,,,,,,,,,,,,,,,,114,001,2010-10-15_14h19.54.522,eb_01,2022.2.4,119.98732365479623,
,,,1,0,1,0,41,0,41,0,,,,,,,,,,,,,,,,,,,,,,,,,,,,,,,,,,,,,,,,,,,,,,,,,,,,,,,,,,,114,001,2010-10-15_14h19.54.522,eb_01,2022.2.4,119.98732365479623,
8,stimuli/8.png,l,1,0,1,0,42,0,42,0,0,0,0,0,,,,,,,,,,,,,,,,,,1394.8930257688917,1394.8930257688917,1394.8930257688917,1394.8930257688917,l,1,0.3699912642186973,1395.2846705766278,1395.2846705766278,1395.2846705766278,,,,,,,,,,,,,,,,,,,,,,,,,,,,114,001,2010-10-15_14h19.54.522,eb_01,2022.2.4,119.98732365479623,
,,,1,0,1,0,42,0,42,0,,,,,,,,,,,,,,,,,,,,,,,,,,,,,,,,,,,,,,,,,,,,,,,,,,,,,,,,,,,114,001,2010-10-15_14h19.54.522,eb_01,2022.2.4,119.98732365479623,
6,stimuli/6.png,s,1,0,1,0,43,0,43,0,0,0,0,0,,,,,,,,,,,,,,,,,,1396.3098064843507,1396.3098064843507,1396.3098064843507,1396.3098064843507,s,1,0.30524063712800853,1396.643138811516,1396.643138811516,1396.643138811516,,,,,,,,,,,,,,,,,,,,,,,,,,,,114,001,2010-10-15_14h19.54.522,eb_01,2022.2.4,119.98732365479623,
,,,1,0,1,0,43,0,43,0,,,,,,,,,,,,,,,,,,,,,,,,,,,,,,,,,,,,,,,,,,,,,,,,,,,,,,,,,,,114,001,2010-10-15_14h19.54.522,eb_01,2022.2.4,119.98732365479623,
8,stimuli/8.png,l,1,0,1,0,44,0,44,0,0,0,0,0,,,,,,,,,,,,,,,,,,1397.6432501939416,1397.6432501939416,1397.6432501939416,1397.6432501939416,l,1,0.39575471688294783,1398.0599303935305,1398.0599303935305,1398.0599303935305,,,,,,,,,,,,,,,,,,,,,,,,,,,,114,001,2010-10-15_14h19.54.522,eb_01,2022.2.4,119.98732365479623,
,,,1,0,1,0,44,0,44,0,,,,,,,,,,,,,,,,,,,,,,,,,,,,,,,,,,,,,,,,,,,,,,,,,,,,,,,,,,,114,001,2010-10-15_14h19.54.522,eb_01,2022.2.4,119.98732365479623,
3,stimuli/3.png,l,1,0,1,0,45,0,45,0,0,0,0,0,,,,,,,,,,,,,,,,,,1399.0683704054973,1399.0683704054973,1399.0683704054973,1399.0683704054973,s,0,0.4266695319674909,1399.5183636138681,1399.5183636138681,1399.5183636138681,,,,,,,,,,,,,,,,,,,,,,,,,,,,114,001,2010-10-15_14h19.54.522,eb_01,2022.2.4,119.98732365479623,
,,,1,0,1,0,45,0,45,0,,,,,,,,,,,,,,,,,,,,,,,,,,,,,,,,,,,,,,,,,,,,,,,,,,,,,,,,,,,114,001,2010-10-15_14h19.54.522,eb_01,2022.2.4,119.98732365479623,
8,stimuli/8.png,l,1,0,1,0,46,0,46,0,0,0,0,0,,,,,,,,,,,,,,,,,,1400.5268313959823,1400.5268313959823,1400.5268313959823,1400.5268313959823,l,1,0.4242308904067613,1400.9685219338862,1400.9685219338862,1400.9685219338862,,,,,,,,,,,,,,,,,,,,,,,,,,,,114,001,2010-10-15_14h19.54.522,eb_01,2022.2.4,119.98732365479623,
,,,1,0,1,0,46,0,46,0,,,,,,,,,,,,,,,,,,,,,,,,,,,,,,,,,,,,,,,,,,,,,,,,,,,,,,,,,,,114,001,2010-10-15_14h19.54.522,eb_01,2022.2.4,119.98732365479623,
3,stimuli/3.png,l,1,0,1,0,47,0,47,0,0,0,0,0,,,,,,,,,,,,,,,,,,1401.976954399608,1401.976954399608,1401.976954399608,1401.976954399608,l,1,0.6621434808475897,1402.6520011108078,1402.6520011108078,1402.6520011108078,1403.6687646208447,1403.6687646208447,1403.6687646208447,,,,,,,,,,,,,,,,,,,,,,,,,114,001,2010-10-15_14h19.54.522,eb_01,2022.2.4,119.98732365479623,
,,,1,0,1,0,47,0,47,0,,,,,,,,,,,,,,,,,,,,,,,,,,,,,,,,,,,,,,,,,,,,,,,,,,,,,,,,,,,114,001,2010-10-15_14h19.54.522,eb_01,2022.2.4,119.98732365479623,
4,stimuli/4.png,l,1,0,1,0,48,0,48,0,0,0,0,0,,,,,,,,,,,,,,,,,,1403.6687646208447,1403.6687646208447,1403.6687646208447,1403.6687646208447,l,1,0.5943622854538262,1404.2854734961293,1404.2854734961293,1404.2854734961293,,,,,,,,,,,,,,,,,,,,,,,,,,,,114,001,2010-10-15_14h19.54.522,eb_01,2022.2.4,119.98732365479623,
,,,1,0,1,0,48,0,48,0,,,,,,,,,,,,,,,,,,,,,,,,,,,,,,,,,,,,,,,,,,,,,,,,,,,,,,,,,,,114,001,2010-10-15_14h19.54.522,eb_01,2022.2.4,119.98732365479623,
1,stimuli/1.png,s,1,0,1,0,49,0,49,0,0,0,0,0,,,,,,,,,,,,,,,,,,1405.3105695596896,1405.3105695596896,1405.3105695596896,1405.3105695596896,s,1,0.57659422053257,1405.9189470888232,1405.9189470888232,1405.9189470888232,,,,,,,,,,,,,,,,,,,,,,,,,,,,114,001,2010-10-15_14h19.54.522,eb_01,2022.2.4,119.98732365479623,
,,,1,0,1,0,49,0,49,0,,,,,,,,,,,,,,,,,,,,,,,,,,,,,,,,,,,,,,,,,,,,,,,,,,,,,,,,,,,114,001,2010-10-15_14h19.54.522,eb_01,2022.2.4,119.98732365479623,
2,stimuli/2.png,s,1,0,1,0,50,0,50,0,0,0,0,0,,,,,,,,,,,,,,,,,,1406.9190418695507,1406.9190418695507,1406.9190418695507,1406.9190418695507,s,1,1.304167562368093,1408.2358114165545,1408.2358114165545,1408.2358114165545,1409.2442450896779,1409.2442450896779,1409.2442450896779,,,,,,,,,,,,,,,,,,,,,,,,,114,001,2010-10-15_14h19.54.522,eb_01,2022.2.4,119.98732365479623,
,,,1,0,1,0,50,0,50,0,,,,,,,,,,,,,,,,,,,,,,,,,,,,,,,,,,,,,,,,,,,,,,,,,,,,,,,,,,,114,001,2010-10-15_14h19.54.522,eb_01,2022.2.4,119.98732365479623,
3,stimuli/3.png,l,1,0,1,0,51,0,51,0,0,0,0,0,,,,,,,,,,,,,,,,,,1409.2442450896779,1409.2442450896779,1409.2442450896779,1409.2442450896779,l,1,0.4830052006000187,1409.7359309489257,1409.7359309489257,1409.7359309489257,1410.7443561702676,1410.7443561702676,1410.7443561702676,,,,,,,,,,,,,,,,,,,,,,,,,114,001,2010-10-15_14h19.54.522,eb_01,2022.2.4,119.98732365479623,
,,,1,0,1,0,51,0,51,0,,,,,,,,,,,,,,,,,,,,,,,,,,,,,,,,,,,,,,,,,,,,,,,,,,,,,,,,,,,114,001,2010-10-15_14h19.54.522,eb_01,2022.2.4,119.98732365479623,
2,stimuli/2.png,s,1,0,1,0,52,0,52,0,0,0,0,0,,,,,,,,,,,,,,,,,,1410.7443561702676,1410.7443561702676,1410.7443561702676,1410.7443561702676,s,1,0.7340096045809332,1411.4944348020363,1411.4944348020363,1411.4944348020363,1412.5028524771333,1412.5028524771333,1412.5028524771333,,,,,,,,,,,,,,,,,,,,,,,,,114,001,2010-10-15_14h19.54.522,eb_01,2022.2.4,119.98732365479623,
,,,1,0,1,0,52,0,52,0,,,,,,,,,,,,,,,,,,,,,,,,,,,,,,,,,,,,,,,,,,,,,,,,,,,,,,,,,,,114,001,2010-10-15_14h19.54.522,eb_01,2022.2.4,119.98732365479623,
3,stimuli/3.png,l,1,0,1,0,53,0,53,0,0,0,0,0,,,,,,,,,,,,,,,,,,1412.5028524771333,1412.5028524771333,1412.5028524771333,1412.5028524771333,l,1,0.3034672717039939,1412.819511849113,1412.819511849113,1412.819511849113,1413.8279672553763,1413.8279672553763,1413.8279672553763,,,,,,,,,,,,,,,,,,,,,,,,,114,001,2010-10-15_14h19.54.522,eb_01,2022.2.4,119.98732365479623,
,,,1,0,1,0,53,0,53,0,,,,,,,,,,,,,,,,,,,,,,,,,,,,,,,,,,,,,,,,,,,,,,,,,,,,,,,,,,,114,001,2010-10-15_14h19.54.522,eb_01,2022.2.4,119.98732365479623,
8,stimuli/8.png,l,1,0,1,0,54,0,54,0,0,0,0,0,,,,,,,,,,,,,,,,,,1413.8279672553763,1413.8279672553763,1413.8279672553763,1413.8279672553763,l,1,0.43436427766573615,1414.2863410113787,1414.2863410113787,1414.2863410113787,,,,,,,,,,,,,,,,,,,,,,,,,,,,114,001,2010-10-15_14h19.54.522,eb_01,2022.2.4,119.98732365479623,
,,,1,0,1,0,54,0,54,0,,,,,,,,,,,,,,,,,,,,,,,,,,,,,,,,,,,,,,,,,,,,,,,,,,,,,,,,,,,114,001,2010-10-15_14h19.54.522,eb_01,2022.2.4,119.98732365479623,
3,stimuli/3.png,l,1,0,1,0,55,0,55,0,0,0,0,0,,,,,,,,,,,,,,,,,,1415.2947571772384,1415.2947571772384,1415.2947571772384,1415.2947571772384,l,1,0.38363455663784407,1415.694782532577,1415.694782532577,1415.694782532577,1416.7115430241101,1416.7115430241101,1416.7115430241101,,,,,,,,,,,,,,,,,,,,,,,,,114,001,2010-10-15_14h19.54.522,eb_01,2022.2.4,119.98732365479623,
,,,1,0,1,0,55,0,55,0,,,,,,,,,,,,,,,,,,,,,,,,,,,,,,,,,,,,,,,,,,,,,,,,,,,,,,,,,,,114,001,2010-10-15_14h19.54.522,eb_01,2022.2.4,119.98732365479623,
4,stimuli/4.png,l,1,0,1,0,56,0,56,0,0,0,0,0,,,,,,,,,,,,,,,,,,1416.7115430241101,1416.7115430241101,1416.7115430241101,1416.7115430241101,s,0,0.5028499896288849,1417.2365584938962,1417.2365584938962,1417.2365584938962,,,,,,,,,,,,,,,,,,,,,,,,,,,,114,001,2010-10-15_14h19.54.522,eb_01,2022.2.4,119.98732365479623,
,,,1,0,1,0,56,0,56,0,,,,,,,,,,,,,,,,,,,,,,,,,,,,,,,,,,,,,,,,,,,,,,,,,,,,,,,,,,,114,001,2010-10-15_14h19.54.522,eb_01,2022.2.4,119.98732365479623,
3,stimuli/3.png,l,1,0,1,0,57,0,57,0,0,0,0,0,,,,,,,,,,,,,,,,,,1418.245017220528,1418.245017220528,1418.245017220528,1418.245017220528,l,1,0.41740335812210105,1418.6867122861731,1418.6867122861731,1418.6867122861731,,,,,,,,,,,,,,,,,,,,,,,,,,,,114,001,2010-10-15_14h19.54.522,eb_01,2022.2.4,119.98732365479623,
,,,1,0,1,0,57,0,57,0,,,,,,,,,,,,,,,,,,,,,,,,,,,,,,,,,,,,,,,,,,,,,,,,,,,,,,,,,,,114,001,2010-10-15_14h19.54.522,eb_01,2022.2.4,119.98732365479623,
4,stimuli/4.png,l,1,0,1,0,58,0,58,0,0,0,0,0,,,,,,,,,,,,,,,,,,1419.7034670425928,1419.7034670425928,1419.7034670425928,1419.7034670425928,l,1,0.5270042829797603,1420.2534868137154,1420.2534868137154,1420.2534868137154,,,,,,,,,,,,,,,,,,,,,,,,,,,,114,001,2010-10-15_14h19.54.522,eb_01,2022.2.4,119.98732365479623,
,,,1,0,1,0,58,0,58,0,,,,,,,,,,,,,,,,,,,,,,,,,,,,,,,,,,,,,,,,,,,,,,,,,,,,,,,,,,,114,001,2010-10-15_14h19.54.522,eb_01,2022.2.4,119.98732365479623,
2,stimuli/2.png,s,1,0,1,0,59,0,59,0,0,0,0,0,,,,,,,,,,,,,,,,,,1421.2619328626606,1421.2619328626606,1421.2619328626606,1421.2619328626606,s,1,0.5525697224074975,1421.8286415870243,1421.8286415870243,1421.8286415870243,1422.8537122952403,1422.8537122952403,1422.8537122952403,,,,,,,,,,,,,,,,,,,,,,,,,114,001,2010-10-15_14h19.54.522,eb_01,2022.2.4,119.98732365479623,
,,,1,0,1,0,59,0,59,0,,,,,,,,,,,,,,,,,,,,,,,,,,,,,,,,,,,,,,,,,,,,,,,,,,,,,,,,,,,114,001,2010-10-15_14h19.54.522,eb_01,2022.2.4,119.98732365479623,
1,stimuli/1.png,s,1,0,1,0,60,0,60,0,0,0,0,0,,,,,,,,,,,,,,,,,,1422.8537122952403,1422.8537122952403,1422.8537122952403,1422.8537122952403,s,1,0.5768000818206929,1423.4621091427398,1423.4621091427398,1423.4621091427398,,,,,,,,,,,,,,,,,,,,,,,,,,,,114,001,2010-10-15_14h19.54.522,eb_01,2022.2.4,119.98732365479623,
,,,1,0,1,0,60,0,60,0,,,,,,,,,,,,,,,,,,,,,,,,,,,,,,,,,,,,,,,,,,,,,,,,,,,,,,,,,,,114,001,2010-10-15_14h19.54.522,eb_01,2022.2.4,119.98732365479623,
4,stimuli/4.png,l,1,0,1,0,61,0,61,0,0,0,0,0,,,,,,,,,,,,,,,,,,1424.4705464380386,1424.4705464380386,1424.4705464380386,1424.4705464380386,l,1,0.5439987078134436,1425.0372116960643,1425.0372116960643,1425.0372116960643,,,,,,,,,,,,,,,,,,,,,,,,,,,,114,001,2010-10-15_14h19.54.522,eb_01,2022.2.4,119.98732365479623,
,,,1,0,1,0,61,0,61,0,,,,,,,,,,,,,,,,,,,,,,,,,,,,,,,,,,,,,,,,,,,,,,,,,,,,,,,,,,,114,001,2010-10-15_14h19.54.522,eb_01,2022.2.4,119.98732365479623,
2,stimuli/2.png,s,1,0,1,0,62,0,62,0,0,0,0,0,,,,,,,,,,,,,,,,,,1426.0456749504374,1426.0456749504374,1426.0456749504374,1426.0456749504374,s,1,0.6959958945808467,1426.754058818391,1426.754058818391,1426.754058818391,1427.7624870582076,1427.7624870582076,1427.7624870582076,,,,,,,,,,,,,,,,,,,,,,,,,114,001,2010-10-15_14h19.54.522,eb_01,2022.2.4,119.98732365479623,
,,,1,0,1,0,62,0,62,0,,,,,,,,,,,,,,,,,,,,,,,,,,,,,,,,,,,,,,,,,,,,,,,,,,,,,,,,,,,114,001,2010-10-15_14h19.54.522,eb_01,2022.2.4,119.98732365479623,
3,stimuli/3.png,l,1,0,1,0,63,0,63,0,0,0,0,0,,,,,,,,,,,,,,,,,,1427.7624870582076,1427.7624870582076,1427.7624870582076,1427.7624870582076,l,1,0.4431266648171004,1428.2208508531912,1428.2208508531912,1428.2208508531912,1429.2292790930078,1429.2292790930078,1429.2292790930078,,,,,,,,,,,,,,,,,,,,,,,,,114,001,2010-10-15_14h19.54.522,eb_01,2022.2.4,119.98732365479623,
,,,1,0,1,0,63,0,63,0,,,,,,,,,,,,,,,,,,,,,,,,,,,,,,,,,,,,,,,,,,,,,,,,,,,,,,,,,,,114,001,2010-10-15_14h19.54.522,eb_01,2022.2.4,119.98732365479623,
2,stimuli/2.png,s,1,0,1,0,64,0,64,0,0,0,0,0,,,,,,,,,,,,,,,,,,1429.2292790930078,1429.2292790930078,1429.2292790930078,1429.2292790930078,s,1,0.6003853889997117,1429.8459641221853,1429.8459641221853,1429.8459641221853,1430.8710417729453,1430.8710417729453,1430.8710417729453,,,,,,,,,,,,,,,,,,,,,,,,,114,001,2010-10-15_14h19.54.522,eb_01,2022.2.4,119.98732365479623,
,,,1,0,1,0,64,0,64,0,,,,,,,,,,,,,,,,,,,,,,,,,,,,,,,,,,,,,,,,,,,,,,,,,,,,,,,,,,,114,001,2010-10-15_14h19.54.522,eb_01,2022.2.4,119.98732365479623,
1,stimuli/1.png,s,1,0,1,0,65,0,65,0,0,0,0,0,,,,,,,,,,,,,,,,,,1430.8710417729453,1430.8710417729453,1430.8710417729453,1430.8710417729453,l,0,0.49461282047559507,1431.3961209329718,1431.3961209329718,1431.3961209329718,,,,,,,,,,,,,,,,,,,,,,,,,,,,114,001,2010-10-15_14h19.54.522,eb_01,2022.2.4,119.98732365479623,
,,,1,0,1,0,65,0,65,0,,,,,,,,,,,,,,,,,,,,,,,,,,,,,,,,,,,,,,,,,,,,,,,,,,,,,,,,,,,114,001,2010-10-15_14h19.54.522,eb_01,2022.2.4,119.98732365479623,
2,stimuli/2.png,s,1,0,1,0,66,0,66,0,0,0,0,0,,,,,,,,,,,,,,,,,,1432.396192169428,1432.396192169428,1432.396192169428,1432.396192169428,s,1,0.8335293621348683,1433.2462756308087,1433.2462756308087,1433.2462756308087,,,,,,,,,,,,,,,,,,,,,,,,,,,,114,001,2010-10-15_14h19.54.522,eb_01,2022.2.4,119.98732365479623,
,,,1,0,1,0,66,0,66,0,,,,,,,,,,,,,,,,,,,,,,,,,,,,,,,,,,,,,,,,,,,,,,,,,,,,,,,,,,,114,001,2010-10-15_14h19.54.522,eb_01,2022.2.4,119.98732365479623,
4,stimuli/4.png,l,1,0,1,0,67,0,67,0,0,0,0,0,,,,,,,,,,,,,,,,,,1434.2630418574845,1434.2630418574845,1434.2630418574845,1434.2630418574845,l,1,0.518681086745346,1434.8047203214082,1434.8047203214082,1434.8047203214082,,,,,,,,,,,,,,,,,,,,,,,,,,,,114,001,2010-10-15_14h19.54.522,eb_01,2022.2.4,119.98732365479623,
,,,1,0,1,0,67,0,67,0,,,,,,,,,,,,,,,,,,,,,,,,,,,,,,,,,,,,,,,,,,,,,,,,,,,,,,,,,,,114,001,2010-10-15_14h19.54.522,eb_01,2022.2.4,119.98732365479623,
3,stimuli/3.png,l,1,0,1,0,68,0,68,0,0,0,0,0,,,,,,,,,,,,,,,,,,1435.8131307521253,1435.8131307521253,1435.8131307521253,1435.8131307521253,l,1,0.5766823605517857,1436.4049020347884,1436.4049020347884,1436.4049020347884,1437.413310956239,1437.413310956239,1437.413310956239,,,,,,,,,,,,,,,,,,,,,,,,,114,001,2010-10-15_14h19.54.522,eb_01,2022.2.4,119.98732365479623,
,,,1,0,1,0,68,0,68,0,,,,,,,,,,,,,,,,,,,,,,,,,,,,,,,,,,,,,,,,,,,,,,,,,,,,,,,,,,,114,001,2010-10-15_14h19.54.522,eb_01,2022.2.4,119.98732365479623,
2,stimuli/2.png,s,1,0,1,0,69,0,69,0,0,0,0,0,,,,,,,,,,,,,,,,,,1437.413310956239,1437.413310956239,1437.413310956239,1437.413310956239,l,0,0.4644936805125326,1437.8966739211173,1437.8966739211173,1437.8966739211173,,,,,,,,,,,,,,,,,,,,,,,,,,,,114,001,2010-10-15_14h19.54.522,eb_01,2022.2.4,119.98732365479623,
,,,1,0,1,0,69,0,69,0,,,,,,,,,,,,,,,,,,,,,,,,,,,,,,,,,,,,,,,,,,,,,,,,,,,,,,,,,,,114,001,2010-10-15_14h19.54.522,eb_01,2022.2.4,119.98732365479623,
3,stimuli/3.png,l,1,0,1,0,70,0,70,0,0,0,0,0,,,,,,,,,,,,,,,,,,1438.905104575737,1438.905104575737,1438.905104575737,1438.905104575737,l,1,0.4367464733950328,1439.363476520637,1439.363476520637,1439.363476520637,,,,,,,,,,,,,,,,,,,,,,,,,,,,114,001,2010-10-15_14h19.54.522,eb_01,2022.2.4,119.98732365479623,
,,,1,0,1,0,70,0,70,0,,,,,,,,,,,,,,,,,,,,,,,,,,,,,,,,,,,,,,,,,,,,,,,,,,,,,,,,,,,114,001,2010-10-15_14h19.54.522,eb_01,2022.2.4,119.98732365479623,
8,stimuli/8.png,l,1,0,1,0,71,0,71,0,0,0,0,0,,,,,,,,,,,,,,,,,,1440.3718769903353,1440.3718769903353,1440.3718769903353,1440.3718769903353,l,1,0.54599031037651,1440.9385754518153,1440.9385754518153,1440.9385754518153,,,,,,,,,,,,,,,,,,,,,,,,,,,,114,001,2010-10-15_14h19.54.522,eb_01,2022.2.4,119.98732365479623,
,,,1,0,1,0,71,0,71,0,,,,,,,,,,,,,,,,,,,,,,,,,,,,,,,,,,,,,,,,,,,,,,,,,,,,,,,,,,,114,001,2010-10-15_14h19.54.522,eb_01,2022.2.4,119.98732365479623,
6,stimuli/6.png,s,1,0,1,0,72,0,72,0,0,0,0,0,,,,,,,,,,,,,,,,,,1441.9636989836872,1441.9636989836872,1441.9636989836872,1441.9636989836872,s,1,0.4972863009024877,1442.488745845796,1442.488745845796,1442.488745845796,,,,,,,,,,,,,,,,,,,,,,,,,,,,114,001,2010-10-15_14h19.54.522,eb_01,2022.2.4,119.98732365479623,
,,,1,0,1,0,72,0,72,0,,,,,,,,,,,,,,,,,,,,,,,,,,,,,,,,,,,,,,,,,,,,,,,,,,,,,,,,,,,114,001,2010-10-15_14h19.54.522,eb_01,2022.2.4,119.98732365479623,
9,stimuli/9.png,l,1,0,1,0,73,0,73,0,0,0,0,0,,,,,,,,,,,,,,,,,,1443.4971598987177,1443.4971598987177,1443.4971598987177,1443.4971598987177,l,1,0.5717751943448093,1444.0971879707067,1444.0971879707067,1444.0971879707067,,,,,,,,,,,,,,,,,,,,,,,,,,,,114,001,2010-10-15_14h19.54.522,eb_01,2022.2.4,119.98732365479623,
,,,1,0,1,0,73,0,73,0,,,,,,,,,,,,,,,,,,,,,,,,,,,,,,,,,,,,,,,,,,,,,,,,,,,,,,,,,,,114,001,2010-10-15_14h19.54.522,eb_01,2022.2.4,119.98732365479623,
5,stimuli/5.png,s,1,0,1,0,74,0,74,0,0,0,0,0,,,,,,,,,,,,,,,,,,1445.0973005605338,1445.0973005605338,1445.0973005605338,1445.0973005605338,s,1,0.4596613729663659,1445.5806632235763,1445.5806632235763,1445.5806632235763,,,,,,,,,,,,,,,,,,,,,,,,,,,,114,001,2010-10-15_14h19.54.522,eb_01,2022.2.4,119.98732365479623,
,,,1,0,1,0,74,0,74,0,,,,,,,,,,,,,,,,,,,,,,,,,,,,,,,,,,,,,,,,,,,,,,,,,,,,,,,,,,,114,001,2010-10-15_14h19.54.522,eb_01,2022.2.4,119.98732365479623,
6,stimuli/6.png,s,1,0,1,0,75,0,75,0,0,0,0,0,,,,,,,,,,,,,,,,,,1446.605760796403,1446.605760796403,1446.605760796403,1446.605760796403,s,1,0.43923824041849,1447.072457446775,1447.072457446775,1447.072457446775,,,,,,,,,,,,,,,,,,,,,,,,,,,,114,001,2010-10-15_14h19.54.522,eb_01,2022.2.4,119.98732365479623,
,,,1,0,1,0,75,0,75,0,,,,,,,,,,,,,,,,,,,,,,,,,,,,,,,,,,,,,,,,,,,,,,,,,,,,,,,,,,,114,001,2010-10-15_14h19.54.522,eb_01,2022.2.4,119.98732365479623,
8,stimuli/8.png,l,1,0,1,0,76,0,76,0,0,0,0,0,,,,,,,,,,,,,,,,,,1448.0808874976938,1448.0808874976938,1448.0808874976938,1448.0808874976938,l,1,0.4921503328077961,1448.597590335994,1448.597590335994,1448.597590335994,,,,,,,,,,,,,,,,,,,,,,,,,,,,114,001,2010-10-15_14h19.54.522,eb_01,2022.2.4,119.98732365479623,
,,,1,0,1,0,76,0,76,0,,,,,,,,,,,,,,,,,,,,,,,,,,,,,,,,,,,,,,,,,,,,,,,,,,,,,,,,,,,114,001,2010-10-15_14h19.54.522,eb_01,2022.2.4,119.98732365479623,
6,stimuli/6.png,s,1,0,1,0,77,0,77,0,0,0,0,0,,,,,,,,,,,,,,,,,,1449.6226870032842,1449.6226870032842,1449.6226870032842,1449.6226870032842,s,1,0.5983518293942325,1450.2477106229926,1450.2477106229926,1450.2477106229926,,,,,,,,,,,,,,,,,,,,,,,,,,,,114,001,2010-10-15_14h19.54.522,eb_01,2022.2.4,119.98732365479623,
,,,1,0,1,0,77,0,77,0,,,,,,,,,,,,,,,,,,,,,,,,,,,,,,,,,,,,,,,,,,,,,,,,,,,,,,,,,,,114,001,2010-10-15_14h19.54.522,eb_01,2022.2.4,119.98732365479623,
9,stimuli/9.png,l,1,0,1,0,78,0,78,0,0,0,0,0,,,,,,,,,,,,,,,,,,1451.2561651237193,1451.2561651237193,1451.2561651237193,1451.2561651237193,l,1,0.41291938480571844,1451.697832419246,1451.697832419246,1451.697832419246,,,,,,,,,,,,,,,,,,,,,,,,,,,,114,001,2010-10-15_14h19.54.522,eb_01,2022.2.4,119.98732365479623,
,,,1,0,1,0,78,0,78,0,,,,,,,,,,,,,,,,,,,,,,,,,,,,,,,,,,,,,,,,,,,,,,,,,,,,,,,,,,,114,001,2010-10-15_14h19.54.522,eb_01,2022.2.4,119.98732365479623,
8,stimuli/8.png,l,1,0,1,0,79,0,79,0,0,0,0,0,,,,,,,,,,,,,,,,,,1452.697949838679,1452.697949838679,1452.697949838679,1452.697949838679,l,1,0.6271754316112492,1453.347992248513,1453.347992248513,1453.347992248513,,,,,,,,,,,,,,,,,,,,,,,,,,,,114,001,2010-10-15_14h19.54.522,eb_01,2022.2.4,119.98732365479623,
,,,1,0,1,0,79,0,79,0,,,,,,,,,,,,,,,,,,,,,,,,,,,,,,,,,,,,,,,,,,,,,,,,,,,,,,,,,,,114,001,2010-10-15_14h19.54.522,eb_01,2022.2.4,119.98732365479623,
3,stimuli/3.png,l,1,0,1,0,80,0,80,0,0,0,0,0,,,,,,,,,,,,,,,,,,1454.3564226012968,1454.3564226012968,1454.3564226012968,1454.3564226012968,l,1,0.4807274447812233,1454.8481301937136,1454.8481301937136,1454.8481301937136,1455.856508326513,1455.856508326513,1455.856508326513,,,,,,,,,,,,,,,,,,,,,,,,,114,001,2010-10-15_14h19.54.522,eb_01,2022.2.4,119.98732365479623,
,,,1,0,1,0,80,0,80,0,,,,,,,,,,,,,,,,,,,,,,,,,,,,,,,,,,,,,,,,,,,,,,,,,,,,,,,,,,,114,001,2010-10-15_14h19.54.522,eb_01,2022.2.4,119.98732365479623,
8,stimuli/8.png,l,1,0,1,0,81,0,81,0,0,0,0,0,,,,,,,,,,,,,,,,,,1455.856508326513,1455.856508326513,1455.856508326513,1455.856508326513,l,1,0.3886642737488728,1456.2648740835139,1456.2648740835139,1456.2648740835139,,,,,,,,,,,,,,,,,,,,,,,,,,,,114,001,2010-10-15_14h19.54.522,eb_01,2022.2.4,119.98732365479623,
,,,1,0,1,0,81,0,81,0,,,,,,,,,,,,,,,,,,,,,,,,,,,,,,,,,,,,,,,,,,,,,,,,,,,,,,,,,,,114,001,2010-10-15_14h19.54.522,eb_01,2022.2.4,119.98732365479623,
3,stimuli/3.png,l,1,0,1,0,82,0,82,0,0,0,0,0,,,,,,,,,,,,,,,,,,1457.2733554488514,1457.2733554488514,1457.2733554488514,1457.2733554488514,l,1,0.3709188475331757,1457.6566818899591,1457.6566818899591,1457.6566818899591,1458.6651273352036,1458.6651273352036,1458.6651273352036,,,,,,,,,,,,,,,,,,,,,,,,,114,001,2010-10-15_14h19.54.522,eb_01,2022.2.4,119.98732365479623,
,,,1,0,1,0,82,0,82,0,,,,,,,,,,,,,,,,,,,,,,,,,,,,,,,,,,,,,,,,,,,,,,,,,,,,,,,,,,,114,001,2010-10-15_14h19.54.522,eb_01,2022.2.4,119.98732365479623,
8,stimuli/8.png,l,1,0,1,0,83,0,83,0,0,0,0,0,,,,,,,,,,,,,,,,,,1458.6651273352036,1458.6651273352036,1458.6651273352036,1458.6651273352036,l,1,0.3791200965642929,1459.065148464666,1459.065148464666,1459.065148464666,,,,,,,,,,,,,,,,,,,,,,,,,,,,114,001,2010-10-15_14h19.54.522,eb_01,2022.2.4,119.98732365479623,
,,,1,0,1,0,83,0,83,0,,,,,,,,,,,,,,,,,,,,,,,,,,,,,,,,,,,,,,,,,,,,,,,,,,,,,,,,,,,114,001,2010-10-15_14h19.54.522,eb_01,2022.2.4,119.98732365479623,
9,stimuli/9.png,l,1,0,1,0,84,0,84,0,0,0,0,0,,,,,,,,,,,,,,,,,,1460.0818890341325,1460.0818890341325,1460.0818890341325,1460.0818890341325,l,1,0.3943810001073871,1460.5069195963733,1460.5069195963733,1460.5069195963733,,,,,,,,,,,,,,,,,,,,,,,,,,,,114,001,2010-10-15_14h19.54.522,eb_01,2022.2.4,119.98732365479623,
,,,1,0,1,0,84,0,84,0,,,,,,,,,,,,,,,,,,,,,,,,,,,,,,,,,,,,,,,,,,,,,,,,,,,,,,,,,,,114,001,2010-10-15_14h19.54.522,eb_01,2022.2.4,119.98732365479623,
8,stimuli/8.png,l,1,0,1,0,85,0,85,0,0,0,0,0,,,,,,,,,,,,,,,,,,1461.5070352047042,1461.5070352047042,1461.5070352047042,1461.5070352047042,l,1,0.38525790290441364,1461.9153822470398,1461.9153822470398,1461.9153822470398,,,,,,,,,,,,,,,,,,,,,,,,,,,,114,001,2010-10-15_14h19.54.522,eb_01,2022.2.4,119.98732365479623,
,,,1,0,1,0,85,0,85,0,,,,,,,,,,,,,,,,,,,,,,,,,,,,,,,,,,,,,,,,,,,,,,,,,,,,,,,,,,,114,001,2010-10-15_14h19.54.522,eb_01,2022.2.4,119.98732365479623,
6,stimuli/6.png,s,1,0,1,0,86,0,86,0,0,0,0,0,,,,,,,,,,,,,,,,,,1462.940476499527,1462.940476499527,1462.940476499527,1462.940476499527,s,1,0.3278440280992072,1463.2988430111436,1463.2988430111436,1463.2988430111436,,,,,,,,,,,,,,,,,,,,,,,,,,,,114,001,2010-10-15_14h19.54.522,eb_01,2022.2.4,119.98732365479623,
,,,1,0,1,0,86,0,86,0,,,,,,,,,,,,,,,,,,,,,,,,,,,,,,,,,,,,,,,,,,,,,,,,,,,,,,,,,,,114,001,2010-10-15_14h19.54.522,eb_01,2022.2.4,119.98732365479623,
9,stimuli/9.png,l,1,0,1,0,87,0,87,0,0,0,0,0,,,,,,,,,,,,,,,,,,1464.3072615917772,1464.3072615917772,1464.3072615917772,1464.3072615917772,l,1,0.37710283682099544,1464.7156237265735,1464.7156237265735,1464.7156237265735,,,,,,,,,,,,,,,,,,,,,,,,,,,,114,001,2010-10-15_14h19.54.522,eb_01,2022.2.4,119.98732365479623,
,,,1,0,1,0,87,0,87,0,,,,,,,,,,,,,,,,,,,,,,,,,,,,,,,,,,,,,,,,,,,,,,,,,,,,,,,,,,,114,001,2010-10-15_14h19.54.522,eb_01,2022.2.4,119.98732365479623,
5,stimuli/5.png,s,1,0,1,0,88,0,88,0,0,0,0,0,,,,,,,,,,,,,,,,,,1465.7157154887973,1465.7157154887973,1465.7157154887973,1465.7157154887973,s,1,0.5846952555584721,1466.3241005641758,1466.3241005641758,1466.3241005641758,,,,,,,,,,,,,,,,,,,,,,,,,,,,114,001,2010-10-15_14h19.54.522,eb_01,2022.2.4,119.98732365479623,
,,,1,0,1,0,88,0,88,0,,,,,,,,,,,,,,,,,,,,,,,,,,,,,,,,,,,,,,,,,,,,,,,,,,,,,,,,,,,114,001,2010-10-15_14h19.54.522,eb_01,2022.2.4,119.98732365479623,
9,stimuli/9.png,l,1,0,1,0,89,0,89,0,0,0,0,0,,,,,,,,,,,,,,,,,,1467.340865885286,1467.340865885286,1467.340865885286,1467.340865885286,l,1,0.49554342226474546,1467.8658988623356,1467.8658988623356,1467.8658988623356,,,,,,,,,,,,,,,,,,,,,,,,,,,,114,001,2010-10-15_14h19.54.522,eb_01,2022.2.4,119.98732365479623,
,,,1,0,1,0,89,0,89,0,,,,,,,,,,,,,,,,,,,,,,,,,,,,,,,,,,,,,,,,,,,,,,,,,,,,,,,,,,,114,001,2010-10-15_14h19.54.522,eb_01,2022.2.4,119.98732365479623,
8,stimuli/8.png,l,1,0,1,0,90,0,90,0,0,0,0,0,,,,,,,,,,,,,,,,,,1468.8659969634027,1468.8659969634027,1468.8659969634027,1468.8659969634027,l,1,0.5144434225803707,1469.3993615884683,1469.3993615884683,1469.3993615884683,,,,,,,,,,,,,,,,,,,,,,,,,,,,114,001,2010-10-15_14h19.54.522,eb_01,2022.2.4,119.98732365479623,
,,,1,0,1,0,90,0,90,0,,,,,,,,,,,,,,,,,,,,,,,,,,,,,,,,,,,,,,,,,,,,,,,,,,,,,,,,,,,114,001,2010-10-15_14h19.54.522,eb_01,2022.2.4,119.98732365479623,
3,stimuli/3.png,l,1,0,1,0,91,0,91,0,0,0,0,0,,,,,,,,,,,,,,,,,,1470.4077611526009,1470.4077611526009,1470.4077611526009,1470.4077611526009,l,1,0.4047283986292314,1470.8245020238974,1470.8245020238974,1470.8245020238974,1471.8329094361106,1471.8329094361106,1471.8329094361106,,,,,,,,,,,,,,,,,,,,,,,,,114,001,2010-10-15_14h19.54.522,eb_01,2022.2.4,119.98732365479623,
,,,1,0,1,0,91,0,91,0,,,,,,,,,,,,,,,,,,,,,,,,,,,,,,,,,,,,,,,,,,,,,,,,,,,,,,,,,,,114,001,2010-10-15_14h19.54.522,eb_01,2022.2.4,119.98732365479623,
8,stimuli/8.png,l,1,0,1,0,92,0,92,0,0,0,0,0,,,,,,,,,,,,,,,,,,1471.8329094361106,1471.8329094361106,1471.8329094361106,1471.8329094361106,l,1,0.36359507477027364,1472.216268175107,1472.216268175107,1472.216268175107,,,,,,,,,,,,,,,,,,,,,,,,,,,,114,001,2010-10-15_14h19.54.522,eb_01,2022.2.4,119.98732365479623,
,,,1,0,1,0,92,0,92,0,,,,,,,,,,,,,,,,,,,,,,,,,,,,,,,,,,,,,,,,,,,,,,,,,,,,,,,,,,,114,001,2010-10-15_14h19.54.522,eb_01,2022.2.4,119.98732365479623,
6,stimuli/6.png,s,1,0,1,0,93,0,93,0,0,0,0,0,,,,,,,,,,,,,,,,,,1473.2413684646017,1473.2413684646017,1473.2413684646017,1473.2413684646017,s,1,0.5062168181757443,1473.774702602852,1473.774702602852,1473.774702602852,,,,,,,,,,,,,,,,,,,,,,,,,,,,114,001,2010-10-15_14h19.54.522,eb_01,2022.2.4,119.98732365479623,
,,,1,0,1,0,93,0,93,0,,,,,,,,,,,,,,,,,,,,,,,,,,,,,,,,,,,,,,,,,,,,,,,,,,,,,,,,,,,114,001,2010-10-15_14h19.54.522,eb_01,2022.2.4,119.98732365479623,
9,stimuli/9.png,l,1,0,1,0,94,0,94,0,0,0,0,0,,,,,,,,,,,,,,,,,,1474.78316555536,1474.78316555536,1474.78316555536,1474.78316555536,l,1,0.4203931767260656,1475.2332040411711,1475.2332040411711,1475.2332040411711,,,,,,,,,,,,,,,,,,,,,,,,,,,,114,001,2010-10-15_14h19.54.522,eb_01,2022.2.4,119.98732365479623,
,,,1,0,1,0,94,0,94,0,,,,,,,,,,,,,,,,,,,,,,,,,,,,,,,,,,,,,,,,,,,,,,,,,,,,,,,,,,,114,001,2010-10-15_14h19.54.522,eb_01,2022.2.4,119.98732365479623,
5,stimuli/5.png,s,1,0,1,0,95,0,95,0,0,0,0,0,,,,,,,,,,,,,,,,,,1476.233276183193,1476.233276183193,1476.233276183193,1476.233276183193,s,1,0.5303213063743897,1476.7833086320024,1476.7833086320024,1476.7833086320024,,,,,,,,,,,,,,,,,,,,,,,,,,,,114,001,2010-10-15_14h19.54.522,eb_01,2022.2.4,119.98732365479623,
,,,1,0,1,0,95,0,95,0,,,,,,,,,,,,,,,,,,,,,,,,,,,,,,,,,,,,,,,,,,,,,,,,,,,,,,,,,,,114,001,2010-10-15_14h19.54.522,eb_01,2022.2.4,119.98732365479623,
6,stimuli/6.png,s,1,0,1,0,96,0,96,0,0,0,0,0,,,,,,,,,,,,,,,,,,1477.8084243157937,1477.8084243157937,1477.8084243157937,1477.8084243157937,s,1,0.44319729757262394,1478.2834553308203,1478.2834553308203,1478.2834553308203,,,,,,,,,,,,,,,,,,,,,,,,,,,,114,001,2010-10-15_14h19.54.522,eb_01,2022.2.4,119.98732365479623,
,,,1,0,1,0,96,0,96,0,,,,,,,,,,,,,,,,,,,,,,,,,,,,,,,,,,,,,,,,,,,,,,,,,,,,,,,,,,,114,001,2010-10-15_14h19.54.522,eb_01,2022.2.4,119.98732365479623,
8,stimuli/8.png,l,1,0,1,0,97,0,97,0,0,0,0,0,,,,,,,,,,,,,,,,,,1479.2835537337232,1479.2835537337232,1479.2835537337232,1479.2835537337232,l,1,0.47209877692512237,1479.775247139245,1479.775247139245,1479.775247139245,,,,,,,,,,,,,,,,,,,,,,,,,,,,114,001,2010-10-15_14h19.54.522,eb_01,2022.2.4,119.98732365479623,
,,,1,0,1,0,97,0,97,0,,,,,,,,,,,,,,,,,,,,,,,,,,,,,,,,,,,,,,,,,,,,,,,,,,,,,,,,,,,114,001,2010-10-15_14h19.54.522,eb_01,2022.2.4,119.98732365479623,
6,stimuli/6.png,s,1,0,1,0,98,0,98,0,0,0,0,0,,,,,,,,,,,,,,,,,,1480.8003459194442,1480.8003459194442,1480.8003459194442,1480.8003459194442,s,1,0.5073345666169189,1481.3336924335454,1481.3336924335454,1481.3336924335454,,,,,,,,,,,,,,,,,,,,,,,,,,,,114,001,2010-10-15_14h19.54.522,eb_01,2022.2.4,119.98732365479623,
,,,1,0,1,0,98,0,98,0,,,,,,,,,,,,,,,,,,,,,,,,,,,,,,,,,,,,,,,,,,,,,,,,,,,,,,,,,,,114,001,2010-10-15_14h19.54.522,eb_01,2022.2.4,119.98732365479623,
5,stimuli/5.png,s,1,0,1,0,99,0,99,0,0,0,0,0,,,,,,,,,,,,,,,,,,1482.333825247304,1482.333825247304,1482.333825247304,1482.333825247304,s,1,0.4698880317155272,1482.8255120121175,1482.8255120121175,1482.8255120121175,,,,,,,,,,,,,,,,,,,,,,,,,,,,114,001,2010-10-15_14h19.54.522,eb_01,2022.2.4,119.98732365479623,
,,,1,0,1,0,99,0,99,0,,,,,,,,,,,,,,,,,,,,,,,,,,,,,,,,,,,,,,,,,,,,,,,,,,,,,,,,,,,114,001,2010-10-15_14h19.54.522,eb_01,2022.2.4,119.98732365479623,
,,,1,0,1,0,,,,,,,,,,,,,,,,,,,,,,,,,,,,,,,,,,,,,,,1483.8255886818515,1483.8255886818515,return,59.72739487615763,,,,,,,,,,,,,,,,,,,,,114,001,2010-10-15_14h19.54.522,eb_01,2022.2.4,119.98732365479623,
9,stimuli/9.png,l,2,0,2,0,0,0,0,0,0,0,0,0,,,,,,,,,,,,,,,,,,1543.5890588636685,1543.5890588636685,1543.5890588636685,1543.5890588636685,l,1,0.9399125720665324,1544.55575883438,1544.55575883438,1544.55575883438,,,,,,,,,,,,,,,,,,,,,,,,,,,,114,001,2010-10-15_14h19.54.522,eb_01,2022.2.4,119.98732365479623,
,,,2,0,2,0,0,0,0,0,,,,,,,,,,,,,,,,,,,,,,,,,,,,,,,,,,,,,,,,,,,,,,,,,,,,,,,,,,,114,001,2010-10-15_14h19.54.522,eb_01,2022.2.4,119.98732365479623,
8,stimuli/8.png,l,2,0,2,0,1,0,1,0,0,0,0,0,,,,,,,,,,,,,,,,,,1545.5558723297727,1545.5558723297727,1545.5558723297727,1545.5558723297727,l,1,0.4531157680321485,1546.030865915469,1546.030865915469,1546.030865915469,,,,,,,,,,,,,,,,,,,,,,,,,,,,114,001,2010-10-15_14h19.54.522,eb_01,2022.2.4,119.98732365479623,
,,,2,0,2,0,1,0,1,0,,,,,,,,,,,,,,,,,,,,,,,,,,,,,,,,,,,,,,,,,,,,,,,,,,,,,,,,,,,114,001,2010-10-15_14h19.54.522,eb_01,2022.2.4,119.98732365479623,
3,stimuli/3.png,l,2,0,2,0,2,0,2,0,0,0,0,0,,,,,,,,,,,,,,,,,,1547.0393318864808,1547.0393318864808,1547.0393318864808,1547.0393318864808,l,1,0.46569141902728006,1547.51436139227,1547.51436139227,1547.51436139227,1548.531119770836,1548.531119770836,1548.531119770836,,,,,,,,,,,,,,,,,,,,,,,,,114,001,2010-10-15_14h19.54.522,eb_01,2022.2.4,119.98732365479623,
,,,2,0,2,0,2,0,2,0,,,,,,,,,,,,,,,,,,,,,,,,,,,,,,,,,,,,,,,,,,,,,,,,,,,,,,,,,,,114,001,2010-10-15_14h19.54.522,eb_01,2022.2.4,119.98732365479623,
4,stimuli/4.png,l,2,0,2,0,3,0,3,0,0,0,0,0,,,,,,,,,,,,,,,,,,1548.531119770836,1548.531119770836,1548.531119770836,1548.531119770836,s,0,0.5099669955088757,1549.0644696052768,1549.0644696052768,1549.0644696052768,,,,,,,,,,,,,,,,,,,,,,,,,,,,114,001,2010-10-15_14h19.54.522,eb_01,2022.2.4,119.98732365479623,
,,,2,0,2,0,3,0,3,0,,,,,,,,,,,,,,,,,,,,,,,,,,,,,,,,,,,,,,,,,,,,,,,,,,,,,,,,,,,114,001,2010-10-15_14h19.54.522,eb_01,2022.2.4,119.98732365479623,
2,stimuli/2.png,s,2,0,2,0,4,0,4,0,0,0,0,0,,,,,,,,,,,,,,,,,,1550.0729222949012,1550.0729222949012,1550.0729222949012,1550.0729222949012,s,1,0.7032414883142337,1550.7979510460573,1550.7979510460573,1550.7979510460573,,,,,,,,,,,,,,,,,,,,,,,,,,,,114,001,2010-10-15_14h19.54.522,eb_01,2022.2.4,119.98732365479623,
,,,2,0,2,0,4,0,4,0,,,,,,,,,,,,,,,,,,,,,,,,,,,,,,,,,,,,,,,,,,,,,,,,,,,,,,,,,,,114,001,2010-10-15_14h19.54.522,eb_01,2022.2.4,119.98732365479623,
4,stimuli/4.png,l,2,0,2,0,5,0,5,0,0,0,0,0,,,,,,,,,,,,,,,,,,1551.8147088209516,1551.8147088209516,1551.8147088209516,1551.8147088209516,l,1,0.4814241132698953,1552.3147408170043,1552.3147408170043,1552.3147408170043,,,,,,,,,,,,,,,,,,,,,,,,,,,,114,001,2010-10-15_14h19.54.522,eb_01,2022.2.4,119.98732365479623,
,,,2,0,2,0,5,0,5,0,,,,,,,,,,,,,,,,,,,,,,,,,,,,,,,,,,,,,,,,,,,,,,,,,,,,,,,,,,,114,001,2010-10-15_14h19.54.522,eb_01,2022.2.4,119.98732365479623,
1,stimuli/1.png,s,2,0,2,0,6,0,6,0,0,0,0,0,,,,,,,,,,,,,,,,,,1553.33986736738,1553.33986736738,1553.33986736738,1553.33986736738,s,1,0.484285645885393,1553.85653217262,1553.85653217262,1553.85653217262,,,,,,,,,,,,,,,,,,,,,,,,,,,,114,001,2010-10-15_14h19.54.522,eb_01,2022.2.4,119.98732365479623,
,,,2,0,2,0,6,0,6,0,,,,,,,,,,,,,,,,,,,,,,,,,,,,,,,,,,,,,,,,,,,,,,,,,,,,,,,,,,,114,001,2010-10-15_14h19.54.522,eb_01,2022.2.4,119.98732365479623,
2,stimuli/2.png,s,2,0,2,0,7,0,7,0,0,0,0,0,,,,,,,,,,,,,,,,,,1554.8566631752765,1554.8566631752765,1554.8566631752765,1554.8566631752765,s,1,0.5835563776781783,1555.4567087545583,1555.4567087545583,1555.4567087545583,1556.4818036107463,1556.4818036107463,1556.4818036107463,,,,,,,,,,,,,,,,,,,,,,,,,114,001,2010-10-15_14h19.54.522,eb_01,2022.2.4,119.98732365479623,
,,,2,0,2,0,7,0,7,0,,,,,,,,,,,,,,,,,,,,,,,,,,,,,,,,,,,,,,,,,,,,,,,,,,,,,,,,,,,114,001,2010-10-15_14h19.54.522,eb_01,2022.2.4,119.98732365479623,
1,stimuli/1.png,s,2,0,2,0,8,0,8,0,0,0,0,0,,,,,,,,,,,,,,,,,,1556.4818036107463,1556.4818036107463,1556.4818036107463,1556.4818036107463,s,1,0.5424007169203833,1557.0568503219401,1557.0568503219401,1557.0568503219401,,,,,,,,,,,,,,,,,,,,,,,,,,,,114,001,2010-10-15_14h19.54.522,eb_01,2022.2.4,119.98732365479623,
,,,2,0,2,0,8,0,8,0,,,,,,,,,,,,,,,,,,,,,,,,,,,,,,,,,,,,,,,,,,,,,,,,,,,,,,,,,,,114,001,2010-10-15_14h19.54.522,eb_01,2022.2.4,119.98732365479623,
2,stimuli/2.png,s,2,0,2,0,9,0,9,0,0,0,0,0,,,,,,,,,,,,,,,,,,1558.0569357453205,1558.0569357453205,1558.0569357453205,1558.0569357453205,s,1,0.47130974251194857,1558.5403195378312,1558.5403195378312,1558.5403195378312,1559.5487082353793,1559.5487082353793,1559.5487082353793,,,,,,,,,,,,,,,,,,,,,,,,,114,001,2010-10-15_14h19.54.522,eb_01,2022.2.4,119.98732365479623,
,,,2,0,2,0,9,0,9,0,,,,,,,,,,,,,,,,,,,,,,,,,,,,,,,,,,,,,,,,,,,,,,,,,,,,,,,,,,,114,001,2010-10-15_14h19.54.522,eb_01,2022.2.4,119.98732365479623,
3,stimuli/3.png,l,2,0,2,0,10,0,10,0,0,0,0,0,,,,,,,,,,,,,,,,,,1559.5487082353793,1559.5487082353793,1559.5487082353793,1559.5487082353793,l,1,0.4515570175717585,1560.0154205819126,1560.0154205819126,1560.0154205819126,1561.0321578310395,1561.0321578310395,1561.0321578310395,,,,,,,,,,,,,,,,,,,,,,,,,114,001,2010-10-15_14h19.54.522,eb_01,2022.2.4,119.98732365479623,
,,,2,0,2,0,10,0,10,0,,,,,,,,,,,,,,,,,,,,,,,,,,,,,,,,,,,,,,,,,,,,,,,,,,,,,,,,,,,114,001,2010-10-15_14h19.54.522,eb_01,2022.2.4,119.98732365479623,
