index,stimulus,correct_answer,block.thisRepN,block.thisTrialN,block.thisN,block.thisIndex,trial.thisRepN,trial.thisTrialN,trial.thisN,trial.thisIndex,display_row.thisRepN,display_row.thisTrialN,display_row.thisN,display_row.thisIndex,pair_questions.thisRepN,pair_questions.thisTrialN,pair_questions.thisN,pair_questions.thisIndex,welcome_text.started,instructions_0_keypress.started,instructions_0_keypress.keys,instructions_0_keypress.rt,instructions_1_keypress.started,instructions_1_text.started,instructions_1_keypress.keys,instructions_1_keypress.rt,instructions_2_keypress.started,instructions_2_text.started,instructions_2_keypress.keys,instructions_2_keypress.rt,text_countdown.started,text_countdown.stopped,image.started,size_question.started,size_resp.started,keypress_options.started,size_resp.keys,size_resp.corr,size_resp.rt,fb_image.started,fb.started,fb_size_question.started,fb_image.stopped,fb.stopped,fb_size_question.stopped,block_break_text.started,block_break_keypress.started,block_break_keypress.keys,block_break_keypress.rt,seq_reveal.started,seq_reveal_adv.started,seq_reveal_adv.keys,seq_reveal_adv.rt,instruction_2afc_text.started,instruction_2afc_keypress.started,instruction_2afc_keypress.keys,instruction_2afc_keypress.rt,dist_2afc_test.started,dist_2afc_resp.started,text.started,stim_00.started,stim_01.started,stim_10.started,stim_11.started,dist_2afc_resp.keys,dist_2afc_resp.rt,graph.started,debrief_text.started,debriefing_title.started,participant,session,date,expName,psychopyVersion,frameRate,
,,,,,,,,,,,,,,,,,,,1897.026845362081,1897.026845362081,return,10.705228419144987,,,,,,,,,,,,,,,,,,,,,,,,,,,,,,,,,,,,,,,,,,,,,,,,115,001,2023-03-02_14h29.14.179,eb_01,2022.2.4,60.001847379443,
,,,,,,,,,,,,,,,,,,,,,,,1907.7595037580468,1907.7595037580468,return,32.147274360759184,,,,,,,,,,,,,,,,,,,,,,,,,,,,,,,,,,,,,,,,,,,,115,001,2023-03-02_14h29.14.179,eb_01,2022.2.4,60.001847379443,
,,,,,,,,,,,,,,,,,,,,,,,,,,,1939.9241830420506,1939.9241830420506,space,5.797728947378346,,,,,,,,,,,,,,,,,,,,,,,,,,,,,,,,,,,,,,,,115,001,2023-03-02_14h29.14.179,eb_01,2022.2.4,60.001847379443,
5,stimuli/5.png,s,0,0,0,0,0,0,0,0,0,0,0,0,,,,,,,,,,,,,,,,,1945.7401391530148,1950.7568504935334,1950.7568504935334,1950.7568504935334,1950.7568504935334,1950.7568504935334,l,0,1.469206202949863,1952.273427812499,1952.273427812499,1952.273427812499,,,,,,,,,,,,,,,,,,,,,,,,,,,,115,001,2023-03-02_14h29.14.179,eb_01,2022.2.4,60.001847379443,
,,,0,0,0,0,0,0,0,0,,,,,,,,,,,,,,,,,,,,,,,,,,,,,,,,,,,,,,,,,,,,,,,,,,,,,,,,,,,,115,001,2023-03-02_14h29.14.179,eb_01,2022.2.4,60.001847379443,
9,stimuli/9.png,l,0,0,0,0,1,0,1,0,0,0,0,0,,,,,,,,,,,,,,,,,,,1953.2899945667014,1953.2899945667014,1953.2899945667014,1953.2899945667014,l,1,1.168095393688418,1954.5065818467265,1954.5065818467265,1954.5065818467265,,,,,,,,,,,,,,,,,,,,,,,,,,,,115,001,2023-03-02_14h29.14.179,eb_01,2022.2.4,60.001847379443,
,,,0,0,0,0,1,0,1,0,,,,,,,,,,,,,,,,,,,,,,,,,,,,,,,,,,,,,,,,,,,,,,,,,,,,,,,,,,,,115,001,2023-03-02_14h29.14.179,eb_01,2022.2.4,60.001847379443,
6,stimuli/6.png,s,0,0,0,0,2,0,2,0,0,0,0,0,,,,,,,,,,,,,,,,,,,1955.5232125931943,1955.5232125931943,1955.5232125931943,1955.5232125931943,s,1,1.0060222855390748,1956.57315524164,1956.57315524164,1956.57315524164,,,,,,,,,,,,,,,,,,,,,,,,,,,,115,001,2023-03-02_14h29.14.179,eb_01,2022.2.4,60.001847379443,
,,,0,0,0,0,2,0,2,0,,,,,,,,,,,,,,,,,,,,,,,,,,,,,,,,,,,,,,,,,,,,,,,,,,,,,,,,,,,,115,001,2023-03-02_14h29.14.179,eb_01,2022.2.4,60.001847379443,
5,stimuli/5.png,s,0,0,0,0,3,0,3,0,0,0,0,0,,,,,,,,,,,,,,,,,,,1957.5727607232402,1957.5727607232402,1957.5727607232402,1957.5727607232402,l,0,0.6444466267421376,1958.2396736997907,1958.2396736997907,1958.2396736997907,1959.2563180295256,1959.2563180295256,1959.2563180295256,,,,,,,,,,,,,,,,,,,,,,,,,115,001,2023-03-02_14h29.14.179,eb_01,2022.2.4,60.001847379443,
,,,0,0,0,0,3,0,3,0,,,,,,,,,,,,,,,,,,,,,,,,,,,,,,,,,,,,,,,,,,,,,,,,,,,,,,,,,,,,115,001,2023-03-02_14h29.14.179,eb_01,2022.2.4,60.001847379443,
6,stimuli/6.png,s,0,0,0,0,4,0,4,0,0,0,0,0,,,,,,,,,,,,,,,,,,,1959.2563180295256,1959.2563180295256,1959.2563180295256,1959.2563180295256,s,1,1.6009361072647152,1960.9062247577676,1960.9062247577676,1960.9062247577676,,,,,,,,,,,,,,,,,,,,,,,,,,,,115,001,2023-03-02_14h29.14.179,eb_01,2022.2.4,60.001847379443,
,,,0,0,0,0,4,0,4,0,,,,,,,,,,,,,,,,,,,,,,,,,,,,,,,,,,,,,,,,,,,,,,,,,,,,,,,,,,,,115,001,2023-03-02_14h29.14.179,eb_01,2022.2.4,60.001847379443,
5,stimuli/5.png,s,0,0,0,0,5,0,5,0,0,0,0,0,,,,,,,,,,,,,,,,,,,1961.905840804131,1961.905840804131,1961.905840804131,1961.905840804131,s,1,0.7754563161433907,1962.7061091490905,1962.7061091490905,1962.7061091490905,1963.7227027679764,1963.7227027679764,1963.7227027679764,,,,,,,,,,,,,,,,,,,,,,,,,115,001,2023-03-02_14h29.14.179,eb_01,2022.2.4,60.001847379443,
,,,0,0,0,0,5,0,5,0,,,,,,,,,,,,,,,,,,,,,,,,,,,,,,,,,,,,,,,,,,,,,,,,,,,,,,,,,,,,115,001,2023-03-02_14h29.14.179,eb_01,2022.2.4,60.001847379443,
9,stimuli/9.png,l,0,0,0,0,6,0,6,0,0,0,0,0,,,,,,,,,,,,,,,,,,,1963.7227027679764,1963.7227027679764,1963.7227027679764,1963.7227027679764,s,0,0.9426469949976308,1964.7059760330885,1964.7059760330885,1964.7059760330885,,,,,,,,,,,,,,,,,,,,,,,,,,,,115,001,2023-03-02_14h29.14.179,eb_01,2022.2.4,60.001847379443,
,,,0,0,0,0,6,0,6,0,,,,,,,,,,,,,,,,,,,,,,,,,,,,,,,,,,,,,,,,,,,,,,,,,,,,,,,,,,,,115,001,2023-03-02_14h29.14.179,eb_01,2022.2.4,60.001847379443,
6,stimuli/6.png,s,0,0,0,0,7,0,7,0,0,0,0,0,,,,,,,,,,,,,,,,,,,1965.7225811222888,1965.7225811222888,1965.7225811222888,1965.7225811222888,s,1,1.9188328140735393,1967.6891050137347,1967.6891050137347,1967.6891050137347,,,,,,,,,,,,,,,,,,,,,,,,,,,,115,001,2023-03-02_14h29.14.179,eb_01,2022.2.4,60.001847379443,
,,,0,0,0,0,7,0,7,0,,,,,,,,,,,,,,,,,,,,,,,,,,,,,,,,,,,,,,,,,,,,,,,,,,,,,,,,,,,,115,001,2023-03-02_14h29.14.179,eb_01,2022.2.4,60.001847379443,
9,stimuli/9.png,l,0,0,0,0,8,0,8,0,0,0,0,0,,,,,,,,,,,,,,,,,,,1968.7057306287606,1968.7057306287606,1968.7057306287606,1968.7057306287606,l,1,0.8317363125242991,1969.5723151921266,1969.5723151921266,1969.5723151921266,,,,,,,,,,,,,,,,,,,,,,,,,,,,115,001,2023-03-02_14h29.14.179,eb_01,2022.2.4,60.001847379443,
,,,0,0,0,0,8,0,8,0,,,,,,,,,,,,,,,,,,,,,,,,,,,,,,,,,,,,,,,,,,,,,,,,,,,,,,,,,,,,115,001,2023-03-02_14h29.14.179,eb_01,2022.2.4,60.001847379443,
6,stimuli/6.png,s,0,0,0,0,9,0,9,0,0,0,0,0,,,,,,,,,,,,,,,,,,,1970.588943523806,1970.588943523806,1970.588943523806,1970.588943523806,s,1,1.7876646532531595,1972.4221265356755,1972.4221265356755,1972.4221265356755,,,,,,,,,,,,,,,,,,,,,,,,,,,,115,001,2023-03-02_14h29.14.179,eb_01,2022.2.4,60.001847379443,
,,,0,0,0,0,9,0,9,0,,,,,,,,,,,,,,,,,,,,,,,,,,,,,,,,,,,,,,,,,,,,,,,,,,,,,,,,,,,,115,001,2023-03-02_14h29.14.179,eb_01,2022.2.4,60.001847379443,
5,stimuli/5.png,s,0,0,0,0,10,0,10,0,0,0,0,0,,,,,,,,,,,,,,,,,,,1973.4217800114711,1973.4217800114711,1973.4217800114711,1973.4217800114711,l,0,1.3868046816351125,1974.8386775936524,1974.8386775936524,1974.8386775936524,1975.8552905309625,1975.8552905309625,1975.8552905309625,,,,,,,,,,,,,,,,,,,,,,,,,115,001,2023-03-02_14h29.14.179,eb_01,2022.2.4,60.001847379443,
,,,0,0,0,0,10,0,10,0,,,,,,,,,,,,,,,,,,,,,,,,,,,,,,,,,,,,,,,,,,,,,,,,,,,,,,,,,,,,115,001,2023-03-02_14h29.14.179,eb_01,2022.2.4,60.001847379443,
6,stimuli/6.png,s,0,0,0,0,11,0,11,0,0,0,0,0,,,,,,,,,,,,,,,,,,,1975.8552905309625,1975.8552905309625,1975.8552905309625,1975.8552905309625,s,1,0.8413324367575115,1976.7385933774058,1976.7385933774058,1976.7385933774058,,,,,,,,,,,,,,,,,,,,,,,,,,,,115,001,2023-03-02_14h29.14.179,eb_01,2022.2.4,60.001847379443,
,,,0,0,0,0,11,0,11,0,,,,,,,,,,,,,,,,,,,,,,,,,,,,,,,,,,,,,,,,,,,,,,,,,,,,,,,,,,,,115,001,2023-03-02_14h29.14.179,eb_01,2022.2.4,60.001847379443,
9,stimuli/9.png,l,0,0,0,0,12,0,12,0,0,0,0,0,,,,,,,,,,,,,,,,,,,1977.7551546983013,1977.7551546983013,1977.7551546983013,1977.7551546983013,l,1,0.8454985752032371,1978.638451809602,1978.638451809602,1978.638451809602,,,,,,,,,,,,,,,,,,,,,,,,,,,,115,001,2023-03-02_14h29.14.179,eb_01,2022.2.4,60.001847379443,
,,,0,0,0,0,12,0,12,0,,,,,,,,,,,,,,,,,,,,,,,,,,,,,,,,,,,,,,,,,,,,,,,,,,,,,,,,,,,,115,001,2023-03-02_14h29.14.179,eb_01,2022.2.4,60.001847379443,
8,stimuli/8.png,l,0,0,0,0,13,0,13,0,0,0,0,0,,,,,,,,,,,,,,,,,,,1979.6380775151774,1979.6380775151774,1979.6380775151774,1979.6380775151774,l,1,0.7306324458186282,1980.3883455582836,1980.3883455582836,1980.3883455582836,1981.388242023604,1981.388242023604,1981.388242023604,,,,,,,,,,,,,,,,,,,,,,,,,115,001,2023-03-02_14h29.14.179,eb_01,2022.2.4,60.001847379443,
,,,0,0,0,0,13,0,13,0,,,,,,,,,,,,,,,,,,,,,,,,,,,,,,,,,,,,,,,,,,,,,,,,,,,,,,,,,,,,115,001,2023-03-02_14h29.14.179,eb_01,2022.2.4,60.001847379443,
3,stimuli/3.png,l,0,0,0,0,14,0,14,0,0,0,0,0,,,,,,,,,,,,,,,,,,,1981.388242023604,1981.388242023604,1981.388242023604,1981.388242023604,l,1,0.8765257719205692,1982.2882097256224,1982.2882097256224,1982.2882097256224,1983.2881759183801,1983.2881759183801,1983.2881759183801,,,,,,,,,,,,,,,,,,,,,,,,,115,001,2023-03-02_14h29.14.179,eb_01,2022.2.4,60.001847379443,
,,,0,0,0,0,14,0,14,0,,,,,,,,,,,,,,,,,,,,,,,,,,,,,,,,,,,,,,,,,,,,,,,,,,,,,,,,,,,,115,001,2023-03-02_14h29.14.179,eb_01,2022.2.4,60.001847379443,
2,stimuli/2.png,s,0,0,0,0,15,0,15,0,0,0,0,0,,,,,,,,,,,,,,,,,,,1983.2881759183801,1983.2881759183801,1983.2881759183801,1983.2881759183801,s,1,0.7926252617908176,1984.104783120536,1984.104783120536,1984.104783120536,1985.104712789398,1985.104712789398,1985.104712789398,,,,,,,,,,,,,,,,,,,,,,,,,115,001,2023-03-02_14h29.14.179,eb_01,2022.2.4,60.001847379443,
,,,0,0,0,0,15,0,15,0,,,,,,,,,,,,,,,,,,,,,,,,,,,,,,,,,,,,,,,,,,,,,,,,,,,,,,,,,,,,115,001,2023-03-02_14h29.14.179,eb_01,2022.2.4,60.001847379443,
3,stimuli/3.png,l,0,0,0,0,16,0,16,0,0,0,0,0,,,,,,,,,,,,,,,,,,,1985.104712789398,1985.104712789398,1985.104712789398,1985.104712789398,l,1,0.5601310724014184,1985.6880195599078,1985.6880195599078,1985.6880195599078,1986.6879610009346,1986.6879610009346,1986.6879610009346,,,,,,,,,,,,,,,,,,,,,,,,,115,001,2023-03-02_14h29.14.179,eb_01,2022.2.4,60.001847379443,
,,,0,0,0,0,16,0,16,0,,,,,,,,,,,,,,,,,,,,,,,,,,,,,,,,,,,,,,,,,,,,,,,,,,,,,,,,,,,,115,001,2023-03-02_14h29.14.179,eb_01,2022.2.4,60.001847379443,
2,stimuli/2.png,s,0,0,0,0,17,0,17,0,0,0,0,0,,,,,,,,,,,,,,,,,,,1986.6879610009346,1986.6879610009346,1986.6879610009346,1986.6879610009346,s,1,0.6649099670321448,1987.3712747139944,1987.3712747139944,1987.3712747139944,1988.3878583718179,1988.3878583718179,1988.3878583718179,,,,,,,,,,,,,,,,,,,,,,,,,115,001,2023-03-02_14h29.14.179,eb_01,2022.2.4,60.001847379443,
,,,0,0,0,0,17,0,17,0,,,,,,,,,,,,,,,,,,,,,,,,,,,,,,,,,,,,,,,,,,,,,,,,,,,,,,,,,,,,115,001,2023-03-02_14h29.14.179,eb_01,2022.2.4,60.001847379443,
4,stimuli/4.png,l,0,0,0,0,18,0,18,0,0,0,0,0,,,,,,,,,,,,,,,,,,,1988.3878583718179,1988.3878583718179,1988.3878583718179,1988.3878583718179,l,1,1.2760491502267541,1989.6877768722334,1989.6877768722334,1989.6877768722334,1990.6877146910556,1990.6877146910556,1990.6877146910556,,,,,,,,,,,,,,,,,,,,,,,,,115,001,2023-03-02_14h29.14.179,eb_01,2022.2.4,60.001847379443,
,,,0,0,0,0,18,0,18,0,,,,,,,,,,,,,,,,,,,,,,,,,,,,,,,,,,,,,,,,,,,,,,,,,,,,,,,,,,,,115,001,2023-03-02_14h29.14.179,eb_01,2022.2.4,60.001847379443,
3,stimuli/3.png,l,0,0,0,0,19,0,19,0,0,0,0,0,,,,,,,,,,,,,,,,,,,1990.6877146910556,1990.6877146910556,1990.6877146910556,1990.6877146910556,l,1,0.6562293548777234,1991.371003652399,1991.371003652399,1991.371003652399,1992.3709170213406,1992.3709170213406,1992.3709170213406,,,,,,,,,,,,,,,,,,,,,,,,,115,001,2023-03-02_14h29.14.179,eb_01,2022.2.4,60.001847379443,
,,,0,0,0,0,19,0,19,0,,,,,,,,,,,,,,,,,,,,,,,,,,,,,,,,,,,,,,,,,,,,,,,,,,,,,,,,,,,,115,001,2023-03-02_14h29.14.179,eb_01,2022.2.4,60.001847379443,
2,stimuli/2.png,s,0,0,0,0,20,0,20,0,0,0,0,0,,,,,,,,,,,,,,,,,,,1992.3709170213406,1992.3709170213406,1992.3709170213406,1992.3709170213406,s,1,0.6930946390639292,1993.087534184553,1993.087534184553,1993.087534184553,1994.1041643273347,1994.1041643273347,1994.1041643273347,,,,,,,,,,,,,,,,,,,,,,,,,115,001,2023-03-02_14h29.14.179,eb_01,2022.2.4,60.001847379443,
,,,0,0,0,0,20,0,20,0,,,,,,,,,,,,,,,,,,,,,,,,,,,,,,,,,,,,,,,,,,,,,,,,,,,,,,,,,,,,115,001,2023-03-02_14h29.14.179,eb_01,2022.2.4,60.001847379443,
4,stimuli/4.png,l,0,0,0,0,21,0,21,0,0,0,0,0,,,,,,,,,,,,,,,,,,,1994.1041643273347,1994.1041643273347,1994.1041643273347,1994.1041643273347,l,1,1.7039081257389626,1995.8373868815834,1995.8373868815834,1995.8373868815834,1996.8373295300262,1996.8373295300262,1996.8373295300262,,,,,,,,,,,,,,,,,,,,,,,,,115,001,2023-03-02_14h29.14.179,eb_01,2022.2.4,60.001847379443,
,,,0,0,0,0,21,0,21,0,,,,,,,,,,,,,,,,,,,,,,,,,,,,,,,,,,,,,,,,,,,,,,,,,,,,,,,,,,,,115,001,2023-03-02_14h29.14.179,eb_01,2022.2.4,60.001847379443,
3,stimuli/3.png,l,0,0,0,0,22,0,22,0,0,0,0,0,,,,,,,,,,,,,,,,,,,1996.8373295300262,1996.8373295300262,1996.8373295300262,1996.8373295300262,l,1,0.8507848802400986,1997.7205964562745,1997.7205964562745,1997.7205964562745,1998.737186452956,1998.737186452956,1998.737186452956,,,,,,,,,,,,,,,,,,,,,,,,,115,001,2023-03-02_14h29.14.179,eb_01,2022.2.4,60.001847379443,
,,,0,0,0,0,22,0,22,0,,,,,,,,,,,,,,,,,,,,,,,,,,,,,,,,,,,,,,,,,,,,,,,,,,,,,,,,,,,,115,001,2023-03-02_14h29.14.179,eb_01,2022.2.4,60.001847379443,
8,stimuli/8.png,l,0,0,0,0,23,0,23,0,0,0,0,0,,,,,,,,,,,,,,,,,,,1998.737186452956,1998.737186452956,1998.737186452956,1998.737186452956,s,0,1.3590106039337115,2000.1204352681962,2000.1204352681962,2000.1204352681962,2001.1370702405839,2001.1370702405839,2001.1370702405839,,,,,,,,,,,,,,,,,,,,,,,,,115,001,2023-03-02_14h29.14.179,eb_01,2022.2.4,60.001847379443,
,,,0,0,0,0,23,0,23,0,,,,,,,,,,,,,,,,,,,,,,,,,,,,,,,,,,,,,,,,,,,,,,,,,,,,,,,,,,,,115,001,2023-03-02_14h29.14.179,eb_01,2022.2.4,60.001847379443,
9,stimuli/9.png,l,0,0,0,0,24,0,24,0,0,0,0,0,,,,,,,,,,,,,,,,,,,2001.1370702405839,2001.1370702405839,2001.1370702405839,2001.1370702405839,l,1,0.7991663587017683,2001.9703516556474,2001.9703516556474,2001.9703516556474,,,,,,,,,,,,,,,,,,,,,,,,,,,,115,001,2023-03-02_14h29.14.179,eb_01,2022.2.4,60.001847379443,
,,,0,0,0,0,24,0,24,0,,,,,,,,,,,,,,,,,,,,,,,,,,,,,,,,,,,,,,,,,,,,,,,,,,,,,,,,,,,,115,001,2023-03-02_14h29.14.179,eb_01,2022.2.4,60.001847379443,
5,stimuli/5.png,s,0,0,0,0,25,0,25,0,0,0,0,0,,,,,,,,,,,,,,,,,,,2002.969976757522,2002.969976757522,2002.969976757522,2002.969976757522,l,0,0.7573670288256835,2003.7535784358188,2003.7535784358188,2003.7535784358188,2004.7701805065153,2004.7701805065153,2004.7701805065153,,,,,,,,,,,,,,,,,,,,,,,,,115,001,2023-03-02_14h29.14.179,eb_01,2022.2.4,60.001847379443,
,,,0,0,0,0,25,0,25,0,,,,,,,,,,,,,,,,,,,,,,,,,,,,,,,,,,,,,,,,,,,,,,,,,,,,,,,,,,,,115,001,2023-03-02_14h29.14.179,eb_01,2022.2.4,60.001847379443,
9,stimuli/9.png,l,0,0,0,0,26,0,26,0,0,0,0,0,,,,,,,,,,,,,,,,,,,2004.7701805065153,2004.7701805065153,2004.7701805065153,2004.7701805065153,l,1,0.813087092814385,2005.620126777154,2005.620126777154,2005.620126777154,,,,,,,,,,,,,,,,,,,,,,,,,,,,115,001,2023-03-02_14h29.14.179,eb_01,2022.2.4,60.001847379443,
,,,0,0,0,0,26,0,26,0,,,,,,,,,,,,,,,,,,,,,,,,,,,,,,,,,,,,,,,,,,,,,,,,,,,,,,,,,,,,115,001,2023-03-02_14h29.14.179,eb_01,2022.2.4,60.001847379443,
5,stimuli/5.png,s,0,0,0,0,27,0,27,0,0,0,0,0,,,,,,,,,,,,,,,,,,,2006.619740106864,2006.619740106864,2006.619740106864,2006.619740106864,s,1,1.4516134594305186,2008.1033194482152,2008.1033194482152,2008.1033194482152,2009.1199124634004,2009.1199124634004,2009.1199124634004,,,,,,,,,,,,,,,,,,,,,,,,,115,001,2023-03-02_14h29.14.179,eb_01,2022.2.4,60.001847379443,
,,,0,0,0,0,27,0,27,0,,,,,,,,,,,,,,,,,,,,,,,,,,,,,,,,,,,,,,,,,,,,,,,,,,,,,,,,,,,,115,001,2023-03-02_14h29.14.179,eb_01,2022.2.4,60.001847379443,
9,stimuli/9.png,l,0,0,0,0,28,0,28,0,0,0,0,0,,,,,,,,,,,,,,,,,,,2009.1199124634004,2009.1199124634004,2009.1199124634004,2009.1199124634004,l,1,0.5594748497678665,2009.7198644691962,2009.7198644691962,2009.7198644691962,,,,,,,,,,,,,,,,,,,,,,,,,,,,115,001,2023-03-02_14h29.14.179,eb_01,2022.2.4,60.001847379443,
,,,0,0,0,0,28,0,28,0,,,,,,,,,,,,,,,,,,,,,,,,,,,,,,,,,,,,,,,,,,,,,,,,,,,,,,,,,,,,115,001,2023-03-02_14h29.14.179,eb_01,2022.2.4,60.001847379443,
6,stimuli/6.png,s,0,0,0,0,29,0,29,0,0,0,0,0,,,,,,,,,,,,,,,,,,,2010.736482839813,2010.736482839813,2010.736482839813,2010.736482839813,s,1,0.6949603760294849,2011.4697693863418,2011.4697693863418,2011.4697693863418,,,,,,,,,,,,,,,,,,,,,,,,,,,,115,001,2023-03-02_14h29.14.179,eb_01,2022.2.4,60.001847379443,
,,,0,0,0,0,29,0,29,0,,,,,,,,,,,,,,,,,,,,,,,,,,,,,,,,,,,,,,,,,,,,,,,,,,,,,,,,,,,,115,001,2023-03-02_14h29.14.179,eb_01,2022.2.4,60.001847379443,
9,stimuli/9.png,l,0,0,0,0,30,0,30,0,0,0,0,0,,,,,,,,,,,,,,,,,,,2012.4863451960555,2012.4863451960555,2012.4863451960555,2012.4863451960555,l,1,2.8332310754194623,2015.3528373932204,2015.3528373932204,2015.3528373932204,,,,,,,,,,,,,,,,,,,,,,,,,,,,115,001,2023-03-02_14h29.14.179,eb_01,2022.2.4,60.001847379443,
,,,0,0,0,0,30,0,30,0,,,,,,,,,,,,,,,,,,,,,,,,,,,,,,,,,,,,,,,,,,,,,,,,,,,,,,,,,,,,115,001,2023-03-02_14h29.14.179,eb_01,2022.2.4,60.001847379443,
6,stimuli/6.png,s,0,0,0,0,31,0,31,0,0,0,0,0,,,,,,,,,,,,,,,,,,,2016.3694288991537,2016.3694288991537,2016.3694288991537,2016.3694288991537,s,1,1.0221848621295067,2017.4360457605217,2017.4360457605217,2017.4360457605217,,,,,,,,,,,,,,,,,,,,,,,,,,,,115,001,2023-03-02_14h29.14.179,eb_01,2022.2.4,60.001847379443,
,,,0,0,0,0,31,0,31,0,,,,,,,,,,,,,,,,,,,,,,,,,,,,,,,,,,,,,,,,,,,,,,,,,,,,,,,,,,,,115,001,2023-03-02_14h29.14.179,eb_01,2022.2.4,60.001847379443,
9,stimuli/9.png,l,0,0,0,0,32,0,32,0,0,0,0,0,,,,,,,,,,,,,,,,,,,2018.4526740921865,2018.4526740921865,2018.4526740921865,2018.4526740921865,l,1,1.0980084608017933,2019.5859265296313,2019.5859265296313,2019.5859265296313,,,,,,,,,,,,,,,,,,,,,,,,,,,,115,001,2023-03-02_14h29.14.179,eb_01,2022.2.4,60.001847379443,
,,,0,0,0,0,32,0,32,0,,,,,,,,,,,,,,,,,,,,,,,,,,,,,,,,,,,,,,,,,,,,,,,,,,,,,,,,,,,,115,001,2023-03-02_14h29.14.179,eb_01,2022.2.4,60.001847379443,
8,stimuli/8.png,l,0,0,0,0,33,0,33,0,0,0,0,0,,,,,,,,,,,,,,,,,,,2020.6025442965474,2020.6025442965474,2020.6025442965474,2020.6025442965474,l,1,1.1001005855068797,2021.719117389599,2021.719117389599,2021.719117389599,2022.735751758286,2022.735751758286,2022.735751758286,,,,,,,,,,,,,,,,,,,,,,,,,115,001,2023-03-02_14h29.14.179,eb_01,2022.2.4,60.001847379443,
,,,0,0,0,0,33,0,33,0,,,,,,,,,,,,,,,,,,,,,,,,,,,,,,,,,,,,,,,,,,,,,,,,,,,,,,,,,,,,115,001,2023-03-02_14h29.14.179,eb_01,2022.2.4,60.001847379443,
6,stimuli/6.png,s,0,0,0,0,34,0,34,0,0,0,0,0,,,,,,,,,,,,,,,,,,,2022.735751758286,2022.735751758286,2022.735751758286,2022.735751758286,l,0,0.3829437138920184,2023.1523674122436,2023.1523674122436,2023.1523674122436,,,,,,,,,,,,,,,,,,,,,,,,,,,,115,001,2023-03-02_14h29.14.179,eb_01,2022.2.4,60.001847379443,
,,,0,0,0,0,34,0,34,0,,,,,,,,,,,,,,,,,,,,,,,,,,,,,,,,,,,,,,,,,,,,,,,,,,,,,,,,,,,,115,001,2023-03-02_14h29.14.179,eb_01,2022.2.4,60.001847379443,
9,stimuli/9.png,l,0,0,0,0,35,0,35,0,0,0,0,0,,,,,,,,,,,,,,,,,,,2024.1689975550107,2024.1689975550107,2024.1689975550107,2024.1689975550107,l,1,2.0137750097492244,2026.2188843611366,2026.2188843611366,2026.2188843611366,,,,,,,,,,,,,,,,,,,,,,,,,,,,115,001,2023-03-02_14h29.14.179,eb_01,2022.2.4,60.001847379443,
,,,0,0,0,0,35,0,35,0,,,,,,,,,,,,,,,,,,,,,,,,,,,,,,,,,,,,,,,,,,,,,,,,,,,,,,,,,,,,115,001,2023-03-02_14h29.14.179,eb_01,2022.2.4,60.001847379443,
6,stimuli/6.png,s,0,0,0,0,36,0,36,0,0,0,0,0,,,,,,,,,,,,,,,,,,,2027.2354773763218,2027.2354773763218,2027.2354773763218,2027.2354773763218,s,1,1.451359603292076,2028.735386821223,2028.735386821223,2028.735386821223,,,,,,,,,,,,,,,,,,,,,,,,,,,,115,001,2023-03-02_14h29.14.179,eb_01,2022.2.4,60.001847379443,
,,,0,0,0,0,36,0,36,0,,,,,,,,,,,,,,,,,,,,,,,,,,,,,,,,,,,,,,,,,,,,,,,,,,,,,,,,,,,,115,001,2023-03-02_14h29.14.179,eb_01,2022.2.4,60.001847379443,
9,stimuli/9.png,l,0,0,0,0,37,0,37,0,0,0,0,0,,,,,,,,,,,,,,,,,,,2029.7519910048577,2029.7519910048577,2029.7519910048577,2029.7519910048577,l,1,2.0949138910800684,2031.8851960518077,2031.8851960518077,2031.8851960518077,,,,,,,,,,,,,,,,,,,,,,,,,,,,115,001,2023-03-02_14h29.14.179,eb_01,2022.2.4,60.001847379443,
,,,0,0,0,0,37,0,37,0,,,,,,,,,,,,,,,,,,,,,,,,,,,,,,,,,,,,,,,,,,,,,,,,,,,,,,,,,,,,115,001,2023-03-02_14h29.14.179,eb_01,2022.2.4,60.001847379443,
8,stimuli/8.png,l,0,0,0,0,38,0,38,0,0,0,0,0,,,,,,,,,,,,,,,,,,,2032.9018108002056,2032.9018108002056,2032.9018108002056,2032.9018108002056,l,1,0.649131042213412,2033.568405022801,2033.568405022801,2033.568405022801,2034.5850164508447,2034.5850164508447,2034.5850164508447,,,,,,,,,,,,,,,,,,,,,,,,,115,001,2023-03-02_14h29.14.179,eb_01,2022.2.4,60.001847379443,
,,,0,0,0,0,38,0,38,0,,,,,,,,,,,,,,,,,,,,,,,,,,,,,,,,,,,,,,,,,,,,,,,,,,,,,,,,,,,,115,001,2023-03-02_14h29.14.179,eb_01,2022.2.4,60.001847379443,
9,stimuli/9.png,l,0,0,0,0,39,0,39,0,0,0,0,0,,,,,,,,,,,,,,,,,,,2034.5850164508447,2034.5850164508447,2034.5850164508447,2034.5850164508447,l,1,0.9410082495014649,2035.5683174861915,2035.5683174861915,2035.5683174861915,,,,,,,,,,,,,,,,,,,,,,,,,,,,115,001,2023-03-02_14h29.14.179,eb_01,2022.2.4,60.001847379443,
,,,0,0,0,0,39,0,39,0,,,,,,,,,,,,,,,,,,,,,,,,,,,,,,,,,,,,,,,,,,,,,,,,,,,,,,,,,,,,115,001,2023-03-02_14h29.14.179,eb_01,2022.2.4,60.001847379443,
5,stimuli/5.png,s,0,0,0,0,40,0,40,0,0,0,0,0,,,,,,,,,,,,,,,,,,,2036.5679296085,2036.5679296085,2036.5679296085,2036.5679296085,s,1,0.8701522019255208,2037.4681955386623,2037.4681955386623,2037.4681955386623,2038.4847764798324,2038.4847764798324,2038.4847764798324,,,,,,,,,,,,,,,,,,,,,,,,,115,001,2023-03-02_14h29.14.179,eb_01,2022.2.4,60.001847379443,
,,,0,0,0,0,40,0,40,0,,,,,,,,,,,,,,,,,,,,,,,,,,,,,,,,,,,,,,,,,,,,,,,,,,,,,,,,,,,,115,001,2023-03-02_14h29.14.179,eb_01,2022.2.4,60.001847379443,
9,stimuli/9.png,l,0,0,0,0,41,0,41,0,0,0,0,0,,,,,,,,,,,,,,,,,,,2038.4847764798324,2038.4847764798324,2038.4847764798324,2038.4847764798324,l,1,0.5933204231259879,2039.1180935132434,2039.1180935132434,2039.1180935132434,,,,,,,,,,,,,,,,,,,,,,,,,,,,115,001,2023-03-02_14h29.14.179,eb_01,2022.2.4,60.001847379443,
,,,0,0,0,0,41,0,41,0,,,,,,,,,,,,,,,,,,,,,,,,,,,,,,,,,,,,,,,,,,,,,,,,,,,,,,,,,,,,115,001,2023-03-02_14h29.14.179,eb_01,2022.2.4,60.001847379443,
8,stimuli/8.png,l,0,0,0,0,42,0,42,0,0,0,0,0,,,,,,,,,,,,,,,,,,,2040.1346765673661,2040.1346765673661,2040.1346765673661,2040.1346765673661,l,1,0.6474304173752898,2040.8013142564014,2040.8013142564014,2040.8013142564014,2041.8179459084204,2041.8179459084204,2041.8179459084204,,,,,,,,,,,,,,,,,,,,,,,,,115,001,2023-03-02_14h29.14.179,eb_01,2022.2.4,60.001847379443,
,,,0,0,0,0,42,0,42,0,,,,,,,,,,,,,,,,,,,,,,,,,,,,,,,,,,,,,,,,,,,,,,,,,,,,,,,,,,,,115,001,2023-03-02_14h29.14.179,eb_01,2022.2.4,60.001847379443,
6,stimuli/6.png,s,0,0,0,0,43,0,43,0,0,0,0,0,,,,,,,,,,,,,,,,,,,2041.8179459084204,2041.8179459084204,2041.8179459084204,2041.8179459084204,l,0,0.43617200330481865,2042.3012246068392,2042.3012246068392,2042.3012246068392,,,,,,,,,,,,,,,,,,,,,,,,,,,,115,001,2023-03-02_14h29.14.179,eb_01,2022.2.4,60.001847379443,
,,,0,0,0,0,43,0,43,0,,,,,,,,,,,,,,,,,,,,,,,,,,,,,,,,,,,,,,,,,,,,,,,,,,,,,,,,,,,,115,001,2023-03-02_14h29.14.179,eb_01,2022.2.4,60.001847379443,
8,stimuli/8.png,l,0,0,0,0,44,0,44,0,0,0,0,0,,,,,,,,,,,,,,,,,,,2043.3178438830073,2043.3178438830073,2043.3178438830073,2043.3178438830073,l,1,0.832343333560857,2044.1677515167976,2044.1677515167976,2044.1677515167976,2045.167376316822,2045.167376316822,2045.167376316822,,,,,,,,,,,,,,,,,,,,,,,,,115,001,2023-03-02_14h29.14.179,eb_01,2022.2.4,60.001847379443,
,,,0,0,0,0,44,0,44,0,,,,,,,,,,,,,,,,,,,,,,,,,,,,,,,,,,,,,,,,,,,,,,,,,,,,,,,,,,,,115,001,2023-03-02_14h29.14.179,eb_01,2022.2.4,60.001847379443,
3,stimuli/3.png,l,0,0,0,0,45,0,45,0,0,0,0,0,,,,,,,,,,,,,,,,,,,2045.167376316822,2045.167376316822,2045.167376316822,2045.167376316822,l,1,0.7908515891758725,2045.9843384949781,2045.9843384949781,2045.9843384949781,2047.0009463008319,2047.0009463008319,2047.0009463008319,,,,,,,,,,,,,,,,,,,,,,,,,115,001,2023-03-02_14h29.14.179,eb_01,2022.2.4,60.001847379443,
,,,0,0,0,0,45,0,45,0,,,,,,,,,,,,,,,,,,,,,,,,,,,,,,,,,,,,,,,,,,,,,,,,,,,,,,,,,,,,115,001,2023-03-02_14h29.14.179,eb_01,2022.2.4,60.001847379443,
8,stimuli/8.png,l,0,0,0,0,46,0,46,0,0,0,0,0,,,,,,,,,,,,,,,,,,,2047.0009463008319,2047.0009463008319,2047.0009463008319,2047.0009463008319,l,1,0.6533225360763026,2047.6841927012574,2047.6841927012574,2047.6841927012574,2048.7008367291564,2048.7008367291564,2048.7008367291564,,,,,,,,,,,,,,,,,,,,,,,,,115,001,2023-03-02_14h29.14.179,eb_01,2022.2.4,60.001847379443,
,,,0,0,0,0,46,0,46,0,,,,,,,,,,,,,,,,,,,,,,,,,,,,,,,,,,,,,,,,,,,,,,,,,,,,,,,,,,,,115,001,2023-03-02_14h29.14.179,eb_01,2022.2.4,60.001847379443,
9,stimuli/9.png,l,0,0,0,0,47,0,47,0,0,0,0,0,,,,,,,,,,,,,,,,,,,2048.7008367291564,2048.7008367291564,2048.7008367291564,2048.7008367291564,s,0,1.1055212139617652,2049.8507736424363,2049.8507736424363,2049.8507736424363,,,,,,,,,,,,,,,,,,,,,,,,,,,,115,001,2023-03-02_14h29.14.179,eb_01,2022.2.4,60.001847379443,
,,,0,0,0,0,47,0,47,0,,,,,,,,,,,,,,,,,,,,,,,,,,,,,,,,,,,,,,,,,,,,,,,,,,,,,,,,,,,,115,001,2023-03-02_14h29.14.179,eb_01,2022.2.4,60.001847379443,
8,stimuli/8.png,l,0,0,0,0,48,0,48,0,0,0,0,0,,,,,,,,,,,,,,,,,,,2050.850381236989,2050.850381236989,2050.850381236989,2050.850381236989,s,0,1.5629980469529983,2052.4339165082056,2052.4339165082056,2052.4339165082056,2053.450554197232,2053.450554197232,2053.450554197232,,,,,,,,,,,,,,,,,,,,,,,,,115,001,2023-03-02_14h29.14.179,eb_01,2022.2.4,60.001847379443,
,,,0,0,0,0,48,0,48,0,,,,,,,,,,,,,,,,,,,,,,,,,,,,,,,,,,,,,,,,,,,,,,,,,,,,,,,,,,,,115,001,2023-03-02_14h29.14.179,eb_01,2022.2.4,60.001847379443,
9,stimuli/9.png,l,0,0,0,0,49,0,49,0,0,0,0,0,,,,,,,,,,,,,,,,,,,2053.450554197232,2053.450554197232,2053.450554197232,2053.450554197232,l,1,1.074870424636174,2054.567152042029,2054.567152042029,2054.567152042029,,,,,,,,,,,,,,,,,,,,,,,,,,,,115,001,2023-03-02_14h29.14.179,eb_01,2022.2.4,60.001847379443,
,,,0,0,0,0,49,0,49,0,,,,,,,,,,,,,,,,,,,,,,,,,,,,,,,,,,,,,,,,,,,,,,,,,,,,,,,,,,,,115,001,2023-03-02_14h29.14.179,eb_01,2022.2.4,60.001847379443,
8,stimuli/8.png,l,0,0,0,0,50,0,50,0,0,0,0,0,,,,,,,,,,,,,,,,,,,2055.583726342491,2055.583726342491,2055.583726342491,2055.583726342491,l,1,0.8537559931719443,2056.4670237556275,2056.4670237556275,2056.4670237556275,2057.4836288448278,2057.4836288448278,2057.4836288448278,,,,,,,,,,,,,,,,,,,,,,,,,115,001,2023-03-02_14h29.14.179,eb_01,2022.2.4,60.001847379443,
,,,0,0,0,0,50,0,50,0,,,,,,,,,,,,,,,,,,,,,,,,,,,,,,,,,,,,,,,,,,,,,,,,,,,,,,,,,,,,115,001,2023-03-02_14h29.14.179,eb_01,2022.2.4,60.001847379443,
9,stimuli/9.png,l,0,0,0,0,51,0,51,0,0,0,0,0,,,,,,,,,,,,,,,,,,,2057.4836288448278,2057.4836288448278,2057.4836288448278,2057.4836288448278,l,1,0.6978804762475193,2058.2169700262602,2058.2169700262602,2058.2169700262602,,,,,,,,,,,,,,,,,,,,,,,,,,,,115,001,2023-03-02_14h29.14.179,eb_01,2022.2.4,60.001847379443,
,,,0,0,0,0,51,0,51,0,,,,,,,,,,,,,,,,,,,,,,,,,,,,,,,,,,,,,,,,,,,,,,,,,,,,,,,,,,,,115,001,2023-03-02_14h29.14.179,eb_01,2022.2.4,60.001847379443,
8,stimuli/8.png,l,0,0,0,0,52,0,52,0,0,0,0,0,,,,,,,,,,,,,,,,,,,2059.233527121265,2059.233527121265,2059.233527121265,2059.233527121265,l,1,1.22804317358532,2060.483432642097,2060.483432642097,2060.483432642097,2061.5000428627536,2061.5000428627536,2061.5000428627536,,,,,,,,,,,,,,,,,,,,,,,,,115,001,2023-03-02_14h29.14.179,eb_01,2022.2.4,60.001847379443,
,,,0,0,0,0,52,0,52,0,,,,,,,,,,,,,,,,,,,,,,,,,,,,,,,,,,,,,,,,,,,,,,,,,,,,,,,,,,,,115,001,2023-03-02_14h29.14.179,eb_01,2022.2.4,60.001847379443,
9,stimuli/9.png,l,0,0,0,0,53,0,53,0,0,0,0,0,,,,,,,,,,,,,,,,,,,2061.5000428627536,2061.5000428627536,2061.5000428627536,2061.5000428627536,l,1,0.33755085567827336,2061.883374686833,2061.883374686833,2061.883374686833,,,,,,,,,,,,,,,,,,,,,,,,,,,,115,001,2023-03-02_14h29.14.179,eb_01,2022.2.4,60.001847379443,
,,,0,0,0,0,53,0,53,0,,,,,,,,,,,,,,,,,,,,,,,,,,,,,,,,,,,,,,,,,,,,,,,,,,,,,,,,,,,,115,001,2023-03-02_14h29.14.179,eb_01,2022.2.4,60.001847379443,
6,stimuli/6.png,s,0,0,0,0,54,0,54,0,0,0,0,0,,,,,,,,,,,,,,,,,,,2062.8999927555997,2062.8999927555997,2062.8999927555997,2062.8999927555997,l,0,0.3536379696743097,2063.2999550242967,2063.2999550242967,2063.2999550242967,,,,,,,,,,,,,,,,,,,,,,,,,,,,115,001,2023-03-02_14h29.14.179,eb_01,2022.2.4,60.001847379443,
,,,0,0,0,0,54,0,54,0,,,,,,,,,,,,,,,,,,,,,,,,,,,,,,,,,,,,,,,,,,,,,,,,,,,,,,,,,,,,115,001,2023-03-02_14h29.14.179,eb_01,2022.2.4,60.001847379443,
5,stimuli/5.png,s,0,0,0,0,55,0,55,0,0,0,0,0,,,,,,,,,,,,,,,,,,,2064.2995511485497,2064.2995511485497,2064.2995511485497,2064.2995511485497,s,1,0.9212358446529834,2065.249840019329,2065.249840019329,2065.249840019329,2066.266442995562,2066.266442995562,2066.266442995562,,,,,,,,,,,,,,,,,,,,,,,,,115,001,2023-03-02_14h29.14.179,eb_01,2022.2.4,60.001847379443,
,,,0,0,0,0,55,0,55,0,,,,,,,,,,,,,,,,,,,,,,,,,,,,,,,,,,,,,,,,,,,,,,,,,,,,,,,,,,,,115,001,2023-03-02_14h29.14.179,eb_01,2022.2.4,60.001847379443,
6,stimuli/6.png,s,0,0,0,0,56,0,56,0,0,0,0,0,,,,,,,,,,,,,,,,,,,2066.266442995562,2066.266442995562,2066.266442995562,2066.266442995562,s,1,2.274291475681821,2068.582968999981,2068.582968999981,2068.582968999981,,,,,,,,,,,,,,,,,,,,,,,,,,,,115,001,2023-03-02_14h29.14.179,eb_01,2022.2.4,60.001847379443,
,,,0,0,0,0,56,0,56,0,,,,,,,,,,,,,,,,,,,,,,,,,,,,,,,,,,,,,,,,,,,,,,,,,,,,,,,,,,,,115,001,2023-03-02_14h29.14.179,eb_01,2022.2.4,60.001847379443,
8,stimuli/8.png,l,0,0,0,0,57,0,57,0,0,0,0,0,,,,,,,,,,,,,,,,,,,2069.5995707688126,2069.5995707688126,2069.5995707688126,2069.5995707688126,l,1,0.8211923782073427,2070.4495004376804,2070.4495004376804,2070.4495004376804,2071.466126656407,2071.466126656407,2071.466126656407,,,,,,,,,,,,,,,,,,,,,,,,,115,001,2023-03-02_14h29.14.179,eb_01,2022.2.4,60.001847379443,
,,,0,0,0,0,57,0,57,0,,,,,,,,,,,,,,,,,,,,,,,,,,,,,,,,,,,,,,,,,,,,,,,,,,,,,,,,,,,,115,001,2023-03-02_14h29.14.179,eb_01,2022.2.4,60.001847379443,
9,stimuli/9.png,l,0,0,0,0,58,0,58,0,0,0,0,0,,,,,,,,,,,,,,,,,,,2071.466126656407,2071.466126656407,2071.466126656407,2071.466126656407,l,1,0.3146971625392325,2071.8160949621233,2071.8160949621233,2071.8160949621233,,,,,,,,,,,,,,,,,,,,,,,,,,,,115,001,2023-03-02_14h29.14.179,eb_01,2022.2.4,60.001847379443,
,,,0,0,0,0,58,0,58,0,,,,,,,,,,,,,,,,,,,,,,,,,,,,,,,,,,,,,,,,,,,,,,,,,,,,,,,,,,,,115,001,2023-03-02_14h29.14.179,eb_01,2022.2.4,60.001847379443,
5,stimuli/5.png,s,0,0,0,0,59,0,59,0,0,0,0,0,,,,,,,,,,,,,,,,,,,2072.815733647265,2072.815733647265,2072.815733647265,2072.815733647265,s,1,0.7411597783648176,2073.5826680551836,2073.5826680551836,2073.5826680551836,2074.5992927646585,2074.5992927646585,2074.5992927646585,,,,,,,,,,,,,,,,,,,,,,,,,115,001,2023-03-02_14h29.14.179,eb_01,2022.2.4,60.001847379443,
,,,0,0,0,0,59,0,59,0,,,,,,,,,,,,,,,,,,,,,,,,,,,,,,,,,,,,,,,,,,,,,,,,,,,,,,,,,,,,115,001,2023-03-02_14h29.14.179,eb_01,2022.2.4,60.001847379443,
9,stimuli/9.png,l,0,0,0,0,60,0,60,0,0,0,0,0,,,,,,,,,,,,,,,,,,,2074.5992927646585,2074.5992927646585,2074.5992927646585,2074.5992927646585,s,0,1.1736219716258347,2075.815863442913,2075.815863442913,2075.815863442913,,,,,,,,,,,,,,,,,,,,,,,,,,,,115,001,2023-03-02_14h29.14.179,eb_01,2022.2.4,60.001847379443,
,,,0,0,0,0,60,0,60,0,,,,,,,,,,,,,,,,,,,,,,,,,,,,,,,,,,,,,,,,,,,,,,,,,,,,,,,,,,,,115,001,2023-03-02_14h29.14.179,eb_01,2022.2.4,60.001847379443,
8,stimuli/8.png,l,0,0,0,0,61,0,61,0,0,0,0,0,,,,,,,,,,,,,,,,,,,2076.8154613782535,2076.8154613782535,2076.8154613782535,2076.8154613782535,l,1,0.32551095106464345,2077.1657544749323,2077.1657544749323,2077.1657544749323,2078.182400615784,2078.182400615784,2078.182400615784,,,,,,,,,,,,,,,,,,,,,,,,,115,001,2023-03-02_14h29.14.179,eb_01,2022.2.4,60.001847379443,
,,,0,0,0,0,61,0,61,0,,,,,,,,,,,,,,,,,,,,,,,,,,,,,,,,,,,,,,,,,,,,,,,,,,,,,,,,,,,,115,001,2023-03-02_14h29.14.179,eb_01,2022.2.4,60.001847379443,
6,stimuli/6.png,s,0,0,0,0,62,0,62,0,0,0,0,0,,,,,,,,,,,,,,,,,,,2078.182400615784,2078.182400615784,2078.182400615784,2078.182400615784,s,1,0.8065912734309677,2079.032336019809,2079.032336019809,2079.032336019809,,,,,,,,,,,,,,,,,,,,,,,,,,,,115,001,2023-03-02_14h29.14.179,eb_01,2022.2.4,60.001847379443,
,,,0,0,0,0,62,0,62,0,,,,,,,,,,,,,,,,,,,,,,,,,,,,,,,,,,,,,,,,,,,,,,,,,,,,,,,,,,,,115,001,2023-03-02_14h29.14.179,eb_01,2022.2.4,60.001847379443,
5,stimuli/5.png,s,0,0,0,0,63,0,63,0,0,0,0,0,,,,,,,,,,,,,,,,,,,2080.0319466328656,2080.0319466328656,2080.0319466328656,2080.0319466328656,s,1,2.4201497871254105,2082.482119894965,2082.482119894965,2082.482119894965,2083.4987050620402,2083.4987050620402,2083.4987050620402,,,,,,,,,,,,,,,,,,,,,,,,,115,001,2023-03-02_14h29.14.179,eb_01,2022.2.4,60.001847379443,
,,,0,0,0,0,63,0,63,0,,,,,,,,,,,,,,,,,,,,,,,,,,,,,,,,,,,,,,,,,,,,,,,,,,,,,,,,,,,,115,001,2023-03-02_14h29.14.179,eb_01,2022.2.4,60.001847379443,
9,stimuli/9.png,l,0,0,0,0,64,0,64,0,0,0,0,0,,,,,,,,,,,,,,,,,,,2083.4987050620402,2083.4987050620402,2083.4987050620402,2083.4987050620402,l,1,2.8814580065227346,2086.4151903166494,2086.4151903166494,2086.4151903166494,,,,,,,,,,,,,,,,,,,,,,,,,,,,115,001,2023-03-02_14h29.14.179,eb_01,2022.2.4,60.001847379443,
,,,0,0,0,0,64,0,64,0,,,,,,,,,,,,,,,,,,,,,,,,,,,,,,,,,,,,,,,,,,,,,,,,,,,,,,,,,,,,115,001,2023-03-02_14h29.14.179,eb_01,2022.2.4,60.001847379443,
5,stimuli/5.png,s,0,0,0,0,65,0,65,0,0,0,0,0,,,,,,,,,,,,,,,,,,,2087.4148214555316,2087.4148214555316,2087.4148214555316,2087.4148214555316,s,1,0.6293667873251252,2088.0651260225277,2088.0651260225277,2088.0651260225277,2089.081723565454,2089.081723565454,2089.081723565454,,,,,,,,,,,,,,,,,,,,,,,,,115,001,2023-03-02_14h29.14.179,eb_01,2022.2.4,60.001847379443,
,,,0,0,0,0,65,0,65,0,,,,,,,,,,,,,,,,,,,,,,,,,,,,,,,,,,,,,,,,,,,,,,,,,,,,,,,,,,,,115,001,2023-03-02_14h29.14.179,eb_01,2022.2.4,60.001847379443,
9,stimuli/9.png,l,0,0,0,0,66,0,66,0,0,0,0,0,,,,,,,,,,,,,,,,,,,2089.081723565454,2089.081723565454,2089.081723565454,2089.081723565454,l,1,1.4985360951977782,2090.614943704917,2090.614943704917,2090.614943704917,,,,,,,,,,,,,,,,,,,,,,,,,,,,115,001,2023-03-02_14h29.14.179,eb_01,2022.2.4,60.001847379443,
,,,0,0,0,0,66,0,66,0,,,,,,,,,,,,,,,,,,,,,,,,,,,,,,,,,,,,,,,,,,,,,,,,,,,,,,,,,,,,115,001,2023-03-02_14h29.14.179,eb_01,2022.2.4,60.001847379443,
6,stimuli/6.png,s,0,0,0,0,67,0,67,0,0,0,0,0,,,,,,,,,,,,,,,,,,,2091.631575356936,2091.631575356936,2091.631575356936,2091.631575356936,s,1,2.2047608529683203,2093.881444655737,2093.881444655737,2093.881444655737,,,,,,,,,,,,,,,,,,,,,,,,,,,,115,001,2023-03-02_14h29.14.179,eb_01,2022.2.4,60.001847379443,
,,,0,0,0,0,67,0,67,0,,,,,,,,,,,,,,,,,,,,,,,,,,,,,,,,,,,,,,,,,,,,,,,,,,,,,,,,,,,,115,001,2023-03-02_14h29.14.179,eb_01,2022.2.4,60.001847379443,
8,stimuli/8.png,l,0,0,0,0,68,0,68,0,0,0,0,0,,,,,,,,,,,,,,,,,,,2094.898023182104,2094.898023182104,2094.898023182104,2094.898023182104,l,1,0.6743524494522717,2095.597976999008,2095.597976999008,2095.597976999008,2096.614569712343,2096.614569712343,2096.614569712343,,,,,,,,,,,,,,,,,,,,,,,,,115,001,2023-03-02_14h29.14.179,eb_01,2022.2.4,60.001847379443,
,,,0,0,0,0,68,0,68,0,,,,,,,,,,,,,,,,,,,,,,,,,,,,,,,,,,,,,,,,,,,,,,,,,,,,,,,,,,,,115,001,2023-03-02_14h29.14.179,eb_01,2022.2.4,60.001847379443,
9,stimuli/9.png,l,0,0,0,0,69,0,69,0,0,0,0,0,,,,,,,,,,,,,,,,,,,2096.614569712343,2096.614569712343,2096.614569712343,2096.614569712343,l,1,1.90887477126671,2098.564494853461,2098.564494853461,2098.564494853461,,,,,,,,,,,,,,,,,,,,,,,,,,,,115,001,2023-03-02_14h29.14.179,eb_01,2022.2.4,60.001847379443,
,,,0,0,0,0,69,0,69,0,,,,,,,,,,,,,,,,,,,,,,,,,,,,,,,,,,,,,,,,,,,,,,,,,,,,,,,,,,,,115,001,2023-03-02_14h29.14.179,eb_01,2022.2.4,60.001847379443,
8,stimuli/8.png,l,0,0,0,0,70,0,70,0,0,0,0,0,,,,,,,,,,,,,,,,,,,2099.581089981599,2099.581089981599,2099.581089981599,2099.581089981599,l,1,0.6143953121936647,2100.214372000366,2100.214372000366,2100.214372000366,2101.2309852395265,2101.2309852395265,2101.2309852395265,,,,,,,,,,,,,,,,,,,,,,,,,115,001,2023-03-02_14h29.14.179,eb_01,2022.2.4,60.001847379443,
,,,0,0,0,0,70,0,70,0,,,,,,,,,,,,,,,,,,,,,,,,,,,,,,,,,,,,,,,,,,,,,,,,,,,,,,,,,,,,115,001,2023-03-02_14h29.14.179,eb_01,2022.2.4,60.001847379443,
6,stimuli/6.png,s,0,0,0,0,71,0,71,0,0,0,0,0,,,,,,,,,,,,,,,,,,,2101.2309852395265,2101.2309852395265,2101.2309852395265,2101.2309852395265,s,1,0.6125428566301707,2101.8809761840093,2101.8809761840093,2101.8809761840093,,,,,,,,,,,,,,,,,,,,,,,,,,,,115,001,2023-03-02_14h29.14.179,eb_01,2022.2.4,60.001847379443,
,,,0,0,0,0,71,0,71,0,,,,,,,,,,,,,,,,,,,,,,,,,,,,,,,,,,,,,,,,,,,,,,,,,,,,,,,,,,,,115,001,2023-03-02_14h29.14.179,eb_01,2022.2.4,60.001847379443,
5,stimuli/5.png,s,0,0,0,0,72,0,72,0,0,0,0,0,,,,,,,,,,,,,,,,,,,2102.880606719191,2102.880606719191,2102.880606719191,2102.880606719191,s,1,0.714947698317701,2103.6141555736685,2103.6141555736685,2103.6141555736685,2104.6307706239313,2104.6307706239313,2104.6307706239313,,,,,,,,,,,,,,,,,,,,,,,,,115,001,2023-03-02_14h29.14.179,eb_01,2022.2.4,60.001847379443,
,,,0,0,0,0,72,0,72,0,,,,,,,,,,,,,,,,,,,,,,,,,,,,,,,,,,,,,,,,,,,,,,,,,,,,,,,,,,,,115,001,2023-03-02_14h29.14.179,eb_01,2022.2.4,60.001847379443,
9,stimuli/9.png,l,0,0,0,0,73,0,73,0,0,0,0,0,,,,,,,,,,,,,,,,,,,2104.6307706239313,2104.6307706239313,2104.6307706239313,2104.6307706239313,l,1,1.0528495365870185,2105.7307277611835,2105.7307277611835,2105.7307277611835,,,,,,,,,,,,,,,,,,,,,,,,,,,,115,001,2023-03-02_14h29.14.179,eb_01,2022.2.4,60.001847379443,
,,,0,0,0,0,73,0,73,0,,,,,,,,,,,,,,,,,,,,,,,,,,,,,,,,,,,,,,,,,,,,,,,,,,,,,,,,,,,,115,001,2023-03-02_14h29.14.179,eb_01,2022.2.4,60.001847379443,
5,stimuli/5.png,s,0,0,0,0,74,0,74,0,0,0,0,0,,,,,,,,,,,,,,,,,,,2106.7303576926643,2106.7303576926643,2106.7303576926643,2106.7303576926643,s,1,0.6732965769479051,2107.4306281505706,2107.4306281505706,2107.4306281505706,2108.447230824968,2108.447230824968,2108.447230824968,,,,,,,,,,,,,,,,,,,,,,,,,115,001,2023-03-02_14h29.14.179,eb_01,2022.2.4,60.001847379443,
,,,0,0,0,0,74,0,74,0,,,,,,,,,,,,,,,,,,,,,,,,,,,,,,,,,,,,,,,,,,,,,,,,,,,,,,,,,,,,115,001,2023-03-02_14h29.14.179,eb_01,2022.2.4,60.001847379443,
6,stimuli/6.png,s,0,0,0,0,75,0,75,0,0,0,0,0,,,,,,,,,,,,,,,,,,,2108.447230824968,2108.447230824968,2108.447230824968,2108.447230824968,s,1,0.8284624437219463,2109.3138479881745,2109.3138479881745,2109.3138479881745,,,,,,,,,,,,,,,,,,,,,,,,,,,,115,001,2023-03-02_14h29.14.179,eb_01,2022.2.4,60.001847379443,
,,,0,0,0,0,75,0,75,0,,,,,,,,,,,,,,,,,,,,,,,,,,,,,,,,,,,,,,,,,,,,,,,,,,,,,,,,,,,,115,001,2023-03-02_14h29.14.179,eb_01,2022.2.4,60.001847379443,
9,stimuli/9.png,l,0,0,0,0,76,0,76,0,0,0,0,0,,,,,,,,,,,,,,,,,,,2110.330453982926,2110.330453982926,2110.330453982926,2110.330453982926,l,1,0.5532814844336826,2110.9304180627223,2110.9304180627223,2110.9304180627223,,,,,,,,,,,,,,,,,,,,,,,,,,,,115,001,2023-03-02_14h29.14.179,eb_01,2022.2.4,60.001847379443,
,,,0,0,0,0,76,0,76,0,,,,,,,,,,,,,,,,,,,,,,,,,,,,,,,,,,,,,,,,,,,,,,,,,,,,,,,,,,,,115,001,2023-03-02_14h29.14.179,eb_01,2022.2.4,60.001847379443,
8,stimuli/8.png,l,0,0,0,0,77,0,77,0,0,0,0,0,,,,,,,,,,,,,,,,,,,2111.9470213408204,2111.9470213408204,2111.9470213408204,2111.9470213408204,l,1,0.55183260278136,2112.5302900781826,2112.5302900781826,2112.5302900781826,2113.5302508376335,2113.5302508376335,2113.5302508376335,,,,,,,,,,,,,,,,,,,,,,,,,115,001,2023-03-02_14h29.14.179,eb_01,2022.2.4,60.001847379443,
,,,0,0,0,0,77,0,77,0,,,,,,,,,,,,,,,,,,,,,,,,,,,,,,,,,,,,,,,,,,,,,,,,,,,,,,,,,,,,115,001,2023-03-02_14h29.14.179,eb_01,2022.2.4,60.001847379443,
3,stimuli/3.png,l,0,0,0,0,78,0,78,0,0,0,0,0,,,,,,,,,,,,,,,,,,,2113.5302508376335,2113.5302508376335,2113.5302508376335,2113.5302508376335,l,1,0.6725362159340875,2114.230221860009,2114.230221860009,2114.230221860009,2115.230162093634,2115.230162093634,2115.230162093634,,,,,,,,,,,,,,,,,,,,,,,,,115,001,2023-03-02_14h29.14.179,eb_01,2022.2.4,60.001847379443,
,,,0,0,0,0,78,0,78,0,,,,,,,,,,,,,,,,,,,,,,,,,,,,,,,,,,,,,,,,,,,,,,,,,,,,,,,,,,,,115,001,2023-03-02_14h29.14.179,eb_01,2022.2.4,60.001847379443,
2,stimuli/2.png,s,0,0,0,0,79,0,79,0,0,0,0,0,,,,,,,,,,,,,,,,,,,2115.230162093634,2115.230162093634,2115.230162093634,2115.230162093634,s,1,0.6046832774154609,2115.8634438105655,2115.8634438105655,2115.8634438105655,2116.8800624830183,2116.8800624830183,2116.8800624830183,,,,,,,,,,,,,,,,,,,,,,,,,115,001,2023-03-02_14h29.14.179,eb_01,2022.2.4,60.001847379443,
,,,0,0,0,0,79,0,79,0,,,,,,,,,,,,,,,,,,,,,,,,,,,,,,,,,,,,,,,,,,,,,,,,,,,,,,,,,,,,115,001,2023-03-02_14h29.14.179,eb_01,2022.2.4,60.001847379443,
1,stimuli/1.png,s,0,0,0,0,80,0,80,0,0,0,0,0,,,,,,,,,,,,,,,,,,,2116.8800624830183,2116.8800624830183,2116.8800624830183,2116.8800624830183,s,1,0.6669030848424882,2117.596628331681,2117.596628331681,2117.596628331681,,,,,,,,,,,,,,,,,,,,,,,,,,,,115,001,2023-03-02_14h29.14.179,eb_01,2022.2.4,60.001847379443,
,,,0,0,0,0,80,0,80,0,,,,,,,,,,,,,,,,,,,,,,,,,,,,,,,,,,,,,,,,,,,,,,,,,,,,,,,,,,,,115,001,2023-03-02_14h29.14.179,eb_01,2022.2.4,60.001847379443,
2,stimuli/2.png,s,0,0,0,0,81,0,81,0,0,0,0,0,,,,,,,,,,,,,,,,,,,2118.596592411486,2118.596592411486,2118.596592411486,2118.596592411486,s,1,0.5183226869994542,2119.14657701712,2119.14657701712,2119.14657701712,2120.1631745600607,2120.1631745600607,2120.1631745600607,,,,,,,,,,,,,,,,,,,,,,,,,115,001,2023-03-02_14h29.14.179,eb_01,2022.2.4,60.001847379443,
,,,0,0,0,0,81,0,81,0,,,,,,,,,,,,,,,,,,,,,,,,,,,,,,,,,,,,,,,,,,,,,,,,,,,,,,,,,,,,115,001,2023-03-02_14h29.14.179,eb_01,2022.2.4,60.001847379443,
1,stimuli/1.png,s,0,0,0,0,82,0,82,0,0,0,0,0,,,,,,,,,,,,,,,,,,,2120.1631745600607,2120.1631745600607,2120.1631745600607,2120.1631745600607,s,1,0.5117809863731964,2120.71315554349,2120.71315554349,2120.71315554349,,,,,,,,,,,,,,,,,,,,,,,,,,,,115,001,2023-03-02_14h29.14.179,eb_01,2022.2.4,60.001847379443,
,,,0,0,0,0,82,0,82,0,,,,,,,,,,,,,,,,,,,,,,,,,,,,,,,,,,,,,,,,,,,,,,,,,,,,,,,,,,,,115,001,2023-03-02_14h29.14.179,eb_01,2022.2.4,60.001847379443,
4,stimuli/4.png,l,0,0,0,0,83,0,83,0,0,0,0,0,,,,,,,,,,,,,,,,,,,2121.729758217887,2121.729758217887,2121.729758217887,2121.729758217887,l,1,0.7132440549903549,2122.46302393674,2122.46302393674,2122.46302393674,2123.479662833168,2123.479662833168,2123.479662833168,,,,,,,,,,,,,,,,,,,,,,,,,115,001,2023-03-02_14h29.14.179,eb_01,2022.2.4,60.001847379443,
,,,0,0,0,0,83,0,83,0,,,,,,,,,,,,,,,,,,,,,,,,,,,,,,,,,,,,,,,,,,,,,,,,,,,,,,,,,,,,115,001,2023-03-02_14h29.14.179,eb_01,2022.2.4,60.001847379443,
1,stimuli/1.png,s,0,0,0,0,84,0,84,0,0,0,0,0,,,,,,,,,,,,,,,,,,,2123.479662833168,2123.479662833168,2123.479662833168,2123.479662833168,s,1,0.6673546529491432,2124.1962576594524,2124.1962576594524,2124.1962576594524,,,,,,,,,,,,,,,,,,,,,,,,,,,,115,001,2023-03-02_14h29.14.179,eb_01,2022.2.4,60.001847379443,
,,,0,0,0,0,84,0,84,0,,,,,,,,,,,,,,,,,,,,,,,,,,,,,,,,,,,,,,,,,,,,,,,,,,,,,,,,,,,,115,001,2023-03-02_14h29.14.179,eb_01,2022.2.4,60.001847379443,
2,stimuli/2.png,s,0,0,0,0,85,0,85,0,0,0,0,0,,,,,,,,,,,,,,,,,,,2125.196227172579,2125.196227172579,2125.196227172579,2125.196227172579,s,1,0.5988862415979384,2125.812858220903,2125.812858220903,2125.812858220903,2126.8294759878045,2126.8294759878045,2126.8294759878045,,,,,,,,,,,,,,,,,,,,,,,,,115,001,2023-03-02_14h29.14.179,eb_01,2022.2.4,60.001847379443,
,,,0,0,0,0,85,0,85,0,,,,,,,,,,,,,,,,,,,,,,,,,,,,,,,,,,,,,,,,,,,,,,,,,,,,,,,,,,,,115,001,2023-03-02_14h29.14.179,eb_01,2022.2.4,60.001847379443,
4,stimuli/4.png,l,0,0,0,0,86,0,86,0,0,0,0,0,,,,,,,,,,,,,,,,,,,2126.8294759878045,2126.8294759878045,2126.8294759878045,2126.8294759878045,l,1,0.804719801308238,2127.6627510640246,2127.6627510640246,2127.6627510640246,2128.6623426605074,2128.6623426605074,2128.6623426605074,,,,,,,,,,,,,,,,,,,,,,,,,115,001,2023-03-02_14h29.14.179,eb_01,2022.2.4,60.001847379443,
,,,0,0,0,0,86,0,86,0,,,,,,,,,,,,,,,,,,,,,,,,,,,,,,,,,,,,,,,,,,,,,,,,,,,,,,,,,,,,115,001,2023-03-02_14h29.14.179,eb_01,2022.2.4,60.001847379443,
2,stimuli/2.png,s,0,0,0,0,87,0,87,0,0,0,0,0,,,,,,,,,,,,,,,,,,,2128.6623426605074,2128.6623426605074,2128.6623426605074,2128.6623426605074,s,1,1.363812741037691,2130.045933774032,2130.045933774032,2130.045933774032,2131.062542485437,2131.062542485437,2131.062542485437,,,,,,,,,,,,,,,,,,,,,,,,,115,001,2023-03-02_14h29.14.179,eb_01,2022.2.4,60.001847379443,
,,,0,0,0,0,87,0,87,0,,,,,,,,,,,,,,,,,,,,,,,,,,,,,,,,,,,,,,,,,,,,,,,,,,,,,,,,,,,,115,001,2023-03-02_14h29.14.179,eb_01,2022.2.4,60.001847379443,
4,stimuli/4.png,l,0,0,0,0,88,0,88,0,0,0,0,0,,,,,,,,,,,,,,,,,,,2131.062542485437,2131.062542485437,2131.062542485437,2131.062542485437,l,1,0.7476721995190019,2131.829160252353,2131.829160252353,2131.829160252353,2132.8291047118837,2132.8291047118837,2132.8291047118837,,,,,,,,,,,,,,,,,,,,,,,,,115,001,2023-03-02_14h29.14.179,eb_01,2022.2.4,60.001847379443,
,,,0,0,0,0,88,0,88,0,,,,,,,,,,,,,,,,,,,,,,,,,,,,,,,,,,,,,,,,,,,,,,,,,,,,,,,,,,,,115,001,2023-03-02_14h29.14.179,eb_01,2022.2.4,60.001847379443,
2,stimuli/2.png,s,0,0,0,0,89,0,89,0,0,0,0,0,,,,,,,,,,,,,,,,,,,2132.8291047118837,2132.8291047118837,2132.8291047118837,2132.8291047118837,s,1,1.0211567598744296,2133.879027136354,2133.879027136354,2133.879027136354,2134.895652449515,2134.895652449515,2134.895652449515,,,,,,,,,,,,,,,,,,,,,,,,,115,001,2023-03-02_14h29.14.179,eb_01,2022.2.4,60.001847379443,
,,,0,0,0,0,89,0,89,0,,,,,,,,,,,,,,,,,,,,,,,,,,,,,,,,,,,,,,,,,,,,,,,,,,,,,,,,,,,,115,001,2023-03-02_14h29.14.179,eb_01,2022.2.4,60.001847379443,
1,stimuli/1.png,s,0,0,0,0,90,0,90,0,0,0,0,0,,,,,,,,,,,,,,,,,,,2134.895652449515,2134.895652449515,2134.895652449515,2134.895652449515,s,1,0.4586435539240483,2135.395582420242,2135.395582420242,2135.395582420242,,,,,,,,,,,,,,,,,,,,,,,,,,,,115,001,2023-03-02_14h29.14.179,eb_01,2022.2.4,60.001847379443,
,,,0,0,0,0,90,0,90,0,,,,,,,,,,,,,,,,,,,,,,,,,,,,,,,,,,,,,,,,,,,,,,,,,,,,,,,,,,,,115,001,2023-03-02_14h29.14.179,eb_01,2022.2.4,60.001847379443,
2,stimuli/2.png,s,0,0,0,0,91,0,91,0,0,0,0,0,,,,,,,,,,,,,,,,,,,2136.3955594796134,2136.3955594796134,2136.3955594796134,2136.3955594796134,s,1,0.558786027278984,2136.9788345558336,2136.9788345558336,2136.9788345558336,2137.9954589634435,2137.9954589634435,2137.9954589634435,,,,,,,,,,,,,,,,,,,,,,,,,115,001,2023-03-02_14h29.14.179,eb_01,2022.2.4,60.001847379443,
,,,0,0,0,0,91,0,91,0,,,,,,,,,,,,,,,,,,,,,,,,,,,,,,,,,,,,,,,,,,,,,,,,,,,,,,,,,,,,115,001,2023-03-02_14h29.14.179,eb_01,2022.2.4,60.001847379443,
4,stimuli/4.png,l,0,0,0,0,92,0,92,0,0,0,0,0,,,,,,,,,,,,,,,,,,,2137.9954589634435,2137.9954589634435,2137.9954589634435,2137.9954589634435,l,1,0.5429446194466436,2138.562077032213,2138.562077032213,2138.562077032213,2139.5786981194833,2139.5786981194833,2139.5786981194833,,,,,,,,,,,,,,,,,,,,,,,,,115,001,2023-03-02_14h29.14.179,eb_01,2022.2.4,60.001847379443,
,,,0,0,0,0,92,0,92,0,,,,,,,,,,,,,,,,,,,,,,,,,,,,,,,,,,,,,,,,,,,,,,,,,,,,,,,,,,,,115,001,2023-03-02_14h29.14.179,eb_01,2022.2.4,60.001847379443,
1,stimuli/1.png,s,0,0,0,0,93,0,93,0,0,0,0,0,,,,,,,,,,,,,,,,,,,2139.5786981194833,2139.5786981194833,2139.5786981194833,2139.5786981194833,s,1,0.41572254816128407,2140.0286534456245,2140.0286534456245,2140.0286534456245,,,,,,,,,,,,,,,,,,,,,,,,,,,,115,001,2023-03-02_14h29.14.179,eb_01,2022.2.4,60.001847379443,
,,,0,0,0,0,93,0,93,0,,,,,,,,,,,,,,,,,,,,,,,,,,,,,,,,,,,,,,,,,,,,,,,,,,,,,,,,,,,,115,001,2023-03-02_14h29.14.179,eb_01,2022.2.4,60.001847379443,
2,stimuli/2.png,s,0,0,0,0,94,0,94,0,0,0,0,0,,,,,,,,,,,,,,,,,,,2141.0286132995243,2141.0286132995243,2141.0286132995243,2141.0286132995243,s,1,0.7178339913079981,2141.778561381274,2141.778561381274,2141.778561381274,2142.795170394529,2142.795170394529,2142.795170394529,,,,,,,,,,,,,,,,,,,,,,,,,115,001,2023-03-02_14h29.14.179,eb_01,2022.2.4,60.001847379443,
,,,0,0,0,0,94,0,94,0,,,,,,,,,,,,,,,,,,,,,,,,,,,,,,,,,,,,,,,,,,,,,,,,,,,,,,,,,,,,115,001,2023-03-02_14h29.14.179,eb_01,2022.2.4,60.001847379443,
1,stimuli/1.png,s,0,0,0,0,95,0,95,0,0,0,0,0,,,,,,,,,,,,,,,,,,,2142.795170394529,2142.795170394529,2142.795170394529,2142.795170394529,s,1,0.5103828155988595,2143.3451353798882,2143.3451353798882,2143.3451353798882,,,,,,,,,,,,,,,,,,,,,,,,,,,,115,001,2023-03-02_14h29.14.179,eb_01,2022.2.4,60.001847379443,
,,,0,0,0,0,95,0,95,0,,,,,,,,,,,,,,,,,,,,,,,,,,,,,,,,,,,,,,,,,,,,,,,,,,,,,,,,,,,,115,001,2023-03-02_14h29.14.179,eb_01,2022.2.4,60.001847379443,
2,stimuli/2.png,s,0,0,0,0,96,0,96,0,0,0,0,0,,,,,,,,,,,,,,,,,,,2144.345086480127,2144.345086480127,2144.345086480127,2144.345086480127,s,1,0.6324676959047792,2144.995000150928,2144.995000150928,2144.995000150928,2146.0116429714253,2146.0116429714253,2146.0116429714253,,,,,,,,,,,,,,,,,,,,,,,,,115,001,2023-03-02_14h29.14.179,eb_01,2022.2.4,60.001847379443,
,,,0,0,0,0,96,0,96,0,,,,,,,,,,,,,,,,,,,,,,,,,,,,,,,,,,,,,,,,,,,,,,,,,,,,,,,,,,,,115,001,2023-03-02_14h29.14.179,eb_01,2022.2.4,60.001847379443,
4,stimuli/4.png,l,0,0,0,0,97,0,97,0,0,0,0,0,,,,,,,,,,,,,,,,,,,2146.0116429714253,2146.0116429714253,2146.0116429714253,2146.0116429714253,l,1,1.0299246067734202,2147.0615952790686,2147.0615952790686,2147.0615952790686,2148.0781888979545,2148.0781888979545,2148.0781888979545,,,,,,,,,,,,,,,,,,,,,,,,,115,001,2023-03-02_14h29.14.179,eb_01,2022.2.4,60.001847379443,
,,,0,0,0,0,97,0,97,0,,,,,,,,,,,,,,,,,,,,,,,,,,,,,,,,,,,,,,,,,,,,,,,,,,,,,,,,,,,,115,001,2023-03-02_14h29.14.179,eb_01,2022.2.4,60.001847379443,
1,stimuli/1.png,s,0,0,0,0,98,0,98,0,0,0,0,0,,,,,,,,,,,,,,,,,,,2148.0781888979545,2148.0781888979545,2148.0781888979545,2148.0781888979545,s,1,0.6754213015083224,2148.7947831205383,2148.7947831205383,2148.7947831205383,,,,,,,,,,,,,,,,,,,,,,,,,,,,115,001,2023-03-02_14h29.14.179,eb_01,2022.2.4,60.001847379443,
,,,0,0,0,0,98,0,98,0,,,,,,,,,,,,,,,,,,,,,,,,,,,,,,,,,,,,,,,,,,,,,,,,,,,,,,,,,,,,115,001,2023-03-02_14h29.14.179,eb_01,2022.2.4,60.001847379443,
2,stimuli/2.png,s,0,0,0,0,99,0,99,0,0,0,0,0,,,,,,,,,,,,,,,,,,,2149.7947538410517,2149.7947538410517,2149.7947538410517,2149.7947538410517,s,1,1.542918358463794,2151.361328443367,2151.361328443367,2151.361328443367,2152.361258414079,2152.361258414079,2152.361258414079,,,,,,,,,,,,,,,,,,,,,,,,,115,001,2023-03-02_14h29.14.179,eb_01,2022.2.4,60.001847379443,
,,,0,0,0,0,99,0,99,0,,,,,,,,,,,,,,,,,,,,,,,,,,,,,,,,,,,,,,,,,,,,,,,,,,,,,,,,,,,,115,001,2023-03-02_14h29.14.179,eb_01,2022.2.4,60.001847379443,
,,,0,0,0,0,,,,,,,,,,,,,,,,,,,,,,,,,,,,,,,,,,,,,,,,2152.361258414079,2152.361258414079,return,6.136577690165723,,,,,,,,,,,,,,,,,,,,,115,001,2023-03-02_14h29.14.179,eb_01,2022.2.4,60.001847379443,
3,stimuli/3.png,l,1,0,1,0,0,0,0,0,0,0,0,0,,,,,,,,,,,,,,,,,,,2158.5441733828484,2158.5441733828484,2158.5441733828484,2158.5441733828484,l,1,1.3047886231943266,2159.8774792477925,2159.8774792477925,2159.8774792477925,2160.8940592834115,2160.8940592834115,2160.8940592834115,,,,,,,,,,,,,,,,,,,,,,,,,115,001,2023-03-02_14h29.14.179,eb_01,2022.2.4,60.001847379443,
,,,1,0,1,0,0,0,0,0,,,,,,,,,,,,,,,,,,,,,,,,,,,,,,,,,,,,,,,,,,,,,,,,,,,,,,,,,,,,115,001,2023-03-02_14h29.14.179,eb_01,2022.2.4,60.001847379443,
8,stimuli/8.png,l,1,0,1,0,1,0,1,0,0,0,0,0,,,,,,,,,,,,,,,,,,,2160.8940592834115,2160.8940592834115,2160.8940592834115,2160.8940592834115,l,1,0.5708437410648912,2161.494050227906,2161.494050227906,2161.494050227906,2162.5106565244932,2162.5106565244932,2162.5106565244932,,,,,,,,,,,,,,,,,,,,,,,,,115,001,2023-03-02_14h29.14.179,eb_01,2022.2.4,60.001847379443,
,,,1,0,1,0,1,0,1,0,,,,,,,,,,,,,,,,,,,,,,,,,,,,,,,,,,,,,,,,,,,,,,,,,,,,,,,,,,,,115,001,2023-03-02_14h29.14.179,eb_01,2022.2.4,60.001847379443,
9,stimuli/9.png,l,1,0,1,0,2,0,2,0,0,0,0,0,,,,,,,,,,,,,,,,,,,2162.5106565244932,2162.5106565244932,2162.5106565244932,2162.5106565244932,l,1,0.6102454736828804,2163.1606184913544,2163.1606184913544,2163.1606184913544,,,,,,,,,,,,,,,,,,,,,,,,,,,,115,001,2023-03-02_14h29.14.179,eb_01,2022.2.4,60.001847379443,
,,,1,0,1,0,2,0,2,0,,,,,,,,,,,,,,,,,,,,,,,,,,,,,,,,,,,,,,,,,,,,,,,,,,,,,,,,,,,,115,001,2023-03-02_14h29.14.179,eb_01,2022.2.4,60.001847379443,
5,stimuli/5.png,s,1,0,1,0,3,0,3,0,0,0,0,0,,,,,,,,,,,,,,,,,,,2164.1602143137425,2164.1602143137425,2164.1602143137425,2164.1602143137425,s,1,0.5527752814086853,2164.7438781732053,2164.7438781732053,2164.7438781732053,2165.760453077368,2165.760453077368,2165.760453077368,,,,,,,,,,,,,,,,,,,,,,,,,115,001,2023-03-02_14h29.14.179,eb_01,2022.2.4,60.001847379443,
,,,1,0,1,0,3,0,3,0,,,,,,,,,,,,,,,,,,,,,,,,,,,,,,,,,,,,,,,,,,,,,,,,,,,,,,,,,,,,115,001,2023-03-02_14h29.14.179,eb_01,2022.2.4,60.001847379443,
9,stimuli/9.png,l,1,0,1,0,4,0,4,0,0,0,0,0,,,,,,,,,,,,,,,,,,,2165.760453077368,2165.760453077368,2165.760453077368,2165.760453077368,l,1,0.5846099277841859,2166.393756527512,2166.393756527512,2166.393756527512,,,,,,,,,,,,,,,,,,,,,,,,,,,,115,001,2023-03-02_14h29.14.179,eb_01,2022.2.4,60.001847379443,
,,,1,0,1,0,4,0,4,0,,,,,,,,,,,,,,,,,,,,,,,,,,,,,,,,,,,,,,,,,,,,,,,,,,,,,,,,,,,,115,001,2023-03-02_14h29.14.179,eb_01,2022.2.4,60.001847379443,
5,stimuli/5.png,s,1,0,1,0,5,0,5,0,0,0,0,0,,,,,,,,,,,,,,,,,,,2167.410334450178,2167.410334450178,2167.410334450178,2167.410334450178,s,1,0.398745881189825,2167.8270177186205,2167.8270177186205,2167.8270177186205,2168.84361405416,2168.84361405416,2168.84361405416,,,,,,,,,,,,,,,,,,,,,,,,,115,001,2023-03-02_14h29.14.179,eb_01,2022.2.4,60.001847379443,
,,,1,0,1,0,5,0,5,0,,,,,,,,,,,,,,,,,,,,,,,,,,,,,,,,,,,,,,,,,,,,,,,,,,,,,,,,,,,,115,001,2023-03-02_14h29.14.179,eb_01,2022.2.4,60.001847379443,
9,stimuli/9.png,l,1,0,1,0,6,0,6,0,0,0,0,0,,,,,,,,,,,,,,,,,,,2168.84361405416,2168.84361405416,2168.84361405416,2168.84361405416,l,1,0.3974711671762634,2169.27691991911,2169.27691991911,2169.27691991911,,,,,,,,,,,,,,,,,,,,,,,,,,,,115,001,2023-03-02_14h29.14.179,eb_01,2022.2.4,60.001847379443,
,,,1,0,1,0,6,0,6,0,,,,,,,,,,,,,,,,,,,,,,,,,,,,,,,,,,,,,,,,,,,,,,,,,,,,,,,,,,,,115,001,2023-03-02_14h29.14.179,eb_01,2022.2.4,60.001847379443,
8,stimuli/8.png,l,1,0,1,0,7,0,7,0,0,0,0,0,,,,,,,,,,,,,,,,,,,2170.293533761971,2170.293533761971,2170.293533761971,2170.293533761971,l,1,0.5875771166465711,2170.910130399352,2170.910130399352,2170.910130399352,2171.92673367745,2171.92673367745,2171.92673367745,,,,,,,,,,,,,,,,,,,,,,,,,115,001,2023-03-02_14h29.14.179,eb_01,2022.2.4,60.001847379443,
,,,1,0,1,0,7,0,7,0,,,,,,,,,,,,,,,,,,,,,,,,,,,,,,,,,,,,,,,,,,,,,,,,,,,,,,,,,,,,115,001,2023-03-02_14h29.14.179,eb_01,2022.2.4,60.001847379443,
9,stimuli/9.png,l,1,0,1,0,8,0,8,0,0,0,0,0,,,,,,,,,,,,,,,,,,,2171.92673367745,2171.92673367745,2171.92673367745,2171.92673367745,l,1,0.6264246520440793,2172.5933562739665,2172.5933562739665,2172.5933562739665,,,,,,,,,,,,,,,,,,,,,,,,,,,,115,001,2023-03-02_14h29.14.179,eb_01,2022.2.4,60.001847379443,
,,,1,0,1,0,8,0,8,0,,,,,,,,,,,,,,,,,,,,,,,,,,,,,,,,,,,,,,,,,,,,,,,,,,,,,,,,,,,,115,001,2023-03-02_14h29.14.179,eb_01,2022.2.4,60.001847379443,
8,stimuli/8.png,l,1,0,1,0,9,0,9,0,0,0,0,0,,,,,,,,,,,,,,,,,,,2173.593003712769,2173.593003712769,2173.593003712769,2173.593003712769,l,1,0.6793030969129177,2174.293260889259,2174.293260889259,2174.293260889259,2175.2932008210337,2175.2932008210337,2175.2932008210337,,,,,,,,,,,,,,,,,,,,,,,,,115,001,2023-03-02_14h29.14.179,eb_01,2022.2.4,60.001847379443,
,,,1,0,1,0,9,0,9,0,,,,,,,,,,,,,,,,,,,,,,,,,,,,,,,,,,,,,,,,,,,,,,,,,,,,,,,,,,,,115,001,2023-03-02_14h29.14.179,eb_01,2022.2.4,60.001847379443,
3,stimuli/3.png,l,1,0,1,0,10,0,10,0,0,0,0,0,,,,,,,,,,,,,,,,,,,2175.2932008210337,2175.2932008210337,2175.2932008210337,2175.2932008210337,l,1,0.5550530440959847,2175.8765275136684,2175.8765275136684,2175.8765275136684,2176.893130791752,2176.893130791752,2176.893130791752,,,,,,,,,,,,,,,,,,,,,,,,,115,001,2023-03-02_14h29.14.179,eb_01,2022.2.4,60.001847379443,
,,,1,0,1,0,10,0,10,0,,,,,,,,,,,,,,,,,,,,,,,,,,,,,,,,,,,,,,,,,,,,,,,,,,,,,,,,,,,,115,001,2023-03-02_14h29.14.179,eb_01,2022.2.4,60.001847379443,
4,stimuli/4.png,l,1,0,1,0,11,0,11,0,0,0,0,0,,,,,,,,,,,,,,,,,,,2176.893130791752,2176.893130791752,2176.893130791752,2176.893130791752,l,1,0.5231405203230679,2177.4430957771256,2177.4430957771256,2177.4430957771256,2178.459708714421,2178.459708714421,2178.459708714421,,,,,,,,,,,,,,,,,,,,,,,,,115,001,2023-03-02_14h29.14.179,eb_01,2022.2.4,60.001847379443,
,,,1,0,1,0,11,0,11,0,,,,,,,,,,,,,,,,,,,,,,,,,,,,,,,,,,,,,,,,,,,,,,,,,,,,,,,,,,,,115,001,2023-03-02_14h29.14.179,eb_01,2022.2.4,60.001847379443,
1,stimuli/1.png,s,1,0,1,0,12,0,12,0,0,0,0,0,,,,,,,,,,,,,,,,,,,2178.459708714421,2178.459708714421,2178.459708714421,2178.459708714421,l,0,0.5565810105181299,2179.0596404962416,2179.0596404962416,2179.0596404962416,,,,,,,,,,,,,,,,,,,,,,,,,,,,115,001,2023-03-02_14h29.14.179,eb_01,2022.2.4,60.001847379443,
,,,1,0,1,0,12,0,12,0,,,,,,,,,,,,,,,,,,,,,,,,,,,,,,,,,,,,,,,,,,,,,,,,,,,,,,,,,,,,115,001,2023-03-02_14h29.14.179,eb_01,2022.2.4,60.001847379443,
4,stimuli/4.png,l,1,0,1,0,13,0,13,0,0,0,0,0,,,,,,,,,,,,,,,,,,,2180.0762461891427,2180.0762461891427,2180.0762461891427,2180.0762461891427,l,1,0.6681288990803296,2180.7762039301015,2180.7762039301015,2180.7762039301015,2181.7761335989635,2181.7761335989635,2181.7761335989635,,,,,,,,,,,,,,,,,,,,,,,,,115,001,2023-03-02_14h29.14.179,eb_01,2022.2.4,60.001847379443,
,,,1,0,1,0,13,0,13,0,,,,,,,,,,,,,,,,,,,,,,,,,,,,,,,,,,,,,,,,,,,,,,,,,,,,,,,,,,,,115,001,2023-03-02_14h29.14.179,eb_01,2022.2.4,60.001847379443,
2,stimuli/2.png,s,1,0,1,0,14,0,14,0,0,0,0,0,,,,,,,,,,,,,,,,,,,2181.7761335989635,2181.7761335989635,2181.7761335989635,2181.7761335989635,s,1,0.5122533821559045,2182.30947206376,2182.30947206376,2182.30947206376,2183.3260514956783,2183.3260514956783,2183.3260514956783,,,,,,,,,,,,,,,,,,,,,,,,,115,001,2023-03-02_14h29.14.179,eb_01,2022.2.4,60.001847379443,
,,,1,0,1,0,14,0,14,0,,,,,,,,,,,,,,,,,,,,,,,,,,,,,,,,,,,,,,,,,,,,,,,,,,,,,,,,,,,,115,001,2023-03-02_14h29.14.179,eb_01,2022.2.4,60.001847379443,
4,stimuli/4.png,l,1,0,1,0,15,0,15,0,0,0,0,0,,,,,,,,,,,,,,,,,,,2183.3260514956783,2183.3260514956783,2183.3260514956783,2183.3260514956783,l,1,0.5943711641593836,2183.9427027679776,2183.9427027679776,2183.9427027679776,2184.9593193274777,2184.9593193274777,2184.9593193274777,,,,,,,,,,,,,,,,,,,,,,,,,115,001,2023-03-02_14h29.14.179,eb_01,2022.2.4,60.001847379443,
,,,1,0,1,0,15,0,15,0,,,,,,,,,,,,,,,,,,,,,,,,,,,,,,,,,,,,,,,,,,,,,,,,,,,,,,,,,,,,115,001,2023-03-02_14h29.14.179,eb_01,2022.2.4,60.001847379443,
1,stimuli/1.png,s,1,0,1,0,16,0,16,0,0,0,0,0,,,,,,,,,,,,,,,,,,,2184.9593193274777,2184.9593193274777,2184.9593193274777,2184.9593193274777,s,1,0.4491410032787826,2185.4426212683757,2185.4426212683757,2185.4426212683757,,,,,,,,,,,,,,,,,,,,,,,,,,,,115,001,2023-03-02_14h29.14.179,eb_01,2022.2.4,60.001847379443,
,,,1,0,1,0,16,0,16,0,,,,,,,,,,,,,,,,,,,,,,,,,,,,,,,,,,,,,,,,,,,,,,,,,,,,,,,,,,,,115,001,2023-03-02_14h29.14.179,eb_01,2022.2.4,60.001847379443,
2,stimuli/2.png,s,1,0,1,0,17,0,17,0,0,0,0,0,,,,,,,,,,,,,,,,,,,2186.442559389063,2186.442559389063,2186.442559389063,2186.442559389063,s,1,0.6459585951088229,2187.1091798726266,2187.1091798726266,2187.1091798726266,2188.1257439101755,2188.1257439101755,2188.1257439101755,,,,,,,,,,,,,,,,,,,,,,,,,115,001,2023-03-02_14h29.14.179,eb_01,2022.2.4,60.001847379443,
,,,1,0,1,0,17,0,17,0,,,,,,,,,,,,,,,,,,,,,,,,,,,,,,,,,,,,,,,,,,,,,,,,,,,,,,,,,,,,115,001,2023-03-02_14h29.14.179,eb_01,2022.2.4,60.001847379443,
1,stimuli/1.png,s,1,0,1,0,18,0,18,0,0,0,0,0,,,,,,,,,,,,,,,,,,,2188.1257439101755,2188.1257439101755,2188.1257439101755,2188.1257439101755,s,1,0.7227930905646645,2188.8923837121547,2188.8923837121547,2188.8923837121547,,,,,,,,,,,,,,,,,,,,,,,,,,,,115,001,2023-03-02_14h29.14.179,eb_01,2022.2.4,60.001847379443,
,,,1,0,1,0,18,0,18,0,,,,,,,,,,,,,,,,,,,,,,,,,,,,,,,,,,,,,,,,,,,,,,,,,,,,,,,,,,,,115,001,2023-03-02_14h29.14.179,eb_01,2022.2.4,60.001847379443,
2,stimuli/2.png,s,1,0,1,0,19,0,19,0,0,0,0,0,,,,,,,,,,,,,,,,,,,2189.8923565456353,2189.8923565456353,2189.8923565456353,2189.8923565456353,l,0,0.6113022517383797,2190.5256491291657,2190.5256491291657,2190.5256491291657,2191.5255229557224,2191.5255229557224,2191.5255229557224,,,,,,,,,,,,,,,,,,,,,,,,,115,001,2023-03-02_14h29.14.179,eb_01,2022.2.4,60.001847379443,
,,,1,0,1,0,19,0,19,0,,,,,,,,,,,,,,,,,,,,,,,,,,,,,,,,,,,,,,,,,,,,,,,,,,,,,,,,,,,,115,001,2023-03-02_14h29.14.179,eb_01,2022.2.4,60.001847379443,
3,stimuli/3.png,l,1,0,1,0,20,0,20,0,0,0,0,0,,,,,,,,,,,,,,,,,,,2191.5255229557224,2191.5255229557224,2191.5255229557224,2191.5255229557224,l,1,0.5620583868440008,2192.108890699994,2192.108890699994,2192.108890699994,2193.108520027774,2193.108520027774,2193.108520027774,,,,,,,,,,,,,,,,,,,,,,,,,115,001,2023-03-02_14h29.14.179,eb_01,2022.2.4,60.001847379443,
,,,1,0,1,0,20,0,20,0,,,,,,,,,,,,,,,,,,,,,,,,,,,,,,,,,,,,,,,,,,,,,,,,,,,,,,,,,,,,115,001,2023-03-02_14h29.14.179,eb_01,2022.2.4,60.001847379443,
8,stimuli/8.png,l,1,0,1,0,21,0,21,0,0,0,0,0,,,,,,,,,,,,,,,,,,,2193.108520027774,2193.108520027774,2193.108520027774,2193.108520027774,l,1,0.6351363547873916,2193.7754305895214,2193.7754305895214,2193.7754305895214,2194.792082767366,2194.792082767366,2194.792082767366,,,,,,,,,,,,,,,,,,,,,,,,,115,001,2023-03-02_14h29.14.179,eb_01,2022.2.4,60.001847379443,
,,,1,0,1,0,21,0,21,0,,,,,,,,,,,,,,,,,,,,,,,,,,,,,,,,,,,,,,,,,,,,,,,,,,,,,,,,,,,,115,001,2023-03-02_14h29.14.179,eb_01,2022.2.4,60.001847379443,
6,stimuli/6.png,s,1,0,1,0,22,0,22,0,0,0,0,0,,,,,,,,,,,,,,,,,,,2194.792082767366,2194.792082767366,2194.792082767366,2194.792082767366,s,1,0.43959347694180906,2195.275298680921,2195.275298680921,2195.275298680921,,,,,,,,,,,,,,,,,,,,,,,,,,,,115,001,2023-03-02_14h29.14.179,eb_01,2022.2.4,60.001847379443,
,,,1,0,1,0,22,0,22,0,,,,,,,,,,,,,,,,,,,,,,,,,,,,,,,,,,,,,,,,,,,,,,,,,,,,,,,,,,,,115,001,2023-03-02_14h29.14.179,eb_01,2022.2.4,60.001847379443,
9,stimuli/9.png,l,1,0,1,0,23,0,23,0,0,0,0,0,,,,,,,,,,,,,,,,,,,2196.29195417912,2196.29195417912,2196.29195417912,2196.29195417912,s,0,1.0677887137426296,2197.4085800959874,2197.4085800959874,2197.4085800959874,,,,,,,,,,,,,,,,,,,,,,,,,,,,115,001,2023-03-02_14h29.14.179,eb_01,2022.2.4,60.001847379443,
,,,1,0,1,0,23,0,23,0,,,,,,,,,,,,,,,,,,,,,,,,,,,,,,,,,,,,,,,,,,,,,,,,,,,,,,,,,,,,115,001,2023-03-02_14h29.14.179,eb_01,2022.2.4,60.001847379443,
8,stimuli/8.png,l,1,0,1,0,24,0,24,0,0,0,0,0,,,,,,,,,,,,,,,,,,,2198.42519514625,2198.42519514625,2198.42519514625,2198.42519514625,l,1,0.35057298130413983,2198.808458752159,2198.808458752159,2198.808458752159,2199.80811675571,2199.80811675571,2199.80811675571,,,,,,,,,,,,,,,,,,,,,,,,,115,001,2023-03-02_14h29.14.179,eb_01,2022.2.4,60.001847379443,
,,,1,0,1,0,24,0,24,0,,,,,,,,,,,,,,,,,,,,,,,,,,,,,,,,,,,,,,,,,,,,,,,,,,,,,,,,,,,,115,001,2023-03-02_14h29.14.179,eb_01,2022.2.4,60.001847379443,
3,stimuli/3.png,l,1,0,1,0,25,0,25,0,0,0,0,0,,,,,,,,,,,,,,,,,,,2199.80811675571,2199.80811675571,2199.80811675571,2199.80811675571,l,1,1.2716898275830317,2201.1083189954516,2201.1083189954516,2201.1083189954516,2202.1082903196657,2202.1082903196657,2202.1082903196657,,,,,,,,,,,,,,,,,,,,,,,,,115,001,2023-03-02_14h29.14.179,eb_01,2022.2.4,60.001847379443,
,,,1,0,1,0,25,0,25,0,,,,,,,,,,,,,,,,,,,,,,,,,,,,,,,,,,,,,,,,,,,,,,,,,,,,,,,,,,,,115,001,2023-03-02_14h29.14.179,eb_01,2022.2.4,60.001847379443,
2,stimuli/2.png,s,1,0,1,0,26,0,26,0,0,0,0,0,,,,,,,,,,,,,,,,,,,2202.1082903196657,2202.1082903196657,2202.1082903196657,2202.1082903196657,l,0,0.4595663104119012,2202.591585318005,2202.591585318005,2202.591585318005,2203.6082073108264,2203.6082073108264,2203.6082073108264,,,,,,,,,,,,,,,,,,,,,,,,,115,001,2023-03-02_14h29.14.179,eb_01,2022.2.4,60.001847379443,
,,,1,0,1,0,26,0,26,0,,,,,,,,,,,,,,,,,,,,,,,,,,,,,,,,,,,,,,,,,,,,,,,,,,,,,,,,,,,,115,001,2023-03-02_14h29.14.179,eb_01,2022.2.4,60.001847379443,
4,stimuli/4.png,l,1,0,1,0,27,0,27,0,0,0,0,0,,,,,,,,,,,,,,,,,,,2203.6082073108264,2203.6082073108264,2203.6082073108264,2203.6082073108264,s,0,0.43967920244904235,2204.074855262763,2204.074855262763,2204.074855262763,2205.0744697998744,2205.0744697998744,2205.0744697998744,,,,,,,,,,,,,,,,,,,,,,,,,115,001,2023-03-02_14h29.14.179,eb_01,2022.2.4,60.001847379443,
,,,1,0,1,0,27,0,27,0,,,,,,,,,,,,,,,,,,,,,,,,,,,,,,,,,,,,,,,,,,,,,,,,,,,,,,,,,,,,115,001,2023-03-02_14h29.14.179,eb_01,2022.2.4,60.001847379443,
3,stimuli/3.png,l,1,0,1,0,28,0,28,0,0,0,0,0,,,,,,,,,,,,,,,,,,,2205.0744697998744,2205.0744697998744,2205.0744697998744,2205.0744697998744,l,1,0.5245561984338565,2205.6247484077467,2205.6247484077467,2205.6247484077467,2206.641366778349,2206.641366778349,2206.641366778349,,,,,,,,,,,,,,,,,,,,,,,,,115,001,2023-03-02_14h29.14.179,eb_01,2022.2.4,60.001847379443,
,,,1,0,1,0,28,0,28,0,,,,,,,,,,,,,,,,,,,,,,,,,,,,,,,,,,,,,,,,,,,,,,,,,,,,,,,,,,,,115,001,2023-03-02_14h29.14.179,eb_01,2022.2.4,60.001847379443,
8,stimuli/8.png,l,1,0,1,0,29,0,29,0,0,0,0,0,,,,,,,,,,,,,,,,,,,2206.641366778349,2206.641366778349,2206.641366778349,2206.641366778349,l,1,1.9736268012202345,2208.6412055902765,2208.6412055902765,2208.6412055902765,2209.657850523712,2209.657850523712,2209.657850523712,,,,,,,,,,,,,,,,,,,,,,,,,115,001,2023-03-02_14h29.14.179,eb_01,2022.2.4,60.001847379443,
,,,1,0,1,0,29,0,29,0,,,,,,,,,,,,,,,,,,,,,,,,,,,,,,,,,,,,,,,,,,,,,,,,,,,,,,,,,,,,115,001,2023-03-02_14h29.14.179,eb_01,2022.2.4,60.001847379443,
6,stimuli/6.png,s,1,0,1,0,30,0,30,0,0,0,0,0,,,,,,,,,,,,,,,,,,,2209.657850523712,2209.657850523712,2209.657850523712,2209.657850523712,s,1,0.7811863412061939,2210.4744725165365,2210.4744725165365,2210.4744725165365,,,,,,,,,,,,,,,,,,,,,,,,,,,,115,001,2023-03-02_14h29.14.179,eb_01,2022.2.4,60.001847379443,
,,,1,0,1,0,30,0,30,0,,,,,,,,,,,,,,,,,,,,,,,,,,,,,,,,,,,,,,,,,,,,,,,,,,,,,,,,,,,,115,001,2023-03-02_14h29.14.179,eb_01,2022.2.4,60.001847379443,
8,stimuli/8.png,l,1,0,1,0,31,0,31,0,0,0,0,0,,,,,,,,,,,,,,,,,,,2211.474087959199,2211.474087959199,2211.474087959199,2211.474087959199,l,1,0.6609943643707084,2212.1576748468215,2212.1576748468215,2212.1576748468215,2213.174270880496,2213.174270880496,2213.174270880496,,,,,,,,,,,,,,,,,,,,,,,,,115,001,2023-03-02_14h29.14.179,eb_01,2022.2.4,60.001847379443,
,,,1,0,1,0,31,0,31,0,,,,,,,,,,,,,,,,,,,,,,,,,,,,,,,,,,,,,,,,,,,,,,,,,,,,,,,,,,,,115,001,2023-03-02_14h29.14.179,eb_01,2022.2.4,60.001847379443,
9,stimuli/9.png,l,1,0,1,0,32,0,32,0,0,0,0,0,,,,,,,,,,,,,,,,,,,2213.174270880496,2213.174270880496,2213.174270880496,2213.174270880496,l,1,1.72886813057994,2214.9408762715466,2214.9408762715466,2214.9408762715466,,,,,,,,,,,,,,,,,,,,,,,,,,,,115,001,2023-03-02_14h29.14.179,eb_01,2022.2.4,60.001847379443,
,,,1,0,1,0,32,0,32,0,,,,,,,,,,,,,,,,,,,,,,,,,,,,,,,,,,,,,,,,,,,,,,,,,,,,,,,,,,,,115,001,2023-03-02_14h29.14.179,eb_01,2022.2.4,60.001847379443,
5,stimuli/5.png,s,1,0,1,0,33,0,33,0,0,0,0,0,,,,,,,,,,,,,,,,,,,2215.9404905068077,2215.9404905068077,2215.9404905068077,2215.9404905068077,s,1,0.7466932988463668,2216.7074080111197,2216.7074080111197,2216.7074080111197,2217.724029400226,2217.724029400226,2217.724029400226,,,,,,,,,,,,,,,,,,,,,,,,,115,001,2023-03-02_14h29.14.179,eb_01,2022.2.4,60.001847379443,
,,,1,0,1,0,33,0,33,0,,,,,,,,,,,,,,,,,,,,,,,,,,,,,,,,,,,,,,,,,,,,,,,,,,,,,,,,,,,,115,001,2023-03-02_14h29.14.179,eb_01,2022.2.4,60.001847379443,
9,stimuli/9.png,l,1,0,1,0,34,0,34,0,0,0,0,0,,,,,,,,,,,,,,,,,,,2217.724029400226,2217.724029400226,2217.724029400226,2217.724029400226,l,1,0.8991983548476128,2218.6573056838533,2218.6573056838533,2218.6573056838533,,,,,,,,,,,,,,,,,,,,,,,,,,,,115,001,2023-03-02_14h29.14.179,eb_01,2022.2.4,60.001847379443,
,,,1,0,1,0,34,0,34,0,,,,,,,,,,,,,,,,,,,,,,,,,,,,,,,,,,,,,,,,,,,,,,,,,,,,,,,,,,,,115,001,2023-03-02_14h29.14.179,eb_01,2022.2.4,60.001847379443,
5,stimuli/5.png,s,1,0,1,0,35,0,35,0,0,0,0,0,,,,,,,,,,,,,,,,,,,2219.656933502367,2219.656933502367,2219.656933502367,2219.656933502367,s,1,0.6383347610244527,2220.32384859187,2220.32384859187,2220.32384859187,2221.340471792093,2221.340471792093,2221.340471792093,,,,,,,,,,,,,,,,,,,,,,,,,115,001,2023-03-02_14h29.14.179,eb_01,2022.2.4,60.001847379443,
,,,1,0,1,0,35,0,35,0,,,,,,,,,,,,,,,,,,,,,,,,,,,,,,,,,,,,,,,,,,,,,,,,,,,,,,,,,,,,115,001,2023-03-02_14h29.14.179,eb_01,2022.2.4,60.001847379443,
9,stimuli/9.png,l,1,0,1,0,36,0,36,0,0,0,0,0,,,,,,,,,,,,,,,,,,,2221.340471792093,2221.340471792093,2221.340471792093,2221.340471792093,l,1,0.5059721783763962,2221.890401460958,2221.890401460958,2221.890401460958,,,,,,,,,,,,,,,,,,,,,,,,,,,,115,001,2023-03-02_14h29.14.179,eb_01,2022.2.4,60.001847379443,
,,,1,0,1,0,36,0,36,0,,,,,,,,,,,,,,,,,,,,,,,,,,,,,,,,,,,,,,,,,,,,,,,,,,,,,,,,,,,,115,001,2023-03-02_14h29.14.179,eb_01,2022.2.4,60.001847379443,
8,stimuli/8.png,l,1,0,1,0,37,0,37,0,0,0,0,0,,,,,,,,,,,,,,,,,,,2222.8900742551923,2222.8900742551923,2222.8900742551923,2222.8900742551923,l,1,0.5402412477706093,2223.4569917594927,2223.4569917594927,2223.4569917594927,2224.4735971505434,2224.4735971505434,2224.4735971505434,,,,,,,,,,,,,,,,,,,,,,,,,115,001,2023-03-02_14h29.14.179,eb_01,2022.2.4,60.001847379443,
,,,1,0,1,0,37,0,37,0,,,,,,,,,,,,,,,,,,,,,,,,,,,,,,,,,,,,,,,,,,,,,,,,,,,,,,,,,,,,115,001,2023-03-02_14h29.14.179,eb_01,2022.2.4,60.001847379443,
9,stimuli/9.png,l,1,0,1,0,38,0,38,0,0,0,0,0,,,,,,,,,,,,,,,,,,,2224.4735971505434,2224.4735971505434,2224.4735971505434,2224.4735971505434,l,1,0.5007755228871247,2225.0235588155483,2225.0235588155483,2225.0235588155483,,,,,,,,,,,,,,,,,,,,,,,,,,,,115,001,2023-03-02_14h29.14.179,eb_01,2022.2.4,60.001847379443,
,,,1,0,1,0,38,0,38,0,,,,,,,,,,,,,,,,,,,,,,,,,,,,,,,,,,,,,,,,,,,,,,,,,,,,,,,,,,,,115,001,2023-03-02_14h29.14.179,eb_01,2022.2.4,60.001847379443,
5,stimuli/5.png,s,1,0,1,0,39,0,39,0,0,0,0,0,,,,,,,,,,,,,,,,,,,2226.023222554257,2226.023222554257,2226.023222554257,2226.023222554257,s,1,0.5592430286924355,2226.606840230612,2226.606840230612,2226.606840230612,2227.6234416976076,2227.6234416976076,2227.6234416976076,,,,,,,,,,,,,,,,,,,,,,,,,115,001,2023-03-02_14h29.14.179,eb_01,2022.2.4,60.001847379443,
,,,1,0,1,0,39,0,39,0,,,,,,,,,,,,,,,,,,,,,,,,,,,,,,,,,,,,,,,,,,,,,,,,,,,,,,,,,,,,115,001,2023-03-02_14h29.14.179,eb_01,2022.2.4,60.001847379443,
6,stimuli/6.png,s,1,0,1,0,40,0,40,0,0,0,0,0,,,,,,,,,,,,,,,,,,,2227.6234416976076,2227.6234416976076,2227.6234416976076,2227.6234416976076,s,1,0.42300498951226473,2228.0900537293637,2228.0900537293637,2228.0900537293637,,,,,,,,,,,,,,,,,,,,,,,,,,,,115,001,2023-03-02_14h29.14.179,eb_01,2022.2.4,60.001847379443,
,,,1,0,1,0,40,0,40,0,,,,,,,,,,,,,,,,,,,,,,,,,,,,,,,,,,,,,,,,,,,,,,,,,,,,,,,,,,,,115,001,2023-03-02_14h29.14.179,eb_01,2022.2.4,60.001847379443,
5,stimuli/5.png,s,1,0,1,0,41,0,41,0,0,0,0,0,,,,,,,,,,,,,,,,,,,2229.089683358994,2229.089683358994,2229.089683358994,2229.089683358994,s,1,0.8288062512438046,2229.9399526095076,2229.9399526095076,2229.9399526095076,2230.9565727912122,2230.9565727912122,2230.9565727912122,,,,,,,,,,,,,,,,,,,,,,,,,115,001,2023-03-02_14h29.14.179,eb_01,2022.2.4,60.001847379443,
,,,1,0,1,0,41,0,41,0,,,,,,,,,,,,,,,,,,,,,,,,,,,,,,,,,,,,,,,,,,,,,,,,,,,,,,,,,,,,115,001,2023-03-02_14h29.14.179,eb_01,2022.2.4,60.001847379443,
9,stimuli/9.png,l,1,0,1,0,42,0,42,0,0,0,0,0,,,,,,,,,,,,,,,,,,,2230.9565727912122,2230.9565727912122,2230.9565727912122,2230.9565727912122,l,1,0.6099511695938418,2231.6065362673253,2231.6065362673253,2231.6065362673253,,,,,,,,,,,,,,,,,,,,,,,,,,,,115,001,2023-03-02_14h29.14.179,eb_01,2022.2.4,60.001847379443,
,,,1,0,1,0,42,0,42,0,,,,,,,,,,,,,,,,,,,,,,,,,,,,,,,,,,,,,,,,,,,,,,,,,,,,,,,,,,,,115,001,2023-03-02_14h29.14.179,eb_01,2022.2.4,60.001847379443,
6,stimuli/6.png,s,1,0,1,0,43,0,43,0,0,0,0,0,,,,,,,,,,,,,,,,,,,2232.6231591656833,2232.6231591656833,2232.6231591656833,2232.6231591656833,s,1,0.6714139363612048,2233.3397310513537,2233.3397310513537,2233.3397310513537,,,,,,,,,,,,,,,,,,,,,,,,,,,,115,001,2023-03-02_14h29.14.179,eb_01,2022.2.4,60.001847379443,
,,,1,0,1,0,43,0,43,0,,,,,,,,,,,,,,,,,,,,,,,,,,,,,,,,,,,,,,,,,,,,,,,,,,,,,,,,,,,,115,001,2023-03-02_14h29.14.179,eb_01,2022.2.4,60.001847379443,
9,stimuli/9.png,l,1,0,1,0,44,0,44,0,0,0,0,0,,,,,,,,,,,,,,,,,,,2234.3563690422307,2234.3563690422307,2234.3563690422307,2234.3563690422307,l,1,0.6822361766971881,2235.0729729240265,2235.0729729240265,2235.0729729240265,,,,,,,,,,,,,,,,,,,,,,,,,,,,115,001,2023-03-02_14h29.14.179,eb_01,2022.2.4,60.001847379443,
,,,1,0,1,0,44,0,44,0,,,,,,,,,,,,,,,,,,,,,,,,,,,,,,,,,,,,,,,,,,,,,,,,,,,,,,,,,,,,115,001,2023-03-02_14h29.14.179,eb_01,2022.2.4,60.001847379443,
5,stimuli/5.png,s,1,0,1,0,45,0,45,0,0,0,0,0,,,,,,,,,,,,,,,,,,,2236.0726324368443,2236.0726324368443,2236.0726324368443,2236.0726324368443,s,1,0.8770947598095518,2236.972841920986,2236.972841920986,2236.972841920986,2237.989486552571,2237.989486552571,2237.989486552571,,,,,,,,,,,,,,,,,,,,,,,,,115,001,2023-03-02_14h29.14.179,eb_01,2022.2.4,60.001847379443,
,,,1,0,1,0,45,0,45,0,,,,,,,,,,,,,,,,,,,,,,,,,,,,,,,,,,,,,,,,,,,,,,,,,,,,,,,,,,,,115,001,2023-03-02_14h29.14.179,eb_01,2022.2.4,60.001847379443,
9,stimuli/9.png,l,1,0,1,0,46,0,46,0,0,0,0,0,,,,,,,,,,,,,,,,,,,2237.989486552571,2237.989486552571,2237.989486552571,2237.989486552571,l,1,0.5201875184138771,2238.5561417489225,2238.5561417489225,2238.5561417489225,,,,,,,,,,,,,,,,,,,,,,,,,,,,115,001,2023-03-02_14h29.14.179,eb_01,2022.2.4,60.001847379443,
,,,1,0,1,0,46,0,46,0,,,,,,,,,,,,,,,,,,,,,,,,,,,,,,,,,,,,,,,,,,,,,,,,,,,,,,,,,,,,115,001,2023-03-02_14h29.14.179,eb_01,2022.2.4,60.001847379443,
5,stimuli/5.png,s,1,0,1,0,47,0,47,0,0,0,0,0,,,,,,,,,,,,,,,,,,,2239.5557257991604,2239.5557257991604,2239.5557257991604,2239.5557257991604,s,1,0.6339754383661784,2240.2226541700657,2240.2226541700657,2240.2226541700657,2241.2392867276503,2241.2392867276503,2241.2392867276503,,,,,,,,,,,,,,,,,,,,,,,,,115,001,2023-03-02_14h29.14.179,eb_01,2022.2.4,60.001847379443,
,,,1,0,1,0,47,0,47,0,,,,,,,,,,,,,,,,,,,,,,,,,,,,,,,,,,,,,,,,,,,,,,,,,,,,,,,,,,,,115,001,2023-03-02_14h29.14.179,eb_01,2022.2.4,60.001847379443,
9,stimuli/9.png,l,1,0,1,0,48,0,48,0,0,0,0,0,,,,,,,,,,,,,,,,,,,2241.2392867276503,2241.2392867276503,2241.2392867276503,2241.2392867276503,l,1,0.6144734914414585,2241.889221226127,2241.889221226127,2241.889221226127,,,,,,,,,,,,,,,,,,,,,,,,,,,,115,001,2023-03-02_14h29.14.179,eb_01,2022.2.4,60.001847379443,
,,,1,0,1,0,48,0,48,0,,,,,,,,,,,,,,,,,,,,,,,,,,,,,,,,,,,,,,,,,,,,,,,,,,,,,,,,,,,,115,001,2023-03-02_14h29.14.179,eb_01,2022.2.4,60.001847379443,
6,stimuli/6.png,s,1,0,1,0,49,0,49,0,0,0,0,0,,,,,,,,,,,,,,,,,,,2242.905859820705,2242.905859820705,2242.905859820705,2242.905859820705,l,0,0.6599460381403333,2243.6058308430656,2243.6058308430656,2243.6058308430656,,,,,,,,,,,,,,,,,,,,,,,,,,,,115,001,2023-03-02_14h29.14.179,eb_01,2022.2.4,60.001847379443,
,,,1,0,1,0,49,0,49,0,,,,,,,,,,,,,,,,,,,,,,,,,,,,,,,,,,,,,,,,,,,,,,,,,,,,,,,,,,,,115,001,2023-03-02_14h29.14.179,eb_01,2022.2.4,60.001847379443,
5,stimuli/5.png,s,1,0,1,0,50,0,50,0,0,0,0,0,,,,,,,,,,,,,,,,,,,2244.6224172175425,2244.6224172175425,2244.6224172175425,2244.6224172175425,s,1,0.5033862264972413,2245.155743004623,2245.155743004623,2245.155743004623,2246.172304325519,2246.172304325519,2246.172304325519,,,,,,,,,,,,,,,,,,,,,,,,,115,001,2023-03-02_14h29.14.179,eb_01,2022.2.4,60.001847379443,
,,,1,0,1,0,50,0,50,0,,,,,,,,,,,,,,,,,,,,,,,,,,,,,,,,,,,,,,,,,,,,,,,,,,,,,,,,,,,,115,001,2023-03-02_14h29.14.179,eb_01,2022.2.4,60.001847379443,
6,stimuli/6.png,s,1,0,1,0,51,0,51,0,0,0,0,0,,,,,,,,,,,,,,,,,,,2246.172304325519,2246.172304325519,2246.172304325519,2246.172304325519,s,1,0.31358665513107553,2246.522334510548,2246.522334510548,2246.522334510548,,,,,,,,,,,,,,,,,,,,,,,,,,,,115,001,2023-03-02_14h29.14.179,eb_01,2022.2.4,60.001847379443,
,,,1,0,1,0,51,0,51,0,,,,,,,,,,,,,,,,,,,,,,,,,,,,,,,,,,,,,,,,,,,,,,,,,,,,,,,,,,,,115,001,2023-03-02_14h29.14.179,eb_01,2022.2.4,60.001847379443,
5,stimuli/5.png,s,1,0,1,0,52,0,52,0,0,0,0,0,,,,,,,,,,,,,,,,,,,2247.5219605179736,2247.5219605179736,2247.5219605179736,2247.5219605179736,s,1,0.5879517129360465,2248.138878927828,2248.138878927828,2248.138878927828,2249.155486129981,2249.155486129981,2249.155486129981,,,,,,,,,,,,,,,,,,,,,,,,,115,001,2023-03-02_14h29.14.179,eb_01,2022.2.4,60.001847379443,
,,,1,0,1,0,52,0,52,0,,,,,,,,,,,,,,,,,,,,,,,,,,,,,,,,,,,,,,,,,,,,,,,,,,,,,,,,,,,,115,001,2023-03-02_14h29.14.179,eb_01,2022.2.4,60.001847379443,
9,stimuli/9.png,l,1,0,1,0,53,0,53,0,0,0,0,0,,,,,,,,,,,,,,,,,,,2249.155486129981,2249.155486129981,2249.155486129981,2249.155486129981,l,1,0.8504456004593521,2250.055424854363,2250.055424854363,2250.055424854363,,,,,,,,,,,,,,,,,,,,,,,,,,,,115,001,2023-03-02_14h29.14.179,eb_01,2022.2.4,60.001847379443,
,,,1,0,1,0,53,0,53,0,,,,,,,,,,,,,,,,,,,,,,,,,,,,,,,,,,,,,,,,,,,,,,,,,,,,,,,,,,,,115,001,2023-03-02_14h29.14.179,eb_01,2022.2.4,60.001847379443,
6,stimuli/6.png,s,1,0,1,0,54,0,54,0,0,0,0,0,,,,,,,,,,,,,,,,,,,2251.0720429231296,2251.0720429231296,2251.0720429231296,2251.0720429231296,s,1,0.5099511696025729,2251.6220157565986,2251.6220157565986,2251.6220157565986,,,,,,,,,,,,,,,,,,,,,,,,,,,,115,001,2023-03-02_14h29.14.179,eb_01,2022.2.4,60.001847379443,
,,,1,0,1,0,54,0,54,0,,,,,,,,,,,,,,,,,,,,,,,,,,,,,,,,,,,,,,,,,,,,,,,,,,,,,,,,,,,,115,001,2023-03-02_14h29.14.179,eb_01,2022.2.4,60.001847379443,
8,stimuli/8.png,l,1,0,1,0,55,0,55,0,0,0,0,0,,,,,,,,,,,,,,,,,,,2252.6385788885964,2252.6385788885964,2252.6385788885964,2252.6385788885964,l,1,0.5744967338978313,2253.2385828126426,2253.2385828126426,2253.2385828126426,2254.2551894110948,2254.2551894110948,2254.2551894110948,,,,,,,,,,,,,,,,,,,,,,,,,115,001,2023-03-02_14h29.14.179,eb_01,2022.2.4,60.001847379443,
,,,1,0,1,0,55,0,55,0,,,,,,,,,,,,,,,,,,,,,,,,,,,,,,,,,,,,,,,,,,,,,,,,,,,,,,,,,,,,115,001,2023-03-02_14h29.14.179,eb_01,2022.2.4,60.001847379443,
9,stimuli/9.png,l,1,0,1,0,56,0,56,0,0,0,0,0,,,,,,,,,,,,,,,,,,,2254.2551894110948,2254.2551894110948,2254.2551894110948,2254.2551894110948,l,1,0.397868100379128,2254.688488333486,2254.688488333486,2254.688488333486,,,,,,,,,,,,,,,,,,,,,,,,,,,,115,001,2023-03-02_14h29.14.179,eb_01,2022.2.4,60.001847379443,
,,,1,0,1,0,56,0,56,0,,,,,,,,,,,,,,,,,,,,,,,,,,,,,,,,,,,,,,,,,,,,,,,,,,,,,,,,,,,,115,001,2023-03-02_14h29.14.179,eb_01,2022.2.4,60.001847379443,
5,stimuli/5.png,s,1,0,1,0,57,0,57,0,0,0,0,0,,,,,,,,,,,,,,,,,,,2255.705105194851,2255.705105194851,2255.705105194851,2255.705105194851,s,1,0.6119977149210172,2256.338389326571,2256.338389326571,2256.338389326571,2257.355003169432,2257.355003169432,2257.355003169432,,,,,,,,,,,,,,,,,,,,,,,,,115,001,2023-03-02_14h29.14.179,eb_01,2022.2.4,60.001847379443,
,,,1,0,1,0,57,0,57,0,,,,,,,,,,,,,,,,,,,,,,,,,,,,,,,,,,,,,,,,,,,,,,,,,,,,,,,,,,,,115,001,2023-03-02_14h29.14.179,eb_01,2022.2.4,60.001847379443,
9,stimuli/9.png,l,1,0,1,0,58,0,58,0,0,0,0,0,,,,,,,,,,,,,,,,,,,2257.355003169432,2257.355003169432,2257.355003169432,2257.355003169432,l,1,0.9621392827248201,2258.354939479017,2258.354939479017,2258.354939479017,,,,,,,,,,,,,,,,,,,,,,,,,,,,115,001,2023-03-02_14h29.14.179,eb_01,2022.2.4,60.001847379443,
,,,1,0,1,0,58,0,58,0,,,,,,,,,,,,,,,,,,,,,,,,,,,,,,,,,,,,,,,,,,,,,,,,,,,,,,,,,,,,115,001,2023-03-02_14h29.14.179,eb_01,2022.2.4,60.001847379443,
6,stimuli/6.png,s,1,0,1,0,59,0,59,0,0,0,0,0,,,,,,,,,,,,,,,,,,,2259.37157414954,2259.37157414954,2259.37157414954,2259.37157414954,s,1,0.5776160553505179,2259.988151166661,2259.988151166661,2259.988151166661,,,,,,,,,,,,,,,,,,,,,,,,,,,,115,001,2023-03-02_14h29.14.179,eb_01,2022.2.4,60.001847379443,
,,,1,0,1,0,59,0,59,0,,,,,,,,,,,,,,,,,,,,,,,,,,,,,,,,,,,,,,,,,,,,,,,,,,,,,,,,,,,,115,001,2023-03-02_14h29.14.179,eb_01,2022.2.4,60.001847379443,
9,stimuli/9.png,l,1,0,1,0,60,0,60,0,0,0,0,0,,,,,,,,,,,,,,,,,,,2261.004788553837,2261.004788553837,2261.004788553837,2261.004788553837,s,0,0.6004362430976471,2261.6547532373515,2261.6547532373515,2261.6547532373515,,,,,,,,,,,,,,,,,,,,,,,,,,,,115,001,2023-03-02_14h29.14.179,eb_01,2022.2.4,60.001847379443,
,,,1,0,1,0,60,0,60,0,,,,,,,,,,,,,,,,,,,,,,,,,,,,,,,,,,,,,,,,,,,,,,,,,,,,,,,,,,,,115,001,2023-03-02_14h29.14.179,eb_01,2022.2.4,60.001847379443,
6,stimuli/6.png,s,1,0,1,0,61,0,61,0,0,0,0,0,,,,,,,,,,,,,,,,,,,2262.6713969633856,2262.6713969633856,2262.6713969633856,2262.6713969633856,l,0,0.525841175331152,2263.2379785082594,2263.2379785082594,2263.2379785082594,,,,,,,,,,,,,,,,,,,,,,,,,,,,115,001,2023-03-02_14h29.14.179,eb_01,2022.2.4,60.001847379443,
,,,1,0,1,0,61,0,61,0,,,,,,,,,,,,,,,,,,,,,,,,,,,,,,,,,,,,,,,,,,,,,,,,,,,,,,,,,,,,115,001,2023-03-02_14h29.14.179,eb_01,2022.2.4,60.001847379443,
8,stimuli/8.png,l,1,0,1,0,62,0,62,0,0,0,0,0,,,,,,,,,,,,,,,,,,,2264.2545899363176,2264.2545899363176,2264.2545899363176,2264.2545899363176,l,1,0.46269559291249607,2264.737872860642,2264.737872860642,2264.737872860642,2265.737808264661,2265.737808264661,2265.737808264661,,,,,,,,,,,,,,,,,,,,,,,,,115,001,2023-03-02_14h29.14.179,eb_01,2022.2.4,60.001847379443,
,,,1,0,1,0,62,0,62,0,,,,,,,,,,,,,,,,,,,,,,,,,,,,,,,,,,,,,,,,,,,,,,,,,,,,,,,,,,,,115,001,2023-03-02_14h29.14.179,eb_01,2022.2.4,60.001847379443,
3,stimuli/3.png,l,1,0,1,0,63,0,63,0,0,0,0,0,,,,,,,,,,,,,,,,,,,2265.737808264661,2265.737808264661,2265.737808264661,2265.737808264661,l,1,0.2515183765790425,2266.0211437109538,2266.0211437109538,2266.0211437109538,2267.0210972259956,2267.0210972259956,2267.0210972259956,,,,,,,,,,,,,,,,,,,,,,,,,115,001,2023-03-02_14h29.14.179,eb_01,2022.2.4,60.001847379443,
,,,1,0,1,0,63,0,63,0,,,,,,,,,,,,,,,,,,,,,,,,,,,,,,,,,,,,,,,,,,,,,,,,,,,,,,,,,,,,115,001,2023-03-02_14h29.14.179,eb_01,2022.2.4,60.001847379443,
2,stimuli/2.png,s,1,0,1,0,64,0,64,0,0,0,0,0,,,,,,,,,,,,,,,,,,,2267.0210972259956,2267.0210972259956,2267.0210972259956,2267.0210972259956,s,1,0.5433868302061455,2267.587716200316,2267.587716200316,2267.587716200316,2268.60434362643,2268.60434362643,2268.60434362643,,,,,,,,,,,,,,,,,,,,,,,,,115,001,2023-03-02_14h29.14.179,eb_01,2022.2.4,60.001847379443,
,,,1,0,1,0,64,0,64,0,,,,,,,,,,,,,,,,,,,,,,,,,,,,,,,,,,,,,,,,,,,,,,,,,,,,,,,,,,,,115,001,2023-03-02_14h29.14.179,eb_01,2022.2.4,60.001847379443,
4,stimuli/4.png,l,1,0,1,0,65,0,65,0,0,0,0,0,,,,,,,,,,,,,,,,,,,2268.60434362643,2268.60434362643,2268.60434362643,2268.60434362643,l,1,0.6080564550065901,2269.2376431525336,2269.2376431525336,2269.2376431525336,2270.254235564018,2270.254235564018,2270.254235564018,,,,,,,,,,,,,,,,,,,,,,,,,115,001,2023-03-02_14h29.14.179,eb_01,2022.2.4,60.001847379443,
,,,1,0,1,0,65,0,65,0,,,,,,,,,,,,,,,,,,,,,,,,,,,,,,,,,,,,,,,,,,,,,,,,,,,,,,,,,,,,115,001,2023-03-02_14h29.14.179,eb_01,2022.2.4,60.001847379443,
1,stimuli/1.png,s,1,0,1,0,66,0,66,0,0,0,0,0,,,,,,,,,,,,,,,,,,,2270.254235564018,2270.254235564018,2270.254235564018,2270.254235564018,s,1,0.4301941591256764,2270.720887138159,2270.720887138159,2270.720887138159,,,,,,,,,,,,,,,,,,,,,,,,,,,,115,001,2023-03-02_14h29.14.179,eb_01,2022.2.4,60.001847379443,
,,,1,0,1,0,66,0,66,0,,,,,,,,,,,,,,,,,,,,,,,,,,,,,,,,,,,,,,,,,,,,,,,,,,,,,,,,,,,,115,001,2023-03-02_14h29.14.179,eb_01,2022.2.4,60.001847379443,
4,stimuli/4.png,l,1,0,1,0,67,0,67,0,0,0,0,0,,,,,,,,,,,,,,,,,,,2271.7374780403916,2271.7374780403916,2271.7374780403916,2271.7374780403916,l,1,0.6270250323723303,2272.387457816425,2272.387457816425,2272.387457816425,2273.3873847686336,2273.3873847686336,2273.3873847686336,,,,,,,,,,,,,,,,,,,,,,,,,115,001,2023-03-02_14h29.14.179,eb_01,2022.2.4,60.001847379443,
,,,1,0,1,0,67,0,67,0,,,,,,,,,,,,,,,,,,,,,,,,,,,,,,,,,,,,,,,,,,,,,,,,,,,,,,,,,,,,115,001,2023-03-02_14h29.14.179,eb_01,2022.2.4,60.001847379443,
2,stimuli/2.png,s,1,0,1,0,68,0,68,0,0,0,0,0,,,,,,,,,,,,,,,,,,,2273.3873847686336,2273.3873847686336,2273.3873847686336,2273.3873847686336,l,0,0.6251327325880993,2274.0373419058888,2274.0373419058888,2274.0373419058888,2275.053971444955,2275.053971444955,2275.053971444955,,,,,,,,,,,,,,,,,,,,,,,,,115,001,2023-03-02_14h29.14.179,eb_01,2022.2.4,60.001847379443,
,,,1,0,1,0,68,0,68,0,,,,,,,,,,,,,,,,,,,,,,,,,,,,,,,,,,,,,,,,,,,,,,,,,,,,,,,,,,,,115,001,2023-03-02_14h29.14.179,eb_01,2022.2.4,60.001847379443,
4,stimuli/4.png,l,1,0,1,0,69,0,69,0,0,0,0,0,,,,,,,,,,,,,,,,,,,2275.053971444955,2275.053971444955,2275.053971444955,2275.053971444955,s,0,0.3825359140901128,2275.453908358235,2275.453908358235,2275.453908358235,2276.470544538024,2276.470544538024,2276.470544538024,,,,,,,,,,,,,,,,,,,,,,,,,115,001,2023-03-02_14h29.14.179,eb_01,2022.2.4,60.001847379443,
,,,1,0,1,0,69,0,69,0,,,,,,,,,,,,,,,,,,,,,,,,,,,,,,,,,,,,,,,,,,,,,,,,,,,,,,,,,,,,115,001,2023-03-02_14h29.14.179,eb_01,2022.2.4,60.001847379443,
1,stimuli/1.png,s,1,0,1,0,70,0,70,0,0,0,0,0,,,,,,,,,,,,,,,,,,,2276.470544538024,2276.470544538024,2276.470544538024,2276.470544538024,s,1,1.9020611034939066,2278.420423194184,2278.420423194184,2278.420423194184,,,,,,,,,,,,,,,,,,,,,,,,,,,,115,001,2023-03-02_14h29.14.179,eb_01,2022.2.4,60.001847379443,
,,,1,0,1,0,70,0,70,0,,,,,,,,,,,,,,,,,,,,,,,,,,,,,,,,,,,,,,,,,,,,,,,,,,,,,,,,,,,,115,001,2023-03-02_14h29.14.179,eb_01,2022.2.4,60.001847379443,
2,stimuli/2.png,s,1,0,1,0,71,0,71,0,0,0,0,0,,,,,,,,,,,,,,,,,,,2279.4203184521175,2279.4203184521175,2279.4203184521175,2279.4203184521175,s,1,0.6883398924692301,2280.136953122652,2280.136953122652,2280.136953122652,2281.1368157807447,2281.1368157807447,2281.1368157807447,,,,,,,,,,,,,,,,,,,,,,,,,115,001,2023-03-02_14h29.14.179,eb_01,2022.2.4,60.001847379443,
,,,1,0,1,0,71,0,71,0,,,,,,,,,,,,,,,,,,,,,,,,,,,,,,,,,,,,,,,,,,,,,,,,,,,,,,,,,,,,115,001,2023-03-02_14h29.14.179,eb_01,2022.2.4,60.001847379443,
3,stimuli/3.png,l,1,0,1,0,72,0,72,0,0,0,0,0,,,,,,,,,,,,,,,,,,,2281.1368157807447,2281.1368157807447,2281.1368157807447,2281.1368157807447,s,0,0.315868040008354,2281.4702248785034,2281.4702248785034,2281.4702248785034,2282.486824534397,2282.486824534397,2282.486824534397,,,,,,,,,,,,,,,,,,,,,,,,,115,001,2023-03-02_14h29.14.179,eb_01,2022.2.4,60.001847379443,
,,,1,0,1,0,72,0,72,0,,,,,,,,,,,,,,,,,,,,,,,,,,,,,,,,,,,,,,,,,,,,,,,,,,,,,,,,,,,,115,001,2023-03-02_14h29.14.179,eb_01,2022.2.4,60.001847379443,
4,stimuli/4.png,l,1,0,1,0,73,0,73,0,0,0,0,0,,,,,,,,,,,,,,,,,,,2282.486824534397,2282.486824534397,2282.486824534397,2282.486824534397,s,0,0.9649908629216952,2283.4700974976586,2283.4700974976586,2283.4700974976586,2284.470061577478,2284.470061577478,2284.470061577478,,,,,,,,,,,,,,,,,,,,,,,,,115,001,2023-03-02_14h29.14.179,eb_01,2022.2.4,60.001847379443,
,,,1,0,1,0,73,0,73,0,,,,,,,,,,,,,,,,,,,,,,,,,,,,,,,,,,,,,,,,,,,,,,,,,,,,,,,,,,,,115,001,2023-03-02_14h29.14.179,eb_01,2022.2.4,60.001847379443,
2,stimuli/2.png,s,1,0,1,0,74,0,74,0,0,0,0,0,,,,,,,,,,,,,,,,,,,2284.470061577478,2284.470061577478,2284.470061577478,2284.470061577478,l,0,0.42172182370268274,2284.920031694288,2284.920031694288,2284.920031694288,2285.936641311244,2285.936641311244,2285.936641311244,,,,,,,,,,,,,,,,,,,,,,,,,115,001,2023-03-02_14h29.14.179,eb_01,2022.2.4,60.001847379443,
,,,1,0,1,0,74,0,74,0,,,,,,,,,,,,,,,,,,,,,,,,,,,,,,,,,,,,,,,,,,,,,,,,,,,,,,,,,,,,115,001,2023-03-02_14h29.14.179,eb_01,2022.2.4,60.001847379443,
1,stimuli/1.png,s,1,0,1,0,75,0,75,0,0,0,0,0,,,,,,,,,,,,,,,,,,,2285.936641311244,2285.936641311244,2285.936641311244,2285.936641311244,s,1,0.2911362340382766,2286.26992121707,2286.26992121707,2286.26992121707,,,,,,,,,,,,,,,,,,,,,,,,,,,,115,001,2023-03-02_14h29.14.179,eb_01,2022.2.4,60.001847379443,
,,,1,0,1,0,75,0,75,0,,,,,,,,,,,,,,,,,,,,,,,,,,,,,,,,,,,,,,,,,,,,,,,,,,,,,,,,,,,,115,001,2023-03-02_14h29.14.179,eb_01,2022.2.4,60.001847379443,
4,stimuli/4.png,l,1,0,1,0,76,0,76,0,0,0,0,0,,,,,,,,,,,,,,,,,,,2287.2865589060966,2287.2865589060966,2287.2865589060966,2287.2865589060966,s,0,0.30927502483245917,2287.6198490748357,2287.6198490748357,2287.6198490748357,2288.6198128527903,2288.6198128527903,2288.6198128527903,,,,,,,,,,,,,,,,,,,,,,,,,115,001,2023-03-02_14h29.14.179,eb_01,2022.2.4,60.001847379443,
,,,1,0,1,0,76,0,76,0,,,,,,,,,,,,,,,,,,,,,,,,,,,,,,,,,,,,,,,,,,,,,,,,,,,,,,,,,,,,115,001,2023-03-02_14h29.14.179,eb_01,2022.2.4,60.001847379443,
3,stimuli/3.png,l,1,0,1,0,77,0,77,0,0,0,0,0,,,,,,,,,,,,,,,,,,,2288.6198128527903,2288.6198128527903,2288.6198128527903,2288.6198128527903,l,1,0.8240617675619433,2289.4697570104763,2289.4697570104763,2289.4697570104763,2290.486333725741,2290.486333725741,2290.486333725741,,,,,,,,,,,,,,,,,,,,,,,,,115,001,2023-03-02_14h29.14.179,eb_01,2022.2.4,60.001847379443,
,,,1,0,1,0,77,0,77,0,,,,,,,,,,,,,,,,,,,,,,,,,,,,,,,,,,,,,,,,,,,,,,,,,,,,,,,,,,,,115,001,2023-03-02_14h29.14.179,eb_01,2022.2.4,60.001847379443,
4,stimuli/4.png,l,1,0,1,0,78,0,78,0,0,0,0,0,,,,,,,,,,,,,,,,,,,2290.486333725741,2290.486333725741,2290.486333725741,2290.486333725741,s,0,0.6455453620001208,2291.1526867698994,2291.1526867698994,2291.1526867698994,2292.152925533519,2292.152925533519,2292.152925533519,,,,,,,,,,,,,,,,,,,,,,,,,115,001,2023-03-02_14h29.14.179,eb_01,2022.2.4,60.001847379443,
,,,1,0,1,0,78,0,78,0,,,,,,,,,,,,,,,,,,,,,,,,,,,,,,,,,,,,,,,,,,,,,,,,,,,,,,,,,,,,115,001,2023-03-02_14h29.14.179,eb_01,2022.2.4,60.001847379443,
3,stimuli/3.png,l,1,0,1,0,79,0,79,0,0,0,0,0,,,,,,,,,,,,,,,,,,,2292.152925533519,2292.152925533519,2292.152925533519,2292.152925533519,l,1,0.45901633909670636,2292.6362144948653,2292.6362144948653,2292.6362144948653,2293.6528446376324,2293.6528446376324,2293.6528446376324,,,,,,,,,,,,,,,,,,,,,,,,,115,001,2023-03-02_14h29.14.179,eb_01,2022.2.4,60.001847379443,
,,,1,0,1,0,79,0,79,0,,,,,,,,,,,,,,,,,,,,,,,,,,,,,,,,,,,,,,,,,,,,,,,,,,,,,,,,,,,,115,001,2023-03-02_14h29.14.179,eb_01,2022.2.4,60.001847379443,
4,stimuli/4.png,l,1,0,1,0,80,0,80,0,0,0,0,0,,,,,,,,,,,,,,,,,,,2293.6528446376324,2293.6528446376324,2293.6528446376324,2293.6528446376324,l,1,0.4791165533970343,2294.1527960397216,2294.1527960397216,2294.1527960397216,2295.1527474418253,2295.1527474418253,2295.1527474418253,,,,,,,,,,,,,,,,,,,,,,,,,115,001,2023-03-02_14h29.14.179,eb_01,2022.2.4,60.001847379443,
,,,1,0,1,0,80,0,80,0,,,,,,,,,,,,,,,,,,,,,,,,,,,,,,,,,,,,,,,,,,,,,,,,,,,,,,,,,,,,115,001,2023-03-02_14h29.14.179,eb_01,2022.2.4,60.001847379443,
2,stimuli/2.png,s,1,0,1,0,81,0,81,0,0,0,0,0,,,,,,,,,,,,,,,,,,,2295.1527474418253,2295.1527474418253,2295.1527474418253,2295.1527474418253,s,1,0.6272776811092626,2295.802719067884,2295.802719067884,2295.802719067884,2296.8026605089253,2296.8026605089253,2296.8026605089253,,,,,,,,,,,,,,,,,,,,,,,,,115,001,2023-03-02_14h29.14.179,eb_01,2022.2.4,60.001847379443,
,,,1,0,1,0,81,0,81,0,,,,,,,,,,,,,,,,,,,,,,,,,,,,,,,,,,,,,,,,,,,,,,,,,,,,,,,,,,,,115,001,2023-03-02_14h29.14.179,eb_01,2022.2.4,60.001847379443,
3,stimuli/3.png,l,1,0,1,0,82,0,82,0,0,0,0,0,,,,,,,,,,,,,,,,,,,2296.8026605089253,2296.8026605089253,2296.8026605089253,2296.8026605089253,l,1,0.5133886412950233,2297.3359476591577,2297.3359476591577,2297.3359476591577,2298.3358993630973,2298.3358993630973,2298.3358993630973,,,,,,,,,,,,,,,,,,,,,,,,,115,001,2023-03-02_14h29.14.179,eb_01,2022.2.4,60.001847379443,
,,,1,0,1,0,82,0,82,0,,,,,,,,,,,,,,,,,,,,,,,,,,,,,,,,,,,,,,,,,,,,,,,,,,,,,,,,,,,,115,001,2023-03-02_14h29.14.179,eb_01,2022.2.4,60.001847379443,
2,stimuli/2.png,s,1,0,1,0,83,0,83,0,0,0,0,0,,,,,,,,,,,,,,,,,,,2298.3358993630973,2298.3358993630973,2298.3358993630973,2298.3358993630973,s,1,0.5152812429441838,2298.869184400377,2298.869184400377,2298.869184400377,2299.869144556127,2299.869144556127,2299.869144556127,,,,,,,,,,,,,,,,,,,,,,,,,115,001,2023-03-02_14h29.14.179,eb_01,2022.2.4,60.001847379443,
,,,1,0,1,0,83,0,83,0,,,,,,,,,,,,,,,,,,,,,,,,,,,,,,,,,,,,,,,,,,,,,,,,,,,,,,,,,,,,115,001,2023-03-02_14h29.14.179,eb_01,2022.2.4,60.001847379443,
3,stimuli/3.png,l,1,0,1,0,84,0,84,0,0,0,0,0,,,,,,,,,,,,,,,,,,,2299.869144556127,2299.869144556127,2299.869144556127,2299.869144556127,l,1,0.45398056982958224,2300.352444082222,2300.352444082222,2300.352444082222,2301.3690533973277,2301.3690533973277,2301.3690533973277,,,,,,,,,,,,,,,,,,,,,,,,,115,001,2023-03-02_14h29.14.179,eb_01,2022.2.4,60.001847379443,
,,,1,0,1,0,84,0,84,0,,,,,,,,,,,,,,,,,,,,,,,,,,,,,,,,,,,,,,,,,,,,,,,,,,,,,,,,,,,,115,001,2023-03-02_14h29.14.179,eb_01,2022.2.4,60.001847379443,
8,stimuli/8.png,l,1,0,1,0,85,0,85,0,0,0,0,0,,,,,,,,,,,,,,,,,,,2301.3690533973277,2301.3690533973277,2301.3690533973277,2301.3690533973277,l,1,0.6421063810412306,2302.035657580971,2302.035657580971,2302.035657580971,2303.035641582901,2303.035641582901,2303.035641582901,,,,,,,,,,,,,,,,,,,,,,,,,115,001,2023-03-02_14h29.14.179,eb_01,2022.2.4,60.001847379443,
,,,1,0,1,0,85,0,85,0,,,,,,,,,,,,,,,,,,,,,,,,,,,,,,,,,,,,,,,,,,,,,,,,,,,,,,,,,,,,115,001,2023-03-02_14h29.14.179,eb_01,2022.2.4,60.001847379443,
3,stimuli/3.png,l,1,0,1,0,86,0,86,0,0,0,0,0,,,,,,,,,,,,,,,,,,,2303.035641582901,2303.035641582901,2303.035641582901,2303.035641582901,l,1,0.40755145938601345,2303.468927827591,2303.468927827591,2303.468927827591,2304.485512692816,2304.485512692816,2304.485512692816,,,,,,,,,,,,,,,,,,,,,,,,,115,001,2023-03-02_14h29.14.179,eb_01,2022.2.4,60.001847379443,
,,,1,0,1,0,86,0,86,0,,,,,,,,,,,,,,,,,,,,,,,,,,,,,,,,,,,,,,,,,,,,,,,,,,,,,,,,,,,,115,001,2023-03-02_14h29.14.179,eb_01,2022.2.4,60.001847379443,
8,stimuli/8.png,l,1,0,1,0,87,0,87,0,0,0,0,0,,,,,,,,,,,,,,,,,,,2304.485512692816,2304.485512692816,2304.485512692816,2304.485512692816,l,1,0.5577114400512073,2305.0688342539797,2305.0688342539797,2305.0688342539797,2306.0854299858183,2306.0854299858183,2306.0854299858183,,,,,,,,,,,,,,,,,,,,,,,,,115,001,2023-03-02_14h29.14.179,eb_01,2022.2.4,60.001847379443,
,,,1,0,1,0,87,0,87,0,,,,,,,,,,,,,,,,,,,,,,,,,,,,,,,,,,,,,,,,,,,,,,,,,,,,,,,,,,,,115,001,2023-03-02_14h29.14.179,eb_01,2022.2.4,60.001847379443,
6,stimuli/6.png,s,1,0,1,0,88,0,88,0,0,0,0,0,,,,,,,,,,,,,,,,,,,2306.0854299858183,2306.0854299858183,2306.0854299858183,2306.0854299858183,s,1,0.733836889063241,2306.8687219656567,2306.8687219656567,2306.8687219656567,,,,,,,,,,,,,,,,,,,,,,,,,,,,115,001,2023-03-02_14h29.14.179,eb_01,2022.2.4,60.001847379443,
,,,1,0,1,0,88,0,88,0,,,,,,,,,,,,,,,,,,,,,,,,,,,,,,,,,,,,,,,,,,,,,,,,,,,,,,,,,,,,115,001,2023-03-02_14h29.14.179,eb_01,2022.2.4,60.001847379443,
9,stimuli/9.png,l,1,0,1,0,89,0,89,0,0,0,0,0,,,,,,,,,,,,,,,,,,,2307.885307736433,2307.885307736433,2307.885307736433,2307.885307736433,s,0,0.6780033293325687,2308.601955386519,2308.601955386519,2308.601955386519,,,,,,,,,,,,,,,,,,,,,,,,,,,,115,001,2023-03-02_14h29.14.179,eb_01,2022.2.4,60.001847379443,
,,,1,0,1,0,89,0,89,0,,,,,,,,,,,,,,,,,,,,,,,,,,,,,,,,,,,,,,,,,,,,,,,,,,,,,,,,,,,,115,001,2023-03-02_14h29.14.179,eb_01,2022.2.4,60.001847379443,
8,stimuli/8.png,l,1,0,1,0,90,0,90,0,0,0,0,0,,,,,,,,,,,,,,,,,,,2309.6185583627666,2309.6185583627666,2309.6185583627666,2309.6185583627666,l,1,0.6087953846435994,2310.251829514935,2310.251829514935,2310.251829514935,2311.2684315856313,2311.2684315856313,2311.2684315856313,,,,,,,,,,,,,,,,,,,,,,,,,115,001,2023-03-02_14h29.14.179,eb_01,2022.2.4,60.001847379443,
,,,1,0,1,0,90,0,90,0,,,,,,,,,,,,,,,,,,,,,,,,,,,,,,,,,,,,,,,,,,,,,,,,,,,,,,,,,,,,115,001,2023-03-02_14h29.14.179,eb_01,2022.2.4,60.001847379443,
9,stimuli/9.png,l,1,0,1,0,91,0,91,0,0,0,0,0,,,,,,,,,,,,,,,,,,,2311.2684315856313,2311.2684315856313,2311.2684315856313,2311.2684315856313,l,1,0.37495977233629674,2311.685076519061,2311.685076519061,2311.685076519061,,,,,,,,,,,,,,,,,,,,,,,,,,,,115,001,2023-03-02_14h29.14.179,eb_01,2022.2.4,60.001847379443,
,,,1,0,1,0,91,0,91,0,,,,,,,,,,,,,,,,,,,,,,,,,,,,,,,,,,,,,,,,,,,,,,,,,,,,,,,,,,,,115,001,2023-03-02_14h29.14.179,eb_01,2022.2.4,60.001847379443,
8,stimuli/8.png,l,1,0,1,0,92,0,92,0,0,0,0,0,,,,,,,,,,,,,,,,,,,2312.7016831175133,2312.7016831175133,2312.7016831175133,2312.7016831175133,l,1,0.5257512239331845,2313.2516819101147,2313.2516819101147,2313.2516819101147,2314.251625464094,2314.251625464094,2314.251625464094,,,,,,,,,,,,,,,,,,,,,,,,,115,001,2023-03-02_14h29.14.179,eb_01,2022.2.4,60.001847379443,
,,,1,0,1,0,92,0,92,0,,,,,,,,,,,,,,,,,,,,,,,,,,,,,,,,,,,,,,,,,,,,,,,,,,,,,,,,,,,,115,001,2023-03-02_14h29.14.179,eb_01,2022.2.4,60.001847379443,
3,stimuli/3.png,l,1,0,1,0,93,0,93,0,0,0,0,0,,,,,,,,,,,,,,,,,,,2314.251625464094,2314.251625464094,2314.251625464094,2314.251625464094,l,1,0.6709240332565969,2314.9515669051325,2314.9515669051325,2314.9515669051325,2315.9681852757494,2315.9681852757494,2315.9681852757494,,,,,,,,,,,,,,,,,,,,,,,,,115,001,2023-03-02_14h29.14.179,eb_01,2022.2.4,60.001847379443,
,,,1,0,1,0,93,0,93,0,,,,,,,,,,,,,,,,,,,,,,,,,,,,,,,,,,,,,,,,,,,,,,,,,,,,,,,,,,,,115,001,2023-03-02_14h29.14.179,eb_01,2022.2.4,60.001847379443,
8,stimuli/8.png,l,1,0,1,0,94,0,94,0,0,0,0,0,,,,,,,,,,,,,,,,,,,2315.9681852757494,2315.9681852757494,2315.9681852757494,2315.9681852757494,l,1,0.474298418223043,2316.46813788524,2316.46813788524,2316.46813788524,2317.4847327115276,2317.4847327115276,2317.4847327115276,,,,,,,,,,,,,,,,,,,,,,,,,115,001,2023-03-02_14h29.14.179,eb_01,2022.2.4,60.001847379443,
,,,1,0,1,0,94,0,94,0,,,,,,,,,,,,,,,,,,,,,,,,,,,,,,,,,,,,,,,,,,,,,,,,,,,,,,,,,,,,115,001,2023-03-02_14h29.14.179,eb_01,2022.2.4,60.001847379443,
6,stimuli/6.png,s,1,0,1,0,95,0,95,0,0,0,0,0,,,,,,,,,,,,,,,,,,,2317.4847327115276,2317.4847327115276,2317.4847327115276,2317.4847327115276,s,1,0.48579348297789693,2318.0180578949075,2318.0180578949075,2318.0180578949075,,,,,,,,,,,,,,,,,,,,,,,,,,,,115,001,2023-03-02_14h29.14.179,eb_01,2022.2.4,60.001847379443,
,,,1,0,1,0,95,0,95,0,,,,,,,,,,,,,,,,,,,,,,,,,,,,,,,,,,,,,,,,,,,,,,,,,,,,,,,,,,,,115,001,2023-03-02_14h29.14.179,eb_01,2022.2.4,60.001847379443,
5,stimuli/5.png,s,1,0,1,0,96,0,96,0,0,0,0,0,,,,,,,,,,,,,,,,,,,2319.017701711491,2319.017701711491,2319.017701711491,2319.017701711491,s,1,0.42486227468180005,2319.4679993359314,2319.4679993359314,2319.4679993359314,2320.484566995685,2320.484566995685,2320.484566995685,,,,,,,,,,,,,,,,,,,,,,,,,115,001,2023-03-02_14h29.14.179,eb_01,2022.2.4,60.001847379443,
,,,1,0,1,0,96,0,96,0,,,,,,,,,,,,,,,,,,,,,,,,,,,,,,,,,,,,,,,,,,,,,,,,,,,,,,,,,,,,115,001,2023-03-02_14h29.14.179,eb_01,2022.2.4,60.001847379443,
6,stimuli/6.png,s,1,0,1,0,97,0,97,0,0,0,0,0,,,,,,,,,,,,,,,,,,,2320.484566995685,2320.484566995685,2320.484566995685,2320.484566995685,s,1,0.41402433812618256,2320.9345745419414,2320.9345745419414,2320.9345745419414,,,,,,,,,,,,,,,,,,,,,,,,,,,,115,001,2023-03-02_14h29.14.179,eb_01,2022.2.4,60.001847379443,
,,,1,0,1,0,97,0,97,0,,,,,,,,,,,,,,,,,,,,,,,,,,,,,,,,,,,,,,,,,,,,,,,,,,,,,,,,,,,,115,001,2023-03-02_14h29.14.179,eb_01,2022.2.4,60.001847379443,
5,stimuli/5.png,s,1,0,1,0,98,0,98,0,0,0,0,0,,,,,,,,,,,,,,,,,,,2321.9341887772025,2321.9341887772025,2321.9341887772025,2321.9341887772025,s,1,0.6604332246060949,2322.6177518186596,2322.6177518186596,2322.6177518186596,2323.6343723022146,2323.6343723022146,2323.6343723022146,,,,,,,,,,,,,,,,,,,,,,,,,115,001,2023-03-02_14h29.14.179,eb_01,2022.2.4,60.001847379443,
,,,1,0,1,0,98,0,98,0,,,,,,,,,,,,,,,,,,,,,,,,,,,,,,,,,,,,,,,,,,,,,,,,,,,,,,,,,,,,115,001,2023-03-02_14h29.14.179,eb_01,2022.2.4,60.001847379443,
9,stimuli/9.png,l,1,0,1,0,99,0,99,0,0,0,0,0,,,,,,,,,,,,,,,,,,,2323.6343723022146,2323.6343723022146,2323.6343723022146,2323.6343723022146,l,1,0.5203094659518683,2324.2010422892345,2324.2010422892345,2324.2010422892345,,,,,,,,,,,,,,,,,,,,,,,,,,,,115,001,2023-03-02_14h29.14.179,eb_01,2022.2.4,60.001847379443,
,,,1,0,1,0,99,0,99,0,,,,,,,,,,,,,,,,,,,,,,,,,,,,,,,,,,,,,,,,,,,,,,,,,,,,,,,,,,,,115,001,2023-03-02_14h29.14.179,eb_01,2022.2.4,60.001847379443,
,,,1,0,1,0,,,,,,,,,,,,,,,,,,,,,,,,,,,,,,,,,,,,,,,,2325.2009604877967,2325.2009604877967,return,81.27862242439005,,,,,,,,,,,,,,,,,,,,,115,001,2023-03-02_14h29.14.179,eb_01,2022.2.4,60.001847379443,
8,stimuli/8.png,l,2,0,2,0,0,0,0,0,0,0,0,0,,,,,,,,,,,,,,,,,,,2406.5127875879116,2406.5127875879116,2406.5127875879116,2406.5127875879116,l,1,6.541946400364395,2413.0790844879084,2413.0790844879084,2413.0790844879084,2414.095669956834,2414.095669956834,2414.095669956834,,,,,,,,,,,,,,,,,,,,,,,,,115,001,2023-03-02_14h29.14.179,eb_01,2022.2.4,60.001847379443,
,,,2,0,2,0,0,0,0,0,,,,,,,,,,,,,,,,,,,,,,,,,,,,,,,,,,,,,,,,,,,,,,,,,,,,,,,,,,,,115,001,2023-03-02_14h29.14.179,eb_01,2022.2.4,60.001847379443,
9,stimuli/9.png,l,2,0,2,0,1,0,1,0,0,0,0,0,,,,,,,,,,,,,,,,,,,2414.095669956834,2414.095669956834,2414.095669956834,2414.095669956834,l,1,0.7351577861554688,2414.8789924235607,2414.8789924235607,2414.8789924235607,,,,,,,,,,,,,,,,,,,,,,,,,,,,115,001,2023-03-02_14h29.14.179,eb_01,2022.2.4,60.001847379443,
,,,2,0,2,0,1,0,1,0,,,,,,,,,,,,,,,,,,,,,,,,,,,,,,,,,,,,,,,,,,,,,,,,,,,,,,,,,,,,115,001,2023-03-02_14h29.14.179,eb_01,2022.2.4,60.001847379443,
6,stimuli/6.png,s,2,0,2,0,2,0,2,0,0,0,0,0,,,,,,,,,,,,,,,,,,,2415.895592683155,2415.895592683155,2415.895592683155,2415.895592683155,s,1,0.6392300491279457,2416.578875607476,2416.578875607476,2416.578875607476,,,,,,,,,,,,,,,,,,,,,,,,,,,,115,001,2023-03-02_14h29.14.179,eb_01,2022.2.4,60.001847379443,
,,,2,0,2,0,2,0,2,0,,,,,,,,,,,,,,,,,,,,,,,,,,,,,,,,,,,,,,,,,,,,,,,,,,,,,,,,,,,,115,001,2023-03-02_14h29.14.179,eb_01,2022.2.4,60.001847379443,
