index,stimulus,correct_answer,block.thisRepN,block.thisTrialN,block.thisN,block.thisIndex,trial.thisRepN,trial.thisTrialN,trial.thisN,trial.thisIndex,display_row.thisRepN,display_row.thisTrialN,display_row.thisN,display_row.thisIndex,pair_questions.thisRepN,pair_questions.thisTrialN,pair_questions.thisN,pair_questions.thisIndex,welcome_text.started,instructions_0_keypress.started,instructions_0_keypress.keys,instructions_0_keypress.rt,instructions_1_keypress.started,instructions_1_text.started,instructions_1_keypress.keys,instructions_1_keypress.rt,instructions_2_keypress.started,instructions_2_text.started,instructions_2_keypress.keys,instructions_2_keypress.rt,text_countdown.started,image.started,size_question.started,size_resp.started,keypress_options.started,size_resp.keys,size_resp.corr,size_resp.rt,fb_image.started,fb.started,fb_size_question.started,fb_image.stopped,fb.stopped,fb_size_question.stopped,block_break_text.started,block_break_keypress.started,block_break_keypress.keys,block_break_keypress.rt,seq_reveal.started,seq_reveal_adv.started,seq_reveal_adv.keys,seq_reveal_adv.rt,instruction_2afc_text.started,instruction_2afc_keypress.started,instruction_2afc_keypress.keys,instruction_2afc_keypress.rt,dist_2afc_test.started,dist_2afc_resp.started,text.started,stim_00.started,stim_01.started,stim_10.started,stim_11.started,dist_2afc_resp.keys,dist_2afc_resp.rt,graph.started,debrief_text.started,debriefing_title.started,participant,session,date,expName,psychopyVersion,frameRate,
,,,,,,,,,,,,,,,,,,,15.287977337138727,15.287977337138727,return,2.57626368405181,,,,,,,,,,,,,,,,,,,,,,,,,,,,,,,,,,,,,,,,,,,,,,,116,001,2010-10-16_10h05.20.525,eb_01,2022.2.4,119.97211560041166,
,,,,,,,,,,,,,,,,,,,,,,,17.879546078824205,17.879546078824205,return,7.0798469386354554,,,,,,,,,,,,,,,,,,,,,,,,,,,,,,,,,,,,,,,,,,,116,001,2010-10-16_10h05.20.525,eb_01,2022.2.4,119.97211560041166,
,,,,,,,,,,,,,,,,,,,,,,,,,,,24.971803942753468,24.971803942753468,space,17.122923871007515,,,,,,,,,,,,,,,,,,,,,,,,,,,,,,,,,,,,,,,116,001,2010-10-16_10h05.20.525,eb_01,2022.2.4,119.97211560041166,
3,stimuli/3.png,l,0,0,0,0,0,0,0,0,0,0,0,0,,,,,,,,,,,,,,,,,42.11492524697678,47.131998152675806,47.131998152675806,47.131998152675806,47.131998152675806,l,1,1.7148340043786447,48.865511891344795,48.865511891344795,48.865511891344795,,,,,,,,,,,,,,,,,,,,,,,,,,,,116,001,2010-10-16_10h05.20.525,eb_01,2022.2.4,119.97211560041166,
,,,0,0,0,0,0,0,0,0,,,,,,,,,,,,,,,,,,,,,,,,,,,,,,,,,,,,,,,,,,,,,,,,,,,,,,,,,,,116,001,2010-10-16_10h05.20.525,eb_01,2022.2.4,119.97211560041166,
2,stimuli/2.png,s,0,0,0,0,1,0,1,0,0,0,0,0,,,,,,,,,,,,,,,,,,49.873949790373445,49.873949790373445,49.873949790373445,49.873949790373445,s,1,1.6609375810076017,51.54907196393469,51.54907196393469,51.54907196393469,52.56578687619185,52.56578687619185,52.56578687619185,,,,,,,,,,,,,,,,,,,,,,,,,116,001,2010-10-16_10h05.20.525,eb_01,2022.2.4,119.97211560041166,
,,,0,0,0,0,1,0,1,0,,,,,,,,,,,,,,,,,,,,,,,,,,,,,,,,,,,,,,,,,,,,,,,,,,,,,,,,,,,116,001,2010-10-16_10h05.20.525,eb_01,2022.2.4,119.97211560041166,
4,stimuli/4.png,l,0,0,0,0,2,0,2,0,0,0,0,0,,,,,,,,,,,,,,,,,,52.56578687619185,52.56578687619185,52.56578687619185,52.56578687619185,l,1,1.0721573243499734,53.657571138377534,53.657571138377534,53.657571138377534,,,,,,,,,,,,,,,,,,,,,,,,,,,,116,001,2010-10-16_10h05.20.525,eb_01,2022.2.4,119.97211560041166,
,,,0,0,0,0,2,0,2,0,,,,,,,,,,,,,,,,,,,,,,,,,,,,,,,,,,,,,,,,,,,,,,,,,,,,,,,,,,,116,001,2010-10-16_10h05.20.525,eb_01,2022.2.4,119.97211560041166,
2,stimuli/2.png,s,0,0,0,0,3,0,3,0,0,0,0,0,,,,,,,,,,,,,,,,,,54.665996359690325,54.665996359690325,54.665996359690325,54.665996359690325,s,1,0.8439881317317486,55.524403922841884,55.524403922841884,55.524403922841884,56.54114841634873,56.54114841634873,56.54114841634873,,,,,,,,,,,,,,,,,,,,,,,,,116,001,2010-10-16_10h05.20.525,eb_01,2022.2.4,119.97211560041166,
,,,0,0,0,0,3,0,3,0,,,,,,,,,,,,,,,,,,,,,,,,,,,,,,,,,,,,,,,,,,,,,,,,,,,,,,,,,,,116,001,2010-10-16_10h05.20.525,eb_01,2022.2.4,119.97211560041166,
4,stimuli/4.png,l,0,0,0,0,4,0,4,0,0,0,0,0,,,,,,,,,,,,,,,,,,56.54114841634873,56.54114841634873,56.54114841634873,56.54114841634873,l,1,0.6808662841503974,57.241214521374786,57.241214521374786,57.241214521374786,,,,,,,,,,,,,,,,,,,,,,,,,,,,116,001,2010-10-16_10h05.20.525,eb_01,2022.2.4,119.97211560041166,
,,,0,0,0,0,4,0,4,0,,,,,,,,,,,,,,,,,,,,,,,,,,,,,,,,,,,,,,,,,,,,,,,,,,,,,,,,,,,116,001,2010-10-16_10h05.20.525,eb_01,2022.2.4,119.97211560041166,
2,stimuli/2.png,s,0,0,0,0,5,0,5,0,0,0,0,0,,,,,,,,,,,,,,,,,,58.249636724212905,58.249636724212905,58.249636724212905,58.249636724212905,s,1,0.6844175427395385,58.94970826251665,58.94970826251665,58.94970826251665,59.97479768542689,59.97479768542689,59.97479768542689,,,,,,,,,,,,,,,,,,,,,,,,,116,001,2010-10-16_10h05.20.525,eb_01,2022.2.4,119.97211560041166,
,,,0,0,0,0,5,0,5,0,,,,,,,,,,,,,,,,,,,,,,,,,,,,,,,,,,,,,,,,,,,,,,,,,,,,,,,,,,,116,001,2010-10-16_10h05.20.525,eb_01,2022.2.4,119.97211560041166,
1,stimuli/1.png,s,0,0,0,0,6,0,6,0,0,0,0,0,,,,,,,,,,,,,,,,,,59.97479768542689,59.97479768542689,59.97479768542689,59.97479768542689,s,1,1.3753095379797742,61.383238301059464,61.383238301059464,61.383238301059464,,,,,,,,,,,,,,,,,,,,,,,,,,,,116,001,2010-10-16_10h05.20.525,eb_01,2022.2.4,119.97211560041166,
,,,0,0,0,0,6,0,6,0,,,,,,,,,,,,,,,,,,,,,,,,,,,,,,,,,,,,,,,,,,,,,,,,,,,,,,,,,,,116,001,2010-10-16_10h05.20.525,eb_01,2022.2.4,119.97211560041166,
4,stimuli/4.png,l,0,0,0,0,7,0,7,0,0,0,0,0,,,,,,,,,,,,,,,,,,62.39165386321838,62.39165386321838,62.39165386321838,62.39165386321838,l,1,1.118491513945628,63.5334340504196,63.5334340504196,63.5334340504196,,,,,,,,,,,,,,,,,,,,,,,,,,,,116,001,2010-10-16_10h05.20.525,eb_01,2022.2.4,119.97211560041166,
,,,0,0,0,0,7,0,7,0,,,,,,,,,,,,,,,,,,,,,,,,,,,,,,,,,,,,,,,,,,,,,,,,,,,,,,,,,,,116,001,2010-10-16_10h05.20.525,eb_01,2022.2.4,119.97211560041166,
3,stimuli/3.png,l,0,0,0,0,8,0,8,0,0,0,0,0,,,,,,,,,,,,,,,,,,64.5418405570963,64.5418405570963,64.5418405570963,64.5418405570963,l,1,0.624380294495495,65.17519371188246,65.17519371188246,65.17519371188246,66.1836457978061,66.1836457978061,66.1836457978061,,,,,,,,,,,,,,,,,,,,,,,,,116,001,2010-10-16_10h05.20.525,eb_01,2022.2.4,119.97211560041166,
,,,0,0,0,0,8,0,8,0,,,,,,,,,,,,,,,,,,,,,,,,,,,,,,,,,,,,,,,,,,,,,,,,,,,,,,,,,,,116,001,2010-10-16_10h05.20.525,eb_01,2022.2.4,119.97211560041166,
2,stimuli/2.png,s,0,0,0,0,9,0,9,0,0,0,0,0,,,,,,,,,,,,,,,,,,66.1836457978061,66.1836457978061,66.1836457978061,66.1836457978061,s,1,0.7496595807024278,66.94205698312726,66.94205698312726,66.94205698312726,67.9671276913723,67.9671276913723,67.9671276913723,,,,,,,,,,,,,,,,,,,,,,,,,116,001,2010-10-16_10h05.20.525,eb_01,2022.2.4,119.97211560041166,
,,,0,0,0,0,9,0,9,0,,,,,,,,,,,,,,,,,,,,,,,,,,,,,,,,,,,,,,,,,,,,,,,,,,,,,,,,,,,116,001,2010-10-16_10h05.20.525,eb_01,2022.2.4,119.97211560041166,
1,stimuli/1.png,s,0,0,0,0,10,0,10,0,0,0,0,0,,,,,,,,,,,,,,,,,,67.9671276913723,67.9671276913723,67.9671276913723,67.9671276913723,l,0,0.7341801381553523,68.73384275456192,68.73384275456192,68.73384275456192,,,,,,,,,,,,,,,,,,,,,,,,,,,,116,001,2010-10-16_10h05.20.525,eb_01,2022.2.4,119.97211560041166,
,,,0,0,0,0,10,0,10,0,,,,,,,,,,,,,,,,,,,,,,,,,,,,,,,,,,,,,,,,,,,,,,,,,,,,,,,,,,,116,001,2010-10-16_10h05.20.525,eb_01,2022.2.4,119.97211560041166,
4,stimuli/4.png,l,0,0,0,0,11,0,11,0,0,0,0,0,,,,,,,,,,,,,,,,,,69.74229514235049,69.74229514235049,69.74229514235049,69.74229514235049,l,1,0.942998971149791,70.70902982575353,70.70902982575353,70.70902982575353,,,,,,,,,,,,,,,,,,,,,,,,,,,,116,001,2010-10-16_10h05.20.525,eb_01,2022.2.4,119.97211560041166,
,,,0,0,0,0,11,0,11,0,,,,,,,,,,,,,,,,,,,,,,,,,,,,,,,,,,,,,,,,,,,,,,,,,,,,,,,,,,,116,001,2010-10-16_10h05.20.525,eb_01,2022.2.4,119.97211560041166,
3,stimuli/3.png,l,0,0,0,0,12,0,12,0,0,0,0,0,,,,,,,,,,,,,,,,,,71.71745383966481,71.71745383966481,71.71745383966481,71.71745383966481,l,1,0.5358674764866009,72.27582819937379,72.27582819937379,72.27582819937379,,,,,,,,,,,,,,,,,,,,,,,,,,,,116,001,2010-10-16_10h05.20.525,eb_01,2022.2.4,119.97211560041166,
,,,0,0,0,0,12,0,12,0,,,,,,,,,,,,,,,,,,,,,,,,,,,,,,,,,,,,,,,,,,,,,,,,,,,,,,,,,,,116,001,2010-10-16_10h05.20.525,eb_01,2022.2.4,119.97211560041166,
4,stimuli/4.png,l,0,0,0,0,13,0,13,0,0,0,0,0,,,,,,,,,,,,,,,,,,73.2925699762418,73.2925699762418,73.2925699762418,73.2925699762418,l,1,0.504784229415236,73.81764219372417,73.81764219372417,73.81764219372417,,,,,,,,,,,,,,,,,,,,,,,,,,,,116,001,2010-10-16_10h05.20.525,eb_01,2022.2.4,119.97211560041166,
,,,0,0,0,0,13,0,13,0,,,,,,,,,,,,,,,,,,,,,,,,,,,,,,,,,,,,,,,,,,,,,,,,,,,,,,,,,,,116,001,2010-10-16_10h05.20.525,eb_01,2022.2.4,119.97211560041166,
1,stimuli/1.png,s,0,0,0,0,14,0,14,0,0,0,0,0,,,,,,,,,,,,,,,,,,74.84271773154614,74.84271773154614,74.84271773154614,74.84271773154614,s,1,1.138687655737158,76.00951097373036,76.00951097373036,76.00951097373036,,,,,,,,,,,,,,,,,,,,,,,,,,,,116,001,2010-10-16_10h05.20.525,eb_01,2022.2.4,119.97211560041166,
,,,0,0,0,0,14,0,14,0,,,,,,,,,,,,,,,,,,,,,,,,,,,,,,,,,,,,,,,,,,,,,,,,,,,,,,,,,,,116,001,2010-10-16_10h05.20.525,eb_01,2022.2.4,119.97211560041166,
2,stimuli/2.png,s,0,0,0,0,15,0,15,0,0,0,0,0,,,,,,,,,,,,,,,,,,77.00959700081148,77.00959700081148,77.00959700081148,77.00959700081148,s,1,0.7958334882277995,77.81798298173817,77.81798298173817,77.81798298173817,78.82638948838576,78.82638948838576,78.82638948838576,,,,,,,,,,,,,,,,,,,,,,,,,116,001,2010-10-16_10h05.20.525,eb_01,2022.2.4,119.97211560041166,
,,,0,0,0,0,15,0,15,0,,,,,,,,,,,,,,,,,,,,,,,,,,,,,,,,,,,,,,,,,,,,,,,,,,,,,,,,,,,116,001,2010-10-16_10h05.20.525,eb_01,2022.2.4,119.97211560041166,
3,stimuli/3.png,l,0,0,0,0,16,0,16,0,0,0,0,0,,,,,,,,,,,,,,,,,,78.82638948838576,78.82638948838576,78.82638948838576,78.82638948838576,l,1,0.6671022519585676,79.50977901602164,79.50977901602164,79.50977901602164,80.51819820038509,80.51819820038509,80.51819820038509,,,,,,,,,,,,,,,,,,,,,,,,,116,001,2010-10-16_10h05.20.525,eb_01,2022.2.4,119.97211560041166,
,,,0,0,0,0,16,0,16,0,,,,,,,,,,,,,,,,,,,,,,,,,,,,,,,,,,,,,,,,,,,,,,,,,,,,,,,,,,,116,001,2010-10-16_10h05.20.525,eb_01,2022.2.4,119.97211560041166,
2,stimuli/2.png,s,0,0,0,0,17,0,17,0,0,0,0,0,,,,,,,,,,,,,,,,,,80.51819820038509,80.51819820038509,80.51819820038509,80.51819820038509,s,1,0.5913365354062989,81.11824196853559,81.11824196853559,81.11824196853559,82.14335010611103,82.14335010611103,82.14335010611103,,,,,,,,,,,,,,,,,,,,,,,,,116,001,2010-10-16_10h05.20.525,eb_01,2022.2.4,119.97211560041166,
,,,0,0,0,0,17,0,17,0,,,,,,,,,,,,,,,,,,,,,,,,,,,,,,,,,,,,,,,,,,,,,,,,,,,,,,,,,,,116,001,2010-10-16_10h05.20.525,eb_01,2022.2.4,119.97211560041166,
1,stimuli/1.png,s,0,0,0,0,18,0,18,0,0,0,0,0,,,,,,,,,,,,,,,,,,82.14335010611103,82.14335010611103,82.14335010611103,82.14335010611103,s,1,0.4781777112802956,82.65171435385128,82.65171435385128,82.65171435385128,,,,,,,,,,,,,,,,,,,,,,,,,,,,116,001,2010-10-16_10h05.20.525,eb_01,2022.2.4,119.97211560041166,
,,,0,0,0,0,18,0,18,0,,,,,,,,,,,,,,,,,,,,,,,,,,,,,,,,,,,,,,,,,,,,,,,,,,,,,,,,,,,116,001,2010-10-16_10h05.20.525,eb_01,2022.2.4,119.97211560041166,
4,stimuli/4.png,l,0,0,0,0,19,0,19,0,0,0,0,0,,,,,,,,,,,,,,,,,,83.66013263264904,83.66013263264904,83.66013263264904,83.66013263264904,l,1,0.42444730509305373,84.10184520558687,84.10184520558687,84.10184520558687,,,,,,,,,,,,,,,,,,,,,,,,,,,,116,001,2010-10-16_10h05.20.525,eb_01,2022.2.4,119.97211560041166,
,,,0,0,0,0,19,0,19,0,,,,,,,,,,,,,,,,,,,,,,,,,,,,,,,,,,,,,,,,,,,,,,,,,,,,,,,,,,,116,001,2010-10-16_10h05.20.525,eb_01,2022.2.4,119.97211560041166,
1,stimuli/1.png,s,0,0,0,0,20,0,20,0,0,0,0,0,,,,,,,,,,,,,,,,,,85.11859241573256,85.11859241573256,85.11859241573256,85.11859241573256,l,0,0.3820093879767228,85.52694217470707,85.52694217470707,85.52694217470707,,,,,,,,,,,,,,,,,,,,,,,,,,,,116,001,2010-10-16_10h05.20.525,eb_01,2022.2.4,119.97211560041166,
,,,0,0,0,0,20,0,20,0,,,,,,,,,,,,,,,,,,,,,,,,,,,,,,,,,,,,,,,,,,,,,,,,,,,,,,,,,,,116,001,2010-10-16_10h05.20.525,eb_01,2022.2.4,119.97211560041166,
2,stimuli/2.png,s,0,0,0,0,21,0,21,0,0,0,0,0,,,,,,,,,,,,,,,,,,86.52704933125642,86.52704933125642,86.52704933125642,86.52704933125642,s,1,0.677569786523236,87.22710155119421,87.22710155119421,87.22710155119421,,,,,,,,,,,,,,,,,,,,,,,,,,,,116,001,2010-10-16_10h05.20.525,eb_01,2022.2.4,119.97211560041166,
,,,0,0,0,0,21,0,21,0,,,,,,,,,,,,,,,,,,,,,,,,,,,,,,,,,,,,,,,,,,,,,,,,,,,,,,,,,,,116,001,2010-10-16_10h05.20.525,eb_01,2022.2.4,119.97211560041166,
3,stimuli/3.png,l,0,0,0,0,22,0,22,0,0,0,0,0,,,,,,,,,,,,,,,,,,88.23550503936713,88.23550503936713,88.23550503936713,88.23550503936713,l,1,0.5131656825833488,88.76056880506803,88.76056880506803,88.76056880506803,89.77732054295484,89.77732054295484,89.77732054295484,,,,,,,,,,,,,,,,,,,,,,,,,116,001,2010-10-16_10h05.20.525,eb_01,2022.2.4,119.97211560041166,
,,,0,0,0,0,22,0,22,0,,,,,,,,,,,,,,,,,,,,,,,,,,,,,,,,,,,,,,,,,,,,,,,,,,,,,,,,,,,116,001,2010-10-16_10h05.20.525,eb_01,2022.2.4,119.97211560041166,
8,stimuli/8.png,l,0,0,0,0,23,0,23,0,0,0,0,0,,,,,,,,,,,,,,,,,,89.77732054295484,89.77732054295484,89.77732054295484,89.77732054295484,l,1,1.0353564453835133,90.83572538945009,90.83572538945009,90.83572538945009,,,,,,,,,,,,,,,,,,,,,,,,,,,,116,001,2010-10-16_10h05.20.525,eb_01,2022.2.4,119.97211560041166,
,,,0,0,0,0,23,0,23,0,,,,,,,,,,,,,,,,,,,,,,,,,,,,,,,,,,,,,,,,,,,,,,,,,,,,,,,,,,,116,001,2010-10-16_10h05.20.525,eb_01,2022.2.4,119.97211560041166,
3,stimuli/3.png,l,0,0,0,0,24,0,24,0,0,0,0,0,,,,,,,,,,,,,,,,,,91.84416540141683,91.84416540141683,91.84416540141683,91.84416540141683,l,1,0.6086159060942009,92.4692339967005,92.4692339967005,92.4692339967005,93.48599146972992,93.48599146972992,93.48599146972992,,,,,,,,,,,,,,,,,,,,,,,,,116,001,2010-10-16_10h05.20.525,eb_01,2022.2.4,119.97211560041166,
,,,0,0,0,0,24,0,24,0,,,,,,,,,,,,,,,,,,,,,,,,,,,,,,,,,,,,,,,,,,,,,,,,,,,,,,,,,,,116,001,2010-10-16_10h05.20.525,eb_01,2022.2.4,119.97211560041166,
4,stimuli/4.png,l,0,0,0,0,25,0,25,0,0,0,0,0,,,,,,,,,,,,,,,,,,93.48599146972992,93.48599146972992,93.48599146972992,93.48599146972992,l,1,0.5668037228751928,94.06932304229122,94.06932304229122,94.06932304229122,,,,,,,,,,,,,,,,,,,,,,,,,,,,116,001,2010-10-16_10h05.20.525,eb_01,2022.2.4,119.97211560041166,
,,,0,0,0,0,25,0,25,0,,,,,,,,,,,,,,,,,,,,,,,,,,,,,,,,,,,,,,,,,,,,,,,,,,,,,,,,,,,116,001,2010-10-16_10h05.20.525,eb_01,2022.2.4,119.97211560041166,
3,stimuli/3.png,l,0,0,0,0,26,0,26,0,0,0,0,0,,,,,,,,,,,,,,,,,,95.07777512821485,95.07777512821485,95.07777512821485,95.07777512821485,l,1,0.49499736531288363,95.59450452926103,95.59450452926103,95.59450452926103,,,,,,,,,,,,,,,,,,,,,,,,,,,,116,001,2010-10-16_10h05.20.525,eb_01,2022.2.4,119.97211560041166,
,,,0,0,0,0,26,0,26,0,,,,,,,,,,,,,,,,,,,,,,,,,,,,,,,,,,,,,,,,,,,,,,,,,,,,,,,,,,,116,001,2010-10-16_10h05.20.525,eb_01,2022.2.4,119.97211560041166,
4,stimuli/4.png,l,0,0,0,0,27,0,27,0,0,0,0,0,,,,,,,,,,,,,,,,,,96.61123815618339,96.61123815618339,96.61123815618339,96.61123815618339,l,1,0.5295814620621968,97.16126698281732,97.16126698281732,97.16126698281732,,,,,,,,,,,,,,,,,,,,,,,,,,,,116,001,2010-10-16_10h05.20.525,eb_01,2022.2.4,119.97211560041166,
,,,0,0,0,0,27,0,27,0,,,,,,,,,,,,,,,,,,,,,,,,,,,,,,,,,,,,,,,,,,,,,,,,,,,,,,,,,,,116,001,2010-10-16_10h05.20.525,eb_01,2022.2.4,119.97211560041166,
1,stimuli/1.png,s,0,0,0,0,28,0,28,0,0,0,0,0,,,,,,,,,,,,,,,,,,98.17803864277084,98.17803864277084,98.17803864277084,98.17803864277084,s,1,0.4259082563512493,98.63640998397022,98.63640998397022,98.63640998397022,,,,,,,,,,,,,,,,,,,,,,,,,,,,116,001,2010-10-16_10h05.20.525,eb_01,2022.2.4,119.97211560041166,
,,,0,0,0,0,28,0,28,0,,,,,,,,,,,,,,,,,,,,,,,,,,,,,,,,,,,,,,,,,,,,,,,,,,,,,,,,,,,116,001,2010-10-16_10h05.20.525,eb_01,2022.2.4,119.97211560041166,
2,stimuli/2.png,s,0,0,0,0,29,0,29,0,0,0,0,0,,,,,,,,,,,,,,,,,,99.63647729638615,99.63647729638615,99.63647729638615,99.63647729638615,s,1,0.4394142072997056,100.0865363079647,100.0865363079647,100.0865363079647,101.10328714031493,101.10328714031493,101.10328714031493,,,,,,,,,,,,,,,,,,,,,,,,,116,001,2010-10-16_10h05.20.525,eb_01,2022.2.4,119.97211560041166,
,,,0,0,0,0,29,0,29,0,,,,,,,,,,,,,,,,,,,,,,,,,,,,,,,,,,,,,,,,,,,,,,,,,,,,,,,,,,,116,001,2010-10-16_10h05.20.525,eb_01,2022.2.4,119.97211560041166,
4,stimuli/4.png,l,0,0,0,0,30,0,30,0,0,0,0,0,,,,,,,,,,,,,,,,,,101.10328714031493,101.10328714031493,101.10328714031493,101.10328714031493,l,1,0.6846448353608139,101.81168247855385,101.81168247855385,101.81168247855385,,,,,,,,,,,,,,,,,,,,,,,,,,,,116,001,2010-10-16_10h05.20.525,eb_01,2022.2.4,119.97211560041166,
,,,0,0,0,0,30,0,30,0,,,,,,,,,,,,,,,,,,,,,,,,,,,,,,,,,,,,,,,,,,,,,,,,,,,,,,,,,,,116,001,2010-10-16_10h05.20.525,eb_01,2022.2.4,119.97211560041166,
2,stimuli/2.png,s,0,0,0,0,31,0,31,0,0,0,0,0,,,,,,,,,,,,,,,,,,102.82010105918744,102.82010105918744,102.82010105918744,102.82010105918744,s,1,0.5758679594437126,103.41181770709227,103.41181770709227,103.41181770709227,104.4202344766527,104.4202344766527,104.4202344766527,,,,,,,,,,,,,,,,,,,,,,,,,116,001,2010-10-16_10h05.20.525,eb_01,2022.2.4,119.97211560041166,
,,,0,0,0,0,31,0,31,0,,,,,,,,,,,,,,,,,,,,,,,,,,,,,,,,,,,,,,,,,,,,,,,,,,,,,,,,,,,116,001,2010-10-16_10h05.20.525,eb_01,2022.2.4,119.97211560041166,
3,stimuli/3.png,l,0,0,0,0,32,0,32,0,0,0,0,0,,,,,,,,,,,,,,,,,,104.4202344766527,104.4202344766527,104.4202344766527,104.4202344766527,l,1,0.5197384539642371,104.95361660895287,104.95361660895287,104.95361660895287,105.9620674875041,105.9620674875041,105.9620674875041,,,,,,,,,,,,,,,,,,,,,,,,,116,001,2010-10-16_10h05.20.525,eb_01,2022.2.4,119.97211560041166,
,,,0,0,0,0,32,0,32,0,,,,,,,,,,,,,,,,,,,,,,,,,,,,,,,,,,,,,,,,,,,,,,,,,,,,,,,,,,,116,001,2010-10-16_10h05.20.525,eb_01,2022.2.4,119.97211560041166,
8,stimuli/8.png,l,0,0,0,0,33,0,33,0,0,0,0,0,,,,,,,,,,,,,,,,,,105.9620674875041,105.9620674875041,105.9620674875041,105.9620674875041,l,1,0.681951734732138,106.66211035012384,106.66211035012384,106.66211035012384,,,,,,,,,,,,,,,,,,,,,,,,,,,,116,001,2010-10-16_10h05.20.525,eb_01,2022.2.4,119.97211560041166,
,,,0,0,0,0,33,0,33,0,,,,,,,,,,,,,,,,,,,,,,,,,,,,,,,,,,,,,,,,,,,,,,,,,,,,,,,,,,,116,001,2010-10-16_10h05.20.525,eb_01,2022.2.4,119.97211560041166,
9,stimuli/9.png,l,0,0,0,0,34,0,34,0,0,0,0,0,,,,,,,,,,,,,,,,,,107.6788626917114,107.6788626917114,107.6788626917114,107.6788626917114,l,1,0.6051935372524895,108.31226957569015,108.31226957569015,108.31226957569015,,,,,,,,,,,,,,,,,,,,,,,,,,,,116,001,2010-10-16_10h05.20.525,eb_01,2022.2.4,119.97211560041166,
,,,0,0,0,0,34,0,34,0,,,,,,,,,,,,,,,,,,,,,,,,,,,,,,,,,,,,,,,,,,,,,,,,,,,,,,,,,,,116,001,2010-10-16_10h05.20.525,eb_01,2022.2.4,119.97211560041166,
8,stimuli/8.png,l,0,0,0,0,35,0,35,0,0,0,0,0,,,,,,,,,,,,,,,,,,109.312325115985,109.312325115985,109.312325115985,109.312325115985,l,1,0.6597573497274425,109.99570981404395,109.99570981404395,109.99570981404395,,,,,,,,,,,,,,,,,,,,,,,,,,,,116,001,2010-10-16_10h05.20.525,eb_01,2022.2.4,119.97211560041166,
,,,0,0,0,0,35,0,35,0,,,,,,,,,,,,,,,,,,,,,,,,,,,,,,,,,,,,,,,,,,,,,,,,,,,,,,,,,,,116,001,2010-10-16_10h05.20.525,eb_01,2022.2.4,119.97211560041166,
3,stimuli/3.png,l,0,0,0,0,36,0,36,0,0,0,0,0,,,,,,,,,,,,,,,,,,111.00413412982016,111.00413412982016,111.00413412982016,111.00413412982016,l,1,0.5039921764982864,111.52080949980882,111.52080949980882,111.52080949980882,112.52925826539285,112.52925826539285,112.52925826539285,,,,,,,,,,,,,,,,,,,,,,,,,116,001,2010-10-16_10h05.20.525,eb_01,2022.2.4,119.97211560041166,
,,,0,0,0,0,36,0,36,0,,,,,,,,,,,,,,,,,,,,,,,,,,,,,,,,,,,,,,,,,,,,,,,,,,,,,,,,,,,116,001,2010-10-16_10h05.20.525,eb_01,2022.2.4,119.97211560041166,
8,stimuli/8.png,l,0,0,0,0,37,0,37,0,0,0,0,0,,,,,,,,,,,,,,,,,,112.52925826539285,112.52925826539285,112.52925826539285,112.52925826539285,l,1,0.4749159263155889,113.02098276137258,113.02098276137258,113.02098276137258,,,,,,,,,,,,,,,,,,,,,,,,,,,,116,001,2010-10-16_10h05.20.525,eb_01,2022.2.4,119.97211560041166,
,,,0,0,0,0,37,0,37,0,,,,,,,,,,,,,,,,,,,,,,,,,,,,,,,,,,,,,,,,,,,,,,,,,,,,,,,,,,,116,001,2010-10-16_10h05.20.525,eb_01,2022.2.4,119.97211560041166,
9,stimuli/9.png,l,0,0,0,0,38,0,38,0,0,0,0,0,,,,,,,,,,,,,,,,,,114.03769133481546,114.03769133481546,114.03769133481546,114.03769133481546,l,1,0.44556650242884643,114.51275193109177,114.51275193109177,114.51275193109177,,,,,,,,,,,,,,,,,,,,,,,,,,,,116,001,2010-10-16_10h05.20.525,eb_01,2022.2.4,119.97211560041166,
,,,0,0,0,0,38,0,38,0,,,,,,,,,,,,,,,,,,,,,,,,,,,,,,,,,,,,,,,,,,,,,,,,,,,,,,,,,,,116,001,2010-10-16_10h05.20.525,eb_01,2022.2.4,119.97211560041166,
6,stimuli/6.png,s,0,0,0,0,39,0,39,0,0,0,0,0,,,,,,,,,,,,,,,,,,115.52951574296458,115.52951574296458,115.52951574296458,115.52951574296458,s,1,0.7616777158109471,116.32127736642724,116.32127736642724,116.32127736642724,,,,,,,,,,,,,,,,,,,,,,,,,,,,116,001,2010-10-16_10h05.20.525,eb_01,2022.2.4,119.97211560041166,
,,,0,0,0,0,39,0,39,0,,,,,,,,,,,,,,,,,,,,,,,,,,,,,,,,,,,,,,,,,,,,,,,,,,,,,,,,,,,116,001,2010-10-16_10h05.20.525,eb_01,2022.2.4,119.97211560041166,
9,stimuli/9.png,l,0,0,0,0,40,0,40,0,0,0,0,0,,,,,,,,,,,,,,,,,,117.32968508047634,117.32968508047634,117.32968508047634,117.32968508047634,l,1,0.6815596323285718,118.03811573510757,118.03811573510757,118.03811573510757,,,,,,,,,,,,,,,,,,,,,,,,,,,,116,001,2010-10-16_10h05.20.525,eb_01,2022.2.4,119.97211560041166,
,,,0,0,0,0,40,0,40,0,,,,,,,,,,,,,,,,,,,,,,,,,,,,,,,,,,,,,,,,,,,,,,,,,,,,,,,,,,,116,001,2010-10-16_10h05.20.525,eb_01,2022.2.4,119.97211560041166,
5,stimuli/5.png,s,0,0,0,0,41,0,41,0,0,0,0,0,,,,,,,,,,,,,,,,,,119.03811905544717,119.03811905544717,119.03811905544717,119.03811905544717,s,1,0.9731950827408582,120.02990754353232,120.02990754353232,120.02990754353232,,,,,,,,,,,,,,,,,,,,,,,,,,,,116,001,2010-10-16_10h05.20.525,eb_01,2022.2.4,119.97211560041166,
,,,0,0,0,0,41,0,41,0,,,,,,,,,,,,,,,,,,,,,,,,,,,,,,,,,,,,,,,,,,,,,,,,,,,,,,,,,,,116,001,2010-10-16_10h05.20.525,eb_01,2022.2.4,119.97211560041166,
9,stimuli/9.png,l,0,0,0,0,42,0,42,0,0,0,0,0,,,,,,,,,,,,,,,,,,121.04663996305317,121.04663996305317,121.04663996305317,121.04663996305317,l,1,0.6287000617012382,121.70505748721189,121.70505748721189,121.70505748721189,,,,,,,,,,,,,,,,,,,,,,,,,,,,116,001,2010-10-16_10h05.20.525,eb_01,2022.2.4,119.97211560041166,
,,,0,0,0,0,42,0,42,0,,,,,,,,,,,,,,,,,,,,,,,,,,,,,,,,,,,,,,,,,,,,,,,,,,,,,,,,,,,116,001,2010-10-16_10h05.20.525,eb_01,2022.2.4,119.97211560041166,
8,stimuli/8.png,l,0,0,0,0,43,0,43,0,0,0,0,0,,,,,,,,,,,,,,,,,,122.70514592909603,122.70514592909603,122.70514592909603,122.70514592909603,l,1,0.6662446976988576,123.38851462912862,123.38851462912862,123.38851462912862,,,,,,,,,,,,,,,,,,,,,,,,,,,,116,001,2010-10-16_10h05.20.525,eb_01,2022.2.4,119.97211560041166,
,,,0,0,0,0,43,0,43,0,,,,,,,,,,,,,,,,,,,,,,,,,,,,,,,,,,,,,,,,,,,,,,,,,,,,,,,,,,,116,001,2010-10-16_10h05.20.525,eb_01,2022.2.4,119.97211560041166,
3,stimuli/3.png,l,0,0,0,0,44,0,44,0,0,0,0,0,,,,,,,,,,,,,,,,,,124.39693803936825,124.39693803936825,124.39693803936825,124.39693803936825,l,1,0.5344702154397964,124.94695539571694,124.94695539571694,124.94695539571694,125.96374275183189,125.96374275183189,125.96374275183189,,,,,,,,,,,,,,,,,,,,,,,,,116,001,2010-10-16_10h05.20.525,eb_01,2022.2.4,119.97211560041166,
,,,0,0,0,0,44,0,44,0,,,,,,,,,,,,,,,,,,,,,,,,,,,,,,,,,,,,,,,,,,,,,,,,,,,,,,,,,,,116,001,2010-10-16_10h05.20.525,eb_01,2022.2.4,119.97211560041166,
4,stimuli/4.png,l,0,0,0,0,45,0,45,0,0,0,0,0,,,,,,,,,,,,,,,,,,125.96374275183189,125.96374275183189,125.96374275183189,125.96374275183189,l,1,0.9676757658889983,126.95548777357908,126.95548777357908,126.95548777357908,,,,,,,,,,,,,,,,,,,,,,,,,,,,116,001,2010-10-16_10h05.20.525,eb_01,2022.2.4,119.97211560041166,
,,,0,0,0,0,45,0,45,0,,,,,,,,,,,,,,,,,,,,,,,,,,,,,,,,,,,,,,,,,,,,,,,,,,,,,,,,,,,116,001,2010-10-16_10h05.20.525,eb_01,2022.2.4,119.97211560041166,
2,stimuli/2.png,s,0,0,0,0,46,0,46,0,0,0,0,0,,,,,,,,,,,,,,,,,,127.96391239122022,127.96391239122022,127.96391239122022,127.96391239122022,s,1,0.5995746100670658,128.57229897583602,128.57229897583602,128.57229897583602,129.59738477651263,129.59738477651263,129.59738477651263,,,,,,,,,,,,,,,,,,,,,,,,,116,001,2010-10-16_10h05.20.525,eb_01,2022.2.4,119.97211560041166,
,,,0,0,0,0,46,0,46,0,,,,,,,,,,,,,,,,,,,,,,,,,,,,,,,,,,,,,,,,,,,,,,,,,,,,,,,,,,,116,001,2010-10-16_10h05.20.525,eb_01,2022.2.4,119.97211560041166,
1,stimuli/1.png,s,0,0,0,0,47,0,47,0,0,0,0,0,,,,,,,,,,,,,,,,,,129.59738477651263,129.59738477651263,129.59738477651263,129.59738477651263,s,1,0.5571858944022097,130.18074955249904,130.18074955249904,130.18074955249904,,,,,,,,,,,,,,,,,,,,,,,,,,,,116,001,2010-10-16_10h05.20.525,eb_01,2022.2.4,119.97211560041166,
,,,0,0,0,0,47,0,47,0,,,,,,,,,,,,,,,,,,,,,,,,,,,,,,,,,,,,,,,,,,,,,,,,,,,,,,,,,,,116,001,2010-10-16_10h05.20.525,eb_01,2022.2.4,119.97211560041166,
4,stimuli/4.png,l,0,0,0,0,48,0,48,0,0,0,0,0,,,,,,,,,,,,,,,,,,131.18920043105027,131.18920043105027,131.18920043105027,131.18920043105027,l,1,0.445310835930286,131.65589738325798,131.65589738325798,131.65589738325798,,,,,,,,,,,,,,,,,,,,,,,,,,,,116,001,2010-10-16_10h05.20.525,eb_01,2022.2.4,119.97211560041166,
,,,0,0,0,0,48,0,48,0,,,,,,,,,,,,,,,,,,,,,,,,,,,,,,,,,,,,,,,,,,,,,,,,,,,,,,,,,,,116,001,2010-10-16_10h05.20.525,eb_01,2022.2.4,119.97211560041166,
1,stimuli/1.png,s,0,0,0,0,49,0,49,0,0,0,0,0,,,,,,,,,,,,,,,,,,132.6809822784271,132.6809822784271,132.6809822784271,132.6809822784271,s,1,0.473567866749363,133.18102212253143,133.18102212253143,133.18102212253143,,,,,,,,,,,,,,,,,,,,,,,,,,,,116,001,2010-10-16_10h05.20.525,eb_01,2022.2.4,119.97211560041166,
,,,0,0,0,0,49,0,49,0,,,,,,,,,,,,,,,,,,,,,,,,,,,,,,,,,,,,,,,,,,,,,,,,,,,,,,,,,,,116,001,2010-10-16_10h05.20.525,eb_01,2022.2.4,119.97211560041166,
2,stimuli/2.png,s,0,0,0,0,50,0,50,0,0,0,0,0,,,,,,,,,,,,,,,,,,134.18109124607872,134.18109124607872,134.18109124607872,134.18109124607872,s,1,0.5574931771261618,134.74782985349884,134.74782985349884,134.74782985349884,135.76456046194653,135.76456046194653,135.76456046194653,,,,,,,,,,,,,,,,,,,,,,,,,116,001,2010-10-16_10h05.20.525,eb_01,2022.2.4,119.97211560041166,
,,,0,0,0,0,50,0,50,0,,,,,,,,,,,,,,,,,,,,,,,,,,,,,,,,,,,,,,,,,,,,,,,,,,,,,,,,,,,116,001,2010-10-16_10h05.20.525,eb_01,2022.2.4,119.97211560041166,
4,stimuli/4.png,l,0,0,0,0,51,0,51,0,0,0,0,0,,,,,,,,,,,,,,,,,,135.76456046194653,135.76456046194653,135.76456046194653,135.76456046194653,l,1,0.5660672102530953,136.34794817850343,136.34794817850343,136.34794817850343,,,,,,,,,,,,,,,,,,,,,,,,,,,,116,001,2010-10-16_10h05.20.525,eb_01,2022.2.4,119.97211560041166,
,,,0,0,0,0,51,0,51,0,,,,,,,,,,,,,,,,,,,,,,,,,,,,,,,,,,,,,,,,,,,,,,,,,,,,,,,,,,,116,001,2010-10-16_10h05.20.525,eb_01,2022.2.4,119.97211560041166,
3,stimuli/3.png,l,0,0,0,0,52,0,52,0,0,0,0,0,,,,,,,,,,,,,,,,,,137.35639483112027,137.35639483112027,137.35639483112027,137.35639483112027,l,1,0.5102525337133557,137.88143988215597,137.88143988215597,137.88143988215597,138.88986963123898,138.88986963123898,138.88986963123898,,,,,,,,,,,,,,,,,,,,,,,,,116,001,2010-10-16_10h05.20.525,eb_01,2022.2.4,119.97211560041166,
,,,0,0,0,0,52,0,52,0,,,,,,,,,,,,,,,,,,,,,,,,,,,,,,,,,,,,,,,,,,,,,,,,,,,,,,,,,,,116,001,2010-10-16_10h05.20.525,eb_01,2022.2.4,119.97211560041166,
2,stimuli/2.png,s,0,0,0,0,53,0,53,0,0,0,0,0,,,,,,,,,,,,,,,,,,138.88986963123898,138.88986963123898,138.88986963123898,138.88986963123898,s,1,0.5128049725026358,139.4148709141009,139.4148709141009,139.4148709141009,140.43163502780953,140.43163502780953,140.43163502780953,,,,,,,,,,,,,,,,,,,,,,,,,116,001,2010-10-16_10h05.20.525,eb_01,2022.2.4,119.97211560041166,
,,,0,0,0,0,53,0,53,0,,,,,,,,,,,,,,,,,,,,,,,,,,,,,,,,,,,,,,,,,,,,,,,,,,,,,,,,,,,116,001,2010-10-16_10h05.20.525,eb_01,2022.2.4,119.97211560041166,
4,stimuli/4.png,l,0,0,0,0,54,0,54,0,0,0,0,0,,,,,,,,,,,,,,,,,,140.43163502780953,140.43163502780953,140.43163502780953,140.43163502780953,l,1,0.4670630115142558,140.9233522794093,140.9233522794093,140.9233522794093,,,,,,,,,,,,,,,,,,,,,,,,,,,,116,001,2010-10-16_10h05.20.525,eb_01,2022.2.4,119.97211560041166,
,,,0,0,0,0,54,0,54,0,,,,,,,,,,,,,,,,,,,,,,,,,,,,,,,,,,,,,,,,,,,,,,,,,,,,,,,,,,,116,001,2010-10-16_10h05.20.525,eb_01,2022.2.4,119.97211560041166,
1,stimuli/1.png,s,0,0,0,0,55,0,55,0,0,0,0,0,,,,,,,,,,,,,,,,,,141.94843989121728,141.94843989121728,141.94843989121728,141.94843989121728,s,1,0.4303185783792287,142.40682511750492,142.40682511750492,142.40682511750492,,,,,,,,,,,,,,,,,,,,,,,,,,,,116,001,2010-10-16_10h05.20.525,eb_01,2022.2.4,119.97211560041166,
,,,0,0,0,0,55,0,55,0,,,,,,,,,,,,,,,,,,,,,,,,,,,,,,,,,,,,,,,,,,,,,,,,,,,,,,,,,,,116,001,2010-10-16_10h05.20.525,eb_01,2022.2.4,119.97211560041166,
2,stimuli/2.png,s,0,0,0,0,56,0,56,0,0,0,0,0,,,,,,,,,,,,,,,,,,143.40693197218934,143.40693197218934,143.40693197218934,143.40693197218934,s,1,0.4038391388603486,143.82360130519373,143.82360130519373,143.82360130519373,144.8403678337054,144.8403678337054,144.8403678337054,,,,,,,,,,,,,,,,,,,,,,,,,116,001,2010-10-16_10h05.20.525,eb_01,2022.2.4,119.97211560041166,
,,,0,0,0,0,56,0,56,0,,,,,,,,,,,,,,,,,,,,,,,,,,,,,,,,,,,,,,,,,,,,,,,,,,,,,,,,,,,116,001,2010-10-16_10h05.20.525,eb_01,2022.2.4,119.97211560041166,
4,stimuli/4.png,l,0,0,0,0,57,0,57,0,0,0,0,0,,,,,,,,,,,,,,,,,,144.8403678337054,144.8403678337054,144.8403678337054,144.8403678337054,l,1,0.5055147050297819,145.3654119792045,145.3654119792045,145.3654119792045,,,,,,,,,,,,,,,,,,,,,,,,,,,,116,001,2010-10-16_10h05.20.525,eb_01,2022.2.4,119.97211560041166,
,,,0,0,0,0,57,0,57,0,,,,,,,,,,,,,,,,,,,,,,,,,,,,,,,,,,,,,,,,,,,,,,,,,,,,,,,,,,,116,001,2010-10-16_10h05.20.525,eb_01,2022.2.4,119.97211560041166,
3,stimuli/3.png,l,0,0,0,0,58,0,58,0,0,0,0,0,,,,,,,,,,,,,,,,,,146.37380007305183,146.37380007305183,146.37380007305183,146.37380007305183,l,1,0.5240449397824705,146.91555671600509,146.91555671600509,146.91555671600509,,,,,,,,,,,,,,,,,,,,,,,,,,,,116,001,2010-10-16_10h05.20.525,eb_01,2022.2.4,119.97211560041166,
,,,0,0,0,0,58,0,58,0,,,,,,,,,,,,,,,,,,,,,,,,,,,,,,,,,,,,,,,,,,,,,,,,,,,,,,,,,,,116,001,2010-10-16_10h05.20.525,eb_01,2022.2.4,119.97211560041166,
2,stimuli/2.png,s,0,0,0,0,59,0,59,0,0,0,0,0,,,,,,,,,,,,,,,,,,147.92396805225872,147.92396805225872,147.92396805225872,147.92396805225872,s,1,0.5339015311328694,148.47399476592545,148.47399476592545,148.47399476592545,149.48238618011237,149.48238618011237,149.48238618011237,,,,,,,,,,,,,,,,,,,,,,,,,116,001,2010-10-16_10h05.20.525,eb_01,2022.2.4,119.97211560041166,
,,,0,0,0,0,59,0,59,0,,,,,,,,,,,,,,,,,,,,,,,,,,,,,,,,,,,,,,,,,,,,,,,,,,,,,,,,,,,116,001,2010-10-16_10h05.20.525,eb_01,2022.2.4,119.97211560041166,
3,stimuli/3.png,l,0,0,0,0,60,0,60,0,0,0,0,0,,,,,,,,,,,,,,,,,,149.48238618011237,149.48238618011237,149.48238618011237,149.48238618011237,l,1,0.44748083149897866,149.94075872874237,149.94075872874237,149.94075872874237,150.94918032787973,150.94918032787973,150.94918032787973,,,,,,,,,,,,,,,,,,,,,,,,,116,001,2010-10-16_10h05.20.525,eb_01,2022.2.4,119.97211560041166,
,,,0,0,0,0,60,0,60,0,,,,,,,,,,,,,,,,,,,,,,,,,,,,,,,,,,,,,,,,,,,,,,,,,,,,,,,,,,,116,001,2010-10-16_10h05.20.525,eb_01,2022.2.4,119.97211560041166,
8,stimuli/8.png,l,0,0,0,0,61,0,61,0,0,0,0,0,,,,,,,,,,,,,,,,,,150.94918032787973,150.94918032787973,150.94918032787973,150.94918032787973,l,1,0.5887412340089213,151.5575599699223,151.5575599699223,151.5575599699223,,,,,,,,,,,,,,,,,,,,,,,,,,,,116,001,2010-10-16_10h05.20.525,eb_01,2022.2.4,119.97211560041166,
,,,0,0,0,0,61,0,61,0,,,,,,,,,,,,,,,,,,,,,,,,,,,,,,,,,,,,,,,,,,,,,,,,,,,,,,,,,,,116,001,2010-10-16_10h05.20.525,eb_01,2022.2.4,119.97211560041166,
6,stimuli/6.png,s,0,0,0,0,62,0,62,0,0,0,0,0,,,,,,,,,,,,,,,,,,152.58269678318175,152.58269678318175,152.58269678318175,152.58269678318175,s,1,0.5312627633975353,153.14106389851077,153.14106389851077,153.14106389851077,,,,,,,,,,,,,,,,,,,,,,,,,,,,116,001,2010-10-16_10h05.20.525,eb_01,2022.2.4,119.97211560041166,
,,,0,0,0,0,62,0,62,0,,,,,,,,,,,,,,,,,,,,,,,,,,,,,,,,,,,,,,,,,,,,,,,,,,,,,,,,,,,116,001,2010-10-16_10h05.20.525,eb_01,2022.2.4,119.97211560041166,
8,stimuli/8.png,l,0,0,0,0,63,0,63,0,0,0,0,0,,,,,,,,,,,,,,,,,,154.14113090909086,154.14113090909086,154.14113090909086,154.14113090909086,l,1,0.4128339500457514,154.57448587496765,154.57448587496765,154.57448587496765,,,,,,,,,,,,,,,,,,,,,,,,,,,,116,001,2010-10-16_10h05.20.525,eb_01,2022.2.4,119.97211560041166,
,,,0,0,0,0,63,0,63,0,,,,,,,,,,,,,,,,,,,,,,,,,,,,,,,,,,,,,,,,,,,,,,,,,,,,,,,,,,,116,001,2010-10-16_10h05.20.525,eb_01,2022.2.4,119.97211560041166,
3,stimuli/3.png,l,0,0,0,0,64,0,64,0,0,0,0,0,,,,,,,,,,,,,,,,,,155.58294218676747,155.58294218676747,155.58294218676747,155.58294218676747,l,1,0.5550599688722286,156.1496678146941,156.1496678146941,156.1496678146941,157.15805651224218,157.15805651224218,157.15805651224218,,,,,,,,,,,,,,,,,,,,,,,,,116,001,2010-10-16_10h05.20.525,eb_01,2022.2.4,119.97211560041166,
,,,0,0,0,0,64,0,64,0,,,,,,,,,,,,,,,,,,,,,,,,,,,,,,,,,,,,,,,,,,,,,,,,,,,,,,,,,,,116,001,2010-10-16_10h05.20.525,eb_01,2022.2.4,119.97211560041166,
8,stimuli/8.png,l,0,0,0,0,65,0,65,0,0,0,0,0,,,,,,,,,,,,,,,,,,157.15805651224218,157.15805651224218,157.15805651224218,157.15805651224218,s,0,0.5640010508941486,157.74142702337122,157.74142702337122,157.74142702337122,,,,,,,,,,,,,,,,,,,,,,,,,,,,116,001,2010-10-16_10h05.20.525,eb_01,2022.2.4,119.97211560041166,
,,,0,0,0,0,65,0,65,0,,,,,,,,,,,,,,,,,,,,,,,,,,,,,,,,,,,,,,,,,,,,,,,,,,,,,,,,,,,116,001,2010-10-16_10h05.20.525,eb_01,2022.2.4,119.97211560041166,
3,stimuli/3.png,l,0,0,0,0,66,0,66,0,0,0,0,0,,,,,,,,,,,,,,,,,,158.74985858352738,158.74985858352738,158.74985858352738,158.74985858352738,l,1,0.44423896860098466,159.2165962854342,159.2165962854342,159.2165962854342,,,,,,,,,,,,,,,,,,,,,,,,,,,,116,001,2010-10-16_10h05.20.525,eb_01,2022.2.4,119.97211560041166,
,,,0,0,0,0,66,0,66,0,,,,,,,,,,,,,,,,,,,,,,,,,,,,,,,,,,,,,,,,,,,,,,,,,,,,,,,,,,,116,001,2010-10-16_10h05.20.525,eb_01,2022.2.4,119.97211560041166,
8,stimuli/8.png,l,0,0,0,0,67,0,67,0,0,0,0,0,,,,,,,,,,,,,,,,,,160.22499041628907,160.22499041628907,160.22499041628907,160.22499041628907,l,1,0.5211390353215393,160.76672291127034,160.76672291127034,160.76672291127034,,,,,,,,,,,,,,,,,,,,,,,,,,,,116,001,2010-10-16_10h05.20.525,eb_01,2022.2.4,119.97211560041166,
,,,0,0,0,0,67,0,67,0,,,,,,,,,,,,,,,,,,,,,,,,,,,,,,,,,,,,,,,,,,,,,,,,,,,,,,,,,,,116,001,2010-10-16_10h05.20.525,eb_01,2022.2.4,119.97211560041166,
6,stimuli/6.png,s,0,0,0,0,68,0,68,0,0,0,0,0,,,,,,,,,,,,,,,,,,161.7918168619217,161.7918168619217,161.7918168619217,161.7918168619217,s,1,0.48943307288573124,162.30849193004542,162.30849193004542,162.30849193004542,,,,,,,,,,,,,,,,,,,,,,,,,,,,116,001,2010-10-16_10h05.20.525,eb_01,2022.2.4,119.97211560041166,
,,,0,0,0,0,68,0,68,0,,,,,,,,,,,,,,,,,,,,,,,,,,,,,,,,,,,,,,,,,,,,,,,,,,,,,,,,,,,116,001,2010-10-16_10h05.20.525,eb_01,2022.2.4,119.97211560041166,
9,stimuli/9.png,l,0,0,0,0,69,0,69,0,0,0,0,0,,,,,,,,,,,,,,,,,,163.31693586605252,163.31693586605252,163.31693586605252,163.31693586605252,l,1,0.6842551477311645,164.03364443947794,164.03364443947794,164.03364443947794,,,,,,,,,,,,,,,,,,,,,,,,,,,,116,001,2010-10-16_10h05.20.525,eb_01,2022.2.4,119.97211560041166,
,,,0,0,0,0,69,0,69,0,,,,,,,,,,,,,,,,,,,,,,,,,,,,,,,,,,,,,,,,,,,,,,,,,,,,,,,,,,,116,001,2010-10-16_10h05.20.525,eb_01,2022.2.4,119.97211560041166,
5,stimuli/5.png,s,0,0,0,0,70,0,70,0,0,0,0,0,,,,,,,,,,,,,,,,,,165.0337515960273,165.0337515960273,165.0337515960273,165.0337515960273,s,1,0.7834953927376773,165.83382222880027,165.83382222880027,165.83382222880027,,,,,,,,,,,,,,,,,,,,,,,,,,,,116,001,2010-10-16_10h05.20.525,eb_01,2022.2.4,119.97211560041166,
,,,0,0,0,0,70,0,70,0,,,,,,,,,,,,,,,,,,,,,,,,,,,,,,,,,,,,,,,,,,,,,,,,,,,,,,,,,,,116,001,2010-10-16_10h05.20.525,eb_01,2022.2.4,119.97211560041166,
6,stimuli/6.png,s,0,0,0,0,71,0,71,0,0,0,0,0,,,,,,,,,,,,,,,,,,166.8589116516814,166.8589116516814,166.8589116516814,166.8589116516814,s,1,0.6463338036555797,167.53394266671967,167.53394266671967,167.53394266671967,,,,,,,,,,,,,,,,,,,,,,,,,,,,116,001,2010-10-16_10h05.20.525,eb_01,2022.2.4,119.97211560041166,
,,,0,0,0,0,71,0,71,0,,,,,,,,,,,,,,,,,,,,,,,,,,,,,,,,,,,,,,,,,,,,,,,,,,,,,,,,,,,116,001,2010-10-16_10h05.20.525,eb_01,2022.2.4,119.97211560041166,
5,stimuli/5.png,s,0,0,0,0,72,0,72,0,0,0,0,0,,,,,,,,,,,,,,,,,,168.53404831403168,168.53404831403168,168.53404831403168,168.53404831403168,s,1,0.5072246820782311,169.05908430955606,169.05908430955606,169.05908430955606,,,,,,,,,,,,,,,,,,,,,,,,,,,,116,001,2010-10-16_10h05.20.525,eb_01,2022.2.4,119.97211560041166,
,,,0,0,0,0,72,0,72,0,,,,,,,,,,,,,,,,,,,,,,,,,,,,,,,,,,,,,,,,,,,,,,,,,,,,,,,,,,,116,001,2010-10-16_10h05.20.525,eb_01,2022.2.4,119.97211560041166,
9,stimuli/9.png,l,0,0,0,0,73,0,73,0,0,0,0,0,,,,,,,,,,,,,,,,,,170.07584661219153,170.07584661219153,170.07584661219153,170.07584661219153,l,1,0.5094408605946228,170.61752598168096,170.61752598168096,170.61752598168096,,,,,,,,,,,,,,,,,,,,,,,,,,,,116,001,2010-10-16_10h05.20.525,eb_01,2022.2.4,119.97211560041166,
,,,0,0,0,0,73,0,73,0,,,,,,,,,,,,,,,,,,,,,,,,,,,,,,,,,,,,,,,,,,,,,,,,,,,,,,,,,,,116,001,2010-10-16_10h05.20.525,eb_01,2022.2.4,119.97211560041166,
5,stimuli/5.png,s,0,0,0,0,74,0,74,0,0,0,0,0,,,,,,,,,,,,,,,,,,171.61762589385035,171.61762589385035,171.61762589385035,171.61762589385035,s,1,0.9837275149184279,172.62603028755984,172.62603028755984,172.62603028755984,,,,,,,,,,,,,,,,,,,,,,,,,,,,116,001,2010-10-16_10h05.20.525,eb_01,2022.2.4,119.97211560041166,
,,,0,0,0,0,74,0,74,0,,,,,,,,,,,,,,,,,,,,,,,,,,,,,,,,,,,,,,,,,,,,,,,,,,,,,,,,,,,116,001,2010-10-16_10h05.20.525,eb_01,2022.2.4,119.97211560041166,
9,stimuli/9.png,l,0,0,0,0,75,0,75,0,0,0,0,0,,,,,,,,,,,,,,,,,,173.64281643630238,173.64281643630238,173.64281643630238,173.64281643630238,l,1,0.5345843145623803,174.20953391428338,174.20953391428338,174.20953391428338,,,,,,,,,,,,,,,,,,,,,,,,,,,,116,001,2010-10-16_10h05.20.525,eb_01,2022.2.4,119.97211560041166,
,,,0,0,0,0,75,0,75,0,,,,,,,,,,,,,,,,,,,,,,,,,,,,,,,,,,,,,,,,,,,,,,,,,,,,,,,,,,,116,001,2010-10-16_10h05.20.525,eb_01,2022.2.4,119.97211560041166,
5,stimuli/5.png,s,0,0,0,0,76,0,76,0,0,0,0,0,,,,,,,,,,,,,,,,,,175.20963986343122,175.20963986343122,175.20963986343122,175.20963986343122,s,1,0.6877795417094603,175.91799716863898,175.91799716863898,175.91799716863898,,,,,,,,,,,,,,,,,,,,,,,,,,,,116,001,2010-10-16_10h05.20.525,eb_01,2022.2.4,119.97211560041166,
,,,0,0,0,0,76,0,76,0,,,,,,,,,,,,,,,,,,,,,,,,,,,,,,,,,,,,,,,,,,,,,,,,,,,,,,,,,,,116,001,2010-10-16_10h05.20.525,eb_01,2022.2.4,119.97211560041166,
9,stimuli/9.png,l,0,0,0,0,77,0,77,0,0,0,0,0,,,,,,,,,,,,,,,,,,176.93477245079703,176.93477245079703,176.93477245079703,176.93477245079703,l,1,0.42573831509798765,177.3931217569916,177.3931217569916,177.3931217569916,,,,,,,,,,,,,,,,,,,,,,,,,,,,116,001,2010-10-16_10h05.20.525,eb_01,2022.2.4,119.97211560041166,
,,,0,0,0,0,77,0,77,0,,,,,,,,,,,,,,,,,,,,,,,,,,,,,,,,,,,,,,,,,,,,,,,,,,,,,,,,,,,116,001,2010-10-16_10h05.20.525,eb_01,2022.2.4,119.97211560041166,
5,stimuli/5.png,s,0,0,0,0,78,0,78,0,0,0,0,0,,,,,,,,,,,,,,,,,,178.39322559320135,178.39322559320135,178.39322559320135,178.39322559320135,s,1,0.48724315527942963,178.90161368704867,178.90161368704867,178.90161368704867,,,,,,,,,,,,,,,,,,,,,,,,,,,,116,001,2010-10-16_10h05.20.525,eb_01,2022.2.4,119.97211560041166,
,,,0,0,0,0,78,0,78,0,,,,,,,,,,,,,,,,,,,,,,,,,,,,,,,,,,,,,,,,,,,,,,,,,,,,,,,,,,,116,001,2010-10-16_10h05.20.525,eb_01,2022.2.4,119.97211560041166,
9,stimuli/9.png,l,0,0,0,0,79,0,79,0,0,0,0,0,,,,,,,,,,,,,,,,,,179.91835304914275,179.91835304914275,179.91835304914275,179.91835304914275,l,1,0.43415599019499496,180.38507475302322,180.38507475302322,180.38507475302322,,,,,,,,,,,,,,,,,,,,,,,,,,,,116,001,2010-10-16_10h05.20.525,eb_01,2022.2.4,119.97211560041166,
,,,0,0,0,0,79,0,79,0,,,,,,,,,,,,,,,,,,,,,,,,,,,,,,,,,,,,,,,,,,,,,,,,,,,,,,,,,,,116,001,2010-10-16_10h05.20.525,eb_01,2022.2.4,119.97211560041166,
6,stimuli/6.png,s,0,0,0,0,80,0,80,0,0,0,0,0,,,,,,,,,,,,,,,,,,181.4017966078245,181.4017966078245,181.4017966078245,181.4017966078245,s,1,0.5027319551445544,181.935161232861,181.935161232861,181.935161232861,,,,,,,,,,,,,,,,,,,,,,,,,,,,116,001,2010-10-16_10h05.20.525,eb_01,2022.2.4,119.97211560041166,
,,,0,0,0,0,80,0,80,0,,,,,,,,,,,,,,,,,,,,,,,,,,,,,,,,,,,,,,,,,,,,,,,,,,,,,,,,,,,116,001,2010-10-16_10h05.20.525,eb_01,2022.2.4,119.97211560041166,
8,stimuli/8.png,l,0,0,0,0,81,0,81,0,0,0,0,0,,,,,,,,,,,,,,,,,,182.93526325796847,182.93526325796847,182.93526325796847,182.93526325796847,l,1,0.5452999693516176,183.50199371550116,183.50199371550116,183.50199371550116,,,,,,,,,,,,,,,,,,,,,,,,,,,,116,001,2010-10-16_10h05.20.525,eb_01,2022.2.4,119.97211560041166,
,,,0,0,0,0,81,0,81,0,,,,,,,,,,,,,,,,,,,,,,,,,,,,,,,,,,,,,,,,,,,,,,,,,,,,,,,,,,,116,001,2010-10-16_10h05.20.525,eb_01,2022.2.4,119.97211560041166,
9,stimuli/9.png,l,0,0,0,0,82,0,82,0,0,0,0,0,,,,,,,,,,,,,,,,,,184.5187490755925,184.5187490755925,184.5187490755925,184.5187490755925,l,1,0.8578511705854908,185.4021570160403,185.4021570160403,185.4021570160403,,,,,,,,,,,,,,,,,,,,,,,,,,,,116,001,2010-10-16_10h05.20.525,eb_01,2022.2.4,119.97211560041166,
,,,0,0,0,0,82,0,82,0,,,,,,,,,,,,,,,,,,,,,,,,,,,,,,,,,,,,,,,,,,,,,,,,,,,,,,,,,,,116,001,2010-10-16_10h05.20.525,eb_01,2022.2.4,119.97211560041166,
5,stimuli/5.png,s,0,0,0,0,83,0,83,0,0,0,0,0,,,,,,,,,,,,,,,,,,186.40222583769355,186.40222583769355,186.40222583769355,186.40222583769355,s,1,0.5664131296798587,186.98560993204592,186.98560993204592,186.98560993204592,,,,,,,,,,,,,,,,,,,,,,,,,,,,116,001,2010-10-16_10h05.20.525,eb_01,2022.2.4,119.97211560041166,
,,,0,0,0,0,83,0,83,0,,,,,,,,,,,,,,,,,,,,,,,,,,,,,,,,,,,,,,,,,,,,,,,,,,,,,,,,,,,116,001,2010-10-16_10h05.20.525,eb_01,2022.2.4,119.97211560041166,
9,stimuli/9.png,l,0,0,0,0,84,0,84,0,0,0,0,0,,,,,,,,,,,,,,,,,,188.00236106626107,188.00236106626107,188.00236106626107,188.00236106626107,l,1,0.5503345160395838,188.58579768240452,188.58579768240452,188.58579768240452,,,,,,,,,,,,,,,,,,,,,,,,,,,,116,001,2010-10-16_10h05.20.525,eb_01,2022.2.4,119.97211560041166,
,,,0,0,0,0,84,0,84,0,,,,,,,,,,,,,,,,,,,,,,,,,,,,,,,,,,,,,,,,,,,,,,,,,,,,,,,,,,,116,001,2010-10-16_10h05.20.525,eb_01,2022.2.4,119.97211560041166,
8,stimuli/8.png,l,0,0,0,0,85,0,85,0,0,0,0,0,,,,,,,,,,,,,,,,,,189.58584869495826,189.58584869495826,189.58584869495826,189.58584869495826,l,1,0.5188277742126957,190.12755855123396,190.12755855123396,190.12755855123396,,,,,,,,,,,,,,,,,,,,,,,,,,,,116,001,2010-10-16_10h05.20.525,eb_01,2022.2.4,119.97211560041166,
,,,0,0,0,0,85,0,85,0,,,,,,,,,,,,,,,,,,,,,,,,,,,,,,,,,,,,,,,,,,,,,,,,,,,,,,,,,,,116,001,2010-10-16_10h05.20.525,eb_01,2022.2.4,119.97211560041166,
6,stimuli/6.png,s,0,0,0,0,86,0,86,0,0,0,0,0,,,,,,,,,,,,,,,,,,191.15267302765278,191.15267302765278,191.15267302765278,191.15267302765278,s,1,0.48804909325554036,191.6693414550973,191.6693414550973,191.6693414550973,,,,,,,,,,,,,,,,,,,,,,,,,,,,116,001,2010-10-16_10h05.20.525,eb_01,2022.2.4,119.97211560041166,
,,,0,0,0,0,86,0,86,0,,,,,,,,,,,,,,,,,,,,,,,,,,,,,,,,,,,,,,,,,,,,,,,,,,,,,,,,,,,116,001,2010-10-16_10h05.20.525,eb_01,2022.2.4,119.97211560041166,
8,stimuli/8.png,l,0,0,0,0,87,0,87,0,0,0,0,0,,,,,,,,,,,,,,,,,,192.66942899144487,192.66942899144487,192.66942899144487,192.66942899144487,l,1,0.43435973857413046,193.12779912524275,193.12779912524275,193.12779912524275,,,,,,,,,,,,,,,,,,,,,,,,,,,,116,001,2010-10-16_10h05.20.525,eb_01,2022.2.4,119.97211560041166,
,,,0,0,0,0,87,0,87,0,,,,,,,,,,,,,,,,,,,,,,,,,,,,,,,,,,,,,,,,,,,,,,,,,,,,,,,,,,,116,001,2010-10-16_10h05.20.525,eb_01,2022.2.4,119.97211560041166,
3,stimuli/3.png,l,0,0,0,0,88,0,88,0,0,0,0,0,,,,,,,,,,,,,,,,,,194.1362403445819,194.1362403445819,194.1362403445819,194.1362403445819,l,1,0.46352443064097315,194.61129158354015,194.61129158354015,194.61129158354015,195.6196986938885,195.6196986938885,195.6196986938885,,,,,,,,,,,,,,,,,,,,,,,,,116,001,2010-10-16_10h05.20.525,eb_01,2022.2.4,119.97211560041166,
,,,0,0,0,0,88,0,88,0,,,,,,,,,,,,,,,,,,,,,,,,,,,,,,,,,,,,,,,,,,,,,,,,,,,,,,,,,,,116,001,2010-10-16_10h05.20.525,eb_01,2022.2.4,119.97211560041166,
2,stimuli/2.png,s,0,0,0,0,89,0,89,0,0,0,0,0,,,,,,,,,,,,,,,,,,195.6196986938885,195.6196986938885,195.6196986938885,195.6196986938885,s,1,0.5961317154869903,196.22805388615234,196.22805388615234,196.22805388615234,197.23651804606197,197.23651804606197,197.23651804606197,,,,,,,,,,,,,,,,,,,,,,,,,116,001,2010-10-16_10h05.20.525,eb_01,2022.2.4,119.97211560041166,
,,,0,0,0,0,89,0,89,0,,,,,,,,,,,,,,,,,,,,,,,,,,,,,,,,,,,,,,,,,,,,,,,,,,,,,,,,,,,116,001,2010-10-16_10h05.20.525,eb_01,2022.2.4,119.97211560041166,
3,stimuli/3.png,l,0,0,0,0,90,0,90,0,0,0,0,0,,,,,,,,,,,,,,,,,,197.23651804606197,197.23651804606197,197.23651804606197,197.23651804606197,l,1,0.6113554915646091,197.861549815716,197.861549815716,197.861549815716,198.87831121281488,198.87831121281488,198.87831121281488,,,,,,,,,,,,,,,,,,,,,,,,,116,001,2010-10-16_10h05.20.525,eb_01,2022.2.4,119.97211560041166,
,,,0,0,0,0,90,0,90,0,,,,,,,,,,,,,,,,,,,,,,,,,,,,,,,,,,,,,,,,,,,,,,,,,,,,,,,,,,,116,001,2010-10-16_10h05.20.525,eb_01,2022.2.4,119.97211560041166,
4,stimuli/4.png,l,0,0,0,0,91,0,91,0,0,0,0,0,,,,,,,,,,,,,,,,,,198.87831121281488,198.87831121281488,198.87831121281488,198.87831121281488,l,1,0.6255801460065413,199.52838018539478,199.52838018539478,199.52838018539478,,,,,,,,,,,,,,,,,,,,,,,,,,,,116,001,2010-10-16_10h05.20.525,eb_01,2022.2.4,119.97211560041166,
,,,0,0,0,0,91,0,91,0,,,,,,,,,,,,,,,,,,,,,,,,,,,,,,,,,,,,,,,,,,,,,,,,,,,,,,,,,,,116,001,2010-10-16_10h05.20.525,eb_01,2022.2.4,119.97211560041166,
1,stimuli/1.png,s,0,0,0,0,92,0,92,0,0,0,0,0,,,,,,,,,,,,,,,,,,200.55346809903858,200.55346809903858,200.55346809903858,200.55346809903858,s,1,0.5744652651192155,201.15347292862134,201.15347292862134,201.15347292862134,,,,,,,,,,,,,,,,,,,,,,,,,,,,116,001,2010-10-16_10h05.20.525,eb_01,2022.2.4,119.97211560041166,
,,,0,0,0,0,92,0,92,0,,,,,,,,,,,,,,,,,,,,,,,,,,,,,,,,,,,,,,,,,,,,,,,,,,,,,,,,,,,116,001,2010-10-16_10h05.20.525,eb_01,2022.2.4,119.97211560041166,
2,stimuli/2.png,s,0,0,0,0,93,0,93,0,0,0,0,0,,,,,,,,,,,,,,,,,,202.15356197420624,202.15356197420624,202.15356197420624,202.15356197420624,s,1,0.7343902253487613,202.90365358552663,202.90365358552663,202.90365358552663,203.91208665494923,203.91208665494923,203.91208665494923,,,,,,,,,,,,,,,,,,,,,,,,,116,001,2010-10-16_10h05.20.525,eb_01,2022.2.4,119.97211560041166,
,,,0,0,0,0,93,0,93,0,,,,,,,,,,,,,,,,,,,,,,,,,,,,,,,,,,,,,,,,,,,,,,,,,,,,,,,,,,,116,001,2010-10-16_10h05.20.525,eb_01,2022.2.4,119.97211560041166,
3,stimuli/3.png,l,0,0,0,0,94,0,94,0,0,0,0,0,,,,,,,,,,,,,,,,,,203.91208665494923,203.91208665494923,203.91208665494923,203.91208665494923,l,1,0.42390156132751144,204.3454579206882,204.3454579206882,204.3454579206882,205.3621996975562,205.3621996975562,205.3621996975562,,,,,,,,,,,,,,,,,,,,,,,,,116,001,2010-10-16_10h05.20.525,eb_01,2022.2.4,119.97211560041166,
,,,0,0,0,0,94,0,94,0,,,,,,,,,,,,,,,,,,,,,,,,,,,,,,,,,,,,,,,,,,,,,,,,,,,,,,,,,,,116,001,2010-10-16_10h05.20.525,eb_01,2022.2.4,119.97211560041166,
4,stimuli/4.png,l,0,0,0,0,95,0,95,0,0,0,0,0,,,,,,,,,,,,,,,,,,205.3621996975562,205.3621996975562,205.3621996975562,205.3621996975562,l,1,0.597798226197483,205.97888714150758,205.97888714150758,205.97888714150758,,,,,,,,,,,,,,,,,,,,,,,,,,,,116,001,2010-10-16_10h05.20.525,eb_01,2022.2.4,119.97211560041166,
,,,0,0,0,0,95,0,95,0,,,,,,,,,,,,,,,,,,,,,,,,,,,,,,,,,,,,,,,,,,,,,,,,,,,,,,,,,,,116,001,2010-10-16_10h05.20.525,eb_01,2022.2.4,119.97211560041166,
2,stimuli/2.png,s,0,0,0,0,96,0,96,0,0,0,0,0,,,,,,,,,,,,,,,,,,206.98731568318908,206.98731568318908,206.98731568318908,206.98731568318908,s,1,0.5397996690298896,207.5373783169489,207.5373783169489,207.5373783169489,208.56245506217238,208.56245506217238,208.56245506217238,,,,,,,,,,,,,,,,,,,,,,,,,116,001,2010-10-16_10h05.20.525,eb_01,2022.2.4,119.97211560041166,
,,,0,0,0,0,96,0,96,0,,,,,,,,,,,,,,,,,,,,,,,,,,,,,,,,,,,,,,,,,,,,,,,,,,,,,,,,,,,116,001,2010-10-16_10h05.20.525,eb_01,2022.2.4,119.97211560041166,
1,stimuli/1.png,s,0,0,0,0,97,0,97,0,0,0,0,0,,,,,,,,,,,,,,,,,,208.56245506217238,208.56245506217238,208.56245506217238,208.56245506217238,s,1,0.46867307636421174,209.0625169413106,209.0625169413106,209.0625169413106,,,,,,,,,,,,,,,,,,,,,,,,,,,,116,001,2010-10-16_10h05.20.525,eb_01,2022.2.4,119.97211560041166,
,,,0,0,0,0,97,0,97,0,,,,,,,,,,,,,,,,,,,,,,,,,,,,,,,,,,,,,,,,,,,,,,,,,,,,,,,,,,,116,001,2010-10-16_10h05.20.525,eb_01,2022.2.4,119.97211560041166,
4,stimuli/4.png,l,0,0,0,0,98,0,98,0,0,0,0,0,,,,,,,,,,,,,,,,,,210.07093582378002,210.07093582378002,210.07093582378002,210.07093582378002,l,1,0.5041609103500377,210.59598751549493,210.59598751549493,210.59598751549493,,,,,,,,,,,,,,,,,,,,,,,,,,,,116,001,2010-10-16_10h05.20.525,eb_01,2022.2.4,119.97211560041166,
,,,0,0,0,0,98,0,98,0,,,,,,,,,,,,,,,,,,,,,,,,,,,,,,,,,,,,,,,,,,,,,,,,,,,,,,,,,,,116,001,2010-10-16_10h05.20.525,eb_01,2022.2.4,119.97211560041166,
2,stimuli/2.png,s,0,0,0,0,99,0,99,0,0,0,0,0,,,,,,,,,,,,,,,,,,211.60439885177766,211.60439885177766,211.60439885177766,211.60439885177766,s,1,0.5547415177279618,212.17113081851858,212.17113081851858,212.17113081851858,213.17116130530485,213.17116130530485,213.17116130530485,,,,,,,,,,,,,,,,,,,,,,,,,116,001,2010-10-16_10h05.20.525,eb_01,2022.2.4,119.97211560041166,
,,,0,0,0,0,99,0,99,0,,,,,,,,,,,,,,,,,,,,,,,,,,,,,,,,,,,,,,,,,,,,,,,,,,,,,,,,,,,116,001,2010-10-16_10h05.20.525,eb_01,2022.2.4,119.97211560041166,
,,,0,0,0,0,,,,,,,,,,,,,,,,,,,,,,,,,,,,,,,,,,,,,,,213.17116130530485,213.17116130530485,return,14.259281936858315,,,,,,,,,,,,,,,,,,,,,116,001,2010-10-16_10h05.20.525,eb_01,2022.2.4,119.97211560041166,
4,stimuli/4.png,l,1,0,1,0,0,0,0,0,0,0,0,0,,,,,,,,,,,,,,,,,,227.45577090836014,227.45577090836014,227.45577090836014,227.45577090836014,l,1,2.134752746525919,229.61428834468825,229.61428834468825,229.61428834468825,,,,,,,,,,,,,,,,,,,,,,,,,,,,116,001,2010-10-16_10h05.20.525,eb_01,2022.2.4,119.97211560041166,
,,,1,0,1,0,0,0,0,0,,,,,,,,,,,,,,,,,,,,,,,,,,,,,,,,,,,,,,,,,,,,,,,,,,,,,,,,,,,116,001,2010-10-16_10h05.20.525,eb_01,2022.2.4,119.97211560041166,
1,stimuli/1.png,s,1,0,1,0,1,0,1,0,0,0,0,0,,,,,,,,,,,,,,,,,,230.63937505093054,230.63937505093054,230.63937505093054,230.63937505093054,s,1,0.7511525279842317,231.4227431472682,231.4227431472682,231.4227431472682,,,,,,,,,,,,,,,,,,,,,,,,,,,,116,001,2010-10-16_10h05.20.525,eb_01,2022.2.4,119.97211560041166,
,,,1,0,1,0,1,0,1,0,,,,,,,,,,,,,,,,,,,,,,,,,,,,,,,,,,,,,,,,,,,,,,,,,,,,,,,,,,,116,001,2010-10-16_10h05.20.525,eb_01,2022.2.4,119.97211560041166,
4,stimuli/4.png,l,1,0,1,0,2,0,2,0,0,0,0,0,,,,,,,,,,,,,,,,,,232.43115387982107,232.43115387982107,232.43115387982107,232.43115387982107,l,1,0.5034035701246466,232.95622911577811,232.95622911577811,232.95622911577811,,,,,,,,,,,,,,,,,,,,,,,,,,,,116,001,2010-10-16_10h05.20.525,eb_01,2022.2.4,119.97211560041166,
,,,1,0,1,0,2,0,2,0,,,,,,,,,,,,,,,,,,,,,,,,,,,,,,,,,,,,,,,,,,,,,,,,,,,,,,,,,,,116,001,2010-10-16_10h05.20.525,eb_01,2022.2.4,119.97211560041166,
2,stimuli/2.png,s,1,0,1,0,3,0,3,0,0,0,0,0,,,,,,,,,,,,,,,,,,233.96463743355707,233.96463743355707,233.96463743355707,233.96463743355707,s,1,0.4899697611690499,234.4647080663126,234.4647080663126,234.4647080663126,235.48144471173873,235.48144471173873,235.48144471173873,,,,,,,,,,,,,,,,,,,,,,,,,116,001,2010-10-16_10h05.20.525,eb_01,2022.2.4,119.97211560041166,
,,,1,0,1,0,3,0,3,0,,,,,,,,,,,,,,,,,,,,,,,,,,,,,,,,,,,,,,,,,,,,,,,,,,,,,,,,,,,116,001,2010-10-16_10h05.20.525,eb_01,2022.2.4,119.97211560041166,
4,stimuli/4.png,l,1,0,1,0,4,0,4,0,0,0,0,0,,,,,,,,,,,,,,,,,,235.48144471173873,235.48144471173873,235.48144471173873,235.48144471173873,l,1,0.5252574689511675,236.0314904419356,236.0314904419356,236.0314904419356,,,,,,,,,,,,,,,,,,,,,,,,,,,,116,001,2010-10-16_10h05.20.525,eb_01,2022.2.4,119.97211560041166,
,,,1,0,1,0,4,0,4,0,,,,,,,,,,,,,,,,,,,,,,,,,,,,,,,,,,,,,,,,,,,,,,,,,,,,,,,,,,,116,001,2010-10-16_10h05.20.525,eb_01,2022.2.4,119.97211560041166,
2,stimuli/2.png,s,1,0,1,0,5,0,5,0,0,0,0,0,,,,,,,,,,,,,,,,,,237.039914455876,237.039914455876,237.039914455876,237.039914455876,s,1,0.49475347096449696,237.54829077760223,237.54829077760223,237.54829077760223,238.5650431191898,238.5650431191898,238.5650431191898,,,,,,,,,,,,,,,,,,,,,,,,,116,001,2010-10-16_10h05.20.525,eb_01,2022.2.4,119.97211560041166,
,,,1,0,1,0,5,0,5,0,,,,,,,,,,,,,,,,,,,,,,,,,,,,,,,,,,,,,,,,,,,,,,,,,,,,,,,,,,,116,001,2010-10-16_10h05.20.525,eb_01,2022.2.4,119.97211560041166,
4,stimuli/4.png,l,1,0,1,0,6,0,6,0,0,0,0,0,,,,,,,,,,,,,,,,,,238.5650431191898,238.5650431191898,238.5650431191898,238.5650431191898,l,1,0.3456419647554867,238.93172558263177,238.93172558263177,238.93172558263177,,,,,,,,,,,,,,,,,,,,,,,,,,,,116,001,2010-10-16_10h05.20.525,eb_01,2022.2.4,119.97211560041166,
,,,1,0,1,0,6,0,6,0,,,,,,,,,,,,,,,,,,,,,,,,,,,,,,,,,,,,,,,,,,,,,,,,,,,,,,,,,,,116,001,2010-10-16_10h05.20.525,eb_01,2022.2.4,119.97211560041166,
3,stimuli/3.png,l,1,0,1,0,7,0,7,0,0,0,0,0,,,,,,,,,,,,,,,,,,239.9401411447907,239.9401411447907,239.9401411447907,239.9401411447907,l,1,0.4895658866444137,240.440188535169,240.440188535169,240.440188535169,241.45692548243096,241.45692548243096,241.45692548243096,,,,,,,,,,,,,,,,,,,,,,,,,116,001,2010-10-16_10h05.20.525,eb_01,2022.2.4,119.97211560041166,
,,,1,0,1,0,7,0,7,0,,,,,,,,,,,,,,,,,,,,,,,,,,,,,,,,,,,,,,,,,,,,,,,,,,,,,,,,,,,116,001,2010-10-16_10h05.20.525,eb_01,2022.2.4,119.97211560041166,
4,stimuli/4.png,l,1,0,1,0,8,0,8,0,0,0,0,0,,,,,,,,,,,,,,,,,,241.45692548243096,241.45692548243096,241.45692548243096,241.45692548243096,l,1,0.5008130983042065,241.98200343505596,241.98200343505596,241.98200343505596,,,,,,,,,,,,,,,,,,,,,,,,,,,,116,001,2010-10-16_10h05.20.525,eb_01,2022.2.4,119.97211560041166,
,,,1,0,1,0,8,0,8,0,,,,,,,,,,,,,,,,,,,,,,,,,,,,,,,,,,,,,,,,,,,,,,,,,,,,,,,,,,,116,001,2010-10-16_10h05.20.525,eb_01,2022.2.4,119.97211560041166,
1,stimuli/1.png,s,1,0,1,0,9,0,9,0,0,0,0,0,,,,,,,,,,,,,,,,,,243.00710221528425,243.00710221528425,243.00710221528425,243.00710221528425,s,1,0.5106690859538503,243.5488015068404,243.5488015068404,243.5488015068404,,,,,,,,,,,,,,,,,,,,,,,,,,,,116,001,2010-10-16_10h05.20.525,eb_01,2022.2.4,119.97211560041166,
,,,1,0,1,0,9,0,9,0,,,,,,,,,,,,,,,,,,,,,,,,,,,,,,,,,,,,,,,,,,,,,,,,,,,,,,,,,,,116,001,2010-10-16_10h05.20.525,eb_01,2022.2.4,119.97211560041166,
4,stimuli/4.png,l,1,0,1,0,10,0,10,0,0,0,0,0,,,,,,,,,,,,,,,,,,244.55722280411283,244.55722280411283,244.55722280411283,244.55722280411283,l,1,0.4405814590572845,245.01559565457865,245.01559565457865,245.01559565457865,,,,,,,,,,,,,,,,,,,,,,,,,,,,116,001,2010-10-16_10h05.20.525,eb_01,2022.2.4,119.97211560041166,
,,,1,0,1,0,10,0,10,0,,,,,,,,,,,,,,,,,,,,,,,,,,,,,,,,,,,,,,,,,,,,,,,,,,,,,,,,,,,116,001,2010-10-16_10h05.20.525,eb_01,2022.2.4,119.97211560041166,
1,stimuli/1.png,s,1,0,1,0,11,0,11,0,0,0,0,0,,,,,,,,,,,,,,,,,,246.04069805698236,246.04069805698236,246.04069805698236,246.04069805698236,s,1,0.44512368930736557,246.51572333689546,246.51572333689546,246.51572333689546,,,,,,,,,,,,,,,,,,,,,,,,,,,,116,001,2010-10-16_10h05.20.525,eb_01,2022.2.4,119.97211560041166,
,,,1,0,1,0,11,0,11,0,,,,,,,,,,,,,,,,,,,,,,,,,,,,,,,,,,,,,,,,,,,,,,,,,,,,,,,,,,,116,001,2010-10-16_10h05.20.525,eb_01,2022.2.4,119.97211560041166,
4,stimuli/4.png,l,1,0,1,0,12,0,12,0,0,0,0,0,,,,,,,,,,,,,,,,,,247.52414433233207,247.52414433233207,247.52414433233207,247.52414433233207,l,1,0.41771696830983274,247.9658460386854,247.9658460386854,247.9658460386854,,,,,,,,,,,,,,,,,,,,,,,,,,,,116,001,2010-10-16_10h05.20.525,eb_01,2022.2.4,119.97211560041166,
,,,1,0,1,0,12,0,12,0,,,,,,,,,,,,,,,,,,,,,,,,,,,,,,,,,,,,,,,,,,,,,,,,,,,,,,,,,,,116,001,2010-10-16_10h05.20.525,eb_01,2022.2.4,119.97211560041166,
1,stimuli/1.png,s,1,0,1,0,13,0,13,0,0,0,0,0,,,,,,,,,,,,,,,,,,248.9909436115122,248.9909436115122,248.9909436115122,248.9909436115122,s,1,0.44694655801868066,249.4660196021141,249.4660196021141,249.4660196021141,,,,,,,,,,,,,,,,,,,,,,,,,,,,116,001,2010-10-16_10h05.20.525,eb_01,2022.2.4,119.97211560041166,
,,,1,0,1,0,13,0,13,0,,,,,,,,,,,,,,,,,,,,,,,,,,,,,,,,,,,,,,,,,,,,,,,,,,,,,,,,,,,116,001,2010-10-16_10h05.20.525,eb_01,2022.2.4,119.97211560041166,
2,stimuli/2.png,s,1,0,1,0,14,0,14,0,0,0,0,0,,,,,,,,,,,,,,,,,,250.46605431477656,250.46605431477656,250.46605431477656,250.46605431477656,s,1,0.4838802507438231,250.9660899330338,250.9660899330338,250.9660899330338,251.97452360612806,251.97452360612806,251.97452360612806,,,,,,,,,,,,,,,,,,,,,,,,,116,001,2010-10-16_10h05.20.525,eb_01,2022.2.4,119.97211560041166,
,,,1,0,1,0,14,0,14,0,,,,,,,,,,,,,,,,,,,,,,,,,,,,,,,,,,,,,,,,,,,,,,,,,,,,,,,,,,,116,001,2010-10-16_10h05.20.525,eb_01,2022.2.4,119.97211560041166,
3,stimuli/3.png,l,1,0,1,0,15,0,15,0,0,0,0,0,,,,,,,,,,,,,,,,,,251.97452360612806,251.97452360612806,251.97452360612806,251.97452360612806,l,1,0.5034271143958904,252.4912282555306,252.4912282555306,252.4912282555306,253.49966856933315,253.49966856933315,253.49966856933315,,,,,,,,,,,,,,,,,,,,,,,,,116,001,2010-10-16_10h05.20.525,eb_01,2022.2.4,119.97211560041166,
,,,1,0,1,0,15,0,15,0,,,,,,,,,,,,,,,,,,,,,,,,,,,,,,,,,,,,,,,,,,,,,,,,,,,,,,,,,,,116,001,2010-10-16_10h05.20.525,eb_01,2022.2.4,119.97211560041166,
8,stimuli/8.png,l,1,0,1,0,16,0,16,0,0,0,0,0,,,,,,,,,,,,,,,,,,253.49966856933315,253.49966856933315,253.49966856933315,253.49966856933315,l,1,0.498309257265646,254.01633186533581,254.01633186533581,254.01633186533581,,,,,,,,,,,,,,,,,,,,,,,,,,,,116,001,2010-10-16_10h05.20.525,eb_01,2022.2.4,119.97211560041166,
,,,1,0,1,0,16,0,16,0,,,,,,,,,,,,,,,,,,,,,,,,,,,,,,,,,,,,,,,,,,,,,,,,,,,,,,,,,,,116,001,2010-10-16_10h05.20.525,eb_01,2022.2.4,119.97211560041166,
3,stimuli/3.png,l,1,0,1,0,17,0,17,0,0,0,0,0,,,,,,,,,,,,,,,,,,255.02480145852314,255.02480145852314,255.02480145852314,255.02480145852314,l,1,0.41222934564575553,255.44982115420862,255.44982115420862,255.44982115420862,256.4582623735769,256.4582623735769,256.4582623735769,,,,,,,,,,,,,,,,,,,,,,,,,116,001,2010-10-16_10h05.20.525,eb_01,2022.2.4,119.97211560041166,
,,,1,0,1,0,17,0,17,0,,,,,,,,,,,,,,,,,,,,,,,,,,,,,,,,,,,,,,,,,,,,,,,,,,,,,,,,,,,116,001,2010-10-16_10h05.20.525,eb_01,2022.2.4,119.97211560041166,
2,stimuli/2.png,s,1,0,1,0,18,0,18,0,0,0,0,0,,,,,,,,,,,,,,,,,,256.4582623735769,256.4582623735769,256.4582623735769,256.4582623735769,l,0,0.43479108141036704,256.91661288717296,256.91661288717296,256.91661288717296,,,,,,,,,,,,,,,,,,,,,,,,,,,,116,001,2010-10-16_10h05.20.525,eb_01,2022.2.4,119.97211560041166,
,,,1,0,1,0,18,0,18,0,,,,,,,,,,,,,,,,,,,,,,,,,,,,,,,,,,,,,,,,,,,,,,,,,,,,,,,,,,,116,001,2010-10-16_10h05.20.525,eb_01,2022.2.4,119.97211560041166,
3,stimuli/3.png,l,1,0,1,0,19,0,19,0,0,0,0,0,,,,,,,,,,,,,,,,,,257.9250528991106,257.9250528991106,257.9250528991106,257.9250528991106,l,1,0.5040392650407739,258.45009945938364,258.45009945938364,258.45009945938364,,,,,,,,,,,,,,,,,,,,,,,,,,,,116,001,2010-10-16_10h05.20.525,eb_01,2022.2.4,119.97211560041166,
,,,1,0,1,0,19,0,19,0,,,,,,,,,,,,,,,,,,,,,,,,,,,,,,,,,,,,,,,,,,,,,,,,,,,,,,,,,,,116,001,2010-10-16_10h05.20.525,eb_01,2022.2.4,119.97211560041166,
4,stimuli/4.png,l,1,0,1,0,20,0,20,0,0,0,0,0,,,,,,,,,,,,,,,,,,259.46680199581897,259.46680199581897,259.46680199581897,259.46680199581897,l,1,0.5463027131627314,260.0335538846557,260.0335538846557,260.0335538846557,,,,,,,,,,,,,,,,,,,,,,,,,,,,116,001,2010-10-16_10h05.20.525,eb_01,2022.2.4,119.97211560041166,
,,,1,0,1,0,20,0,20,0,,,,,,,,,,,,,,,,,,,,,,,,,,,,,,,,,,,,,,,,,,,,,,,,,,,,,,,,,,,116,001,2010-10-16_10h05.20.525,eb_01,2022.2.4,119.97211560041166,
2,stimuli/2.png,s,1,0,1,0,21,0,21,0,0,0,0,0,,,,,,,,,,,,,,,,,,261.04196763571235,261.04196763571235,261.04196763571235,261.04196763571235,s,1,0.4832671945623588,261.5336767373665,261.5336767373665,261.5336767373665,262.55876434917445,262.55876434917445,262.55876434917445,,,,,,,,,,,,,,,,,,,,,,,,,116,001,2010-10-16_10h05.20.525,eb_01,2022.2.4,119.97211560041166,
,,,1,0,1,0,21,0,21,0,,,,,,,,,,,,,,,,,,,,,,,,,,,,,,,,,,,,,,,,,,,,,,,,,,,,,,,,,,,116,001,2010-10-16_10h05.20.525,eb_01,2022.2.4,119.97211560041166,
1,stimuli/1.png,s,1,0,1,0,22,0,22,0,0,0,0,0,,,,,,,,,,,,,,,,,,262.55876434917445,262.55876434917445,262.55876434917445,262.55876434917445,s,1,0.6624087951204274,263.2504900525382,263.2504900525382,263.2504900525382,,,,,,,,,,,,,,,,,,,,,,,,,,,,116,001,2010-10-16_10h05.20.525,eb_01,2022.2.4,119.97211560041166,
,,,1,0,1,0,22,0,22,0,,,,,,,,,,,,,,,,,,,,,,,,,,,,,,,,,,,,,,,,,,,,,,,,,,,,,,,,,,,116,001,2010-10-16_10h05.20.525,eb_01,2022.2.4,119.97211560041166,
4,stimuli/4.png,l,1,0,1,0,23,0,23,0,0,0,0,0,,,,,,,,,,,,,,,,,,264.2589219145593,264.2589219145593,264.2589219145593,264.2589219145593,l,1,0.410273663175758,264.69231672456954,264.69231672456954,264.69231672456954,,,,,,,,,,,,,,,,,,,,,,,,,,,,116,001,2010-10-16_10h05.20.525,eb_01,2022.2.4,119.97211560041166,
,,,1,0,1,0,23,0,23,0,,,,,,,,,,,,,,,,,,,,,,,,,,,,,,,,,,,,,,,,,,,,,,,,,,,,,,,,,,,116,001,2010-10-16_10h05.20.525,eb_01,2022.2.4,119.97211560041166,
2,stimuli/2.png,s,1,0,1,0,24,0,24,0,0,0,0,0,,,,,,,,,,,,,,,,,,265.7006999888399,265.7006999888399,265.7006999888399,265.7006999888399,s,1,0.60855070661637,266.31740463821916,266.31740463821916,266.31740463821916,267.3425218312477,267.3425218312477,267.3425218312477,,,,,,,,,,,,,,,,,,,,,,,,,116,001,2010-10-16_10h05.20.525,eb_01,2022.2.4,119.97211560041166,
,,,1,0,1,0,24,0,24,0,,,,,,,,,,,,,,,,,,,,,,,,,,,,,,,,,,,,,,,,,,,,,,,,,,,,,,,,,,,116,001,2010-10-16_10h05.20.525,eb_01,2022.2.4,119.97211560041166,
1,stimuli/1.png,s,1,0,1,0,25,0,25,0,0,0,0,0,,,,,,,,,,,,,,,,,,267.3425218312477,267.3425218312477,267.3425218312477,267.3425218312477,s,1,1.3827606911945622,268.75094222300686,268.75094222300686,268.75094222300686,,,,,,,,,,,,,,,,,,,,,,,,,,,,116,001,2010-10-16_10h05.20.525,eb_01,2022.2.4,119.97211560041166,
,,,1,0,1,0,25,0,25,0,,,,,,,,,,,,,,,,,,,,,,,,,,,,,,,,,,,,,,,,,,,,,,,,,,,,,,,,,,,116,001,2010-10-16_10h05.20.525,eb_01,2022.2.4,119.97211560041166,
2,stimuli/2.png,s,1,0,1,0,26,0,26,0,0,0,0,0,,,,,,,,,,,,,,,,,,269.751030664891,269.751030664891,269.751030664891,269.751030664891,s,1,0.7733641183876898,270.5344467552786,270.5344467552786,270.5344467552786,271.5511806840368,271.5511806840368,271.5511806840368,,,,,,,,,,,,,,,,,,,,,,,,,116,001,2010-10-16_10h05.20.525,eb_01,2022.2.4,119.97211560041166,
,,,1,0,1,0,26,0,26,0,,,,,,,,,,,,,,,,,,,,,,,,,,,,,,,,,,,,,,,,,,,,,,,,,,,,,,,,,,,116,001,2010-10-16_10h05.20.525,eb_01,2022.2.4,119.97211560041166,
4,stimuli/4.png,l,1,0,1,0,27,0,27,0,0,0,0,0,,,,,,,,,,,,,,,,,,271.5511806840368,271.5511806840368,271.5511806840368,271.5511806840368,l,1,0.48515707382466644,272.0595588168653,272.0595588168653,272.0595588168653,,,,,,,,,,,,,,,,,,,,,,,,,,,,116,001,2010-10-16_10h05.20.525,eb_01,2022.2.4,119.97211560041166,
,,,1,0,1,0,27,0,27,0,,,,,,,,,,,,,,,,,,,,,,,,,,,,,,,,,,,,,,,,,,,,,,,,,,,,,,,,,,,116,001,2010-10-16_10h05.20.525,eb_01,2022.2.4,119.97211560041166,
1,stimuli/1.png,s,1,0,1,0,28,0,28,0,0,0,0,0,,,,,,,,,,,,,,,,,,273.0846455231076,273.0846455231076,273.0846455231076,273.0846455231076,s,1,0.5837362685706466,273.7013845833426,273.7013845833426,273.7013845833426,,,,,,,,,,,,,,,,,,,,,,,,,,,,116,001,2010-10-16_10h05.20.525,eb_01,2022.2.4,119.97211560041166,
,,,1,0,1,0,28,0,28,0,,,,,,,,,,,,,,,,,,,,,,,,,,,,,,,,,,,,,,,,,,,,,,,,,,,,,,,,,,,116,001,2010-10-16_10h05.20.525,eb_01,2022.2.4,119.97211560041166,
2,stimuli/2.png,s,1,0,1,0,29,0,29,0,0,0,0,0,,,,,,,,,,,,,,,,,,274.7014636678796,274.7014636678796,274.7014636678796,274.7014636678796,s,1,0.798952800250845,275.50988466333365,275.50988466333365,275.50988466333365,276.5183047532337,276.5183047532337,276.5183047532337,,,,,,,,,,,,,,,,,,,,,,,,,116,001,2010-10-16_10h05.20.525,eb_01,2022.2.4,119.97211560041166,
,,,1,0,1,0,29,0,29,0,,,,,,,,,,,,,,,,,,,,,,,,,,,,,,,,,,,,,,,,,,,,,,,,,,,,,,,,,,,116,001,2010-10-16_10h05.20.525,eb_01,2022.2.4,119.97211560041166,
3,stimuli/3.png,l,1,0,1,0,30,0,30,0,0,0,0,0,,,,,,,,,,,,,,,,,,276.5183047532337,276.5183047532337,276.5183047532337,276.5183047532337,l,1,0.47815990218077786,277.009994234686,277.009994234686,277.009994234686,278.01840225060005,278.01840225060005,278.01840225060005,,,,,,,,,,,,,,,,,,,,,,,,,116,001,2010-10-16_10h05.20.525,eb_01,2022.2.4,119.97211560041166,
,,,1,0,1,0,30,0,30,0,,,,,,,,,,,,,,,,,,,,,,,,,,,,,,,,,,,,,,,,,,,,,,,,,,,,,,,,,,,116,001,2010-10-16_10h05.20.525,eb_01,2022.2.4,119.97211560041166,
2,stimuli/2.png,s,1,0,1,0,31,0,31,0,0,0,0,0,,,,,,,,,,,,,,,,,,278.01840225060005,278.01840225060005,278.01840225060005,278.01840225060005,s,1,0.5780714603024535,278.6101388205425,278.6101388205425,278.6101388205425,279.61856041967985,279.61856041967985,279.61856041967985,,,,,,,,,,,,,,,,,,,,,,,,,116,001,2010-10-16_10h05.20.525,eb_01,2022.2.4,119.97211560041166,
,,,1,0,1,0,31,0,31,0,,,,,,,,,,,,,,,,,,,,,,,,,,,,,,,,,,,,,,,,,,,,,,,,,,,,,,,,,,,116,001,2010-10-16_10h05.20.525,eb_01,2022.2.4,119.97211560041166,
3,stimuli/3.png,l,1,0,1,0,32,0,32,0,0,0,0,0,,,,,,,,,,,,,,,,,,279.61856041967985,279.61856041967985,279.61856041967985,279.61856041967985,l,1,0.5059466515667737,280.1352532969613,280.1352532969613,280.1352532969613,281.1436721794307,281.1436721794307,281.1436721794307,,,,,,,,,,,,,,,,,,,,,,,,,116,001,2010-10-16_10h05.20.525,eb_01,2022.2.4,119.97211560041166,
,,,1,0,1,0,32,0,32,0,,,,,,,,,,,,,,,,,,,,,,,,,,,,,,,,,,,,,,,,,,,,,,,,,,,,,,,,,,,116,001,2010-10-16_10h05.20.525,eb_01,2022.2.4,119.97211560041166,
2,stimuli/2.png,s,1,0,1,0,33,0,33,0,0,0,0,0,,,,,,,,,,,,,,,,,,281.1436721794307,281.1436721794307,281.1436721794307,281.1436721794307,s,1,0.5728675760910846,281.72709551421576,281.72709551421576,281.72709551421576,282.7521737686766,282.7521737686766,282.7521737686766,,,,,,,,,,,,,,,,,,,,,,,,,116,001,2010-10-16_10h05.20.525,eb_01,2022.2.4,119.97211560041166,
,,,1,0,1,0,33,0,33,0,,,,,,,,,,,,,,,,,,,,,,,,,,,,,,,,,,,,,,,,,,,,,,,,,,,,,,,,,,,116,001,2010-10-16_10h05.20.525,eb_01,2022.2.4,119.97211560041166,
1,stimuli/1.png,s,1,0,1,0,34,0,34,0,0,0,0,0,,,,,,,,,,,,,,,,,,282.7521737686766,282.7521737686766,282.7521737686766,282.7521737686766,s,1,0.48440818540984765,283.268871475535,283.268871475535,283.268871475535,,,,,,,,,,,,,,,,,,,,,,,,,,,,116,001,2010-10-16_10h05.20.525,eb_01,2022.2.4,119.97211560041166,
,,,1,0,1,0,34,0,34,0,,,,,,,,,,,,,,,,,,,,,,,,,,,,,,,,,,,,,,,,,,,,,,,,,,,,,,,,,,,116,001,2010-10-16_10h05.20.525,eb_01,2022.2.4,119.97211560041166,
4,stimuli/4.png,l,1,0,1,0,35,0,35,0,0,0,0,0,,,,,,,,,,,,,,,,,,284.277291565435,284.277291565435,284.277291565435,284.277291565435,l,1,0.6233078234945424,284.91901047719875,284.91901047719875,284.91901047719875,,,,,,,,,,,,,,,,,,,,,,,,,,,,116,001,2010-10-16_10h05.20.525,eb_01,2022.2.4,119.97211560041166,
,,,1,0,1,0,35,0,35,0,,,,,,,,,,,,,,,,,,,,,,,,,,,,,,,,,,,,,,,,,,,,,,,,,,,,,,,,,,,116,001,2010-10-16_10h05.20.525,eb_01,2022.2.4,119.97211560041166,
1,stimuli/1.png,s,1,0,1,0,36,0,36,0,0,0,0,0,,,,,,,,,,,,,,,,,,285.9440977871418,285.9440977871418,285.9440977871418,285.9440977871418,s,1,0.5235791861196049,286.49414653581334,286.49414653581334,286.49414653581334,,,,,,,,,,,,,,,,,,,,,,,,,,,,116,001,2010-10-16_10h05.20.525,eb_01,2022.2.4,119.97211560041166,
,,,1,0,1,0,36,0,36,0,,,,,,,,,,,,,,,,,,,,,,,,,,,,,,,,,,,,,,,,,,,,,,,,,,,,,,,,,,,116,001,2010-10-16_10h05.20.525,eb_01,2022.2.4,119.97211560041166,
4,stimuli/4.png,l,1,0,1,0,37,0,37,0,0,0,0,0,,,,,,,,,,,,,,,,,,287.50254428884364,287.50254428884364,287.50254428884364,287.50254428884364,l,1,0.6211115670157596,288.14429368742276,288.14429368742276,288.14429368742276,,,,,,,,,,,,,,,,,,,,,,,,,,,,116,001,2010-10-16_10h05.20.525,eb_01,2022.2.4,119.97211560041166,
,,,1,0,1,0,37,0,37,0,,,,,,,,,,,,,,,,,,,,,,,,,,,,,,,,,,,,,,,,,,,,,,,,,,,,,,,,,,,116,001,2010-10-16_10h05.20.525,eb_01,2022.2.4,119.97211560041166,
3,stimuli/3.png,l,1,0,1,0,38,0,38,0,0,0,0,0,,,,,,,,,,,,,,,,,,289.1527032125741,289.1527032125741,289.1527032125741,289.1527032125741,l,1,0.5630296994058881,289.73608791062725,289.73608791062725,289.73608791062725,,,,,,,,,,,,,,,,,,,,,,,,,,,,116,001,2010-10-16_10h05.20.525,eb_01,2022.2.4,119.97211560041166,
,,,1,0,1,0,38,0,38,0,,,,,,,,,,,,,,,,,,,,,,,,,,,,,,,,,,,,,,,,,,,,,,,,,,,,,,,,,,,116,001,2010-10-16_10h05.20.525,eb_01,2022.2.4,119.97211560041166,
4,stimuli/4.png,l,1,0,1,0,39,0,39,0,0,0,0,0,,,,,,,,,,,,,,,,,,290.7528354226379,290.7528354226379,290.7528354226379,290.7528354226379,l,1,0.7229603947780561,291.49458421749296,291.49458421749296,291.49458421749296,,,,,,,,,,,,,,,,,,,,,,,,,,,,116,001,2010-10-16_10h05.20.525,eb_01,2022.2.4,119.97211560041166,
,,,1,0,1,0,39,0,39,0,,,,,,,,,,,,,,,,,,,,,,,,,,,,,,,,,,,,,,,,,,,,,,,,,,,,,,,,,,,116,001,2010-10-16_10h05.20.525,eb_01,2022.2.4,119.97211560041166,
3,stimuli/3.png,l,1,0,1,0,40,0,40,0,0,0,0,0,,,,,,,,,,,,,,,,,,292.50298830936663,292.50298830936663,292.50298830936663,292.50298830936663,l,1,0.4768103333481122,292.99468624260044,292.99468624260044,292.99468624260044,294.0114569970174,294.0114569970174,294.0114569970174,,,,,,,,,,,,,,,,,,,,,,,,,116,001,2010-10-16_10h05.20.525,eb_01,2022.2.4,119.97211560041166,
,,,1,0,1,0,40,0,40,0,,,,,,,,,,,,,,,,,,,,,,,,,,,,,,,,,,,,,,,,,,,,,,,,,,,,,,,,,,,116,001,2010-10-16_10h05.20.525,eb_01,2022.2.4,119.97211560041166,
4,stimuli/4.png,l,1,0,1,0,41,0,41,0,0,0,0,0,,,,,,,,,,,,,,,,,,294.0114569970174,294.0114569970174,294.0114569970174,294.0114569970174,l,1,0.6083641636942048,294.6365228756622,294.6365228756622,294.6365228756622,,,,,,,,,,,,,,,,,,,,,,,,,,,,116,001,2010-10-16_10h05.20.525,eb_01,2022.2.4,119.97211560041166,
,,,1,0,1,0,41,0,41,0,,,,,,,,,,,,,,,,,,,,,,,,,,,,,,,,,,,,,,,,,,,,,,,,,,,,,,,,,,,116,001,2010-10-16_10h05.20.525,eb_01,2022.2.4,119.97211560041166,
2,stimuli/2.png,s,1,0,1,0,42,0,42,0,0,0,0,0,,,,,,,,,,,,,,,,,,295.64496530240285,295.64496530240285,295.64496530240285,295.64496530240285,s,1,0.5428528760385234,296.2033182308078,296.2033182308078,296.2033182308078,297.21173198186443,297.21173198186443,297.21173198186443,,,,,,,,,,,,,,,,,,,,,,,,,116,001,2010-10-16_10h05.20.525,eb_01,2022.2.4,119.97211560041166,
,,,1,0,1,0,42,0,42,0,,,,,,,,,,,,,,,,,,,,,,,,,,,,,,,,,,,,,,,,,,,,,,,,,,,,,,,,,,,116,001,2010-10-16_10h05.20.525,eb_01,2022.2.4,119.97211560041166,
3,stimuli/3.png,l,1,0,1,0,43,0,43,0,0,0,0,0,,,,,,,,,,,,,,,,,,297.21173198186443,297.21173198186443,297.21173198186443,297.21173198186443,l,1,0.5201163694146089,297.7451020402077,297.7451020402077,297.7451020402077,298.7618691724201,298.7618691724201,298.7618691724201,,,,,,,,,,,,,,,,,,,,,,,,,116,001,2010-10-16_10h05.20.525,eb_01,2022.2.4,119.97211560041166,
,,,1,0,1,0,43,0,43,0,,,,,,,,,,,,,,,,,,,,,,,,,,,,,,,,,,,,,,,,,,,,,,,,,,,,,,,,,,,116,001,2010-10-16_10h05.20.525,eb_01,2022.2.4,119.97211560041166,
4,stimuli/4.png,l,1,0,1,0,44,0,44,0,0,0,0,0,,,,,,,,,,,,,,,,,,298.7618691724201,298.7618691724201,298.7618691724201,298.7618691724201,l,1,1.1300155215431005,299.91192969321855,299.91192969321855,299.91192969321855,,,,,,,,,,,,,,,,,,,,,,,,,,,,116,001,2010-10-16_10h05.20.525,eb_01,2022.2.4,119.97211560041166,
,,,1,0,1,0,44,0,44,0,,,,,,,,,,,,,,,,,,,,,,,,,,,,,,,,,,,,,,,,,,,,,,,,,,,,,,,,,,,116,001,2010-10-16_10h05.20.525,eb_01,2022.2.4,119.97211560041166,
3,stimuli/3.png,l,1,0,1,0,45,0,45,0,0,0,0,0,,,,,,,,,,,,,,,,,,300.9203820810071,300.9203820810071,300.9203820810071,300.9203820810071,l,1,0.4435048707819078,301.3787567425752,301.3787567425752,301.3787567425752,302.3955063675239,302.3955063675239,302.3955063675239,,,,,,,,,,,,,,,,,,,,,,,,,116,001,2010-10-16_10h05.20.525,eb_01,2022.2.4,119.97211560041166,
,,,1,0,1,0,45,0,45,0,,,,,,,,,,,,,,,,,,,,,,,,,,,,,,,,,,,,,,,,,,,,,,,,,,,,,,,,,,,116,001,2010-10-16_10h05.20.525,eb_01,2022.2.4,119.97211560041166,
4,stimuli/4.png,l,1,0,1,0,46,0,46,0,0,0,0,0,,,,,,,,,,,,,,,,,,302.3955063675239,302.3955063675239,302.3955063675239,302.3955063675239,l,1,0.5594693853636272,302.9788732564484,302.9788732564484,302.9788732564484,,,,,,,,,,,,,,,,,,,,,,,,,,,,116,001,2010-10-16_10h05.20.525,eb_01,2022.2.4,119.97211560041166,
,,,1,0,1,0,46,0,46,0,,,,,,,,,,,,,,,,,,,,,,,,,,,,,,,,,,,,,,,,,,,,,,,,,,,,,,,,,,,116,001,2010-10-16_10h05.20.525,eb_01,2022.2.4,119.97211560041166,
1,stimuli/1.png,s,1,0,1,0,47,0,47,0,0,0,0,0,,,,,,,,,,,,,,,,,,303.99562740913825,303.99562740913825,303.99562740913825,303.99562740913825,s,1,0.4793724313203711,304.5040423675964,304.5040423675964,304.5040423675964,,,,,,,,,,,,,,,,,,,,,,,,,,,,116,001,2010-10-16_10h05.20.525,eb_01,2022.2.4,119.97211560041166,
,,,1,0,1,0,47,0,47,0,,,,,,,,,,,,,,,,,,,,,,,,,,,,,,,,,,,,,,,,,,,,,,,,,,,,,,,,,,,116,001,2010-10-16_10h05.20.525,eb_01,2022.2.4,119.97211560041166,
2,stimuli/2.png,s,1,0,1,0,48,0,48,0,0,0,0,0,,,,,,,,,,,,,,,,,,305.5041606925661,305.5041606925661,305.5041606925661,305.5041606925661,s,1,0.6669063516601454,306.1875001131848,306.1875001131848,306.1875001131848,307.212599195278,307.212599195278,307.212599195278,,,,,,,,,,,,,,,,,,,,,,,,,116,001,2010-10-16_10h05.20.525,eb_01,2022.2.4,119.97211560041166,
,,,1,0,1,0,48,0,48,0,,,,,,,,,,,,,,,,,,,,,,,,,,,,,,,,,,,,,,,,,,,,,,,,,,,,,,,,,,,116,001,2010-10-16_10h05.20.525,eb_01,2022.2.4,119.97211560041166,
1,stimuli/1.png,s,1,0,1,0,49,0,49,0,0,0,0,0,,,,,,,,,,,,,,,,,,307.212599195278,307.212599195278,307.212599195278,307.212599195278,s,1,0.5504570668854285,307.7959371066536,307.7959371066536,307.7959371066536,,,,,,,,,,,,,,,,,,,,,,,,,,,,116,001,2010-10-16_10h05.20.525,eb_01,2022.2.4,119.97211560041166,
,,,1,0,1,0,49,0,49,0,,,,,,,,,,,,,,,,,,,,,,,,,,,,,,,,,,,,,,,,,,,,,,,,,,,,,,,,,,,116,001,2010-10-16_10h05.20.525,eb_01,2022.2.4,119.97211560041166,
2,stimuli/2.png,s,1,0,1,0,50,0,50,0,0,0,0,0,,,,,,,,,,,,,,,,,,308.79606629820773,308.79606629820773,308.79606629820773,308.79606629820773,s,1,0.5510752545378637,309.36278196508647,309.36278196508647,309.36278196508647,310.37121020493214,310.37121020493214,310.37121020493214,,,,,,,,,,,,,,,,,,,,,,,,,116,001,2010-10-16_10h05.20.525,eb_01,2022.2.4,119.97211560041166,
,,,1,0,1,0,50,0,50,0,,,,,,,,,,,,,,,,,,,,,,,,,,,,,,,,,,,,,,,,,,,,,,,,,,,,,,,,,,,116,001,2010-10-16_10h05.20.525,eb_01,2022.2.4,119.97211560041166,
3,stimuli/3.png,l,1,0,1,0,51,0,51,0,0,0,0,0,,,,,,,,,,,,,,,,,,310.37121020493214,310.37121020493214,310.37121020493214,310.37121020493214,l,1,0.4799169677135069,310.8629132696078,310.8629132696078,310.8629132696078,311.8713089097,311.8713089097,311.8713089097,,,,,,,,,,,,,,,,,,,,,,,,,116,001,2010-10-16_10h05.20.525,eb_01,2022.2.4,119.97211560041166,
,,,1,0,1,0,51,0,51,0,,,,,,,,,,,,,,,,,,,,,,,,,,,,,,,,,,,,,,,,,,,,,,,,,,,,,,,,,,,116,001,2010-10-16_10h05.20.525,eb_01,2022.2.4,119.97211560041166,
8,stimuli/8.png,l,1,0,1,0,52,0,52,0,0,0,0,0,,,,,,,,,,,,,,,,,,311.8713089097,311.8713089097,311.8713089097,311.8713089097,l,1,0.5398549074889161,312.42968145830673,312.42968145830673,312.42968145830673,,,,,,,,,,,,,,,,,,,,,,,,,,,,116,001,2010-10-16_10h05.20.525,eb_01,2022.2.4,119.97211560041166,
,,,1,0,1,0,52,0,52,0,,,,,,,,,,,,,,,,,,,,,,,,,,,,,,,,,,,,,,,,,,,,,,,,,,,,,,,,,,,116,001,2010-10-16_10h05.20.525,eb_01,2022.2.4,119.97211560041166,
9,stimuli/9.png,l,1,0,1,0,53,0,53,0,0,0,0,0,,,,,,,,,,,,,,,,,,313.44643651653314,313.44643651653314,313.44643651653314,313.44643651653314,l,1,0.5727622306148987,314.0464896420308,314.0464896420308,314.0464896420308,,,,,,,,,,,,,,,,,,,,,,,,,,,,116,001,2010-10-16_10h05.20.525,eb_01,2022.2.4,119.97211560041166,
,,,1,0,1,0,53,0,53,0,,,,,,,,,,,,,,,,,,,,,,,,,,,,,,,,,,,,,,,,,,,,,,,,,,,,,,,,,,,116,001,2010-10-16_10h05.20.525,eb_01,2022.2.4,119.97211560041166,
6,stimuli/6.png,s,1,0,1,0,54,0,54,0,0,0,0,0,,,,,,,,,,,,,,,,,,315.0632766963099,315.0632766963099,315.0632766963099,315.0632766963099,s,1,0.5239758162642829,315.6133553280961,315.6133553280961,315.6133553280961,,,,,,,,,,,,,,,,,,,,,,,,,,,,116,001,2010-10-16_10h05.20.525,eb_01,2022.2.4,119.97211560041166,
,,,1,0,1,0,54,0,54,0,,,,,,,,,,,,,,,,,,,,,,,,,,,,,,,,,,,,,,,,,,,,,,,,,,,,,,,,,,,116,001,2010-10-16_10h05.20.525,eb_01,2022.2.4,119.97211560041166,
5,stimuli/5.png,s,1,0,1,0,55,0,55,0,0,0,0,0,,,,,,,,,,,,,,,,,,316.6134163016686,316.6134163016686,316.6134163016686,316.6134163016686,s,1,0.4928919655212667,317.13010344380746,317.13010344380746,317.13010344380746,,,,,,,,,,,,,,,,,,,,,,,,,,,,116,001,2010-10-16_10h05.20.525,eb_01,2022.2.4,119.97211560041166,
,,,1,0,1,0,55,0,55,0,,,,,,,,,,,,,,,,,,,,,,,,,,,,,,,,,,,,,,,,,,,,,,,,,,,,,,,,,,,116,001,2010-10-16_10h05.20.525,eb_01,2022.2.4,119.97211560041166,
9,stimuli/9.png,l,1,0,1,0,56,0,56,0,0,0,0,0,,,,,,,,,,,,,,,,,,318.14683978736866,318.14683978736866,318.14683978736866,318.14683978736866,l,1,0.5354642056336161,318.7135720559745,318.7135720559745,318.7135720559745,,,,,,,,,,,,,,,,,,,,,,,,,,,,116,001,2010-10-16_10h05.20.525,eb_01,2022.2.4,119.97211560041166,
,,,1,0,1,0,56,0,56,0,,,,,,,,,,,,,,,,,,,,,,,,,,,,,,,,,,,,,,,,,,,,,,,,,,,,,,,,,,,116,001,2010-10-16_10h05.20.525,eb_01,2022.2.4,119.97211560041166,
5,stimuli/5.png,s,1,0,1,0,57,0,57,0,0,0,0,0,,,,,,,,,,,,,,,,,,319.7136589886213,319.7136589886213,319.7136589886213,319.7136589886213,s,1,0.5286792341212276,320.2637026058801,320.2637026058801,320.2637026058801,,,,,,,,,,,,,,,,,,,,,,,,,,,,116,001,2010-10-16_10h05.20.525,eb_01,2022.2.4,119.97211560041166,
,,,1,0,1,0,57,0,57,0,,,,,,,,,,,,,,,,,,,,,,,,,,,,,,,,,,,,,,,,,,,,,,,,,,,,,,,,,,,116,001,2010-10-16_10h05.20.525,eb_01,2022.2.4,119.97211560041166,
9,stimuli/9.png,l,1,0,1,0,58,0,58,0,0,0,0,0,,,,,,,,,,,,,,,,,,321.28046490848646,321.28046490848646,321.28046490848646,321.28046490848646,l,1,0.7059031852695625,322.01385337967076,322.01385337967076,322.01385337967076,,,,,,,,,,,,,,,,,,,,,,,,,,,,116,001,2010-10-16_10h05.20.525,eb_01,2022.2.4,119.97211560041166,
,,,1,0,1,0,58,0,58,0,,,,,,,,,,,,,,,,,,,,,,,,,,,,,,,,,,,,,,,,,,,,,,,,,,,,,,,,,,,116,001,2010-10-16_10h05.20.525,eb_01,2022.2.4,119.97211560041166,
6,stimuli/6.png,s,1,0,1,0,59,0,59,0,0,0,0,0,,,,,,,,,,,,,,,,,,323.03060934343375,323.03060934343375,323.03060934343375,323.03060934343375,s,1,0.6437780445266981,323.7056666193821,323.7056666193821,323.7056666193821,,,,,,,,,,,,,,,,,,,,,,,,,,,,116,001,2010-10-16_10h05.20.525,eb_01,2022.2.4,119.97211560041166,
,,,1,0,1,0,59,0,59,0,,,,,,,,,,,,,,,,,,,,,,,,,,,,,,,,,,,,,,,,,,,,,,,,,,,,,,,,,,,116,001,2010-10-16_10h05.20.525,eb_01,2022.2.4,119.97211560041166,
8,stimuli/8.png,l,1,0,1,0,60,0,60,0,0,0,0,0,,,,,,,,,,,,,,,,,,324.705753250164,324.705753250164,324.705753250164,324.705753250164,l,1,0.49668289252440445,325.222444618179,325.222444618179,325.222444618179,,,,,,,,,,,,,,,,,,,,,,,,,,,,116,001,2010-10-16_10h05.20.525,eb_01,2022.2.4,119.97211560041166,
,,,1,0,1,0,60,0,60,0,,,,,,,,,,,,,,,,,,,,,,,,,,,,,,,,,,,,,,,,,,,,,,,,,,,,,,,,,,,116,001,2010-10-16_10h05.20.525,eb_01,2022.2.4,119.97211560041166,
6,stimuli/6.png,s,1,0,1,0,61,0,61,0,0,0,0,0,,,,,,,,,,,,,,,,,,326.2476028627425,326.2476028627425,326.2476028627425,326.2476028627425,s,1,0.45083709532627836,326.73094832035713,326.73094832035713,326.73094832035713,,,,,,,,,,,,,,,,,,,,,,,,,,,,116,001,2010-10-16_10h05.20.525,eb_01,2022.2.4,119.97211560041166,
,,,1,0,1,0,61,0,61,0,,,,,,,,,,,,,,,,,,,,,,,,,,,,,,,,,,,,,,,,,,,,,,,,,,,,,,,,,,,116,001,2010-10-16_10h05.20.525,eb_01,2022.2.4,119.97211560041166,
9,stimuli/9.png,l,1,0,1,0,62,0,62,0,0,0,0,0,,,,,,,,,,,,,,,,,,327.73931890694075,327.73931890694075,327.73931890694075,327.73931890694075,l,1,0.5271772313572001,328.2977270737756,328.2977270737756,328.2977270737756,,,,,,,,,,,,,,,,,,,,,,,,,,,,116,001,2010-10-16_10h05.20.525,eb_01,2022.2.4,119.97211560041166,
,,,1,0,1,0,62,0,62,0,,,,,,,,,,,,,,,,,,,,,,,,,,,,,,,,,,,,,,,,,,,,,,,,,,,,,,,,,,,116,001,2010-10-16_10h05.20.525,eb_01,2022.2.4,119.97211560041166,
8,stimuli/8.png,l,1,0,1,0,63,0,63,0,0,0,0,0,,,,,,,,,,,,,,,,,,329.2977949898923,329.2977949898923,329.2977949898923,329.2977949898923,l,1,0.5607422844332177,329.8811621806817,329.8811621806817,329.8811621806817,,,,,,,,,,,,,,,,,,,,,,,,,,,,116,001,2010-10-16_10h05.20.525,eb_01,2022.2.4,119.97211560041166,
,,,1,0,1,0,63,0,63,0,,,,,,,,,,,,,,,,,,,,,,,,,,,,,,,,,,,,,,,,,,,,,,,,,,,,,,,,,,,116,001,2010-10-16_10h05.20.525,eb_01,2022.2.4,119.97211560041166,
3,stimuli/3.png,l,1,0,1,0,64,0,64,0,0,0,0,0,,,,,,,,,,,,,,,,,,330.88963720717584,330.88963720717584,330.88963720717584,330.88963720717584,l,1,0.5368931608682033,331.43966361900675,331.43966361900675,331.43966361900675,332.4480948773271,332.4480948773271,332.4480948773271,,,,,,,,,,,,,,,,,,,,,,,,,116,001,2010-10-16_10h05.20.525,eb_01,2022.2.4,119.97211560041166,
,,,1,0,1,0,64,0,64,0,,,,,,,,,,,,,,,,,,,,,,,,,,,,,,,,,,,,,,,,,,,,,,,,,,,,,,,,,,,116,001,2010-10-16_10h05.20.525,eb_01,2022.2.4,119.97211560041166,
8,stimuli/8.png,l,1,0,1,0,65,0,65,0,0,0,0,0,,,,,,,,,,,,,,,,,,332.4480948773271,332.4480948773271,332.4480948773271,332.4480948773271,l,1,0.7055279864289332,333.1731495875283,333.1731495875283,333.1731495875283,,,,,,,,,,,,,,,,,,,,,,,,,,,,116,001,2010-10-16_10h05.20.525,eb_01,2022.2.4,119.97211560041166,
,,,1,0,1,0,65,0,65,0,,,,,,,,,,,,,,,,,,,,,,,,,,,,,,,,,,,,,,,,,,,,,,,,,,,,,,,,,,,116,001,2010-10-16_10h05.20.525,eb_01,2022.2.4,119.97211560041166,
9,stimuli/9.png,l,1,0,1,0,66,0,66,0,0,0,0,0,,,,,,,,,,,,,,,,,,334.18987959227525,334.18987959227525,334.18987959227525,334.18987959227525,l,1,0.4836994429351762,334.7066174450738,334.7066174450738,334.7066174450738,,,,,,,,,,,,,,,,,,,,,,,,,,,,116,001,2010-10-16_10h05.20.525,eb_01,2022.2.4,119.97211560041166,
,,,1,0,1,0,66,0,66,0,,,,,,,,,,,,,,,,,,,,,,,,,,,,,,,,,,,,,,,,,,,,,,,,,,,,,,,,,,,116,001,2010-10-16_10h05.20.525,eb_01,2022.2.4,119.97211560041166,
6,stimuli/6.png,s,1,0,1,0,67,0,67,0,0,0,0,0,,,,,,,,,,,,,,,,,,335.7233737107308,335.7233737107308,335.7233737107308,335.7233737107308,s,1,0.5422814750345424,336.29841136644245,336.29841136644245,336.29841136644245,,,,,,,,,,,,,,,,,,,,,,,,,,,,116,001,2010-10-16_10h05.20.525,eb_01,2022.2.4,119.97211560041166,
,,,1,0,1,0,67,0,67,0,,,,,,,,,,,,,,,,,,,,,,,,,,,,,,,,,,,,,,,,,,,,,,,,,,,,,,,,,,,116,001,2010-10-16_10h05.20.525,eb_01,2022.2.4,119.97211560041166,
9,stimuli/9.png,l,1,0,1,0,68,0,68,0,0,0,0,0,,,,,,,,,,,,,,,,,,337.306858924625,337.306858924625,337.306858924625,337.306858924625,l,1,0.5028043990023434,337.84019577954314,337.84019577954314,337.84019577954314,,,,,,,,,,,,,,,,,,,,,,,,,,,,116,001,2010-10-16_10h05.20.525,eb_01,2022.2.4,119.97211560041166,
,,,1,0,1,0,68,0,68,0,,,,,,,,,,,,,,,,,,,,,,,,,,,,,,,,,,,,,,,,,,,,,,,,,,,,,,,,,,,116,001,2010-10-16_10h05.20.525,eb_01,2022.2.4,119.97211560041166,
6,stimuli/6.png,s,1,0,1,0,69,0,69,0,0,0,0,0,,,,,,,,,,,,,,,,,,338.856945102656,338.856945102656,338.856945102656,338.856945102656,s,1,0.5447786753938999,339.43201233961736,339.43201233961736,339.43201233961736,,,,,,,,,,,,,,,,,,,,,,,,,,,,116,001,2010-10-16_10h05.20.525,eb_01,2022.2.4,119.97211560041166,
,,,1,0,1,0,69,0,69,0,,,,,,,,,,,,,,,,,,,,,,,,,,,,,,,,,,,,,,,,,,,,,,,,,,,,,,,,,,,116,001,2010-10-16_10h05.20.525,eb_01,2022.2.4,119.97211560041166,
9,stimuli/9.png,l,1,0,1,0,70,0,70,0,0,0,0,0,,,,,,,,,,,,,,,,,,340.4404360516928,340.4404360516928,340.4404360516928,340.4404360516928,l,1,0.4092956710373983,340.8821181378444,340.8821181378444,340.8821181378444,,,,,,,,,,,,,,,,,,,,,,,,,,,,116,001,2010-10-16_10h05.20.525,eb_01,2022.2.4,119.97211560041166,
,,,1,0,1,0,70,0,70,0,,,,,,,,,,,,,,,,,,,,,,,,,,,,,,,,,,,,,,,,,,,,,,,,,,,,,,,,,,,116,001,2010-10-16_10h05.20.525,eb_01,2022.2.4,119.97211560041166,
6,stimuli/6.png,s,1,0,1,0,71,0,71,0,0,0,0,0,,,,,,,,,,,,,,,,,,341.898891910736,341.898891910736,341.898891910736,341.898891910736,s,1,0.5108692121284548,342.4406153502641,342.4406153502641,342.4406153502641,,,,,,,,,,,,,,,,,,,,,,,,,,,,116,001,2010-10-16_10h05.20.525,eb_01,2022.2.4,119.97211560041166,
,,,1,0,1,0,71,0,71,0,,,,,,,,,,,,,,,,,,,,,,,,,,,,,,,,,,,,,,,,,,,,,,,,,,,,,,,,,,,116,001,2010-10-16_10h05.20.525,eb_01,2022.2.4,119.97211560041166,
8,stimuli/8.png,l,1,0,1,0,72,0,72,0,0,0,0,0,,,,,,,,,,,,,,,,,,343.4406886996585,343.4406886996585,343.4406886996585,343.4406886996585,l,1,0.5291072566178627,343.9907175262924,343.9907175262924,343.9907175262924,,,,,,,,,,,,,,,,,,,,,,,,,,,,116,001,2010-10-16_10h05.20.525,eb_01,2022.2.4,119.97211560041166,
,,,1,0,1,0,72,0,72,0,,,,,,,,,,,,,,,,,,,,,,,,,,,,,,,,,,,,,,,,,,,,,,,,,,,,,,,,,,,116,001,2010-10-16_10h05.20.525,eb_01,2022.2.4,119.97211560041166,
6,stimuli/6.png,s,1,0,1,0,73,0,73,0,0,0,0,0,,,,,,,,,,,,,,,,,,345.01582445643726,345.01582445643726,345.01582445643726,345.01582445643726,s,1,0.5539986662915908,345.5991732343973,345.5991732343973,345.5991732343973,,,,,,,,,,,,,,,,,,,,,,,,,,,,116,001,2010-10-16_10h05.20.525,eb_01,2022.2.4,119.97211560041166,
,,,1,0,1,0,73,0,73,0,,,,,,,,,,,,,,,,,,,,,,,,,,,,,,,,,,,,,,,,,,,,,,,,,,,,,,,,,,,116,001,2010-10-16_10h05.20.525,eb_01,2022.2.4,119.97211560041166,
9,stimuli/9.png,l,1,0,1,0,74,0,74,0,0,0,0,0,,,,,,,,,,,,,,,,,,346.60762743328814,346.60762743328814,346.60762743328814,346.60762743328814,l,1,0.386229544878006,347.02432996971766,347.02432996971766,347.02432996971766,,,,,,,,,,,,,,,,,,,,,,,,,,,,116,001,2010-10-16_10h05.20.525,eb_01,2022.2.4,119.97211560041166,
,,,1,0,1,0,74,0,74,0,,,,,,,,,,,,,,,,,,,,,,,,,,,,,,,,,,,,,,,,,,,,,,,,,,,,,,,,,,,116,001,2010-10-16_10h05.20.525,eb_01,2022.2.4,119.97211560041166,
5,stimuli/5.png,s,1,0,1,0,75,0,75,0,0,0,0,0,,,,,,,,,,,,,,,,,,348.0244162986637,348.0244162986637,348.0244162986637,348.0244162986637,s,1,0.5604959752818104,348.6077632655215,348.6077632655215,348.6077632655215,,,,,,,,,,,,,,,,,,,,,,,,,,,,116,001,2010-10-16_10h05.20.525,eb_01,2022.2.4,119.97211560041166,
,,,1,0,1,0,75,0,75,0,,,,,,,,,,,,,,,,,,,,,,,,,,,,,,,,,,,,,,,,,,,,,,,,,,,,,,,,,,,116,001,2010-10-16_10h05.20.525,eb_01,2022.2.4,119.97211560041166,
9,stimuli/9.png,l,1,0,1,0,76,0,76,0,0,0,0,0,,,,,,,,,,,,,,,,,,349.6245524327678,349.6245524327678,349.6245524327678,349.6245524327678,l,1,0.3843985262210481,350.0412555728981,350.0412555728981,350.0412555728981,,,,,,,,,,,,,,,,,,,,,,,,,,,,116,001,2010-10-16_10h05.20.525,eb_01,2022.2.4,119.97211560041166,
,,,1,0,1,0,76,0,76,0,,,,,,,,,,,,,,,,,,,,,,,,,,,,,,,,,,,,,,,,,,,,,,,,,,,,,,,,,,,116,001,2010-10-16_10h05.20.525,eb_01,2022.2.4,119.97211560041166,
5,stimuli/5.png,s,1,0,1,0,77,0,77,0,0,0,0,0,,,,,,,,,,,,,,,,,,351.0413141316967,351.0413141316967,351.0413141316967,351.0413141316967,s,1,0.4716133917099796,351.53311469373875,351.53311469373875,351.53311469373875,,,,,,,,,,,,,,,,,,,,,,,,,,,,116,001,2010-10-16_10h05.20.525,eb_01,2022.2.4,119.97211560041166,
,,,1,0,1,0,77,0,77,0,,,,,,,,,,,,,,,,,,,,,,,,,,,,,,,,,,,,,,,,,,,,,,,,,,,,,,,,,,,116,001,2010-10-16_10h05.20.525,eb_01,2022.2.4,119.97211560041166,
6,stimuli/6.png,s,1,0,1,0,78,0,78,0,0,0,0,0,,,,,,,,,,,,,,,,,,352.55815642440575,352.55815642440575,352.55815642440575,352.55815642440575,s,1,0.7148415506235324,353.299864167755,353.299864167755,353.299864167755,,,,,,,,,,,,,,,,,,,,,,,,,,,,116,001,2010-10-16_10h05.20.525,eb_01,2022.2.4,119.97211560041166,
,,,1,0,1,0,78,0,78,0,,,,,,,,,,,,,,,,,,,,,,,,,,,,,,,,,,,,,,,,,,,,,,,,,,,,,,,,,,,116,001,2010-10-16_10h05.20.525,eb_01,2022.2.4,119.97211560041166,
9,stimuli/9.png,l,1,0,1,0,79,0,79,0,0,0,0,0,,,,,,,,,,,,,,,,,,354.3082869742939,354.3082869742939,354.3082869742939,354.3082869742939,l,1,0.4047190299315844,354.7416630696389,354.7416630696389,354.7416630696389,,,,,,,,,,,,,,,,,,,,,,,,,,,,116,001,2010-10-16_10h05.20.525,eb_01,2022.2.4,119.97211560041166,
,,,1,0,1,0,79,0,79,0,,,,,,,,,,,,,,,,,,,,,,,,,,,,,,,,,,,,,,,,,,,,,,,,,,,,,,,,,,,116,001,2010-10-16_10h05.20.525,eb_01,2022.2.4,119.97211560041166,
6,stimuli/6.png,s,1,0,1,0,80,0,80,0,0,0,0,0,,,,,,,,,,,,,,,,,,355.75840756314574,355.75840756314574,355.75840756314574,355.75840756314574,s,1,0.42665352259064093,356.2167852431885,356.2167852431885,356.2167852431885,,,,,,,,,,,,,,,,,,,,,,,,,,,,116,001,2010-10-16_10h05.20.525,eb_01,2022.2.4,119.97211560041166,
,,,1,0,1,0,80,0,80,0,,,,,,,,,,,,,,,,,,,,,,,,,,,,,,,,,,,,,,,,,,,,,,,,,,,,,,,,,,,116,001,2010-10-16_10h05.20.525,eb_01,2022.2.4,119.97211560041166,
8,stimuli/8.png,l,1,0,1,0,81,0,81,0,0,0,0,0,,,,,,,,,,,,,,,,,,357.21688123131753,357.21688123131753,357.21688123131753,357.21688123131753,l,1,0.47221859981073067,357.70857493864605,357.70857493864605,357.70857493864605,,,,,,,,,,,,,,,,,,,,,,,,,,,,116,001,2010-10-16_10h05.20.525,eb_01,2022.2.4,119.97211560041166,
,,,1,0,1,0,81,0,81,0,,,,,,,,,,,,,,,,,,,,,,,,,,,,,,,,,,,,,,,,,,,,,,,,,,,,,,,,,,,116,001,2010-10-16_10h05.20.525,eb_01,2022.2.4,119.97211560041166,
6,stimuli/6.png,s,1,0,1,0,82,0,82,0,0,0,0,0,,,,,,,,,,,,,,,,,,358.7336643615563,358.7336643615563,358.7336643615563,358.7336643615563,s,1,0.4434541600639932,359.20870352649945,359.20870352649945,359.20870352649945,,,,,,,,,,,,,,,,,,,,,,,,,,,,116,001,2010-10-16_10h05.20.525,eb_01,2022.2.4,119.97211560041166,
,,,1,0,1,0,82,0,82,0,,,,,,,,,,,,,,,,,,,,,,,,,,,,,,,,,,,,,,,,,,,,,,,,,,,,,,,,,,,116,001,2010-10-16_10h05.20.525,eb_01,2022.2.4,119.97211560041166,
8,stimuli/8.png,l,1,0,1,0,83,0,83,0,0,0,0,0,,,,,,,,,,,,,,,,,,360.20879045914626,360.20879045914626,360.20879045914626,360.20879045914626,l,1,0.3763479000190273,360.6088230588939,360.6088230588939,360.6088230588939,,,,,,,,,,,,,,,,,,,,,,,,,,,,116,001,2010-10-16_10h05.20.525,eb_01,2022.2.4,119.97211560041166,
,,,1,0,1,0,83,0,83,0,,,,,,,,,,,,,,,,,,,,,,,,,,,,,,,,,,,,,,,,,,,,,,,,,,,,,,,,,,,116,001,2010-10-16_10h05.20.525,eb_01,2022.2.4,119.97211560041166,
6,stimuli/6.png,s,1,0,1,0,84,0,84,0,0,0,0,0,,,,,,,,,,,,,,,,,,361.6339067466324,361.6339067466324,361.6339067466324,361.6339067466324,s,1,0.5592725795286242,362.22563094078214,362.22563094078214,362.22563094078214,,,,,,,,,,,,,,,,,,,,,,,,,,,,116,001,2010-10-16_10h05.20.525,eb_01,2022.2.4,119.97211560041166,
,,,1,0,1,0,84,0,84,0,,,,,,,,,,,,,,,,,,,,,,,,,,,,,,,,,,,,,,,,,,,,,,,,,,,,,,,,,,,116,001,2010-10-16_10h05.20.525,eb_01,2022.2.4,119.97211560041166,
8,stimuli/8.png,l,1,0,1,0,85,0,85,0,0,0,0,0,,,,,,,,,,,,,,,,,,363.22571576046175,363.22571576046175,363.22571576046175,363.22571576046175,l,1,0.3754846106749028,363.62573145664646,363.62573145664646,363.62573145664646,,,,,,,,,,,,,,,,,,,,,,,,,,,,116,001,2010-10-16_10h05.20.525,eb_01,2022.2.4,119.97211560041166,
,,,1,0,1,0,85,0,85,0,,,,,,,,,,,,,,,,,,,,,,,,,,,,,,,,,,,,,,,,,,,,,,,,,,,,,,,,,,,116,001,2010-10-16_10h05.20.525,eb_01,2022.2.4,119.97211560041166,
3,stimuli/3.png,l,1,0,1,0,86,0,86,0,0,0,0,0,,,,,,,,,,,,,,,,,,364.634169355646,364.634169355646,364.634169355646,364.634169355646,l,1,0.8060897282266524,365.45087370317196,365.45087370317196,365.45087370317196,366.45932065768284,366.45932065768284,366.45932065768284,,,,,,,,,,,,,,,,,,,,,,,,,116,001,2010-10-16_10h05.20.525,eb_01,2022.2.4,119.97211560041166,
,,,1,0,1,0,86,0,86,0,,,,,,,,,,,,,,,,,,,,,,,,,,,,,,,,,,,,,,,,,,,,,,,,,,,,,,,,,,,116,001,2010-10-16_10h05.20.525,eb_01,2022.2.4,119.97211560041166,
2,stimuli/2.png,s,1,0,1,0,87,0,87,0,0,0,0,0,,,,,,,,,,,,,,,,,,366.45932065768284,366.45932065768284,366.45932065768284,366.45932065768284,s,1,0.500985454331385,366.9760509642656,366.9760509642656,366.9760509642656,368.0011331427668,368.0011331427668,368.0011331427668,,,,,,,,,,,,,,,,,,,,,,,,,116,001,2010-10-16_10h05.20.525,eb_01,2022.2.4,119.97211560041166,
,,,1,0,1,0,87,0,87,0,,,,,,,,,,,,,,,,,,,,,,,,,,,,,,,,,,,,,,,,,,,,,,,,,,,,,,,,,,,116,001,2010-10-16_10h05.20.525,eb_01,2022.2.4,119.97211560041166,
1,stimuli/1.png,s,1,0,1,0,88,0,88,0,0,0,0,0,,,,,,,,,,,,,,,,,,368.0011331427668,368.0011331427668,368.0011331427668,368.0011331427668,s,1,0.8311649641836993,368.85952440602705,368.85952440602705,368.85952440602705,,,,,,,,,,,,,,,,,,,,,,,,,,,,116,001,2010-10-16_10h05.20.525,eb_01,2022.2.4,119.97211560041166,
,,,1,0,1,0,88,0,88,0,,,,,,,,,,,,,,,,,,,,,,,,,,,,,,,,,,,,,,,,,,,,,,,,,,,,,,,,,,,116,001,2010-10-16_10h05.20.525,eb_01,2022.2.4,119.97211560041166,
4,stimuli/4.png,l,1,0,1,0,89,0,89,0,0,0,0,0,,,,,,,,,,,,,,,,,,369.8679502310697,369.8679502310697,369.8679502310697,369.8679502310697,l,1,0.6283770828449633,370.5180071296927,370.5180071296927,370.5180071296927,,,,,,,,,,,,,,,,,,,,,,,,,,,,116,001,2010-10-16_10h05.20.525,eb_01,2022.2.4,119.97211560041166,
,,,1,0,1,0,89,0,89,0,,,,,,,,,,,,,,,,,,,,,,,,,,,,,,,,,,,,,,,,,,,,,,,,,,,,,,,,,,,116,001,2010-10-16_10h05.20.525,eb_01,2022.2.4,119.97211560041166,
1,stimuli/1.png,s,1,0,1,0,90,0,90,0,0,0,0,0,,,,,,,,,,,,,,,,,,371.54307783790864,371.54307783790864,371.54307783790864,371.54307783790864,s,1,0.5692846233141609,372.1431264356652,372.1431264356652,372.1431264356652,,,,,,,,,,,,,,,,,,,,,,,,,,,,116,001,2010-10-16_10h05.20.525,eb_01,2022.2.4,119.97211560041166,
,,,1,0,1,0,90,0,90,0,,,,,,,,,,,,,,,,,,,,,,,,,,,,,,,,,,,,,,,,,,,,,,,,,,,,,,,,,,,116,001,2010-10-16_10h05.20.525,eb_01,2022.2.4,119.97211560041166,
4,stimuli/4.png,l,1,0,1,0,91,0,91,0,0,0,0,0,,,,,,,,,,,,,,,,,,373.1515453181637,373.1515453181637,373.1515453181637,373.1515453181637,l,1,0.4968144988815766,373.6682451379602,373.6682451379602,373.6682451379602,,,,,,,,,,,,,,,,,,,,,,,,,,,,116,001,2010-10-16_10h05.20.525,eb_01,2022.2.4,119.97211560041166,
,,,1,0,1,0,91,0,91,0,,,,,,,,,,,,,,,,,,,,,,,,,,,,,,,,,,,,,,,,,,,,,,,,,,,,,,,,,,,116,001,2010-10-16_10h05.20.525,eb_01,2022.2.4,119.97211560041166,
3,stimuli/3.png,l,1,0,1,0,92,0,92,0,0,0,0,0,,,,,,,,,,,,,,,,,,374.67667881108355,374.67667881108355,374.67667881108355,374.67667881108355,l,1,0.5237968195579015,375.21005671750754,375.21005671750754,375.21005671750754,376.21849310726975,376.21849310726975,376.21849310726975,,,,,,,,,,,,,,,,,,,,,,,,,116,001,2010-10-16_10h05.20.525,eb_01,2022.2.4,119.97211560041166,
,,,1,0,1,0,92,0,92,0,,,,,,,,,,,,,,,,,,,,,,,,,,,,,,,,,,,,,,,,,,,,,,,,,,,,,,,,,,,116,001,2010-10-16_10h05.20.525,eb_01,2022.2.4,119.97211560041166,
2,stimuli/2.png,s,1,0,1,0,93,0,93,0,0,0,0,0,,,,,,,,,,,,,,,,,,376.21849310726975,376.21849310726975,376.21849310726975,376.21849310726975,s,1,0.565962770342594,376.7935724182171,376.7935724182171,376.7935724182171,377.81029729149304,377.81029729149304,377.81029729149304,,,,,,,,,,,,,,,,,,,,,,,,,116,001,2010-10-16_10h05.20.525,eb_01,2022.2.4,119.97211560041166,
,,,1,0,1,0,93,0,93,0,,,,,,,,,,,,,,,,,,,,,,,,,,,,,,,,,,,,,,,,,,,,,,,,,,,,,,,,,,,116,001,2010-10-16_10h05.20.525,eb_01,2022.2.4,119.97211560041166,
4,stimuli/4.png,l,1,0,1,0,94,0,94,0,0,0,0,0,,,,,,,,,,,,,,,,,,377.81029729149304,377.81029729149304,377.81029729149304,377.81029729149304,l,1,0.47819008710212074,378.31033230604953,378.31033230604953,378.31033230604953,,,,,,,,,,,,,,,,,,,,,,,,,,,,116,001,2010-10-16_10h05.20.525,eb_01,2022.2.4,119.97211560041166,
,,,1,0,1,0,94,0,94,0,,,,,,,,,,,,,,,,,,,,,,,,,,,,,,,,,,,,,,,,,,,,,,,,,,,,,,,,,,,116,001,2010-10-16_10h05.20.525,eb_01,2022.2.4,119.97211560041166,
3,stimuli/3.png,l,1,0,1,0,95,0,95,0,0,0,0,0,,,,,,,,,,,,,,,,,,379.31878288273583,379.31878288273583,379.31878288273583,379.31878288273583,l,1,0.9927401352615561,380.3271504508157,380.3271504508157,380.3271504508157,381.3356209495687,381.3356209495687,381.3356209495687,,,,,,,,,,,,,,,,,,,,,,,,,116,001,2010-10-16_10h05.20.525,eb_01,2022.2.4,119.97211560041166,
,,,1,0,1,0,95,0,95,0,,,,,,,,,,,,,,,,,,,,,,,,,,,,,,,,,,,,,,,,,,,,,,,,,,,,,,,,,,,116,001,2010-10-16_10h05.20.525,eb_01,2022.2.4,119.97211560041166,
2,stimuli/2.png,s,1,0,1,0,96,0,96,0,0,0,0,0,,,,,,,,,,,,,,,,,,381.3356209495687,381.3356209495687,381.3356209495687,381.3356209495687,s,1,0.5599517407827079,381.9106815458217,381.9106815458217,381.9106815458217,382.92740279695136,382.92740279695136,382.92740279695136,,,,,,,,,,,,,,,,,,,,,,,,,116,001,2010-10-16_10h05.20.525,eb_01,2022.2.4,119.97211560041166,
,,,1,0,1,0,96,0,96,0,,,,,,,,,,,,,,,,,,,,,,,,,,,,,,,,,,,,,,,,,,,,,,,,,,,,,,,,,,,116,001,2010-10-16_10h05.20.525,eb_01,2022.2.4,119.97211560041166,
4,stimuli/4.png,l,1,0,1,0,97,0,97,0,0,0,0,0,,,,,,,,,,,,,,,,,,382.92740279695136,382.92740279695136,382.92740279695136,382.92740279695136,l,1,0.4003567019535694,383.3440878261172,383.3440878261172,383.3440878261172,,,,,,,,,,,,,,,,,,,,,,,,,,,,116,001,2010-10-16_10h05.20.525,eb_01,2022.2.4,119.97211560041166,
,,,1,0,1,0,97,0,97,0,,,,,,,,,,,,,,,,,,,,,,,,,,,,,,,,,,,,,,,,,,,,,,,,,,,,,,,,,,,116,001,2010-10-16_10h05.20.525,eb_01,2022.2.4,119.97211560041166,
3,stimuli/3.png,l,1,0,1,0,98,0,98,0,0,0,0,0,,,,,,,,,,,,,,,,,,384.3524988605059,384.3524988605059,384.3524988605059,384.3524988605059,l,1,0.5831217031227425,384.95255560820806,384.95255560820806,384.95255560820806,,,,,,,,,,,,,,,,,,,,,,,,,,,,116,001,2010-10-16_10h05.20.525,eb_01,2022.2.4,119.97211560041166,
,,,1,0,1,0,98,0,98,0,,,,,,,,,,,,,,,,,,,,,,,,,,,,,,,,,,,,,,,,,,,,,,,,,,,,,,,,,,,116,001,2010-10-16_10h05.20.525,eb_01,2022.2.4,119.97211560041166,
8,stimuli/8.png,l,1,0,1,0,99,0,99,0,0,0,0,0,,,,,,,,,,,,,,,,,,385.9609769055096,385.9609769055096,385.9609769055096,385.9609769055096,l,1,0.5587558133120183,386.54436733867624,386.54436733867624,386.54436733867624,,,,,,,,,,,,,,,,,,,,,,,,,,,,116,001,2010-10-16_10h05.20.525,eb_01,2022.2.4,119.97211560041166,
,,,1,0,1,0,99,0,99,0,,,,,,,,,,,,,,,,,,,,,,,,,,,,,,,,,,,,,,,,,,,,,,,,,,,,,,,,,,,116,001,2010-10-16_10h05.20.525,eb_01,2022.2.4,119.97211560041166,
,,,1,0,1,0,,,,,,,,,,,,,,,,,,,,,,,,,,,,,,,,,,,,,,,387.5444672508456,387.5444672508456,return,16.718569089251105,,,,,,,,,,,,,,,,,,,,,116,001,2010-10-16_10h05.20.525,eb_01,2022.2.4,119.97211560041166,
9,stimuli/9.png,l,2,0,2,0,0,0,0,0,0,0,0,0,,,,,,,,,,,,,,,,,,404.30422559019644,404.30422559019644,404.30422559019644,404.30422559019644,l,1,1.2228290902858134,405.5543498012412,405.5543498012412,405.5543498012412,,,,,,,,,,,,,,,,,,,,,,,,,,,,116,001,2010-10-16_10h05.20.525,eb_01,2022.2.4,119.97211560041166,
,,,2,0,2,0,0,0,0,0,,,,,,,,,,,,,,,,,,,,,,,,,,,,,,,,,,,,,,,,,,,,,,,,,,,,,,,,,,,116,001,2010-10-16_10h05.20.525,eb_01,2022.2.4,119.97211560041166,
5,stimuli/5.png,s,2,0,2,0,1,0,1,0,0,0,0,0,,,,,,,,,,,,,,,,,,406.5544391486619,406.5544391486619,406.5544391486619,406.5544391486619,s,1,0.6206286079250276,407.19613240324543,407.19613240324543,407.19613240324543,,,,,,,,,,,,,,,,,,,,,,,,,,,,116,001,2010-10-16_10h05.20.525,eb_01,2022.2.4,119.97211560041166,
,,,2,0,2,0,1,0,1,0,,,,,,,,,,,,,,,,,,,,,,,,,,,,,,,,,,,,,,,,,,,,,,,,,,,,,,,,,,,116,001,2010-10-16_10h05.20.525,eb_01,2022.2.4,119.97211560041166,
9,stimuli/9.png,l,2,0,2,0,2,0,2,0,0,0,0,0,,,,,,,,,,,,,,,,,,408.2128771985881,408.2128771985881,408.2128771985881,408.2128771985881,l,1,0.849309435376199,409.08797250755015,409.08797250755015,409.08797250755015,,,,,,,,,,,,,,,,,,,,,,,,,,,,116,001,2010-10-16_10h05.20.525,eb_01,2022.2.4,119.97211560041166,
,,,2,0,2,0,2,0,2,0,,,,,,,,,,,,,,,,,,,,,,,,,,,,,,,,,,,,,,,,,,,,,,,,,,,,,,,,,,,116,001,2010-10-16_10h05.20.525,eb_01,2022.2.4,119.97211560041166,
8,stimuli/8.png,l,2,0,2,0,3,0,3,0,0,0,0,0,,,,,,,,,,,,,,,,,,410.0880588364962,410.0880588364962,410.0880588364962,410.0880588364962,l,1,0.47907480780850165,410.588109547185,410.588109547185,410.588109547185,,,,,,,,,,,,,,,,,,,,,,,,,,,,116,001,2010-10-16_10h05.20.525,eb_01,2022.2.4,119.97211560041166,
,,,2,0,2,0,3,0,3,0,,,,,,,,,,,,,,,,,,,,,,,,,,,,,,,,,,,,,,,,,,,,,,,,,,,,,,,,,,,116,001,2010-10-16_10h05.20.525,eb_01,2022.2.4,119.97211560041166,
3,stimuli/3.png,l,2,0,2,0,4,0,4,0,0,0,0,0,,,,,,,,,,,,,,,,,,411.5965027724742,411.5965027724742,411.5965027724742,411.5965027724742,l,1,0.5136664507735986,412.12158012139844,412.12158012139844,412.12158012139844,413.1299993057328,413.1299993057328,413.1299993057328,,,,,,,,,,,,,,,,,,,,,,,,,116,001,2010-10-16_10h05.20.525,eb_01,2022.2.4,119.97211560041166,
,,,2,0,2,0,4,0,4,0,,,,,,,,,,,,,,,,,,,,,,,,,,,,,,,,,,,,,,,,,,,,,,,,,,,,,,,,,,,116,001,2010-10-16_10h05.20.525,eb_01,2022.2.4,119.97211560041166,
2,stimuli/2.png,s,2,0,2,0,5,0,5,0,0,0,0,0,,,,,,,,,,,,,,,,,,413.1299993057328,413.1299993057328,413.1299993057328,413.1299993057328,s,1,0.5961993297678418,413.7383804570709,413.7383804570709,413.7383804570709,414.74679330256185,414.74679330256185,414.74679330256185,,,,,,,,,,,,,,,,,,,,,,,,,116,001,2010-10-16_10h05.20.525,eb_01,2022.2.4,119.97211560041166,
,,,2,0,2,0,5,0,5,0,,,,,,,,,,,,,,,,,,,,,,,,,,,,,,,,,,,,,,,,,,,,,,,,,,,,,,,,,,,116,001,2010-10-16_10h05.20.525,eb_01,2022.2.4,119.97211560041166,
3,stimuli/3.png,l,2,0,2,0,6,0,6,0,0,0,0,0,,,,,,,,,,,,,,,,,,414.74679330256185,414.74679330256185,414.74679330256185,414.74679330256185,l,1,0.4594201839354355,415.2217992640799,415.2217992640799,415.2217992640799,416.23859778864426,416.23859778864426,416.23859778864426,,,,,,,,,,,,,,,,,,,,,,,,,116,001,2010-10-16_10h05.20.525,eb_01,2022.2.4,119.97211560041166,
,,,2,0,2,0,6,0,6,0,,,,,,,,,,,,,,,,,,,,,,,,,,,,,,,,,,,,,,,,,,,,,,,,,,,,,,,,,,,116,001,2010-10-16_10h05.20.525,eb_01,2022.2.4,119.97211560041166,
4,stimuli/4.png,l,2,0,2,0,7,0,7,0,0,0,0,0,,,,,,,,,,,,,,,,,,416.23859778864426,416.23859778864426,416.23859778864426,416.23859778864426,l,1,0.5996515816950705,416.85531813421403,416.85531813421403,416.85531813421403,,,,,,,,,,,,,,,,,,,,,,,,,,,,116,001,2010-10-16_10h05.20.525,eb_01,2022.2.4,119.97211560041166,
,,,2,0,2,0,7,0,7,0,,,,,,,,,,,,,,,,,,,,,,,,,,,,,,,,,,,,,,,,,,,,,,,,,,,,,,,,,,,116,001,2010-10-16_10h05.20.525,eb_01,2022.2.4,119.97211560041166,
