index,stimulus,correct_answer,block.thisRepN,block.thisTrialN,block.thisN,block.thisIndex,trial.thisRepN,trial.thisTrialN,trial.thisN,trial.thisIndex,display_row.thisRepN,display_row.thisTrialN,display_row.thisN,display_row.thisIndex,pair_questions.thisRepN,pair_questions.thisTrialN,pair_questions.thisN,pair_questions.thisIndex,welcome_text.started,instructions_0_keypress.started,instructions_0_keypress.keys,instructions_0_keypress.rt,instructions_1_keypress.started,instructions_1_text.started,instructions_1_keypress.keys,instructions_1_keypress.rt,instructions_2_keypress.started,instructions_2_text.started,instructions_2_keypress.keys,instructions_2_keypress.rt,text_countdown.started,text_countdown.stopped,image.started,size_question.started,size_resp.started,keypress_options.started,size_resp.keys,size_resp.corr,size_resp.rt,fb_image.started,fb.started,fb_size_question.started,fb_image.stopped,fb.stopped,fb_size_question.stopped,block_break_text.started,block_break_keypress.started,block_break_keypress.keys,block_break_keypress.rt,seq_reveal.started,seq_reveal_adv.started,seq_reveal_adv.keys,seq_reveal_adv.rt,instruction_2afc_text.started,instruction_2afc_keypress.started,instruction_2afc_keypress.keys,instruction_2afc_keypress.rt,dist_2afc_test.started,dist_2afc_resp.started,text.started,stim_00.started,stim_01.started,stim_10.started,stim_11.started,dist_2afc_resp.keys,dist_2afc_resp.rt,graph.started,debrief_text.started,debriefing_title.started,participant,session,date,expName,psychopyVersion,frameRate,
,,,,,,,,,,,,,,,,,,,17.787919345573755,17.787919345573755,return,38.986260577949,,,,,,,,,,,,,,,,,,,,,,,,,,,,,,,,,,,,,,,,,,,,,,,,117,001,2023-03-03_10h23.27.462,eb_01,2022.2.4,60.01217307994686,
,,,,,,,,,,,,,,,,,,,,,,,56.802142231870675,56.802142231870675,return,17.39543531910749,,,,,,,,,,,,,,,,,,,,,,,,,,,,,,,,,,,,,,,,,,,,117,001,2023-03-03_10h23.27.462,eb_01,2022.2.4,60.01217307994686,
,,,,,,,,,,,,,,,,,,,,,,,,,,,74.21768963747309,74.21768963747309,space,11.764193808659911,,,,,,,,,,,,,,,,,,,,,,,,,,,,,,,,,,,,,,,,117,001,2023-03-03_10h23.27.462,eb_01,2022.2.4,60.01217307994686,
4,stimuli/4.png,l,0,0,0,0,0,0,0,0,0,0,0,0,,,,,,,,,,,,,,,,,86.00000362220453,91.01665398894693,91.01665398894693,91.01665398894693,91.01665398894693,91.01665398894693,l,1,7.8364969267568085,98.8995110024407,98.8995110024407,98.8995110024407,,,,,,,,,,,,,,,,,,,,,,,,,,,,117,001,2023-03-03_10h23.27.462,eb_01,2022.2.4,60.01217307994686,
,,,0,0,0,0,0,0,0,0,,,,,,,,,,,,,,,,,,,,,,,,,,,,,,,,,,,,,,,,,,,,,,,,,,,,,,,,,,,,117,001,2023-03-03_10h23.27.462,eb_01,2022.2.4,60.01217307994686,
2,stimuli/2.png,s,0,0,0,0,1,0,1,0,0,0,0,0,,,,,,,,,,,,,,,,,,,99.899458480475,99.899458480475,99.899458480475,99.899458480475,s,1,2.664770040923031,102.58266262186226,102.58266262186226,102.58266262186226,103.59926650367561,103.59926650367561,103.59926650367561,,,,,,,,,,,,,,,,,,,,,,,,,117,001,2023-03-03_10h23.27.462,eb_01,2022.2.4,60.01217307994686,
,,,0,0,0,0,1,0,1,0,,,,,,,,,,,,,,,,,,,,,,,,,,,,,,,,,,,,,,,,,,,,,,,,,,,,,,,,,,,,117,001,2023-03-03_10h23.27.462,eb_01,2022.2.4,60.01217307994686,
4,stimuli/4.png,l,0,0,0,0,2,0,2,0,0,0,0,0,,,,,,,,,,,,,,,,,,,103.59926650367561,103.59926650367561,103.59926650367561,103.59926650367561,l,1,2.0770278815180063,105.69913036914659,105.69913036914659,105.69913036914659,106.69907663980848,106.69907663980848,106.69907663980848,,,,,,,,,,,,,,,,,,,,,,,,,117,001,2023-03-03_10h23.27.462,eb_01,2022.2.4,60.01217307994686,
,,,0,0,0,0,2,0,2,0,,,,,,,,,,,,,,,,,,,,,,,,,,,,,,,,,,,,,,,,,,,,,,,,,,,,,,,,,,,,117,001,2023-03-03_10h23.27.462,eb_01,2022.2.4,60.01217307994686,
3,stimuli/3.png,l,0,0,0,0,3,0,3,0,0,0,0,0,,,,,,,,,,,,,,,,,,,106.69907663980848,106.69907663980848,106.69907663980848,106.69907663980848,l,1,0.9372947172087152,107.66566271241754,107.66566271241754,107.66566271241754,108.68226357572712,108.68226357572712,108.68226357572712,,,,,,,,,,,,,,,,,,,,,,,,,117,001,2023-03-03_10h23.27.462,eb_01,2022.2.4,60.01217307994686,
,,,0,0,0,0,3,0,3,0,,,,,,,,,,,,,,,,,,,,,,,,,,,,,,,,,,,,,,,,,,,,,,,,,,,,,,,,,,,,117,001,2023-03-03_10h23.27.462,eb_01,2022.2.4,60.01217307994686,
4,stimuli/4.png,l,0,0,0,0,4,0,4,0,0,0,0,0,,,,,,,,,,,,,,,,,,,108.68226357572712,108.68226357572712,108.68226357572712,108.68226357572712,l,1,0.8181263149308506,109.53222282591742,109.53222282591742,109.53222282591742,110.54884149838472,110.54884149838472,110.54884149838472,,,,,,,,,,,,,,,,,,,,,,,,,117,001,2023-03-03_10h23.27.462,eb_01,2022.2.4,60.01217307994686,
,,,0,0,0,0,4,0,4,0,,,,,,,,,,,,,,,,,,,,,,,,,,,,,,,,,,,,,,,,,,,,,,,,,,,,,,,,,,,,117,001,2023-03-03_10h23.27.462,eb_01,2022.2.4,60.01217307994686,
1,stimuli/1.png,s,0,0,0,0,5,0,5,0,0,0,0,0,,,,,,,,,,,,,,,,,,,110.54884149838472,110.54884149838472,110.54884149838472,110.54884149838472,s,1,0.9996265110967215,111.58208337106043,111.58208337106043,111.58208337106043,,,,,,,,,,,,,,,,,,,,,,,,,,,,117,001,2023-03-03_10h23.27.462,eb_01,2022.2.4,60.01217307994686,
,,,0,0,0,0,5,0,5,0,,,,,,,,,,,,,,,,,,,,,,,,,,,,,,,,,,,,,,,,,,,,,,,,,,,,,,,,,,,,117,001,2023-03-03_10h23.27.462,eb_01,2022.2.4,60.01217307994686,
2,stimuli/2.png,s,0,0,0,0,6,0,6,0,0,0,0,0,,,,,,,,,,,,,,,,,,,112.58203899906948,112.58203899906948,112.58203899906948,112.58203899906948,s,1,1.1824566599098034,113.78195840501576,113.78195840501576,113.78195840501576,114.79856560716871,114.79856560716871,114.79856560716871,,,,,,,,,,,,,,,,,,,,,,,,,117,001,2023-03-03_10h23.27.462,eb_01,2022.2.4,60.01217307994686,
,,,0,0,0,0,6,0,6,0,,,,,,,,,,,,,,,,,,,,,,,,,,,,,,,,,,,,,,,,,,,,,,,,,,,,,,,,,,,,117,001,2023-03-03_10h23.27.462,eb_01,2022.2.4,60.01217307994686,
4,stimuli/4.png,l,0,0,0,0,7,0,7,0,0,0,0,0,,,,,,,,,,,,,,,,,,,114.79856560716871,114.79856560716871,114.79856560716871,114.79856560716871,l,1,0.7501499196223449,115.56519061847939,115.56519061847939,115.56519061847939,116.56511002444313,116.56511002444313,116.56511002444313,,,,,,,,,,,,,,,,,,,,,,,,,117,001,2023-03-03_10h23.27.462,eb_01,2022.2.4,60.01217307994686,
,,,0,0,0,0,7,0,7,0,,,,,,,,,,,,,,,,,,,,,,,,,,,,,,,,,,,,,,,,,,,,,,,,,,,,,,,,,,,,117,001,2023-03-03_10h23.27.462,eb_01,2022.2.4,60.01217307994686,
2,stimuli/2.png,s,0,0,0,0,8,0,8,0,0,0,0,0,,,,,,,,,,,,,,,,,,,116.56511002444313,116.56511002444313,116.56511002444313,116.56511002444313,s,1,0.8545098459580913,117.44840079688584,117.44840079688584,117.44840079688584,118.46501343234559,118.46501343234559,118.46501343234559,,,,,,,,,,,,,,,,,,,,,,,,,117,001,2023-03-03_10h23.27.462,eb_01,2022.2.4,60.01217307994686,
,,,0,0,0,0,8,0,8,0,,,,,,,,,,,,,,,,,,,,,,,,,,,,,,,,,,,,,,,,,,,,,,,,,,,,,,,,,,,,117,001,2023-03-03_10h23.27.462,eb_01,2022.2.4,60.01217307994686,
4,stimuli/4.png,l,0,0,0,0,9,0,9,0,0,0,0,0,,,,,,,,,,,,,,,,,,,118.46501343234559,118.46501343234559,118.46501343234559,118.46501343234559,l,1,0.6585905607498717,119.1483014881087,119.1483014881087,119.1483014881087,120.1482402124966,120.1482402124966,120.1482402124966,,,,,,,,,,,,,,,,,,,,,,,,,117,001,2023-03-03_10h23.27.462,eb_01,2022.2.4,60.01217307994686,
,,,0,0,0,0,9,0,9,0,,,,,,,,,,,,,,,,,,,,,,,,,,,,,,,,,,,,,,,,,,,,,,,,,,,,,,,,,,,,117,001,2023-03-03_10h23.27.462,eb_01,2022.2.4,60.01217307994686,
2,stimuli/2.png,s,0,0,0,0,10,0,10,0,0,0,0,0,,,,,,,,,,,,,,,,,,,120.1482402124966,120.1482402124966,120.1482402124966,120.1482402124966,s,1,0.6954383375996258,120.86485375350458,120.86485375350458,120.86485375350458,121.88146427599713,121.88146427599713,121.88146427599713,,,,,,,,,,,,,,,,,,,,,,,,,117,001,2023-03-03_10h23.27.462,eb_01,2022.2.4,60.01217307994686,
,,,0,0,0,0,10,0,10,0,,,,,,,,,,,,,,,,,,,,,,,,,,,,,,,,,,,,,,,,,,,,,,,,,,,,,,,,,,,,117,001,2023-03-03_10h23.27.462,eb_01,2022.2.4,60.01217307994686,
1,stimuli/1.png,s,0,0,0,0,11,0,11,0,0,0,0,0,,,,,,,,,,,,,,,,,,,121.88146427599713,121.88146427599713,121.88146427599713,121.88146427599713,s,1,0.7302510394656565,122.64810136135202,122.64810136135202,122.64810136135202,,,,,,,,,,,,,,,,,,,,,,,,,,,,117,001,2023-03-03_10h23.27.462,eb_01,2022.2.4,60.01217307994686,
,,,0,0,0,0,11,0,11,0,,,,,,,,,,,,,,,,,,,,,,,,,,,,,,,,,,,,,,,,,,,,,,,,,,,,,,,,,,,,117,001,2023-03-03_10h23.27.462,eb_01,2022.2.4,60.01217307994686,
4,stimuli/4.png,l,0,0,0,0,12,0,12,0,0,0,0,0,,,,,,,,,,,,,,,,,,,123.66471067644306,123.66471067644306,123.66471067644306,123.66471067644306,l,1,0.7870360314846039,124.48131999155157,124.48131999155157,124.48131999155157,125.49787044583354,125.49787044583354,125.49787044583354,,,,,,,,,,,,,,,,,,,,,,,,,117,001,2023-03-03_10h23.27.462,eb_01,2022.2.4,60.01217307994686,
,,,0,0,0,0,12,0,12,0,,,,,,,,,,,,,,,,,,,,,,,,,,,,,,,,,,,,,,,,,,,,,,,,,,,,,,,,,,,,117,001,2023-03-03_10h23.27.462,eb_01,2022.2.4,60.01217307994686,
1,stimuli/1.png,s,0,0,0,0,13,0,13,0,0,0,0,0,,,,,,,,,,,,,,,,,,,125.49787044583354,125.49787044583354,125.49787044583354,125.49787044583354,s,1,0.7859143555979244,126.33117208487238,126.33117208487238,126.33117208487238,,,,,,,,,,,,,,,,,,,,,,,,,,,,117,001,2023-03-03_10h23.27.462,eb_01,2022.2.4,60.01217307994686,
,,,0,0,0,0,13,0,13,0,,,,,,,,,,,,,,,,,,,,,,,,,,,,,,,,,,,,,,,,,,,,,,,,,,,,,,,,,,,,117,001,2023-03-03_10h23.27.462,eb_01,2022.2.4,60.01217307994686,
4,stimuli/4.png,l,0,0,0,0,14,0,14,0,0,0,0,0,,,,,,,,,,,,,,,,,,,127.34782094237744,127.34782094237744,127.34782094237744,127.34782094237744,l,1,0.616005816264078,127.9810981315386,127.9810981315386,127.9810981315386,128.99766911164625,128.99766911164625,128.99766911164625,,,,,,,,,,,,,,,,,,,,,,,,,117,001,2023-03-03_10h23.27.462,eb_01,2022.2.4,60.01217307994686,
,,,0,0,0,0,14,0,14,0,,,,,,,,,,,,,,,,,,,,,,,,,,,,,,,,,,,,,,,,,,,,,,,,,,,,,,,,,,,,117,001,2023-03-03_10h23.27.462,eb_01,2022.2.4,60.01217307994686,
1,stimuli/1.png,s,0,0,0,0,15,0,15,0,0,0,0,0,,,,,,,,,,,,,,,,,,,128.99766911164625,128.99766911164625,128.99766911164625,128.99766911164625,s,1,0.9261932653025724,129.96428114341688,129.96428114341688,129.96428114341688,,,,,,,,,,,,,,,,,,,,,,,,,,,,117,001,2023-03-03_10h23.27.462,eb_01,2022.2.4,60.01217307994686,
,,,0,0,0,0,15,0,15,0,,,,,,,,,,,,,,,,,,,,,,,,,,,,,,,,,,,,,,,,,,,,,,,,,,,,,,,,,,,,117,001,2023-03-03_10h23.27.462,eb_01,2022.2.4,60.01217307994686,
2,stimuli/2.png,s,0,0,0,0,16,0,16,0,0,0,0,0,,,,,,,,,,,,,,,,,,,130.96427088050405,130.96427088050405,130.96427088050405,130.96427088050405,s,1,1.006703090533847,131.9974867940473,131.9974867940473,131.9974867940473,133.01410939055495,133.01410939055495,133.01410939055495,,,,,,,,,,,,,,,,,,,,,,,,,117,001,2023-03-03_10h23.27.462,eb_01,2022.2.4,60.01217307994686,
,,,0,0,0,0,16,0,16,0,,,,,,,,,,,,,,,,,,,,,,,,,,,,,,,,,,,,,,,,,,,,,,,,,,,,,,,,,,,,117,001,2023-03-03_10h23.27.462,eb_01,2022.2.4,60.01217307994686,
1,stimuli/1.png,s,0,0,0,0,17,0,17,0,0,0,0,0,,,,,,,,,,,,,,,,,,,133.01410939055495,133.01410939055495,133.01410939055495,133.01410939055495,s,1,0.8208668141451199,133.88071236680844,133.88071236680844,133.88071236680844,,,,,,,,,,,,,,,,,,,,,,,,,,,,117,001,2023-03-03_10h23.27.462,eb_01,2022.2.4,60.01217307994686,
,,,0,0,0,0,17,0,17,0,,,,,,,,,,,,,,,,,,,,,,,,,,,,,,,,,,,,,,,,,,,,,,,,,,,,,,,,,,,,117,001,2023-03-03_10h23.27.462,eb_01,2022.2.4,60.01217307994686,
2,stimuli/2.png,s,0,0,0,0,18,0,18,0,0,0,0,0,,,,,,,,,,,,,,,,,,,134.8806758428982,134.8806758428982,134.8806758428982,134.8806758428982,s,1,0.6983092362352181,135.59729874128243,135.59729874128243,135.59729874128243,136.61387304172968,136.61387304172968,136.61387304172968,,,,,,,,,,,,,,,,,,,,,,,,,117,001,2023-03-03_10h23.27.462,eb_01,2022.2.4,60.01217307994686,
,,,0,0,0,0,18,0,18,0,,,,,,,,,,,,,,,,,,,,,,,,,,,,,,,,,,,,,,,,,,,,,,,,,,,,,,,,,,,,117,001,2023-03-03_10h23.27.462,eb_01,2022.2.4,60.01217307994686,
4,stimuli/4.png,l,0,0,0,0,19,0,19,0,0,0,0,0,,,,,,,,,,,,,,,,,,,136.61387304172968,136.61387304172968,136.61387304172968,136.61387304172968,l,1,0.6211665515438654,137.26383349933894,137.26383349933894,137.26383349933894,138.26380210689967,138.26380210689967,138.26380210689967,,,,,,,,,,,,,,,,,,,,,,,,,117,001,2023-03-03_10h23.27.462,eb_01,2022.2.4,60.01217307994686,
,,,0,0,0,0,19,0,19,0,,,,,,,,,,,,,,,,,,,,,,,,,,,,,,,,,,,,,,,,,,,,,,,,,,,,,,,,,,,,117,001,2023-03-03_10h23.27.462,eb_01,2022.2.4,60.01217307994686,
2,stimuli/2.png,s,0,0,0,0,20,0,20,0,0,0,0,0,,,,,,,,,,,,,,,,,,,138.26380210689967,138.26380210689967,138.26380210689967,138.26380210689967,s,1,0.7952828846755438,139.0804059887014,139.0804059887014,139.0804059887014,140.09699357059435,140.09699357059435,140.09699357059435,,,,,,,,,,,,,,,,,,,,,,,,,117,001,2023-03-03_10h23.27.462,eb_01,2022.2.4,60.01217307994686,
,,,0,0,0,0,20,0,20,0,,,,,,,,,,,,,,,,,,,,,,,,,,,,,,,,,,,,,,,,,,,,,,,,,,,,,,,,,,,,117,001,2023-03-03_10h23.27.462,eb_01,2022.2.4,60.01217307994686,
4,stimuli/4.png,l,0,0,0,0,21,0,21,0,0,0,0,0,,,,,,,,,,,,,,,,,,,140.09699357059435,140.09699357059435,140.09699357059435,140.09699357059435,l,1,0.7141563792247325,140.83030728364247,140.83030728364247,140.83030728364247,141.82989586162148,141.82989586162148,141.82989586162148,,,,,,,,,,,,,,,,,,,,,,,,,117,001,2023-03-03_10h23.27.462,eb_01,2022.2.4,60.01217307994686,
,,,0,0,0,0,21,0,21,0,,,,,,,,,,,,,,,,,,,,,,,,,,,,,,,,,,,,,,,,,,,,,,,,,,,,,,,,,,,,117,001,2023-03-03_10h23.27.462,eb_01,2022.2.4,60.01217307994686,
3,stimuli/3.png,l,0,0,0,0,22,0,22,0,0,0,0,0,,,,,,,,,,,,,,,,,,,141.82989586162148,141.82989586162148,141.82989586162148,141.82989586162148,l,1,0.7652403237589169,142.61352138608345,142.61352138608345,142.61352138608345,143.63014760482474,143.63014760482474,143.63014760482474,,,,,,,,,,,,,,,,,,,,,,,,,117,001,2023-03-03_10h23.27.462,eb_01,2022.2.4,60.01217307994686,
,,,0,0,0,0,22,0,22,0,,,,,,,,,,,,,,,,,,,,,,,,,,,,,,,,,,,,,,,,,,,,,,,,,,,,,,,,,,,,117,001,2023-03-03_10h23.27.462,eb_01,2022.2.4,60.01217307994686,
8,stimuli/8.png,l,0,0,0,0,23,0,23,0,0,0,0,0,,,,,,,,,,,,,,,,,,,143.63014760482474,143.63014760482474,143.63014760482474,143.63014760482474,l,1,1.1091112525900826,144.76340849406552,144.76340849406552,144.76340849406552,145.7799951703928,145.7799951703928,145.7799951703928,,,,,,,,,,,,,,,,,,,,,,,,,117,001,2023-03-03_10h23.27.462,eb_01,2022.2.4,60.01217307994686,
,,,0,0,0,0,23,0,23,0,,,,,,,,,,,,,,,,,,,,,,,,,,,,,,,,,,,,,,,,,,,,,,,,,,,,,,,,,,,,117,001,2023-03-03_10h23.27.462,eb_01,2022.2.4,60.01217307994686,
6,stimuli/6.png,s,0,0,0,0,24,0,24,0,0,0,0,0,,,,,,,,,,,,,,,,,,,145.7799951703928,145.7799951703928,145.7799951703928,145.7799951703928,s,1,0.8472271027567331,146.66326270034187,146.66326270034187,146.66326270034187,,,,,,,,,,,,,,,,,,,,,,,,,,,,117,001,2023-03-03_10h23.27.462,eb_01,2022.2.4,60.01217307994686,
,,,0,0,0,0,24,0,24,0,,,,,,,,,,,,,,,,,,,,,,,,,,,,,,,,,,,,,,,,,,,,,,,,,,,,,,,,,,,,117,001,2023-03-03_10h23.27.462,eb_01,2022.2.4,60.01217307994686,
5,stimuli/5.png,s,0,0,0,0,25,0,25,0,0,0,0,0,,,,,,,,,,,,,,,,,,,147.66290470585227,147.66290470585227,147.66290470585227,147.66290470585227,s,1,0.955419622885529,148.64647499169223,148.64647499169223,148.64647499169223,149.6630966826633,149.6630966826633,149.6630966826633,,,,,,,,,,,,,,,,,,,,,,,,,117,001,2023-03-03_10h23.27.462,eb_01,2022.2.4,60.01217307994686,
,,,0,0,0,0,25,0,25,0,,,,,,,,,,,,,,,,,,,,,,,,,,,,,,,,,,,,,,,,,,,,,,,,,,,,,,,,,,,,117,001,2023-03-03_10h23.27.462,eb_01,2022.2.4,60.01217307994686,
9,stimuli/9.png,l,0,0,0,0,26,0,26,0,0,0,0,0,,,,,,,,,,,,,,,,,,,149.6630966826633,149.6630966826633,149.6630966826633,149.6630966826633,l,1,0.9312522770778742,150.62968335897312,150.62968335897312,150.62968335897312,,,,,,,,,,,,,,,,,,,,,,,,,,,,117,001,2023-03-03_10h23.27.462,eb_01,2022.2.4,60.01217307994686,
,,,0,0,0,0,26,0,26,0,,,,,,,,,,,,,,,,,,,,,,,,,,,,,,,,,,,,,,,,,,,,,,,,,,,,,,,,,,,,117,001,2023-03-03_10h23.27.462,eb_01,2022.2.4,60.01217307994686,
8,stimuli/8.png,l,0,0,0,0,27,0,27,0,0,0,0,0,,,,,,,,,,,,,,,,,,,151.64630806844798,151.64630806844798,151.64630806844798,151.64630806844798,l,1,1.3400895495142322,153.01290742249694,153.01290742249694,153.01290742249694,154.01285067462595,154.01285067462595,154.01285067462595,,,,,,,,,,,,,,,,,,,,,,,,,117,001,2023-03-03_10h23.27.462,eb_01,2022.2.4,60.01217307994686,
,,,0,0,0,0,27,0,27,0,,,,,,,,,,,,,,,,,,,,,,,,,,,,,,,,,,,,,,,,,,,,,,,,,,,,,,,,,,,,117,001,2023-03-03_10h23.27.462,eb_01,2022.2.4,60.01217307994686,
3,stimuli/3.png,l,0,0,0,0,28,0,28,0,0,0,0,0,,,,,,,,,,,,,,,,,,,154.01285067462595,154.01285067462595,154.01285067462595,154.01285067462595,l,1,0.7575983786373399,154.79612876934698,154.79612876934698,154.79612876934698,155.79605059011374,155.79605059011374,155.79605059011374,,,,,,,,,,,,,,,,,,,,,,,,,117,001,2023-03-03_10h23.27.462,eb_01,2022.2.4,60.01217307994686,
,,,0,0,0,0,28,0,28,0,,,,,,,,,,,,,,,,,,,,,,,,,,,,,,,,,,,,,,,,,,,,,,,,,,,,,,,,,,,,117,001,2023-03-03_10h23.27.462,eb_01,2022.2.4,60.01217307994686,
2,stimuli/2.png,s,0,0,0,0,29,0,29,0,0,0,0,0,,,,,,,,,,,,,,,,,,,155.79605059011374,155.79605059011374,155.79605059011374,155.79605059011374,s,1,0.7024463970155921,156.52934468290186,156.52934468290186,156.52934468290186,157.5459395091748,157.5459395091748,157.5459395091748,,,,,,,,,,,,,,,,,,,,,,,,,117,001,2023-03-03_10h23.27.462,eb_01,2022.2.4,60.01217307994686,
,,,0,0,0,0,29,0,29,0,,,,,,,,,,,,,,,,,,,,,,,,,,,,,,,,,,,,,,,,,,,,,,,,,,,,,,,,,,,,117,001,2023-03-03_10h23.27.462,eb_01,2022.2.4,60.01217307994686,
1,stimuli/1.png,s,0,0,0,0,30,0,30,0,0,0,0,0,,,,,,,,,,,,,,,,,,,157.5459395091748,157.5459395091748,157.5459395091748,157.5459395091748,s,1,0.7926030573435128,158.37923299826798,158.37923299826798,158.37923299826798,,,,,,,,,,,,,,,,,,,,,,,,,,,,117,001,2023-03-03_10h23.27.462,eb_01,2022.2.4,60.01217307994686,
,,,0,0,0,0,30,0,30,0,,,,,,,,,,,,,,,,,,,,,,,,,,,,,,,,,,,,,,,,,,,,,,,,,,,,,,,,,,,,117,001,2023-03-03_10h23.27.462,eb_01,2022.2.4,60.01217307994686,
4,stimuli/4.png,l,0,0,0,0,31,0,31,0,0,0,0,0,,,,,,,,,,,,,,,,,,,159.3958386911836,159.3958386911836,159.3958386911836,159.3958386911836,l,1,0.8227367770450655,160.24579431916936,160.24579431916936,160.24579431916936,161.24573032688932,161.24573032688932,161.24573032688932,,,,,,,,,,,,,,,,,,,,,,,,,117,001,2023-03-03_10h23.27.462,eb_01,2022.2.4,60.01217307994686,
,,,0,0,0,0,31,0,31,0,,,,,,,,,,,,,,,,,,,,,,,,,,,,,,,,,,,,,,,,,,,,,,,,,,,,,,,,,,,,117,001,2023-03-03_10h23.27.462,eb_01,2022.2.4,60.01217307994686,
2,stimuli/2.png,s,0,0,0,0,32,0,32,0,0,0,0,0,,,,,,,,,,,,,,,,,,,161.24573032688932,161.24573032688932,161.24573032688932,161.24573032688932,s,1,0.908897542511113,162.17900208276114,162.17900208276114,162.17900208276114,163.1956159256224,163.1956159256224,163.1956159256224,,,,,,,,,,,,,,,,,,,,,,,,,117,001,2023-03-03_10h23.27.462,eb_01,2022.2.4,60.01217307994686,
,,,0,0,0,0,32,0,32,0,,,,,,,,,,,,,,,,,,,,,,,,,,,,,,,,,,,,,,,,,,,,,,,,,,,,,,,,,,,,117,001,2023-03-03_10h23.27.462,eb_01,2022.2.4,60.01217307994686,
4,stimuli/4.png,l,0,0,0,0,33,0,33,0,0,0,0,0,,,,,,,,,,,,,,,,,,,163.1956159256224,163.1956159256224,163.1956159256224,163.1956159256224,l,1,0.6710382651654072,163.89558453319478,163.89558453319478,163.89558453319478,164.9121935464209,164.9121935464209,164.9121935464209,,,,,,,,,,,,,,,,,,,,,,,,,117,001,2023-03-03_10h23.27.462,eb_01,2022.2.4,60.01217307994686,
,,,0,0,0,0,33,0,33,0,,,,,,,,,,,,,,,,,,,,,,,,,,,,,,,,,,,,,,,,,,,,,,,,,,,,,,,,,,,,117,001,2023-03-03_10h23.27.462,eb_01,2022.2.4,60.01217307994686,
1,stimuli/1.png,s,0,0,0,0,34,0,34,0,0,0,0,0,,,,,,,,,,,,,,,,,,,164.9121935464209,164.9121935464209,164.9121935464209,164.9121935464209,s,1,0.7615124720614403,165.7121349874651,165.7121349874651,165.7121349874651,,,,,,,,,,,,,,,,,,,,,,,,,,,,117,001,2023-03-03_10h23.27.462,eb_01,2022.2.4,60.01217307994686,
,,,0,0,0,0,34,0,34,0,,,,,,,,,,,,,,,,,,,,,,,,,,,,,,,,,,,,,,,,,,,,,,,,,,,,,,,,,,,,117,001,2023-03-03_10h23.27.462,eb_01,2022.2.4,60.01217307994686,
2,stimuli/2.png,s,0,0,0,0,35,0,35,0,0,0,0,0,,,,,,,,,,,,,,,,,,,166.71204231941374,166.71204231941374,166.71204231941374,166.71204231941374,s,1,1.0176998003735207,167.76198285489227,167.76198285489227,167.76198285489227,168.77858130336972,168.77858130336972,168.77858130336972,,,,,,,,,,,,,,,,,,,,,,,,,117,001,2023-03-03_10h23.27.462,eb_01,2022.2.4,60.01217307994686,
,,,0,0,0,0,35,0,35,0,,,,,,,,,,,,,,,,,,,,,,,,,,,,,,,,,,,,,,,,,,,,,,,,,,,,,,,,,,,,117,001,2023-03-03_10h23.27.462,eb_01,2022.2.4,60.01217307994686,
1,stimuli/1.png,s,0,0,0,0,36,0,36,0,0,0,0,0,,,,,,,,,,,,,,,,,,,168.77858130336972,168.77858130336972,168.77858130336972,168.77858130336972,s,1,0.9112085087399464,169.72853179991944,169.72853179991944,169.72853179991944,,,,,,,,,,,,,,,,,,,,,,,,,,,,117,001,2023-03-03_10h23.27.462,eb_01,2022.2.4,60.01217307994686,
,,,0,0,0,0,36,0,36,0,,,,,,,,,,,,,,,,,,,,,,,,,,,,,,,,,,,,,,,,,,,,,,,,,,,,,,,,,,,,117,001,2023-03-03_10h23.27.462,eb_01,2022.2.4,60.01217307994686,
4,stimuli/4.png,l,0,0,0,0,37,0,37,0,0,0,0,0,,,,,,,,,,,,,,,,,,,170.74513447433128,170.74513447433128,170.74513447433128,170.74513447433128,l,1,0.7287022453674581,171.495093120815,171.495093120815,171.495093120815,172.5117193395563,172.5117193395563,172.5117193395563,,,,,,,,,,,,,,,,,,,,,,,,,117,001,2023-03-03_10h23.27.462,eb_01,2022.2.4,60.01217307994686,
,,,0,0,0,0,37,0,37,0,,,,,,,,,,,,,,,,,,,,,,,,,,,,,,,,,,,,,,,,,,,,,,,,,,,,,,,,,,,,117,001,2023-03-03_10h23.27.462,eb_01,2022.2.4,60.01217307994686,
1,stimuli/1.png,s,0,0,0,0,38,0,38,0,0,0,0,0,,,,,,,,,,,,,,,,,,,172.5117193395563,172.5117193395563,172.5117193395563,172.5117193395563,s,1,0.8581574054842349,173.4116408584523,173.4116408584523,173.4116408584523,,,,,,,,,,,,,,,,,,,,,,,,,,,,117,001,2023-03-03_10h23.27.462,eb_01,2022.2.4,60.01217307994686,
,,,0,0,0,0,38,0,38,0,,,,,,,,,,,,,,,,,,,,,,,,,,,,,,,,,,,,,,,,,,,,,,,,,,,,,,,,,,,,117,001,2023-03-03_10h23.27.462,eb_01,2022.2.4,60.01217307994686,
2,stimuli/2.png,s,0,0,0,0,39,0,39,0,0,0,0,0,,,,,,,,,,,,,,,,,,,174.4116091641772,174.4116091641772,174.4116091641772,174.4116091641772,s,1,0.8863046480691992,175.32822179963114,175.32822179963114,175.32822179963114,176.32815086480696,176.32815086480696,176.32815086480696,,,,,,,,,,,,,,,,,,,,,,,,,117,001,2023-03-03_10h23.27.462,eb_01,2022.2.4,60.01217307994686,
,,,0,0,0,0,39,0,39,0,,,,,,,,,,,,,,,,,,,,,,,,,,,,,,,,,,,,,,,,,,,,,,,,,,,,,,,,,,,,117,001,2023-03-03_10h23.27.462,eb_01,2022.2.4,60.01217307994686,
3,stimuli/3.png,l,0,0,0,0,40,0,40,0,0,0,0,0,,,,,,,,,,,,,,,,,,,176.32815086480696,176.32815086480696,176.32815086480696,176.32815086480696,l,1,0.8258120283135213,177.17810890759574,177.17810890759574,177.17810890759574,178.17802982279682,178.17802982279682,178.17802982279682,,,,,,,,,,,,,,,,,,,,,,,,,117,001,2023-03-03_10h23.27.462,eb_01,2022.2.4,60.01217307994686,
,,,0,0,0,0,40,0,40,0,,,,,,,,,,,,,,,,,,,,,,,,,,,,,,,,,,,,,,,,,,,,,,,,,,,,,,,,,,,,117,001,2023-03-03_10h23.27.462,eb_01,2022.2.4,60.01217307994686,
2,stimuli/2.png,s,0,0,0,0,41,0,41,0,0,0,0,0,,,,,,,,,,,,,,,,,,,178.17802982279682,178.17802982279682,178.17802982279682,178.17802982279682,s,1,0.6709890635684133,178.8780029581394,178.8780029581394,178.8780029581394,179.89459657701082,179.89459657701082,179.89459657701082,,,,,,,,,,,,,,,,,,,,,,,,,117,001,2023-03-03_10h23.27.462,eb_01,2022.2.4,60.01217307994686,
,,,0,0,0,0,41,0,41,0,,,,,,,,,,,,,,,,,,,,,,,,,,,,,,,,,,,,,,,,,,,,,,,,,,,,,,,,,,,,117,001,2023-03-03_10h23.27.462,eb_01,2022.2.4,60.01217307994686,
1,stimuli/1.png,s,0,0,0,0,42,0,42,0,0,0,0,0,,,,,,,,,,,,,,,,,,,179.89459657701082,179.89459657701082,179.89459657701082,179.89459657701082,s,1,0.6904617310210597,180.6278988197446,180.6278988197446,180.6278988197446,,,,,,,,,,,,,,,,,,,,,,,,,,,,117,001,2023-03-03_10h23.27.462,eb_01,2022.2.4,60.01217307994686,
,,,0,0,0,0,42,0,42,0,,,,,,,,,,,,,,,,,,,,,,,,,,,,,,,,,,,,,,,,,,,,,,,,,,,,,,,,,,,,117,001,2023-03-03_10h23.27.462,eb_01,2022.2.4,60.01217307994686,
4,stimuli/4.png,l,0,0,0,0,43,0,43,0,0,0,0,0,,,,,,,,,,,,,,,,,,,181.64450934226625,181.64450934226625,181.64450934226625,181.64450934226625,l,1,0.6365714837738778,182.31112046845374,182.31112046845374,182.31112046845374,183.31106885205372,183.31106885205372,183.31106885205372,,,,,,,,,,,,,,,,,,,,,,,,,117,001,2023-03-03_10h23.27.462,eb_01,2022.2.4,60.01217307994686,
,,,0,0,0,0,43,0,43,0,,,,,,,,,,,,,,,,,,,,,,,,,,,,,,,,,,,,,,,,,,,,,,,,,,,,,,,,,,,,117,001,2023-03-03_10h23.27.462,eb_01,2022.2.4,60.01217307994686,
3,stimuli/3.png,l,0,0,0,0,44,0,44,0,0,0,0,0,,,,,,,,,,,,,,,,,,,183.31106885205372,183.31106885205372,183.31106885205372,183.31106885205372,l,1,0.8260867121280171,184.1610169337946,184.1610169337946,184.1610169337946,185.16064656342496,185.16064656342496,185.16064656342496,,,,,,,,,,,,,,,,,,,,,,,,,117,001,2023-03-03_10h23.27.462,eb_01,2022.2.4,60.01217307994686,
,,,0,0,0,0,44,0,44,0,,,,,,,,,,,,,,,,,,,,,,,,,,,,,,,,,,,,,,,,,,,,,,,,,,,,,,,,,,,,117,001,2023-03-03_10h23.27.462,eb_01,2022.2.4,60.01217307994686,
8,stimuli/8.png,l,0,0,0,0,45,0,45,0,0,0,0,0,,,,,,,,,,,,,,,,,,,185.16064656342496,185.16064656342496,185.16064656342496,185.16064656342496,l,1,0.8085353221104015,185.99422016963945,185.99422016963945,185.99422016963945,186.99419662531,186.99419662531,186.99419662531,,,,,,,,,,,,,,,,,,,,,,,,,117,001,2023-03-03_10h23.27.462,eb_01,2022.2.4,60.01217307994686,
,,,0,0,0,0,45,0,45,0,,,,,,,,,,,,,,,,,,,,,,,,,,,,,,,,,,,,,,,,,,,,,,,,,,,,,,,,,,,,117,001,2023-03-03_10h23.27.462,eb_01,2022.2.4,60.01217307994686,
3,stimuli/3.png,l,0,0,0,0,46,0,46,0,0,0,0,0,,,,,,,,,,,,,,,,,,,186.99419662531,186.99419662531,186.99419662531,186.99419662531,l,1,0.8390237159910612,187.86078058497515,187.86078058497515,187.86078058497515,188.86071508345776,188.86071508345776,188.86071508345776,,,,,,,,,,,,,,,,,,,,,,,,,117,001,2023-03-03_10h23.27.462,eb_01,2022.2.4,60.01217307994686,
,,,0,0,0,0,46,0,46,0,,,,,,,,,,,,,,,,,,,,,,,,,,,,,,,,,,,,,,,,,,,,,,,,,,,,,,,,,,,,117,001,2023-03-03_10h23.27.462,eb_01,2022.2.4,60.01217307994686,
2,stimuli/2.png,s,0,0,0,0,47,0,47,0,0,0,0,0,,,,,,,,,,,,,,,,,,,188.86071508345776,188.86071508345776,188.86071508345776,188.86071508345776,s,1,0.7485558479675092,189.6273419058707,189.6273419058707,189.6273419058707,190.62728998760576,190.62728998760576,190.62728998760576,,,,,,,,,,,,,,,,,,,,,,,,,117,001,2023-03-03_10h23.27.462,eb_01,2022.2.4,60.01217307994686,
,,,0,0,0,0,47,0,47,0,,,,,,,,,,,,,,,,,,,,,,,,,,,,,,,,,,,,,,,,,,,,,,,,,,,,,,,,,,,,117,001,2023-03-03_10h23.27.462,eb_01,2022.2.4,60.01217307994686,
3,stimuli/3.png,l,0,0,0,0,48,0,48,0,0,0,0,0,,,,,,,,,,,,,,,,,,,190.62728998760576,190.62728998760576,190.62728998760576,190.62728998760576,l,1,0.766091239900561,191.41056747862604,191.41056747862604,191.41056747862604,192.41051254188642,192.41051254188642,192.41051254188642,,,,,,,,,,,,,,,,,,,,,,,,,117,001,2023-03-03_10h23.27.462,eb_01,2022.2.4,60.01217307994686,
,,,0,0,0,0,48,0,48,0,,,,,,,,,,,,,,,,,,,,,,,,,,,,,,,,,,,,,,,,,,,,,,,,,,,,,,,,,,,,117,001,2023-03-03_10h23.27.462,eb_01,2022.2.4,60.01217307994686,
2,stimuli/2.png,s,0,0,0,0,49,0,49,0,0,0,0,0,,,,,,,,,,,,,,,,,,,192.41051254188642,192.41051254188642,192.41051254188642,192.41051254188642,s,1,0.6708158014516812,193.11045247365837,193.11045247365837,193.11045247365837,194.12707205166225,194.12707205166225,194.12707205166225,,,,,,,,,,,,,,,,,,,,,,,,,117,001,2023-03-03_10h23.27.462,eb_01,2022.2.4,60.01217307994686,
,,,0,0,0,0,49,0,49,0,,,,,,,,,,,,,,,,,,,,,,,,,,,,,,,,,,,,,,,,,,,,,,,,,,,,,,,,,,,,117,001,2023-03-03_10h23.27.462,eb_01,2022.2.4,60.01217307994686,
4,stimuli/4.png,l,0,0,0,0,50,0,50,0,0,0,0,0,,,,,,,,,,,,,,,,,,,194.12707205166225,194.12707205166225,194.12707205166225,194.12707205166225,l,1,0.6813398136582691,194.8270482054795,194.8270482054795,194.8270482054795,195.82699749464518,195.82699749464518,195.82699749464518,,,,,,,,,,,,,,,,,,,,,,,,,117,001,2023-03-03_10h23.27.462,eb_01,2022.2.4,60.01217307994686,
,,,0,0,0,0,50,0,50,0,,,,,,,,,,,,,,,,,,,,,,,,,,,,,,,,,,,,,,,,,,,,,,,,,,,,,,,,,,,,117,001,2023-03-03_10h23.27.462,eb_01,2022.2.4,60.01217307994686,
2,stimuli/2.png,s,0,0,0,0,51,0,51,0,0,0,0,0,,,,,,,,,,,,,,,,,,,195.82699749464518,195.82699749464518,195.82699749464518,195.82699749464518,s,1,0.9014173891919199,196.76024691355997,196.76024691355997,196.76024691355997,197.77689154515974,197.77689154515974,197.77689154515974,,,,,,,,,,,,,,,,,,,,,,,,,117,001,2023-03-03_10h23.27.462,eb_01,2022.2.4,60.01217307994686,
,,,0,0,0,0,51,0,51,0,,,,,,,,,,,,,,,,,,,,,,,,,,,,,,,,,,,,,,,,,,,,,,,,,,,,,,,,,,,,117,001,2023-03-03_10h23.27.462,eb_01,2022.2.4,60.01217307994686,
1,stimuli/1.png,s,0,0,0,0,52,0,52,0,0,0,0,0,,,,,,,,,,,,,,,,,,,197.77689154515974,197.77689154515974,197.77689154515974,197.77689154515974,s,1,0.9836378003237769,198.81010715686716,198.81010715686716,198.81010715686716,,,,,,,,,,,,,,,,,,,,,,,,,,,,117,001,2023-03-03_10h23.27.462,eb_01,2022.2.4,60.01217307994686,
,,,0,0,0,0,52,0,52,0,,,,,,,,,,,,,,,,,,,,,,,,,,,,,,,,,,,,,,,,,,,,,,,,,,,,,,,,,,,,117,001,2023-03-03_10h23.27.462,eb_01,2022.2.4,60.01217307994686,
2,stimuli/2.png,s,0,0,0,0,53,0,53,0,0,0,0,0,,,,,,,,,,,,,,,,,,,199.81007606629282,199.81007606629282,199.81007606629282,199.81007606629282,s,1,0.8224210415792186,200.65998732228763,200.65998732228763,200.65998732228763,201.6599704186665,201.6599704186665,201.6599704186665,,,,,,,,,,,,,,,,,,,,,,,,,117,001,2023-03-03_10h23.27.462,eb_01,2022.2.4,60.01217307994686,
,,,0,0,0,0,53,0,53,0,,,,,,,,,,,,,,,,,,,,,,,,,,,,,,,,,,,,,,,,,,,,,,,,,,,,,,,,,,,,117,001,2023-03-03_10h23.27.462,eb_01,2022.2.4,60.01217307994686,
3,stimuli/3.png,l,0,0,0,0,54,0,54,0,0,0,0,0,,,,,,,,,,,,,,,,,,,201.6599704186665,201.6599704186665,201.6599704186665,201.6599704186665,l,1,0.6525915870442986,202.343245193013,202.343245193013,202.343245193013,203.3598454526218,203.3598454526218,203.3598454526218,,,,,,,,,,,,,,,,,,,,,,,,,117,001,2023-03-03_10h23.27.462,eb_01,2022.2.4,60.01217307994686,
,,,0,0,0,0,54,0,54,0,,,,,,,,,,,,,,,,,,,,,,,,,,,,,,,,,,,,,,,,,,,,,,,,,,,,,,,,,,,,117,001,2023-03-03_10h23.27.462,eb_01,2022.2.4,60.01217307994686,
8,stimuli/8.png,l,0,0,0,0,55,0,55,0,0,0,0,0,,,,,,,,,,,,,,,,,,,203.3598454526218,203.3598454526218,203.3598454526218,203.3598454526218,l,1,0.8007346037193201,204.19314618612407,204.19314618612407,204.19314618612407,205.2097521808755,205.2097521808755,205.2097521808755,,,,,,,,,,,,,,,,,,,,,,,,,117,001,2023-03-03_10h23.27.462,eb_01,2022.2.4,60.01217307994686,
,,,0,0,0,0,55,0,55,0,,,,,,,,,,,,,,,,,,,,,,,,,,,,,,,,,,,,,,,,,,,,,,,,,,,,,,,,,,,,117,001,2023-03-03_10h23.27.462,eb_01,2022.2.4,60.01217307994686,
6,stimuli/6.png,s,0,0,0,0,56,0,56,0,0,0,0,0,,,,,,,,,,,,,,,,,,,205.2097521808755,205.2097521808755,205.2097521808755,205.2097521808755,s,1,0.7909223546448629,206.04304204773507,206.04304204773507,206.04304204773507,,,,,,,,,,,,,,,,,,,,,,,,,,,,117,001,2023-03-03_10h23.27.462,eb_01,2022.2.4,60.01217307994686,
,,,0,0,0,0,56,0,56,0,,,,,,,,,,,,,,,,,,,,,,,,,,,,,,,,,,,,,,,,,,,,,,,,,,,,,,,,,,,,117,001,2023-03-03_10h23.27.462,eb_01,2022.2.4,60.01217307994686,
5,stimuli/5.png,s,0,0,0,0,57,0,57,0,0,0,0,0,,,,,,,,,,,,,,,,,,,207.04263545534923,207.04263545534923,207.04263545534923,207.04263545534923,s,1,0.6940788036736194,207.75956925956416,207.75956925956416,207.75956925956416,208.77618430982693,208.77618430982693,208.77618430982693,,,,,,,,,,,,,,,,,,,,,,,,,117,001,2023-03-03_10h23.27.462,eb_01,2022.2.4,60.01217307994686,
,,,0,0,0,0,57,0,57,0,,,,,,,,,,,,,,,,,,,,,,,,,,,,,,,,,,,,,,,,,,,,,,,,,,,,,,,,,,,,117,001,2023-03-03_10h23.27.462,eb_01,2022.2.4,60.01217307994686,
9,stimuli/9.png,l,0,0,0,0,58,0,58,0,0,0,0,0,,,,,,,,,,,,,,,,,,,208.77618430982693,208.77618430982693,208.77618430982693,208.77618430982693,l,1,0.776546732056886,209.5927670620731,209.5927670620731,209.5927670620731,,,,,,,,,,,,,,,,,,,,,,,,,,,,117,001,2023-03-03_10h23.27.462,eb_01,2022.2.4,60.01217307994686,
,,,0,0,0,0,58,0,58,0,,,,,,,,,,,,,,,,,,,,,,,,,,,,,,,,,,,,,,,,,,,,,,,,,,,,,,,,,,,,117,001,2023-03-03_10h23.27.462,eb_01,2022.2.4,60.01217307994686,
8,stimuli/8.png,l,0,0,0,0,59,0,59,0,0,0,0,0,,,,,,,,,,,,,,,,,,,210.60943433246575,210.60943433246575,210.60943433246575,210.60943433246575,l,1,1.0703213705855887,211.7093425699568,211.7093425699568,211.7093425699568,212.72596516646445,212.72596516646445,212.72596516646445,,,,,,,,,,,,,,,,,,,,,,,,,117,001,2023-03-03_10h23.27.462,eb_01,2022.2.4,60.01217307994686,
,,,0,0,0,0,59,0,59,0,,,,,,,,,,,,,,,,,,,,,,,,,,,,,,,,,,,,,,,,,,,,,,,,,,,,,,,,,,,,117,001,2023-03-03_10h23.27.462,eb_01,2022.2.4,60.01217307994686,
9,stimuli/9.png,l,0,0,0,0,60,0,60,0,0,0,0,0,,,,,,,,,,,,,,,,,,,212.72596516646445,212.72596516646445,212.72596516646445,212.72596516646445,l,1,0.9378643088275567,213.70924114822992,213.70924114822992,213.70924114822992,,,,,,,,,,,,,,,,,,,,,,,,,,,,117,001,2023-03-03_10h23.27.462,eb_01,2022.2.4,60.01217307994686,
,,,0,0,0,0,60,0,60,0,,,,,,,,,,,,,,,,,,,,,,,,,,,,,,,,,,,,,,,,,,,,,,,,,,,,,,,,,,,,117,001,2023-03-03_10h23.27.462,eb_01,2022.2.4,60.01217307994686,
8,stimuli/8.png,l,0,0,0,0,61,0,61,0,0,0,0,0,,,,,,,,,,,,,,,,,,,214.70884662983008,214.70884662983008,214.70884662983008,214.70884662983008,l,1,0.8430099515826441,215.57574632496107,215.57574632496107,215.57574632496107,216.5923553382163,216.5923553382163,216.5923553382163,,,,,,,,,,,,,,,,,,,,,,,,,117,001,2023-03-03_10h23.27.462,eb_01,2022.2.4,60.01217307994686,
,,,0,0,0,0,61,0,61,0,,,,,,,,,,,,,,,,,,,,,,,,,,,,,,,,,,,,,,,,,,,,,,,,,,,,,,,,,,,,117,001,2023-03-03_10h23.27.462,eb_01,2022.2.4,60.01217307994686,
9,stimuli/9.png,l,0,0,0,0,62,0,62,0,0,0,0,0,,,,,,,,,,,,,,,,,,,216.5923553382163,216.5923553382163,216.5923553382163,216.5923553382163,l,1,1.1355515315080993,217.7756313199934,217.7756313199934,217.7756313199934,,,,,,,,,,,,,,,,,,,,,,,,,,,,117,001,2023-03-03_10h23.27.462,eb_01,2022.2.4,60.01217307994686,
,,,0,0,0,0,62,0,62,0,,,,,,,,,,,,,,,,,,,,,,,,,,,,,,,,,,,,,,,,,,,,,,,,,,,,,,,,,,,,117,001,2023-03-03_10h23.27.462,eb_01,2022.2.4,60.01217307994686,
6,stimuli/6.png,s,0,0,0,0,63,0,63,0,0,0,0,0,,,,,,,,,,,,,,,,,,,218.79226870715502,218.79226870715502,218.79226870715502,218.79226870715502,s,1,0.6396923144930042,219.4755540463084,219.4755540463084,219.4755540463084,,,,,,,,,,,,,,,,,,,,,,,,,,,,117,001,2023-03-03_10h23.27.462,eb_01,2022.2.4,60.01217307994686,
,,,0,0,0,0,63,0,63,0,,,,,,,,,,,,,,,,,,,,,,,,,,,,,,,,,,,,,,,,,,,,,,,,,,,,,,,,,,,,117,001,2023-03-03_10h23.27.462,eb_01,2022.2.4,60.01217307994686,
5,stimuli/5.png,s,0,0,0,0,64,0,64,0,0,0,0,0,,,,,,,,,,,,,,,,,,,220.47519273145008,220.47519273145008,220.47519273145008,220.47519273145008,s,1,0.6287937060114928,221.12543753205682,221.12543753205682,221.12543753205682,222.14207944701775,222.14207944701775,222.14207944701775,,,,,,,,,,,,,,,,,,,,,,,,,117,001,2023-03-03_10h23.27.462,eb_01,2022.2.4,60.01217307994686,
,,,0,0,0,0,64,0,64,0,,,,,,,,,,,,,,,,,,,,,,,,,,,,,,,,,,,,,,,,,,,,,,,,,,,,,,,,,,,,117,001,2023-03-03_10h23.27.462,eb_01,2022.2.4,60.01217307994686,
6,stimuli/6.png,s,0,0,0,0,65,0,65,0,0,0,0,0,,,,,,,,,,,,,,,,,,,222.14207944701775,222.14207944701775,222.14207944701775,222.14207944701775,s,1,0.8899561316939071,223.0753273566952,223.0753273566952,223.0753273566952,,,,,,,,,,,,,,,,,,,,,,,,,,,,117,001,2023-03-03_10h23.27.462,eb_01,2022.2.4,60.01217307994686,
,,,0,0,0,0,65,0,65,0,,,,,,,,,,,,,,,,,,,,,,,,,,,,,,,,,,,,,,,,,,,,,,,,,,,,,,,,,,,,117,001,2023-03-03_10h23.27.462,eb_01,2022.2.4,60.01217307994686,
9,stimuli/9.png,l,0,0,0,0,66,0,66,0,0,0,0,0,,,,,,,,,,,,,,,,,,,224.091947236564,224.091947236564,224.091947236564,224.091947236564,l,1,0.7881495573674329,224.92523378308397,224.92523378308397,224.92523378308397,,,,,,,,,,,,,,,,,,,,,,,,,,,,117,001,2023-03-03_10h23.27.462,eb_01,2022.2.4,60.01217307994686,
,,,0,0,0,0,66,0,66,0,,,,,,,,,,,,,,,,,,,,,,,,,,,,,,,,,,,,,,,,,,,,,,,,,,,,,,,,,,,,117,001,2023-03-03_10h23.27.462,eb_01,2022.2.4,60.01217307994686,
6,stimuli/6.png,s,0,0,0,0,67,0,67,0,0,0,0,0,,,,,,,,,,,,,,,,,,,225.94183494822937,225.94183494822937,225.94183494822937,225.94183494822937,s,1,0.8013008749694563,226.79176582448417,226.79176582448417,226.79176582448417,,,,,,,,,,,,,,,,,,,,,,,,,,,,117,001,2023-03-03_10h23.27.462,eb_01,2022.2.4,60.01217307994686,
,,,0,0,0,0,67,0,67,0,,,,,,,,,,,,,,,,,,,,,,,,,,,,,,,,,,,,,,,,,,,,,,,,,,,,,,,,,,,,117,001,2023-03-03_10h23.27.462,eb_01,2022.2.4,60.01217307994686,
8,stimuli/8.png,l,0,0,0,0,68,0,68,0,0,0,0,0,,,,,,,,,,,,,,,,,,,227.8084032116749,227.8084032116749,227.8084032116749,227.8084032116749,l,1,0.8547597780416254,228.6916601768753,228.6916601768753,228.6916601768753,229.69159829756245,229.69159829756245,229.69159829756245,,,,,,,,,,,,,,,,,,,,,,,,,117,001,2023-03-03_10h23.27.462,eb_01,2022.2.4,60.01217307994686,
,,,0,0,0,0,68,0,68,0,,,,,,,,,,,,,,,,,,,,,,,,,,,,,,,,,,,,,,,,,,,,,,,,,,,,,,,,,,,,117,001,2023-03-03_10h23.27.462,eb_01,2022.2.4,60.01217307994686,
3,stimuli/3.png,l,0,0,0,0,69,0,69,0,0,0,0,0,,,,,,,,,,,,,,,,,,,229.69159829756245,229.69159829756245,229.69159829756245,229.69159829756245,l,1,0.6836719093844295,230.40821727187722,230.40821727187722,230.40821727187722,231.42481089074863,231.42481089074863,231.42481089074863,,,,,,,,,,,,,,,,,,,,,,,,,117,001,2023-03-03_10h23.27.462,eb_01,2022.2.4,60.01217307994686,
,,,0,0,0,0,69,0,69,0,,,,,,,,,,,,,,,,,,,,,,,,,,,,,,,,,,,,,,,,,,,,,,,,,,,,,,,,,,,,117,001,2023-03-03_10h23.27.462,eb_01,2022.2.4,60.01217307994686,
4,stimuli/4.png,l,0,0,0,0,70,0,70,0,0,0,0,0,,,,,,,,,,,,,,,,,,,231.42481089074863,231.42481089074863,231.42481089074863,231.42481089074863,l,1,0.7424303989391774,232.19146186119178,232.19146186119178,232.19146186119178,233.19108575567952,233.19108575567952,233.19108575567952,,,,,,,,,,,,,,,,,,,,,,,,,117,001,2023-03-03_10h23.27.462,eb_01,2022.2.4,60.01217307994686,
,,,0,0,0,0,70,0,70,0,,,,,,,,,,,,,,,,,,,,,,,,,,,,,,,,,,,,,,,,,,,,,,,,,,,,,,,,,,,,117,001,2023-03-03_10h23.27.462,eb_01,2022.2.4,60.01217307994686,
2,stimuli/2.png,s,0,0,0,0,71,0,71,0,0,0,0,0,,,,,,,,,,,,,,,,,,,233.19108575567952,233.19108575567952,233.19108575567952,233.19108575567952,s,1,0.8082304532872513,234.02469890427892,234.02469890427892,234.02469890427892,235.0413042953296,235.0413042953296,235.0413042953296,,,,,,,,,,,,,,,,,,,,,,,,,117,001,2023-03-03_10h23.27.462,eb_01,2022.2.4,60.01217307994686,
,,,0,0,0,0,71,0,71,0,,,,,,,,,,,,,,,,,,,,,,,,,,,,,,,,,,,,,,,,,,,,,,,,,,,,,,,,,,,,117,001,2023-03-03_10h23.27.462,eb_01,2022.2.4,60.01217307994686,
1,stimuli/1.png,s,0,0,0,0,72,0,72,0,0,0,0,0,,,,,,,,,,,,,,,,,,,235.0413042953296,235.0413042953296,235.0413042953296,235.0413042953296,s,1,0.7020268250198569,235.791241812316,235.791241812316,235.791241812316,,,,,,,,,,,,,,,,,,,,,,,,,,,,117,001,2023-03-03_10h23.27.462,eb_01,2022.2.4,60.01217307994686,
,,,0,0,0,0,72,0,72,0,,,,,,,,,,,,,,,,,,,,,,,,,,,,,,,,,,,,,,,,,,,,,,,,,,,,,,,,,,,,117,001,2023-03-03_10h23.27.462,eb_01,2022.2.4,60.01217307994686,
4,stimuli/4.png,l,0,0,0,0,73,0,73,0,0,0,0,0,,,,,,,,,,,,,,,,,,,236.80783995892853,236.80783995892853,236.80783995892853,236.80783995892853,l,1,0.7515269608702511,237.59109300008276,237.59109300008276,237.59109300008276,238.60775212050066,238.60775212050066,238.60775212050066,,,,,,,,,,,,,,,,,,,,,,,,,117,001,2023-03-03_10h23.27.462,eb_01,2022.2.4,60.01217307994686,
,,,0,0,0,0,73,0,73,0,,,,,,,,,,,,,,,,,,,,,,,,,,,,,,,,,,,,,,,,,,,,,,,,,,,,,,,,,,,,117,001,2023-03-03_10h23.27.462,eb_01,2022.2.4,60.01217307994686,
1,stimuli/1.png,s,0,0,0,0,74,0,74,0,0,0,0,0,,,,,,,,,,,,,,,,,,,238.60775212050066,238.60775212050066,238.60775212050066,238.60775212050066,s,1,0.7116688305104617,239.35768510971684,239.35768510971684,239.35768510971684,,,,,,,,,,,,,,,,,,,,,,,,,,,,117,001,2023-03-03_10h23.27.462,eb_01,2022.2.4,60.01217307994686,
,,,0,0,0,0,74,0,74,0,,,,,,,,,,,,,,,,,,,,,,,,,,,,,,,,,,,,,,,,,,,,,,,,,,,,,,,,,,,,117,001,2023-03-03_10h23.27.462,eb_01,2022.2.4,60.01217307994686,
2,stimuli/2.png,s,0,0,0,0,75,0,75,0,0,0,0,0,,,,,,,,,,,,,,,,,,,240.35762806001003,240.35762806001003,240.35762806001003,240.35762806001003,s,1,0.7457782210840378,241.12425790092675,241.12425790092675,241.12425790092675,242.14085363276536,242.14085363276536,242.14085363276536,,,,,,,,,,,,,,,,,,,,,,,,,117,001,2023-03-03_10h23.27.462,eb_01,2022.2.4,60.01217307994686,
,,,0,0,0,0,75,0,75,0,,,,,,,,,,,,,,,,,,,,,,,,,,,,,,,,,,,,,,,,,,,,,,,,,,,,,,,,,,,,117,001,2023-03-03_10h23.27.462,eb_01,2022.2.4,60.01217307994686,
1,stimuli/1.png,s,0,0,0,0,76,0,76,0,0,0,0,0,,,,,,,,,,,,,,,,,,,242.14085363276536,242.14085363276536,242.14085363276536,242.14085363276536,s,1,0.6176333932962734,242.80748256813968,242.80748256813968,242.80748256813968,,,,,,,,,,,,,,,,,,,,,,,,,,,,117,001,2023-03-03_10h23.27.462,eb_01,2022.2.4,60.01217307994686,
,,,0,0,0,0,76,0,76,0,,,,,,,,,,,,,,,,,,,,,,,,,,,,,,,,,,,,,,,,,,,,,,,,,,,,,,,,,,,,117,001,2023-03-03_10h23.27.462,eb_01,2022.2.4,60.01217307994686,
2,stimuli/2.png,s,0,0,0,0,77,0,77,0,0,0,0,0,,,,,,,,,,,,,,,,,,,243.80741978326114,243.80741978326114,243.80741978326114,243.80741978326114,s,1,0.6551235076913144,244.4907280630141,244.4907280630141,244.4907280630141,245.5073301337252,245.5073301337252,245.5073301337252,,,,,,,,,,,,,,,,,,,,,,,,,117,001,2023-03-03_10h23.27.462,eb_01,2022.2.4,60.01217307994686,
,,,0,0,0,0,77,0,77,0,,,,,,,,,,,,,,,,,,,,,,,,,,,,,,,,,,,,,,,,,,,,,,,,,,,,,,,,,,,,117,001,2023-03-03_10h23.27.462,eb_01,2022.2.4,60.01217307994686,
4,stimuli/4.png,l,0,0,0,0,78,0,78,0,0,0,0,0,,,,,,,,,,,,,,,,,,,245.5073301337252,245.5073301337252,245.5073301337252,245.5073301337252,l,1,0.7712317512196023,246.30728304505465,246.30728304505465,246.30728304505465,247.30688581001596,247.30688581001596,247.30688581001596,,,,,,,,,,,,,,,,,,,,,,,,,117,001,2023-03-03_10h23.27.462,eb_01,2022.2.4,60.01217307994686,
,,,0,0,0,0,78,0,78,0,,,,,,,,,,,,,,,,,,,,,,,,,,,,,,,,,,,,,,,,,,,,,,,,,,,,,,,,,,,,117,001,2023-03-03_10h23.27.462,eb_01,2022.2.4,60.01217307994686,
3,stimuli/3.png,l,0,0,0,0,79,0,79,0,0,0,0,0,,,,,,,,,,,,,,,,,,,247.30688581001596,247.30688581001596,247.30688581001596,247.30688581001596,l,1,0.7157063807244413,248.04046666063368,248.04046666063368,248.04046666063368,249.05709589784965,249.05709589784965,249.05709589784965,,,,,,,,,,,,,,,,,,,,,,,,,117,001,2023-03-03_10h23.27.462,eb_01,2022.2.4,60.01217307994686,
,,,0,0,0,0,79,0,79,0,,,,,,,,,,,,,,,,,,,,,,,,,,,,,,,,,,,,,,,,,,,,,,,,,,,,,,,,,,,,117,001,2023-03-03_10h23.27.462,eb_01,2022.2.4,60.01217307994686,
4,stimuli/4.png,l,0,0,0,0,80,0,80,0,0,0,0,0,,,,,,,,,,,,,,,,,,,249.05709589784965,249.05709589784965,249.05709589784965,249.05709589784965,l,1,0.6695697632676456,249.75709408675903,249.75709408675903,249.75709408675903,250.7570337166835,250.7570337166835,250.7570337166835,,,,,,,,,,,,,,,,,,,,,,,,,117,001,2023-03-03_10h23.27.462,eb_01,2022.2.4,60.01217307994686,
,,,0,0,0,0,80,0,80,0,,,,,,,,,,,,,,,,,,,,,,,,,,,,,,,,,,,,,,,,,,,,,,,,,,,,,,,,,,,,117,001,2023-03-03_10h23.27.462,eb_01,2022.2.4,60.01217307994686,
2,stimuli/2.png,s,0,0,0,0,81,0,81,0,0,0,0,0,,,,,,,,,,,,,,,,,,,250.7570337166835,250.7570337166835,250.7570337166835,250.7570337166835,s,1,0.7376889337610919,251.5236053004919,251.5236053004919,251.5236053004919,252.5402511394932,252.5402511394932,252.5402511394932,,,,,,,,,,,,,,,,,,,,,,,,,117,001,2023-03-03_10h23.27.462,eb_01,2022.2.4,60.01217307994686,
,,,0,0,0,0,81,0,81,0,,,,,,,,,,,,,,,,,,,,,,,,,,,,,,,,,,,,,,,,,,,,,,,,,,,,,,,,,,,,117,001,2023-03-03_10h23.27.462,eb_01,2022.2.4,60.01217307994686,
4,stimuli/4.png,l,0,0,0,0,82,0,82,0,0,0,0,0,,,,,,,,,,,,,,,,,,,252.5402511394932,252.5402511394932,252.5402511394932,252.5402511394932,l,1,0.7384752539219335,253.306853512011,253.306853512011,253.306853512011,254.30678921789513,254.30678921789513,254.30678921789513,,,,,,,,,,,,,,,,,,,,,,,,,117,001,2023-03-03_10h23.27.462,eb_01,2022.2.4,60.01217307994686,
,,,0,0,0,0,82,0,82,0,,,,,,,,,,,,,,,,,,,,,,,,,,,,,,,,,,,,,,,,,,,,,,,,,,,,,,,,,,,,117,001,2023-03-03_10h23.27.462,eb_01,2022.2.4,60.01217307994686,
2,stimuli/2.png,s,0,0,0,0,83,0,83,0,0,0,0,0,,,,,,,,,,,,,,,,,,,254.30678921789513,254.30678921789513,254.30678921789513,254.30678921789513,s,1,0.6600098610215355,254.99006278486922,254.99006278486922,254.99006278486922,256.00668839988066,256.00668839988066,256.00668839988066,,,,,,,,,,,,,,,,,,,,,,,,,117,001,2023-03-03_10h23.27.462,eb_01,2022.2.4,60.01217307994686,
,,,0,0,0,0,83,0,83,0,,,,,,,,,,,,,,,,,,,,,,,,,,,,,,,,,,,,,,,,,,,,,,,,,,,,,,,,,,,,117,001,2023-03-03_10h23.27.462,eb_01,2022.2.4,60.01217307994686,
4,stimuli/4.png,l,0,0,0,0,84,0,84,0,0,0,0,0,,,,,,,,,,,,,,,,,,,256.00668839988066,256.00668839988066,256.00668839988066,256.00668839988066,l,1,0.6961190101283137,256.72329680944677,256.72329680944677,256.72329680944677,257.723269039212,257.723269039212,257.723269039212,,,,,,,,,,,,,,,,,,,,,,,,,117,001,2023-03-03_10h23.27.462,eb_01,2022.2.4,60.01217307994686,
,,,0,0,0,0,84,0,84,0,,,,,,,,,,,,,,,,,,,,,,,,,,,,,,,,,,,,,,,,,,,,,,,,,,,,,,,,,,,,117,001,2023-03-03_10h23.27.462,eb_01,2022.2.4,60.01217307994686,
3,stimuli/3.png,l,0,0,0,0,85,0,85,0,0,0,0,0,,,,,,,,,,,,,,,,,,,257.723269039212,257.723269039212,257.723269039212,257.723269039212,l,1,0.7385775811853819,258.48989103201893,258.48989103201893,258.48989103201893,259.50648887679563,259.50648887679563,259.50648887679563,,,,,,,,,,,,,,,,,,,,,,,,,117,001,2023-03-03_10h23.27.462,eb_01,2022.2.4,60.01217307994686,
,,,0,0,0,0,85,0,85,0,,,,,,,,,,,,,,,,,,,,,,,,,,,,,,,,,,,,,,,,,,,,,,,,,,,,,,,,,,,,117,001,2023-03-03_10h23.27.462,eb_01,2022.2.4,60.01217307994686,
4,stimuli/4.png,l,0,0,0,0,86,0,86,0,0,0,0,0,,,,,,,,,,,,,,,,,,,259.50648887679563,259.50648887679563,259.50648887679563,259.50648887679563,l,1,0.7394040474027861,260.273112378869,260.273112378869,260.273112378869,261.2730538198957,261.2730538198957,261.2730538198957,,,,,,,,,,,,,,,,,,,,,,,,,117,001,2023-03-03_10h23.27.462,eb_01,2022.2.4,60.01217307994686,
,,,0,0,0,0,86,0,86,0,,,,,,,,,,,,,,,,,,,,,,,,,,,,,,,,,,,,,,,,,,,,,,,,,,,,,,,,,,,,117,001,2023-03-03_10h23.27.462,eb_01,2022.2.4,60.01217307994686,
2,stimuli/2.png,s,0,0,0,0,87,0,87,0,0,0,0,0,,,,,,,,,,,,,,,,,,,261.2730538198957,261.2730538198957,261.2730538198957,261.2730538198957,s,1,0.7168766545073595,262.0229789610312,262.0229789610312,262.0229789610312,263.0395997464366,263.0395997464366,263.0395997464366,,,,,,,,,,,,,,,,,,,,,,,,,117,001,2023-03-03_10h23.27.462,eb_01,2022.2.4,60.01217307994686,
,,,0,0,0,0,87,0,87,0,,,,,,,,,,,,,,,,,,,,,,,,,,,,,,,,,,,,,,,,,,,,,,,,,,,,,,,,,,,,117,001,2023-03-03_10h23.27.462,eb_01,2022.2.4,60.01217307994686,
4,stimuli/4.png,l,0,0,0,0,88,0,88,0,0,0,0,0,,,,,,,,,,,,,,,,,,,263.0395997464366,263.0395997464366,263.0395997464366,263.0395997464366,l,1,0.7263894680363592,263.78954450783203,263.78954450783203,263.78954450783203,264.789160252345,264.789160252345,264.789160252345,,,,,,,,,,,,,,,,,,,,,,,,,117,001,2023-03-03_10h23.27.462,eb_01,2022.2.4,60.01217307994686,
,,,0,0,0,0,88,0,88,0,,,,,,,,,,,,,,,,,,,,,,,,,,,,,,,,,,,,,,,,,,,,,,,,,,,,,,,,,,,,117,001,2023-03-03_10h23.27.462,eb_01,2022.2.4,60.01217307994686,
3,stimuli/3.png,l,0,0,0,0,89,0,89,0,0,0,0,0,,,,,,,,,,,,,,,,,,,264.789160252345,264.789160252345,264.789160252345,264.789160252345,l,1,0.6488815444754437,265.4561206194048,265.4561206194048,265.4561206194048,266.45606296596816,266.45606296596816,266.45606296596816,,,,,,,,,,,,,,,,,,,,,,,,,117,001,2023-03-03_10h23.27.462,eb_01,2022.2.4,60.01217307994686,
,,,0,0,0,0,89,0,89,0,,,,,,,,,,,,,,,,,,,,,,,,,,,,,,,,,,,,,,,,,,,,,,,,,,,,,,,,,,,,117,001,2023-03-03_10h23.27.462,eb_01,2022.2.4,60.01217307994686,
2,stimuli/2.png,s,0,0,0,0,90,0,90,0,0,0,0,0,,,,,,,,,,,,,,,,,,,266.45606296596816,266.45606296596816,266.45606296596816,266.45606296596816,s,1,0.6860061181068886,267.1726946179988,267.1726946179988,267.1726946179988,268.1892737480812,268.1892737480812,268.1892737480812,,,,,,,,,,,,,,,,,,,,,,,,,117,001,2023-03-03_10h23.27.462,eb_01,2022.2.4,60.01217307994686,
,,,0,0,0,0,90,0,90,0,,,,,,,,,,,,,,,,,,,,,,,,,,,,,,,,,,,,,,,,,,,,,,,,,,,,,,,,,,,,117,001,2023-03-03_10h23.27.462,eb_01,2022.2.4,60.01217307994686,
4,stimuli/4.png,l,0,0,0,0,91,0,91,0,0,0,0,0,,,,,,,,,,,,,,,,,,,268.1892737480812,268.1892737480812,268.1892737480812,268.1892737480812,l,1,0.6968177936505526,268.9059023815789,268.9059023815789,268.9059023815789,269.90585891515366,269.90585891515366,269.90585891515366,,,,,,,,,,,,,,,,,,,,,,,,,117,001,2023-03-03_10h23.27.462,eb_01,2022.2.4,60.01217307994686,
,,,0,0,0,0,91,0,91,0,,,,,,,,,,,,,,,,,,,,,,,,,,,,,,,,,,,,,,,,,,,,,,,,,,,,,,,,,,,,117,001,2023-03-03_10h23.27.462,eb_01,2022.2.4,60.01217307994686,
2,stimuli/2.png,s,0,0,0,0,92,0,92,0,0,0,0,0,,,,,,,,,,,,,,,,,,,269.90585891515366,269.90585891515366,269.90585891515366,269.90585891515366,s,1,0.6202709615754429,270.5558160523942,270.5558160523942,270.5558160523942,271.572384315863,271.572384315863,271.572384315863,,,,,,,,,,,,,,,,,,,,,,,,,117,001,2023-03-03_10h23.27.462,eb_01,2022.2.4,60.01217307994686,
,,,0,0,0,0,92,0,92,0,,,,,,,,,,,,,,,,,,,,,,,,,,,,,,,,,,,,,,,,,,,,,,,,,,,,,,,,,,,,117,001,2023-03-03_10h23.27.462,eb_01,2022.2.4,60.01217307994686,
4,stimuli/4.png,l,0,0,0,0,93,0,93,0,0,0,0,0,,,,,,,,,,,,,,,,,,,271.572384315863,271.572384315863,271.572384315863,271.572384315863,l,1,0.6327989582205191,272.22238612695946,272.22238612695946,272.22238612695946,273.23897310512257,273.23897310512257,273.23897310512257,,,,,,,,,,,,,,,,,,,,,,,,,117,001,2023-03-03_10h23.27.462,eb_01,2022.2.4,60.01217307994686,
,,,0,0,0,0,93,0,93,0,,,,,,,,,,,,,,,,,,,,,,,,,,,,,,,,,,,,,,,,,,,,,,,,,,,,,,,,,,,,117,001,2023-03-03_10h23.27.462,eb_01,2022.2.4,60.01217307994686,
1,stimuli/1.png,s,0,0,0,0,94,0,94,0,0,0,0,0,,,,,,,,,,,,,,,,,,,273.23897310512257,273.23897310512257,273.23897310512257,273.23897310512257,s,1,0.7422390258288942,274.02227564973873,274.02227564973873,274.02227564973873,,,,,,,,,,,,,,,,,,,,,,,,,,,,117,001,2023-03-03_10h23.27.462,eb_01,2022.2.4,60.01217307994686,
,,,0,0,0,0,94,0,94,0,,,,,,,,,,,,,,,,,,,,,,,,,,,,,,,,,,,,,,,,,,,,,,,,,,,,,,,,,,,,117,001,2023-03-03_10h23.27.462,eb_01,2022.2.4,60.01217307994686,
4,stimuli/4.png,l,0,0,0,0,95,0,95,0,0,0,0,0,,,,,,,,,,,,,,,,,,,275.0388928129396,275.0388928129396,275.0388928129396,275.0388928129396,l,1,0.6143601281801239,275.67216668176115,275.67216668176115,275.67216668176115,276.688783844962,276.688783844962,276.688783844962,,,,,,,,,,,,,,,,,,,,,,,,,117,001,2023-03-03_10h23.27.462,eb_01,2022.2.4,60.01217307994686,
,,,0,0,0,0,95,0,95,0,,,,,,,,,,,,,,,,,,,,,,,,,,,,,,,,,,,,,,,,,,,,,,,,,,,,,,,,,,,,117,001,2023-03-03_10h23.27.462,eb_01,2022.2.4,60.01217307994686,
1,stimuli/1.png,s,0,0,0,0,96,0,96,0,0,0,0,0,,,,,,,,,,,,,,,,,,,276.688783844962,276.688783844962,276.688783844962,276.688783844962,s,1,0.48449294234160334,277.22208276734455,277.22208276734455,277.22208276734455,,,,,,,,,,,,,,,,,,,,,,,,,,,,117,001,2023-03-03_10h23.27.462,eb_01,2022.2.4,60.01217307994686,
,,,0,0,0,0,96,0,96,0,,,,,,,,,,,,,,,,,,,,,,,,,,,,,,,,,,,,,,,,,,,,,,,,,,,,,,,,,,,,117,001,2023-03-03_10h23.27.462,eb_01,2022.2.4,60.01217307994686,
2,stimuli/2.png,s,0,0,0,0,97,0,97,0,0,0,0,0,,,,,,,,,,,,,,,,,,,278.22202903800644,278.22202903800644,278.22202903800644,278.22202903800644,s,1,0.9593011164397467,279.2053216215281,279.2053216215281,279.2053216215281,280.2219104108226,280.2219104108226,280.2219104108226,,,,,,,,,,,,,,,,,,,,,,,,,117,001,2023-03-03_10h23.27.462,eb_01,2022.2.4,60.01217307994686,
,,,0,0,0,0,97,0,97,0,,,,,,,,,,,,,,,,,,,,,,,,,,,,,,,,,,,,,,,,,,,,,,,,,,,,,,,,,,,,117,001,2023-03-03_10h23.27.462,eb_01,2022.2.4,60.01217307994686,
1,stimuli/1.png,s,0,0,0,0,98,0,98,0,0,0,0,0,,,,,,,,,,,,,,,,,,,280.2219104108226,280.2219104108226,280.2219104108226,280.2219104108226,s,1,0.5994583804858848,280.85514262429206,280.85514262429206,280.85514262429206,,,,,,,,,,,,,,,,,,,,,,,,,,,,117,001,2023-03-03_10h23.27.462,eb_01,2022.2.4,60.01217307994686,
,,,0,0,0,0,98,0,98,0,,,,,,,,,,,,,,,,,,,,,,,,,,,,,,,,,,,,,,,,,,,,,,,,,,,,,,,,,,,,117,001,2023-03-03_10h23.27.462,eb_01,2022.2.4,60.01217307994686,
2,stimuli/2.png,s,0,0,0,0,99,0,99,0,0,0,0,0,,,,,,,,,,,,,,,,,,,281.8551266262075,281.8551266262075,281.8551266262075,281.8551266262075,s,1,0.598283578932751,282.4717670319078,282.4717670319078,282.4717670319078,283.4716936822515,283.4716936822515,283.4716936822515,,,,,,,,,,,,,,,,,,,,,,,,,117,001,2023-03-03_10h23.27.462,eb_01,2022.2.4,60.01217307994686,
,,,0,0,0,0,99,0,99,0,,,,,,,,,,,,,,,,,,,,,,,,,,,,,,,,,,,,,,,,,,,,,,,,,,,,,,,,,,,,117,001,2023-03-03_10h23.27.462,eb_01,2022.2.4,60.01217307994686,
,,,0,0,0,0,,,,,,,,,,,,,,,,,,,,,,,,,,,,,,,,,,,,,,,,283.4716936822515,283.4716936822515,return,5.044884744100273,,,,,,,,,,,,,,,,,,,,,117,001,2023-03-03_10h23.27.462,eb_01,2022.2.4,60.01217307994686,
3,stimuli/3.png,l,1,0,1,0,0,0,0,0,0,0,0,0,,,,,,,,,,,,,,,,,,,288.5547529354808,288.5547529354808,288.5547529354808,288.5547529354808,l,1,2.409819393476937,290.98790998820914,290.98790998820914,290.98790998820914,292.00451356815756,292.00451356815756,292.00451356815756,,,,,,,,,,,,,,,,,,,,,,,,,117,001,2023-03-03_10h23.27.462,eb_01,2022.2.4,60.01217307994686,
,,,1,0,1,0,0,0,0,0,,,,,,,,,,,,,,,,,,,,,,,,,,,,,,,,,,,,,,,,,,,,,,,,,,,,,,,,,,,,117,001,2023-03-03_10h23.27.462,eb_01,2022.2.4,60.01217307994686,
8,stimuli/8.png,l,1,0,1,0,1,0,1,0,0,0,0,0,,,,,,,,,,,,,,,,,,,292.00451356815756,292.00451356815756,292.00451356815756,292.00451356815756,l,1,0.9841334385564551,293.0211449183407,293.0211449183407,293.0211449183407,294.0377491019899,294.0377491019899,294.0377491019899,,,,,,,,,,,,,,,,,,,,,,,,,117,001,2023-03-03_10h23.27.462,eb_01,2022.2.4,60.01217307994686,
,,,1,0,1,0,1,0,1,0,,,,,,,,,,,,,,,,,,,,,,,,,,,,,,,,,,,,,,,,,,,,,,,,,,,,,,,,,,,,117,001,2023-03-03_10h23.27.462,eb_01,2022.2.4,60.01217307994686,
6,stimuli/6.png,s,1,0,1,0,2,0,2,0,0,0,0,0,,,,,,,,,,,,,,,,,,,294.0377491019899,294.0377491019899,294.0377491019899,294.0377491019899,s,1,0.7109425785893109,294.7876932596846,294.7876932596846,294.7876932596846,,,,,,,,,,,,,,,,,,,,,,,,,,,,117,001,2023-03-03_10h23.27.462,eb_01,2022.2.4,60.01217307994686,
,,,1,0,1,0,2,0,2,0,,,,,,,,,,,,,,,,,,,,,,,,,,,,,,,,,,,,,,,,,,,,,,,,,,,,,,,,,,,,117,001,2023-03-03_10h23.27.462,eb_01,2022.2.4,60.01217307994686,
8,stimuli/8.png,l,1,0,1,0,3,0,3,0,0,0,0,0,,,,,,,,,,,,,,,,,,,295.7873286244576,295.7873286244576,295.7873286244576,295.7873286244576,l,1,0.7533866608282551,296.5709085695271,296.5709085695271,296.5709085695271,297.58751909201965,297.58751909201965,297.58751909201965,,,,,,,,,,,,,,,,,,,,,,,,,117,001,2023-03-03_10h23.27.462,eb_01,2022.2.4,60.01217307994686,
,,,1,0,1,0,3,0,3,0,,,,,,,,,,,,,,,,,,,,,,,,,,,,,,,,,,,,,,,,,,,,,,,,,,,,,,,,,,,,117,001,2023-03-03_10h23.27.462,eb_01,2022.2.4,60.01217307994686,
6,stimuli/6.png,s,1,0,1,0,4,0,4,0,0,0,0,0,,,,,,,,,,,,,,,,,,,297.58751909201965,297.58751909201965,297.58751909201965,297.58751909201965,s,1,1.2972669469600078,298.9207977904589,298.9207977904589,298.9207977904589,,,,,,,,,,,,,,,,,,,,,,,,,,,,117,001,2023-03-03_10h23.27.462,eb_01,2022.2.4,60.01217307994686,
,,,1,0,1,0,4,0,4,0,,,,,,,,,,,,,,,,,,,,,,,,,,,,,,,,,,,,,,,,,,,,,,,,,,,,,,,,,,,,117,001,2023-03-03_10h23.27.462,eb_01,2022.2.4,60.01217307994686,
8,stimuli/8.png,l,1,0,1,0,5,0,5,0,0,0,0,0,,,,,,,,,,,,,,,,,,,299.9373877871258,299.9373877871258,299.9373877871258,299.9373877871258,l,1,0.6754407524131238,300.6373557909974,300.6373557909974,300.6373557909974,301.6539451839635,301.6539451839635,301.6539451839635,,,,,,,,,,,,,,,,,,,,,,,,,117,001,2023-03-03_10h23.27.462,eb_01,2022.2.4,60.01217307994686,
,,,1,0,1,0,5,0,5,0,,,,,,,,,,,,,,,,,,,,,,,,,,,,,,,,,,,,,,,,,,,,,,,,,,,,,,,,,,,,117,001,2023-03-03_10h23.27.462,eb_01,2022.2.4,60.01217307994686,
9,stimuli/9.png,l,1,0,1,0,6,0,6,0,0,0,0,0,,,,,,,,,,,,,,,,,,,301.6539451839635,301.6539451839635,301.6539451839635,301.6539451839635,l,1,0.662991840596078,302.35391439523664,302.35391439523664,302.35391439523664,,,,,,,,,,,,,,,,,,,,,,,,,,,,117,001,2023-03-03_10h23.27.462,eb_01,2022.2.4,60.01217307994686,
,,,1,0,1,0,6,0,6,0,,,,,,,,,,,,,,,,,,,,,,,,,,,,,,,,,,,,,,,,,,,,,,,,,,,,,,,,,,,,117,001,2023-03-03_10h23.27.462,eb_01,2022.2.4,60.01217307994686,
5,stimuli/5.png,s,1,0,1,0,7,0,7,0,0,0,0,0,,,,,,,,,,,,,,,,,,,303.37052129552467,303.37052129552467,303.37052129552467,303.37052129552467,s,1,0.849433025054168,304.23714177910006,304.23714177910006,304.23714177910006,305.2537553200964,305.2537553200964,305.2537553200964,,,,,,,,,,,,,,,,,,,,,,,,,117,001,2023-03-03_10h23.27.462,eb_01,2022.2.4,60.01217307994686,
,,,1,0,1,0,7,0,7,0,,,,,,,,,,,,,,,,,,,,,,,,,,,,,,,,,,,,,,,,,,,,,,,,,,,,,,,,,,,,117,001,2023-03-03_10h23.27.462,eb_01,2022.2.4,60.01217307994686,
6,stimuli/6.png,s,1,0,1,0,8,0,8,0,0,0,0,0,,,,,,,,,,,,,,,,,,,305.2537553200964,305.2537553200964,305.2537553200964,305.2537553200964,s,1,0.7181912127416581,306.0203851610422,306.0203851610422,306.0203851610422,,,,,,,,,,,,,,,,,,,,,,,,,,,,117,001,2023-03-03_10h23.27.462,eb_01,2022.2.4,60.01217307994686,
,,,1,0,1,0,8,0,8,0,,,,,,,,,,,,,,,,,,,,,,,,,,,,,,,,,,,,,,,,,,,,,,,,,,,,,,,,,,,,117,001,2023-03-03_10h23.27.462,eb_01,2022.2.4,60.01217307994686,
9,stimuli/9.png,l,1,0,1,0,9,0,9,0,0,0,0,0,,,,,,,,,,,,,,,,,,,307.0369721392053,307.0369721392053,307.0369721392053,307.0369721392053,l,1,0.7670610850327648,307.85359926347155,307.85359926347155,307.85359926347155,,,,,,,,,,,,,,,,,,,,,,,,,,,,117,001,2023-03-03_10h23.27.462,eb_01,2022.2.4,60.01217307994686,
,,,1,0,1,0,9,0,9,0,,,,,,,,,,,,,,,,,,,,,,,,,,,,,,,,,,,,,,,,,,,,,,,,,,,,,,,,,,,,117,001,2023-03-03_10h23.27.462,eb_01,2022.2.4,60.01217307994686,
6,stimuli/6.png,s,1,0,1,0,10,0,10,0,0,0,0,0,,,,,,,,,,,,,,,,,,,308.87020465452224,308.87020465452224,308.87020465452224,308.87020465452224,s,1,1.077825068263337,309.9867780494387,309.9867780494387,309.9867780494387,,,,,,,,,,,,,,,,,,,,,,,,,,,,117,001,2023-03-03_10h23.27.462,eb_01,2022.2.4,60.01217307994686,
,,,1,0,1,0,10,0,10,0,,,,,,,,,,,,,,,,,,,,,,,,,,,,,,,,,,,,,,,,,,,,,,,,,,,,,,,,,,,,117,001,2023-03-03_10h23.27.462,eb_01,2022.2.4,60.01217307994686,
8,stimuli/8.png,l,1,0,1,0,11,0,11,0,0,0,0,0,,,,,,,,,,,,,,,,,,,311.00339792930754,311.00339792930754,311.00339792930754,311.00339792930754,l,1,0.7046870321210008,311.7367022850085,311.7367022850085,311.7367022850085,312.7532937909418,312.7532937909418,312.7532937909418,,,,,,,,,,,,,,,,,,,,,,,,,117,001,2023-03-03_10h23.27.462,eb_01,2022.2.4,60.01217307994686,
,,,1,0,1,0,11,0,11,0,,,,,,,,,,,,,,,,,,,,,,,,,,,,,,,,,,,,,,,,,,,,,,,,,,,,,,,,,,,,117,001,2023-03-03_10h23.27.462,eb_01,2022.2.4,60.01217307994686,
9,stimuli/9.png,l,1,0,1,0,12,0,12,0,0,0,0,0,,,,,,,,,,,,,,,,,,,312.7532937909418,312.7532937909418,312.7532937909418,312.7532937909418,l,1,0.5948295054549817,313.3866138428566,313.3866138428566,313.3866138428566,,,,,,,,,,,,,,,,,,,,,,,,,,,,117,001,2023-03-03_10h23.27.462,eb_01,2022.2.4,60.01217307994686,
,,,1,0,1,0,12,0,12,0,,,,,,,,,,,,,,,,,,,,,,,,,,,,,,,,,,,,,,,,,,,,,,,,,,,,,,,,,,,,117,001,2023-03-03_10h23.27.462,eb_01,2022.2.4,60.01217307994686,
8,stimuli/8.png,l,1,0,1,0,13,0,13,0,0,0,0,0,,,,,,,,,,,,,,,,,,,314.403183011862,314.403183011862,314.403183011862,314.403183011862,l,1,0.6969986020121723,315.1198071176186,315.1198071176186,315.1198071176186,316.1364276011882,316.1364276011882,316.1364276011882,,,,,,,,,,,,,,,,,,,,,,,,,117,001,2023-03-03_10h23.27.462,eb_01,2022.2.4,60.01217307994686,
,,,1,0,1,0,13,0,13,0,,,,,,,,,,,,,,,,,,,,,,,,,,,,,,,,,,,,,,,,,,,,,,,,,,,,,,,,,,,,117,001,2023-03-03_10h23.27.462,eb_01,2022.2.4,60.01217307994686,
6,stimuli/6.png,s,1,0,1,0,14,0,14,0,0,0,0,0,,,,,,,,,,,,,,,,,,,316.1364276011882,316.1364276011882,316.1364276011882,316.1364276011882,s,1,0.7077686222619377,316.88637689032475,316.88637689032475,316.88637689032475,,,,,,,,,,,,,,,,,,,,,,,,,,,,117,001,2023-03-03_10h23.27.462,eb_01,2022.2.4,60.01217307994686,
,,,1,0,1,0,14,0,14,0,,,,,,,,,,,,,,,,,,,,,,,,,,,,,,,,,,,,,,,,,,,,,,,,,,,,,,,,,,,,117,001,2023-03-03_10h23.27.462,eb_01,2022.2.4,60.01217307994686,
8,stimuli/8.png,l,1,0,1,0,15,0,15,0,0,0,0,0,,,,,,,,,,,,,,,,,,,317.8860119532619,317.8860119532619,317.8860119532619,317.8860119532619,l,1,0.6052705088222865,318.5196350629267,318.5196350629267,318.5196350629267,319.53622385222116,319.53622385222116,319.53622385222116,,,,,,,,,,,,,,,,,,,,,,,,,117,001,2023-03-03_10h23.27.462,eb_01,2022.2.4,60.01217307994686,
,,,1,0,1,0,15,0,15,0,,,,,,,,,,,,,,,,,,,,,,,,,,,,,,,,,,,,,,,,,,,,,,,,,,,,,,,,,,,,117,001,2023-03-03_10h23.27.462,eb_01,2022.2.4,60.01217307994686,
6,stimuli/6.png,s,1,0,1,0,16,0,16,0,0,0,0,0,,,,,,,,,,,,,,,,,,,319.53622385222116,319.53622385222116,319.53622385222116,319.53622385222116,s,1,0.5390379029558972,320.1195242838585,320.1195242838585,320.1195242838585,,,,,,,,,,,,,,,,,,,,,,,,,,,,117,001,2023-03-03_10h23.27.462,eb_01,2022.2.4,60.01217307994686,
,,,1,0,1,0,16,0,16,0,,,,,,,,,,,,,,,,,,,,,,,,,,,,,,,,,,,,,,,,,,,,,,,,,,,,,,,,,,,,117,001,2023-03-03_10h23.27.462,eb_01,2022.2.4,60.01217307994686,
5,stimuli/5.png,s,1,0,1,0,17,0,17,0,0,0,0,0,,,,,,,,,,,,,,,,,,,321.11915632829187,321.11915632829187,321.11915632829187,321.11915632829187,s,1,0.6922055204340722,321.83607654925436,321.83607654925436,321.83607654925436,322.8527359715081,322.8527359715081,322.8527359715081,,,,,,,,,,,,,,,,,,,,,,,,,117,001,2023-03-03_10h23.27.462,eb_01,2022.2.4,60.01217307994686,
,,,1,0,1,0,17,0,17,0,,,,,,,,,,,,,,,,,,,,,,,,,,,,,,,,,,,,,,,,,,,,,,,,,,,,,,,,,,,,117,001,2023-03-03_10h23.27.462,eb_01,2022.2.4,60.01217307994686,
9,stimuli/9.png,l,1,0,1,0,18,0,18,0,0,0,0,0,,,,,,,,,,,,,,,,,,,322.8527359715081,322.8527359715081,322.8527359715081,322.8527359715081,l,1,0.6866170631838031,323.5860451568151,323.5860451568151,323.5860451568151,,,,,,,,,,,,,,,,,,,,,,,,,,,,117,001,2023-03-03_10h23.27.462,eb_01,2022.2.4,60.01217307994686,
,,,1,0,1,0,18,0,18,0,,,,,,,,,,,,,,,,,,,,,,,,,,,,,,,,,,,,,,,,,,,,,,,,,,,,,,,,,,,,117,001,2023-03-03_10h23.27.462,eb_01,2022.2.4,60.01217307994686,
6,stimuli/6.png,s,1,0,1,0,19,0,19,0,0,0,0,0,,,,,,,,,,,,,,,,,,,324.6150270155922,324.6150270155922,324.6150270155922,324.6150270155922,s,1,0.7963855439738836,325.45252135591,325.45252135591,325.45252135591,,,,,,,,,,,,,,,,,,,,,,,,,,,,117,001,2023-03-03_10h23.27.462,eb_01,2022.2.4,60.01217307994686,
,,,1,0,1,0,19,0,19,0,,,,,,,,,,,,,,,,,,,,,,,,,,,,,,,,,,,,,,,,,,,,,,,,,,,,,,,,,,,,117,001,2023-03-03_10h23.27.462,eb_01,2022.2.4,60.01217307994686,
8,stimuli/8.png,l,1,0,1,0,20,0,20,0,0,0,0,0,,,,,,,,,,,,,,,,,,,326.46915693199844,326.46915693199844,326.46915693199844,326.46915693199844,l,1,0.5743060969689395,327.069125539565,327.069125539565,327.069125539565,328.06905611397815,328.06905611397815,328.06905611397815,,,,,,,,,,,,,,,,,,,,,,,,,117,001,2023-03-03_10h23.27.462,eb_01,2022.2.4,60.01217307994686,
,,,1,0,1,0,20,0,20,0,,,,,,,,,,,,,,,,,,,,,,,,,,,,,,,,,,,,,,,,,,,,,,,,,,,,,,,,,,,,117,001,2023-03-03_10h23.27.462,eb_01,2022.2.4,60.01217307994686,
3,stimuli/3.png,l,1,0,1,0,21,0,21,0,0,0,0,0,,,,,,,,,,,,,,,,,,,328.06905611397815,328.06905611397815,328.06905611397815,328.06905611397815,l,1,0.6144180834526196,328.7023345105408,328.7023345105408,328.7023345105408,329.7189287331421,329.7189287331421,329.7189287331421,,,,,,,,,,,,,,,,,,,,,,,,,117,001,2023-03-03_10h23.27.462,eb_01,2022.2.4,60.01217307994686,
,,,1,0,1,0,21,0,21,0,,,,,,,,,,,,,,,,,,,,,,,,,,,,,,,,,,,,,,,,,,,,,,,,,,,,,,,,,,,,117,001,2023-03-03_10h23.27.462,eb_01,2022.2.4,60.01217307994686,
4,stimuli/4.png,l,1,0,1,0,22,0,22,0,0,0,0,0,,,,,,,,,,,,,,,,,,,329.7189287331421,329.7189287331421,329.7189287331421,329.7189287331421,l,1,0.6685407554323319,330.4189362793986,330.4189362793986,330.4189362793986,331.41886111864005,331.41886111864005,331.41886111864005,,,,,,,,,,,,,,,,,,,,,,,,,117,001,2023-03-03_10h23.27.462,eb_01,2022.2.4,60.01217307994686,
,,,1,0,1,0,22,0,22,0,,,,,,,,,,,,,,,,,,,,,,,,,,,,,,,,,,,,,,,,,,,,,,,,,,,,,,,,,,,,117,001,2023-03-03_10h23.27.462,eb_01,2022.2.4,60.01217307994686,
2,stimuli/2.png,s,1,0,1,0,23,0,23,0,0,0,0,0,,,,,,,,,,,,,,,,,,,331.41886111864005,331.41886111864005,331.41886111864005,331.41886111864005,s,1,0.8086953028105199,332.2521180838521,332.2521180838521,332.2521180838521,333.2687358507537,333.2687358507537,333.2687358507537,,,,,,,,,,,,,,,,,,,,,,,,,117,001,2023-03-03_10h23.27.462,eb_01,2022.2.4,60.01217307994686,
,,,1,0,1,0,23,0,23,0,,,,,,,,,,,,,,,,,,,,,,,,,,,,,,,,,,,,,,,,,,,,,,,,,,,,,,,,,,,,117,001,2023-03-03_10h23.27.462,eb_01,2022.2.4,60.01217307994686,
4,stimuli/4.png,l,1,0,1,0,24,0,24,0,0,0,0,0,,,,,,,,,,,,,,,,,,,333.2687358507537,333.2687358507537,333.2687358507537,333.2687358507537,l,1,1.1508686252636835,334.4520006640523,334.4520006640523,334.4520006640523,335.4686148087785,335.4686148087785,335.4686148087785,,,,,,,,,,,,,,,,,,,,,,,,,117,001,2023-03-03_10h23.27.462,eb_01,2022.2.4,60.01217307994686,
,,,1,0,1,0,24,0,24,0,,,,,,,,,,,,,,,,,,,,,,,,,,,,,,,,,,,,,,,,,,,,,,,,,,,,,,,,,,,,117,001,2023-03-03_10h23.27.462,eb_01,2022.2.4,60.01217307994686,
1,stimuli/1.png,s,1,0,1,0,25,0,25,0,0,0,0,0,,,,,,,,,,,,,,,,,,,335.4686148087785,335.4686148087785,335.4686148087785,335.4686148087785,s,1,0.6540329224080779,336.1685758700769,336.1685758700769,336.1685758700769,,,,,,,,,,,,,,,,,,,,,,,,,,,,117,001,2023-03-03_10h23.27.462,eb_01,2022.2.4,60.01217307994686,
,,,1,0,1,0,25,0,25,0,,,,,,,,,,,,,,,,,,,,,,,,,,,,,,,,,,,,,,,,,,,,,,,,,,,,,,,,,,,,117,001,2023-03-03_10h23.27.462,eb_01,2022.2.4,60.01217307994686,
2,stimuli/2.png,s,1,0,1,0,26,0,26,0,0,0,0,0,,,,,,,,,,,,,,,,,,,337.16849557787646,337.16849557787646,337.16849557787646,337.16849557787646,s,1,0.7542390862072352,337.9517794077692,337.9517794077692,337.9517794077692,338.9683980802365,338.9683980802365,338.9683980802365,,,,,,,,,,,,,,,,,,,,,,,,,117,001,2023-03-03_10h23.27.462,eb_01,2022.2.4,60.01217307994686,
,,,1,0,1,0,26,0,26,0,,,,,,,,,,,,,,,,,,,,,,,,,,,,,,,,,,,,,,,,,,,,,,,,,,,,,,,,,,,,117,001,2023-03-03_10h23.27.462,eb_01,2022.2.4,60.01217307994686,
4,stimuli/4.png,l,1,0,1,0,27,0,27,0,0,0,0,0,,,,,,,,,,,,,,,,,,,338.9683980802365,338.9683980802365,338.9683980802365,338.9683980802365,l,1,0.7303518574626651,339.71835340638063,339.71835340638063,339.71835340638063,340.7349597029679,340.7349597029679,340.7349597029679,,,,,,,,,,,,,,,,,,,,,,,,,117,001,2023-03-03_10h23.27.462,eb_01,2022.2.4,60.01217307994686,
,,,1,0,1,0,27,0,27,0,,,,,,,,,,,,,,,,,,,,,,,,,,,,,,,,,,,,,,,,,,,,,,,,,,,,,,,,,,,,117,001,2023-03-03_10h23.27.462,eb_01,2022.2.4,60.01217307994686,
1,stimuli/1.png,s,1,0,1,0,28,0,28,0,0,0,0,0,,,,,,,,,,,,,,,,,,,340.7349597029679,340.7349597029679,340.7349597029679,340.7349597029679,s,1,0.5958268190152012,341.36827734007966,341.36827734007966,341.36827734007966,,,,,,,,,,,,,,,,,,,,,,,,,,,,117,001,2023-03-03_10h23.27.462,eb_01,2022.2.4,60.01217307994686,
,,,1,0,1,0,28,0,28,0,,,,,,,,,,,,,,,,,,,,,,,,,,,,,,,,,,,,,,,,,,,,,,,,,,,,,,,,,,,,117,001,2023-03-03_10h23.27.462,eb_01,2022.2.4,60.01217307994686,
4,stimuli/4.png,l,1,0,1,0,29,0,29,0,0,0,0,0,,,,,,,,,,,,,,,,,,,342.38484892388806,342.38484892388806,342.38484892388806,342.38484892388806,l,1,0.5459747256536502,342.95149959248374,342.95149959248374,342.95149959248374,343.96810287059634,343.96810287059634,343.96810287059634,,,,,,,,,,,,,,,,,,,,,,,,,117,001,2023-03-03_10h23.27.462,eb_01,2022.2.4,60.01217307994686,
,,,1,0,1,0,29,0,29,0,,,,,,,,,,,,,,,,,,,,,,,,,,,,,,,,,,,,,,,,,,,,,,,,,,,,,,,,,,,,117,001,2023-03-03_10h23.27.462,eb_01,2022.2.4,60.01217307994686,
1,stimuli/1.png,s,1,0,1,0,30,0,30,0,0,0,0,0,,,,,,,,,,,,,,,,,,,343.96810287059634,343.96810287059634,343.96810287059634,343.96810287059634,s,1,0.6427286270773038,344.6513981707685,344.6513981707685,344.6513981707685,,,,,,,,,,,,,,,,,,,,,,,,,,,,117,001,2023-03-03_10h23.27.462,eb_01,2022.2.4,60.01217307994686,
,,,1,0,1,0,30,0,30,0,,,,,,,,,,,,,,,,,,,,,,,,,,,,,,,,,,,,,,,,,,,,,,,,,,,,,,,,,,,,117,001,2023-03-03_10h23.27.462,eb_01,2022.2.4,60.01217307994686,
2,stimuli/2.png,s,1,0,1,0,31,0,31,0,0,0,0,0,,,,,,,,,,,,,,,,,,,345.6513486673357,345.6513486673357,345.6513486673357,345.6513486673357,s,1,0.8715710309916176,346.5513184822921,346.5513184822921,346.5513184822921,347.56788402909297,347.56788402909297,347.56788402909297,,,,,,,,,,,,,,,,,,,,,,,,,117,001,2023-03-03_10h23.27.462,eb_01,2022.2.4,60.01217307994686,
,,,1,0,1,0,31,0,31,0,,,,,,,,,,,,,,,,,,,,,,,,,,,,,,,,,,,,,,,,,,,,,,,,,,,,,,,,,,,,117,001,2023-03-03_10h23.27.462,eb_01,2022.2.4,60.01217307994686,
1,stimuli/1.png,s,1,0,1,0,32,0,32,0,0,0,0,0,,,,,,,,,,,,,,,,,,,347.56788402909297,347.56788402909297,347.56788402909297,347.56788402909297,s,1,0.8990620509721339,348.5011732922867,348.5011732922867,348.5011732922867,,,,,,,,,,,,,,,,,,,,,,,,,,,,117,001,2023-03-03_10h23.27.462,eb_01,2022.2.4,60.01217307994686,
,,,1,0,1,0,32,0,32,0,,,,,,,,,,,,,,,,,,,,,,,,,,,,,,,,,,,,,,,,,,,,,,,,,,,,,,,,,,,,117,001,2023-03-03_10h23.27.462,eb_01,2022.2.4,60.01217307994686,
4,stimuli/4.png,l,1,0,1,0,33,0,33,0,0,0,0,0,,,,,,,,,,,,,,,,,,,349.51774970570114,349.51774970570114,349.51774970570114,349.51774970570114,l,1,1.508278145629447,351.05100485979347,351.05100485979347,351.05100485979347,352.0509592803719,352.0509592803719,352.0509592803719,,,,,,,,,,,,,,,,,,,,,,,,,117,001,2023-03-03_10h23.27.462,eb_01,2022.2.4,60.01217307994686,
,,,1,0,1,0,33,0,33,0,,,,,,,,,,,,,,,,,,,,,,,,,,,,,,,,,,,,,,,,,,,,,,,,,,,,,,,,,,,,117,001,2023-03-03_10h23.27.462,eb_01,2022.2.4,60.01217307994686,
2,stimuli/2.png,s,1,0,1,0,34,0,34,0,0,0,0,0,,,,,,,,,,,,,,,,,,,352.0509592803719,352.0509592803719,352.0509592803719,352.0509592803719,s,1,0.7830742457299493,352.850908267661,352.850908267661,352.850908267661,353.86749011438224,353.86749011438224,353.86749011438224,,,,,,,,,,,,,,,,,,,,,,,,,117,001,2023-03-03_10h23.27.462,eb_01,2022.2.4,60.01217307994686,
,,,1,0,1,0,34,0,34,0,,,,,,,,,,,,,,,,,,,,,,,,,,,,,,,,,,,,,,,,,,,,,,,,,,,,,,,,,,,,117,001,2023-03-03_10h23.27.462,eb_01,2022.2.4,60.01217307994686,
1,stimuli/1.png,s,1,0,1,0,35,0,35,0,0,0,0,0,,,,,,,,,,,,,,,,,,,353.86749011438224,353.86749011438224,353.86749011438224,353.86749011438224,s,1,0.6785827126295771,354.5841471218446,354.5841471218446,354.5841471218446,,,,,,,,,,,,,,,,,,,,,,,,,,,,117,001,2023-03-03_10h23.27.462,eb_01,2022.2.4,60.01217307994686,
,,,1,0,1,0,35,0,35,0,,,,,,,,,,,,,,,,,,,,,,,,,,,,,,,,,,,,,,,,,,,,,,,,,,,,,,,,,,,,117,001,2023-03-03_10h23.27.462,eb_01,2022.2.4,60.01217307994686,
4,stimuli/4.png,l,1,0,1,0,36,0,36,0,0,0,0,0,,,,,,,,,,,,,,,,,,,355.6007428536832,355.6007428536832,355.6007428536832,355.6007428536832,l,1,0.9933782090083696,356.61735247063916,356.61735247063916,356.61735247063916,357.61727881914703,357.61727881914703,357.61727881914703,,,,,,,,,,,,,,,,,,,,,,,,,117,001,2023-03-03_10h23.27.462,eb_01,2022.2.4,60.01217307994686,
,,,1,0,1,0,36,0,36,0,,,,,,,,,,,,,,,,,,,,,,,,,,,,,,,,,,,,,,,,,,,,,,,,,,,,,,,,,,,,117,001,2023-03-03_10h23.27.462,eb_01,2022.2.4,60.01217307994686,
3,stimuli/3.png,l,1,0,1,0,37,0,37,0,0,0,0,0,,,,,,,,,,,,,,,,,,,357.61727881914703,357.61727881914703,357.61727881914703,357.61727881914703,l,1,1.0569080469431356,358.7005819674523,358.7005819674523,358.7005819674523,359.71718705663807,359.71718705663807,359.71718705663807,,,,,,,,,,,,,,,,,,,,,,,,,117,001,2023-03-03_10h23.27.462,eb_01,2022.2.4,60.01217307994686,
,,,1,0,1,0,37,0,37,0,,,,,,,,,,,,,,,,,,,,,,,,,,,,,,,,,,,,,,,,,,,,,,,,,,,,,,,,,,,,117,001,2023-03-03_10h23.27.462,eb_01,2022.2.4,60.01217307994686,
4,stimuli/4.png,l,1,0,1,0,38,0,38,0,0,0,0,0,,,,,,,,,,,,,,,,,,,359.71718705663807,359.71718705663807,359.71718705663807,359.71718705663807,l,1,0.7490071142092347,360.4837719218631,360.4837719218631,360.4837719218631,361.4837127592182,361.4837127592182,361.4837127592182,,,,,,,,,,,,,,,,,,,,,,,,,117,001,2023-03-03_10h23.27.462,eb_01,2022.2.4,60.01217307994686,
,,,1,0,1,0,38,0,38,0,,,,,,,,,,,,,,,,,,,,,,,,,,,,,,,,,,,,,,,,,,,,,,,,,,,,,,,,,,,,117,001,2023-03-03_10h23.27.462,eb_01,2022.2.4,60.01217307994686,
3,stimuli/3.png,l,1,0,1,0,39,0,39,0,0,0,0,0,,,,,,,,,,,,,,,,,,,361.4837127592182,361.4837127592182,361.4837127592182,361.4837127592182,l,1,0.686535563581856,362.2003643333446,362.2003643333446,362.2003643333446,363.21696368738776,363.21696368738776,363.21696368738776,,,,,,,,,,,,,,,,,,,,,,,,,117,001,2023-03-03_10h23.27.462,eb_01,2022.2.4,60.01217307994686,
,,,1,0,1,0,39,0,39,0,,,,,,,,,,,,,,,,,,,,,,,,,,,,,,,,,,,,,,,,,,,,,,,,,,,,,,,,,,,,117,001,2023-03-03_10h23.27.462,eb_01,2022.2.4,60.01217307994686,
4,stimuli/4.png,l,1,0,1,0,40,0,40,0,0,0,0,0,,,,,,,,,,,,,,,,,,,363.21696368738776,363.21696368738776,363.21696368738776,363.21696368738776,l,1,0.8093297922168858,364.0502257840417,364.0502257840417,364.0502257840417,365.05016631953185,365.05016631953185,365.05016631953185,,,,,,,,,,,,,,,,,,,,,,,,,117,001,2023-03-03_10h23.27.462,eb_01,2022.2.4,60.01217307994686,
,,,1,0,1,0,40,0,40,0,,,,,,,,,,,,,,,,,,,,,,,,,,,,,,,,,,,,,,,,,,,,,,,,,,,,,,,,,,,,117,001,2023-03-03_10h23.27.462,eb_01,2022.2.4,60.01217307994686,
2,stimuli/2.png,s,1,0,1,0,41,0,41,0,0,0,0,0,,,,,,,,,,,,,,,,,,,365.05016631953185,365.05016631953185,365.05016631953185,365.05016631953185,s,1,0.6162177152000368,365.68347550483304,365.68347550483304,365.68347550483304,366.70009115879657,366.70009115879657,366.70009115879657,,,,,,,,,,,,,,,,,,,,,,,,,117,001,2023-03-03_10h23.27.462,eb_01,2022.2.4,60.01217307994686,
,,,1,0,1,0,41,0,41,0,,,,,,,,,,,,,,,,,,,,,,,,,,,,,,,,,,,,,,,,,,,,,,,,,,,,,,,,,,,,117,001,2023-03-03_10h23.27.462,eb_01,2022.2.4,60.01217307994686,
1,stimuli/1.png,s,1,0,1,0,42,0,42,0,0,0,0,0,,,,,,,,,,,,,,,,,,,366.70009115879657,366.70009115879657,366.70009115879657,366.70009115879657,s,1,0.5652373052726034,367.3000531256548,367.3000531256548,367.3000531256548,,,,,,,,,,,,,,,,,,,,,,,,,,,,117,001,2023-03-03_10h23.27.462,eb_01,2022.2.4,60.01217307994686,
,,,1,0,1,0,42,0,42,0,,,,,,,,,,,,,,,,,,,,,,,,,,,,,,,,,,,,,,,,,,,,,,,,,,,,,,,,,,,,117,001,2023-03-03_10h23.27.462,eb_01,2022.2.4,60.01217307994686,
4,stimuli/4.png,l,1,0,1,0,43,0,43,0,0,0,0,0,,,,,,,,,,,,,,,,,,,368.31666576111456,368.31666576111456,368.31666576111456,368.31666576111456,l,1,0.7727554917510133,369.116626218718,369.116626218718,369.116626218718,370.11654773761984,370.11654773761984,370.11654773761984,,,,,,,,,,,,,,,,,,,,,,,,,117,001,2023-03-03_10h23.27.462,eb_01,2022.2.4,60.01217307994686,
,,,1,0,1,0,43,0,43,0,,,,,,,,,,,,,,,,,,,,,,,,,,,,,,,,,,,,,,,,,,,,,,,,,,,,,,,,,,,,117,001,2023-03-03_10h23.27.462,eb_01,2022.2.4,60.01217307994686,
3,stimuli/3.png,l,1,0,1,0,44,0,44,0,0,0,0,0,,,,,,,,,,,,,,,,,,,370.11654773761984,370.11654773761984,370.11654773761984,370.11654773761984,l,1,0.6369352134352084,370.7831564490334,370.7831564490334,370.7831564490334,371.7827996619162,371.7827996619162,371.7827996619162,,,,,,,,,,,,,,,,,,,,,,,,,117,001,2023-03-03_10h23.27.462,eb_01,2022.2.4,60.01217307994686,
,,,1,0,1,0,44,0,44,0,,,,,,,,,,,,,,,,,,,,,,,,,,,,,,,,,,,,,,,,,,,,,,,,,,,,,,,,,,,,117,001,2023-03-03_10h23.27.462,eb_01,2022.2.4,60.01217307994686,
8,stimuli/8.png,l,1,0,1,0,45,0,45,0,0,0,0,0,,,,,,,,,,,,,,,,,,,371.7827996619162,371.7827996619162,371.7827996619162,371.7827996619162,l,1,0.6427123271569144,372.44975580307073,372.44975580307073,372.44975580307073,373.46635727005196,373.46635727005196,373.46635727005196,,,,,,,,,,,,,,,,,,,,,,,,,117,001,2023-03-03_10h23.27.462,eb_01,2022.2.4,60.01217307994686,
,,,1,0,1,0,45,0,45,0,,,,,,,,,,,,,,,,,,,,,,,,,,,,,,,,,,,,,,,,,,,,,,,,,,,,,,,,,,,,117,001,2023-03-03_10h23.27.462,eb_01,2022.2.4,60.01217307994686,
9,stimuli/9.png,l,1,0,1,0,46,0,46,0,0,0,0,0,,,,,,,,,,,,,,,,,,,373.46635727005196,373.46635727005196,373.46635727005196,373.46635727005196,l,1,0.5751838777505327,374.0830043164606,374.0830043164606,374.0830043164606,,,,,,,,,,,,,,,,,,,,,,,,,,,,117,001,2023-03-03_10h23.27.462,eb_01,2022.2.4,60.01217307994686,
,,,1,0,1,0,46,0,46,0,,,,,,,,,,,,,,,,,,,,,,,,,,,,,,,,,,,,,,,,,,,,,,,,,,,,,,,,,,,,117,001,2023-03-03_10h23.27.462,eb_01,2022.2.4,60.01217307994686,
8,stimuli/8.png,l,1,0,1,0,47,0,47,0,0,0,0,0,,,,,,,,,,,,,,,,,,,375.09959220018936,375.09959220018936,375.09959220018936,375.09959220018936,l,1,0.6219649457198102,375.74953092457145,375.74953092457145,375.74953092457145,376.74950043766876,376.74950043766876,376.74950043766876,,,,,,,,,,,,,,,,,,,,,,,,,117,001,2023-03-03_10h23.27.462,eb_01,2022.2.4,60.01217307994686,
,,,1,0,1,0,47,0,47,0,,,,,,,,,,,,,,,,,,,,,,,,,,,,,,,,,,,,,,,,,,,,,,,,,,,,,,,,,,,,117,001,2023-03-03_10h23.27.462,eb_01,2022.2.4,60.01217307994686,
3,stimuli/3.png,l,1,0,1,0,48,0,48,0,0,0,0,0,,,,,,,,,,,,,,,,,,,376.74950043766876,376.74950043766876,376.74950043766876,376.74950043766876,l,1,0.5080967335670721,377.2827773249883,377.2827773249883,377.2827773249883,378.28241238792543,378.28241238792543,378.28241238792543,,,,,,,,,,,,,,,,,,,,,,,,,117,001,2023-03-03_10h23.27.462,eb_01,2022.2.4,60.01217307994686,
,,,1,0,1,0,48,0,48,0,,,,,,,,,,,,,,,,,,,,,,,,,,,,,,,,,,,,,,,,,,,,,,,,,,,,,,,,,,,,117,001,2023-03-03_10h23.27.462,eb_01,2022.2.4,60.01217307994686,
8,stimuli/8.png,l,1,0,1,0,49,0,49,0,0,0,0,0,,,,,,,,,,,,,,,,,,,378.28241238792543,378.28241238792543,378.28241238792543,378.28241238792543,l,1,0.6712607288791332,378.98269673096365,378.98269673096365,378.98269673096365,379.99930242385017,379.99930242385017,379.99930242385017,,,,,,,,,,,,,,,,,,,,,,,,,117,001,2023-03-03_10h23.27.462,eb_01,2022.2.4,60.01217307994686,
,,,1,0,1,0,49,0,49,0,,,,,,,,,,,,,,,,,,,,,,,,,,,,,,,,,,,,,,,,,,,,,,,,,,,,,,,,,,,,117,001,2023-03-03_10h23.27.462,eb_01,2022.2.4,60.01217307994686,
6,stimuli/6.png,s,1,0,1,0,50,0,50,0,0,0,0,0,,,,,,,,,,,,,,,,,,,379.99930242385017,379.99930242385017,379.99930242385017,379.99930242385017,s,1,0.9383795673493296,380.98256844456773,380.98256844456773,380.98256844456773,,,,,,,,,,,,,,,,,,,,,,,,,,,,117,001,2023-03-03_10h23.27.462,eb_01,2022.2.4,60.01217307994686,
,,,1,0,1,0,50,0,50,0,,,,,,,,,,,,,,,,,,,,,,,,,,,,,,,,,,,,,,,,,,,,,,,,,,,,,,,,,,,,117,001,2023-03-03_10h23.27.462,eb_01,2022.2.4,60.01217307994686,
9,stimuli/9.png,l,1,0,1,0,51,0,51,0,0,0,0,0,,,,,,,,,,,,,,,,,,,381.9991801744618,381.9991801744618,381.9991801744618,381.9991801744618,l,1,0.6175244253245182,382.66578194330214,382.66578194330214,382.66578194330214,,,,,,,,,,,,,,,,,,,,,,,,,,,,117,001,2023-03-03_10h23.27.462,eb_01,2022.2.4,60.01217307994686,
,,,1,0,1,0,51,0,51,0,,,,,,,,,,,,,,,,,,,,,,,,,,,,,,,,,,,,,,,,,,,,,,,,,,,,,,,,,,,,117,001,2023-03-03_10h23.27.462,eb_01,2022.2.4,60.01217307994686,
6,stimuli/6.png,s,1,0,1,0,52,0,52,0,0,0,0,0,,,,,,,,,,,,,,,,,,,383.682387032517,383.682387032517,383.682387032517,383.682387032517,s,1,0.5743797484610695,384.2990220048814,384.2990220048814,384.2990220048814,,,,,,,,,,,,,,,,,,,,,,,,,,,,117,001,2023-03-03_10h23.27.462,eb_01,2022.2.4,60.01217307994686,
,,,1,0,1,0,52,0,52,0,,,,,,,,,,,,,,,,,,,,,,,,,,,,,,,,,,,,,,,,,,,,,,,,,,,,,,,,,,,,117,001,2023-03-03_10h23.27.462,eb_01,2022.2.4,60.01217307994686,
5,stimuli/5.png,s,1,0,1,0,53,0,53,0,0,0,0,0,,,,,,,,,,,,,,,,,,,385.2986498234095,385.2986498234095,385.2986498234095,385.2986498234095,s,1,0.5581287297245581,385.88227323492174,385.88227323492174,385.88227323492174,386.898877116706,386.898877116706,386.898877116706,,,,,,,,,,,,,,,,,,,,,,,,,117,001,2023-03-03_10h23.27.462,eb_01,2022.2.4,60.01217307994686,
,,,1,0,1,0,53,0,53,0,,,,,,,,,,,,,,,,,,,,,,,,,,,,,,,,,,,,,,,,,,,,,,,,,,,,,,,,,,,,117,001,2023-03-03_10h23.27.462,eb_01,2022.2.4,60.01217307994686,
6,stimuli/6.png,s,1,0,1,0,54,0,54,0,0,0,0,0,,,,,,,,,,,,,,,,,,,386.898877116706,386.898877116706,386.898877116706,386.898877116706,s,1,0.5659430313680787,387.4988125207601,387.4988125207601,387.4988125207601,,,,,,,,,,,,,,,,,,,,,,,,,,,,117,001,2023-03-03_10h23.27.462,eb_01,2022.2.4,60.01217307994686,
,,,1,0,1,0,54,0,54,0,,,,,,,,,,,,,,,,,,,,,,,,,,,,,,,,,,,,,,,,,,,,,,,,,,,,,,,,,,,,117,001,2023-03-03_10h23.27.462,eb_01,2022.2.4,60.01217307994686,
9,stimuli/9.png,l,1,0,1,0,55,0,55,0,0,0,0,0,,,,,,,,,,,,,,,,,,,388.5154453801806,388.5154453801806,388.5154453801806,388.5154453801806,l,1,0.5574220980633982,389.11540070633055,389.11540070633055,389.11540070633055,,,,,,,,,,,,,,,,,,,,,,,,,,,,117,001,2023-03-03_10h23.27.462,eb_01,2022.2.4,60.01217307994686,
,,,1,0,1,0,55,0,55,0,,,,,,,,,,,,,,,,,,,,,,,,,,,,,,,,,,,,,,,,,,,,,,,,,,,,,,,,,,,,117,001,2023-03-03_10h23.27.462,eb_01,2022.2.4,60.01217307994686,
6,stimuli/6.png,s,1,0,1,0,56,0,56,0,0,0,0,0,,,,,,,,,,,,,,,,,,,390.13201937879785,390.13201937879785,390.13201937879785,390.13201937879785,s,1,0.5168374139466323,390.69864921970293,390.69864921970293,390.69864921970293,,,,,,,,,,,,,,,,,,,,,,,,,,,,117,001,2023-03-03_10h23.27.462,eb_01,2022.2.4,60.01217307994686,
,,,1,0,1,0,56,0,56,0,,,,,,,,,,,,,,,,,,,,,,,,,,,,,,,,,,,,,,,,,,,,,,,,,,,,,,,,,,,,117,001,2023-03-03_10h23.27.462,eb_01,2022.2.4,60.01217307994686,
8,stimuli/8.png,l,1,0,1,0,57,0,57,0,0,0,0,0,,,,,,,,,,,,,,,,,,,391.69827401972725,391.69827401972725,391.69827401972725,391.69827401972725,l,1,0.5826670496026054,392.29855594795663,392.29855594795663,392.29855594795663,393.29851006669924,393.29851006669924,393.29851006669924,,,,,,,,,,,,,,,,,,,,,,,,,117,001,2023-03-03_10h23.27.462,eb_01,2022.2.4,60.01217307994686,
,,,1,0,1,0,57,0,57,0,,,,,,,,,,,,,,,,,,,,,,,,,,,,,,,,,,,,,,,,,,,,,,,,,,,,,,,,,,,,117,001,2023-03-03_10h23.27.462,eb_01,2022.2.4,60.01217307994686,
3,stimuli/3.png,l,1,0,1,0,58,0,58,0,0,0,0,0,,,,,,,,,,,,,,,,,,,393.29851006669924,393.29851006669924,393.29851006669924,393.29851006669924,l,1,0.5664625157951377,393.88179631138337,393.88179631138337,393.88179631138337,394.88174258201616,394.88174258201616,394.88174258201616,,,,,,,,,,,,,,,,,,,,,,,,,117,001,2023-03-03_10h23.27.462,eb_01,2022.2.4,60.01217307994686,
,,,1,0,1,0,58,0,58,0,,,,,,,,,,,,,,,,,,,,,,,,,,,,,,,,,,,,,,,,,,,,,,,,,,,,,,,,,,,,117,001,2023-03-03_10h23.27.462,eb_01,2022.2.4,60.01217307994686,
2,stimuli/2.png,s,1,0,1,0,59,0,59,0,0,0,0,0,,,,,,,,,,,,,,,,,,,394.88174258201616,394.88174258201616,394.88174258201616,394.88174258201616,s,1,0.543269844725728,395.4483663859428,395.4483663859428,395.4483663859428,396.44831326027634,396.44831326027634,396.44831326027634,,,,,,,,,,,,,,,,,,,,,,,,,117,001,2023-03-03_10h23.27.462,eb_01,2022.2.4,60.01217307994686,
,,,1,0,1,0,59,0,59,0,,,,,,,,,,,,,,,,,,,,,,,,,,,,,,,,,,,,,,,,,,,,,,,,,,,,,,,,,,,,117,001,2023-03-03_10h23.27.462,eb_01,2022.2.4,60.01217307994686,
3,stimuli/3.png,l,1,0,1,0,60,0,60,0,0,0,0,0,,,,,,,,,,,,,,,,,,,396.44831326027634,396.44831326027634,396.44831326027634,396.44831326027634,l,1,0.8637715200020466,397.3315880346345,397.3315880346345,397.3315880346345,398.3481873886776,398.3481873886776,398.3481873886776,,,,,,,,,,,,,,,,,,,,,,,,,117,001,2023-03-03_10h23.27.462,eb_01,2022.2.4,60.01217307994686,
,,,1,0,1,0,60,0,60,0,,,,,,,,,,,,,,,,,,,,,,,,,,,,,,,,,,,,,,,,,,,,,,,,,,,,,,,,,,,,117,001,2023-03-03_10h23.27.462,eb_01,2022.2.4,60.01217307994686,
8,stimuli/8.png,l,1,0,1,0,61,0,61,0,0,0,0,0,,,,,,,,,,,,,,,,,,,398.3481873886776,398.3481873886776,398.3481873886776,398.3481873886776,l,1,0.5959406165638939,398.964827492513,398.964827492513,398.964827492513,399.9647671224666,399.9647671224666,399.9647671224666,,,,,,,,,,,,,,,,,,,,,,,,,117,001,2023-03-03_10h23.27.462,eb_01,2022.2.4,60.01217307994686,
,,,1,0,1,0,61,0,61,0,,,,,,,,,,,,,,,,,,,,,,,,,,,,,,,,,,,,,,,,,,,,,,,,,,,,,,,,,,,,117,001,2023-03-03_10h23.27.462,eb_01,2022.2.4,60.01217307994686,
3,stimuli/3.png,l,1,0,1,0,62,0,62,0,0,0,0,0,,,,,,,,,,,,,,,,,,,399.9647671224666,399.9647671224666,399.9647671224666,399.9647671224666,l,1,0.5313594339240808,400.5147330133768,400.5147330133768,400.5147330133768,401.5143572097004,401.5143572097004,401.5143572097004,,,,,,,,,,,,,,,,,,,,,,,,,117,001,2023-03-03_10h23.27.462,eb_01,2022.2.4,60.01217307994686,
,,,1,0,1,0,62,0,62,0,,,,,,,,,,,,,,,,,,,,,,,,,,,,,,,,,,,,,,,,,,,,,,,,,,,,,,,,,,,,117,001,2023-03-03_10h23.27.462,eb_01,2022.2.4,60.01217307994686,
8,stimuli/8.png,l,1,0,1,0,63,0,63,0,0,0,0,0,,,,,,,,,,,,,,,,,,,401.5143572097004,401.5143572097004,401.5143572097004,401.5143572097004,l,1,0.5658147449721582,402.09797971564694,402.09797971564694,402.09797971564694,403.11457756045274,403.11457756045274,403.11457756045274,,,,,,,,,,,,,,,,,,,,,,,,,117,001,2023-03-03_10h23.27.462,eb_01,2022.2.4,60.01217307994686,
,,,1,0,1,0,63,0,63,0,,,,,,,,,,,,,,,,,,,,,,,,,,,,,,,,,,,,,,,,,,,,,,,,,,,,,,,,,,,,117,001,2023-03-03_10h23.27.462,eb_01,2022.2.4,60.01217307994686,
6,stimuli/6.png,s,1,0,1,0,64,0,64,0,0,0,0,0,,,,,,,,,,,,,,,,,,,403.11457756045274,403.11457756045274,403.11457756045274,403.11457756045274,s,1,0.7256218626280315,403.88120528840227,403.88120528840227,403.88120528840227,,,,,,,,,,,,,,,,,,,,,,,,,,,,117,001,2023-03-03_10h23.27.462,eb_01,2022.2.4,60.01217307994686,
,,,1,0,1,0,64,0,64,0,,,,,,,,,,,,,,,,,,,,,,,,,,,,,,,,,,,,,,,,,,,,,,,,,,,,,,,,,,,,117,001,2023-03-03_10h23.27.462,eb_01,2022.2.4,60.01217307994686,
9,stimuli/9.png,l,1,0,1,0,65,0,65,0,0,0,0,0,,,,,,,,,,,,,,,,,,,404.8978043406096,404.8978043406096,404.8978043406096,404.8978043406096,l,1,0.6703995498246513,405.61442784266546,405.61442784266546,405.61442784266546,,,,,,,,,,,,,,,,,,,,,,,,,,,,117,001,2023-03-03_10h23.27.462,eb_01,2022.2.4,60.01217307994686,
,,,1,0,1,0,65,0,65,0,,,,,,,,,,,,,,,,,,,,,,,,,,,,,,,,,,,,,,,,,,,,,,,,,,,,,,,,,,,,117,001,2023-03-03_10h23.27.462,eb_01,2022.2.4,60.01217307994686,
6,stimuli/6.png,s,1,0,1,0,66,0,66,0,0,0,0,0,,,,,,,,,,,,,,,,,,,406.6310347429826,406.6310347429826,406.6310347429826,406.6310347429826,s,1,0.7932671281159855,407.4643215913384,407.4643215913384,407.4643215913384,,,,,,,,,,,,,,,,,,,,,,,,,,,,117,001,2023-03-03_10h23.27.462,eb_01,2022.2.4,60.01217307994686,
,,,1,0,1,0,66,0,66,0,,,,,,,,,,,,,,,,,,,,,,,,,,,,,,,,,,,,,,,,,,,,,,,,,,,,,,,,,,,,117,001,2023-03-03_10h23.27.462,eb_01,2022.2.4,60.01217307994686,
9,stimuli/9.png,l,1,0,1,0,67,0,67,0,0,0,0,0,,,,,,,,,,,,,,,,,,,408.48092003984493,408.48092003984493,408.48092003984493,408.48092003984493,l,1,0.5914128614531364,409.11419360680156,409.11419360680156,409.11419360680156,,,,,,,,,,,,,,,,,,,,,,,,,,,,117,001,2023-03-03_10h23.27.462,eb_01,2022.2.4,60.01217307994686,
,,,1,0,1,0,67,0,67,0,,,,,,,,,,,,,,,,,,,,,,,,,,,,,,,,,,,,,,,,,,,,,,,,,,,,,,,,,,,,117,001,2023-03-03_10h23.27.462,eb_01,2022.2.4,60.01217307994686,
6,stimuli/6.png,s,1,0,1,0,68,0,68,0,0,0,0,0,,,,,,,,,,,,,,,,,,,410.1308322013938,410.1308322013938,410.1308322013938,410.1308322013938,s,1,0.6615130757563747,410.8308186181239,410.8308186181239,410.8308186181239,,,,,,,,,,,,,,,,,,,,,,,,,,,,117,001,2023-03-03_10h23.27.462,eb_01,2022.2.4,60.01217307994686,
,,,1,0,1,0,68,0,68,0,,,,,,,,,,,,,,,,,,,,,,,,,,,,,,,,,,,,,,,,,,,,,,,,,,,,,,,,,,,,117,001,2023-03-03_10h23.27.462,eb_01,2022.2.4,60.01217307994686,
8,stimuli/8.png,l,1,0,1,0,69,0,69,0,0,0,0,0,,,,,,,,,,,,,,,,,,,411.8473488484451,411.8473488484451,411.8473488484451,411.8473488484451,l,1,0.6170973070838954,412.49734733917285,412.49734733917285,412.49734733917285,413.5139608801983,413.5139608801983,413.5139608801983,,,,,,,,,,,,,,,,,,,,,,,,,117,001,2023-03-03_10h23.27.462,eb_01,2022.2.4,60.01217307994686,
,,,1,0,1,0,69,0,69,0,,,,,,,,,,,,,,,,,,,,,,,,,,,,,,,,,,,,,,,,,,,,,,,,,,,,,,,,,,,,117,001,2023-03-03_10h23.27.462,eb_01,2022.2.4,60.01217307994686,
6,stimuli/6.png,s,1,0,1,0,70,0,70,0,0,0,0,0,,,,,,,,,,,,,,,,,,,413.5139608801983,413.5139608801983,413.5139608801983,413.5139608801983,s,1,0.6134790270298254,414.16391681003734,414.16391681003734,414.16391681003734,,,,,,,,,,,,,,,,,,,,,,,,,,,,117,001,2023-03-03_10h23.27.462,eb_01,2022.2.4,60.01217307994686,
,,,1,0,1,0,70,0,70,0,,,,,,,,,,,,,,,,,,,,,,,,,,,,,,,,,,,,,,,,,,,,,,,,,,,,,,,,,,,,117,001,2023-03-03_10h23.27.462,eb_01,2022.2.4,60.01217307994686,
9,stimuli/9.png,l,1,0,1,0,71,0,71,0,0,0,0,0,,,,,,,,,,,,,,,,,,,415.1805297473329,415.1805297473329,415.1805297473329,415.1805297473329,l,1,0.698960327426903,415.91382595308824,415.91382595308824,415.91382595308824,,,,,,,,,,,,,,,,,,,,,,,,,,,,117,001,2023-03-03_10h23.27.462,eb_01,2022.2.4,60.01217307994686,
,,,1,0,1,0,71,0,71,0,,,,,,,,,,,,,,,,,,,,,,,,,,,,,,,,,,,,,,,,,,,,,,,,,,,,,,,,,,,,117,001,2023-03-03_10h23.27.462,eb_01,2022.2.4,60.01217307994686,
6,stimuli/6.png,s,1,0,1,0,72,0,72,0,0,0,0,0,,,,,,,,,,,,,,,,,,,416.9304198738246,416.9304198738246,416.9304198738246,416.9304198738246,s,1,0.6450897004688159,417.61371638139826,417.61371638139826,417.61371638139826,,,,,,,,,,,,,,,,,,,,,,,,,,,,117,001,2023-03-03_10h23.27.462,eb_01,2022.2.4,60.01217307994686,
,,,1,0,1,0,72,0,72,0,,,,,,,,,,,,,,,,,,,,,,,,,,,,,,,,,,,,,,,,,,,,,,,,,,,,,,,,,,,,117,001,2023-03-03_10h23.27.462,eb_01,2022.2.4,60.01217307994686,
8,stimuli/8.png,l,1,0,1,0,73,0,73,0,0,0,0,0,,,,,,,,,,,,,,,,,,,418.6303199613467,418.6303199613467,418.6303199613467,418.6303199613467,l,1,0.6492657999624498,419.2969706299482,419.2969706299482,419.2969706299482,420.3135772284004,420.3135772284004,420.3135772284004,,,,,,,,,,,,,,,,,,,,,,,,,117,001,2023-03-03_10h23.27.462,eb_01,2022.2.4,60.01217307994686,
,,,1,0,1,0,73,0,73,0,,,,,,,,,,,,,,,,,,,,,,,,,,,,,,,,,,,,,,,,,,,,,,,,,,,,,,,,,,,,117,001,2023-03-03_10h23.27.462,eb_01,2022.2.4,60.01217307994686,
9,stimuli/9.png,l,1,0,1,0,74,0,74,0,0,0,0,0,,,,,,,,,,,,,,,,,,,420.3135772284004,420.3135772284004,420.3135772284004,420.3135772284004,l,1,1.1180424005142413,421.480161188083,421.480161188083,421.480161188083,,,,,,,,,,,,,,,,,,,,,,,,,,,,117,001,2023-03-03_10h23.27.462,eb_01,2022.2.4,60.01217307994686,
,,,1,0,1,0,74,0,74,0,,,,,,,,,,,,,,,,,,,,,,,,,,,,,,,,,,,,,,,,,,,,,,,,,,,,,,,,,,,,117,001,2023-03-03_10h23.27.462,eb_01,2022.2.4,60.01217307994686,
5,stimuli/5.png,s,1,0,1,0,75,0,75,0,0,0,0,0,,,,,,,,,,,,,,,,,,,422.4797865918081,422.4797865918081,422.4797865918081,422.4797865918081,s,1,0.5038210234779399,423.01339702375117,423.01339702375117,423.01339702375117,424.0300027166377,424.0300027166377,424.0300027166377,,,,,,,,,,,,,,,,,,,,,,,,,117,001,2023-03-03_10h23.27.462,eb_01,2022.2.4,60.01217307994686,
,,,1,0,1,0,75,0,75,0,,,,,,,,,,,,,,,,,,,,,,,,,,,,,,,,,,,,,,,,,,,,,,,,,,,,,,,,,,,,117,001,2023-03-03_10h23.27.462,eb_01,2022.2.4,60.01217307994686,
6,stimuli/6.png,s,1,0,1,0,76,0,76,0,0,0,0,0,,,,,,,,,,,,,,,,,,,424.0300027166377,424.0300027166377,424.0300027166377,424.0300027166377,s,1,0.49768138749641366,424.5633028464508,424.5633028464508,424.5633028464508,,,,,,,,,,,,,,,,,,,,,,,,,,,,117,001,2023-03-03_10h23.27.462,eb_01,2022.2.4,60.01217307994686,
,,,1,0,1,0,76,0,76,0,,,,,,,,,,,,,,,,,,,,,,,,,,,,,,,,,,,,,,,,,,,,,,,,,,,,,,,,,,,,117,001,2023-03-03_10h23.27.462,eb_01,2022.2.4,60.01217307994686,
8,stimuli/8.png,l,1,0,1,0,77,0,77,0,0,0,0,0,,,,,,,,,,,,,,,,,,,425.57990884120227,425.57990884120227,425.57990884120227,425.57990884120227,l,1,0.7078169183223508,426.313216215407,426.313216215407,426.313216215407,427.3298065139097,427.3298065139097,427.3298065139097,,,,,,,,,,,,,,,,,,,,,,,,,117,001,2023-03-03_10h23.27.462,eb_01,2022.2.4,60.01217307994686,
,,,1,0,1,0,77,0,77,0,,,,,,,,,,,,,,,,,,,,,,,,,,,,,,,,,,,,,,,,,,,,,,,,,,,,,,,,,,,,117,001,2023-03-03_10h23.27.462,eb_01,2022.2.4,60.01217307994686,
6,stimuli/6.png,s,1,0,1,0,78,0,78,0,0,0,0,0,,,,,,,,,,,,,,,,,,,427.3298065139097,427.3298065139097,427.3298065139097,427.3298065139097,s,1,0.8369780762295704,428.2130752512894,428.2130752512894,428.2130752512894,,,,,,,,,,,,,,,,,,,,,,,,,,,,117,001,2023-03-03_10h23.27.462,eb_01,2022.2.4,60.01217307994686,
,,,1,0,1,0,78,0,78,0,,,,,,,,,,,,,,,,,,,,,,,,,,,,,,,,,,,,,,,,,,,,,,,,,,,,,,,,,,,,117,001,2023-03-03_10h23.27.462,eb_01,2022.2.4,60.01217307994686,
8,stimuli/8.png,l,1,0,1,0,79,0,79,0,0,0,0,0,,,,,,,,,,,,,,,,,,,429.22968758488423,429.22968758488423,429.22968758488423,429.22968758488423,l,1,0.5851479575794656,429.84635304415133,429.84635304415133,429.84635304415133,430.86293368347106,430.86293368347106,430.86293368347106,,,,,,,,,,,,,,,,,,,,,,,,,117,001,2023-03-03_10h23.27.462,eb_01,2022.2.4,60.01217307994686,
,,,1,0,1,0,79,0,79,0,,,,,,,,,,,,,,,,,,,,,,,,,,,,,,,,,,,,,,,,,,,,,,,,,,,,,,,,,,,,117,001,2023-03-03_10h23.27.462,eb_01,2022.2.4,60.01217307994686,
9,stimuli/9.png,l,1,0,1,0,80,0,80,0,0,0,0,0,,,,,,,,,,,,,,,,,,,430.86293368347106,430.86293368347106,430.86293368347106,430.86293368347106,l,1,0.5278944938327186,431.4295620151388,431.4295620151388,431.4295620151388,,,,,,,,,,,,,,,,,,,,,,,,,,,,117,001,2023-03-03_10h23.27.462,eb_01,2022.2.4,60.01217307994686,
,,,1,0,1,0,80,0,80,0,,,,,,,,,,,,,,,,,,,,,,,,,,,,,,,,,,,,,,,,,,,,,,,,,,,,,,,,,,,,117,001,2023-03-03_10h23.27.462,eb_01,2022.2.4,60.01217307994686,
6,stimuli/6.png,s,1,0,1,0,81,0,81,0,0,0,0,0,,,,,,,,,,,,,,,,,,,432.4461185064283,432.4461185064283,432.4461185064283,432.4461185064283,s,1,0.944778492761543,433.4294883636758,433.4294883636758,433.4294883636758,,,,,,,,,,,,,,,,,,,,,,,,,,,,117,001,2023-03-03_10h23.27.462,eb_01,2022.2.4,60.01217307994686,
,,,1,0,1,0,81,0,81,0,,,,,,,,,,,,,,,,,,,,,,,,,,,,,,,,,,,,,,,,,,,,,,,,,,,,,,,,,,,,117,001,2023-03-03_10h23.27.462,eb_01,2022.2.4,60.01217307994686,
9,stimuli/9.png,l,1,0,1,0,82,0,82,0,0,0,0,0,,,,,,,,,,,,,,,,,,,434.44604334569885,434.44604334569885,434.44604334569885,434.44604334569885,l,1,0.552872609696351,435.0460119532654,435.0460119532654,435.0460119532654,,,,,,,,,,,,,,,,,,,,,,,,,,,,117,001,2023-03-03_10h23.27.462,eb_01,2022.2.4,60.01217307994686,
,,,1,0,1,0,82,0,82,0,,,,,,,,,,,,,,,,,,,,,,,,,,,,,,,,,,,,,,,,,,,,,,,,,,,,,,,,,,,,117,001,2023-03-03_10h23.27.462,eb_01,2022.2.4,60.01217307994686,
6,stimuli/6.png,s,1,0,1,0,83,0,83,0,0,0,0,0,,,,,,,,,,,,,,,,,,,436.06262338132365,436.06262338132365,436.06262338132365,436.06262338132365,s,1,0.7523869324941188,436.86257659451803,436.86257659451803,436.86257659451803,,,,,,,,,,,,,,,,,,,,,,,,,,,,117,001,2023-03-03_10h23.27.462,eb_01,2022.2.4,60.01217307994686,
,,,1,0,1,0,83,0,83,0,,,,,,,,,,,,,,,,,,,,,,,,,,,,,,,,,,,,,,,,,,,,,,,,,,,,,,,,,,,,117,001,2023-03-03_10h23.27.462,eb_01,2022.2.4,60.01217307994686,
8,stimuli/8.png,l,1,0,1,0,84,0,84,0,0,0,0,0,,,,,,,,,,,,,,,,,,,437.8621995834401,437.8621995834401,437.8621995834401,437.8621995834401,l,1,0.7368193029251415,438.6291708170902,438.6291708170902,438.6291708170902,439.6290733194328,439.6290733194328,439.6290733194328,,,,,,,,,,,,,,,,,,,,,,,,,117,001,2023-03-03_10h23.27.462,eb_01,2022.2.4,60.01217307994686,
,,,1,0,1,0,84,0,84,0,,,,,,,,,,,,,,,,,,,,,,,,,,,,,,,,,,,,,,,,,,,,,,,,,,,,,,,,,,,,117,001,2023-03-03_10h23.27.462,eb_01,2022.2.4,60.01217307994686,
3,stimuli/3.png,l,1,0,1,0,85,0,85,0,0,0,0,0,,,,,,,,,,,,,,,,,,,439.6290733194328,439.6290733194328,439.6290733194328,439.6290733194328,l,1,0.6819752086303197,440.3290458510746,440.3290458510746,440.3290458510746,441.34563614957733,441.34563614957733,441.34563614957733,,,,,,,,,,,,,,,,,,,,,,,,,117,001,2023-03-03_10h23.27.462,eb_01,2022.2.4,60.01217307994686,
,,,1,0,1,0,85,0,85,0,,,,,,,,,,,,,,,,,,,,,,,,,,,,,,,,,,,,,,,,,,,,,,,,,,,,,,,,,,,,117,001,2023-03-03_10h23.27.462,eb_01,2022.2.4,60.01217307994686,
8,stimuli/8.png,l,1,0,1,0,86,0,86,0,0,0,0,0,,,,,,,,,,,,,,,,,,,441.34563614957733,441.34563614957733,441.34563614957733,441.34563614957733,l,1,0.8134560864127707,442.17892329982715,442.17892329982715,442.17892329982715,443.1788659482554,443.1788659482554,443.1788659482554,,,,,,,,,,,,,,,,,,,,,,,,,117,001,2023-03-03_10h23.27.462,eb_01,2022.2.4,60.01217307994686,
,,,1,0,1,0,86,0,86,0,,,,,,,,,,,,,,,,,,,,,,,,,,,,,,,,,,,,,,,,,,,,,,,,,,,,,,,,,,,,117,001,2023-03-03_10h23.27.462,eb_01,2022.2.4,60.01217307994686,
3,stimuli/3.png,l,1,0,1,0,87,0,87,0,0,0,0,0,,,,,,,,,,,,,,,,,,,443.1788659482554,443.1788659482554,443.1788659482554,443.1788659482554,l,1,0.5793162089539692,443.77883002805174,443.77883002805174,443.77883002805174,444.77878716532723,444.77878716532723,444.77878716532723,,,,,,,,,,,,,,,,,,,,,,,,,117,001,2023-03-03_10h23.27.462,eb_01,2022.2.4,60.01217307994686,
,,,1,0,1,0,87,0,87,0,,,,,,,,,,,,,,,,,,,,,,,,,,,,,,,,,,,,,,,,,,,,,,,,,,,,,,,,,,,,117,001,2023-03-03_10h23.27.462,eb_01,2022.2.4,60.01217307994686,
2,stimuli/2.png,s,1,0,1,0,88,0,88,0,0,0,0,0,,,,,,,,,,,,,,,,,,,444.77878716532723,444.77878716532723,444.77878716532723,444.77878716532723,s,1,0.7153843063861132,445.5120601285889,445.5120601285889,445.5120601285889,446.5286957046774,446.5286957046774,446.5286957046774,,,,,,,,,,,,,,,,,,,,,,,,,117,001,2023-03-03_10h23.27.462,eb_01,2022.2.4,60.01217307994686,
,,,1,0,1,0,88,0,88,0,,,,,,,,,,,,,,,,,,,,,,,,,,,,,,,,,,,,,,,,,,,,,,,,,,,,,,,,,,,,117,001,2023-03-03_10h23.27.462,eb_01,2022.2.4,60.01217307994686,
4,stimuli/4.png,l,1,0,1,0,89,0,89,0,0,0,0,0,,,,,,,,,,,,,,,,,,,446.5286957046774,446.5286957046774,446.5286957046774,446.5286957046774,l,1,0.5415106609580107,447.09533218629076,447.09533218629076,447.09533218629076,448.11191041080747,448.11191041080747,448.11191041080747,,,,,,,,,,,,,,,,,,,,,,,,,117,001,2023-03-03_10h23.27.462,eb_01,2022.2.4,60.01217307994686,
,,,1,0,1,0,89,0,89,0,,,,,,,,,,,,,,,,,,,,,,,,,,,,,,,,,,,,,,,,,,,,,,,,,,,,,,,,,,,,117,001,2023-03-03_10h23.27.462,eb_01,2022.2.4,60.01217307994686,
1,stimuli/1.png,s,1,0,1,0,90,0,90,0,0,0,0,0,,,,,,,,,,,,,,,,,,,448.11191041080747,448.11191041080747,448.11191041080747,448.11191041080747,s,1,0.5583424397627823,448.711874188768,448.711874188768,448.711874188768,,,,,,,,,,,,,,,,,,,,,,,,,,,,117,001,2023-03-03_10h23.27.462,eb_01,2022.2.4,60.01217307994686,
,,,1,0,1,0,90,0,90,0,,,,,,,,,,,,,,,,,,,,,,,,,,,,,,,,,,,,,,,,,,,,,,,,,,,,,,,,,,,,117,001,2023-03-03_10h23.27.462,eb_01,2022.2.4,60.01217307994686,
2,stimuli/2.png,s,1,0,1,0,91,0,91,0,0,0,0,0,,,,,,,,,,,,,,,,,,,449.7118440037302,449.7118440037302,449.7118440037302,449.7118440037302,s,1,0.5424198341788724,450.2784484892327,450.2784484892327,450.2784484892327,451.2950478432758,451.2950478432758,451.2950478432758,,,,,,,,,,,,,,,,,,,,,,,,,117,001,2023-03-03_10h23.27.462,eb_01,2022.2.4,60.01217307994686,
,,,1,0,1,0,91,0,91,0,,,,,,,,,,,,,,,,,,,,,,,,,,,,,,,,,,,,,,,,,,,,,,,,,,,,,,,,,,,,117,001,2023-03-03_10h23.27.462,eb_01,2022.2.4,60.01217307994686,
4,stimuli/4.png,l,1,0,1,0,92,0,92,0,0,0,0,0,,,,,,,,,,,,,,,,,,,451.2950478432758,451.2950478432758,451.2950478432758,451.2950478432758,l,1,0.5512767269392498,451.87837785625015,451.87837785625015,451.87837785625015,452.89495366596384,452.89495366596384,452.89495366596384,,,,,,,,,,,,,,,,,,,,,,,,,117,001,2023-03-03_10h23.27.462,eb_01,2022.2.4,60.01217307994686,
,,,1,0,1,0,92,0,92,0,,,,,,,,,,,,,,,,,,,,,,,,,,,,,,,,,,,,,,,,,,,,,,,,,,,,,,,,,,,,117,001,2023-03-03_10h23.27.462,eb_01,2022.2.4,60.01217307994686,
1,stimuli/1.png,s,1,0,1,0,93,0,93,0,0,0,0,0,,,,,,,,,,,,,,,,,,,452.89495366596384,452.89495366596384,452.89495366596384,452.89495366596384,s,1,0.5034156384353992,453.4449252920458,453.4449252920458,453.4449252920458,,,,,,,,,,,,,,,,,,,,,,,,,,,,117,001,2023-03-03_10h23.27.462,eb_01,2022.2.4,60.01217307994686,
,,,1,0,1,0,93,0,93,0,,,,,,,,,,,,,,,,,,,,,,,,,,,,,,,,,,,,,,,,,,,,,,,,,,,,,,,,,,,,117,001,2023-03-03_10h23.27.462,eb_01,2022.2.4,60.01217307994686,
2,stimuli/2.png,s,1,0,1,0,94,0,94,0,0,0,0,0,,,,,,,,,,,,,,,,,,,454.44486673307256,454.44486673307256,454.44486673307256,454.44486673307256,s,1,0.5615529200003948,455.0281650517718,455.0281650517718,455.0281650517718,456.044771650224,456.044771650224,456.044771650224,,,,,,,,,,,,,,,,,,,,,,,,,117,001,2023-03-03_10h23.27.462,eb_01,2022.2.4,60.01217307994686,
,,,1,0,1,0,94,0,94,0,,,,,,,,,,,,,,,,,,,,,,,,,,,,,,,,,,,,,,,,,,,,,,,,,,,,,,,,,,,,117,001,2023-03-03_10h23.27.462,eb_01,2022.2.4,60.01217307994686,
4,stimuli/4.png,l,1,0,1,0,95,0,95,0,0,0,0,0,,,,,,,,,,,,,,,,,,,456.044771650224,456.044771650224,456.044771650224,456.044771650224,l,1,0.5776505987741984,456.6447378429584,456.6447378429584,456.6447378429584,457.6446820006531,457.6446820006531,457.6446820006531,,,,,,,,,,,,,,,,,,,,,,,,,117,001,2023-03-03_10h23.27.462,eb_01,2022.2.4,60.01217307994686,
,,,1,0,1,0,95,0,95,0,,,,,,,,,,,,,,,,,,,,,,,,,,,,,,,,,,,,,,,,,,,,,,,,,,,,,,,,,,,,117,001,2023-03-03_10h23.27.462,eb_01,2022.2.4,60.01217307994686,
2,stimuli/2.png,s,1,0,1,0,96,0,96,0,0,0,0,0,,,,,,,,,,,,,,,,,,,457.6446820006531,457.6446820006531,457.6446820006531,457.6446820006531,s,1,0.45776952779851854,458.1279763953062,458.1279763953062,458.1279763953062,459.14458721966366,459.14458721966366,459.14458721966366,,,,,,,,,,,,,,,,,,,,,,,,,117,001,2023-03-03_10h23.27.462,eb_01,2022.2.4,60.01217307994686,
,,,1,0,1,0,96,0,96,0,,,,,,,,,,,,,,,,,,,,,,,,,,,,,,,,,,,,,,,,,,,,,,,,,,,,,,,,,,,,117,001,2023-03-03_10h23.27.462,eb_01,2022.2.4,60.01217307994686,
4,stimuli/4.png,l,1,0,1,0,97,0,97,0,0,0,0,0,,,,,,,,,,,,,,,,,,,459.14458721966366,459.14458721966366,459.14458721966366,459.14458721966366,l,1,0.4689198794658296,459.64455763832666,459.64455763832666,459.64455763832666,460.64451688851113,460.64451688851113,460.64451688851113,,,,,,,,,,,,,,,,,,,,,,,,,117,001,2023-03-03_10h23.27.462,eb_01,2022.2.4,60.01217307994686,
,,,1,0,1,0,97,0,97,0,,,,,,,,,,,,,,,,,,,,,,,,,,,,,,,,,,,,,,,,,,,,,,,,,,,,,,,,,,,,117,001,2023-03-03_10h23.27.462,eb_01,2022.2.4,60.01217307994686,
2,stimuli/2.png,s,1,0,1,0,98,0,98,0,0,0,0,0,,,,,,,,,,,,,,,,,,,460.64451688851113,460.64451688851113,460.64451688851113,460.64451688851113,s,1,0.3929782572959084,461.06114008874283,461.06114008874283,461.06114008874283,462.0777494038339,462.0777494038339,462.0777494038339,,,,,,,,,,,,,,,,,,,,,,,,,117,001,2023-03-03_10h23.27.462,eb_01,2022.2.4,60.01217307994686,
,,,1,0,1,0,98,0,98,0,,,,,,,,,,,,,,,,,,,,,,,,,,,,,,,,,,,,,,,,,,,,,,,,,,,,,,,,,,,,117,001,2023-03-03_10h23.27.462,eb_01,2022.2.4,60.01217307994686,
1,stimuli/1.png,s,1,0,1,0,99,0,99,0,0,0,0,0,,,,,,,,,,,,,,,,,,,462.0777494038339,462.0777494038339,462.0777494038339,462.0777494038339,l,0,0.3198163749766536,462.4443931298738,462.4443931298738,462.4443931298738,,,,,,,,,,,,,,,,,,,,,,,,,,,,117,001,2023-03-03_10h23.27.462,eb_01,2022.2.4,60.01217307994686,
,,,1,0,1,0,99,0,99,0,,,,,,,,,,,,,,,,,,,,,,,,,,,,,,,,,,,,,,,,,,,,,,,,,,,,,,,,,,,,117,001,2023-03-03_10h23.27.462,eb_01,2022.2.4,60.01217307994686,
,,,1,0,1,0,,,,,,,,,,,,,,,,,,,,,,,,,,,,,,,,,,,,,,,,463.4443209876481,463.4443209876481,return,1.809311681194231,,,,,,,,,,,,,,,,,,,,,117,001,2023-03-03_10h23.27.462,eb_01,2022.2.4,60.01217307994686,
