index,stimulus,correct_answer,block.thisRepN,block.thisTrialN,block.thisN,block.thisIndex,trial.thisRepN,trial.thisTrialN,trial.thisN,trial.thisIndex,display_row.thisRepN,display_row.thisTrialN,display_row.thisN,display_row.thisIndex,pair_questions.thisRepN,pair_questions.thisTrialN,pair_questions.thisN,pair_questions.thisIndex,welcome_text.started,instructions_0_keypress.started,instructions_0_keypress.keys,instructions_0_keypress.rt,instructions_1_keypress.started,instructions_1_text.started,instructions_1_keypress.keys,instructions_1_keypress.rt,instructions_2_keypress.started,instructions_2_text.started,instructions_2_keypress.keys,instructions_2_keypress.rt,text_countdown.started,image.started,size_question.started,size_resp.started,keypress_options.started,size_resp.keys,size_resp.corr,size_resp.rt,fb_image.started,fb.started,fb_size_question.started,fb_image.stopped,fb.stopped,fb_size_question.stopped,block_break_text.started,block_break_keypress.started,block_break_keypress.keys,block_break_keypress.rt,seq_reveal.started,seq_reveal_adv.started,seq_reveal_adv.keys,seq_reveal_adv.rt,instruction_2afc_text.started,instruction_2afc_keypress.started,instruction_2afc_keypress.keys,instruction_2afc_keypress.rt,dist_2afc_test.started,dist_2afc_resp.started,text.started,stim_00.started,stim_01.started,stim_10.started,stim_11.started,dist_2afc_resp.keys,dist_2afc_resp.rt,graph.started,debrief_text.started,debriefing_title.started,participant,session,date,expName,psychopyVersion,frameRate,
,,,,,,,,,,,,,,,,,,,22.25243788692751,22.25243788692751,return,3.4149641773838084,,,,,,,,,,,,,,,,,,,,,,,,,,,,,,,,,,,,,,,,,,,,,,,118,001,2010-10-16_11h27.03.568,eb_01,2022.2.4,119.99645035503994,
,,,,,,,,,,,,,,,,,,,,,,,25.677377894346137,25.677377894346137,return,7.061160119948909,,,,,,,,,,,,,,,,,,,,,,,,,,,,,,,,,,,,,,,,,,,118,001,2010-10-16_11h27.03.568,eb_01,2022.2.4,119.99645035503994,
,,,,,,,,,,,,,,,,,,,,,,,,,,,32.75296280308976,32.75296280308976,space,11.536789702397073,,,,,,,,,,,,,,,,,,,,,,,,,,,,,,,,,,,,,,,118,001,2010-10-16_11h27.03.568,eb_01,2022.2.4,119.99645035503994,
6,stimuli/6.png,s,0,0,0,0,0,0,0,0,0,0,0,0,,,,,,,,,,,,,,,,,44.312300062476425,49.33771518091089,49.33771518091089,49.33771518091089,49.33771518091089,s,1,2.9042095839977264,52.279650518728886,52.279650518728886,52.279650518728886,,,,,,,,,,,,,,,,,,,,,,,,,,,,118,001,2010-10-16_11h27.03.568,eb_01,2022.2.4,119.99645035503994,
,,,0,0,0,0,0,0,0,0,,,,,,,,,,,,,,,,,,,,,,,,,,,,,,,,,,,,,,,,,,,,,,,,,,,,,,,,,,,118,001,2010-10-16_11h27.03.568,eb_01,2022.2.4,119.99645035503994,
5,stimuli/5.png,s,0,0,0,0,1,0,1,0,0,0,0,0,,,,,,,,,,,,,,,,,,53.27140097375377,53.27140097375377,53.27140097375377,53.27140097375377,s,1,0.9145572843553964,54.2048289871891,54.2048289871891,54.2048289871891,,,,,,,,,,,,,,,,,,,,,,,,,,,,118,001,2010-10-16_11h27.03.568,eb_01,2022.2.4,119.99645035503994,
,,,0,0,0,0,1,0,1,0,,,,,,,,,,,,,,,,,,,,,,,,,,,,,,,,,,,,,,,,,,,,,,,,,,,,,,,,,,,118,001,2010-10-16_11h27.03.568,eb_01,2022.2.4,119.99645035503994,
9,stimuli/9.png,l,0,0,0,0,2,0,2,0,0,0,0,0,,,,,,,,,,,,,,,,,,55.22158223434235,55.22158223434235,55.22158223434235,55.22158223434235,l,1,0.9324297891871538,56.17996353658964,56.17996353658964,56.17996353658964,,,,,,,,,,,,,,,,,,,,,,,,,,,,118,001,2010-10-16_11h27.03.568,eb_01,2022.2.4,119.99645035503994,
,,,0,0,0,0,2,0,2,0,,,,,,,,,,,,,,,,,,,,,,,,,,,,,,,,,,,,,,,,,,,,,,,,,,,,,,,,,,,118,001,2010-10-16_11h27.03.568,eb_01,2022.2.4,119.99645035503994,
6,stimuli/6.png,s,0,0,0,0,3,0,3,0,0,0,0,0,,,,,,,,,,,,,,,,,,57.19675813711365,57.19675813711365,57.19675813711365,57.19675813711365,s,1,0.6852606841130182,57.91347636972205,57.91347636972205,57.91347636972205,,,,,,,,,,,,,,,,,,,,,,,,,,,,118,001,2010-10-16_11h27.03.568,eb_01,2022.2.4,119.99645035503994,
,,,0,0,0,0,3,0,3,0,,,,,,,,,,,,,,,,,,,,,,,,,,,,,,,,,,,,,,,,,,,,,,,,,,,,,,,,,,,118,001,2010-10-16_11h27.03.568,eb_01,2022.2.4,119.99645035503994,
8,stimuli/8.png,l,0,0,0,0,4,0,4,0,0,0,0,0,,,,,,,,,,,,,,,,,,58.91356541530695,58.91356541530695,58.91356541530695,58.91356541530695,l,1,0.6475379569455981,59.58026266936213,59.58026266936213,59.58026266936213,,,,,,,,,,,,,,,,,,,,,,,,,,,,118,001,2010-10-16_11h27.03.568,eb_01,2022.2.4,119.99645035503994,
,,,0,0,0,0,4,0,4,0,,,,,,,,,,,,,,,,,,,,,,,,,,,,,,,,,,,,,,,,,,,,,,,,,,,,,,,,,,,118,001,2010-10-16_11h27.03.568,eb_01,2022.2.4,119.99645035503994,
6,stimuli/6.png,s,0,0,0,0,5,0,5,0,0,0,0,0,,,,,,,,,,,,,,,,,,60.60537684391602,60.60537684391602,60.60537684391602,60.60537684391602,s,1,0.49975700303912163,61.13041827274719,61.13041827274719,61.13041827274719,,,,,,,,,,,,,,,,,,,,,,,,,,,,118,001,2010-10-16_11h27.03.568,eb_01,2022.2.4,119.99645035503994,
,,,0,0,0,0,5,0,5,0,,,,,,,,,,,,,,,,,,,,,,,,,,,,,,,,,,,,,,,,,,,,,,,,,,,,,,,,,,,118,001,2010-10-16_11h27.03.568,eb_01,2022.2.4,119.99645035503994,
9,stimuli/9.png,l,0,0,0,0,6,0,6,0,0,0,0,0,,,,,,,,,,,,,,,,,,62.138835646008374,62.138835646008374,62.138835646008374,62.138835646008374,l,1,0.6942820580443367,62.863865302701015,62.863865302701015,62.863865302701015,,,,,,,,,,,,,,,,,,,,,,,,,,,,118,001,2010-10-16_11h27.03.568,eb_01,2022.2.4,119.99645035503994,
,,,0,0,0,0,6,0,6,0,,,,,,,,,,,,,,,,,,,,,,,,,,,,,,,,,,,,,,,,,,,,,,,,,,,,,,,,,,,118,001,2010-10-16_11h27.03.568,eb_01,2022.2.4,119.99645035503994,
5,stimuli/5.png,s,0,0,0,0,7,0,7,0,0,0,0,0,,,,,,,,,,,,,,,,,,63.86397789255716,63.86397789255716,63.86397789255716,63.86397789255716,s,1,0.6331916571652982,64.51401818945305,64.51401818945305,64.51401818945305,,,,,,,,,,,,,,,,,,,,,,,,,,,,118,001,2010-10-16_11h27.03.568,eb_01,2022.2.4,119.99645035503994,
,,,0,0,0,0,7,0,7,0,,,,,,,,,,,,,,,,,,,,,,,,,,,,,,,,,,,,,,,,,,,,,,,,,,,,,,,,,,,118,001,2010-10-16_11h27.03.568,eb_01,2022.2.4,119.99645035503994,
9,stimuli/9.png,l,0,0,0,0,8,0,8,0,0,0,0,0,,,,,,,,,,,,,,,,,,65.53079166050884,65.53079166050884,65.53079166050884,65.53079166050884,l,1,0.3744285154098179,65.93083814531565,65.93083814531565,65.93083814531565,,,,,,,,,,,,,,,,,,,,,,,,,,,,118,001,2010-10-16_11h27.03.568,eb_01,2022.2.4,119.99645035503994,
,,,0,0,0,0,8,0,8,0,,,,,,,,,,,,,,,,,,,,,,,,,,,,,,,,,,,,,,,,,,,,,,,,,,,,,,,,,,,118,001,2010-10-16_11h27.03.568,eb_01,2022.2.4,119.99645035503994,
6,stimuli/6.png,s,0,0,0,0,9,0,9,0,0,0,0,0,,,,,,,,,,,,,,,,,,66.9475618112192,66.9475618112192,66.9475618112192,66.9475618112192,s,1,0.8136466046562418,67.7893314336834,67.7893314336834,67.7893314336834,,,,,,,,,,,,,,,,,,,,,,,,,,,,118,001,2010-10-16_11h27.03.568,eb_01,2022.2.4,119.99645035503994,
,,,0,0,0,0,9,0,9,0,,,,,,,,,,,,,,,,,,,,,,,,,,,,,,,,,,,,,,,,,,,,,,,,,,,,,,,,,,,118,001,2010-10-16_11h27.03.568,eb_01,2022.2.4,119.99645035503994,
8,stimuli/8.png,l,0,0,0,0,10,0,10,0,0,0,0,0,,,,,,,,,,,,,,,,,,68.78940357570536,68.78940357570536,68.78940357570536,68.78940357570536,l,1,0.47592840521247126,69.28945579566061,69.28945579566061,69.28945579566061,,,,,,,,,,,,,,,,,,,,,,,,,,,,118,001,2010-10-16_11h27.03.568,eb_01,2022.2.4,119.99645035503994,
,,,0,0,0,0,10,0,10,0,,,,,,,,,,,,,,,,,,,,,,,,,,,,,,,,,,,,,,,,,,,,,,,,,,,,,,,,,,,118,001,2010-10-16_11h27.03.568,eb_01,2022.2.4,119.99645035503994,
6,stimuli/6.png,s,0,0,0,0,11,0,11,0,0,0,0,0,,,,,,,,,,,,,,,,,,70.3145325408841,70.3145325408841,70.3145325408841,70.3145325408841,s,1,0.7668910332431551,71.10626186645823,71.10626186645823,71.10626186645823,,,,,,,,,,,,,,,,,,,,,,,,,,,,118,001,2010-10-16_11h27.03.568,eb_01,2022.2.4,119.99645035503994,
,,,0,0,0,0,11,0,11,0,,,,,,,,,,,,,,,,,,,,,,,,,,,,,,,,,,,,,,,,,,,,,,,,,,,,,,,,,,,118,001,2010-10-16_11h27.03.568,eb_01,2022.2.4,119.99645035503994,
5,stimuli/5.png,s,0,0,0,0,12,0,12,0,0,0,0,0,,,,,,,,,,,,,,,,,,72.10633159367717,72.10633159367717,72.10633159367717,72.10633159367717,s,1,0.5029901123198215,72.6313923408743,72.6313923408743,72.6313923408743,,,,,,,,,,,,,,,,,,,,,,,,,,,,118,001,2010-10-16_11h27.03.568,eb_01,2022.2.4,119.99645035503994,
,,,0,0,0,0,12,0,12,0,,,,,,,,,,,,,,,,,,,,,,,,,,,,,,,,,,,,,,,,,,,,,,,,,,,,,,,,,,,118,001,2010-10-16_11h27.03.568,eb_01,2022.2.4,119.99645035503994,
6,stimuli/6.png,s,0,0,0,0,13,0,13,0,0,0,0,0,,,,,,,,,,,,,,,,,,73.65648266932112,73.65648266932112,73.65648266932112,73.65648266932112,s,1,0.5608827203104738,74.24821229674853,74.24821229674853,74.24821229674853,,,,,,,,,,,,,,,,,,,,,,,,,,,,118,001,2010-10-16_11h27.03.568,eb_01,2022.2.4,119.99645035503994,
,,,0,0,0,0,13,0,13,0,,,,,,,,,,,,,,,,,,,,,,,,,,,,,,,,,,,,,,,,,,,,,,,,,,,,,,,,,,,118,001,2010-10-16_11h27.03.568,eb_01,2022.2.4,119.99645035503994,
5,stimuli/5.png,s,0,0,0,0,14,0,14,0,0,0,0,0,,,,,,,,,,,,,,,,,,75.24828534430708,75.24828534430708,75.24828534430708,75.24828534430708,s,1,0.5521004111215007,75.82331273713498,75.82331273713498,75.82331273713498,,,,,,,,,,,,,,,,,,,,,,,,,,,,118,001,2010-10-16_11h27.03.568,eb_01,2022.2.4,119.99645035503994,
,,,0,0,0,0,14,0,14,0,,,,,,,,,,,,,,,,,,,,,,,,,,,,,,,,,,,,,,,,,,,,,,,,,,,,,,,,,,,118,001,2010-10-16_11h27.03.568,eb_01,2022.2.4,119.99645035503994,
9,stimuli/9.png,l,0,0,0,0,15,0,15,0,0,0,0,0,,,,,,,,,,,,,,,,,,76.8400898303953,76.8400898303953,76.8400898303953,76.8400898303953,l,1,0.4483372542599682,77.31512537316303,77.31512537316303,77.31512537316303,,,,,,,,,,,,,,,,,,,,,,,,,,,,118,001,2010-10-16_11h27.03.568,eb_01,2022.2.4,119.99645035503994,
,,,0,0,0,0,15,0,15,0,,,,,,,,,,,,,,,,,,,,,,,,,,,,,,,,,,,,,,,,,,,,,,,,,,,,,,,,,,,118,001,2010-10-16_11h27.03.568,eb_01,2022.2.4,119.99645035503994,
8,stimuli/8.png,l,0,0,0,0,16,0,16,0,0,0,0,0,,,,,,,,,,,,,,,,,,78.31521260764566,78.31521260764566,78.31521260764566,78.31521260764566,l,1,0.5332737602002453,78.86525773414178,78.86525773414178,78.86525773414178,,,,,,,,,,,,,,,,,,,,,,,,,,,,118,001,2010-10-16_11h27.03.568,eb_01,2022.2.4,119.99645035503994,
,,,0,0,0,0,16,0,16,0,,,,,,,,,,,,,,,,,,,,,,,,,,,,,,,,,,,,,,,,,,,,,,,,,,,,,,,,,,,118,001,2010-10-16_11h27.03.568,eb_01,2022.2.4,119.99645035503994,
3,stimuli/3.png,l,0,0,0,0,17,0,17,0,0,0,0,0,,,,,,,,,,,,,,,,,,79.87365005386528,79.87365005386528,79.87365005386528,79.87365005386528,l,1,0.6948513460811228,80.5820707474777,80.5820707474777,80.5820707474777,81.5905026094988,81.5905026094988,81.5905026094988,,,,,,,,,,,,,,,,,,,,,,,,,118,001,2010-10-16_11h27.03.568,eb_01,2022.2.4,119.99645035503994,
,,,0,0,0,0,17,0,17,0,,,,,,,,,,,,,,,,,,,,,,,,,,,,,,,,,,,,,,,,,,,,,,,,,,,,,,,,,,,118,001,2010-10-16_11h27.03.568,eb_01,2022.2.4,119.99645035503994,
8,stimuli/8.png,l,0,0,0,0,18,0,18,0,0,0,0,0,,,,,,,,,,,,,,,,,,81.5905026094988,81.5905026094988,81.5905026094988,81.5905026094988,l,1,0.6020133275596891,82.21554222723353,82.21554222723353,82.21554222723353,,,,,,,,,,,,,,,,,,,,,,,,,,,,118,001,2010-10-16_11h27.03.568,eb_01,2022.2.4,119.99645035503994,
,,,0,0,0,0,18,0,18,0,,,,,,,,,,,,,,,,,,,,,,,,,,,,,,,,,,,,,,,,,,,,,,,,,,,,,,,,,,,118,001,2010-10-16_11h27.03.568,eb_01,2022.2.4,119.99645035503994,
6,stimuli/6.png,s,0,0,0,0,19,0,19,0,0,0,0,0,,,,,,,,,,,,,,,,,,83.24063587601995,83.24063587601995,83.24063587601995,83.24063587601995,s,1,0.5679188305803109,83.84071224392392,83.84071224392392,83.84071224392392,,,,,,,,,,,,,,,,,,,,,,,,,,,,118,001,2010-10-16_11h27.03.568,eb_01,2022.2.4,119.99645035503994,
,,,0,0,0,0,19,0,19,0,,,,,,,,,,,,,,,,,,,,,,,,,,,,,,,,,,,,,,,,,,,,,,,,,,,,,,,,,,,118,001,2010-10-16_11h27.03.568,eb_01,2022.2.4,119.99645035503994,
5,stimuli/5.png,s,0,0,0,0,20,0,20,0,0,0,0,0,,,,,,,,,,,,,,,,,,84.84075661576935,84.84075661576935,84.84075661576935,84.84075661576935,s,1,0.42381893045967445,85.28243538158131,85.28243538158131,85.28243538158131,,,,,,,,,,,,,,,,,,,,,,,,,,,,118,001,2010-10-16_11h27.03.568,eb_01,2022.2.4,119.99645035503994,
,,,0,0,0,0,20,0,20,0,,,,,,,,,,,,,,,,,,,,,,,,,,,,,,,,,,,,,,,,,,,,,,,,,,,,,,,,,,,118,001,2010-10-16_11h27.03.568,eb_01,2022.2.4,119.99645035503994,
6,stimuli/6.png,s,0,0,0,0,21,0,21,0,0,0,0,0,,,,,,,,,,,,,,,,,,86.30758970210445,86.30758970210445,86.30758970210445,86.30758970210445,l,0,0.3251156756305136,86.65759770112345,86.65759770112345,86.65759770112345,,,,,,,,,,,,,,,,,,,,,,,,,,,,118,001,2010-10-16_11h27.03.568,eb_01,2022.2.4,119.99645035503994,
,,,0,0,0,0,21,0,21,0,,,,,,,,,,,,,,,,,,,,,,,,,,,,,,,,,,,,,,,,,,,,,,,,,,,,,,,,,,,118,001,2010-10-16_11h27.03.568,eb_01,2022.2.4,119.99645035503994,
5,stimuli/5.png,s,0,0,0,0,22,0,22,0,0,0,0,0,,,,,,,,,,,,,,,,,,87.65764086559648,87.65764086559648,87.65764086559648,87.65764086559648,s,1,0.29498114134185016,87.97433072433341,87.97433072433341,87.97433072433341,,,,,,,,,,,,,,,,,,,,,,,,,,,,118,001,2010-10-16_11h27.03.568,eb_01,2022.2.4,119.99645035503994,
,,,0,0,0,0,22,0,22,0,,,,,,,,,,,,,,,,,,,,,,,,,,,,,,,,,,,,,,,,,,,,,,,,,,,,,,,,,,,118,001,2010-10-16_11h27.03.568,eb_01,2022.2.4,119.99645035503994,
9,stimuli/9.png,l,0,0,0,0,23,0,23,0,0,0,0,0,,,,,,,,,,,,,,,,,,88.991121702682,88.991121702682,88.991121702682,88.991121702682,l,1,0.5615362243261188,89.58284318016376,89.58284318016376,89.58284318016376,,,,,,,,,,,,,,,,,,,,,,,,,,,,118,001,2010-10-16_11h27.03.568,eb_01,2022.2.4,119.99645035503994,
,,,0,0,0,0,23,0,23,0,,,,,,,,,,,,,,,,,,,,,,,,,,,,,,,,,,,,,,,,,,,,,,,,,,,,,,,,,,,118,001,2010-10-16_11h27.03.568,eb_01,2022.2.4,119.99645035503994,
8,stimuli/8.png,l,0,0,0,0,24,0,24,0,0,0,0,0,,,,,,,,,,,,,,,,,,90.58289207977941,90.58289207977941,90.58289207977941,90.58289207977941,l,1,0.42481835396029055,91.02462698955787,91.02462698955787,91.02462698955787,,,,,,,,,,,,,,,,,,,,,,,,,,,,118,001,2010-10-16_11h27.03.568,eb_01,2022.2.4,119.99645035503994,
,,,0,0,0,0,24,0,24,0,,,,,,,,,,,,,,,,,,,,,,,,,,,,,,,,,,,,,,,,,,,,,,,,,,,,,,,,,,,118,001,2010-10-16_11h27.03.568,eb_01,2022.2.4,119.99645035503994,
6,stimuli/6.png,s,0,0,0,0,25,0,25,0,0,0,0,0,,,,,,,,,,,,,,,,,,92.04974176781252,92.04974176781252,92.04974176781252,92.04974176781252,s,1,0.4299935624585487,92.50805273914011,92.50805273914011,92.50805273914011,,,,,,,,,,,,,,,,,,,,,,,,,,,,118,001,2010-10-16_11h27.03.568,eb_01,2022.2.4,119.99645035503994,
,,,0,0,0,0,25,0,25,0,,,,,,,,,,,,,,,,,,,,,,,,,,,,,,,,,,,,,,,,,,,,,,,,,,,,,,,,,,,118,001,2010-10-16_11h27.03.568,eb_01,2022.2.4,119.99645035503994,
5,stimuli/5.png,s,0,0,0,0,26,0,26,0,0,0,0,0,,,,,,,,,,,,,,,,,,93.50817287521204,93.50817287521204,93.50817287521204,93.50817287521204,s,1,0.5635951393051073,94.09156964722206,94.09156964722206,94.09156964722206,,,,,,,,,,,,,,,,,,,,,,,,,,,,118,001,2010-10-16_11h27.03.568,eb_01,2022.2.4,119.99645035503994,
,,,0,0,0,0,26,0,26,0,,,,,,,,,,,,,,,,,,,,,,,,,,,,,,,,,,,,,,,,,,,,,,,,,,,,,,,,,,,118,001,2010-10-16_11h27.03.568,eb_01,2022.2.4,119.99645035503994,
6,stimuli/6.png,s,0,0,0,0,27,0,27,0,0,0,0,0,,,,,,,,,,,,,,,,,,95.1166569571651,95.1166569571651,95.1166569571651,95.1166569571651,s,1,0.6911349758738652,95.83336945465999,95.83336945465999,95.83336945465999,,,,,,,,,,,,,,,,,,,,,,,,,,,,118,001,2010-10-16_11h27.03.568,eb_01,2022.2.4,119.99645035503994,
,,,0,0,0,0,27,0,27,0,,,,,,,,,,,,,,,,,,,,,,,,,,,,,,,,,,,,,,,,,,,,,,,,,,,,,,,,,,,118,001,2010-10-16_11h27.03.568,eb_01,2022.2.4,119.99645035503994,
8,stimuli/8.png,l,0,0,0,0,28,0,28,0,0,0,0,0,,,,,,,,,,,,,,,,,,96.8334255986556,96.8334255986556,96.8334255986556,96.8334255986556,l,1,0.5183925832388923,97.37516594171757,97.37516594171757,97.37516594171757,,,,,,,,,,,,,,,,,,,,,,,,,,,,118,001,2010-10-16_11h27.03.568,eb_01,2022.2.4,119.99645035503994,
,,,0,0,0,0,28,0,28,0,,,,,,,,,,,,,,,,,,,,,,,,,,,,,,,,,,,,,,,,,,,,,,,,,,,,,,,,,,,118,001,2010-10-16_11h27.03.568,eb_01,2022.2.4,119.99645035503994,
6,stimuli/6.png,s,0,0,0,0,29,0,29,0,0,0,0,0,,,,,,,,,,,,,,,,,,98.40022095377208,98.40022095377208,98.40022095377208,98.40022095377208,s,1,0.5116214968147688,98.94196220239974,98.94196220239974,98.94196220239974,,,,,,,,,,,,,,,,,,,,,,,,,,,,118,001,2010-10-16_11h27.03.568,eb_01,2022.2.4,119.99645035503994,
,,,0,0,0,0,29,0,29,0,,,,,,,,,,,,,,,,,,,,,,,,,,,,,,,,,,,,,,,,,,,,,,,,,,,,,,,,,,,118,001,2010-10-16_11h27.03.568,eb_01,2022.2.4,119.99645035503994,
9,stimuli/9.png,l,0,0,0,0,30,0,30,0,0,0,0,0,,,,,,,,,,,,,,,,,,99.95038772560656,99.95038772560656,99.95038772560656,99.95038772560656,l,1,0.45749476228957064,100.43377634769422,100.43377634769422,100.43377634769422,,,,,,,,,,,,,,,,,,,,,,,,,,,,118,001,2010-10-16_11h27.03.568,eb_01,2022.2.4,119.99645035503994,
,,,0,0,0,0,30,0,30,0,,,,,,,,,,,,,,,,,,,,,,,,,,,,,,,,,,,,,,,,,,,,,,,,,,,,,,,,,,,118,001,2010-10-16_11h27.03.568,eb_01,2022.2.4,119.99645035503994,
8,stimuli/8.png,l,0,0,0,0,31,0,31,0,0,0,0,0,,,,,,,,,,,,,,,,,,101.44219432462705,101.44219432462705,101.44219432462705,101.44219432462705,l,1,0.4937160903646145,101.95892221640679,101.95892221640679,101.95892221640679,,,,,,,,,,,,,,,,,,,,,,,,,,,,118,001,2010-10-16_11h27.03.568,eb_01,2022.2.4,119.99645035503994,
,,,0,0,0,0,31,0,31,0,,,,,,,,,,,,,,,,,,,,,,,,,,,,,,,,,,,,,,,,,,,,,,,,,,,,,,,,,,,118,001,2010-10-16_11h27.03.568,eb_01,2022.2.4,119.99645035503994,
9,stimuli/9.png,l,0,0,0,0,32,0,32,0,0,0,0,0,,,,,,,,,,,,,,,,,,102.97566037109937,102.97566037109937,102.97566037109937,102.97566037109937,l,1,0.4882867246342357,103.492357474257,103.492357474257,103.492357474257,,,,,,,,,,,,,,,,,,,,,,,,,,,,118,001,2010-10-16_11h27.03.568,eb_01,2022.2.4,119.99645035503994,
,,,0,0,0,0,32,0,32,0,,,,,,,,,,,,,,,,,,,,,,,,,,,,,,,,,,,,,,,,,,,,,,,,,,,,,,,,,,,118,001,2010-10-16_11h27.03.568,eb_01,2022.2.4,119.99645035503994,
6,stimuli/6.png,s,0,0,0,0,33,0,33,0,0,0,0,0,,,,,,,,,,,,,,,,,,104.5091267194075,104.5091267194075,104.5091267194075,104.5091267194075,s,1,0.506850766541902,105.04248862783425,105.04248862783425,105.04248862783425,,,,,,,,,,,,,,,,,,,,,,,,,,,,118,001,2010-10-16_11h27.03.568,eb_01,2022.2.4,119.99645035503994,
,,,0,0,0,0,33,0,33,0,,,,,,,,,,,,,,,,,,,,,,,,,,,,,,,,,,,,,,,,,,,,,,,,,,,,,,,,,,,118,001,2010-10-16_11h27.03.568,eb_01,2022.2.4,119.99645035503994,
8,stimuli/8.png,l,0,0,0,0,34,0,34,0,0,0,0,0,,,,,,,,,,,,,,,,,,106.0425882381387,106.0425882381387,106.0425882381387,106.0425882381387,l,1,0.39644420554395765,106.45927598394337,106.45927598394337,106.45927598394337,,,,,,,,,,,,,,,,,,,,,,,,,,,,118,001,2010-10-16_11h27.03.568,eb_01,2022.2.4,119.99645035503994,
,,,0,0,0,0,34,0,34,0,,,,,,,,,,,,,,,,,,,,,,,,,,,,,,,,,,,,,,,,,,,,,,,,,,,,,,,,,,,118,001,2010-10-16_11h27.03.568,eb_01,2022.2.4,119.99645035503994,
9,stimuli/9.png,l,0,0,0,0,35,0,35,0,0,0,0,0,,,,,,,,,,,,,,,,,,107.47603104219888,107.47603104219888,107.47603104219888,107.47603104219888,l,1,0.4430017636914272,107.9510708108428,107.9510708108428,107.9510708108428,,,,,,,,,,,,,,,,,,,,,,,,,,,,118,001,2010-10-16_11h27.03.568,eb_01,2022.2.4,119.99645035503994,
,,,0,0,0,0,35,0,35,0,,,,,,,,,,,,,,,,,,,,,,,,,,,,,,,,,,,,,,,,,,,,,,,,,,,,,,,,,,,118,001,2010-10-16_11h27.03.568,eb_01,2022.2.4,119.99645035503994,
6,stimuli/6.png,s,0,0,0,0,36,0,36,0,0,0,0,0,,,,,,,,,,,,,,,,,,108.96780504149501,108.96780504149501,108.96780504149501,108.96780504149501,s,1,0.47928165056509897,109.4761653651949,109.4761653651949,109.4761653651949,,,,,,,,,,,,,,,,,,,,,,,,,,,,118,001,2010-10-16_11h27.03.568,eb_01,2022.2.4,119.99645035503994,
,,,0,0,0,0,36,0,36,0,,,,,,,,,,,,,,,,,,,,,,,,,,,,,,,,,,,,,,,,,,,,,,,,,,,,,,,,,,,118,001,2010-10-16_11h27.03.568,eb_01,2022.2.4,119.99645035503994,
8,stimuli/8.png,l,0,0,0,0,37,0,37,0,0,0,0,0,,,,,,,,,,,,,,,,,,110.4762510904402,110.4762510904402,110.4762510904402,110.4762510904402,l,1,0.6668777518789284,111.15964152361266,111.15964152361266,111.15964152361266,,,,,,,,,,,,,,,,,,,,,,,,,,,,118,001,2010-10-16_11h27.03.568,eb_01,2022.2.4,119.99645035503994,
,,,0,0,0,0,37,0,37,0,,,,,,,,,,,,,,,,,,,,,,,,,,,,,,,,,,,,,,,,,,,,,,,,,,,,,,,,,,,118,001,2010-10-16_11h27.03.568,eb_01,2022.2.4,119.99645035503994,
3,stimuli/3.png,l,0,0,0,0,38,0,38,0,0,0,0,0,,,,,,,,,,,,,,,,,,112.16811594640603,112.16811594640603,112.16811594640603,112.16811594640603,l,1,0.5190626889816485,112.70147574186558,112.70147574186558,112.70147574186558,113.71826551278355,113.71826551278355,113.71826551278355,,,,,,,,,,,,,,,,,,,,,,,,,118,001,2010-10-16_11h27.03.568,eb_01,2022.2.4,119.99645035503994,
,,,0,0,0,0,38,0,38,0,,,,,,,,,,,,,,,,,,,,,,,,,,,,,,,,,,,,,,,,,,,,,,,,,,,,,,,,,,,118,001,2010-10-16_11h27.03.568,eb_01,2022.2.4,119.99645035503994,
4,stimuli/4.png,l,0,0,0,0,39,0,39,0,0,0,0,0,,,,,,,,,,,,,,,,,,113.71826551278355,113.71826551278355,113.71826551278355,113.71826551278355,l,1,0.736893840454286,114.47663957063924,114.47663957063924,114.47663957063924,,,,,,,,,,,,,,,,,,,,,,,,,,,,118,001,2010-10-16_11h27.03.568,eb_01,2022.2.4,119.99645035503994,
,,,0,0,0,0,39,0,39,0,,,,,,,,,,,,,,,,,,,,,,,,,,,,,,,,,,,,,,,,,,,,,,,,,,,,,,,,,,,118,001,2010-10-16_11h27.03.568,eb_01,2022.2.4,119.99645035503994,
1,stimuli/1.png,s,0,0,0,0,40,0,40,0,0,0,0,0,,,,,,,,,,,,,,,,,,115.50169609196018,115.50169609196018,115.50169609196018,115.50169609196018,l,0,0.665533012652304,116.19344081185409,116.19344081185409,116.19344081185409,,,,,,,,,,,,,,,,,,,,,,,,,,,,118,001,2010-10-16_11h27.03.568,eb_01,2022.2.4,119.99645035503994,
,,,0,0,0,0,40,0,40,0,,,,,,,,,,,,,,,,,,,,,,,,,,,,,,,,,,,,,,,,,,,,,,,,,,,,,,,,,,,118,001,2010-10-16_11h27.03.568,eb_01,2022.2.4,119.99645035503994,
4,stimuli/4.png,l,0,0,0,0,41,0,41,0,0,0,0,0,,,,,,,,,,,,,,,,,,117.20186120358994,117.20186120358994,117.20186120358994,117.20186120358994,l,1,0.9893764010921586,118.21027887868695,118.21027887868695,118.21027887868695,,,,,,,,,,,,,,,,,,,,,,,,,,,,118,001,2010-10-16_11h27.03.568,eb_01,2022.2.4,119.99645035503994,
,,,0,0,0,0,41,0,41,0,,,,,,,,,,,,,,,,,,,,,,,,,,,,,,,,,,,,,,,,,,,,,,,,,,,,,,,,,,,118,001,2010-10-16_11h27.03.568,eb_01,2022.2.4,119.99645035503994,
3,stimuli/3.png,l,0,0,0,0,42,0,42,0,0,0,0,0,,,,,,,,,,,,,,,,,,119.21871074070805,119.21871074070805,119.21871074070805,119.21871074070805,l,1,0.6365615042159334,119.86875375424279,119.86875375424279,119.86875375424279,120.88550579399453,120.88550579399453,120.88550579399453,,,,,,,,,,,,,,,,,,,,,,,,,118,001,2010-10-16_11h27.03.568,eb_01,2022.2.4,119.99645035503994,
,,,0,0,0,0,42,0,42,0,,,,,,,,,,,,,,,,,,,,,,,,,,,,,,,,,,,,,,,,,,,,,,,,,,,,,,,,,,,118,001,2010-10-16_11h27.03.568,eb_01,2022.2.4,119.99645035503994,
4,stimuli/4.png,l,0,0,0,0,43,0,43,0,0,0,0,0,,,,,,,,,,,,,,,,,,120.88550579399453,120.88550579399453,120.88550579399453,120.88550579399453,l,1,0.8168640177173074,121.71892595934332,121.71892595934332,121.71892595934332,,,,,,,,,,,,,,,,,,,,,,,,,,,,118,001,2010-10-16_11h27.03.568,eb_01,2022.2.4,119.99645035503994,
,,,0,0,0,0,43,0,43,0,,,,,,,,,,,,,,,,,,,,,,,,,,,,,,,,,,,,,,,,,,,,,,,,,,,,,,,,,,,118,001,2010-10-16_11h27.03.568,eb_01,2022.2.4,119.99645035503994,
2,stimuli/2.png,s,0,0,0,0,44,0,44,0,0,0,0,0,,,,,,,,,,,,,,,,,,122.72732884381549,122.72732884381549,122.72732884381549,122.72732884381549,l,0,1.0950218910293188,123.86909967369866,123.86909967369866,123.86909967369866,,,,,,,,,,,,,,,,,,,,,,,,,,,,118,001,2010-10-16_11h27.03.568,eb_01,2022.2.4,119.99645035503994,
,,,0,0,0,0,44,0,44,0,,,,,,,,,,,,,,,,,,,,,,,,,,,,,,,,,,,,,,,,,,,,,,,,,,,,,,,,,,,118,001,2010-10-16_11h27.03.568,eb_01,2022.2.4,119.99645035503994,
1,stimuli/1.png,s,0,0,0,0,45,0,45,0,0,0,0,0,,,,,,,,,,,,,,,,,,124.89416434493614,124.89416434493614,124.89416434493614,124.89416434493614,s,1,0.9682632407639176,125.89426818114589,125.89426818114589,125.89426818114589,,,,,,,,,,,,,,,,,,,,,,,,,,,,118,001,2010-10-16_11h27.03.568,eb_01,2022.2.4,119.99645035503994,
,,,0,0,0,0,45,0,45,0,,,,,,,,,,,,,,,,,,,,,,,,,,,,,,,,,,,,,,,,,,,,,,,,,,,,,,,,,,,118,001,2010-10-16_11h27.03.568,eb_01,2022.2.4,119.99645035503994,
4,stimuli/4.png,l,0,0,0,0,46,0,46,0,0,0,0,0,,,,,,,,,,,,,,,,,,126.9026737822569,126.9026737822569,126.9026737822569,126.9026737822569,l,1,0.7597842902468983,127.68608896710793,127.68608896710793,127.68608896710793,,,,,,,,,,,,,,,,,,,,,,,,,,,,118,001,2010-10-16_11h27.03.568,eb_01,2022.2.4,119.99645035503994,
,,,0,0,0,0,46,0,46,0,,,,,,,,,,,,,,,,,,,,,,,,,,,,,,,,,,,,,,,,,,,,,,,,,,,,,,,,,,,118,001,2010-10-16_11h27.03.568,eb_01,2022.2.4,119.99645035503994,
1,stimuli/1.png,s,0,0,0,0,47,0,47,0,0,0,0,0,,,,,,,,,,,,,,,,,,128.7111741641129,128.7111741641129,128.7111741641129,128.7111741641129,s,1,1.2553057502082083,129.9946539447119,129.9946539447119,129.9946539447119,,,,,,,,,,,,,,,,,,,,,,,,,,,,118,001,2010-10-16_11h27.03.568,eb_01,2022.2.4,119.99645035503994,
,,,0,0,0,0,47,0,47,0,,,,,,,,,,,,,,,,,,,,,,,,,,,,,,,,,,,,,,,,,,,,,,,,,,,,,,,,,,,118,001,2010-10-16_11h27.03.568,eb_01,2022.2.4,119.99645035503994,
4,stimuli/4.png,l,0,0,0,0,48,0,48,0,0,0,0,0,,,,,,,,,,,,,,,,,,131.00300309999147,131.00300309999147,131.00300309999147,131.00300309999147,l,1,0.9395169120107312,131.96145231835544,131.96145231835544,131.96145231835544,,,,,,,,,,,,,,,,,,,,,,,,,,,,118,001,2010-10-16_11h27.03.568,eb_01,2022.2.4,119.99645035503994,
,,,0,0,0,0,48,0,48,0,,,,,,,,,,,,,,,,,,,,,,,,,,,,,,,,,,,,,,,,,,,,,,,,,,,,,,,,,,,118,001,2010-10-16_11h27.03.568,eb_01,2022.2.4,119.99645035503994,
1,stimuli/1.png,s,0,0,0,0,49,0,49,0,0,0,0,0,,,,,,,,,,,,,,,,,,132.9865332894551,132.9865332894551,132.9865332894551,132.9865332894551,s,1,1.564033726521302,134.57835920684738,134.57835920684738,134.57835920684738,,,,,,,,,,,,,,,,,,,,,,,,,,,,118,001,2010-10-16_11h27.03.568,eb_01,2022.2.4,119.99645035503994,
,,,0,0,0,0,49,0,49,0,,,,,,,,,,,,,,,,,,,,,,,,,,,,,,,,,,,,,,,,,,,,,,,,,,,,,,,,,,,118,001,2010-10-16_11h27.03.568,eb_01,2022.2.4,119.99645035503994,
4,stimuli/4.png,l,0,0,0,0,50,0,50,0,0,0,0,0,,,,,,,,,,,,,,,,,,135.58676450612256,135.58676450612256,135.58676450612256,135.58676450612256,l,1,0.6758677334873937,136.2868227630679,136.2868227630679,136.2868227630679,,,,,,,,,,,,,,,,,,,,,,,,,,,,118,001,2010-10-16_11h27.03.568,eb_01,2022.2.4,119.99645035503994,
,,,0,0,0,0,50,0,50,0,,,,,,,,,,,,,,,,,,,,,,,,,,,,,,,,,,,,,,,,,,,,,,,,,,,,,,,,,,,118,001,2010-10-16_11h27.03.568,eb_01,2022.2.4,119.99645035503994,
1,stimuli/1.png,s,0,0,0,0,51,0,51,0,0,0,0,0,,,,,,,,,,,,,,,,,,137.31189105650992,137.31189105650992,137.31189105650992,137.31189105650992,s,1,0.6697486418124754,138.01198432798265,138.01198432798265,138.01198432798265,,,,,,,,,,,,,,,,,,,,,,,,,,,,118,001,2010-10-16_11h27.03.568,eb_01,2022.2.4,119.99645035503994,
,,,0,0,0,0,51,0,51,0,,,,,,,,,,,,,,,,,,,,,,,,,,,,,,,,,,,,,,,,,,,,,,,,,,,,,,,,,,,118,001,2010-10-16_11h27.03.568,eb_01,2022.2.4,119.99645035503994,
2,stimuli/2.png,s,0,0,0,0,52,0,52,0,0,0,0,0,,,,,,,,,,,,,,,,,,139.01206763842492,139.01206763842492,139.01206763842492,139.01206763842492,s,1,1.209632007201435,140.23715947612072,140.23715947612072,140.23715947612072,141.26222867509932,141.26222867509932,141.26222867509932,,,,,,,,,,,,,,,,,,,,,,,,,118,001,2010-10-16_11h27.03.568,eb_01,2022.2.4,119.99645035503994,
,,,0,0,0,0,52,0,52,0,,,,,,,,,,,,,,,,,,,,,,,,,,,,,,,,,,,,,,,,,,,,,,,,,,,,,,,,,,,118,001,2010-10-16_11h27.03.568,eb_01,2022.2.4,119.99645035503994,
1,stimuli/1.png,s,0,0,0,0,53,0,53,0,0,0,0,0,,,,,,,,,,,,,,,,,,141.26222867509932,141.26222867509932,141.26222867509932,141.26222867509932,s,1,1.9435194354737177,143.23741302962299,143.23741302962299,143.23741302962299,,,,,,,,,,,,,,,,,,,,,,,,,,,,118,001,2010-10-16_11h27.03.568,eb_01,2022.2.4,119.99645035503994,
,,,0,0,0,0,53,0,53,0,,,,,,,,,,,,,,,,,,,,,,,,,,,,,,,,,,,,,,,,,,,,,,,,,,,,,,,,,,,118,001,2010-10-16_11h27.03.568,eb_01,2022.2.4,119.99645035503994,
4,stimuli/4.png,l,0,0,0,0,54,0,54,0,0,0,0,0,,,,,,,,,,,,,,,,,,144.24583040288417,144.24583040288417,144.24583040288417,144.24583040288417,l,1,1.2799728857644368,145.54592156139552,145.54592156139552,145.54592156139552,,,,,,,,,,,,,,,,,,,,,,,,,,,,118,001,2010-10-16_11h27.03.568,eb_01,2022.2.4,119.99645035503994,
,,,0,0,0,0,54,0,54,0,,,,,,,,,,,,,,,,,,,,,,,,,,,,,,,,,,,,,,,,,,,,,,,,,,,,,,,,,,,118,001,2010-10-16_11h27.03.568,eb_01,2022.2.4,119.99645035503994,
3,stimuli/3.png,l,0,0,0,0,55,0,55,0,0,0,0,0,,,,,,,,,,,,,,,,,,146.5543851176044,146.5543851176044,146.5543851176044,146.5543851176044,l,1,0.7634360646479763,147.32942609366728,147.32942609366728,147.32942609366728,148.3378504094435,148.3378504094435,148.3378504094435,,,,,,,,,,,,,,,,,,,,,,,,,118,001,2010-10-16_11h27.03.568,eb_01,2022.2.4,119.99645035503994,
,,,0,0,0,0,55,0,55,0,,,,,,,,,,,,,,,,,,,,,,,,,,,,,,,,,,,,,,,,,,,,,,,,,,,,,,,,,,,118,001,2010-10-16_11h27.03.568,eb_01,2022.2.4,119.99645035503994,
8,stimuli/8.png,l,0,0,0,0,56,0,56,0,0,0,0,0,,,,,,,,,,,,,,,,,,148.3378504094435,148.3378504094435,148.3378504094435,148.3378504094435,l,1,0.5880370951490477,148.94623578665778,148.94623578665778,148.94623578665778,,,,,,,,,,,,,,,,,,,,,,,,,,,,118,001,2010-10-16_11h27.03.568,eb_01,2022.2.4,119.99645035503994,
,,,0,0,0,0,56,0,56,0,,,,,,,,,,,,,,,,,,,,,,,,,,,,,,,,,,,,,,,,,,,,,,,,,,,,,,,,,,,118,001,2010-10-16_11h27.03.568,eb_01,2022.2.4,119.99645035503994,
9,stimuli/9.png,l,0,0,0,0,57,0,57,0,0,0,0,0,,,,,,,,,,,,,,,,,,149.96301318175392,149.96301318175392,149.96301318175392,149.96301318175392,l,1,0.8989075987483375,150.8880681938317,150.8880681938317,150.8880681938317,,,,,,,,,,,,,,,,,,,,,,,,,,,,118,001,2010-10-16_11h27.03.568,eb_01,2022.2.4,119.99645035503994,
,,,0,0,0,0,57,0,57,0,,,,,,,,,,,,,,,,,,,,,,,,,,,,,,,,,,,,,,,,,,,,,,,,,,,,,,,,,,,118,001,2010-10-16_11h27.03.568,eb_01,2022.2.4,119.99645035503994,
8,stimuli/8.png,l,0,0,0,0,58,0,58,0,0,0,0,0,,,,,,,,,,,,,,,,,,151.88817595408182,151.88817595408182,151.88817595408182,151.88817595408182,l,1,0.5657328369561583,152.4715304671845,152.4715304671845,152.4715304671845,,,,,,,,,,,,,,,,,,,,,,,,,,,,118,001,2010-10-16_11h27.03.568,eb_01,2022.2.4,119.99645035503994,
,,,0,0,0,0,58,0,58,0,,,,,,,,,,,,,,,,,,,,,,,,,,,,,,,,,,,,,,,,,,,,,,,,,,,,,,,,,,,118,001,2010-10-16_11h27.03.568,eb_01,2022.2.4,119.99645035503994,
3,stimuli/3.png,l,0,0,0,0,59,0,59,0,0,0,0,0,,,,,,,,,,,,,,,,,,153.47995659406297,153.47995659406297,153.47995659406297,153.47995659406297,l,1,0.9010169225512072,154.39667180817924,154.39667180817924,154.39667180817924,155.41345403285231,155.41345403285231,155.41345403285231,,,,,,,,,,,,,,,,,,,,,,,,,118,001,2010-10-16_11h27.03.568,eb_01,2022.2.4,119.99645035503994,
,,,0,0,0,0,59,0,59,0,,,,,,,,,,,,,,,,,,,,,,,,,,,,,,,,,,,,,,,,,,,,,,,,,,,,,,,,,,,118,001,2010-10-16_11h27.03.568,eb_01,2022.2.4,119.99645035503994,
4,stimuli/4.png,l,0,0,0,0,60,0,60,0,0,0,0,0,,,,,,,,,,,,,,,,,,155.41345403285231,155.41345403285231,155.41345403285231,155.41345403285231,l,1,0.7915524336567614,156.22183971191407,156.22183971191407,156.22183971191407,,,,,,,,,,,,,,,,,,,,,,,,,,,,118,001,2010-10-16_11h27.03.568,eb_01,2022.2.4,119.99645035503994,
,,,0,0,0,0,60,0,60,0,,,,,,,,,,,,,,,,,,,,,,,,,,,,,,,,,,,,,,,,,,,,,,,,,,,,,,,,,,,118,001,2010-10-16_11h27.03.568,eb_01,2022.2.4,119.99645035503994,
1,stimuli/1.png,s,0,0,0,0,61,0,61,0,0,0,0,0,,,,,,,,,,,,,,,,,,157.24691102383076,157.24691102383076,157.24691102383076,157.24691102383076,s,1,1.3501420120010152,158.62206398605485,158.62206398605485,158.62206398605485,,,,,,,,,,,,,,,,,,,,,,,,,,,,118,001,2010-10-16_11h27.03.568,eb_01,2022.2.4,119.99645035503994,
,,,0,0,0,0,61,0,61,0,,,,,,,,,,,,,,,,,,,,,,,,,,,,,,,,,,,,,,,,,,,,,,,,,,,,,,,,,,,118,001,2010-10-16_11h27.03.568,eb_01,2022.2.4,119.99645035503994,
2,stimuli/2.png,s,0,0,0,0,62,0,62,0,0,0,0,0,,,,,,,,,,,,,,,,,,159.6221261670289,159.6221261670289,159.6221261670289,159.6221261670289,s,1,1.1429860675125383,160.78057900757995,160.78057900757995,160.78057900757995,161.79733316026977,161.79733316026977,161.79733316026977,,,,,,,,,,,,,,,,,,,,,,,,,118,001,2010-10-16_11h27.03.568,eb_01,2022.2.4,119.99645035503994,
,,,0,0,0,0,62,0,62,0,,,,,,,,,,,,,,,,,,,,,,,,,,,,,,,,,,,,,,,,,,,,,,,,,,,,,,,,,,,118,001,2010-10-16_11h27.03.568,eb_01,2022.2.4,119.99645035503994,
4,stimuli/4.png,l,0,0,0,0,63,0,63,0,0,0,0,0,,,,,,,,,,,,,,,,,,161.79733316026977,161.79733316026977,161.79733316026977,161.79733316026977,l,1,0.9758870518417098,162.7974258280592,162.7974258280592,162.7974258280592,,,,,,,,,,,,,,,,,,,,,,,,,,,,118,001,2010-10-16_11h27.03.568,eb_01,2022.2.4,119.99645035503994,
,,,0,0,0,0,63,0,63,0,,,,,,,,,,,,,,,,,,,,,,,,,,,,,,,,,,,,,,,,,,,,,,,,,,,,,,,,,,,118,001,2010-10-16_11h27.03.568,eb_01,2022.2.4,119.99645035503994,
1,stimuli/1.png,s,0,0,0,0,64,0,64,0,0,0,0,0,,,,,,,,,,,,,,,,,,163.82248929189518,163.82248929189518,163.82248929189518,163.82248929189518,s,1,1.278693647851469,165.13093413342722,165.13093413342722,165.13093413342722,,,,,,,,,,,,,,,,,,,,,,,,,,,,118,001,2010-10-16_11h27.03.568,eb_01,2022.2.4,119.99645035503994,
,,,0,0,0,0,64,0,64,0,,,,,,,,,,,,,,,,,,,,,,,,,,,,,,,,,,,,,,,,,,,,,,,,,,,,,,,,,,,118,001,2010-10-16_11h27.03.568,eb_01,2022.2.4,119.99645035503994,
4,stimuli/4.png,l,0,0,0,0,65,0,65,0,0,0,0,0,,,,,,,,,,,,,,,,,,166.13937112689018,166.13937112689018,166.13937112689018,166.13937112689018,l,1,0.9778520916297566,167.13943210049183,167.13943210049183,167.13943210049183,,,,,,,,,,,,,,,,,,,,,,,,,,,,118,001,2010-10-16_11h27.03.568,eb_01,2022.2.4,119.99645035503994,
,,,0,0,0,0,65,0,65,0,,,,,,,,,,,,,,,,,,,,,,,,,,,,,,,,,,,,,,,,,,,,,,,,,,,,,,,,,,,118,001,2010-10-16_11h27.03.568,eb_01,2022.2.4,119.99645035503994,
3,stimuli/3.png,l,0,0,0,0,66,0,66,0,0,0,0,0,,,,,,,,,,,,,,,,,,168.14787543276907,168.14787543276907,168.14787543276907,168.14787543276907,l,1,1.0003694555489346,169.16463200026192,169.16463200026192,169.16463200026192,170.1730481661216,170.1730481661216,170.1730481661216,,,,,,,,,,,,,,,,,,,,,,,,,118,001,2010-10-16_11h27.03.568,eb_01,2022.2.4,119.99645035503994,
,,,0,0,0,0,66,0,66,0,,,,,,,,,,,,,,,,,,,,,,,,,,,,,,,,,,,,,,,,,,,,,,,,,,,,,,,,,,,118,001,2010-10-16_11h27.03.568,eb_01,2022.2.4,119.99645035503994,
2,stimuli/2.png,s,0,0,0,0,67,0,67,0,0,0,0,0,,,,,,,,,,,,,,,,,,170.1730481661216,170.1730481661216,170.1730481661216,170.1730481661216,s,1,1.0562463130336255,171.23980729930918,171.23980729930918,171.23980729930918,172.2565623575647,172.2565623575647,172.2565623575647,,,,,,,,,,,,,,,,,,,,,,,,,118,001,2010-10-16_11h27.03.568,eb_01,2022.2.4,119.99645035503994,
,,,0,0,0,0,67,0,67,0,,,,,,,,,,,,,,,,,,,,,,,,,,,,,,,,,,,,,,,,,,,,,,,,,,,,,,,,,,,118,001,2010-10-16_11h27.03.568,eb_01,2022.2.4,119.99645035503994,
4,stimuli/4.png,l,0,0,0,0,68,0,68,0,0,0,0,0,,,,,,,,,,,,,,,,,,172.2565623575647,172.2565623575647,172.2565623575647,172.2565623575647,l,1,0.9077846886939369,173.18165479894378,173.18165479894378,173.18165479894378,,,,,,,,,,,,,,,,,,,,,,,,,,,,118,001,2010-10-16_11h27.03.568,eb_01,2022.2.4,119.99645035503994,
,,,0,0,0,0,68,0,68,0,,,,,,,,,,,,,,,,,,,,,,,,,,,,,,,,,,,,,,,,,,,,,,,,,,,,,,,,,,,118,001,2010-10-16_11h27.03.568,eb_01,2022.2.4,119.99645035503994,
3,stimuli/3.png,l,0,0,0,0,69,0,69,0,0,0,0,0,,,,,,,,,,,,,,,,,,174.19006130562047,174.19006130562047,174.19006130562047,174.19006130562047,l,1,1.4783365599869285,175.68185673622065,175.68185673622065,175.68185673622065,176.69027561871917,176.69027561871917,176.69027561871917,,,,,,,,,,,,,,,,,,,,,,,,,118,001,2010-10-16_11h27.03.568,eb_01,2022.2.4,119.99645035503994,
,,,0,0,0,0,69,0,69,0,,,,,,,,,,,,,,,,,,,,,,,,,,,,,,,,,,,,,,,,,,,,,,,,,,,,,,,,,,,118,001,2010-10-16_11h27.03.568,eb_01,2022.2.4,119.99645035503994,
2,stimuli/2.png,s,0,0,0,0,70,0,70,0,0,0,0,0,,,,,,,,,,,,,,,,,,176.69027561871917,176.69027561871917,176.69027561871917,176.69027561871917,s,1,1.0181429537478834,177.72367676754948,177.72367676754948,177.72367676754948,178.74047106620856,178.74047106620856,178.74047106620856,,,,,,,,,,,,,,,,,,,,,,,,,118,001,2010-10-16_11h27.03.568,eb_01,2022.2.4,119.99645035503994,
,,,0,0,0,0,70,0,70,0,,,,,,,,,,,,,,,,,,,,,,,,,,,,,,,,,,,,,,,,,,,,,,,,,,,,,,,,,,,118,001,2010-10-16_11h27.03.568,eb_01,2022.2.4,119.99645035503994,
4,stimuli/4.png,l,0,0,0,0,71,0,71,0,0,0,0,0,,,,,,,,,,,,,,,,,,178.74047106620856,178.74047106620856,178.74047106620856,178.74047106620856,l,1,1.6960185978387017,180.45724453727598,180.45724453727598,180.45724453727598,,,,,,,,,,,,,,,,,,,,,,,,,,,,118,001,2010-10-16_11h27.03.568,eb_01,2022.2.4,119.99645035503994,
,,,0,0,0,0,71,0,71,0,,,,,,,,,,,,,,,,,,,,,,,,,,,,,,,,,,,,,,,,,,,,,,,,,,,,,,,,,,,118,001,2010-10-16_11h27.03.568,eb_01,2022.2.4,119.99645035503994,
2,stimuli/2.png,s,0,0,0,0,72,0,72,0,0,0,0,0,,,,,,,,,,,,,,,,,,181.46566704197903,181.46566704197903,181.46566704197903,181.46566704197903,s,1,0.5788240468245931,182.05740300822072,182.05740300822072,182.05740300822072,183.08247341460083,183.08247341460083,183.08247341460083,,,,,,,,,,,,,,,,,,,,,,,,,118,001,2010-10-16_11h27.03.568,eb_01,2022.2.4,119.99645035503994,
,,,0,0,0,0,72,0,72,0,,,,,,,,,,,,,,,,,,,,,,,,,,,,,,,,,,,,,,,,,,,,,,,,,,,,,,,,,,,118,001,2010-10-16_11h27.03.568,eb_01,2022.2.4,119.99645035503994,
1,stimuli/1.png,s,0,0,0,0,73,0,73,0,0,0,0,0,,,,,,,,,,,,,,,,,,183.08247341460083,183.08247341460083,183.08247341460083,183.08247341460083,s,1,0.5940964206529316,183.70753838770906,183.70753838770906,183.70753838770906,,,,,,,,,,,,,,,,,,,,,,,,,,,,118,001,2010-10-16_11h27.03.568,eb_01,2022.2.4,119.99645035503994,
,,,0,0,0,0,73,0,73,0,,,,,,,,,,,,,,,,,,,,,,,,,,,,,,,,,,,,,,,,,,,,,,,,,,,,,,,,,,,118,001,2010-10-16_11h27.03.568,eb_01,2022.2.4,119.99645035503994,
4,stimuli/4.png,l,0,0,0,0,74,0,74,0,0,0,0,0,,,,,,,,,,,,,,,,,,184.71592648155638,184.71592648155638,184.71592648155638,184.71592648155638,s,0,1.2796882417460438,186.01603876953595,186.01603876953595,186.01603876953595,,,,,,,,,,,,,,,,,,,,,,,,,,,,118,001,2010-10-16_11h27.03.568,eb_01,2022.2.4,119.99645035503994,
,,,0,0,0,0,74,0,74,0,,,,,,,,,,,,,,,,,,,,,,,,,,,,,,,,,,,,,,,,,,,,,,,,,,,,,,,,,,,118,001,2010-10-16_11h27.03.568,eb_01,2022.2.4,119.99645035503994,
3,stimuli/3.png,l,0,0,0,0,75,0,75,0,0,0,0,0,,,,,,,,,,,,,,,,,,187.0244920628611,187.0244920628611,187.0244920628611,187.0244920628611,l,1,0.5711356399697252,187.6162084089301,187.6162084089301,187.6162084089301,,,,,,,,,,,,,,,,,,,,,,,,,,,,118,001,2010-10-16_11h27.03.568,eb_01,2022.2.4,119.99645035503994,
,,,0,0,0,0,75,0,75,0,,,,,,,,,,,,,,,,,,,,,,,,,,,,,,,,,,,,,,,,,,,,,,,,,,,,,,,,,,,118,001,2010-10-16_11h27.03.568,eb_01,2022.2.4,119.99645035503994,
4,stimuli/4.png,l,0,0,0,0,76,0,76,0,0,0,0,0,,,,,,,,,,,,,,,,,,188.6329764466791,188.6329764466791,188.6329764466791,188.6329764466791,l,1,1.874720403808169,190.52478606422665,190.52478606422665,190.52478606422665,,,,,,,,,,,,,,,,,,,,,,,,,,,,118,001,2010-10-16_11h27.03.568,eb_01,2022.2.4,119.99645035503994,
,,,0,0,0,0,76,0,76,0,,,,,,,,,,,,,,,,,,,,,,,,,,,,,,,,,,,,,,,,,,,,,,,,,,,,,,,,,,,118,001,2010-10-16_11h27.03.568,eb_01,2022.2.4,119.99645035503994,
3,stimuli/3.png,l,0,0,0,0,77,0,77,0,0,0,0,0,,,,,,,,,,,,,,,,,,191.53321038000286,191.53321038000286,191.53321038000286,191.53321038000286,l,1,2.8785629470366985,194.42508972474025,194.42508972474025,194.42508972474025,195.43352460526512,195.43352460526512,195.43352460526512,,,,,,,,,,,,,,,,,,,,,,,,,118,001,2010-10-16_11h27.03.568,eb_01,2022.2.4,119.99645035503994,
,,,0,0,0,0,77,0,77,0,,,,,,,,,,,,,,,,,,,,,,,,,,,,,,,,,,,,,,,,,,,,,,,,,,,,,,,,,,,118,001,2010-10-16_11h27.03.568,eb_01,2022.2.4,119.99645035503994,
8,stimuli/8.png,l,0,0,0,0,78,0,78,0,0,0,0,0,,,,,,,,,,,,,,,,,,195.43352460526512,195.43352460526512,195.43352460526512,195.43352460526512,l,1,1.2103190164780244,196.6669843128766,196.6669843128766,196.6669843128766,,,,,,,,,,,,,,,,,,,,,,,,,,,,118,001,2010-10-16_11h27.03.568,eb_01,2022.2.4,119.99645035503994,
,,,0,0,0,0,78,0,78,0,,,,,,,,,,,,,,,,,,,,,,,,,,,,,,,,,,,,,,,,,,,,,,,,,,,,,,,,,,,118,001,2010-10-16_11h27.03.568,eb_01,2022.2.4,119.99645035503994,
9,stimuli/9.png,l,0,0,0,0,79,0,79,0,0,0,0,0,,,,,,,,,,,,,,,,,,197.68374782291357,197.68374782291357,197.68374782291357,197.68374782291357,l,1,0.5441164936346468,198.25876736766077,198.25876736766077,198.25876736766077,,,,,,,,,,,,,,,,,,,,,,,,,,,,118,001,2010-10-16_11h27.03.568,eb_01,2022.2.4,119.99645035503994,
,,,0,0,0,0,79,0,79,0,,,,,,,,,,,,,,,,,,,,,,,,,,,,,,,,,,,,,,,,,,,,,,,,,,,,,,,,,,,118,001,2010-10-16_11h27.03.568,eb_01,2022.2.4,119.99645035503994,
8,stimuli/8.png,l,0,0,0,0,80,0,80,0,0,0,0,0,,,,,,,,,,,,,,,,,,199.2588470558985,199.2588470558985,199.2588470558985,199.2588470558985,l,1,0.41611603484489024,199.69220504027908,199.69220504027908,199.69220504027908,,,,,,,,,,,,,,,,,,,,,,,,,,,,118,001,2010-10-16_11h27.03.568,eb_01,2022.2.4,119.99645035503994,
,,,0,0,0,0,80,0,80,0,,,,,,,,,,,,,,,,,,,,,,,,,,,,,,,,,,,,,,,,,,,,,,,,,,,,,,,,,,,118,001,2010-10-16_11h27.03.568,eb_01,2022.2.4,119.99645035503994,
3,stimuli/3.png,l,0,0,0,0,81,0,81,0,0,0,0,0,,,,,,,,,,,,,,,,,,200.7006855000509,200.7006855000509,200.7006855000509,200.7006855000509,l,1,0.5102191043260973,201.2256710867514,201.2256710867514,201.2256710867514,202.24242463574046,202.24242463574046,202.24242463574046,,,,,,,,,,,,,,,,,,,,,,,,,118,001,2010-10-16_11h27.03.568,eb_01,2022.2.4,119.99645035503994,
,,,0,0,0,0,81,0,81,0,,,,,,,,,,,,,,,,,,,,,,,,,,,,,,,,,,,,,,,,,,,,,,,,,,,,,,,,,,,118,001,2010-10-16_11h27.03.568,eb_01,2022.2.4,119.99645035503994,
4,stimuli/4.png,l,0,0,0,0,82,0,82,0,0,0,0,0,,,,,,,,,,,,,,,,,,202.24242463574046,202.24242463574046,202.24242463574046,202.24242463574046,l,1,0.7925687606912106,203.05916037561838,203.05916037561838,203.05916037561838,,,,,,,,,,,,,,,,,,,,,,,,,,,,118,001,2010-10-16_11h27.03.568,eb_01,2022.2.4,119.99645035503994,
,,,0,0,0,0,82,0,82,0,,,,,,,,,,,,,,,,,,,,,,,,,,,,,,,,,,,,,,,,,,,,,,,,,,,,,,,,,,,118,001,2010-10-16_11h27.03.568,eb_01,2022.2.4,119.99645035503994,
1,stimuli/1.png,s,0,0,0,0,83,0,83,0,0,0,0,0,,,,,,,,,,,,,,,,,,204.08428179455223,204.08428179455223,204.08428179455223,204.08428179455223,s,1,1.0147115294239484,205.12601398769766,205.12601398769766,205.12601398769766,,,,,,,,,,,,,,,,,,,,,,,,,,,,118,001,2010-10-16_11h27.03.568,eb_01,2022.2.4,119.99645035503994,
,,,0,0,0,0,83,0,83,0,,,,,,,,,,,,,,,,,,,,,,,,,,,,,,,,,,,,,,,,,,,,,,,,,,,,,,,,,,,118,001,2010-10-16_11h27.03.568,eb_01,2022.2.4,119.99645035503994,
4,stimuli/4.png,l,0,0,0,0,84,0,84,0,0,0,0,0,,,,,,,,,,,,,,,,,,206.1344265313528,206.1344265313528,206.1344265313528,206.1344265313528,s,0,0.4046047049050685,206.5594640361378,206.5594640361378,206.5594640361378,,,,,,,,,,,,,,,,,,,,,,,,,,,,118,001,2010-10-16_11h27.03.568,eb_01,2022.2.4,119.99645035503994,
,,,0,0,0,0,84,0,84,0,,,,,,,,,,,,,,,,,,,,,,,,,,,,,,,,,,,,,,,,,,,,,,,,,,,,,,,,,,,118,001,2010-10-16_11h27.03.568,eb_01,2022.2.4,119.99645035503994,
3,stimuli/3.png,l,0,0,0,0,85,0,85,0,0,0,0,0,,,,,,,,,,,,,,,,,,207.56789016301627,207.56789016301627,207.56789016301627,207.56789016301627,l,1,0.5472010929952376,208.13459828367922,208.13459828367922,208.13459828367922,,,,,,,,,,,,,,,,,,,,,,,,,,,,118,001,2010-10-16_11h27.03.568,eb_01,2022.2.4,119.99645035503994,
,,,0,0,0,0,85,0,85,0,,,,,,,,,,,,,,,,,,,,,,,,,,,,,,,,,,,,,,,,,,,,,,,,,,,,,,,,,,,118,001,2010-10-16_11h27.03.568,eb_01,2022.2.4,119.99645035503994,
8,stimuli/8.png,l,0,0,0,0,86,0,86,0,0,0,0,0,,,,,,,,,,,,,,,,,,209.14302622165997,209.14302622165997,209.14302622165997,209.14302622165997,l,1,0.604049301968189,209.76810175948776,209.76810175948776,209.76810175948776,,,,,,,,,,,,,,,,,,,,,,,,,,,,118,001,2010-10-16_11h27.03.568,eb_01,2022.2.4,119.99645035503994,
,,,0,0,0,0,86,0,86,0,,,,,,,,,,,,,,,,,,,,,,,,,,,,,,,,,,,,,,,,,,,,,,,,,,,,,,,,,,,118,001,2010-10-16_11h27.03.568,eb_01,2022.2.4,119.99645035503994,
6,stimuli/6.png,s,0,0,0,0,87,0,87,0,0,0,0,0,,,,,,,,,,,,,,,,,,210.79316944919992,210.79316944919992,210.79316944919992,210.79316944919992,s,1,0.6819943714071997,211.5015841058048,211.5015841058048,211.5015841058048,,,,,,,,,,,,,,,,,,,,,,,,,,,,118,001,2010-10-16_11h27.03.568,eb_01,2022.2.4,119.99645035503994,
,,,0,0,0,0,87,0,87,0,,,,,,,,,,,,,,,,,,,,,,,,,,,,,,,,,,,,,,,,,,,,,,,,,,,,,,,,,,,118,001,2010-10-16_11h27.03.568,eb_01,2022.2.4,119.99645035503994,
8,stimuli/8.png,l,0,0,0,0,88,0,88,0,0,0,0,0,,,,,,,,,,,,,,,,,,212.50165624782676,212.50165624782676,212.50165624782676,212.50165624782676,l,1,0.5654862259980291,213.08501770347357,213.08501770347357,213.08501770347357,,,,,,,,,,,,,,,,,,,,,,,,,,,,118,001,2010-10-16_11h27.03.568,eb_01,2022.2.4,119.99645035503994,
,,,0,0,0,0,88,0,88,0,,,,,,,,,,,,,,,,,,,,,,,,,,,,,,,,,,,,,,,,,,,,,,,,,,,,,,,,,,,118,001,2010-10-16_11h27.03.568,eb_01,2022.2.4,119.99645035503994,
9,stimuli/9.png,l,0,0,0,0,89,0,89,0,0,0,0,0,,,,,,,,,,,,,,,,,,214.1018267927575,214.1018267927575,214.1018267927575,214.1018267927575,l,1,0.693385263410164,214.82683350890875,214.82683350890875,214.82683350890875,,,,,,,,,,,,,,,,,,,,,,,,,,,,118,001,2010-10-16_11h27.03.568,eb_01,2022.2.4,119.99645035503994,
,,,0,0,0,0,89,0,89,0,,,,,,,,,,,,,,,,,,,,,,,,,,,,,,,,,,,,,,,,,,,,,,,,,,,,,,,,,,,118,001,2010-10-16_11h27.03.568,eb_01,2022.2.4,119.99645035503994,
6,stimuli/6.png,s,0,0,0,0,90,0,90,0,0,0,0,0,,,,,,,,,,,,,,,,,,215.84360335776,215.84360335776,215.84360335776,215.84360335776,s,1,1.5826406310370658,217.4520801953622,217.4520801953622,217.4520801953622,,,,,,,,,,,,,,,,,,,,,,,,,,,,118,001,2010-10-16_11h27.03.568,eb_01,2022.2.4,119.99645035503994,
,,,0,0,0,0,90,0,90,0,,,,,,,,,,,,,,,,,,,,,,,,,,,,,,,,,,,,,,,,,,,,,,,,,,,,,,,,,,,118,001,2010-10-16_11h27.03.568,eb_01,2022.2.4,119.99645035503994,
9,stimuli/9.png,l,0,0,0,0,91,0,91,0,0,0,0,0,,,,,,,,,,,,,,,,,,218.4604854946374,218.4604854946374,218.4604854946374,218.4604854946374,l,1,0.9017899589671288,219.39391290437197,219.39391290437197,219.39391290437197,,,,,,,,,,,,,,,,,,,,,,,,,,,,118,001,2010-10-16_11h27.03.568,eb_01,2022.2.4,119.99645035503994,
,,,0,0,0,0,91,0,91,0,,,,,,,,,,,,,,,,,,,,,,,,,,,,,,,,,,,,,,,,,,,,,,,,,,,,,,,,,,,118,001,2010-10-16_11h27.03.568,eb_01,2022.2.4,119.99645035503994,
5,stimuli/5.png,s,0,0,0,0,92,0,92,0,0,0,0,0,,,,,,,,,,,,,,,,,,220.3939802167879,220.3939802167879,220.3939802167879,220.3939802167879,s,1,0.8323519120458513,221.2440829965053,221.2440829965053,221.2440829965053,,,,,,,,,,,,,,,,,,,,,,,,,,,,118,001,2010-10-16_11h27.03.568,eb_01,2022.2.4,119.99645035503994,
,,,0,0,0,0,92,0,92,0,,,,,,,,,,,,,,,,,,,,,,,,,,,,,,,,,,,,,,,,,,,,,,,,,,,,,,,,,,,118,001,2010-10-16_11h27.03.568,eb_01,2022.2.4,119.99645035503994,
9,stimuli/9.png,l,0,0,0,0,93,0,93,0,0,0,0,0,,,,,,,,,,,,,,,,,,222.26080304023344,222.26080304023344,222.26080304023344,222.26080304023344,l,1,0.981566348898923,223.26922313010436,223.26922313010436,223.26922313010436,,,,,,,,,,,,,,,,,,,,,,,,,,,,118,001,2010-10-16_11h27.03.568,eb_01,2022.2.4,119.99645035503994,
,,,0,0,0,0,93,0,93,0,,,,,,,,,,,,,,,,,,,,,,,,,,,,,,,,,,,,,,,,,,,,,,,,,,,,,,,,,,,118,001,2010-10-16_11h27.03.568,eb_01,2022.2.4,119.99645035503994,
6,stimuli/6.png,s,0,0,0,0,94,0,94,0,0,0,0,0,,,,,,,,,,,,,,,,,,224.286011391785,224.286011391785,224.286011391785,224.286011391785,s,1,0.7883836183173116,225.10274954646593,225.10274954646593,225.10274954646593,,,,,,,,,,,,,,,,,,,,,,,,,,,,118,001,2010-10-16_11h27.03.568,eb_01,2022.2.4,119.99645035503994,
,,,0,0,0,0,94,0,94,0,,,,,,,,,,,,,,,,,,,,,,,,,,,,,,,,,,,,,,,,,,,,,,,,,,,,,,,,,,,118,001,2010-10-16_11h27.03.568,eb_01,2022.2.4,119.99645035503994,
8,stimuli/8.png,l,0,0,0,0,95,0,95,0,0,0,0,0,,,,,,,,,,,,,,,,,,226.1028349698463,226.1028349698463,226.1028349698463,226.1028349698463,l,1,0.8196138660423458,226.94459614055813,226.94459614055813,226.94459614055813,,,,,,,,,,,,,,,,,,,,,,,,,,,,118,001,2010-10-16_11h27.03.568,eb_01,2022.2.4,119.99645035503994,
,,,0,0,0,0,95,0,95,0,,,,,,,,,,,,,,,,,,,,,,,,,,,,,,,,,,,,,,,,,,,,,,,,,,,,,,,,,,,118,001,2010-10-16_11h27.03.568,eb_01,2022.2.4,119.99645035503994,
3,stimuli/3.png,l,0,0,0,0,96,0,96,0,0,0,0,0,,,,,,,,,,,,,,,,,,227.95297185858362,227.95297185858362,227.95297185858362,227.95297185858362,l,1,0.9615015116578434,228.9280750156322,228.9280750156322,228.9280750156322,229.93647669270285,229.93647669270285,229.93647669270285,,,,,,,,,,,,,,,,,,,,,,,,,118,001,2010-10-16_11h27.03.568,eb_01,2022.2.4,119.99645035503994,
,,,0,0,0,0,96,0,96,0,,,,,,,,,,,,,,,,,,,,,,,,,,,,,,,,,,,,,,,,,,,,,,,,,,,,,,,,,,,118,001,2010-10-16_11h27.03.568,eb_01,2022.2.4,119.99645035503994,
2,stimuli/2.png,s,0,0,0,0,97,0,97,0,0,0,0,0,,,,,,,,,,,,,,,,,,229.93647669270285,229.93647669270285,229.93647669270285,229.93647669270285,s,1,0.697094087372534,230.6448877271032,230.6448877271032,230.6448877271032,231.6533075151383,231.6533075151383,231.6533075151383,,,,,,,,,,,,,,,,,,,,,,,,,118,001,2010-10-16_11h27.03.568,eb_01,2022.2.4,119.99645035503994,
,,,0,0,0,0,97,0,97,0,,,,,,,,,,,,,,,,,,,,,,,,,,,,,,,,,,,,,,,,,,,,,,,,,,,,,,,,,,,118,001,2010-10-16_11h27.03.568,eb_01,2022.2.4,119.99645035503994,
3,stimuli/3.png,l,0,0,0,0,98,0,98,0,0,0,0,0,,,,,,,,,,,,,,,,,,231.6533075151383,231.6533075151383,231.6533075151383,231.6533075151383,l,1,0.8842497903387994,232.55338509046123,232.55338509046123,232.55338509046123,233.56177016580477,233.56177016580477,233.56177016580477,,,,,,,,,,,,,,,,,,,,,,,,,118,001,2010-10-16_11h27.03.568,eb_01,2022.2.4,119.99645035503994,
,,,0,0,0,0,98,0,98,0,,,,,,,,,,,,,,,,,,,,,,,,,,,,,,,,,,,,,,,,,,,,,,,,,,,,,,,,,,,118,001,2010-10-16_11h27.03.568,eb_01,2022.2.4,119.99645035503994,
8,stimuli/8.png,l,0,0,0,0,99,0,99,0,0,0,0,0,,,,,,,,,,,,,,,,,,233.56177016580477,233.56177016580477,233.56177016580477,233.56177016580477,l,1,0.9518233133421745,234.53685219338513,234.53685219338513,234.53685219338513,,,,,,,,,,,,,,,,,,,,,,,,,,,,118,001,2010-10-16_11h27.03.568,eb_01,2022.2.4,119.99645035503994,
,,,0,0,0,0,99,0,99,0,,,,,,,,,,,,,,,,,,,,,,,,,,,,,,,,,,,,,,,,,,,,,,,,,,,,,,,,,,,118,001,2010-10-16_11h27.03.568,eb_01,2022.2.4,119.99645035503994,
,,,0,0,0,0,,,,,,,,,,,,,,,,,,,,,,,,,,,,,,,,,,,,,,,235.53697021651897,235.53697021651897,return,2.2886800344567746,,,,,,,,,,,,,,,,,,,,,118,001,2010-10-16_11h27.03.568,eb_01,2022.2.4,119.99645035503994,
3,stimuli/3.png,l,1,0,1,0,0,0,0,0,0,0,0,0,,,,,,,,,,,,,,,,,,237.84551527208532,237.84551527208532,237.84551527208532,237.84551527208532,l,1,1.1241560962807853,238.9873401329969,238.9873401329969,238.9873401329969,,,,,,,,,,,,,,,,,,,,,,,,,,,,118,001,2010-10-16_11h27.03.568,eb_01,2022.2.4,119.99645035503994,
,,,1,0,1,0,0,0,0,0,,,,,,,,,,,,,,,,,,,,,,,,,,,,,,,,,,,,,,,,,,,,,,,,,,,,,,,,,,,118,001,2010-10-16_11h27.03.568,eb_01,2022.2.4,119.99645035503994,
8,stimuli/8.png,l,1,0,1,0,1,0,1,0,0,0,0,0,,,,,,,,,,,,,,,,,,239.9956630273664,239.9956630273664,239.9956630273664,239.9956630273664,l,1,0.5500538719643373,240.56236782768974,240.56236782768974,240.56236782768974,,,,,,,,,,,,,,,,,,,,,,,,,,,,118,001,2010-10-16_11h27.03.568,eb_01,2022.2.4,119.99645035503994,
,,,1,0,1,0,1,0,1,0,,,,,,,,,,,,,,,,,,,,,,,,,,,,,,,,,,,,,,,,,,,,,,,,,,,,,,,,,,,118,001,2010-10-16_11h27.03.568,eb_01,2022.2.4,119.99645035503994,
9,stimuli/9.png,l,1,0,1,0,2,0,2,0,0,0,0,0,,,,,,,,,,,,,,,,,,241.57915578750544,241.57915578750544,241.57915578750544,241.57915578750544,l,1,0.5505766751884948,242.16251965795527,242.16251965795527,242.16251965795527,,,,,,,,,,,,,,,,,,,,,,,,,,,,118,001,2010-10-16_11h27.03.568,eb_01,2022.2.4,119.99645035503994,
,,,1,0,1,0,2,0,2,0,,,,,,,,,,,,,,,,,,,,,,,,,,,,,,,,,,,,,,,,,,,,,,,,,,,,,,,,,,,118,001,2010-10-16_11h27.03.568,eb_01,2022.2.4,119.99645035503994,
6,stimuli/6.png,s,1,0,1,0,3,0,3,0,0,0,0,0,,,,,,,,,,,,,,,,,,243.17927531988244,243.17927531988244,243.17927531988244,243.17927531988244,s,1,0.8944912397128064,244.1043903999671,244.1043903999671,244.1043903999671,,,,,,,,,,,,,,,,,,,,,,,,,,,,118,001,2010-10-16_11h27.03.568,eb_01,2022.2.4,119.99645035503994,
,,,1,0,1,0,3,0,3,0,,,,,,,,,,,,,,,,,,,,,,,,,,,,,,,,,,,,,,,,,,,,,,,,,,,,,,,,,,,118,001,2010-10-16_11h27.03.568,eb_01,2022.2.4,119.99645035503994,
8,stimuli/8.png,l,1,0,1,0,4,0,4,0,0,0,0,0,,,,,,,,,,,,,,,,,,245.10445831611287,245.10445831611287,245.10445831611287,245.10445831611287,l,1,1.1684199006122071,246.29620092306868,246.29620092306868,246.29620092306868,,,,,,,,,,,,,,,,,,,,,,,,,,,,118,001,2010-10-16_11h27.03.568,eb_01,2022.2.4,119.99645035503994,
,,,1,0,1,0,4,0,4,0,,,,,,,,,,,,,,,,,,,,,,,,,,,,,,,,,,,,,,,,,,,,,,,,,,,,,,,,,,,118,001,2010-10-16_11h27.03.568,eb_01,2022.2.4,119.99645035503994,
9,stimuli/9.png,l,1,0,1,0,5,0,5,0,0,0,0,0,,,,,,,,,,,,,,,,,,247.31297499779612,247.31297499779612,247.31297499779612,247.31297499779612,l,1,0.9919943412241992,248.32971405802527,248.32971405802527,248.32971405802527,,,,,,,,,,,,,,,,,,,,,,,,,,,,118,001,2010-10-16_11h27.03.568,eb_01,2022.2.4,119.99645035503994,
,,,1,0,1,0,5,0,5,0,,,,,,,,,,,,,,,,,,,,,,,,,,,,,,,,,,,,,,,,,,,,,,,,,,,,,,,,,,,118,001,2010-10-16_11h27.03.568,eb_01,2022.2.4,119.99645035503994,
6,stimuli/6.png,s,1,0,1,0,6,0,6,0,0,0,0,0,,,,,,,,,,,,,,,,,,249.34647002181737,249.34647002181737,249.34647002181737,249.34647002181737,s,1,0.9184423883853015,250.29654925729847,250.29654925729847,250.29654925729847,,,,,,,,,,,,,,,,,,,,,,,,,,,,118,001,2010-10-16_11h27.03.568,eb_01,2022.2.4,119.99645035503994,
,,,1,0,1,0,6,0,6,0,,,,,,,,,,,,,,,,,,,,,,,,,,,,,,,,,,,,,,,,,,,,,,,,,,,,,,,,,,,118,001,2010-10-16_11h27.03.568,eb_01,2022.2.4,119.99645035503994,
8,stimuli/8.png,l,1,0,1,0,7,0,7,0,0,0,0,0,,,,,,,,,,,,,,,,,,251.29665611198288,251.29665611198288,251.29665611198288,251.29665611198288,l,1,0.7922789852018468,252.1133885315212,252.1133885315212,252.1133885315212,,,,,,,,,,,,,,,,,,,,,,,,,,,,118,001,2010-10-16_11h27.03.568,eb_01,2022.2.4,119.99645035503994,
,,,1,0,1,0,7,0,7,0,,,,,,,,,,,,,,,,,,,,,,,,,,,,,,,,,,,,,,,,,,,,,,,,,,,,,,,,,,,118,001,2010-10-16_11h27.03.568,eb_01,2022.2.4,119.99645035503994,
9,stimuli/9.png,l,1,0,1,0,8,0,8,0,0,0,0,0,,,,,,,,,,,,,,,,,,253.13013604353182,253.13013604353182,253.13013604353182,253.13013604353182,l,1,0.7908515392628033,253.94687842408894,253.94687842408894,253.94687842408894,,,,,,,,,,,,,,,,,,,,,,,,,,,,118,001,2010-10-16_11h27.03.568,eb_01,2022.2.4,119.99645035503994,
,,,1,0,1,0,8,0,8,0,,,,,,,,,,,,,,,,,,,,,,,,,,,,,,,,,,,,,,,,,,,,,,,,,,,,,,,,,,,118,001,2010-10-16_11h27.03.568,eb_01,2022.2.4,119.99645035503994,
8,stimuli/8.png,l,1,0,1,0,9,0,9,0,0,0,0,0,,,,,,,,,,,,,,,,,,254.94693336071214,254.94693336071214,254.94693336071214,254.94693336071214,l,1,0.5501507656299509,255.51368162731524,255.51368162731524,255.51368162731524,,,,,,,,,,,,,,,,,,,,,,,,,,,,118,001,2010-10-16_11h27.03.568,eb_01,2022.2.4,119.99645035503994,
,,,1,0,1,0,9,0,9,0,,,,,,,,,,,,,,,,,,,,,,,,,,,,,,,,,,,,,,,,,,,,,,,,,,,,,,,,,,,118,001,2010-10-16_11h27.03.568,eb_01,2022.2.4,119.99645035503994,
3,stimuli/3.png,l,1,0,1,0,10,0,10,0,0,0,0,0,,,,,,,,,,,,,,,,,,256.5220754563343,256.5220754563343,256.5220754563343,256.5220754563343,l,1,0.7589659764198586,257.29719581877,257.29719581877,257.29719581877,258.30558994962485,258.30558994962485,258.30558994962485,,,,,,,,,,,,,,,,,,,,,,,,,118,001,2010-10-16_11h27.03.568,eb_01,2022.2.4,119.99645035503994,
,,,1,0,1,0,10,0,10,0,,,,,,,,,,,,,,,,,,,,,,,,,,,,,,,,,,,,,,,,,,,,,,,,,,,,,,,,,,,118,001,2010-10-16_11h27.03.568,eb_01,2022.2.4,119.99645035503994,
8,stimuli/8.png,l,1,0,1,0,11,0,11,0,0,0,0,0,,,,,,,,,,,,,,,,,,258.30558994962485,258.30558994962485,258.30558994962485,258.30558994962485,l,1,0.5115083032578696,258.8389618190704,258.8389618190704,258.8389618190704,,,,,,,,,,,,,,,,,,,,,,,,,,,,118,001,2010-10-16_11h27.03.568,eb_01,2022.2.4,119.99645035503994,
,,,1,0,1,0,11,0,11,0,,,,,,,,,,,,,,,,,,,,,,,,,,,,,,,,,,,,,,,,,,,,,,,,,,,,,,,,,,,118,001,2010-10-16_11h27.03.568,eb_01,2022.2.4,119.99645035503994,
9,stimuli/9.png,l,1,0,1,0,12,0,12,0,0,0,0,0,,,,,,,,,,,,,,,,,,259.85569997373386,259.85569997373386,259.85569997373386,259.85569997373386,l,1,0.6574192999396473,260.5390891995339,260.5390891995339,260.5390891995339,,,,,,,,,,,,,,,,,,,,,,,,,,,,118,001,2010-10-16_11h27.03.568,eb_01,2022.2.4,119.99645035503994,
,,,1,0,1,0,12,0,12,0,,,,,,,,,,,,,,,,,,,,,,,,,,,,,,,,,,,,,,,,,,,,,,,,,,,,,,,,,,,118,001,2010-10-16_11h27.03.568,eb_01,2022.2.4,119.99645035503994,
5,stimuli/5.png,s,1,0,1,0,13,0,13,0,0,0,0,0,,,,,,,,,,,,,,,,,,261.5392023930617,261.5392023930617,261.5392023930617,261.5392023930617,s,1,1.1649404822383076,262.7225931280991,262.7225931280991,262.7225931280991,,,,,,,,,,,,,,,,,,,,,,,,,,,,118,001,2010-10-16_11h27.03.568,eb_01,2022.2.4,119.99645035503994,
,,,1,0,1,0,13,0,13,0,,,,,,,,,,,,,,,,,,,,,,,,,,,,,,,,,,,,,,,,,,,,,,,,,,,,,,,,,,,118,001,2010-10-16_11h27.03.568,eb_01,2022.2.4,119.99645035503994,
9,stimuli/9.png,l,1,0,1,0,14,0,14,0,0,0,0,0,,,,,,,,,,,,,,,,,,263.73937173059676,263.73937173059676,263.73937173059676,263.73937173059676,l,1,0.9488304762053303,264.71443202500814,264.71443202500814,264.71443202500814,,,,,,,,,,,,,,,,,,,,,,,,,,,,118,001,2010-10-16_11h27.03.568,eb_01,2022.2.4,119.99645035503994,
,,,1,0,1,0,14,0,14,0,,,,,,,,,,,,,,,,,,,,,,,,,,,,,,,,,,,,,,,,,,,,,,,,,,,,,,,,,,,118,001,2010-10-16_11h27.03.568,eb_01,2022.2.4,119.99645035503994,
5,stimuli/5.png,s,1,0,1,0,15,0,15,0,0,0,0,0,,,,,,,,,,,,,,,,,,265.71451684471685,265.71451684471685,265.71451684471685,265.71451684471685,s,1,0.9097116954508238,266.6479659875913,266.6479659875913,266.6479659875913,,,,,,,,,,,,,,,,,,,,,,,,,,,,118,001,2010-10-16_11h27.03.568,eb_01,2022.2.4,119.99645035503994,
,,,1,0,1,0,15,0,15,0,,,,,,,,,,,,,,,,,,,,,,,,,,,,,,,,,,,,,,,,,,,,,,,,,,,,,,,,,,,118,001,2010-10-16_11h27.03.568,eb_01,2022.2.4,119.99645035503994,
9,stimuli/9.png,l,1,0,1,0,16,0,16,0,0,0,0,0,,,,,,,,,,,,,,,,,,267.6647002182435,267.6647002182435,267.6647002182435,267.6647002182435,l,1,0.4955631070479285,268.1897639839153,268.1897639839153,268.1897639839153,,,,,,,,,,,,,,,,,,,,,,,,,,,,118,001,2010-10-16_11h27.03.568,eb_01,2022.2.4,119.99645035503994,
,,,1,0,1,0,16,0,16,0,,,,,,,,,,,,,,,,,,,,,,,,,,,,,,,,,,,,,,,,,,,,,,,,,,,,,,,,,,,118,001,2010-10-16_11h27.03.568,eb_01,2022.2.4,119.99645035503994,
6,stimuli/6.png,s,1,0,1,0,17,0,17,0,0,0,0,0,,,,,,,,,,,,,,,,,,269.2064834239427,269.2064834239427,269.2064834239427,269.2064834239427,s,1,0.9538269898621365,270.1899019291159,270.1899019291159,270.1899019291159,,,,,,,,,,,,,,,,,,,,,,,,,,,,118,001,2010-10-16_11h27.03.568,eb_01,2022.2.4,119.99645035503994,
,,,1,0,1,0,17,0,17,0,,,,,,,,,,,,,,,,,,,,,,,,,,,,,,,,,,,,,,,,,,,,,,,,,,,,,,,,,,,118,001,2010-10-16_11h27.03.568,eb_01,2022.2.4,119.99645035503994,
9,stimuli/9.png,l,1,0,1,0,18,0,18,0,0,0,0,0,,,,,,,,,,,,,,,,,,271.19832262271666,271.19832262271666,271.19832262271666,271.19832262271666,l,1,0.7460130136169028,271.97345475730253,271.97345475730253,271.97345475730253,,,,,,,,,,,,,,,,,,,,,,,,,,,,118,001,2010-10-16_11h27.03.568,eb_01,2022.2.4,119.99645035503994,
,,,1,0,1,0,18,0,18,0,,,,,,,,,,,,,,,,,,,,,,,,,,,,,,,,,,,,,,,,,,,,,,,,,,,,,,,,,,,118,001,2010-10-16_11h27.03.568,eb_01,2022.2.4,119.99645035503994,
6,stimuli/6.png,s,1,0,1,0,19,0,19,0,0,0,0,0,,,,,,,,,,,,,,,,,,272.99017600840307,272.99017600840307,272.99017600840307,272.99017600840307,s,1,0.8102009933791123,273.8319263125013,273.8319263125013,273.8319263125013,,,,,,,,,,,,,,,,,,,,,,,,,,,,118,001,2010-10-16_11h27.03.568,eb_01,2022.2.4,119.99645035503994,
,,,1,0,1,0,19,0,19,0,,,,,,,,,,,,,,,,,,,,,,,,,,,,,,,,,,,,,,,,,,,,,,,,,,,,,,,,,,,118,001,2010-10-16_11h27.03.568,eb_01,2022.2.4,119.99645035503994,
9,stimuli/9.png,l,1,0,1,0,20,0,20,0,0,0,0,0,,,,,,,,,,,,,,,,,,274.84033342287876,274.84033342287876,274.84033342287876,274.84033342287876,l,1,0.712076987605542,275.5820632012328,275.5820632012328,275.5820632012328,,,,,,,,,,,,,,,,,,,,,,,,,,,,118,001,2010-10-16_11h27.03.568,eb_01,2022.2.4,119.99645035503994,
,,,1,0,1,0,20,0,20,0,,,,,,,,,,,,,,,,,,,,,,,,,,,,,,,,,,,,,,,,,,,,,,,,,,,,,,,,,,,118,001,2010-10-16_11h27.03.568,eb_01,2022.2.4,119.99645035503994,
5,stimuli/5.png,s,1,0,1,0,21,0,21,0,0,0,0,0,,,,,,,,,,,,,,,,,,276.58211511932313,276.58211511932313,276.58211511932313,276.58211511932313,s,1,0.9853675387857947,277.59060976604815,277.59060976604815,277.59060976604815,,,,,,,,,,,,,,,,,,,,,,,,,,,,118,001,2010-10-16_11h27.03.568,eb_01,2022.2.4,119.99645035503994,
,,,1,0,1,0,21,0,21,0,,,,,,,,,,,,,,,,,,,,,,,,,,,,,,,,,,,,,,,,,,,,,,,,,,,,,,,,,,,118,001,2010-10-16_11h27.03.568,eb_01,2022.2.4,119.99645035503994,
9,stimuli/9.png,l,1,0,1,0,22,0,22,0,0,0,0,0,,,,,,,,,,,,,,,,,,278.6073216598015,278.6073216598015,278.6073216598015,278.6073216598015,l,1,0.6881674941105302,279.324013329664,279.324013329664,279.324013329664,,,,,,,,,,,,,,,,,,,,,,,,,,,,118,001,2010-10-16_11h27.03.568,eb_01,2022.2.4,119.99645035503994,
,,,1,0,1,0,22,0,22,0,,,,,,,,,,,,,,,,,,,,,,,,,,,,,,,,,,,,,,,,,,,,,,,,,,,,,,,,,,,118,001,2010-10-16_11h27.03.568,eb_01,2022.2.4,119.99645035503994,
8,stimuli/8.png,l,1,0,1,0,23,0,23,0,0,0,0,0,,,,,,,,,,,,,,,,,,280.33245243606507,280.33245243606507,280.33245243606507,280.33245243606507,l,1,0.8030586321256123,281.1575201258238,281.1575201258238,281.1575201258238,,,,,,,,,,,,,,,,,,,,,,,,,,,,118,001,2010-10-16_11h27.03.568,eb_01,2022.2.4,119.99645035503994,
,,,1,0,1,0,23,0,23,0,,,,,,,,,,,,,,,,,,,,,,,,,,,,,,,,,,,,,,,,,,,,,,,,,,,,,,,,,,,118,001,2010-10-16_11h27.03.568,eb_01,2022.2.4,119.99645035503994,
9,stimuli/9.png,l,1,0,1,0,24,0,24,0,0,0,0,0,,,,,,,,,,,,,,,,,,282.1742929931788,282.1742929931788,282.1742929931788,282.1742929931788,l,1,0.6812823085929267,282.88267535186606,282.88267535186606,282.88267535186606,,,,,,,,,,,,,,,,,,,,,,,,,,,,118,001,2010-10-16_11h27.03.568,eb_01,2022.2.4,119.99645035503994,
,,,1,0,1,0,24,0,24,0,,,,,,,,,,,,,,,,,,,,,,,,,,,,,,,,,,,,,,,,,,,,,,,,,,,,,,,,,,,118,001,2010-10-16_11h27.03.568,eb_01,2022.2.4,119.99645035503994,
8,stimuli/8.png,l,1,0,1,0,25,0,25,0,0,0,0,0,,,,,,,,,,,,,,,,,,283.8827728492324,283.8827728492324,283.8827728492324,283.8827728492324,l,1,0.50880614714697,284.41615196308703,284.41615196308703,284.41615196308703,,,,,,,,,,,,,,,,,,,,,,,,,,,,118,001,2010-10-16_11h27.03.568,eb_01,2022.2.4,119.99645035503994,
,,,1,0,1,0,25,0,25,0,,,,,,,,,,,,,,,,,,,,,,,,,,,,,,,,,,,,,,,,,,,,,,,,,,,,,,,,,,,118,001,2010-10-16_11h27.03.568,eb_01,2022.2.4,119.99645035503994,
6,stimuli/6.png,s,1,0,1,0,26,0,26,0,0,0,0,0,,,,,,,,,,,,,,,,,,285.44125104515115,285.44125104515115,285.44125104515115,285.44125104515115,s,1,0.9663893594697583,286.4329562227649,286.4329562227649,286.4329562227649,,,,,,,,,,,,,,,,,,,,,,,,,,,,118,001,2010-10-16_11h27.03.568,eb_01,2022.2.4,119.99645035503994,
,,,1,0,1,0,26,0,26,0,,,,,,,,,,,,,,,,,,,,,,,,,,,,,,,,,,,,,,,,,,,,,,,,,,,,,,,,,,,118,001,2010-10-16_11h27.03.568,eb_01,2022.2.4,119.99645035503994,
5,stimuli/5.png,s,1,0,1,0,27,0,27,0,0,0,0,0,,,,,,,,,,,,,,,,,,287.43305975713884,287.43305975713884,287.43305975713884,287.43305975713884,s,1,0.8226003643358126,288.274788629933,288.274788629933,288.274788629933,,,,,,,,,,,,,,,,,,,,,,,,,,,,118,001,2010-10-16_11h27.03.568,eb_01,2022.2.4,119.99645035503994,
,,,1,0,1,0,27,0,27,0,,,,,,,,,,,,,,,,,,,,,,,,,,,,,,,,,,,,,,,,,,,,,,,,,,,,,,,,,,,118,001,2010-10-16_11h27.03.568,eb_01,2022.2.4,119.99645035503994,
9,stimuli/9.png,l,1,0,1,0,28,0,28,0,0,0,0,0,,,,,,,,,,,,,,,,,,289.29156572319334,289.29156572319334,289.29156572319334,289.29156572319334,l,1,0.7161419939075131,290.0332976144855,290.0332976144855,290.0332976144855,,,,,,,,,,,,,,,,,,,,,,,,,,,,118,001,2010-10-16_11h27.03.568,eb_01,2022.2.4,119.99645035503994,
,,,1,0,1,0,28,0,28,0,,,,,,,,,,,,,,,,,,,,,,,,,,,,,,,,,,,,,,,,,,,,,,,,,,,,,,,,,,,118,001,2010-10-16_11h27.03.568,eb_01,2022.2.4,119.99645035503994,
5,stimuli/5.png,s,1,0,1,0,29,0,29,0,0,0,0,0,,,,,,,,,,,,,,,,,,291.0333887730085,291.0333887730085,291.0333887730085,291.0333887730085,s,1,1.3743609011289664,292.42518088326324,292.42518088326324,292.42518088326324,,,,,,,,,,,,,,,,,,,,,,,,,,,,118,001,2010-10-16_11h27.03.568,eb_01,2022.2.4,119.99645035503994,
,,,1,0,1,0,29,0,29,0,,,,,,,,,,,,,,,,,,,,,,,,,,,,,,,,,,,,,,,,,,,,,,,,,,,,,,,,,,,118,001,2010-10-16_11h27.03.568,eb_01,2022.2.4,119.99645035503994,
9,stimuli/9.png,l,1,0,1,0,30,0,30,0,0,0,0,0,,,,,,,,,,,,,,,,,,293.4419241693977,293.4419241693977,293.4419241693977,293.4419241693977,l,1,1.0288646455737762,294.5003441083536,294.5003441083536,294.5003441083536,,,,,,,,,,,,,,,,,,,,,,,,,,,,118,001,2010-10-16_11h27.03.568,eb_01,2022.2.4,119.99645035503994,
,,,1,0,1,0,30,0,30,0,,,,,,,,,,,,,,,,,,,,,,,,,,,,,,,,,,,,,,,,,,,,,,,,,,,,,,,,,,,118,001,2010-10-16_11h27.03.568,eb_01,2022.2.4,119.99645035503994,
8,stimuli/8.png,l,1,0,1,0,31,0,31,0,0,0,0,0,,,,,,,,,,,,,,,,,,295.50043375763926,295.50043375763926,295.50043375763926,295.50043375763926,l,1,0.8584401547268499,296.3754729226057,296.3754729226057,296.3754729226057,,,,,,,,,,,,,,,,,,,,,,,,,,,,118,001,2010-10-16_11h27.03.568,eb_01,2022.2.4,119.99645035503994,
,,,1,0,1,0,31,0,31,0,,,,,,,,,,,,,,,,,,,,,,,,,,,,,,,,,,,,,,,,,,,,,,,,,,,,,,,,,,,118,001,2010-10-16_11h27.03.568,eb_01,2022.2.4,119.99645035503994,
3,stimuli/3.png,l,1,0,1,0,32,0,32,0,0,0,0,0,,,,,,,,,,,,,,,,,,297.3839310455078,297.3839310455078,297.3839310455078,297.3839310455078,l,1,0.5589246230374556,297.9589542124595,297.9589542124595,297.9589542124595,298.9757297964534,298.9757297964534,298.9757297964534,,,,,,,,,,,,,,,,,,,,,,,,,118,001,2010-10-16_11h27.03.568,eb_01,2022.2.4,119.99645035503994,
,,,1,0,1,0,32,0,32,0,,,,,,,,,,,,,,,,,,,,,,,,,,,,,,,,,,,,,,,,,,,,,,,,,,,,,,,,,,,118,001,2010-10-16_11h27.03.568,eb_01,2022.2.4,119.99645035503994,
4,stimuli/4.png,l,1,0,1,0,33,0,33,0,0,0,0,0,,,,,,,,,,,,,,,,,,298.9757297964534,298.9757297964534,298.9757297964534,298.9757297964534,l,1,0.4151697368652094,299.4090618217888,299.4090618217888,299.4090618217888,,,,,,,,,,,,,,,,,,,,,,,,,,,,118,001,2010-10-16_11h27.03.568,eb_01,2022.2.4,119.99645035503994,
,,,1,0,1,0,33,0,33,0,,,,,,,,,,,,,,,,,,,,,,,,,,,,,,,,,,,,,,,,,,,,,,,,,,,,,,,,,,,118,001,2010-10-16_11h27.03.568,eb_01,2022.2.4,119.99645035503994,
3,stimuli/3.png,l,1,0,1,0,34,0,34,0,0,0,0,0,,,,,,,,,,,,,,,,,,300.4175093799713,300.4175093799713,300.4175093799713,300.4175093799713,l,1,1.2534297560050618,301.6842712298385,301.6842712298385,301.6842712298385,302.6927130528784,302.6927130528784,302.6927130528784,,,,,,,,,,,,,,,,,,,,,,,,,118,001,2010-10-16_11h27.03.568,eb_01,2022.2.4,119.99645035503994,
,,,1,0,1,0,34,0,34,0,,,,,,,,,,,,,,,,,,,,,,,,,,,,,,,,,,,,,,,,,,,,,,,,,,,,,,,,,,,118,001,2010-10-16_11h27.03.568,eb_01,2022.2.4,119.99645035503994,
2,stimuli/2.png,s,1,0,1,0,35,0,35,0,0,0,0,0,,,,,,,,,,,,,,,,,,302.6927130528784,302.6927130528784,302.6927130528784,302.6927130528784,s,1,0.9622585500474088,303.667765801074,303.667765801074,303.667765801074,304.6845537608897,304.6845537608897,304.6845537608897,,,,,,,,,,,,,,,,,,,,,,,,,118,001,2010-10-16_11h27.03.568,eb_01,2022.2.4,119.99645035503994,
,,,1,0,1,0,35,0,35,0,,,,,,,,,,,,,,,,,,,,,,,,,,,,,,,,,,,,,,,,,,,,,,,,,,,,,,,,,,,118,001,2010-10-16_11h27.03.568,eb_01,2022.2.4,119.99645035503994,
4,stimuli/4.png,l,1,0,1,0,36,0,36,0,0,0,0,0,,,,,,,,,,,,,,,,,,304.6845537608897,304.6845537608897,304.6845537608897,304.6845537608897,l,1,0.8024543295614421,305.50958764349343,305.50958764349343,305.50958764349343,,,,,,,,,,,,,,,,,,,,,,,,,,,,118,001,2010-10-16_11h27.03.568,eb_01,2022.2.4,119.99645035503994,
,,,1,0,1,0,36,0,36,0,,,,,,,,,,,,,,,,,,,,,,,,,,,,,,,,,,,,,,,,,,,,,,,,,,,,,,,,,,,118,001,2010-10-16_11h27.03.568,eb_01,2022.2.4,119.99645035503994,
1,stimuli/1.png,s,1,0,1,0,37,0,37,0,0,0,0,0,,,,,,,,,,,,,,,,,,306.53468793295906,306.53468793295906,306.53468793295906,306.53468793295906,s,1,1.32039082646952,307.88480489962967,307.88480489962967,307.88480489962967,,,,,,,,,,,,,,,,,,,,,,,,,,,,118,001,2010-10-16_11h27.03.568,eb_01,2022.2.4,119.99645035503994,
,,,1,0,1,0,37,0,37,0,,,,,,,,,,,,,,,,,,,,,,,,,,,,,,,,,,,,,,,,,,,,,,,,,,,,,,,,,,,118,001,2010-10-16_11h27.03.568,eb_01,2022.2.4,119.99645035503994,
4,stimuli/4.png,l,1,0,1,0,38,0,38,0,0,0,0,0,,,,,,,,,,,,,,,,,,308.89327690762,308.89327690762,308.89327690762,308.89327690762,l,1,1.192843745520804,310.11001506229513,310.11001506229513,310.11001506229513,,,,,,,,,,,,,,,,,,,,,,,,,,,,118,001,2010-10-16_11h27.03.568,eb_01,2022.2.4,119.99645035503994,
,,,1,0,1,0,38,0,38,0,,,,,,,,,,,,,,,,,,,,,,,,,,,,,,,,,,,,,,,,,,,,,,,,,,,,,,,,,,,118,001,2010-10-16_11h27.03.568,eb_01,2022.2.4,119.99645035503994,
2,stimuli/2.png,s,1,0,1,0,39,0,39,0,0,0,0,0,,,,,,,,,,,,,,,,,,311.1184321336914,311.1184321336914,311.1184321336914,311.1184321336914,s,1,1.3277188251086045,312.4602083968348,312.4602083968348,312.4602083968348,313.47693327013985,313.47693327013985,313.47693327013985,,,,,,,,,,,,,,,,,,,,,,,,,118,001,2010-10-16_11h27.03.568,eb_01,2022.2.4,119.99645035503994,
,,,1,0,1,0,39,0,39,0,,,,,,,,,,,,,,,,,,,,,,,,,,,,,,,,,,,,,,,,,,,,,,,,,,,,,,,,,,,118,001,2010-10-16_11h27.03.568,eb_01,2022.2.4,119.99645035503994,
4,stimuli/4.png,l,1,0,1,0,40,0,40,0,0,0,0,0,,,,,,,,,,,,,,,,,,313.47693327013985,313.47693327013985,313.47693327013985,313.47693327013985,l,1,1.1053040900442284,314.6020568020176,314.6020568020176,314.6020568020176,,,,,,,,,,,,,,,,,,,,,,,,,,,,118,001,2010-10-16_11h27.03.568,eb_01,2022.2.4,119.99645035503994,
,,,1,0,1,0,40,0,40,0,,,,,,,,,,,,,,,,,,,,,,,,,,,,,,,,,,,,,,,,,,,,,,,,,,,,,,,,,,,118,001,2010-10-16_11h27.03.568,eb_01,2022.2.4,119.99645035503994,
2,stimuli/2.png,s,1,0,1,0,41,0,41,0,0,0,0,0,,,,,,,,,,,,,,,,,,315.6104488199053,315.6104488199053,315.6104488199053,315.6104488199053,s,1,1.0677887334604748,316.69392286540824,316.69392286540824,316.69392286540824,317.70233178685885,317.70233178685885,317.70233178685885,,,,,,,,,,,,,,,,,,,,,,,,,118,001,2010-10-16_11h27.03.568,eb_01,2022.2.4,119.99645035503994,
,,,1,0,1,0,41,0,41,0,,,,,,,,,,,,,,,,,,,,,,,,,,,,,,,,,,,,,,,,,,,,,,,,,,,,,,,,,,,118,001,2010-10-16_11h27.03.568,eb_01,2022.2.4,119.99645035503994,
3,stimuli/3.png,l,1,0,1,0,42,0,42,0,0,0,0,0,,,,,,,,,,,,,,,,,,317.70233178685885,317.70233178685885,317.70233178685885,317.70233178685885,l,1,0.7759576846437994,318.4940306256467,318.4940306256467,318.4940306256467,319.50249146521674,319.50249146521674,319.50249146521674,,,,,,,,,,,,,,,,,,,,,,,,,118,001,2010-10-16_11h27.03.568,eb_01,2022.2.4,119.99645035503994,
,,,1,0,1,0,42,0,42,0,,,,,,,,,,,,,,,,,,,,,,,,,,,,,,,,,,,,,,,,,,,,,,,,,,,,,,,,,,,118,001,2010-10-16_11h27.03.568,eb_01,2022.2.4,119.99645035503994,
8,stimuli/8.png,l,1,0,1,0,43,0,43,0,0,0,0,0,,,,,,,,,,,,,,,,,,319.50249146521674,319.50249146521674,319.50249146521674,319.50249146521674,l,1,0.5438134368159808,320.069198680314,320.069198680314,320.069198680314,,,,,,,,,,,,,,,,,,,,,,,,,,,,118,001,2010-10-16_11h27.03.568,eb_01,2022.2.4,119.99645035503994,
,,,1,0,1,0,43,0,43,0,,,,,,,,,,,,,,,,,,,,,,,,,,,,,,,,,,,,,,,,,,,,,,,,,,,,,,,,,,,118,001,2010-10-16_11h27.03.568,eb_01,2022.2.4,119.99645035503994,
3,stimuli/3.png,l,1,0,1,0,44,0,44,0,0,0,0,0,,,,,,,,,,,,,,,,,,321.0775822464202,321.0775822464202,321.0775822464202,321.0775822464202,l,1,0.42478183016646653,321.5109601528675,321.5109601528675,321.5109601528675,322.5194131443277,322.5194131443277,322.5194131443277,,,,,,,,,,,,,,,,,,,,,,,,,118,001,2010-10-16_11h27.03.568,eb_01,2022.2.4,119.99645035503994,
,,,1,0,1,0,44,0,44,0,,,,,,,,,,,,,,,,,,,,,,,,,,,,,,,,,,,,,,,,,,,,,,,,,,,,,,,,,,,118,001,2010-10-16_11h27.03.568,eb_01,2022.2.4,119.99645035503994,
8,stimuli/8.png,l,1,0,1,0,45,0,45,0,0,0,0,0,,,,,,,,,,,,,,,,,,322.5194131443277,322.5194131443277,322.5194131443277,322.5194131443277,l,1,0.49499110237229615,323.03609606056125,323.03609606056125,323.03609606056125,,,,,,,,,,,,,,,,,,,,,,,,,,,,118,001,2010-10-16_11h27.03.568,eb_01,2022.2.4,119.99645035503994,
,,,1,0,1,0,45,0,45,0,,,,,,,,,,,,,,,,,,,,,,,,,,,,,,,,,,,,,,,,,,,,,,,,,,,,,,,,,,,118,001,2010-10-16_11h27.03.568,eb_01,2022.2.4,119.99645035503994,
9,stimuli/9.png,l,1,0,1,0,46,0,46,0,0,0,0,0,,,,,,,,,,,,,,,,,,324.05287104085437,324.05287104085437,324.05287104085437,324.05287104085437,l,1,0.5125309691065922,324.5945721435128,324.5945721435128,324.5945721435128,,,,,,,,,,,,,,,,,,,,,,,,,,,,118,001,2010-10-16_11h27.03.568,eb_01,2022.2.4,119.99645035503994,
,,,1,0,1,0,46,0,46,0,,,,,,,,,,,,,,,,,,,,,,,,,,,,,,,,,,,,,,,,,,,,,,,,,,,,,,,,,,,118,001,2010-10-16_11h27.03.568,eb_01,2022.2.4,119.99645035503994,
8,stimuli/8.png,l,1,0,1,0,47,0,47,0,0,0,0,0,,,,,,,,,,,,,,,,,,325.59463764485554,325.59463764485554,325.59463764485554,325.59463764485554,l,1,0.43478813880938105,326.05305335792946,326.05305335792946,326.05305335792946,,,,,,,,,,,,,,,,,,,,,,,,,,,,118,001,2010-10-16_11h27.03.568,eb_01,2022.2.4,119.99645035503994,
,,,1,0,1,0,47,0,47,0,,,,,,,,,,,,,,,,,,,,,,,,,,,,,,,,,,,,,,,,,,,,,,,,,,,,,,,,,,,118,001,2010-10-16_11h27.03.568,eb_01,2022.2.4,119.99645035503994,
9,stimuli/9.png,l,1,0,1,0,48,0,48,0,0,0,0,0,,,,,,,,,,,,,,,,,,327.06976223320817,327.06976223320817,327.06976223320817,327.06976223320817,l,1,0.47970514532062225,327.57813674383215,327.57813674383215,327.57813674383215,,,,,,,,,,,,,,,,,,,,,,,,,,,,118,001,2010-10-16_11h27.03.568,eb_01,2022.2.4,119.99645035503994,
,,,1,0,1,0,48,0,48,0,,,,,,,,,,,,,,,,,,,,,,,,,,,,,,,,,,,,,,,,,,,,,,,,,,,,,,,,,,,118,001,2010-10-16_11h27.03.568,eb_01,2022.2.4,119.99645035503994,
8,stimuli/8.png,l,1,0,1,0,49,0,49,0,0,0,0,0,,,,,,,,,,,,,,,,,,328.5782254875521,328.5782254875521,328.5782254875521,328.5782254875521,l,1,0.3712590963987168,328.96995903903735,328.96995903903735,328.96995903903735,,,,,,,,,,,,,,,,,,,,,,,,,,,,118,001,2010-10-16_11h27.03.568,eb_01,2022.2.4,119.99645035503994,
,,,1,0,1,0,49,0,49,0,,,,,,,,,,,,,,,,,,,,,,,,,,,,,,,,,,,,,,,,,,,,,,,,,,,,,,,,,,,118,001,2010-10-16_11h27.03.568,eb_01,2022.2.4,119.99645035503994,
6,stimuli/6.png,s,1,0,1,0,50,0,50,0,0,0,0,0,,,,,,,,,,,,,,,,,,329.99500952335075,329.99500952335075,329.99500952335075,329.99500952335075,s,1,0.9945268579467665,331.0201200757001,331.0201200757001,331.0201200757001,,,,,,,,,,,,,,,,,,,,,,,,,,,,118,001,2010-10-16_11h27.03.568,eb_01,2022.2.4,119.99645035503994,
,,,1,0,1,0,50,0,50,0,,,,,,,,,,,,,,,,,,,,,,,,,,,,,,,,,,,,,,,,,,,,,,,,,,,,,,,,,,,118,001,2010-10-16_11h27.03.568,eb_01,2022.2.4,119.99645035503994,
8,stimuli/8.png,l,1,0,1,0,51,0,51,0,0,0,0,0,,,,,,,,,,,,,,,,,,332.020218780468,332.020218780468,332.020218780468,332.020218780468,l,1,1.1373541608336382,333.17864203976933,333.17864203976933,333.17864203976933,,,,,,,,,,,,,,,,,,,,,,,,,,,,118,001,2010-10-16_11h27.03.568,eb_01,2022.2.4,119.99645035503994,
,,,1,0,1,0,51,0,51,0,,,,,,,,,,,,,,,,,,,,,,,,,,,,,,,,,,,,,,,,,,,,,,,,,,,,,,,,,,,118,001,2010-10-16_11h27.03.568,eb_01,2022.2.4,119.99645035503994,
3,stimuli/3.png,l,1,0,1,0,52,0,52,0,0,0,0,0,,,,,,,,,,,,,,,,,,334.1870361706242,334.1870361706242,334.1870361706242,334.1870361706242,l,1,0.5785602304385975,334.77877847570926,334.77877847570926,334.77877847570926,335.7955395709432,335.7955395709432,335.7955395709432,,,,,,,,,,,,,,,,,,,,,,,,,118,001,2010-10-16_11h27.03.568,eb_01,2022.2.4,119.99645035503994,
,,,1,0,1,0,52,0,52,0,,,,,,,,,,,,,,,,,,,,,,,,,,,,,,,,,,,,,,,,,,,,,,,,,,,,,,,,,,,118,001,2010-10-16_11h27.03.568,eb_01,2022.2.4,119.99645035503994,
4,stimuli/4.png,l,1,0,1,0,53,0,53,0,0,0,0,0,,,,,,,,,,,,,,,,,,335.7955395709432,335.7955395709432,335.7955395709432,335.7955395709432,l,1,1.8341307107475586,337.65404704626417,337.65404704626417,337.65404704626417,,,,,,,,,,,,,,,,,,,,,,,,,,,,118,001,2010-10-16_11h27.03.568,eb_01,2022.2.4,119.99645035503994,
,,,1,0,1,0,53,0,53,0,,,,,,,,,,,,,,,,,,,,,,,,,,,,,,,,,,,,,,,,,,,,,,,,,,,,,,,,,,,118,001,2010-10-16_11h27.03.568,eb_01,2022.2.4,119.99645035503994,
1,stimuli/1.png,s,1,0,1,0,54,0,54,0,0,0,0,0,,,,,,,,,,,,,,,,,,338.679103567556,338.679103567556,338.679103567556,338.679103567556,s,1,1.5816511686134618,340.28755746458774,340.28755746458774,340.28755746458774,,,,,,,,,,,,,,,,,,,,,,,,,,,,118,001,2010-10-16_11h27.03.568,eb_01,2022.2.4,119.99645035503994,
,,,1,0,1,0,54,0,54,0,,,,,,,,,,,,,,,,,,,,,,,,,,,,,,,,,,,,,,,,,,,,,,,,,,,,,,,,,,,118,001,2010-10-16_11h27.03.568,eb_01,2022.2.4,119.99645035503994,
4,stimuli/4.png,l,1,0,1,0,55,0,55,0,0,0,0,0,,,,,,,,,,,,,,,,,,341.2959932506492,341.2959932506492,341.2959932506492,341.2959932506492,l,1,1.0127413581940345,342.329433941748,342.329433941748,342.329433941748,,,,,,,,,,,,,,,,,,,,,,,,,,,,118,001,2010-10-16_11h27.03.568,eb_01,2022.2.4,119.99645035503994,
,,,1,0,1,0,55,0,55,0,,,,,,,,,,,,,,,,,,,,,,,,,,,,,,,,,,,,,,,,,,,,,,,,,,,,,,,,,,,118,001,2010-10-16_11h27.03.568,eb_01,2022.2.4,119.99645035503994,
2,stimuli/2.png,s,1,0,1,0,56,0,56,0,0,0,0,0,,,,,,,,,,,,,,,,,,343.33784648540313,343.33784648540313,343.33784648540313,343.33784648540313,s,1,1.2909487347642425,344.6379400587466,344.6379400587466,344.6379400587466,345.66306238321704,345.66306238321704,345.66306238321704,,,,,,,,,,,,,,,,,,,,,,,,,118,001,2010-10-16_11h27.03.568,eb_01,2022.2.4,119.99645035503994,
,,,1,0,1,0,56,0,56,0,,,,,,,,,,,,,,,,,,,,,,,,,,,,,,,,,,,,,,,,,,,,,,,,,,,,,,,,,,,118,001,2010-10-16_11h27.03.568,eb_01,2022.2.4,119.99645035503994,
1,stimuli/1.png,s,1,0,1,0,57,0,57,0,0,0,0,0,,,,,,,,,,,,,,,,,,345.66306238321704,345.66306238321704,345.66306238321704,345.66306238321704,s,1,1.677808927197475,347.3715153746889,347.3715153746889,347.3715153746889,,,,,,,,,,,,,,,,,,,,,,,,,,,,118,001,2010-10-16_11h27.03.568,eb_01,2022.2.4,119.99645035503994,
,,,1,0,1,0,57,0,57,0,,,,,,,,,,,,,,,,,,,,,,,,,,,,,,,,,,,,,,,,,,,,,,,,,,,,,,,,,,,118,001,2010-10-16_11h27.03.568,eb_01,2022.2.4,119.99645035503994,
4,stimuli/4.png,l,1,0,1,0,58,0,58,0,0,0,0,0,,,,,,,,,,,,,,,,,,348.3799596125318,348.3799596125318,348.3799596125318,348.3799596125318,l,1,1.0569318131019827,349.4550337920373,349.4550337920373,349.4550337920373,,,,,,,,,,,,,,,,,,,,,,,,,,,,118,001,2010-10-16_11h27.03.568,eb_01,2022.2.4,119.99645035503994,
,,,1,0,1,0,58,0,58,0,,,,,,,,,,,,,,,,,,,,,,,,,,,,,,,,,,,,,,,,,,,,,,,,,,,,,,,,,,,118,001,2010-10-16_11h27.03.568,eb_01,2022.2.4,119.99645035503994,
1,stimuli/1.png,s,1,0,1,0,59,0,59,0,0,0,0,0,,,,,,,,,,,,,,,,,,350.48014977769344,350.48014977769344,350.48014977769344,350.48014977769344,s,1,0.9648164221143816,351.47186310525285,351.47186310525285,351.47186310525285,,,,,,,,,,,,,,,,,,,,,,,,,,,,118,001,2010-10-16_11h27.03.568,eb_01,2022.2.4,119.99645035503994,
,,,1,0,1,0,59,0,59,0,,,,,,,,,,,,,,,,,,,,,,,,,,,,,,,,,,,,,,,,,,,,,,,,,,,,,,,,,,,118,001,2010-10-16_11h27.03.568,eb_01,2022.2.4,119.99645035503994,
4,stimuli/4.png,l,1,0,1,0,60,0,60,0,0,0,0,0,,,,,,,,,,,,,,,,,,352.48030070241657,352.48030070241657,352.48030070241657,352.48030070241657,l,1,1.1167272799357306,353.61374320462346,353.61374320462346,353.61374320462346,,,,,,,,,,,,,,,,,,,,,,,,,,,,118,001,2010-10-16_11h27.03.568,eb_01,2022.2.4,119.99645035503994,
,,,1,0,1,0,60,0,60,0,,,,,,,,,,,,,,,,,,,,,,,,,,,,,,,,,,,,,,,,,,,,,,,,,,,,,,,,,,,118,001,2010-10-16_11h27.03.568,eb_01,2022.2.4,119.99645035503994,
2,stimuli/2.png,s,1,0,1,0,61,0,61,0,0,0,0,0,,,,,,,,,,,,,,,,,,354.6221246577916,354.6221246577916,354.6221246577916,354.6221246577916,s,1,0.8859138862462714,355.5222097793303,355.5222097793303,355.5222097793303,356.54731701134006,356.54731701134006,356.54731701134006,,,,,,,,,,,,,,,,,,,,,,,,,118,001,2010-10-16_11h27.03.568,eb_01,2022.2.4,119.99645035503994,
,,,1,0,1,0,61,0,61,0,,,,,,,,,,,,,,,,,,,,,,,,,,,,,,,,,,,,,,,,,,,,,,,,,,,,,,,,,,,118,001,2010-10-16_11h27.03.568,eb_01,2022.2.4,119.99645035503994,
1,stimuli/1.png,s,1,0,1,0,62,0,62,0,0,0,0,0,,,,,,,,,,,,,,,,,,356.54731701134006,356.54731701134006,356.54731701134006,356.54731701134006,s,1,0.9527336911996827,357.5307442701305,357.5307442701305,357.5307442701305,,,,,,,,,,,,,,,,,,,,,,,,,,,,118,001,2010-10-16_11h27.03.568,eb_01,2022.2.4,119.99645035503994,
,,,1,0,1,0,62,0,62,0,,,,,,,,,,,,,,,,,,,,,,,,,,,,,,,,,,,,,,,,,,,,,,,,,,,,,,,,,,,118,001,2010-10-16_11h27.03.568,eb_01,2022.2.4,119.99645035503994,
2,stimuli/2.png,s,1,0,1,0,63,0,63,0,0,0,0,0,,,,,,,,,,,,,,,,,,358.530798603053,358.530798603053,358.530798603053,358.530798603053,s,1,0.6813037398969755,359.2225445303484,359.2225445303484,359.2225445303484,360.2392790628073,360.2392790628073,360.2392790628073,,,,,,,,,,,,,,,,,,,,,,,,,118,001,2010-10-16_11h27.03.568,eb_01,2022.2.4,119.99645035503994,
,,,1,0,1,0,63,0,63,0,,,,,,,,,,,,,,,,,,,,,,,,,,,,,,,,,,,,,,,,,,,,,,,,,,,,,,,,,,,118,001,2010-10-16_11h27.03.568,eb_01,2022.2.4,119.99645035503994,
4,stimuli/4.png,l,1,0,1,0,64,0,64,0,0,0,0,0,,,,,,,,,,,,,,,,,,360.2392790628073,360.2392790628073,360.2392790628073,360.2392790628073,l,1,1.3888677848153748,361.647731752455,361.647731752455,361.647731752455,,,,,,,,,,,,,,,,,,,,,,,,,,,,118,001,2010-10-16_11h27.03.568,eb_01,2022.2.4,119.99645035503994,
,,,1,0,1,0,64,0,64,0,,,,,,,,,,,,,,,,,,,,,,,,,,,,,,,,,,,,,,,,,,,,,,,,,,,,,,,,,,,118,001,2010-10-16_11h27.03.568,eb_01,2022.2.4,119.99645035503994,
2,stimuli/2.png,s,1,0,1,0,65,0,65,0,0,0,0,0,,,,,,,,,,,,,,,,,,362.65616965145455,362.65616965145455,362.65616965145455,362.65616965145455,s,1,1.628015844966285,364.297989984625,364.297989984625,364.297989984625,365.3147423262417,365.3147423262417,365.3147423262417,,,,,,,,,,,,,,,,,,,,,,,,,118,001,2010-10-16_11h27.03.568,eb_01,2022.2.4,119.99645035503994,
,,,1,0,1,0,65,0,65,0,,,,,,,,,,,,,,,,,,,,,,,,,,,,,,,,,,,,,,,,,,,,,,,,,,,,,,,,,,,118,001,2010-10-16_11h27.03.568,eb_01,2022.2.4,119.99645035503994,
4,stimuli/4.png,l,1,0,1,0,66,0,66,0,0,0,0,0,,,,,,,,,,,,,,,,,,365.3147423262417,365.3147423262417,365.3147423262417,365.3147423262417,l,1,0.7615658055874519,366.09813034461695,366.09813034461695,366.09813034461695,,,,,,,,,,,,,,,,,,,,,,,,,,,,118,001,2010-10-16_11h27.03.568,eb_01,2022.2.4,119.99645035503994,
,,,1,0,1,0,66,0,66,0,,,,,,,,,,,,,,,,,,,,,,,,,,,,,,,,,,,,,,,,,,,,,,,,,,,,,,,,,,,118,001,2010-10-16_11h27.03.568,eb_01,2022.2.4,119.99645035503994,
2,stimuli/2.png,s,1,0,1,0,67,0,67,0,0,0,0,0,,,,,,,,,,,,,,,,,,367.10655134005356,367.10655134005356,367.10655134005356,367.10655134005356,s,1,0.41771764791337773,367.5399213984201,367.5399213984201,367.5399213984201,368.55664144211914,368.55664144211914,368.55664144211914,,,,,,,,,,,,,,,,,,,,,,,,,118,001,2010-10-16_11h27.03.568,eb_01,2022.2.4,119.99645035503994,
,,,1,0,1,0,67,0,67,0,,,,,,,,,,,,,,,,,,,,,,,,,,,,,,,,,,,,,,,,,,,,,,,,,,,,,,,,,,,118,001,2010-10-16_11h27.03.568,eb_01,2022.2.4,119.99645035503994,
4,stimuli/4.png,l,1,0,1,0,68,0,68,0,0,0,0,0,,,,,,,,,,,,,,,,,,368.55664144211914,368.55664144211914,368.55664144211914,368.55664144211914,l,1,0.39967339075519703,368.9733798986417,368.9733798986417,368.9733798986417,,,,,,,,,,,,,,,,,,,,,,,,,,,,118,001,2010-10-16_11h27.03.568,eb_01,2022.2.4,119.99645035503994,
,,,1,0,1,0,68,0,68,0,,,,,,,,,,,,,,,,,,,,,,,,,,,,,,,,,,,,,,,,,,,,,,,,,,,,,,,,,,,118,001,2010-10-16_11h27.03.568,eb_01,2022.2.4,119.99645035503994,
2,stimuli/2.png,s,1,0,1,0,69,0,69,0,0,0,0,0,,,,,,,,,,,,,,,,,,369.9817930459976,369.9817930459976,369.9817930459976,369.9817930459976,s,1,0.4465234410308767,370.4401686131023,370.4401686131023,370.4401686131023,371.465261356323,371.465261356323,371.465261356323,,,,,,,,,,,,,,,,,,,,,,,,,118,001,2010-10-16_11h27.03.568,eb_01,2022.2.4,119.99645035503994,
,,,1,0,1,0,69,0,69,0,,,,,,,,,,,,,,,,,,,,,,,,,,,,,,,,,,,,,,,,,,,,,,,,,,,,,,,,,,,118,001,2010-10-16_11h27.03.568,eb_01,2022.2.4,119.99645035503994,
1,stimuli/1.png,s,1,0,1,0,70,0,70,0,0,0,0,0,,,,,,,,,,,,,,,,,,371.465261356323,371.465261356323,371.465261356323,371.465261356323,s,1,0.7300795895280316,372.2236520159058,372.2236520159058,372.2236520159058,,,,,,,,,,,,,,,,,,,,,,,,,,,,118,001,2010-10-16_11h27.03.568,eb_01,2022.2.4,119.99645035503994,
,,,1,0,1,0,70,0,70,0,,,,,,,,,,,,,,,,,,,,,,,,,,,,,,,,,,,,,,,,,,,,,,,,,,,,,,,,,,,118,001,2010-10-16_11h27.03.568,eb_01,2022.2.4,119.99645035503994,
4,stimuli/4.png,l,1,0,1,0,71,0,71,0,0,0,0,0,,,,,,,,,,,,,,,,,,373.23203920421656,373.23203920421656,373.23203920421656,373.23203920421656,l,1,0.6433510034985375,373.89876060624374,373.89876060624374,373.89876060624374,,,,,,,,,,,,,,,,,,,,,,,,,,,,118,001,2010-10-16_11h27.03.568,eb_01,2022.2.4,119.99645035503994,
,,,1,0,1,0,71,0,71,0,,,,,,,,,,,,,,,,,,,,,,,,,,,,,,,,,,,,,,,,,,,,,,,,,,,,,,,,,,,118,001,2010-10-16_11h27.03.568,eb_01,2022.2.4,119.99645035503994,
1,stimuli/1.png,s,1,0,1,0,72,0,72,0,0,0,0,0,,,,,,,,,,,,,,,,,,374.923897721339,374.923897721339,374.923897721339,374.923897721339,s,1,1.0075389832200017,375.95730460531195,375.95730460531195,375.95730460531195,,,,,,,,,,,,,,,,,,,,,,,,,,,,118,001,2010-10-16_11h27.03.568,eb_01,2022.2.4,119.99645035503994,
,,,1,0,1,0,72,0,72,0,,,,,,,,,,,,,,,,,,,,,,,,,,,,,,,,,,,,,,,,,,,,,,,,,,,,,,,,,,,118,001,2010-10-16_11h27.03.568,eb_01,2022.2.4,119.99645035503994,
2,stimuli/2.png,s,1,0,1,0,73,0,73,0,0,0,0,0,,,,,,,,,,,,,,,,,,376.95739244349534,376.95739244349534,376.95739244349534,376.95739244349534,s,1,0.6540899007231928,377.6240963382588,377.6240963382588,377.6240963382588,378.63254148166743,378.63254148166743,378.63254148166743,,,,,,,,,,,,,,,,,,,,,,,,,118,001,2010-10-16_11h27.03.568,eb_01,2022.2.4,119.99645035503994,
,,,1,0,1,0,73,0,73,0,,,,,,,,,,,,,,,,,,,,,,,,,,,,,,,,,,,,,,,,,,,,,,,,,,,,,,,,,,,118,001,2010-10-16_11h27.03.568,eb_01,2022.2.4,119.99645035503994,
3,stimuli/3.png,l,1,0,1,0,74,0,74,0,0,0,0,0,,,,,,,,,,,,,,,,,,378.63254148166743,378.63254148166743,378.63254148166743,378.63254148166743,l,1,0.5309534436382819,379.174246810202,379.174246810202,379.174246810202,380.1826859166031,380.1826859166031,380.1826859166031,,,,,,,,,,,,,,,,,,,,,,,,,118,001,2010-10-16_11h27.03.568,eb_01,2022.2.4,119.99645035503994,
,,,1,0,1,0,74,0,74,0,,,,,,,,,,,,,,,,,,,,,,,,,,,,,,,,,,,,,,,,,,,,,,,,,,,,,,,,,,,118,001,2010-10-16_11h27.03.568,eb_01,2022.2.4,119.99645035503994,
8,stimuli/8.png,l,1,0,1,0,75,0,75,0,0,0,0,0,,,,,,,,,,,,,,,,,,380.1826859166031,380.1826859166031,380.1826859166031,380.1826859166031,l,1,0.5888397127855569,380.7910299404466,380.7910299404466,380.7910299404466,,,,,,,,,,,,,,,,,,,,,,,,,,,,118,001,2010-10-16_11h27.03.568,eb_01,2022.2.4,119.99645035503994,
,,,1,0,1,0,75,0,75,0,,,,,,,,,,,,,,,,,,,,,,,,,,,,,,,,,,,,,,,,,,,,,,,,,,,,,,,,,,,118,001,2010-10-16_11h27.03.568,eb_01,2022.2.4,119.99645035503994,
3,stimuli/3.png,l,1,0,1,0,76,0,76,0,0,0,0,0,,,,,,,,,,,,,,,,,,381.79944912478095,381.79944912478095,381.79944912478095,381.79944912478095,l,1,0.5001309945073444,382.3161818461667,382.3161818461667,382.3161818461667,,,,,,,,,,,,,,,,,,,,,,,,,,,,118,001,2010-10-16_11h27.03.568,eb_01,2022.2.4,119.99645035503994,
,,,1,0,1,0,76,0,76,0,,,,,,,,,,,,,,,,,,,,,,,,,,,,,,,,,,,,,,,,,,,,,,,,,,,,,,,,,,,118,001,2010-10-16_11h27.03.568,eb_01,2022.2.4,119.99645035503994,
2,stimuli/2.png,s,1,0,1,0,77,0,77,0,0,0,0,0,,,,,,,,,,,,,,,,,,383.3246125007863,383.3246125007863,383.3246125007863,383.3246125007863,s,1,0.6149747421441134,383.9496343094215,383.9496343094215,383.9496343094215,384.95804141976987,384.95804141976987,384.95804141976987,,,,,,,,,,,,,,,,,,,,,,,,,118,001,2010-10-16_11h27.03.568,eb_01,2022.2.4,119.99645035503994,
,,,1,0,1,0,77,0,77,0,,,,,,,,,,,,,,,,,,,,,,,,,,,,,,,,,,,,,,,,,,,,,,,,,,,,,,,,,,,118,001,2010-10-16_11h27.03.568,eb_01,2022.2.4,119.99645035503994,
3,stimuli/3.png,l,1,0,1,0,78,0,78,0,0,0,0,0,,,,,,,,,,,,,,,,,,384.95804141976987,384.95804141976987,384.95804141976987,384.95804141976987,l,1,0.5255681479175109,385.4997953460843,385.4997953460843,385.4997953460843,386.5165428580949,386.5165428580949,386.5165428580949,,,,,,,,,,,,,,,,,,,,,,,,,118,001,2010-10-16_11h27.03.568,eb_01,2022.2.4,119.99645035503994,
,,,1,0,1,0,78,0,78,0,,,,,,,,,,,,,,,,,,,,,,,,,,,,,,,,,,,,,,,,,,,,,,,,,,,,,,,,,,,118,001,2010-10-16_11h27.03.568,eb_01,2022.2.4,119.99645035503994,
4,stimuli/4.png,l,1,0,1,0,79,0,79,0,0,0,0,0,,,,,,,,,,,,,,,,,,386.5165428580949,386.5165428580949,386.5165428580949,386.5165428580949,l,1,0.7511462650727481,387.29160194512224,387.29160194512224,387.29160194512224,,,,,,,,,,,,,,,,,,,,,,,,,,,,118,001,2010-10-16_11h27.03.568,eb_01,2022.2.4,119.99645035503994,
,,,1,0,1,0,79,0,79,0,,,,,,,,,,,,,,,,,,,,,,,,,,,,,,,,,,,,,,,,,,,,,,,,,,,,,,,,,,,118,001,2010-10-16_11h27.03.568,eb_01,2022.2.4,119.99645035503994,
2,stimuli/2.png,s,1,0,1,0,80,0,80,0,0,0,0,0,,,,,,,,,,,,,,,,,,388.300008149934,388.300008149934,388.300008149934,388.300008149934,s,1,0.6066935029812157,388.9167179307551,388.9167179307551,388.9167179307551,389.9251651871018,389.9251651871018,389.9251651871018,,,,,,,,,,,,,,,,,,,,,,,,,118,001,2010-10-16_11h27.03.568,eb_01,2022.2.4,119.99645035503994,
,,,1,0,1,0,80,0,80,0,,,,,,,,,,,,,,,,,,,,,,,,,,,,,,,,,,,,,,,,,,,,,,,,,,,,,,,,,,,118,001,2010-10-16_11h27.03.568,eb_01,2022.2.4,119.99645035503994,
3,stimuli/3.png,l,1,0,1,0,81,0,81,0,0,0,0,0,,,,,,,,,,,,,,,,,,389.9251651871018,389.9251651871018,389.9251651871018,389.9251651871018,l,1,0.9815639341250062,390.916922282835,390.916922282835,390.916922282835,391.9253049433755,391.9253049433755,391.9253049433755,,,,,,,,,,,,,,,,,,,,,,,,,118,001,2010-10-16_11h27.03.568,eb_01,2022.2.4,119.99645035503994,
,,,1,0,1,0,81,0,81,0,,,,,,,,,,,,,,,,,,,,,,,,,,,,,,,,,,,,,,,,,,,,,,,,,,,,,,,,,,,118,001,2010-10-16_11h27.03.568,eb_01,2022.2.4,119.99645035503994,
2,stimuli/2.png,s,1,0,1,0,82,0,82,0,0,0,0,0,,,,,,,,,,,,,,,,,,391.9253049433755,391.9253049433755,391.9253049433755,391.9253049433755,s,1,0.949490017228527,392.88371975091286,392.88371975091286,392.88371975091286,393.89213712414494,393.89213712414494,393.89213712414494,,,,,,,,,,,,,,,,,,,,,,,,,118,001,2010-10-16_11h27.03.568,eb_01,2022.2.4,119.99645035503994,
,,,1,0,1,0,82,0,82,0,,,,,,,,,,,,,,,,,,,,,,,,,,,,,,,,,,,,,,,,,,,,,,,,,,,,,,,,,,,118,001,2010-10-16_11h27.03.568,eb_01,2022.2.4,119.99645035503994,
3,stimuli/3.png,l,1,0,1,0,83,0,83,0,0,0,0,0,,,,,,,,,,,,,,,,,,393.89213712414494,393.89213712414494,393.89213712414494,393.89213712414494,l,1,0.47066566039575264,394.37554627200007,394.37554627200007,394.37554627200007,395.39229891545256,395.39229891545256,395.39229891545256,,,,,,,,,,,,,,,,,,,,,,,,,118,001,2010-10-16_11h27.03.568,eb_01,2022.2.4,119.99645035503994,
,,,1,0,1,0,83,0,83,0,,,,,,,,,,,,,,,,,,,,,,,,,,,,,,,,,,,,,,,,,,,,,,,,,,,,,,,,,,,118,001,2010-10-16_11h27.03.568,eb_01,2022.2.4,119.99645035503994,
4,stimuli/4.png,l,1,0,1,0,84,0,84,0,0,0,0,0,,,,,,,,,,,,,,,,,,395.39229891545256,395.39229891545256,395.39229891545256,395.39229891545256,l,1,2.2025750693283044,397.6174607822031,397.6174607822031,397.6174607822031,,,,,,,,,,,,,,,,,,,,,,,,,,,,118,001,2010-10-16_11h27.03.568,eb_01,2022.2.4,119.99645035503994,
,,,1,0,1,0,84,0,84,0,,,,,,,,,,,,,,,,,,,,,,,,,,,,,,,,,,,,,,,,,,,,,,,,,,,,,,,,,,,118,001,2010-10-16_11h27.03.568,eb_01,2022.2.4,119.99645035503994,
2,stimuli/2.png,s,1,0,1,0,85,0,85,0,0,0,0,0,,,,,,,,,,,,,,,,,,398.62588841834804,398.62588841834804,398.62588841834804,398.62588841834804,s,1,0.5610185525729321,399.2009692385327,399.2009692385327,399.2009692385327,400.2260646983923,400.2260646983923,400.2260646983923,,,,,,,,,,,,,,,,,,,,,,,,,118,001,2010-10-16_11h27.03.568,eb_01,2022.2.4,119.99645035503994,
,,,1,0,1,0,85,0,85,0,,,,,,,,,,,,,,,,,,,,,,,,,,,,,,,,,,,,,,,,,,,,,,,,,,,,,,,,,,,118,001,2010-10-16_11h27.03.568,eb_01,2022.2.4,119.99645035503994,
1,stimuli/1.png,s,1,0,1,0,86,0,86,0,0,0,0,0,,,,,,,,,,,,,,,,,,400.2260646983923,400.2260646983923,400.2260646983923,400.2260646983923,s,1,0.6408906287688296,400.8927688950207,400.8927688950207,400.8927688950207,,,,,,,,,,,,,,,,,,,,,,,,,,,,118,001,2010-10-16_11h27.03.568,eb_01,2022.2.4,119.99645035503994,
,,,1,0,1,0,86,0,86,0,,,,,,,,,,,,,,,,,,,,,,,,,,,,,,,,,,,,,,,,,,,,,,,,,,,,,,,,,,,118,001,2010-10-16_11h27.03.568,eb_01,2022.2.4,119.99645035503994,
4,stimuli/4.png,l,1,0,1,0,87,0,87,0,0,0,0,0,,,,,,,,,,,,,,,,,,401.9011533666635,401.9011533666635,401.9011533666635,401.9011533666635,l,1,0.5568506155977957,402.47623841275345,402.47623841275345,402.47623841275345,,,,,,,,,,,,,,,,,,,,,,,,,,,,118,001,2010-10-16_11h27.03.568,eb_01,2022.2.4,119.99645035503994,
,,,1,0,1,0,87,0,87,0,,,,,,,,,,,,,,,,,,,,,,,,,,,,,,,,,,,,,,,,,,,,,,,,,,,,,,,,,,,118,001,2010-10-16_11h27.03.568,eb_01,2022.2.4,119.99645035503994,
2,stimuli/2.png,s,1,0,1,0,88,0,88,0,0,0,0,0,,,,,,,,,,,,,,,,,,403.48466936923796,403.48466936923796,403.48466936923796,403.48466936923796,s,1,0.6773012164339889,404.1763660950528,404.1763660950528,404.1763660950528,405.1848012774135,405.1848012774135,405.1848012774135,,,,,,,,,,,,,,,,,,,,,,,,,118,001,2010-10-16_11h27.03.568,eb_01,2022.2.4,119.99645035503994,
,,,1,0,1,0,88,0,88,0,,,,,,,,,,,,,,,,,,,,,,,,,,,,,,,,,,,,,,,,,,,,,,,,,,,,,,,,,,,118,001,2010-10-16_11h27.03.568,eb_01,2022.2.4,119.99645035503994,
3,stimuli/3.png,l,1,0,1,0,89,0,89,0,0,0,0,0,,,,,,,,,,,,,,,,,,405.1848012774135,405.1848012774135,405.1848012774135,405.1848012774135,l,1,0.44123503897571936,405.63485244091135,405.63485244091135,405.63485244091135,406.6432574383216,406.6432574383216,406.6432574383216,,,,,,,,,,,,,,,,,,,,,,,,,118,001,2010-10-16_11h27.03.568,eb_01,2022.2.4,119.99645035503994,
,,,1,0,1,0,89,0,89,0,,,,,,,,,,,,,,,,,,,,,,,,,,,,,,,,,,,,,,,,,,,,,,,,,,,,,,,,,,,118,001,2010-10-16_11h27.03.568,eb_01,2022.2.4,119.99645035503994,
2,stimuli/2.png,s,1,0,1,0,90,0,90,0,0,0,0,0,,,,,,,,,,,,,,,,,,406.6432574383216,406.6432574383216,406.6432574383216,406.6432574383216,s,1,0.5748671026085503,407.2266530029592,407.2266530029592,407.2266530029592,408.24339749646606,408.24339749646606,408.24339749646606,,,,,,,,,,,,,,,,,,,,,,,,,118,001,2010-10-16_11h27.03.568,eb_01,2022.2.4,119.99645035503994,
,,,1,0,1,0,90,0,90,0,,,,,,,,,,,,,,,,,,,,,,,,,,,,,,,,,,,,,,,,,,,,,,,,,,,,,,,,,,,118,001,2010-10-16_11h27.03.568,eb_01,2022.2.4,119.99645035503994,
4,stimuli/4.png,l,1,0,1,0,91,0,91,0,0,0,0,0,,,,,,,,,,,,,,,,,,408.24339749646606,408.24339749646606,408.24339749646606,408.24339749646606,l,1,0.4706786398892291,408.73510056114173,408.73510056114173,408.73510056114173,,,,,,,,,,,,,,,,,,,,,,,,,,,,118,001,2010-10-16_11h27.03.568,eb_01,2022.2.4,119.99645035503994,
,,,1,0,1,0,91,0,91,0,,,,,,,,,,,,,,,,,,,,,,,,,,,,,,,,,,,,,,,,,,,,,,,,,,,,,,,,,,,118,001,2010-10-16_11h27.03.568,eb_01,2022.2.4,119.99645035503994,
3,stimuli/3.png,l,1,0,1,0,92,0,92,0,0,0,0,0,,,,,,,,,,,,,,,,,,409.7435076714901,409.7435076714901,409.7435076714901,409.7435076714901,l,1,0.5546600942616351,410.31022605503676,410.31022605503676,410.31022605503676,411.3269418728596,411.3269418728596,411.3269418728596,,,,,,,,,,,,,,,,,,,,,,,,,118,001,2010-10-16_11h27.03.568,eb_01,2022.2.4,119.99645035503994,
,,,1,0,1,0,92,0,92,0,,,,,,,,,,,,,,,,,,,,,,,,,,,,,,,,,,,,,,,,,,,,,,,,,,,,,,,,,,,118,001,2010-10-16_11h27.03.568,eb_01,2022.2.4,119.99645035503994,
4,stimuli/4.png,l,1,0,1,0,93,0,93,0,0,0,0,0,,,,,,,,,,,,,,,,,,411.3269418728596,411.3269418728596,411.3269418728596,411.3269418728596,l,1,0.8272126236115582,412.17703499339405,412.17703499339405,412.17703499339405,,,,,,,,,,,,,,,,,,,,,,,,,,,,118,001,2010-10-16_11h27.03.568,eb_01,2022.2.4,119.99645035503994,
,,,1,0,1,0,93,0,93,0,,,,,,,,,,,,,,,,,,,,,,,,,,,,,,,,,,,,,,,,,,,,,,,,,,,,,,,,,,,118,001,2010-10-16_11h27.03.568,eb_01,2022.2.4,119.99645035503994,
1,stimuli/1.png,s,1,0,1,0,94,0,94,0,0,0,0,0,,,,,,,,,,,,,,,,,,413.2021343773231,413.2021343773231,413.2021343773231,413.2021343773231,s,1,0.7120745727734175,413.94388196480577,413.94388196480577,413.94388196480577,,,,,,,,,,,,,,,,,,,,,,,,,,,,118,001,2010-10-16_11h27.03.568,eb_01,2022.2.4,119.99645035503994,
,,,1,0,1,0,94,0,94,0,,,,,,,,,,,,,,,,,,,,,,,,,,,,,,,,,,,,,,,,,,,,,,,,,,,,,,,,,,,118,001,2010-10-16_11h27.03.568,eb_01,2022.2.4,119.99645035503994,
4,stimuli/4.png,l,1,0,1,0,95,0,95,0,0,0,0,0,,,,,,,,,,,,,,,,,,414.95230175284087,414.95230175284087,414.95230175284087,414.95230175284087,l,1,0.4899272762995679,415.4606451729778,415.4606451729778,415.4606451729778,,,,,,,,,,,,,,,,,,,,,,,,,,,,118,001,2010-10-16_11h27.03.568,eb_01,2022.2.4,119.99645035503994,
,,,1,0,1,0,95,0,95,0,,,,,,,,,,,,,,,,,,,,,,,,,,,,,,,,,,,,,,,,,,,,,,,,,,,,,,,,,,,118,001,2010-10-16_11h27.03.568,eb_01,2022.2.4,119.99645035503994,
3,stimuli/3.png,l,1,0,1,0,96,0,96,0,0,0,0,0,,,,,,,,,,,,,,,,,,416.4690655647137,416.4690655647137,416.4690655647137,416.4690655647137,l,1,0.5571907999110408,417.03582681086846,417.03582681086846,417.03582681086846,418.05253538431134,418.05253538431134,418.05253538431134,,,,,,,,,,,,,,,,,,,,,,,,,118,001,2010-10-16_11h27.03.568,eb_01,2022.2.4,119.99645035503994,
,,,1,0,1,0,96,0,96,0,,,,,,,,,,,,,,,,,,,,,,,,,,,,,,,,,,,,,,,,,,,,,,,,,,,,,,,,,,,118,001,2010-10-16_11h27.03.568,eb_01,2022.2.4,119.99645035503994,
4,stimuli/4.png,l,1,0,1,0,97,0,97,0,0,0,0,0,,,,,,,,,,,,,,,,,,418.05253538431134,418.05253538431134,418.05253538431134,418.05253538431134,l,1,0.9967735232494306,419.06934205879224,419.06934205879224,419.06934205879224,,,,,,,,,,,,,,,,,,,,,,,,,,,,118,001,2010-10-16_11h27.03.568,eb_01,2022.2.4,119.99645035503994,
,,,1,0,1,0,97,0,97,0,,,,,,,,,,,,,,,,,,,,,,,,,,,,,,,,,,,,,,,,,,,,,,,,,,,,,,,,,,,118,001,2010-10-16_11h27.03.568,eb_01,2022.2.4,119.99645035503994,
3,stimuli/3.png,l,1,0,1,0,98,0,98,0,0,0,0,0,,,,,,,,,,,,,,,,,,420.0777407173882,420.0777407173882,420.0777407173882,420.0777407173882,l,1,0.5316045328509063,420.619433670101,420.619433670101,420.619433670101,421.6361884264916,421.6361884264916,421.6361884264916,,,,,,,,,,,,,,,,,,,,,,,,,118,001,2010-10-16_11h27.03.568,eb_01,2022.2.4,119.99645035503994,
,,,1,0,1,0,98,0,98,0,,,,,,,,,,,,,,,,,,,,,,,,,,,,,,,,,,,,,,,,,,,,,,,,,,,,,,,,,,,118,001,2010-10-16_11h27.03.568,eb_01,2022.2.4,119.99645035503994,
4,stimuli/4.png,l,1,0,1,0,99,0,99,0,0,0,0,0,,,,,,,,,,,,,,,,,,421.6361884264916,421.6361884264916,421.6361884264916,421.6361884264916,l,1,0.469183579669334,422.12792680755956,422.12792680755956,422.12792680755956,,,,,,,,,,,,,,,,,,,,,,,,,,,,118,001,2010-10-16_11h27.03.568,eb_01,2022.2.4,119.99645035503994,
,,,1,0,1,0,99,0,99,0,,,,,,,,,,,,,,,,,,,,,,,,,,,,,,,,,,,,,,,,,,,,,,,,,,,,,,,,,,,118,001,2010-10-16_11h27.03.568,eb_01,2022.2.4,119.99645035503994,
,,,1,0,1,0,,,,,,,,,,,,,,,,,,,,,,,,,,,,,,,,,,,,,,,423.1279998551181,423.1279998551181,return,169.04181338247145,,,,,,,,,,,,,,,,,,,,,118,001,2010-10-16_11h27.03.568,eb_01,2022.2.4,119.99645035503994,
2,stimuli/2.png,s,2,0,2,0,0,0,0,0,0,0,0,0,,,,,,,,,,,,,,,,,,592.2007205145783,592.2007205145783,592.2007205145783,592.2007205145783,s,1,1.9691105321107898,594.184243459662,594.184243459662,594.184243459662,595.1926825660921,595.1926825660921,595.1926825660921,,,,,,,,,,,,,,,,,,,,,,,,,118,001,2010-10-16_11h27.03.568,eb_01,2022.2.4,119.99645035503994,
,,,2,0,2,0,0,0,0,0,,,,,,,,,,,,,,,,,,,,,,,,,,,,,,,,,,,,,,,,,,,,,,,,,,,,,,,,,,,118,001,2010-10-16_11h27.03.568,eb_01,2022.2.4,119.99645035503994,
3,stimuli/3.png,l,2,0,2,0,1,0,1,0,0,0,0,0,,,,,,,,,,,,,,,,,,595.1926825660921,595.1926825660921,595.1926825660921,595.1926825660921,l,1,0.7611921159841586,595.9677096570667,595.9677096570667,595.9677096570667,596.9844662245596,596.9844662245596,596.9844662245596,,,,,,,,,,,,,,,,,,,,,,,,,118,001,2010-10-16_11h27.03.568,eb_01,2022.2.4,119.99645035503994,
,,,2,0,2,0,1,0,1,0,,,,,,,,,,,,,,,,,,,,,,,,,,,,,,,,,,,,,,,,,,,,,,,,,,,,,,,,,,,118,001,2010-10-16_11h27.03.568,eb_01,2022.2.4,119.99645035503994,
4,stimuli/4.png,l,2,0,2,0,2,0,2,0,0,0,0,0,,,,,,,,,,,,,,,,,,596.9844662245596,596.9844662245596,596.9844662245596,596.9844662245596,l,1,0.8094330884341616,597.8178903139487,597.8178903139487,597.8178903139487,,,,,,,,,,,,,,,,,,,,,,,,,,,,118,001,2010-10-16_11h27.03.568,eb_01,2022.2.4,119.99645035503994,
,,,2,0,2,0,2,0,2,0,,,,,,,,,,,,,,,,,,,,,,,,,,,,,,,,,,,,,,,,,,,,,,,,,,,,,,,,,,,118,001,2010-10-16_11h27.03.568,eb_01,2022.2.4,119.99645035503994,
2,stimuli/2.png,s,2,0,2,0,3,0,3,0,0,0,0,0,,,,,,,,,,,,,,,,,,598.8263257981744,598.8263257981744,598.8263257981744,598.8263257981744,s,1,1.055626012472203,599.893070442602,599.893070442602,599.893070442602,600.9181885411963,600.9181885411963,600.9181885411963,,,,,,,,,,,,,,,,,,,,,,,,,118,001,2010-10-16_11h27.03.568,eb_01,2022.2.4,119.99645035503994,
,,,2,0,2,0,3,0,3,0,,,,,,,,,,,,,,,,,,,,,,,,,,,,,,,,,,,,,,,,,,,,,,,,,,,,,,,,,,,118,001,2010-10-16_11h27.03.568,eb_01,2022.2.4,119.99645035503994,
1,stimuli/1.png,s,2,0,2,0,4,0,4,0,0,0,0,0,,,,,,,,,,,,,,,,,,600.9181885411963,600.9181885411963,600.9181885411963,600.9181885411963,s,1,1.2518024856981356,602.2016212332819,602.2016212332819,602.2016212332819,,,,,,,,,,,,,,,,,,,,,,,,,,,,118,001,2010-10-16_11h27.03.568,eb_01,2022.2.4,119.99645035503994,
,,,2,0,2,0,4,0,4,0,,,,,,,,,,,,,,,,,,,,,,,,,,,,,,,,,,,,,,,,,,,,,,,,,,,,,,,,,,,118,001,2010-10-16_11h27.03.568,eb_01,2022.2.4,119.99645035503994,
2,stimuli/2.png,s,2,0,2,0,5,0,5,0,0,0,0,0,,,,,,,,,,,,,,,,,,603.2016966956435,603.2016966956435,603.2016966956435,603.2016966956435,s,1,0.6073808141227346,603.8183814229851,603.8183814229851,603.8183814229851,604.8435010308167,604.8435010308167,604.8435010308167,,,,,,,,,,,,,,,,,,,,,,,,,118,001,2010-10-16_11h27.03.568,eb_01,2022.2.4,119.99645035503994,
,,,2,0,2,0,5,0,5,0,,,,,,,,,,,,,,,,,,,,,,,,,,,,,,,,,,,,,,,,,,,,,,,,,,,,,,,,,,,118,001,2010-10-16_11h27.03.568,eb_01,2022.2.4,119.99645035503994,
1,stimuli/1.png,s,2,0,2,0,6,0,6,0,0,0,0,0,,,,,,,,,,,,,,,,,,604.8435010308167,604.8435010308167,604.8435010308167,604.8435010308167,s,1,0.6775771068350878,605.5519078393409,605.5519078393409,605.5519078393409,,,,,,,,,,,,,,,,,,,,,,,,,,,,118,001,2010-10-16_11h27.03.568,eb_01,2022.2.4,119.99645035503994,
,,,2,0,2,0,6,0,6,0,,,,,,,,,,,,,,,,,,,,,,,,,,,,,,,,,,,,,,,,,,,,,,,,,,,,,,,,,,,118,001,2010-10-16_11h27.03.568,eb_01,2022.2.4,119.99645035503994,
4,stimuli/4.png,l,2,0,2,0,7,0,7,0,0,0,0,0,,,,,,,,,,,,,,,,,,606.5603134404519,606.5603134404519,606.5603134404519,606.5603134404519,l,1,0.680799047666369,607.2603556993708,607.2603556993708,607.2603556993708,,,,,,,,,,,,,,,,,,,,,,,,,,,,118,001,2010-10-16_11h27.03.568,eb_01,2022.2.4,119.99645035503994,
,,,2,0,2,0,7,0,7,0,,,,,,,,,,,,,,,,,,,,,,,,,,,,,,,,,,,,,,,,,,,,,,,,,,,,,,,,,,,118,001,2010-10-16_11h27.03.568,eb_01,2022.2.4,119.99645035503994,
2,stimuli/2.png,s,2,0,2,0,8,0,8,0,0,0,0,0,,,,,,,,,,,,,,,,,,608.2687948057719,608.2687948057719,608.2687948057719,608.2687948057719,s,1,0.5803278606908862,608.8605196036224,608.8605196036224,608.8605196036224,609.8856014802586,609.8856014802586,609.8856014802586,,,,,,,,,,,,,,,,,,,,,,,,,118,001,2010-10-16_11h27.03.568,eb_01,2022.2.4,119.99645035503994,
,,,2,0,2,0,8,0,8,0,,,,,,,,,,,,,,,,,,,,,,,,,,,,,,,,,,,,,,,,,,,,,,,,,,,,,,,,,,,118,001,2010-10-16_11h27.03.568,eb_01,2022.2.4,119.99645035503994,
