index,stimulus,correct_answer,block.thisRepN,block.thisTrialN,block.thisN,block.thisIndex,trial.thisRepN,trial.thisTrialN,trial.thisN,trial.thisIndex,display_row.thisRepN,display_row.thisTrialN,display_row.thisN,display_row.thisIndex,pair_questions.thisRepN,pair_questions.thisTrialN,pair_questions.thisN,pair_questions.thisIndex,welcome_text.started,instructions_0_keypress.started,instructions_0_keypress.keys,instructions_0_keypress.rt,instructions_1_keypress.started,instructions_1_text.started,instructions_1_keypress.keys,instructions_1_keypress.rt,instructions_2_keypress.started,instructions_2_text.started,instructions_2_keypress.keys,instructions_2_keypress.rt,text_countdown.started,image.started,size_question.started,size_resp.started,keypress_options.started,size_resp.keys,size_resp.corr,size_resp.rt,fb_image.started,fb.started,fb_size_question.started,fb_image.stopped,fb.stopped,fb_size_question.stopped,block_break_text.started,block_break_keypress.started,block_break_keypress.keys,block_break_keypress.rt,seq_reveal.started,seq_reveal_adv.started,seq_reveal_adv.keys,seq_reveal_adv.rt,instruction_2afc_text.started,instruction_2afc_keypress.started,instruction_2afc_keypress.keys,instruction_2afc_keypress.rt,dist_2afc_test.started,dist_2afc_resp.started,text.started,stim_00.started,stim_01.started,stim_10.started,stim_11.started,dist_2afc_resp.keys,dist_2afc_resp.rt,graph.started,debrief_text.started,debriefing_title.started,participant,session,date,expName,psychopyVersion,frameRate,
,,,,,,,,,,,,,,,,,,,20.510310543322703,20.510310543322703,return,3.3823455886449665,,,,,,,,,,,,,,,,,,,,,,,,,,,,,,,,,,,,,,,,,,,,,,,120,001,2023-03-03_11h30.53.291,eb_01,2022.2.4,99.95537586264587,
,,,,,,,,,,,,,,,,,,,,,,,23.902614077029284,23.902614077029284,return,10.64534013325465,,,,,,,,,,,,,,,,,,,,,,,,,,,,,,,,,,,,,,,,,,,120,001,2023-03-03_11h30.53.291,eb_01,2022.2.4,99.95537586264587,
,,,,,,,,,,,,,,,,,,,,,,,,,,,34.55971633063746,34.55971633063746,space,6.47644403076265,,,,,,,,,,,,,,,,,,,,,,,,,,,,,,,,,,,,,,,120,001,2023-03-03_11h30.53.291,eb_01,2022.2.4,99.95537586264587,
9,stimuli/9.png,l,0,0,0,0,0,0,0,0,0,0,0,0,,,,,,,,,,,,,,,,,41.064045355218695,46.10745121072978,46.10745121072978,46.10745121072978,46.10745121072978,l,1,0.7278993394575082,46.86795712841558,46.86795712841558,46.86795712841558,,,,,,,,,,,,,,,,,,,,,,,,,,,,120,001,2023-03-03_11h30.53.291,eb_01,2022.2.4,99.95537586264587,
,,,0,0,0,0,0,0,0,0,,,,,,,,,,,,,,,,,,,,,,,,,,,,,,,,,,,,,,,,,,,,,,,,,,,,,,,,,,,120,001,2023-03-03_11h30.53.291,eb_01,2022.2.4,99.95537586264587,
8,stimuli/8.png,l,0,0,0,0,1,0,1,0,0,0,0,0,,,,,,,,,,,,,,,,,,47.88864552829182,47.88864552829182,47.88864552829182,47.88864552829182,l,1,0.6747360861918423,48.58910443537752,48.58910443537752,48.58910443537752,,,,,,,,,,,,,,,,,,,,,,,,,,,,120,001,2023-03-03_11h30.53.291,eb_01,2022.2.4,99.95537586264587,
,,,0,0,0,0,1,0,1,0,,,,,,,,,,,,,,,,,,,,,,,,,,,,,,,,,,,,,,,,,,,,,,,,,,,,,,,,,,,120,001,2023-03-03_11h30.53.291,eb_01,2022.2.4,99.95537586264587,
9,stimuli/9.png,l,0,0,0,0,2,0,2,0,0,0,0,0,,,,,,,,,,,,,,,,,,49.609812153852545,49.609812153852545,49.609812153852545,49.609812153852545,l,1,0.561646563524846,50.19986833172152,50.19986833172152,50.19986833172152,,,,,,,,,,,,,,,,,,,,,,,,,,,,120,001,2023-03-03_11h30.53.291,eb_01,2022.2.4,99.95537586264587,
,,,0,0,0,0,2,0,2,0,,,,,,,,,,,,,,,,,,,,,,,,,,,,,,,,,,,,,,,,,,,,,,,,,,,,,,,,,,,120,001,2023-03-03_11h30.53.291,eb_01,2022.2.4,99.95537586264587,
8,stimuli/8.png,l,0,0,0,0,3,0,3,0,0,0,0,0,,,,,,,,,,,,,,,,,,51.21085970447166,51.21085970447166,51.21085970447166,51.21085970447166,l,1,0.5446350348647684,51.78124412329635,51.78124412329635,51.78124412329635,,,,,,,,,,,,,,,,,,,,,,,,,,,,120,001,2023-03-03_11h30.53.291,eb_01,2022.2.4,99.95537586264587,
,,,0,0,0,0,3,0,3,0,,,,,,,,,,,,,,,,,,,,,,,,,,,,,,,,,,,,,,,,,,,,,,,,,,,,,,,,,,,120,001,2023-03-03_11h30.53.291,eb_01,2022.2.4,99.95537586264587,
9,stimuli/9.png,l,0,0,0,0,4,0,4,0,0,0,0,0,,,,,,,,,,,,,,,,,,52.801939465804026,52.801939465804026,52.801939465804026,52.801939465804026,l,1,0.48961689503630623,53.31226902586059,53.31226902586059,53.31226902586059,,,,,,,,,,,,,,,,,,,,,,,,,,,,120,001,2023-03-03_11h30.53.291,eb_01,2022.2.4,99.95537586264587,
,,,0,0,0,0,4,0,4,0,,,,,,,,,,,,,,,,,,,,,,,,,,,,,,,,,,,,,,,,,,,,,,,,,,,,,,,,,,,120,001,2023-03-03_11h30.53.291,eb_01,2022.2.4,99.95537586264587,
8,stimuli/8.png,l,0,0,0,0,5,0,5,0,0,0,0,0,,,,,,,,,,,,,,,,,,54.322927454748424,54.322927454748424,54.322927454748424,54.322927454748424,l,1,0.4566678305855021,54.80326701523154,54.80326701523154,54.80326701523154,,,,,,,,,,,,,,,,,,,,,,,,,,,,120,001,2023-03-03_11h30.53.291,eb_01,2022.2.4,99.95537586264587,
,,,0,0,0,0,5,0,5,0,,,,,,,,,,,,,,,,,,,,,,,,,,,,,,,,,,,,,,,,,,,,,,,,,,,,,,,,,,,120,001,2023-03-03_11h30.53.291,eb_01,2022.2.4,99.95537586264587,
3,stimuli/3.png,l,0,0,0,0,6,0,6,0,0,0,0,0,,,,,,,,,,,,,,,,,,55.83395610633306,55.83395610633306,55.83395610633306,55.83395610633306,l,1,0.7777074968034867,56.6241643577232,56.6241643577232,56.6241643577232,57.635146976739634,57.635146976739634,57.635146976739634,,,,,,,,,,,,,,,,,,,,,,,,,120,001,2023-03-03_11h30.53.291,eb_01,2022.2.4,99.95537586264587,
,,,0,0,0,0,6,0,6,0,,,,,,,,,,,,,,,,,,,,,,,,,,,,,,,,,,,,,,,,,,,,,,,,,,,,,,,,,,,120,001,2023-03-03_11h30.53.291,eb_01,2022.2.4,99.95537586264587,
8,stimuli/8.png,l,0,0,0,0,7,0,7,0,0,0,0,0,,,,,,,,,,,,,,,,,,57.635146976739634,57.635146976739634,57.635146976739634,57.635146976739634,l,1,0.4156167301989626,58.07545660546748,58.07545660546748,58.07545660546748,,,,,,,,,,,,,,,,,,,,,,,,,,,,120,001,2023-03-03_11h30.53.291,eb_01,2022.2.4,99.95537586264587,
,,,0,0,0,0,7,0,7,0,,,,,,,,,,,,,,,,,,,,,,,,,,,,,,,,,,,,,,,,,,,,,,,,,,,,,,,,,,,120,001,2023-03-03_11h30.53.291,eb_01,2022.2.4,99.95537586264587,
9,stimuli/9.png,l,0,0,0,0,8,0,8,0,0,0,0,0,,,,,,,,,,,,,,,,,,59.096133233077126,59.096133233077126,59.096133233077126,59.096133233077126,l,1,0.5466145867248997,59.66652157600038,59.66652157600038,59.66652157600038,,,,,,,,,,,,,,,,,,,,,,,,,,,,120,001,2023-03-03_11h30.53.291,eb_01,2022.2.4,99.95537586264587,
,,,0,0,0,0,8,0,8,0,,,,,,,,,,,,,,,,,,,,,,,,,,,,,,,,,,,,,,,,,,,,,,,,,,,,,,,,,,,120,001,2023-03-03_11h30.53.291,eb_01,2022.2.4,99.95537586264587,
8,stimuli/8.png,l,0,0,0,0,9,0,9,0,0,0,0,0,,,,,,,,,,,,,,,,,,60.67719207901973,60.67719207901973,60.67719207901973,60.67719207901973,l,1,0.4536055320641026,61.15751865977654,61.15751865977654,61.15751865977654,,,,,,,,,,,,,,,,,,,,,,,,,,,,120,001,2023-03-03_11h30.53.291,eb_01,2022.2.4,99.95537586264587,
,,,0,0,0,0,9,0,9,0,,,,,,,,,,,,,,,,,,,,,,,,,,,,,,,,,,,,,,,,,,,,,,,,,,,,,,,,,,,120,001,2023-03-03_11h30.53.291,eb_01,2022.2.4,99.95537586264587,
6,stimuli/6.png,s,0,0,0,0,10,0,10,0,0,0,0,0,,,,,,,,,,,,,,,,,,62.19821146069444,62.19821146069444,62.19821146069444,62.19821146069444,l,0,0.6926549849158619,62.92869417491602,62.92869417491602,62.92869417491602,,,,,,,,,,,,,,,,,,,,,,,,,,,,120,001,2023-03-03_11h30.53.291,eb_01,2022.2.4,99.95537586264587,
,,,0,0,0,0,10,0,10,0,,,,,,,,,,,,,,,,,,,,,,,,,,,,,,,,,,,,,,,,,,,,,,,,,,,,,,,,,,,120,001,2023-03-03_11h30.53.291,eb_01,2022.2.4,99.95537586264587,
5,stimuli/5.png,s,0,0,0,0,11,0,11,0,0,0,0,0,,,,,,,,,,,,,,,,,,63.949363558058394,63.949363558058394,63.949363558058394,63.949363558058394,s,1,0.7095466779719573,64.67987162794452,64.67987162794452,64.67987162794452,,,,,,,,,,,,,,,,,,,,,,,,,,,,120,001,2023-03-03_11h30.53.291,eb_01,2022.2.4,99.95537586264587,
,,,0,0,0,0,11,0,11,0,,,,,,,,,,,,,,,,,,,,,,,,,,,,,,,,,,,,,,,,,,,,,,,,,,,,,,,,,,,120,001,2023-03-03_11h30.53.291,eb_01,2022.2.4,99.95537586264587,
6,stimuli/6.png,s,0,0,0,0,12,0,12,0,0,0,0,0,,,,,,,,,,,,,,,,,,65.70053950182046,65.70053950182046,65.70053950182046,65.70053950182046,s,1,0.49444895758642815,66.23093564462033,66.23093564462033,66.23093564462033,,,,,,,,,,,,,,,,,,,,,,,,,,,,120,001,2023-03-03_11h30.53.291,eb_01,2022.2.4,99.95537586264587,
,,,0,0,0,0,12,0,12,0,,,,,,,,,,,,,,,,,,,,,,,,,,,,,,,,,,,,,,,,,,,,,,,,,,,,,,,,,,,120,001,2023-03-03_11h30.53.291,eb_01,2022.2.4,99.95537586264587,
9,stimuli/9.png,l,0,0,0,0,13,0,13,0,0,0,0,0,,,,,,,,,,,,,,,,,,67.24156660490553,67.24156660490553,67.24156660490553,67.24156660490553,l,1,0.5774304561200552,67.84167026123032,67.84167026123032,67.84167026123032,,,,,,,,,,,,,,,,,,,,,,,,,,,,120,001,2023-03-03_11h30.53.291,eb_01,2022.2.4,99.95537586264587,
,,,0,0,0,0,13,0,13,0,,,,,,,,,,,,,,,,,,,,,,,,,,,,,,,,,,,,,,,,,,,,,,,,,,,,,,,,,,,120,001,2023-03-03_11h30.53.291,eb_01,2022.2.4,99.95537586264587,
8,stimuli/8.png,l,0,0,0,0,14,0,14,0,0,0,0,0,,,,,,,,,,,,,,,,,,68.85234559388482,68.85234559388482,68.85234559388482,68.85234559388482,l,1,0.4947112678491976,69.37302146686125,69.37302146686125,69.37302146686125,,,,,,,,,,,,,,,,,,,,,,,,,,,,120,001,2023-03-03_11h30.53.291,eb_01,2022.2.4,99.95537586264587,
,,,0,0,0,0,14,0,14,0,,,,,,,,,,,,,,,,,,,,,,,,,,,,,,,,,,,,,,,,,,,,,,,,,,,,,,,,,,,120,001,2023-03-03_11h30.53.291,eb_01,2022.2.4,99.95537586264587,
6,stimuli/6.png,s,0,0,0,0,15,0,15,0,0,0,0,0,,,,,,,,,,,,,,,,,,70.39369658520445,70.39369658520445,70.39369658520445,70.39369658520445,s,1,0.5374156170000788,70.96409639855847,70.96409639855847,70.96409639855847,,,,,,,,,,,,,,,,,,,,,,,,,,,,120,001,2023-03-03_11h30.53.291,eb_01,2022.2.4,99.95537586264587,
,,,0,0,0,0,15,0,15,0,,,,,,,,,,,,,,,,,,,,,,,,,,,,,,,,,,,,,,,,,,,,,,,,,,,,,,,,,,,120,001,2023-03-03_11h30.53.291,eb_01,2022.2.4,99.95537586264587,
8,stimuli/8.png,l,0,0,0,0,16,0,16,0,0,0,0,0,,,,,,,,,,,,,,,,,,71.96475021212245,71.96475021212245,71.96475021212245,71.96475021212245,l,1,0.4223909148713574,72.41504060977604,72.41504060977604,72.41504060977604,,,,,,,,,,,,,,,,,,,,,,,,,,,,120,001,2023-03-03_11h30.53.291,eb_01,2022.2.4,99.95537586264587,
,,,0,0,0,0,16,0,16,0,,,,,,,,,,,,,,,,,,,,,,,,,,,,,,,,,,,,,,,,,,,,,,,,,,,,,,,,,,,120,001,2023-03-03_11h30.53.291,eb_01,2022.2.4,99.95537586264587,
9,stimuli/9.png,l,0,0,0,0,17,0,17,0,0,0,0,0,,,,,,,,,,,,,,,,,,73.4357368578494,73.4357368578494,73.4357368578494,73.4357368578494,l,1,0.534471946710255,73.99577556745498,73.99577556745498,73.99577556745498,,,,,,,,,,,,,,,,,,,,,,,,,,,,120,001,2023-03-03_11h30.53.291,eb_01,2022.2.4,99.95537586264587,
,,,0,0,0,0,17,0,17,0,,,,,,,,,,,,,,,,,,,,,,,,,,,,,,,,,,,,,,,,,,,,,,,,,,,,,,,,,,,120,001,2023-03-03_11h30.53.291,eb_01,2022.2.4,99.95537586264587,
5,stimuli/5.png,s,0,0,0,0,18,0,18,0,0,0,0,0,,,,,,,,,,,,,,,,,,75.0067904847383,75.0067904847383,75.0067904847383,75.0067904847383,s,1,0.5154745272593573,75.54714687049272,75.54714687049272,75.54714687049272,,,,,,,,,,,,,,,,,,,,,,,,,,,,120,001,2023-03-03_11h30.53.291,eb_01,2022.2.4,99.95537586264587,
,,,0,0,0,0,18,0,18,0,,,,,,,,,,,,,,,,,,,,,,,,,,,,,,,,,,,,,,,,,,,,,,,,,,,,,,,,,,,120,001,2023-03-03_11h30.53.291,eb_01,2022.2.4,99.95537586264587,
9,stimuli/9.png,l,0,0,0,0,19,0,19,0,0,0,0,0,,,,,,,,,,,,,,,,,,76.56778667203616,76.56778667203616,76.56778667203616,76.56778667203616,l,1,0.3864975764590781,76.97777214989765,76.97777214989765,76.97777214989765,,,,,,,,,,,,,,,,,,,,,,,,,,,,120,001,2023-03-03_11h30.53.291,eb_01,2022.2.4,99.95537586264587,
,,,0,0,0,0,19,0,19,0,,,,,,,,,,,,,,,,,,,,,,,,,,,,,,,,,,,,,,,,,,,,,,,,,,,,,,,,,,,120,001,2023-03-03_11h30.53.291,eb_01,2022.2.4,99.95537586264587,
8,stimuli/8.png,l,0,0,0,0,20,0,20,0,0,0,0,0,,,,,,,,,,,,,,,,,,77.98878797271755,77.98878797271755,77.98878797271755,77.98878797271755,l,1,0.46953823816147633,78.47910558545846,78.47910558545846,78.47910558545846,,,,,,,,,,,,,,,,,,,,,,,,,,,,120,001,2023-03-03_11h30.53.291,eb_01,2022.2.4,99.95537586264587,
,,,0,0,0,0,20,0,20,0,,,,,,,,,,,,,,,,,,,,,,,,,,,,,,,,,,,,,,,,,,,,,,,,,,,,,,,,,,,120,001,2023-03-03_11h30.53.291,eb_01,2022.2.4,99.95537586264587,
9,stimuli/9.png,l,0,0,0,0,21,0,21,0,0,0,0,0,,,,,,,,,,,,,,,,,,79.49978794826893,79.49978794826893,79.49978794826893,79.49978794826893,l,1,0.37458917434560135,79.89974073847407,79.89974073847407,79.89974073847407,,,,,,,,,,,,,,,,,,,,,,,,,,,,120,001,2023-03-03_11h30.53.291,eb_01,2022.2.4,99.95537586264587,
,,,0,0,0,0,21,0,21,0,,,,,,,,,,,,,,,,,,,,,,,,,,,,,,,,,,,,,,,,,,,,,,,,,,,,,,,,,,,120,001,2023-03-03_11h30.53.291,eb_01,2022.2.4,99.95537586264587,
6,stimuli/6.png,s,0,0,0,0,22,0,22,0,0,0,0,0,,,,,,,,,,,,,,,,,,80.92073733024881,80.92073733024881,80.92073733024881,80.92073733024881,s,1,0.6017054731782991,81.56117458239896,81.56117458239896,81.56117458239896,,,,,,,,,,,,,,,,,,,,,,,,,,,,120,001,2023-03-03_11h30.53.291,eb_01,2022.2.4,99.95537586264587,
,,,0,0,0,0,22,0,22,0,,,,,,,,,,,,,,,,,,,,,,,,,,,,,,,,,,,,,,,,,,,,,,,,,,,,,,,,,,,120,001,2023-03-03_11h30.53.291,eb_01,2022.2.4,99.95537586264587,
5,stimuli/5.png,s,0,0,0,0,23,0,23,0,0,0,0,0,,,,,,,,,,,,,,,,,,82.56185465716408,82.56185465716408,82.56185465716408,82.56185465716408,s,1,0.4806437113438733,83.07218240611837,83.07218240611837,83.07218240611837,,,,,,,,,,,,,,,,,,,,,,,,,,,,120,001,2023-03-03_11h30.53.291,eb_01,2022.2.4,99.95537586264587,
,,,0,0,0,0,23,0,23,0,,,,,,,,,,,,,,,,,,,,,,,,,,,,,,,,,,,,,,,,,,,,,,,,,,,,,,,,,,,120,001,2023-03-03_11h30.53.291,eb_01,2022.2.4,99.95537586264587,
9,stimuli/9.png,l,0,0,0,0,24,0,24,0,0,0,0,0,,,,,,,,,,,,,,,,,,84.0928695985931,84.0928695985931,84.0928695985931,84.0928695985931,l,1,0.4536785804957617,84.57286142441444,84.57286142441444,84.57286142441444,,,,,,,,,,,,,,,,,,,,,,,,,,,,120,001,2023-03-03_11h30.53.291,eb_01,2022.2.4,99.95537586264587,
,,,0,0,0,0,24,0,24,0,,,,,,,,,,,,,,,,,,,,,,,,,,,,,,,,,,,,,,,,,,,,,,,,,,,,,,,,,,,120,001,2023-03-03_11h30.53.291,eb_01,2022.2.4,99.95537586264587,
8,stimuli/8.png,l,0,0,0,0,25,0,25,0,0,0,0,0,,,,,,,,,,,,,,,,,,85.58382351743057,85.58382351743057,85.58382351743057,85.58382351743057,l,1,0.48276724707102403,86.09421042955364,86.09421042955364,86.09421042955364,,,,,,,,,,,,,,,,,,,,,,,,,,,,120,001,2023-03-03_11h30.53.291,eb_01,2022.2.4,99.95537586264587,
,,,0,0,0,0,25,0,25,0,,,,,,,,,,,,,,,,,,,,,,,,,,,,,,,,,,,,,,,,,,,,,,,,,,,,,,,,,,,120,001,2023-03-03_11h30.53.291,eb_01,2022.2.4,99.95537586264587,
3,stimuli/3.png,l,0,0,0,0,26,0,26,0,0,0,0,0,,,,,,,,,,,,,,,,,,87.10488395110588,87.10488395110588,87.10488395110588,87.10488395110588,s,0,0.5777522313874215,87.70528131036554,87.70528131036554,87.70528131036554,,,,,,,,,,,,,,,,,,,,,,,,,,,,120,001,2023-03-03_11h30.53.291,eb_01,2022.2.4,99.95537586264587,
,,,0,0,0,0,26,0,26,0,,,,,,,,,,,,,,,,,,,,,,,,,,,,,,,,,,,,,,,,,,,,,,,,,,,,,,,,,,,120,001,2023-03-03_11h30.53.291,eb_01,2022.2.4,99.95537586264587,
2,stimuli/2.png,s,0,0,0,0,27,0,27,0,0,0,0,0,,,,,,,,,,,,,,,,,,88.72597152137314,88.72597152137314,88.72597152137314,88.72597152137314,s,1,0.6437692903273273,89.39641446949099,89.39641446949099,89.39641446949099,,,,,,,,,,,,,,,,,,,,,,,,,,,,120,001,2023-03-03_11h30.53.291,eb_01,2022.2.4,99.95537586264587,
,,,0,0,0,0,27,0,27,0,,,,,,,,,,,,,,,,,,,,,,,,,,,,,,,,,,,,,,,,,,,,,,,,,,,,,,,,,,,120,001,2023-03-03_11h30.53.291,eb_01,2022.2.4,99.95537586264587,
1,stimuli/1.png,s,0,0,0,0,28,0,28,0,0,0,0,0,,,,,,,,,,,,,,,,,,90.42712559588836,90.42712559588836,90.42712559588836,90.42712559588836,s,1,0.6707175173796713,91.12726574623957,91.12726574623957,91.12726574623957,,,,,,,,,,,,,,,,,,,,,,,,,,,,120,001,2023-03-03_11h30.53.291,eb_01,2022.2.4,99.95537586264587,
,,,0,0,0,0,28,0,28,0,,,,,,,,,,,,,,,,,,,,,,,,,,,,,,,,,,,,,,,,,,,,,,,,,,,,,,,,,,,120,001,2023-03-03_11h30.53.291,eb_01,2022.2.4,99.95537586264587,
4,stimuli/4.png,l,0,0,0,0,29,0,29,0,0,0,0,0,,,,,,,,,,,,,,,,,,92.15824521993636,92.15824521993636,92.15824521993636,92.15824521993636,s,0,0.5875724145735148,92.76867707798374,92.76867707798374,92.76867707798374,,,,,,,,,,,,,,,,,,,,,,,,,,,,120,001,2023-03-03_11h30.53.291,eb_01,2022.2.4,99.95537586264587,
,,,0,0,0,0,29,0,29,0,,,,,,,,,,,,,,,,,,,,,,,,,,,,,,,,,,,,,,,,,,,,,,,,,,,,,,,,,,,120,001,2023-03-03_11h30.53.291,eb_01,2022.2.4,99.95537586264587,
3,stimuli/3.png,l,0,0,0,0,30,0,30,0,0,0,0,0,,,,,,,,,,,,,,,,,,93.77934154393733,93.77934154393733,93.77934154393733,93.77934154393733,l,1,0.6225149160891306,94.42978673180914,94.42978673180914,94.42978673180914,,,,,,,,,,,,,,,,,,,,,,,,,,,,120,001,2023-03-03_11h30.53.291,eb_01,2022.2.4,99.95537586264587,
,,,0,0,0,0,30,0,30,0,,,,,,,,,,,,,,,,,,,,,,,,,,,,,,,,,,,,,,,,,,,,,,,,,,,,,,,,,,,120,001,2023-03-03_11h30.53.291,eb_01,2022.2.4,99.95537586264587,
4,stimuli/4.png,l,0,0,0,0,31,0,31,0,0,0,0,0,,,,,,,,,,,,,,,,,,95.44014511883142,95.44014511883142,95.44014511883142,95.44014511883142,l,1,0.6257640616095159,96.09090423380258,96.09090423380258,96.09090423380258,,,,,,,,,,,,,,,,,,,,,,,,,,,,120,001,2023-03-03_11h30.53.291,eb_01,2022.2.4,99.95537586264587,
,,,0,0,0,0,31,0,31,0,,,,,,,,,,,,,,,,,,,,,,,,,,,,,,,,,,,,,,,,,,,,,,,,,,,,,,,,,,,120,001,2023-03-03_11h30.53.291,eb_01,2022.2.4,99.95537586264587,
3,stimuli/3.png,l,0,0,0,0,32,0,32,0,0,0,0,0,,,,,,,,,,,,,,,,,,97.10156507752254,97.10156507752254,97.10156507752254,97.10156507752254,l,1,0.4924020924954675,97.61158825681196,97.61158825681196,97.61158825681196,98.6225926092302,98.6225926092302,98.6225926092302,,,,,,,,,,,,,,,,,,,,,,,,,120,001,2023-03-03_11h30.53.291,eb_01,2022.2.4,99.95537586264587,
,,,0,0,0,0,32,0,32,0,,,,,,,,,,,,,,,,,,,,,,,,,,,,,,,,,,,,,,,,,,,,,,,,,,,,,,,,,,,120,001,2023-03-03_11h30.53.291,eb_01,2022.2.4,99.95537586264587,
8,stimuli/8.png,l,0,0,0,0,33,0,33,0,0,0,0,0,,,,,,,,,,,,,,,,,,98.6225926092302,98.6225926092302,98.6225926092302,98.6225926092302,l,1,0.507421995192999,99.15296067972668,99.15296067972668,99.15296067972668,,,,,,,,,,,,,,,,,,,,,,,,,,,,120,001,2023-03-03_11h30.53.291,eb_01,2022.2.4,99.95537586264587,
,,,0,0,0,0,33,0,33,0,,,,,,,,,,,,,,,,,,,,,,,,,,,,,,,,,,,,,,,,,,,,,,,,,,,,,,,,,,,120,001,2023-03-03_11h30.53.291,eb_01,2022.2.4,99.95537586264587,
3,stimuli/3.png,l,0,0,0,0,34,0,34,0,0,0,0,0,,,,,,,,,,,,,,,,,,100.16363208828261,100.16363208828261,100.16363208828261,100.16363208828261,l,1,0.5184323846478947,100.69366480011377,100.69366480011377,100.69366480011377,101.70465194690041,101.70465194690041,101.70465194690041,,,,,,,,,,,,,,,,,,,,,,,,,120,001,2023-03-03_11h30.53.291,eb_01,2022.2.4,99.95537586264587,
,,,0,0,0,0,34,0,34,0,,,,,,,,,,,,,,,,,,,,,,,,,,,,,,,,,,,,,,,,,,,,,,,,,,,,,,,,,,,120,001,2023-03-03_11h30.53.291,eb_01,2022.2.4,99.95537586264587,
2,stimuli/2.png,s,0,0,0,0,35,0,35,0,0,0,0,0,,,,,,,,,,,,,,,,,,101.70465194690041,101.70465194690041,101.70465194690041,101.70465194690041,s,1,0.7294635416183155,102.4448383290437,102.4448383290437,102.4448383290437,103.45552271729684,103.45552271729684,103.45552271729684,,,,,,,,,,,,,,,,,,,,,,,,,120,001,2023-03-03_11h30.53.291,eb_01,2022.2.4,99.95537586264587,
,,,0,0,0,0,35,0,35,0,,,,,,,,,,,,,,,,,,,,,,,,,,,,,,,,,,,,,,,,,,,,,,,,,,,,,,,,,,,120,001,2023-03-03_11h30.53.291,eb_01,2022.2.4,99.95537586264587,
4,stimuli/4.png,l,0,0,0,0,36,0,36,0,0,0,0,0,,,,,,,,,,,,,,,,,,103.45552271729684,103.45552271729684,103.45552271729684,103.45552271729684,l,1,0.5937350451131351,104.07624866769766,104.07624866769766,104.07624866769766,,,,,,,,,,,,,,,,,,,,,,,,,,,,120,001,2023-03-03_11h30.53.291,eb_01,2022.2.4,99.95537586264587,
,,,0,0,0,0,36,0,36,0,,,,,,,,,,,,,,,,,,,,,,,,,,,,,,,,,,,,,,,,,,,,,,,,,,,,,,,,,,,120,001,2023-03-03_11h30.53.291,eb_01,2022.2.4,99.95537586264587,
2,stimuli/2.png,s,0,0,0,0,37,0,37,0,0,0,0,0,,,,,,,,,,,,,,,,,,105.08692701888504,105.08692701888504,105.08692701888504,105.08692701888504,s,1,0.6262989451061003,105.7270358550013,105.7270358550013,105.7270358550013,106.73794844411896,106.73794844411896,106.73794844411896,,,,,,,,,,,,,,,,,,,,,,,,,120,001,2023-03-03_11h30.53.291,eb_01,2022.2.4,99.95537586264587,
,,,0,0,0,0,37,0,37,0,,,,,,,,,,,,,,,,,,,,,,,,,,,,,,,,,,,,,,,,,,,,,,,,,,,,,,,,,,,120,001,2023-03-03_11h30.53.291,eb_01,2022.2.4,99.95537586264587,
3,stimuli/3.png,l,0,0,0,0,38,0,38,0,0,0,0,0,,,,,,,,,,,,,,,,,,106.73794844411896,106.73794844411896,106.73794844411896,106.73794844411896,l,1,0.43930102096055634,107.18799494454288,107.18799494454288,107.18799494454288,108.19869502916117,108.19869502916117,108.19869502916117,,,,,,,,,,,,,,,,,,,,,,,,,120,001,2023-03-03_11h30.53.291,eb_01,2022.2.4,99.95537586264587,
,,,0,0,0,0,38,0,38,0,,,,,,,,,,,,,,,,,,,,,,,,,,,,,,,,,,,,,,,,,,,,,,,,,,,,,,,,,,,120,001,2023-03-03_11h30.53.291,eb_01,2022.2.4,99.95537586264587,
4,stimuli/4.png,l,0,0,0,0,39,0,39,0,0,0,0,0,,,,,,,,,,,,,,,,,,108.19869502916117,108.19869502916117,108.19869502916117,108.19869502916117,l,1,0.5786215680127498,108.79941718225018,108.79941718225018,108.79941718225018,,,,,,,,,,,,,,,,,,,,,,,,,,,,120,001,2023-03-03_11h30.53.291,eb_01,2022.2.4,99.95537586264587,
,,,0,0,0,0,39,0,39,0,,,,,,,,,,,,,,,,,,,,,,,,,,,,,,,,,,,,,,,,,,,,,,,,,,,,,,,,,,,120,001,2023-03-03_11h30.53.291,eb_01,2022.2.4,99.95537586264587,
1,stimuli/1.png,s,0,0,0,0,40,0,40,0,0,0,0,0,,,,,,,,,,,,,,,,,,109.82009411172476,109.82009411172476,109.82009411172476,109.82009411172476,s,1,0.6052760921302252,110.45019893618883,110.45019893618883,110.45019893618883,,,,,,,,,,,,,,,,,,,,,,,,,,,,120,001,2023-03-03_11h30.53.291,eb_01,2022.2.4,99.95537586264587,
,,,0,0,0,0,40,0,40,0,,,,,,,,,,,,,,,,,,,,,,,,,,,,,,,,,,,,,,,,,,,,,,,,,,,,,,,,,,,120,001,2023-03-03_11h30.53.291,eb_01,2022.2.4,99.95537586264587,
4,stimuli/4.png,l,0,0,0,0,41,0,41,0,0,0,0,0,,,,,,,,,,,,,,,,,,111.46087487257319,111.46087487257319,111.46087487257319,111.46087487257319,l,1,0.5565425314125605,112.0415814560838,112.0415814560838,112.0415814560838,,,,,,,,,,,,,,,,,,,,,,,,,,,,120,001,2023-03-03_11h30.53.291,eb_01,2022.2.4,99.95537586264587,
,,,0,0,0,0,41,0,41,0,,,,,,,,,,,,,,,,,,,,,,,,,,,,,,,,,,,,,,,,,,,,,,,,,,,,,,,,,,,120,001,2023-03-03_11h30.53.291,eb_01,2022.2.4,99.95537586264587,
3,stimuli/3.png,l,0,0,0,0,42,0,42,0,0,0,0,0,,,,,,,,,,,,,,,,,,113.0522643350705,113.0522643350705,113.0522643350705,113.0522643350705,l,1,0.46122641436522827,113.53226883872412,113.53226883872412,113.53226883872412,114.54292696574703,114.54292696574703,114.54292696574703,,,,,,,,,,,,,,,,,,,,,,,,,120,001,2023-03-03_11h30.53.291,eb_01,2022.2.4,99.95537586264587,
,,,0,0,0,0,42,0,42,0,,,,,,,,,,,,,,,,,,,,,,,,,,,,,,,,,,,,,,,,,,,,,,,,,,,,,,,,,,,120,001,2023-03-03_11h30.53.291,eb_01,2022.2.4,99.95537586264587,
4,stimuli/4.png,l,0,0,0,0,43,0,43,0,0,0,0,0,,,,,,,,,,,,,,,,,,114.54292696574703,114.54292696574703,114.54292696574703,114.54292696574703,l,1,0.5545735443884041,115.12364954745863,115.12364954745863,115.12364954745863,,,,,,,,,,,,,,,,,,,,,,,,,,,,120,001,2023-03-03_11h30.53.291,eb_01,2022.2.4,99.95537586264587,
,,,0,0,0,0,43,0,43,0,,,,,,,,,,,,,,,,,,,,,,,,,,,,,,,,,,,,,,,,,,,,,,,,,,,,,,,,,,,120,001,2023-03-03_11h30.53.291,eb_01,2022.2.4,99.95537586264587,
1,stimuli/1.png,s,0,0,0,0,44,0,44,0,0,0,0,0,,,,,,,,,,,,,,,,,,116.14431923246593,116.14431923246593,116.14431923246593,116.14431923246593,l,0,0.5772408924240153,116.7547402238124,116.7547402238124,116.7547402238124,,,,,,,,,,,,,,,,,,,,,,,,,,,,120,001,2023-03-03_11h30.53.291,eb_01,2022.2.4,99.95537586264587,
,,,0,0,0,0,44,0,44,0,,,,,,,,,,,,,,,,,,,,,,,,,,,,,,,,,,,,,,,,,,,,,,,,,,,,,,,,,,,120,001,2023-03-03_11h30.53.291,eb_01,2022.2.4,99.95537586264587,
2,stimuli/2.png,s,0,0,0,0,45,0,45,0,0,0,0,0,,,,,,,,,,,,,,,,,,117.75541516707744,117.75541516707744,117.75541516707744,117.75541516707744,s,1,0.6382061398180667,118.41585832950659,118.41585832950659,118.41585832950659,,,,,,,,,,,,,,,,,,,,,,,,,,,,120,001,2023-03-03_11h30.53.291,eb_01,2022.2.4,99.95537586264587,
,,,0,0,0,0,45,0,45,0,,,,,,,,,,,,,,,,,,,,,,,,,,,,,,,,,,,,,,,,,,,,,,,,,,,,,,,,,,,120,001,2023-03-03_11h30.53.291,eb_01,2022.2.4,99.95537586264587,
4,stimuli/4.png,l,0,0,0,0,46,0,46,0,0,0,0,0,,,,,,,,,,,,,,,,,,119.42619196459418,119.42619196459418,119.42619196459418,119.42619196459418,l,1,0.5826120644633193,120.0566258088511,120.0566258088511,120.0566258088511,,,,,,,,,,,,,,,,,,,,,,,,,,,,120,001,2023-03-03_11h30.53.291,eb_01,2022.2.4,99.95537586264587,
,,,0,0,0,0,46,0,46,0,,,,,,,,,,,,,,,,,,,,,,,,,,,,,,,,,,,,,,,,,,,,,,,,,,,,,,,,,,,120,001,2023-03-03_11h30.53.291,eb_01,2022.2.4,99.95537586264587,
3,stimuli/3.png,l,0,0,0,0,47,0,47,0,0,0,0,0,,,,,,,,,,,,,,,,,,121.0676340853388,121.0676340853388,121.0676340853388,121.0676340853388,l,1,0.4850764223956503,121.56763997147209,121.56763997147209,121.56763997147209,122.57864522945601,122.57864522945601,122.57864522945601,,,,,,,,,,,,,,,,,,,,,,,,,120,001,2023-03-03_11h30.53.291,eb_01,2022.2.4,99.95537586264587,
,,,0,0,0,0,47,0,47,0,,,,,,,,,,,,,,,,,,,,,,,,,,,,,,,,,,,,,,,,,,,,,,,,,,,,,,,,,,,120,001,2023-03-03_11h30.53.291,eb_01,2022.2.4,99.95537586264587,
8,stimuli/8.png,l,0,0,0,0,48,0,48,0,0,0,0,0,,,,,,,,,,,,,,,,,,122.57864522945601,122.57864522945601,122.57864522945601,122.57864522945601,l,1,0.4381240961665753,123.0389526184299,123.0389526184299,123.0389526184299,,,,,,,,,,,,,,,,,,,,,,,,,,,,120,001,2023-03-03_11h30.53.291,eb_01,2022.2.4,99.95537586264587,
,,,0,0,0,0,48,0,48,0,,,,,,,,,,,,,,,,,,,,,,,,,,,,,,,,,,,,,,,,,,,,,,,,,,,,,,,,,,,120,001,2023-03-03_11h30.53.291,eb_01,2022.2.4,99.95537586264587,
3,stimuli/3.png,l,0,0,0,0,49,0,49,0,0,0,0,0,,,,,,,,,,,,,,,,,,124.04962885665009,124.04962885665009,124.04962885665009,124.04962885665009,l,1,0.3991726851381827,124.45956332134665,124.45956332134665,124.45956332134665,125.47058638866292,125.47058638866292,125.47058638866292,,,,,,,,,,,,,,,,,,,,,,,,,120,001,2023-03-03_11h30.53.291,eb_01,2022.2.4,99.95537586264587,
,,,0,0,0,0,49,0,49,0,,,,,,,,,,,,,,,,,,,,,,,,,,,,,,,,,,,,,,,,,,,,,,,,,,,,,,,,,,,120,001,2023-03-03_11h30.53.291,eb_01,2022.2.4,99.95537586264587,
2,stimuli/2.png,s,0,0,0,0,50,0,50,0,0,0,0,0,,,,,,,,,,,,,,,,,,125.47058638866292,125.47058638866292,125.47058638866292,125.47058638866292,s,1,0.9062974720727652,126.39086912831408,126.39086912831408,126.39086912831408,127.40189672340057,127.40189672340057,127.40189672340057,,,,,,,,,,,,,,,,,,,,,,,,,120,001,2023-03-03_11h30.53.291,eb_01,2022.2.4,99.95537586264587,
,,,0,0,0,0,50,0,50,0,,,,,,,,,,,,,,,,,,,,,,,,,,,,,,,,,,,,,,,,,,,,,,,,,,,,,,,,,,,120,001,2023-03-03_11h30.53.291,eb_01,2022.2.4,99.95537586264587,
3,stimuli/3.png,l,0,0,0,0,51,0,51,0,0,0,0,0,,,,,,,,,,,,,,,,,,127.40189672340057,127.40189672340057,127.40189672340057,127.40189672340057,l,1,0.39902236236957833,127.8118254528963,127.8118254528963,127.8118254528963,128.8228295034496,128.8228295034496,128.8228295034496,,,,,,,,,,,,,,,,,,,,,,,,,120,001,2023-03-03_11h30.53.291,eb_01,2022.2.4,99.95537586264587,
,,,0,0,0,0,51,0,51,0,,,,,,,,,,,,,,,,,,,,,,,,,,,,,,,,,,,,,,,,,,,,,,,,,,,,,,,,,,,120,001,2023-03-03_11h30.53.291,eb_01,2022.2.4,99.95537586264587,
8,stimuli/8.png,l,0,0,0,0,52,0,52,0,0,0,0,0,,,,,,,,,,,,,,,,,,128.8228295034496,128.8228295034496,128.8228295034496,128.8228295034496,l,1,0.43413752378546633,129.28313719428843,129.28313719428843,129.28313719428843,,,,,,,,,,,,,,,,,,,,,,,,,,,,120,001,2023-03-03_11h30.53.291,eb_01,2022.2.4,99.95537586264587,
,,,0,0,0,0,52,0,52,0,,,,,,,,,,,,,,,,,,,,,,,,,,,,,,,,,,,,,,,,,,,,,,,,,,,,,,,,,,,120,001,2023-03-03_11h30.53.291,eb_01,2022.2.4,99.95537586264587,
9,stimuli/9.png,l,0,0,0,0,53,0,53,0,0,0,0,0,,,,,,,,,,,,,,,,,,130.3038228774967,130.3038228774967,130.3038228774967,130.3038228774967,l,1,0.4971940086397808,130.82415856214357,130.82415856214357,130.82415856214357,,,,,,,,,,,,,,,,,,,,,,,,,,,,120,001,2023-03-03_11h30.53.291,eb_01,2022.2.4,99.95537586264587,
,,,0,0,0,0,53,0,53,0,,,,,,,,,,,,,,,,,,,,,,,,,,,,,,,,,,,,,,,,,,,,,,,,,,,,,,,,,,,120,001,2023-03-03_11h30.53.291,eb_01,2022.2.4,99.95537586264587,
6,stimuli/6.png,s,0,0,0,0,54,0,54,0,0,0,0,0,,,,,,,,,,,,,,,,,,131.8448578287498,131.8448578287498,131.8448578287498,131.8448578287498,s,1,0.6602208816912025,132.5353157427453,132.5353157427453,132.5353157427453,,,,,,,,,,,,,,,,,,,,,,,,,,,,120,001,2023-03-03_11h30.53.291,eb_01,2022.2.4,99.95537586264587,
,,,0,0,0,0,54,0,54,0,,,,,,,,,,,,,,,,,,,,,,,,,,,,,,,,,,,,,,,,,,,,,,,,,,,,,,,,,,,120,001,2023-03-03_11h30.53.291,eb_01,2022.2.4,99.95537586264587,
9,stimuli/9.png,l,0,0,0,0,55,0,55,0,0,0,0,0,,,,,,,,,,,,,,,,,,133.54598383093253,133.54598383093253,133.54598383093253,133.54598383093253,l,1,0.5751246011641342,134.14639688655734,134.14639688655734,134.14639688655734,,,,,,,,,,,,,,,,,,,,,,,,,,,,120,001,2023-03-03_11h30.53.291,eb_01,2022.2.4,99.95537586264587,
,,,0,0,0,0,55,0,55,0,,,,,,,,,,,,,,,,,,,,,,,,,,,,,,,,,,,,,,,,,,,,,,,,,,,,,,,,,,,120,001,2023-03-03_11h30.53.291,eb_01,2022.2.4,99.95537586264587,
5,stimuli/5.png,s,0,0,0,0,56,0,56,0,0,0,0,0,,,,,,,,,,,,,,,,,,135.15707342664246,135.15707342664246,135.15707342664246,135.15707342664246,s,1,0.5401159938191995,135.7174456838111,135.7174456838111,135.7174456838111,,,,,,,,,,,,,,,,,,,,,,,,,,,,120,001,2023-03-03_11h30.53.291,eb_01,2022.2.4,99.95537586264587,
,,,0,0,0,0,56,0,56,0,,,,,,,,,,,,,,,,,,,,,,,,,,,,,,,,,,,,,,,,,,,,,,,,,,,,,,,,,,,120,001,2023-03-03_11h30.53.291,eb_01,2022.2.4,99.95537586264587,
9,stimuli/9.png,l,0,0,0,0,57,0,57,0,0,0,0,0,,,,,,,,,,,,,,,,,,136.73813891335158,136.73813891335158,136.73813891335158,136.73813891335158,l,1,0.35005969522171654,137.10836944752373,137.10836944752373,137.10836944752373,,,,,,,,,,,,,,,,,,,,,,,,,,,,120,001,2023-03-03_11h30.53.291,eb_01,2022.2.4,99.95537586264587,
,,,0,0,0,0,57,0,57,0,,,,,,,,,,,,,,,,,,,,,,,,,,,,,,,,,,,,,,,,,,,,,,,,,,,,,,,,,,,120,001,2023-03-03_11h30.53.291,eb_01,2022.2.4,99.95537586264587,
8,stimuli/8.png,l,0,0,0,0,58,0,58,0,0,0,0,0,,,,,,,,,,,,,,,,,,138.1190607783792,138.1190607783792,138.1190607783792,138.1190607783792,l,1,0.3612047111382708,138.50932197479415,138.50932197479415,138.50932197479415,,,,,,,,,,,,,,,,,,,,,,,,,,,,120,001,2023-03-03_11h30.53.291,eb_01,2022.2.4,99.95537586264587,
,,,0,0,0,0,58,0,58,0,,,,,,,,,,,,,,,,,,,,,,,,,,,,,,,,,,,,,,,,,,,,,,,,,,,,,,,,,,,120,001,2023-03-03_11h30.53.291,eb_01,2022.2.4,99.95537586264587,
6,stimuli/6.png,s,0,0,0,0,59,0,59,0,0,0,0,0,,,,,,,,,,,,,,,,,,139.53000795986736,139.53000795986736,139.53000795986736,139.53000795986736,l,0,0.3983024429762736,139.9603165954759,139.9603165954759,139.9603165954759,,,,,,,,,,,,,,,,,,,,,,,,,,,,120,001,2023-03-03_11h30.53.291,eb_01,2022.2.4,99.95537586264587,
,,,0,0,0,0,59,0,59,0,,,,,,,,,,,,,,,,,,,,,,,,,,,,,,,,,,,,,,,,,,,,,,,,,,,,,,,,,,,120,001,2023-03-03_11h30.53.291,eb_01,2022.2.4,99.95537586264587,
5,stimuli/5.png,s,0,0,0,0,60,0,60,0,0,0,0,0,,,,,,,,,,,,,,,,,,140.96096376827336,140.96096376827336,140.96096376827336,140.96096376827336,s,1,0.5274025498074479,141.5113525398192,141.5113525398192,141.5113525398192,,,,,,,,,,,,,,,,,,,,,,,,,,,,120,001,2023-03-03_11h30.53.291,eb_01,2022.2.4,99.95537586264587,
,,,0,0,0,0,60,0,60,0,,,,,,,,,,,,,,,,,,,,,,,,,,,,,,,,,,,,,,,,,,,,,,,,,,,,,,,,,,,120,001,2023-03-03_11h30.53.291,eb_01,2022.2.4,99.95537586264587,
6,stimuli/6.png,s,0,0,0,0,61,0,61,0,0,0,0,0,,,,,,,,,,,,,,,,,,142.53202162112575,142.53202162112575,142.53202162112575,142.53202162112575,l,0,0.48438095313031226,143.0523896040395,143.0523896040395,143.0523896040395,,,,,,,,,,,,,,,,,,,,,,,,,,,,120,001,2023-03-03_11h30.53.291,eb_01,2022.2.4,99.95537586264587,
,,,0,0,0,0,61,0,61,0,,,,,,,,,,,,,,,,,,,,,,,,,,,,,,,,,,,,,,,,,,,,,,,,,,,,,,,,,,,120,001,2023-03-03_11h30.53.291,eb_01,2022.2.4,99.95537586264587,
8,stimuli/8.png,l,0,0,0,0,62,0,62,0,0,0,0,0,,,,,,,,,,,,,,,,,,144.0530403990997,144.0530403990997,144.0530403990997,144.0530403990997,l,1,0.5794688693422358,144.6534610010276,144.6534610010276,144.6534610010276,,,,,,,,,,,,,,,,,,,,,,,,,,,,120,001,2023-03-03_11h30.53.291,eb_01,2022.2.4,99.95537586264587,
,,,0,0,0,0,62,0,62,0,,,,,,,,,,,,,,,,,,,,,,,,,,,,,,,,,,,,,,,,,,,,,,,,,,,,,,,,,,,120,001,2023-03-03_11h30.53.291,eb_01,2022.2.4,99.95537586264587,
6,stimuli/6.png,s,0,0,0,0,63,0,63,0,0,0,0,0,,,,,,,,,,,,,,,,,,145.67412857306772,145.67412857306772,145.67412857306772,145.67412857306772,s,1,0.47043051559012383,146.17447102526785,146.17447102526785,146.17447102526785,,,,,,,,,,,,,,,,,,,,,,,,,,,,120,001,2023-03-03_11h30.53.291,eb_01,2022.2.4,99.95537586264587,
,,,0,0,0,0,63,0,63,0,,,,,,,,,,,,,,,,,,,,,,,,,,,,,,,,,,,,,,,,,,,,,,,,,,,,,,,,,,,120,001,2023-03-03_11h30.53.291,eb_01,2022.2.4,99.95537586264587,
8,stimuli/8.png,l,0,0,0,0,64,0,64,0,0,0,0,0,,,,,,,,,,,,,,,,,,147.17513479999616,147.17513479999616,147.17513479999616,147.17513479999616,l,1,0.32140116914524697,147.52533708675765,147.52533708675765,147.52533708675765,,,,,,,,,,,,,,,,,,,,,,,,,,,,120,001,2023-03-03_11h30.53.291,eb_01,2022.2.4,99.95537586264587,
,,,0,0,0,0,64,0,64,0,,,,,,,,,,,,,,,,,,,,,,,,,,,,,,,,,,,,,,,,,,,,,,,,,,,,,,,,,,,120,001,2023-03-03_11h30.53.291,eb_01,2022.2.4,99.95537586264587,
6,stimuli/6.png,s,0,0,0,0,65,0,65,0,0,0,0,0,,,,,,,,,,,,,,,,,,148.54600345136714,148.54600345136714,148.54600345136714,148.54600345136714,s,1,0.3425921542220749,148.92625822132686,148.92625822132686,148.92625822132686,,,,,,,,,,,,,,,,,,,,,,,,,,,,120,001,2023-03-03_11h30.53.291,eb_01,2022.2.4,99.95537586264587,
,,,0,0,0,0,65,0,65,0,,,,,,,,,,,,,,,,,,,,,,,,,,,,,,,,,,,,,,,,,,,,,,,,,,,,,,,,,,,120,001,2023-03-03_11h30.53.291,eb_01,2022.2.4,99.95537586264587,
5,stimuli/5.png,s,0,0,0,0,66,0,66,0,0,0,0,0,,,,,,,,,,,,,,,,,,149.92698629072402,149.92698629072402,149.92698629072402,149.92698629072402,s,1,0.4816561262414325,150.43731675637537,150.43731675637537,150.43731675637537,,,,,,,,,,,,,,,,,,,,,,,,,,,,120,001,2023-03-03_11h30.53.291,eb_01,2022.2.4,99.95537586264587,
,,,0,0,0,0,66,0,66,0,,,,,,,,,,,,,,,,,,,,,,,,,,,,,,,,,,,,,,,,,,,,,,,,,,,,,,,,,,,120,001,2023-03-03_11h30.53.291,eb_01,2022.2.4,99.95537586264587,
9,stimuli/9.png,l,0,0,0,0,67,0,67,0,0,0,0,0,,,,,,,,,,,,,,,,,,151.458009382186,151.458009382186,151.458009382186,151.458009382186,l,1,0.3977222815447021,151.87794906593626,151.87794906593626,151.87794906593626,,,,,,,,,,,,,,,,,,,,,,,,,,,,120,001,2023-03-03_11h30.53.291,eb_01,2022.2.4,99.95537586264587,
,,,0,0,0,0,67,0,67,0,,,,,,,,,,,,,,,,,,,,,,,,,,,,,,,,,,,,,,,,,,,,,,,,,,,,,,,,,,,120,001,2023-03-03_11h30.53.291,eb_01,2022.2.4,99.95537586264587,
6,stimuli/6.png,s,0,0,0,0,68,0,68,0,0,0,0,0,,,,,,,,,,,,,,,,,,152.89896859851433,152.89896859851433,152.89896859851433,152.89896859851433,s,1,0.42078143477556296,153.35928926902125,153.35928926902125,153.35928926902125,,,,,,,,,,,,,,,,,,,,,,,,,,,,120,001,2023-03-03_11h30.53.291,eb_01,2022.2.4,99.95537586264587,
,,,0,0,0,0,68,0,68,0,,,,,,,,,,,,,,,,,,,,,,,,,,,,,,,,,,,,,,,,,,,,,,,,,,,,,,,,,,,120,001,2023-03-03_11h30.53.291,eb_01,2022.2.4,99.95537586264587,
9,stimuli/9.png,l,0,0,0,0,69,0,69,0,0,0,0,0,,,,,,,,,,,,,,,,,,154.36993864233955,154.36993864233955,154.36993864233955,154.36993864233955,l,1,0.37382126034935936,154.7702029448119,154.7702029448119,154.7702029448119,,,,,,,,,,,,,,,,,,,,,,,,,,,,120,001,2023-03-03_11h30.53.291,eb_01,2022.2.4,99.95537586264587,
,,,0,0,0,0,69,0,69,0,,,,,,,,,,,,,,,,,,,,,,,,,,,,,,,,,,,,,,,,,,,,,,,,,,,,,,,,,,,120,001,2023-03-03_11h30.53.291,eb_01,2022.2.4,99.95537586264587,
5,stimuli/5.png,s,0,0,0,0,70,0,70,0,0,0,0,0,,,,,,,,,,,,,,,,,,155.78090152016375,155.78090152016375,155.78090152016375,155.78090152016375,s,1,0.4989344929344952,156.3012652771431,156.3012652771431,156.3012652771431,,,,,,,,,,,,,,,,,,,,,,,,,,,,120,001,2023-03-03_11h30.53.291,eb_01,2022.2.4,99.95537586264587,
,,,0,0,0,0,70,0,70,0,,,,,,,,,,,,,,,,,,,,,,,,,,,,,,,,,,,,,,,,,,,,,,,,,,,,,,,,,,,120,001,2023-03-03_11h30.53.291,eb_01,2022.2.4,99.95537586264587,
6,stimuli/6.png,s,0,0,0,0,71,0,71,0,0,0,0,0,,,,,,,,,,,,,,,,,,157.32193194361753,157.32193194361753,157.32193194361753,157.32193194361753,s,1,0.5259521462139674,157.8823111434176,157.8823111434176,157.8823111434176,,,,,,,,,,,,,,,,,,,,,,,,,,,,120,001,2023-03-03_11h30.53.291,eb_01,2022.2.4,99.95537586264587,
,,,0,0,0,0,71,0,71,0,,,,,,,,,,,,,,,,,,,,,,,,,,,,,,,,,,,,,,,,,,,,,,,,,,,,,,,,,,,120,001,2023-03-03_11h30.53.291,eb_01,2022.2.4,99.95537586264587,
9,stimuli/9.png,l,0,0,0,0,72,0,72,0,0,0,0,0,,,,,,,,,,,,,,,,,,158.89299341870355,158.89299341870355,158.89299341870355,158.89299341870355,l,1,0.37894159252755344,159.29294469961314,159.29294469961314,159.29294469961314,,,,,,,,,,,,,,,,,,,,,,,,,,,,120,001,2023-03-03_11h30.53.291,eb_01,2022.2.4,99.95537586264587,
,,,0,0,0,0,72,0,72,0,,,,,,,,,,,,,,,,,,,,,,,,,,,,,,,,,,,,,,,,,,,,,,,,,,,,,,,,,,,120,001,2023-03-03_11h30.53.291,eb_01,2022.2.4,99.95537586264587,
8,stimuli/8.png,l,0,0,0,0,73,0,73,0,0,0,0,0,,,,,,,,,,,,,,,,,,160.30360403406667,160.30360403406667,160.30360403406667,160.30360403406667,l,1,0.6323637752793729,160.96438044222305,160.96438044222305,160.96438044222305,,,,,,,,,,,,,,,,,,,,,,,,,,,,120,001,2023-03-03_11h30.53.291,eb_01,2022.2.4,99.95537586264587,
,,,0,0,0,0,73,0,73,0,,,,,,,,,,,,,,,,,,,,,,,,,,,,,,,,,,,,,,,,,,,,,,,,,,,,,,,,,,,120,001,2023-03-03_11h30.53.291,eb_01,2022.2.4,99.95537586264587,
9,stimuli/9.png,l,0,0,0,0,74,0,74,0,0,0,0,0,,,,,,,,,,,,,,,,,,161.98506280503352,161.98506280503352,161.98506280503352,161.98506280503352,l,1,0.4869696443201974,162.49539387435652,162.49539387435652,162.49539387435652,,,,,,,,,,,,,,,,,,,,,,,,,,,,120,001,2023-03-03_11h30.53.291,eb_01,2022.2.4,99.95537586264587,
,,,0,0,0,0,74,0,74,0,,,,,,,,,,,,,,,,,,,,,,,,,,,,,,,,,,,,,,,,,,,,,,,,,,,,,,,,,,,120,001,2023-03-03_11h30.53.291,eb_01,2022.2.4,99.95537586264587,
6,stimuli/6.png,s,0,0,0,0,75,0,75,0,0,0,0,0,,,,,,,,,,,,,,,,,,163.51609314096277,163.51609314096277,163.51609314096277,163.51609314096277,l,0,0.5319780373829417,164.0864736356889,164.0864736356889,164.0864736356889,,,,,,,,,,,,,,,,,,,,,,,,,,,,120,001,2023-03-03_11h30.53.291,eb_01,2022.2.4,99.95537586264587,
,,,0,0,0,0,75,0,75,0,,,,,,,,,,,,,,,,,,,,,,,,,,,,,,,,,,,,,,,,,,,,,,,,,,,,,,,,,,,120,001,2023-03-03_11h30.53.291,eb_01,2022.2.4,99.95537586264587,
5,stimuli/5.png,s,0,0,0,0,76,0,76,0,0,0,0,0,,,,,,,,,,,,,,,,,,165.08715733271674,165.08715733271674,165.08715733271674,165.08715733271674,s,1,0.5769885433546733,165.68754654194345,165.68754654194345,165.68754654194345,,,,,,,,,,,,,,,,,,,,,,,,,,,,120,001,2023-03-03_11h30.53.291,eb_01,2022.2.4,99.95537586264587,
,,,0,0,0,0,76,0,76,0,,,,,,,,,,,,,,,,,,,,,,,,,,,,,,,,,,,,,,,,,,,,,,,,,,,,,,,,,,,120,001,2023-03-03_11h30.53.291,eb_01,2022.2.4,99.95537586264587,
9,stimuli/9.png,l,0,0,0,0,77,0,77,0,0,0,0,0,,,,,,,,,,,,,,,,,,166.70823343255324,166.70823343255324,166.70823343255324,166.70823343255324,l,1,0.7149872761801817,167.44869359536096,167.44869359536096,167.44869359536096,,,,,,,,,,,,,,,,,,,,,,,,,,,,120,001,2023-03-03_11h30.53.291,eb_01,2022.2.4,99.95537586264587,
,,,0,0,0,0,77,0,77,0,,,,,,,,,,,,,,,,,,,,,,,,,,,,,,,,,,,,,,,,,,,,,,,,,,,,,,,,,,,120,001,2023-03-03_11h30.53.291,eb_01,2022.2.4,99.95537586264587,
8,stimuli/8.png,l,0,0,0,0,78,0,78,0,0,0,0,0,,,,,,,,,,,,,,,,,,168.45938734104857,168.45938734104857,168.45938734104857,168.45938734104857,l,1,0.49186177566298284,168.97972151645808,168.97972151645808,168.97972151645808,,,,,,,,,,,,,,,,,,,,,,,,,,,,120,001,2023-03-03_11h30.53.291,eb_01,2022.2.4,99.95537586264587,
,,,0,0,0,0,78,0,78,0,,,,,,,,,,,,,,,,,,,,,,,,,,,,,,,,,,,,,,,,,,,,,,,,,,,,,,,,,,,120,001,2023-03-03_11h30.53.291,eb_01,2022.2.4,99.95537586264587,
9,stimuli/9.png,l,0,0,0,0,79,0,79,0,0,0,0,0,,,,,,,,,,,,,,,,,,170.00044191276538,170.00044191276538,170.00044191276538,170.00044191276538,l,1,0.4628546093881596,170.4907498662069,170.4907498662069,170.4907498662069,,,,,,,,,,,,,,,,,,,,,,,,,,,,120,001,2023-03-03_11h30.53.291,eb_01,2022.2.4,99.95537586264587,
,,,0,0,0,0,79,0,79,0,,,,,,,,,,,,,,,,,,,,,,,,,,,,,,,,,,,,,,,,,,,,,,,,,,,,,,,,,,,120,001,2023-03-03_11h30.53.291,eb_01,2022.2.4,99.95537586264587,
5,stimuli/5.png,s,0,0,0,0,80,0,80,0,0,0,0,0,,,,,,,,,,,,,,,,,,171.50144753599307,171.50144753599307,171.50144753599307,171.50144753599307,s,1,0.4738994100771379,172.00177580109448,172.00177580109448,172.00177580109448,,,,,,,,,,,,,,,,,,,,,,,,,,,,120,001,2023-03-03_11h30.53.291,eb_01,2022.2.4,99.95537586264587,
,,,0,0,0,0,80,0,80,0,,,,,,,,,,,,,,,,,,,,,,,,,,,,,,,,,,,,,,,,,,,,,,,,,,,,,,,,,,,120,001,2023-03-03_11h30.53.291,eb_01,2022.2.4,99.95537586264587,
9,stimuli/9.png,l,0,0,0,0,81,0,81,0,0,0,0,0,,,,,,,,,,,,,,,,,,173.0224684269342,173.0224684269342,173.0224684269342,173.0224684269342,l,1,0.5129305102746002,173.5628211904259,173.5628211904259,173.5628211904259,,,,,,,,,,,,,,,,,,,,,,,,,,,,120,001,2023-03-03_11h30.53.291,eb_01,2022.2.4,99.95537586264587,
,,,0,0,0,0,81,0,81,0,,,,,,,,,,,,,,,,,,,,,,,,,,,,,,,,,,,,,,,,,,,,,,,,,,,,,,,,,,,120,001,2023-03-03_11h30.53.291,eb_01,2022.2.4,99.95537586264587,
8,stimuli/8.png,l,0,0,0,0,82,0,82,0,0,0,0,0,,,,,,,,,,,,,,,,,,174.57350708794547,174.57350708794547,174.57350708794547,174.57350708794547,l,1,0.4899063720367849,175.08385958886356,175.08385958886356,175.08385958886356,,,,,,,,,,,,,,,,,,,,,,,,,,,,120,001,2023-03-03_11h30.53.291,eb_01,2022.2.4,99.95537586264587,
,,,0,0,0,0,82,0,82,0,,,,,,,,,,,,,,,,,,,,,,,,,,,,,,,,,,,,,,,,,,,,,,,,,,,,,,,,,,,120,001,2023-03-03_11h30.53.291,eb_01,2022.2.4,99.95537586264587,
9,stimuli/9.png,l,0,0,0,0,83,0,83,0,0,0,0,0,,,,,,,,,,,,,,,,,,176.10453229237464,176.10453229237464,176.10453229237464,176.10453229237464,l,1,0.37495109607698396,176.50446878251387,176.50446878251387,176.50446878251387,,,,,,,,,,,,,,,,,,,,,,,,,,,,120,001,2023-03-03_11h30.53.291,eb_01,2022.2.4,99.95537586264587,
,,,0,0,0,0,83,0,83,0,,,,,,,,,,,,,,,,,,,,,,,,,,,,,,,,,,,,,,,,,,,,,,,,,,,,,,,,,,,120,001,2023-03-03_11h30.53.291,eb_01,2022.2.4,99.95537586264587,
6,stimuli/6.png,s,0,0,0,0,84,0,84,0,0,0,0,0,,,,,,,,,,,,,,,,,,177.52545812982135,177.52545812982135,177.52545812982135,177.52545812982135,s,1,0.48205306293675676,178.04578234406654,178.04578234406654,178.04578234406654,,,,,,,,,,,,,,,,,,,,,,,,,,,,120,001,2023-03-03_11h30.53.291,eb_01,2022.2.4,99.95537586264587,
,,,0,0,0,0,84,0,84,0,,,,,,,,,,,,,,,,,,,,,,,,,,,,,,,,,,,,,,,,,,,,,,,,,,,,,,,,,,,120,001,2023-03-03_11h30.53.291,eb_01,2022.2.4,99.95537586264587,
9,stimuli/9.png,l,0,0,0,0,85,0,85,0,0,0,0,0,,,,,,,,,,,,,,,,,,179.05653857332072,179.05653857332072,179.05653857332072,179.05653857332072,l,1,0.3750473871768918,179.45678416092414,179.45678416092414,179.45678416092414,,,,,,,,,,,,,,,,,,,,,,,,,,,,120,001,2023-03-03_11h30.53.291,eb_01,2022.2.4,99.95537586264587,
,,,0,0,0,0,85,0,85,0,,,,,,,,,,,,,,,,,,,,,,,,,,,,,,,,,,,,,,,,,,,,,,,,,,,,,,,,,,,120,001,2023-03-03_11h30.53.291,eb_01,2022.2.4,99.95537586264587,
8,stimuli/8.png,l,0,0,0,0,86,0,86,0,0,0,0,0,,,,,,,,,,,,,,,,,,180.46747156771016,180.46747156771016,180.46747156771016,180.46747156771016,l,1,0.35615078659611754,180.8476907190052,180.8476907190052,180.8476907190052,,,,,,,,,,,,,,,,,,,,,,,,,,,,120,001,2023-03-03_11h30.53.291,eb_01,2022.2.4,99.95537586264587,
,,,0,0,0,0,86,0,86,0,,,,,,,,,,,,,,,,,,,,,,,,,,,,,,,,,,,,,,,,,,,,,,,,,,,,,,,,,,,120,001,2023-03-03_11h30.53.291,eb_01,2022.2.4,99.95537586264587,
3,stimuli/3.png,l,0,0,0,0,87,0,87,0,0,0,0,0,,,,,,,,,,,,,,,,,,181.85841615925892,181.85841615925892,181.85841615925892,181.85841615925892,l,1,0.5012623831571545,182.37842161676963,182.37842161676963,182.37842161676963,183.38910238278913,183.38910238278913,183.38910238278913,,,,,,,,,,,,,,,,,,,,,,,,,120,001,2023-03-03_11h30.53.291,eb_01,2022.2.4,99.95537586264587,
,,,0,0,0,0,87,0,87,0,,,,,,,,,,,,,,,,,,,,,,,,,,,,,,,,,,,,,,,,,,,,,,,,,,,,,,,,,,,120,001,2023-03-03_11h30.53.291,eb_01,2022.2.4,99.95537586264587,
4,stimuli/4.png,l,0,0,0,0,88,0,88,0,0,0,0,0,,,,,,,,,,,,,,,,,,183.38910238278913,183.38910238278913,183.38910238278913,183.38910238278913,s,0,0.46564433464664035,183.8797254707315,183.8797254707315,183.8797254707315,,,,,,,,,,,,,,,,,,,,,,,,,,,,120,001,2023-03-03_11h30.53.291,eb_01,2022.2.4,99.95537586264587,
,,,0,0,0,0,88,0,88,0,,,,,,,,,,,,,,,,,,,,,,,,,,,,,,,,,,,,,,,,,,,,,,,,,,,,,,,,,,,120,001,2023-03-03_11h30.53.291,eb_01,2022.2.4,99.95537586264587,
1,stimuli/1.png,s,0,0,0,0,89,0,89,0,0,0,0,0,,,,,,,,,,,,,,,,,,184.90042292620637,184.90042292620637,184.90042292620637,184.90042292620637,s,1,0.7943728000973351,185.7309889216849,185.7309889216849,185.7309889216849,,,,,,,,,,,,,,,,,,,,,,,,,,,,120,001,2023-03-03_11h30.53.291,eb_01,2022.2.4,99.95537586264587,
,,,0,0,0,0,89,0,89,0,,,,,,,,,,,,,,,,,,,,,,,,,,,,,,,,,,,,,,,,,,,,,,,,,,,,,,,,,,,120,001,2023-03-03_11h30.53.291,eb_01,2022.2.4,99.95537586264587,
2,stimuli/2.png,s,0,0,0,0,90,0,90,0,0,0,0,0,,,,,,,,,,,,,,,,,,186.7316632612492,186.7316632612492,186.7316632612492,186.7316632612492,s,1,0.6111616216076072,187.36176385980798,187.36176385980798,187.36176385980798,188.3727184064628,188.3727184064628,188.3727184064628,,,,,,,,,,,,,,,,,,,,,,,,,120,001,2023-03-03_11h30.53.291,eb_01,2022.2.4,99.95537586264587,
,,,0,0,0,0,90,0,90,0,,,,,,,,,,,,,,,,,,,,,,,,,,,,,,,,,,,,,,,,,,,,,,,,,,,,,,,,,,,120,001,2023-03-03_11h30.53.291,eb_01,2022.2.4,99.95537586264587,
3,stimuli/3.png,l,0,0,0,0,91,0,91,0,0,0,0,0,,,,,,,,,,,,,,,,,,188.3727184064628,188.3727184064628,188.3727184064628,188.3727184064628,l,1,0.5221599671640433,188.91279920045054,188.91279920045054,188.91279920045054,189.92347543867072,189.92347543867072,189.92347543867072,,,,,,,,,,,,,,,,,,,,,,,,,120,001,2023-03-03_11h30.53.291,eb_01,2022.2.4,99.95537586264587,
,,,0,0,0,0,91,0,91,0,,,,,,,,,,,,,,,,,,,,,,,,,,,,,,,,,,,,,,,,,,,,,,,,,,,,,,,,,,,120,001,2023-03-03_11h30.53.291,eb_01,2022.2.4,99.95537586264587,
4,stimuli/4.png,l,0,0,0,0,92,0,92,0,0,0,0,0,,,,,,,,,,,,,,,,,,189.92347543867072,189.92347543867072,189.92347543867072,189.92347543867072,l,1,0.6354462979652453,190.5842506393965,190.5842506393965,190.5842506393965,,,,,,,,,,,,,,,,,,,,,,,,,,,,120,001,2023-03-03_11h30.53.291,eb_01,2022.2.4,99.95537586264587,
,,,0,0,0,0,92,0,92,0,,,,,,,,,,,,,,,,,,,,,,,,,,,,,,,,,,,,,,,,,,,,,,,,,,,,,,,,,,,120,001,2023-03-03_11h30.53.291,eb_01,2022.2.4,99.95537586264587,
3,stimuli/3.png,l,0,0,0,0,93,0,93,0,0,0,0,0,,,,,,,,,,,,,,,,,,191.59493864988326,191.59493864988326,191.59493864988326,191.59493864988326,l,1,0.41204671494779177,192.02485457475996,192.02485457475996,192.02485457475996,193.03588941434282,193.03588941434282,193.03588941434282,,,,,,,,,,,,,,,,,,,,,,,,,120,001,2023-03-03_11h30.53.291,eb_01,2022.2.4,99.95537586264587,
,,,0,0,0,0,93,0,93,0,,,,,,,,,,,,,,,,,,,,,,,,,,,,,,,,,,,,,,,,,,,,,,,,,,,,,,,,,,,120,001,2023-03-03_11h30.53.291,eb_01,2022.2.4,99.95537586264587,
2,stimuli/2.png,s,0,0,0,0,94,0,94,0,0,0,0,0,,,,,,,,,,,,,,,,,,193.03588941434282,193.03588941434282,193.03588941434282,193.03588941434282,s,1,0.48312313173664734,193.53590646904195,193.53590646904195,193.53590646904195,194.54657395352842,194.54657395352842,194.54657395352842,,,,,,,,,,,,,,,,,,,,,,,,,120,001,2023-03-03_11h30.53.291,eb_01,2022.2.4,99.95537586264587,
,,,0,0,0,0,94,0,94,0,,,,,,,,,,,,,,,,,,,,,,,,,,,,,,,,,,,,,,,,,,,,,,,,,,,,,,,,,,,120,001,2023-03-03_11h30.53.291,eb_01,2022.2.4,99.95537586264587,
4,stimuli/4.png,l,0,0,0,0,95,0,95,0,0,0,0,0,,,,,,,,,,,,,,,,,,194.54657395352842,194.54657395352842,194.54657395352842,194.54657395352842,l,1,0.6844820135156624,195.2573879272677,195.2573879272677,195.2573879272677,,,,,,,,,,,,,,,,,,,,,,,,,,,,120,001,2023-03-03_11h30.53.291,eb_01,2022.2.4,99.95537586264587,
,,,0,0,0,0,95,0,95,0,,,,,,,,,,,,,,,,,,,,,,,,,,,,,,,,,,,,,,,,,,,,,,,,,,,,,,,,,,,120,001,2023-03-03_11h30.53.291,eb_01,2022.2.4,99.95537586264587,
2,stimuli/2.png,s,0,0,0,0,96,0,96,0,0,0,0,0,,,,,,,,,,,,,,,,,,196.26809857672197,196.26809857672197,196.26809857672197,196.26809857672197,s,1,0.5550172682851553,196.83812439421308,196.83812439421308,196.83812439421308,197.8487891620316,197.8487891620316,197.8487891620316,,,,,,,,,,,,,,,,,,,,,,,,,120,001,2023-03-03_11h30.53.291,eb_01,2022.2.4,99.95537586264587,
,,,0,0,0,0,96,0,96,0,,,,,,,,,,,,,,,,,,,,,,,,,,,,,,,,,,,,,,,,,,,,,,,,,,,,,,,,,,,120,001,2023-03-03_11h30.53.291,eb_01,2022.2.4,99.95537586264587,
4,stimuli/4.png,l,0,0,0,0,97,0,97,0,0,0,0,0,,,,,,,,,,,,,,,,,,197.8487891620316,197.8487891620316,197.8487891620316,197.8487891620316,l,1,0.813413988245884,198.6896918111015,198.6896918111015,198.6896918111015,,,,,,,,,,,,,,,,,,,,,,,,,,,,120,001,2023-03-03_11h30.53.291,eb_01,2022.2.4,99.95537586264587,
,,,0,0,0,0,97,0,97,0,,,,,,,,,,,,,,,,,,,,,,,,,,,,,,,,,,,,,,,,,,,,,,,,,,,,,,,,,,,120,001,2023-03-03_11h30.53.291,eb_01,2022.2.4,99.95537586264587,
1,stimuli/1.png,s,0,0,0,0,98,0,98,0,0,0,0,0,,,,,,,,,,,,,,,,,,199.7103494219773,199.7103494219773,199.7103494219773,199.7103494219773,s,1,0.6719037996372208,200.41050798536162,200.41050798536162,200.41050798536162,,,,,,,,,,,,,,,,,,,,,,,,,,,,120,001,2023-03-03_11h30.53.291,eb_01,2022.2.4,99.95537586264587,
,,,0,0,0,0,98,0,98,0,,,,,,,,,,,,,,,,,,,,,,,,,,,,,,,,,,,,,,,,,,,,,,,,,,,,,,,,,,,120,001,2023-03-03_11h30.53.291,eb_01,2022.2.4,99.95537586264587,
4,stimuli/4.png,l,0,0,0,0,99,0,99,0,0,0,0,0,,,,,,,,,,,,,,,,,,201.42119750511483,201.42119750511483,201.42119750511483,201.42119750511483,l,1,0.5770872492576018,202.02191965820384,202.02191965820384,202.02191965820384,,,,,,,,,,,,,,,,,,,,,,,,,,,,120,001,2023-03-03_11h30.53.291,eb_01,2022.2.4,99.95537586264587,
,,,0,0,0,0,99,0,99,0,,,,,,,,,,,,,,,,,,,,,,,,,,,,,,,,,,,,,,,,,,,,,,,,,,,,,,,,,,,120,001,2023-03-03_11h30.53.291,eb_01,2022.2.4,99.95537586264587,
,,,0,0,0,0,,,,,,,,,,,,,,,,,,,,,,,,,,,,,,,,,,,,,,,203.02258131993585,203.02258131993585,return,5.823952581471531,,,,,,,,,,,,,,,,,,,,,120,001,2023-03-03_11h30.53.291,eb_01,2022.2.4,99.95537586264587,
2,stimuli/2.png,s,1,0,1,0,0,0,0,0,0,0,0,0,,,,,,,,,,,,,,,,,,208.86651517672,208.86651517672,208.86651517672,208.86651517672,s,1,1.7160534209106117,210.5973483422713,210.5973483422713,210.5973483422713,211.61835127294762,211.61835127294762,211.61835127294762,,,,,,,,,,,,,,,,,,,,,,,,,120,001,2023-03-03_11h30.53.291,eb_01,2022.2.4,99.95537586264587,
,,,1,0,1,0,0,0,0,0,,,,,,,,,,,,,,,,,,,,,,,,,,,,,,,,,,,,,,,,,,,,,,,,,,,,,,,,,,,120,001,2023-03-03_11h30.53.291,eb_01,2022.2.4,99.95537586264587,
1,stimuli/1.png,s,1,0,1,0,1,0,1,0,0,0,0,0,,,,,,,,,,,,,,,,,,211.61835127294762,211.61835127294762,211.61835127294762,211.61835127294762,s,1,0.6762399177823681,212.3288289824559,212.3288289824559,212.3288289824559,,,,,,,,,,,,,,,,,,,,,,,,,,,,120,001,2023-03-03_11h30.53.291,eb_01,2022.2.4,99.95537586264587,
,,,1,0,1,0,1,0,1,0,,,,,,,,,,,,,,,,,,,,,,,,,,,,,,,,,,,,,,,,,,,,,,,,,,,,,,,,,,,120,001,2023-03-03_11h30.53.291,eb_01,2022.2.4,99.95537586264587,
4,stimuli/4.png,l,1,0,1,0,2,0,2,0,0,0,0,0,,,,,,,,,,,,,,,,,,213.32919211161789,213.32919211161789,213.32919211161789,213.32919211161789,l,1,0.5485564069822431,213.899895589042,213.899895589042,213.899895589042,,,,,,,,,,,,,,,,,,,,,,,,,,,,120,001,2023-03-03_11h30.53.291,eb_01,2022.2.4,99.95537586264587,
,,,1,0,1,0,2,0,2,0,,,,,,,,,,,,,,,,,,,,,,,,,,,,,,,,,,,,,,,,,,,,,,,,,,,,,,,,,,,120,001,2023-03-03_11h30.53.291,eb_01,2022.2.4,99.95537586264587,
2,stimuli/2.png,s,1,0,1,0,3,0,3,0,0,0,0,0,,,,,,,,,,,,,,,,,,214.91057454393012,214.91057454393012,214.91057454393012,214.91057454393012,s,1,0.5751270159962587,215.5006114032003,215.5006114032003,215.5006114032003,216.52165689517278,216.52165689517278,216.52165689517278,,,,,,,,,,,,,,,,,,,,,,,,,120,001,2023-03-03_11h30.53.291,eb_01,2022.2.4,99.95537586264587,
,,,1,0,1,0,3,0,3,0,,,,,,,,,,,,,,,,,,,,,,,,,,,,,,,,,,,,,,,,,,,,,,,,,,,,,,,,,,,120,001,2023-03-03_11h30.53.291,eb_01,2022.2.4,99.95537586264587,
1,stimuli/1.png,s,1,0,1,0,4,0,4,0,0,0,0,0,,,,,,,,,,,,,,,,,,216.52165689517278,216.52165689517278,216.52165689517278,216.52165689517278,s,1,0.5000857602572069,217.04167201198288,217.04167201198288,217.04167201198288,,,,,,,,,,,,,,,,,,,,,,,,,,,,120,001,2023-03-03_11h30.53.291,eb_01,2022.2.4,99.95537586264587,
,,,1,0,1,0,4,0,4,0,,,,,,,,,,,,,,,,,,,,,,,,,,,,,,,,,,,,,,,,,,,,,,,,,,,,,,,,,,,120,001,2023-03-03_11h30.53.291,eb_01,2022.2.4,99.95537586264587,
4,stimuli/4.png,l,1,0,1,0,5,0,5,0,0,0,0,0,,,,,,,,,,,,,,,,,,218.05234704277245,218.05234704277245,218.05234704277245,218.05234704277245,s,0,0.4094492700241972,218.48296356844367,218.48296356844367,218.48296356844367,,,,,,,,,,,,,,,,,,,,,,,,,,,,120,001,2023-03-03_11h30.53.291,eb_01,2022.2.4,99.95537586264587,
,,,1,0,1,0,5,0,5,0,,,,,,,,,,,,,,,,,,,,,,,,,,,,,,,,,,,,,,,,,,,,,,,,,,,,,,,,,,,120,001,2023-03-03_11h30.53.291,eb_01,2022.2.4,99.95537586264587,
3,stimuli/3.png,l,1,0,1,0,6,0,6,0,0,0,0,0,,,,,,,,,,,,,,,,,,219.49362924182788,219.49362924182788,219.49362924182788,219.49362924182788,l,1,0.48024828391498886,219.99399372929474,219.99399372929474,219.99399372929474,,,,,,,,,,,,,,,,,,,,,,,,,,,,120,001,2023-03-03_11h30.53.291,eb_01,2022.2.4,99.95537586264587,
,,,1,0,1,0,6,0,6,0,,,,,,,,,,,,,,,,,,,,,,,,,,,,,,,,,,,,,,,,,,,,,,,,,,,,,,,,,,,120,001,2023-03-03_11h30.53.291,eb_01,2022.2.4,99.95537586264587,
2,stimuli/2.png,s,1,0,1,0,7,0,7,0,0,0,0,0,,,,,,,,,,,,,,,,,,221.00466181748197,221.00466181748197,221.00466181748197,221.00466181748197,l,0,0.553254446858773,221.58504662572523,221.58504662572523,221.58504662572523,,,,,,,,,,,,,,,,,,,,,,,,,,,,120,001,2023-03-03_11h30.53.291,eb_01,2022.2.4,99.95537586264587,
,,,1,0,1,0,7,0,7,0,,,,,,,,,,,,,,,,,,,,,,,,,,,,,,,,,,,,,,,,,,,,,,,,,,,,,,,,,,,120,001,2023-03-03_11h30.53.291,eb_01,2022.2.4,99.95537586264587,
3,stimuli/3.png,l,1,0,1,0,8,0,8,0,0,0,0,0,,,,,,,,,,,,,,,,,,222.5957216565148,222.5957216565148,222.5957216565148,222.5957216565148,l,1,0.498245362599846,223.1160772634903,223.1160772634903,223.1160772634903,,,,,,,,,,,,,,,,,,,,,,,,,,,,120,001,2023-03-03_11h30.53.291,eb_01,2022.2.4,99.95537586264587,
,,,1,0,1,0,8,0,8,0,,,,,,,,,,,,,,,,,,,,,,,,,,,,,,,,,,,,,,,,,,,,,,,,,,,,,,,,,,,120,001,2023-03-03_11h30.53.291,eb_01,2022.2.4,99.95537586264587,
4,stimuli/4.png,l,1,0,1,0,9,0,9,0,0,0,0,0,,,,,,,,,,,,,,,,,,224.12641361524584,224.12641361524584,224.12641361524584,224.12641361524584,l,1,0.6235892108816188,224.77718993584858,224.77718993584858,224.77718993584858,,,,,,,,,,,,,,,,,,,,,,,,,,,,120,001,2023-03-03_11h30.53.291,eb_01,2022.2.4,99.95537586264587,
,,,1,0,1,0,9,0,9,0,,,,,,,,,,,,,,,,,,,,,,,,,,,,,,,,,,,,,,,,,,,,,,,,,,,,,,,,,,,120,001,2023-03-03_11h30.53.291,eb_01,2022.2.4,99.95537586264587,
2,stimuli/2.png,s,1,0,1,0,10,0,10,0,0,0,0,0,,,,,,,,,,,,,,,,,,225.78786043886794,225.78786043886794,225.78786043886794,225.78786043886794,s,1,0.6422135400353,226.4483479736955,226.4483479736955,226.4483479736955,227.46864939804072,227.46864939804072,227.46864939804072,,,,,,,,,,,,,,,,,,,,,,,,,120,001,2023-03-03_11h30.53.291,eb_01,2022.2.4,99.95537586264587,
,,,1,0,1,0,10,0,10,0,,,,,,,,,,,,,,,,,,,,,,,,,,,,,,,,,,,,,,,,,,,,,,,,,,,,,,,,,,,120,001,2023-03-03_11h30.53.291,eb_01,2022.2.4,99.95537586264587,
1,stimuli/1.png,s,1,0,1,0,11,0,11,0,0,0,0,0,,,,,,,,,,,,,,,,,,227.46864939804072,227.46864939804072,227.46864939804072,227.46864939804072,s,1,0.5295004280633293,228.02937240840402,228.02937240840402,228.02937240840402,,,,,,,,,,,,,,,,,,,,,,,,,,,,120,001,2023-03-03_11h30.53.291,eb_01,2022.2.4,99.95537586264587,
,,,1,0,1,0,11,0,11,0,,,,,,,,,,,,,,,,,,,,,,,,,,,,,,,,,,,,,,,,,,,,,,,,,,,,,,,,,,,120,001,2023-03-03_11h30.53.291,eb_01,2022.2.4,99.95537586264587,
2,stimuli/2.png,s,1,0,1,0,12,0,12,0,0,0,0,0,,,,,,,,,,,,,,,,,,229.03004765353398,229.03004765353398,229.03004765353398,229.03004765353398,s,1,0.7511320581252221,229.80022463898058,229.80022463898058,229.80022463898058,230.82125594385434,230.82125594385434,230.82125594385434,,,,,,,,,,,,,,,,,,,,,,,,,120,001,2023-03-03_11h30.53.291,eb_01,2022.2.4,99.95537586264587,
,,,1,0,1,0,12,0,12,0,,,,,,,,,,,,,,,,,,,,,,,,,,,,,,,,,,,,,,,,,,,,,,,,,,,,,,,,,,,120,001,2023-03-03_11h30.53.291,eb_01,2022.2.4,99.95537586264587,
1,stimuli/1.png,s,1,0,1,0,13,0,13,0,0,0,0,0,,,,,,,,,,,,,,,,,,230.82125594385434,230.82125594385434,230.82125594385434,230.82125594385434,s,1,0.5679803447274026,231.4216511901468,231.4216511901468,231.4216511901468,,,,,,,,,,,,,,,,,,,,,,,,,,,,120,001,2023-03-03_11h30.53.291,eb_01,2022.2.4,99.95537586264587,
,,,1,0,1,0,13,0,13,0,,,,,,,,,,,,,,,,,,,,,,,,,,,,,,,,,,,,,,,,,,,,,,,,,,,,,,,,,,,120,001,2023-03-03_11h30.53.291,eb_01,2022.2.4,99.95537586264587,
2,stimuli/2.png,s,1,0,1,0,14,0,14,0,0,0,0,0,,,,,,,,,,,,,,,,,,232.42232583157602,232.42232583157602,232.42232583157602,232.42232583157602,s,1,0.4469496737292502,232.8822936359211,232.8822936359211,232.8822936359211,233.90332071486046,233.90332071486046,233.90332071486046,,,,,,,,,,,,,,,,,,,,,,,,,120,001,2023-03-03_11h30.53.291,eb_01,2022.2.4,99.95537586264587,
,,,1,0,1,0,14,0,14,0,,,,,,,,,,,,,,,,,,,,,,,,,,,,,,,,,,,,,,,,,,,,,,,,,,,,,,,,,,,120,001,2023-03-03_11h30.53.291,eb_01,2022.2.4,99.95537586264587,
1,stimuli/1.png,s,1,0,1,0,15,0,15,0,0,0,0,0,,,,,,,,,,,,,,,,,,233.90332071486046,233.90332071486046,233.90332071486046,233.90332071486046,s,1,0.5180034515506122,234.45369952527108,234.45369952527108,234.45369952527108,,,,,,,,,,,,,,,,,,,,,,,,,,,,120,001,2023-03-03_11h30.53.291,eb_01,2022.2.4,99.95537586264587,
,,,1,0,1,0,15,0,15,0,,,,,,,,,,,,,,,,,,,,,,,,,,,,,,,,,,,,,,,,,,,,,,,,,,,,,,,,,,,120,001,2023-03-03_11h30.53.291,eb_01,2022.2.4,99.95537586264587,
2,stimuli/2.png,s,1,0,1,0,16,0,16,0,0,0,0,0,,,,,,,,,,,,,,,,,,235.45437929820037,235.45437929820037,235.45437929820037,235.45437929820037,s,1,0.5189883978746366,235.98438031543628,235.98438031543628,235.98438031543628,236.99538738452247,236.99538738452247,236.99538738452247,,,,,,,,,,,,,,,,,,,,,,,,,120,001,2023-03-03_11h30.53.291,eb_01,2022.2.4,99.95537586264587,
,,,1,0,1,0,16,0,16,0,,,,,,,,,,,,,,,,,,,,,,,,,,,,,,,,,,,,,,,,,,,,,,,,,,,,,,,,,,,120,001,2023-03-03_11h30.53.291,eb_01,2022.2.4,99.95537586264587,
3,stimuli/3.png,l,1,0,1,0,17,0,17,0,0,0,0,0,,,,,,,,,,,,,,,,,,236.99538738452247,236.99538738452247,236.99538738452247,236.99538738452247,l,1,0.37803392062778585,237.38531684450572,237.38531684450572,237.38531684450572,238.39599247902515,238.39599247902515,238.39599247902515,,,,,,,,,,,,,,,,,,,,,,,,,120,001,2023-03-03_11h30.53.291,eb_01,2022.2.4,99.95537586264587,
,,,1,0,1,0,17,0,17,0,,,,,,,,,,,,,,,,,,,,,,,,,,,,,,,,,,,,,,,,,,,,,,,,,,,,,,,,,,,120,001,2023-03-03_11h30.53.291,eb_01,2022.2.4,99.95537586264587,
4,stimuli/4.png,l,1,0,1,0,18,0,18,0,0,0,0,0,,,,,,,,,,,,,,,,,,238.39599247902515,238.39599247902515,238.39599247902515,238.39599247902515,l,1,0.481459921807982,238.9066700755793,238.9066700755793,238.9066700755793,,,,,,,,,,,,,,,,,,,,,,,,,,,,120,001,2023-03-03_11h30.53.291,eb_01,2022.2.4,99.95537586264587,
,,,1,0,1,0,18,0,18,0,,,,,,,,,,,,,,,,,,,,,,,,,,,,,,,,,,,,,,,,,,,,,,,,,,,,,,,,,,,120,001,2023-03-03_11h30.53.291,eb_01,2022.2.4,99.95537586264587,
3,stimuli/3.png,l,1,0,1,0,19,0,19,0,0,0,0,0,,,,,,,,,,,,,,,,,,239.91735657679965,239.91735657679965,239.91735657679965,239.91735657679965,l,1,0.49616468997555785,240.427380057954,240.427380057954,240.427380057954,241.43803214794025,241.43803214794025,241.43803214794025,,,,,,,,,,,,,,,,,,,,,,,,,120,001,2023-03-03_11h30.53.291,eb_01,2022.2.4,99.95537586264587,
,,,1,0,1,0,19,0,19,0,,,,,,,,,,,,,,,,,,,,,,,,,,,,,,,,,,,,,,,,,,,,,,,,,,,,,,,,,,,120,001,2023-03-03_11h30.53.291,eb_01,2022.2.4,99.95537586264587,
4,stimuli/4.png,l,1,0,1,0,20,0,20,0,0,0,0,0,,,,,,,,,,,,,,,,,,241.43803214794025,241.43803214794025,241.43803214794025,241.43803214794025,l,1,0.5675203207647428,242.02872402817593,242.02872402817593,242.02872402817593,,,,,,,,,,,,,,,,,,,,,,,,,,,,120,001,2023-03-03_11h30.53.291,eb_01,2022.2.4,99.95537586264587,
,,,1,0,1,0,20,0,20,0,,,,,,,,,,,,,,,,,,,,,,,,,,,,,,,,,,,,,,,,,,,,,,,,,,,,,,,,,,,120,001,2023-03-03_11h30.53.291,eb_01,2022.2.4,99.95537586264587,
2,stimuli/2.png,s,1,0,1,0,21,0,21,0,0,0,0,0,,,,,,,,,,,,,,,,,,243.03945399622899,243.03945399622899,243.03945399622899,243.03945399622899,s,1,0.5332557810179424,243.589490203507,243.589490203507,243.589490203507,244.61050430274918,244.61050430274918,244.61050430274918,,,,,,,,,,,,,,,,,,,,,,,,,120,001,2023-03-03_11h30.53.291,eb_01,2022.2.4,99.95537586264587,
,,,1,0,1,0,21,0,21,0,,,,,,,,,,,,,,,,,,,,,,,,,,,,,,,,,,,,,,,,,,,,,,,,,,,,,,,,,,,120,001,2023-03-03_11h30.53.291,eb_01,2022.2.4,99.95537586264587,
1,stimuli/1.png,s,1,0,1,0,22,0,22,0,0,0,0,0,,,,,,,,,,,,,,,,,,244.61050430274918,244.61050430274918,244.61050430274918,244.61050430274918,l,0,0.4741979426762555,245.1208474462037,245.1208474462037,245.1208474462037,,,,,,,,,,,,,,,,,,,,,,,,,,,,120,001,2023-03-03_11h30.53.291,eb_01,2022.2.4,99.95537586264587,
,,,1,0,1,0,22,0,22,0,,,,,,,,,,,,,,,,,,,,,,,,,,,,,,,,,,,,,,,,,,,,,,,,,,,,,,,,,,,120,001,2023-03-03_11h30.53.291,eb_01,2022.2.4,99.95537586264587,
4,stimuli/4.png,l,1,0,1,0,23,0,23,0,0,0,0,0,,,,,,,,,,,,,,,,,,246.12120544383652,246.12120544383652,246.12120544383652,246.12120544383652,l,1,0.6755459577543661,246.82198642808362,246.82198642808362,246.82198642808362,,,,,,,,,,,,,,,,,,,,,,,,,,,,120,001,2023-03-03_11h30.53.291,eb_01,2022.2.4,99.95537586264587,
,,,1,0,1,0,23,0,23,0,,,,,,,,,,,,,,,,,,,,,,,,,,,,,,,,,,,,,,,,,,,,,,,,,,,,,,,,,,,120,001,2023-03-03_11h30.53.291,eb_01,2022.2.4,99.95537586264587,
3,stimuli/3.png,l,1,0,1,0,24,0,24,0,0,0,0,0,,,,,,,,,,,,,,,,,,247.83267594783683,247.83267594783683,247.83267594783683,247.83267594783683,l,1,0.48408664646558464,248.33267006170354,248.33267006170354,248.33267006170354,249.34368497895775,249.34368497895775,249.34368497895775,,,,,,,,,,,,,,,,,,,,,,,,,120,001,2023-03-03_11h30.53.291,eb_01,2022.2.4,99.95537586264587,
,,,1,0,1,0,24,0,24,0,,,,,,,,,,,,,,,,,,,,,,,,,,,,,,,,,,,,,,,,,,,,,,,,,,,,,,,,,,,120,001,2023-03-03_11h30.53.291,eb_01,2022.2.4,99.95537586264587,
2,stimuli/2.png,s,1,0,1,0,25,0,25,0,0,0,0,0,,,,,,,,,,,,,,,,,,249.34368497895775,249.34368497895775,249.34368497895775,249.34368497895775,s,1,0.9571283073164523,250.31401796205319,250.31401796205319,250.31401796205319,251.33502662795945,251.33502662795945,251.33502662795945,,,,,,,,,,,,,,,,,,,,,,,,,120,001,2023-03-03_11h30.53.291,eb_01,2022.2.4,99.95537586264587,
,,,1,0,1,0,25,0,25,0,,,,,,,,,,,,,,,,,,,,,,,,,,,,,,,,,,,,,,,,,,,,,,,,,,,,,,,,,,,120,001,2023-03-03_11h30.53.291,eb_01,2022.2.4,99.95537586264587,
1,stimuli/1.png,s,1,0,1,0,26,0,26,0,0,0,0,0,,,,,,,,,,,,,,,,,,251.33502662795945,251.33502662795945,251.33502662795945,251.33502662795945,l,0,0.6058565554267261,251.97545935231028,251.97545935231028,251.97545935231028,,,,,,,,,,,,,,,,,,,,,,,,,,,,120,001,2023-03-03_11h30.53.291,eb_01,2022.2.4,99.95537586264587,
,,,1,0,1,0,26,0,26,0,,,,,,,,,,,,,,,,,,,,,,,,,,,,,,,,,,,,,,,,,,,,,,,,,,,,,,,,,,,120,001,2023-03-03_11h30.53.291,eb_01,2022.2.4,99.95537586264587,
4,stimuli/4.png,l,1,0,1,0,27,0,27,0,0,0,0,0,,,,,,,,,,,,,,,,,,252.9757847498404,252.9757847498404,252.9757847498404,252.9757847498404,s,0,0.8691592919349205,253.86668964772252,253.86668964772252,253.86668964772252,,,,,,,,,,,,,,,,,,,,,,,,,,,,120,001,2023-03-03_11h30.53.291,eb_01,2022.2.4,99.95537586264587,
,,,1,0,1,0,27,0,27,0,,,,,,,,,,,,,,,,,,,,,,,,,,,,,,,,,,,,,,,,,,,,,,,,,,,,,,,,,,,120,001,2023-03-03_11h30.53.291,eb_01,2022.2.4,99.95537586264587,
3,stimuli/3.png,l,1,0,1,0,28,0,28,0,0,0,0,0,,,,,,,,,,,,,,,,,,254.87740814537392,254.87740814537392,254.87740814537392,254.87740814537392,l,1,0.5275936227408238,255.42777276868583,255.42777276868583,255.42777276868583,,,,,,,,,,,,,,,,,,,,,,,,,,,,120,001,2023-03-03_11h30.53.291,eb_01,2022.2.4,99.95537586264587,
,,,1,0,1,0,28,0,28,0,,,,,,,,,,,,,,,,,,,,,,,,,,,,,,,,,,,,,,,,,,,,,,,,,,,,,,,,,,,120,001,2023-03-03_11h30.53.291,eb_01,2022.2.4,99.95537586264587,
8,stimuli/8.png,l,1,0,1,0,29,0,29,0,0,0,0,0,,,,,,,,,,,,,,,,,,256.4384481013403,256.4384481013403,256.4384481013403,256.4384481013403,l,1,0.47856424609199166,256.9387703294051,256.9387703294051,256.9387703294051,,,,,,,,,,,,,,,,,,,,,,,,,,,,120,001,2023-03-03_11h30.53.291,eb_01,2022.2.4,99.95537586264587,
,,,1,0,1,0,29,0,29,0,,,,,,,,,,,,,,,,,,,,,,,,,,,,,,,,,,,,,,,,,,,,,,,,,,,,,,,,,,,120,001,2023-03-03_11h30.53.291,eb_01,2022.2.4,99.95537586264587,
3,stimuli/3.png,l,1,0,1,0,30,0,30,0,0,0,0,0,,,,,,,,,,,,,,,,,,257.94946679178975,257.94946679178975,257.94946679178975,257.94946679178975,l,1,0.41562759689986706,258.37943372983136,258.37943372983136,258.37943372983136,259.3901244569861,259.3901244569861,259.3901244569861,,,,,,,,,,,,,,,,,,,,,,,,,120,001,2023-03-03_11h30.53.291,eb_01,2022.2.4,99.95537586264587,
,,,1,0,1,0,30,0,30,0,,,,,,,,,,,,,,,,,,,,,,,,,,,,,,,,,,,,,,,,,,,,,,,,,,,,,,,,,,,120,001,2023-03-03_11h30.53.291,eb_01,2022.2.4,99.95537586264587,
8,stimuli/8.png,l,1,0,1,0,31,0,31,0,0,0,0,0,,,,,,,,,,,,,,,,,,259.3901244569861,259.3901244569861,259.3901244569861,259.3901244569861,l,1,0.39099941184394993,259.8107101061323,259.8107101061323,259.8107101061323,,,,,,,,,,,,,,,,,,,,,,,,,,,,120,001,2023-03-03_11h30.53.291,eb_01,2022.2.4,99.95537586264587,
,,,1,0,1,0,31,0,31,0,,,,,,,,,,,,,,,,,,,,,,,,,,,,,,,,,,,,,,,,,,,,,,,,,,,,,,,,,,,120,001,2023-03-03_11h30.53.291,eb_01,2022.2.4,99.95537586264587,
6,stimuli/6.png,s,1,0,1,0,32,0,32,0,0,0,0,0,,,,,,,,,,,,,,,,,,260.83140363750863,260.83140363750863,260.83140363750863,260.83140363750863,s,1,0.5087507520220242,261.3717582121317,261.3717582121317,261.3717582121317,,,,,,,,,,,,,,,,,,,,,,,,,,,,120,001,2023-03-03_11h30.53.291,eb_01,2022.2.4,99.95537586264587,
,,,1,0,1,0,32,0,32,0,,,,,,,,,,,,,,,,,,,,,,,,,,,,,,,,,,,,,,,,,,,,,,,,,,,,,,,,,,,120,001,2023-03-03_11h30.53.291,eb_01,2022.2.4,99.95537586264587,
5,stimuli/5.png,s,1,0,1,0,33,0,33,0,0,0,0,0,,,,,,,,,,,,,,,,,,262.37243889059755,262.37243889059755,262.37243889059755,262.37243889059755,s,1,0.4877985326165799,262.88276754511753,262.88276754511753,262.88276754511753,,,,,,,,,,,,,,,,,,,,,,,,,,,,120,001,2023-03-03_11h30.53.291,eb_01,2022.2.4,99.95537586264587,
,,,1,0,1,0,33,0,33,0,,,,,,,,,,,,,,,,,,,,,,,,,,,,,,,,,,,,,,,,,,,,,,,,,,,,,,,,,,,120,001,2023-03-03_11h30.53.291,eb_01,2022.2.4,99.95537586264587,
6,stimuli/6.png,s,1,0,1,0,34,0,34,0,0,0,0,0,,,,,,,,,,,,,,,,,,263.9034541338915,263.9034541338915,263.9034541338915,263.9034541338915,s,1,0.4288209871738218,264.36375458023394,264.36375458023394,264.36375458023394,,,,,,,,,,,,,,,,,,,,,,,,,,,,120,001,2023-03-03_11h30.53.291,eb_01,2022.2.4,99.95537586264587,
,,,1,0,1,0,34,0,34,0,,,,,,,,,,,,,,,,,,,,,,,,,,,,,,,,,,,,,,,,,,,,,,,,,,,,,,,,,,,120,001,2023-03-03_11h30.53.291,eb_01,2022.2.4,99.95537586264587,
9,stimuli/9.png,l,1,0,1,0,35,0,35,0,0,0,0,0,,,,,,,,,,,,,,,,,,265.3744326295855,265.3744326295855,265.3744326295855,265.3744326295855,l,1,0.501880879921373,265.90444481538725,265.90444481538725,265.90444481538725,,,,,,,,,,,,,,,,,,,,,,,,,,,,120,001,2023-03-03_11h30.53.291,eb_01,2022.2.4,99.95537586264587,
,,,1,0,1,0,35,0,35,0,,,,,,,,,,,,,,,,,,,,,,,,,,,,,,,,,,,,,,,,,,,,,,,,,,,,,,,,,,,120,001,2023-03-03_11h30.53.291,eb_01,2022.2.4,99.95537586264587,
6,stimuli/6.png,s,1,0,1,0,36,0,36,0,0,0,0,0,,,,,,,,,,,,,,,,,,266.9254930240277,266.9254930240277,266.9254930240277,266.9254930240277,s,1,0.5588993995334022,267.5158797308977,267.5158797308977,267.5158797308977,,,,,,,,,,,,,,,,,,,,,,,,,,,,120,001,2023-03-03_11h30.53.291,eb_01,2022.2.4,99.95537586264587,
,,,1,0,1,0,36,0,36,0,,,,,,,,,,,,,,,,,,,,,,,,,,,,,,,,,,,,,,,,,,,,,,,,,,,,,,,,,,,120,001,2023-03-03_11h30.53.291,eb_01,2022.2.4,99.95537586264587,
8,stimuli/8.png,l,1,0,1,0,37,0,37,0,0,0,0,0,,,,,,,,,,,,,,,,,,268.5065509644046,268.5065509644046,268.5065509644046,268.5065509644046,l,1,0.4738816007738933,269.00686232573935,269.00686232573935,269.00686232573935,,,,,,,,,,,,,,,,,,,,,,,,,,,,120,001,2023-03-03_11h30.53.291,eb_01,2022.2.4,99.95537586264587,
,,,1,0,1,0,37,0,37,0,,,,,,,,,,,,,,,,,,,,,,,,,,,,,,,,,,,,,,,,,,,,,,,,,,,,,,,,,,,120,001,2023-03-03_11h30.53.291,eb_01,2022.2.4,99.95537586264587,
9,stimuli/9.png,l,1,0,1,0,38,0,38,0,0,0,0,0,,,,,,,,,,,,,,,,,,270.0275474052469,270.0275474052469,270.0275474052469,270.0275474052469,l,1,0.44093344191787764,270.49755514174467,270.49755514174467,270.49755514174467,,,,,,,,,,,,,,,,,,,,,,,,,,,,120,001,2023-03-03_11h30.53.291,eb_01,2022.2.4,99.95537586264587,
,,,1,0,1,0,38,0,38,0,,,,,,,,,,,,,,,,,,,,,,,,,,,,,,,,,,,,,,,,,,,,,,,,,,,,,,,,,,,120,001,2023-03-03_11h30.53.291,eb_01,2022.2.4,99.95537586264587,
6,stimuli/6.png,s,1,0,1,0,39,0,39,0,0,0,0,0,,,,,,,,,,,,,,,,,,271.51856742988457,271.51856742988457,271.51856742988457,271.51856742988457,s,1,0.4459583885327447,271.9988771068747,271.9988771068747,271.9988771068747,,,,,,,,,,,,,,,,,,,,,,,,,,,,120,001,2023-03-03_11h30.53.291,eb_01,2022.2.4,99.95537586264587,
,,,1,0,1,0,39,0,39,0,,,,,,,,,,,,,,,,,,,,,,,,,,,,,,,,,,,,,,,,,,,,,,,,,,,,,,,,,,,120,001,2023-03-03_11h30.53.291,eb_01,2022.2.4,99.95537586264587,
8,stimuli/8.png,l,1,0,1,0,40,0,40,0,0,0,0,0,,,,,,,,,,,,,,,,,,272.9995825373044,272.9995825373044,272.9995825373044,272.9995825373044,l,1,0.47699249762808904,273.49990929316846,273.49990929316846,273.49990929316846,,,,,,,,,,,,,,,,,,,,,,,,,,,,120,001,2023-03-03_11h30.53.291,eb_01,2022.2.4,99.95537586264587,
,,,1,0,1,0,40,0,40,0,,,,,,,,,,,,,,,,,,,,,,,,,,,,,,,,,,,,,,,,,,,,,,,,,,,,,,,,,,,120,001,2023-03-03_11h30.53.291,eb_01,2022.2.4,99.95537586264587,
3,stimuli/3.png,l,1,0,1,0,41,0,41,0,0,0,0,0,,,,,,,,,,,,,,,,,,274.5105915684544,274.5105915684544,274.5105915684544,274.5105915684544,l,1,0.4380392754683271,274.9605770946073,274.9605770946073,274.9605770946073,275.9712213363964,275.9712213363964,275.9712213363964,,,,,,,,,,,,,,,,,,,,,,,,,120,001,2023-03-03_11h30.53.291,eb_01,2022.2.4,99.95537586264587,
,,,1,0,1,0,41,0,41,0,,,,,,,,,,,,,,,,,,,,,,,,,,,,,,,,,,,,,,,,,,,,,,,,,,,,,,,,,,,120,001,2023-03-03_11h30.53.291,eb_01,2022.2.4,99.95537586264587,
4,stimuli/4.png,l,1,0,1,0,42,0,42,0,0,0,0,0,,,,,,,,,,,,,,,,,,275.9712213363964,275.9712213363964,275.9712213363964,275.9712213363964,s,0,0.5124188695044722,276.5119179104804,276.5119179104804,276.5119179104804,,,,,,,,,,,,,,,,,,,,,,,,,,,,120,001,2023-03-03_11h30.53.291,eb_01,2022.2.4,99.95537586264587,
,,,1,0,1,0,42,0,42,0,,,,,,,,,,,,,,,,,,,,,,,,,,,,,,,,,,,,,,,,,,,,,,,,,,,,,,,,,,,120,001,2023-03-03_11h30.53.291,eb_01,2022.2.4,99.95537586264587,
2,stimuli/2.png,s,1,0,1,0,43,0,43,0,0,0,0,0,,,,,,,,,,,,,,,,,,277.5226092413359,277.5226092413359,277.5226092413359,277.5226092413359,s,1,0.4491103374166414,277.9929133974656,277.9929133974656,277.9929133974656,,,,,,,,,,,,,,,,,,,,,,,,,,,,120,001,2023-03-03_11h30.53.291,eb_01,2022.2.4,99.95537586264587,
,,,1,0,1,0,43,0,43,0,,,,,,,,,,,,,,,,,,,,,,,,,,,,,,,,,,,,,,,,,,,,,,,,,,,,,,,,,,,120,001,2023-03-03_11h30.53.291,eb_01,2022.2.4,99.95537586264587,
4,stimuli/4.png,l,1,0,1,0,44,0,44,0,0,0,0,0,,,,,,,,,,,,,,,,,,279.0032772178529,279.0032772178529,279.0032772178529,279.0032772178529,l,1,0.5284855983336456,279.5539578812313,279.5539578812313,279.5539578812313,,,,,,,,,,,,,,,,,,,,,,,,,,,,120,001,2023-03-03_11h30.53.291,eb_01,2022.2.4,99.95537586264587,
,,,1,0,1,0,44,0,44,0,,,,,,,,,,,,,,,,,,,,,,,,,,,,,,,,,,,,,,,,,,,,,,,,,,,,,,,,,,,120,001,2023-03-03_11h30.53.291,eb_01,2022.2.4,99.95537586264587,
1,stimuli/1.png,s,1,0,1,0,45,0,45,0,0,0,0,0,,,,,,,,,,,,,,,,,,280.57465714783757,280.57465714783757,280.57465714783757,280.57465714783757,s,1,0.5091576498234645,281.1150147409935,281.1150147409935,281.1150147409935,,,,,,,,,,,,,,,,,,,,,,,,,,,,120,001,2023-03-03_11h30.53.291,eb_01,2022.2.4,99.95537586264587,
,,,1,0,1,0,45,0,45,0,,,,,,,,,,,,,,,,,,,,,,,,,,,,,,,,,,,,,,,,,,,,,,,,,,,,,,,,,,,120,001,2023-03-03_11h30.53.291,eb_01,2022.2.4,99.95537586264587,
4,stimuli/4.png,l,1,0,1,0,46,0,46,0,0,0,0,0,,,,,,,,,,,,,,,,,,282.11537394602783,282.11537394602783,282.11537394602783,282.11537394602783,l,1,0.6085068246175069,282.74611688771984,282.74611688771984,282.74611688771984,,,,,,,,,,,,,,,,,,,,,,,,,,,,120,001,2023-03-03_11h30.53.291,eb_01,2022.2.4,99.95537586264587,
,,,1,0,1,0,46,0,46,0,,,,,,,,,,,,,,,,,,,,,,,,,,,,,,,,,,,,,,,,,,,,,,,,,,,,,,,,,,,120,001,2023-03-03_11h30.53.291,eb_01,2022.2.4,99.95537586264587,
3,stimuli/3.png,l,1,0,1,0,47,0,47,0,0,0,0,0,,,,,,,,,,,,,,,,,,283.7567970500386,283.7567970500386,283.7567970500386,283.7567970500386,l,1,0.49513356015086174,284.26679577922914,284.26679577922914,284.26679577922914,285.2774741304456,285.2774741304456,285.2774741304456,,,,,,,,,,,,,,,,,,,,,,,,,120,001,2023-03-03_11h30.53.291,eb_01,2022.2.4,99.95537586264587,
,,,1,0,1,0,47,0,47,0,,,,,,,,,,,,,,,,,,,,,,,,,,,,,,,,,,,,,,,,,,,,,,,,,,,,,,,,,,,120,001,2023-03-03_11h30.53.291,eb_01,2022.2.4,99.95537586264587,
4,stimuli/4.png,l,1,0,1,0,48,0,48,0,0,0,0,0,,,,,,,,,,,,,,,,,,285.2774741304456,285.2774741304456,285.2774741304456,285.2774741304456,l,1,0.5984831925597973,285.89823600134696,285.89823600134696,285.89823600134696,,,,,,,,,,,,,,,,,,,,,,,,,,,,120,001,2023-03-03_11h30.53.291,eb_01,2022.2.4,99.95537586264587,
,,,1,0,1,0,48,0,48,0,,,,,,,,,,,,,,,,,,,,,,,,,,,,,,,,,,,,,,,,,,,,,,,,,,,,,,,,,,,120,001,2023-03-03_11h30.53.291,eb_01,2022.2.4,99.95537586264587,
3,stimuli/3.png,l,1,0,1,0,49,0,49,0,0,0,0,0,,,,,,,,,,,,,,,,,,286.9089152581,286.9089152581,286.9089152581,286.9089152581,l,1,0.3190913900907617,287.23881461124984,287.23881461124984,287.23881461124984,288.2494657956704,288.2494657956704,288.2494657956704,,,,,,,,,,,,,,,,,,,,,,,,,120,001,2023-03-03_11h30.53.291,eb_01,2022.2.4,99.95537586264587,
,,,1,0,1,0,49,0,49,0,,,,,,,,,,,,,,,,,,,,,,,,,,,,,,,,,,,,,,,,,,,,,,,,,,,,,,,,,,,120,001,2023-03-03_11h30.53.291,eb_01,2022.2.4,99.95537586264587,
4,stimuli/4.png,l,1,0,1,0,50,0,50,0,0,0,0,0,,,,,,,,,,,,,,,,,,288.2494657956704,288.2494657956704,288.2494657956704,288.2494657956704,l,1,0.3785995930957142,288.65009322727565,288.65009322727565,288.65009322727565,,,,,,,,,,,,,,,,,,,,,,,,,,,,120,001,2023-03-03_11h30.53.291,eb_01,2022.2.4,99.95537586264587,
,,,1,0,1,0,50,0,50,0,,,,,,,,,,,,,,,,,,,,,,,,,,,,,,,,,,,,,,,,,,,,,,,,,,,,,,,,,,,120,001,2023-03-03_11h30.53.291,eb_01,2022.2.4,99.95537586264587,
1,stimuli/1.png,s,1,0,1,0,51,0,51,0,0,0,0,0,,,,,,,,,,,,,,,,,,289.6707686474838,289.6707686474838,289.6707686474838,289.6707686474838,s,1,0.3493461147591006,290.05101858780836,290.05101858780836,290.05101858780836,,,,,,,,,,,,,,,,,,,,,,,,,,,,120,001,2023-03-03_11h30.53.291,eb_01,2022.2.4,99.95537586264587,
,,,1,0,1,0,51,0,51,0,,,,,,,,,,,,,,,,,,,,,,,,,,,,,,,,,,,,,,,,,,,,,,,,,,,,,,,,,,,120,001,2023-03-03_11h30.53.291,eb_01,2022.2.4,99.95537586264587,
4,stimuli/4.png,l,1,0,1,0,52,0,52,0,0,0,0,0,,,,,,,,,,,,,,,,,,291.051374472474,291.051374472474,291.051374472474,291.051374472474,l,1,0.5598345400649123,291.6320886022877,291.6320886022877,291.6320886022877,,,,,,,,,,,,,,,,,,,,,,,,,,,,120,001,2023-03-03_11h30.53.291,eb_01,2022.2.4,99.95537586264587,
,,,1,0,1,0,52,0,52,0,,,,,,,,,,,,,,,,,,,,,,,,,,,,,,,,,,,,,,,,,,,,,,,,,,,,,,,,,,,120,001,2023-03-03_11h30.53.291,eb_01,2022.2.4,99.95537586264587,
3,stimuli/3.png,l,1,0,1,0,53,0,53,0,0,0,0,0,,,,,,,,,,,,,,,,,,292.6427518608398,292.6427518608398,292.6427518608398,292.6427518608398,l,1,0.4884438943117857,293.142768613674,293.142768613674,293.142768613674,294.15345239822636,294.15345239822636,294.15345239822636,,,,,,,,,,,,,,,,,,,,,,,,,120,001,2023-03-03_11h30.53.291,eb_01,2022.2.4,99.95537586264587,
,,,1,0,1,0,53,0,53,0,,,,,,,,,,,,,,,,,,,,,,,,,,,,,,,,,,,,,,,,,,,,,,,,,,,,,,,,,,,120,001,2023-03-03_11h30.53.291,eb_01,2022.2.4,99.95537586264587,
4,stimuli/4.png,l,1,0,1,0,54,0,54,0,0,0,0,0,,,,,,,,,,,,,,,,,,294.15345239822636,294.15345239822636,294.15345239822636,294.15345239822636,l,1,0.5377971591951791,294.71415367515874,294.71415367515874,294.71415367515874,,,,,,,,,,,,,,,,,,,,,,,,,,,,120,001,2023-03-03_11h30.53.291,eb_01,2022.2.4,99.95537586264587,
,,,1,0,1,0,54,0,54,0,,,,,,,,,,,,,,,,,,,,,,,,,,,,,,,,,,,,,,,,,,,,,,,,,,,,,,,,,,,120,001,2023-03-03_11h30.53.291,eb_01,2022.2.4,99.95537586264587,
2,stimuli/2.png,s,1,0,1,0,55,0,55,0,0,0,0,0,,,,,,,,,,,,,,,,,,295.72484228934627,295.72484228934627,295.72484228934627,295.72484228934627,s,1,0.5504707586369477,296.2848912619811,296.2848912619811,296.2848912619811,297.29553882416803,297.29553882416803,297.29553882416803,,,,,,,,,,,,,,,,,,,,,,,,,120,001,2023-03-03_11h30.53.291,eb_01,2022.2.4,99.95537586264587,
,,,1,0,1,0,55,0,55,0,,,,,,,,,,,,,,,,,,,,,,,,,,,,,,,,,,,,,,,,,,,,,,,,,,,,,,,,,,,120,001,2023-03-03_11h30.53.291,eb_01,2022.2.4,99.95537586264587,
4,stimuli/4.png,l,1,0,1,0,56,0,56,0,0,0,0,0,,,,,,,,,,,,,,,,,,297.29553882416803,297.29553882416803,297.29553882416803,297.29553882416803,l,1,0.4998023202933837,297.81619417114416,297.81619417114416,297.81619417114416,,,,,,,,,,,,,,,,,,,,,,,,,,,,120,001,2023-03-03_11h30.53.291,eb_01,2022.2.4,99.95537586264587,
,,,1,0,1,0,56,0,56,0,,,,,,,,,,,,,,,,,,,,,,,,,,,,,,,,,,,,,,,,,,,,,,,,,,,,,,,,,,,120,001,2023-03-03_11h30.53.291,eb_01,2022.2.4,99.95537586264587,
3,stimuli/3.png,l,1,0,1,0,57,0,57,0,0,0,0,0,,,,,,,,,,,,,,,,,,298.82692776143085,298.82692776143085,298.82692776143085,298.82692776143085,l,1,0.4244700782583095,299.26689297589473,299.26689297589473,299.26689297589473,300.2775254454464,300.2775254454464,300.2775254454464,,,,,,,,,,,,,,,,,,,,,,,,,120,001,2023-03-03_11h30.53.291,eb_01,2022.2.4,99.95537586264587,
,,,1,0,1,0,57,0,57,0,,,,,,,,,,,,,,,,,,,,,,,,,,,,,,,,,,,,,,,,,,,,,,,,,,,,,,,,,,,120,001,2023-03-03_11h30.53.291,eb_01,2022.2.4,99.95537586264587,
8,stimuli/8.png,l,1,0,1,0,58,0,58,0,0,0,0,0,,,,,,,,,,,,,,,,,,300.2775254454464,300.2775254454464,300.2775254454464,300.2775254454464,l,1,0.3899054966750555,300.68817137763835,300.68817137763835,300.68817137763835,,,,,,,,,,,,,,,,,,,,,,,,,,,,120,001,2023-03-03_11h30.53.291,eb_01,2022.2.4,99.95537586264587,
,,,1,0,1,0,58,0,58,0,,,,,,,,,,,,,,,,,,,,,,,,,,,,,,,,,,,,,,,,,,,,,,,,,,,,,,,,,,,120,001,2023-03-03_11h30.53.291,eb_01,2022.2.4,99.95537586264587,
9,stimuli/9.png,l,1,0,1,0,59,0,59,0,0,0,0,0,,,,,,,,,,,,,,,,,,301.7088818127813,301.7088818127813,301.7088818127813,301.7088818127813,l,1,0.4306837219337467,302.1688345244911,302.1688345244911,302.1688345244911,,,,,,,,,,,,,,,,,,,,,,,,,,,,120,001,2023-03-03_11h30.53.291,eb_01,2022.2.4,99.95537586264587,
,,,1,0,1,0,59,0,59,0,,,,,,,,,,,,,,,,,,,,,,,,,,,,,,,,,,,,,,,,,,,,,,,,,,,,,,,,,,,120,001,2023-03-03_11h30.53.291,eb_01,2022.2.4,99.95537586264587,
6,stimuli/6.png,s,1,0,1,0,60,0,60,0,0,0,0,0,,,,,,,,,,,,,,,,,,303.1898522459669,303.1898522459669,303.1898522459669,303.1898522459669,s,1,0.5576756875379942,303.78024559360347,303.78024559360347,303.78024559360347,,,,,,,,,,,,,,,,,,,,,,,,,,,,120,001,2023-03-03_11h30.53.291,eb_01,2022.2.4,99.95537586264587,
,,,1,0,1,0,60,0,60,0,,,,,,,,,,,,,,,,,,,,,,,,,,,,,,,,,,,,,,,,,,,,,,,,,,,,,,,,,,,120,001,2023-03-03_11h30.53.291,eb_01,2022.2.4,99.95537586264587,
5,stimuli/5.png,s,1,0,1,0,61,0,61,0,0,0,0,0,,,,,,,,,,,,,,,,,,304.78092083873344,304.78092083873344,304.78092083873344,304.78092083873344,s,1,0.5586591245373711,305.3613077599439,305.3613077599439,305.3613077599439,,,,,,,,,,,,,,,,,,,,,,,,,,,,120,001,2023-03-03_11h30.53.291,eb_01,2022.2.4,99.95537586264587,
,,,1,0,1,0,61,0,61,0,,,,,,,,,,,,,,,,,,,,,,,,,,,,,,,,,,,,,,,,,,,,,,,,,,,,,,,,,,,120,001,2023-03-03_11h30.53.291,eb_01,2022.2.4,99.95537586264587,
6,stimuli/6.png,s,1,0,1,0,62,0,62,0,0,0,0,0,,,,,,,,,,,,,,,,,,306.382015176554,306.382015176554,306.382015176554,306.382015176554,s,1,0.5416720459761564,306.9623788550671,306.9623788550671,306.9623788550671,,,,,,,,,,,,,,,,,,,,,,,,,,,,120,001,2023-03-03_11h30.53.291,eb_01,2022.2.4,99.95537586264587,
,,,1,0,1,0,62,0,62,0,,,,,,,,,,,,,,,,,,,,,,,,,,,,,,,,,,,,,,,,,,,,,,,,,,,,,,,,,,,120,001,2023-03-03_11h30.53.291,eb_01,2022.2.4,99.95537586264587,
9,stimuli/9.png,l,1,0,1,0,63,0,63,0,0,0,0,0,,,,,,,,,,,,,,,,,,307.97304724511923,307.97304724511923,307.97304724511923,307.97304724511923,l,1,0.4856608097907156,308.4830610669742,308.4830610669742,308.4830610669742,,,,,,,,,,,,,,,,,,,,,,,,,,,,120,001,2023-03-03_11h30.53.291,eb_01,2022.2.4,99.95537586264587,
,,,1,0,1,0,63,0,63,0,,,,,,,,,,,,,,,,,,,,,,,,,,,,,,,,,,,,,,,,,,,,,,,,,,,,,,,,,,,120,001,2023-03-03_11h30.53.291,eb_01,2022.2.4,99.95537586264587,
8,stimuli/8.png,l,1,0,1,0,64,0,64,0,0,0,0,0,,,,,,,,,,,,,,,,,,309.4941052639624,309.4941052639624,309.4941052639624,309.4941052639624,l,1,0.4766338962945156,309.9944030419574,309.9944030419574,309.9944030419574,,,,,,,,,,,,,,,,,,,,,,,,,,,,120,001,2023-03-03_11h30.53.291,eb_01,2022.2.4,99.95537586264587,
,,,1,0,1,0,64,0,64,0,,,,,,,,,,,,,,,,,,,,,,,,,,,,,,,,,,,,,,,,,,,,,,,,,,,,,,,,,,,120,001,2023-03-03_11h30.53.291,eb_01,2022.2.4,99.95537586264587,
9,stimuli/9.png,l,1,0,1,0,65,0,65,0,0,0,0,0,,,,,,,,,,,,,,,,,,311.01480287036975,311.01480287036975,311.01480287036975,311.01480287036975,l,1,0.39596670458558947,311.4350643293874,311.4350643293874,311.4350643293874,,,,,,,,,,,,,,,,,,,,,,,,,,,,120,001,2023-03-03_11h30.53.291,eb_01,2022.2.4,99.95537586264587,
,,,1,0,1,0,65,0,65,0,,,,,,,,,,,,,,,,,,,,,,,,,,,,,,,,,,,,,,,,,,,,,,,,,,,,,,,,,,,120,001,2023-03-03_11h30.53.291,eb_01,2022.2.4,99.95537586264587,
6,stimuli/6.png,s,1,0,1,0,66,0,66,0,0,0,0,0,,,,,,,,,,,,,,,,,,312.4557711422967,312.4557711422967,312.4557711422967,312.4557711422967,s,1,0.5950529352412559,313.0864718245866,313.0864718245866,313.0864718245866,,,,,,,,,,,,,,,,,,,,,,,,,,,,120,001,2023-03-03_11h30.53.291,eb_01,2022.2.4,99.95537586264587,
,,,1,0,1,0,66,0,66,0,,,,,,,,,,,,,,,,,,,,,,,,,,,,,,,,,,,,,,,,,,,,,,,,,,,,,,,,,,,120,001,2023-03-03_11h30.53.291,eb_01,2022.2.4,99.95537586264587,
8,stimuli/8.png,l,1,0,1,0,67,0,67,0,0,0,0,0,,,,,,,,,,,,,,,,,,314.0871482771181,314.0871482771181,314.0871482771181,314.0871482771181,l,1,0.49173288443125784,314.60748939512996,314.60748939512996,314.60748939512996,,,,,,,,,,,,,,,,,,,,,,,,,,,,120,001,2023-03-03_11h30.53.291,eb_01,2022.2.4,99.95537586264587,
,,,1,0,1,0,67,0,67,0,,,,,,,,,,,,,,,,,,,,,,,,,,,,,,,,,,,,,,,,,,,,,,,,,,,,,,,,,,,120,001,2023-03-03_11h30.53.291,eb_01,2022.2.4,99.95537586264587,
9,stimuli/9.png,l,1,0,1,0,68,0,68,0,0,0,0,0,,,,,,,,,,,,,,,,,,315.6282007358386,315.6282007358386,315.6282007358386,315.6282007358386,l,1,0.4387223687954247,316.0885051062796,316.0885051062796,316.0885051062796,,,,,,,,,,,,,,,,,,,,,,,,,,,,120,001,2023-03-03_11h30.53.291,eb_01,2022.2.4,99.95537586264587,
,,,1,0,1,0,68,0,68,0,,,,,,,,,,,,,,,,,,,,,,,,,,,,,,,,,,,,,,,,,,,,,,,,,,,,,,,,,,,120,001,2023-03-03_11h30.53.291,eb_01,2022.2.4,99.95537586264587,
5,stimuli/5.png,s,1,0,1,0,69,0,69,0,0,0,0,0,,,,,,,,,,,,,,,,,,317.099146329565,317.099146329565,317.099146329565,317.099146329565,s,1,0.6238436729472596,317.74962230643723,317.74962230643723,317.74962230643723,,,,,,,,,,,,,,,,,,,,,,,,,,,,120,001,2023-03-03_11h30.53.291,eb_01,2022.2.4,99.95537586264587,
,,,1,0,1,0,69,0,69,0,,,,,,,,,,,,,,,,,,,,,,,,,,,,,,,,,,,,,,,,,,,,,,,,,,,,,,,,,,,120,001,2023-03-03_11h30.53.291,eb_01,2022.2.4,99.95537586264587,
6,stimuli/6.png,s,1,0,1,0,70,0,70,0,0,0,0,0,,,,,,,,,,,,,,,,,,318.7702992359118,318.7702992359118,318.7702992359118,318.7702992359118,s,1,0.7847569714067504,319.5908575975336,319.5908575975336,319.5908575975336,,,,,,,,,,,,,,,,,,,,,,,,,,,,120,001,2023-03-03_11h30.53.291,eb_01,2022.2.4,99.95537586264587,
,,,1,0,1,0,70,0,70,0,,,,,,,,,,,,,,,,,,,,,,,,,,,,,,,,,,,,,,,,,,,,,,,,,,,,,,,,,,,120,001,2023-03-03_11h30.53.291,eb_01,2022.2.4,99.95537586264587,
8,stimuli/8.png,l,1,0,1,0,71,0,71,0,0,0,0,0,,,,,,,,,,,,,,,,,,320.59153435193,320.59153435193,320.59153435193,320.59153435193,l,1,0.4275541101815179,321.0418377292517,321.0418377292517,321.0418377292517,,,,,,,,,,,,,,,,,,,,,,,,,,,,120,001,2023-03-03_11h30.53.291,eb_01,2022.2.4,99.95537586264587,
,,,1,0,1,0,71,0,71,0,,,,,,,,,,,,,,,,,,,,,,,,,,,,,,,,,,,,,,,,,,,,,,,,,,,,,,,,,,,120,001,2023-03-03_11h30.53.291,eb_01,2022.2.4,99.95537586264587,
6,stimuli/6.png,s,1,0,1,0,72,0,72,0,0,0,0,0,,,,,,,,,,,,,,,,,,322.06250439572614,322.06250439572614,322.06250439572614,322.06250439572614,s,1,0.5086502349877264,322.6028894575138,322.6028894575138,322.6028894575138,,,,,,,,,,,,,,,,,,,,,,,,,,,,120,001,2023-03-03_11h30.53.291,eb_01,2022.2.4,99.95537586264587,
,,,1,0,1,0,72,0,72,0,,,,,,,,,,,,,,,,,,,,,,,,,,,,,,,,,,,,,,,,,,,,,,,,,,,,,,,,,,,120,001,2023-03-03_11h30.53.291,eb_01,2022.2.4,99.95537586264587,
9,stimuli/9.png,l,1,0,1,0,73,0,73,0,0,0,0,0,,,,,,,,,,,,,,,,,,323.61355875310255,323.61355875310255,323.61355875310255,323.61355875310255,l,1,0.3326050463656429,323.9734794985852,323.9734794985852,323.9734794985852,,,,,,,,,,,,,,,,,,,,,,,,,,,,120,001,2023-03-03_11h30.53.291,eb_01,2022.2.4,99.95537586264587,
,,,1,0,1,0,73,0,73,0,,,,,,,,,,,,,,,,,,,,,,,,,,,,,,,,,,,,,,,,,,,,,,,,,,,,,,,,,,,120,001,2023-03-03_11h30.53.291,eb_01,2022.2.4,99.95537586264587,
5,stimuli/5.png,s,1,0,1,0,74,0,74,0,0,0,0,0,,,,,,,,,,,,,,,,,,324.9844714750361,324.9844714750361,324.9844714750361,324.9844714750361,s,1,0.5137569837679621,325.52480310882675,325.52480310882675,325.52480310882675,,,,,,,,,,,,,,,,,,,,,,,,,,,,120,001,2023-03-03_11h30.53.291,eb_01,2022.2.4,99.95537586264587,
,,,1,0,1,0,74,0,74,0,,,,,,,,,,,,,,,,,,,,,,,,,,,,,,,,,,,,,,,,,,,,,,,,,,,,,,,,,,,120,001,2023-03-03_11h30.53.291,eb_01,2022.2.4,99.95537586264587,
9,stimuli/9.png,l,1,0,1,0,75,0,75,0,0,0,0,0,,,,,,,,,,,,,,,,,,326.5455373903678,326.5455373903678,326.5455373903678,326.5455373903678,l,1,0.4007199835323263,326.9754768597777,326.9754768597777,326.9754768597777,,,,,,,,,,,,,,,,,,,,,,,,,,,,120,001,2023-03-03_11h30.53.291,eb_01,2022.2.4,99.95537586264587,
,,,1,0,1,0,75,0,75,0,,,,,,,,,,,,,,,,,,,,,,,,,,,,,,,,,,,,,,,,,,,,,,,,,,,,,,,,,,,120,001,2023-03-03_11h30.53.291,eb_01,2022.2.4,99.95537586264587,
8,stimuli/8.png,l,1,0,1,0,76,0,76,0,0,0,0,0,,,,,,,,,,,,,,,,,,327.98651260492625,327.98651260492625,327.98651260492625,327.98651260492625,l,1,0.47187065618345514,328.4868393607612,328.4868393607612,328.4868393607612,,,,,,,,,,,,,,,,,,,,,,,,,,,,120,001,2023-03-03_11h30.53.291,eb_01,2022.2.4,99.95537586264587,
,,,1,0,1,0,76,0,76,0,,,,,,,,,,,,,,,,,,,,,,,,,,,,,,,,,,,,,,,,,,,,,,,,,,,,,,,,,,,120,001,2023-03-03_11h30.53.291,eb_01,2022.2.4,99.95537586264587,
6,stimuli/6.png,s,1,0,1,0,77,0,77,0,0,0,0,0,,,,,,,,,,,,,,,,,,329.50753077919944,329.50753077919944,329.50753077919944,329.50753077919944,s,1,0.5668339070689399,330.10791455506114,330.10791455506114,330.10791455506114,,,,,,,,,,,,,,,,,,,,,,,,,,,,120,001,2023-03-03_11h30.53.291,eb_01,2022.2.4,99.95537586264587,
,,,1,0,1,0,77,0,77,0,,,,,,,,,,,,,,,,,,,,,,,,,,,,,,,,,,,,,,,,,,,,,,,,,,,,,,,,,,,120,001,2023-03-03_11h30.53.291,eb_01,2022.2.4,99.95537586264587,
5,stimuli/5.png,s,1,0,1,0,78,0,78,0,0,0,0,0,,,,,,,,,,,,,,,,,,331.1086082132242,331.1086082132242,331.1086082132242,331.1086082132242,s,1,0.5578106158063747,331.6889857769711,331.6889857769711,331.6889857769711,,,,,,,,,,,,,,,,,,,,,,,,,,,,120,001,2023-03-03_11h30.53.291,eb_01,2022.2.4,99.95537586264587,
,,,1,0,1,0,78,0,78,0,,,,,,,,,,,,,,,,,,,,,,,,,,,,,,,,,,,,,,,,,,,,,,,,,,,,,,,,,,,120,001,2023-03-03_11h30.53.291,eb_01,2022.2.4,99.95537586264587,
9,stimuli/9.png,l,1,0,1,0,79,0,79,0,0,0,0,0,,,,,,,,,,,,,,,,,,332.7096729694458,332.7096729694458,332.7096729694458,332.7096729694458,l,1,0.45278871787013486,333.18966479526716,333.18966479526716,333.18966479526716,,,,,,,,,,,,,,,,,,,,,,,,,,,,120,001,2023-03-03_11h30.53.291,eb_01,2022.2.4,99.95537586264587,
,,,1,0,1,0,79,0,79,0,,,,,,,,,,,,,,,,,,,,,,,,,,,,,,,,,,,,,,,,,,,,,,,,,,,,,,,,,,,120,001,2023-03-03_11h30.53.291,eb_01,2022.2.4,99.95537586264587,
6,stimuli/6.png,s,1,0,1,0,80,0,80,0,0,0,0,0,,,,,,,,,,,,,,,,,,334.21068976123934,334.21068976123934,334.21068976123934,334.21068976123934,s,1,0.42383226289530285,334.67096605934785,334.67096605934785,334.67096605934785,,,,,,,,,,,,,,,,,,,,,,,,,,,,120,001,2023-03-03_11h30.53.291,eb_01,2022.2.4,99.95537586264587,
,,,1,0,1,0,80,0,80,0,,,,,,,,,,,,,,,,,,,,,,,,,,,,,,,,,,,,,,,,,,,,,,,,,,,,,,,,,,,120,001,2023-03-03_11h30.53.291,eb_01,2022.2.4,99.95537586264587,
9,stimuli/9.png,l,1,0,1,0,81,0,81,0,0,0,0,0,,,,,,,,,,,,,,,,,,335.68167731250287,335.68167731250287,335.68167731250287,335.68167731250287,l,1,0.4168893423920963,336.12163075470016,336.12163075470016,336.12163075470016,,,,,,,,,,,,,,,,,,,,,,,,,,,,120,001,2023-03-03_11h30.53.291,eb_01,2022.2.4,99.95537586264587,
,,,1,0,1,0,81,0,81,0,,,,,,,,,,,,,,,,,,,,,,,,,,,,,,,,,,,,,,,,,,,,,,,,,,,,,,,,,,,120,001,2023-03-03_11h30.53.291,eb_01,2022.2.4,99.95537586264587,
5,stimuli/5.png,s,1,0,1,0,82,0,82,0,0,0,0,0,,,,,,,,,,,,,,,,,,337.1326526145858,337.1326526145858,337.1326526145858,337.1326526145858,s,1,0.38197883727843873,337.542924550944,337.542924550944,337.542924550944,,,,,,,,,,,,,,,,,,,,,,,,,,,,120,001,2023-03-03_11h30.53.291,eb_01,2022.2.4,99.95537586264587,
,,,1,0,1,0,82,0,82,0,,,,,,,,,,,,,,,,,,,,,,,,,,,,,,,,,,,,,,,,,,,,,,,,,,,,,,,,,,,120,001,2023-03-03_11h30.53.291,eb_01,2022.2.4,99.95537586264587,
6,stimuli/6.png,s,1,0,1,0,83,0,83,0,0,0,0,0,,,,,,,,,,,,,,,,,,338.5636014803895,338.5636014803895,338.5636014803895,338.5636014803895,s,1,0.5100287975510582,339.10397899584495,339.10397899584495,339.10397899584495,,,,,,,,,,,,,,,,,,,,,,,,,,,,120,001,2023-03-03_11h30.53.291,eb_01,2022.2.4,99.95537586264587,
,,,1,0,1,0,83,0,83,0,,,,,,,,,,,,,,,,,,,,,,,,,,,,,,,,,,,,,,,,,,,,,,,,,,,,,,,,,,,120,001,2023-03-03_11h30.53.291,eb_01,2022.2.4,99.95537586264587,
8,stimuli/8.png,l,1,0,1,0,84,0,84,0,0,0,0,0,,,,,,,,,,,,,,,,,,340.1046581650735,340.1046581650735,340.1046581650735,340.1046581650735,l,1,0.44102822375134565,340.57496383046964,340.57496383046964,340.57496383046964,,,,,,,,,,,,,,,,,,,,,,,,,,,,120,001,2023-03-03_11h30.53.291,eb_01,2022.2.4,99.95537586264587,
,,,1,0,1,0,84,0,84,0,,,,,,,,,,,,,,,,,,,,,,,,,,,,,,,,,,,,,,,,,,,,,,,,,,,,,,,,,,,120,001,2023-03-03_11h30.53.291,eb_01,2022.2.4,99.95537586264587,
9,stimuli/9.png,l,1,0,1,0,85,0,85,0,0,0,0,0,,,,,,,,,,,,,,,,,,341.5956350247143,341.5956350247143,341.5956350247143,341.5956350247143,l,1,0.39810352184576914,342.01557983996463,342.01557983996463,342.01557983996463,,,,,,,,,,,,,,,,,,,,,,,,,,,,120,001,2023-03-03_11h30.53.291,eb_01,2022.2.4,99.95537586264587,
,,,1,0,1,0,85,0,85,0,,,,,,,,,,,,,,,,,,,,,,,,,,,,,,,,,,,,,,,,,,,,,,,,,,,,,,,,,,,120,001,2023-03-03_11h30.53.291,eb_01,2022.2.4,99.95537586264587,
6,stimuli/6.png,s,1,0,1,0,86,0,86,0,0,0,0,0,,,,,,,,,,,,,,,,,,343.03662140783854,343.03662140783854,343.03662140783854,343.03662140783854,s,1,0.8612139176402707,343.93723842551117,343.93723842551117,343.93723842551117,,,,,,,,,,,,,,,,,,,,,,,,,,,,120,001,2023-03-03_11h30.53.291,eb_01,2022.2.4,99.95537586264587,
,,,1,0,1,0,86,0,86,0,,,,,,,,,,,,,,,,,,,,,,,,,,,,,,,,,,,,,,,,,,,,,,,,,,,,,,,,,,,120,001,2023-03-03_11h30.53.291,eb_01,2022.2.4,99.95537586264587,
9,stimuli/9.png,l,1,0,1,0,87,0,87,0,0,0,0,0,,,,,,,,,,,,,,,,,,344.94789745812886,344.94789745812886,344.94789745812886,344.94789745812886,l,1,0.44594993666396476,345.4179091186961,345.4179091186961,345.4179091186961,,,,,,,,,,,,,,,,,,,,,,,,,,,,120,001,2023-03-03_11h30.53.291,eb_01,2022.2.4,99.95537586264587,
,,,1,0,1,0,87,0,87,0,,,,,,,,,,,,,,,,,,,,,,,,,,,,,,,,,,,,,,,,,,,,,,,,,,,,,,,,,,,120,001,2023-03-03_11h30.53.291,eb_01,2022.2.4,99.95537586264587,
6,stimuli/6.png,s,1,0,1,0,88,0,88,0,0,0,0,0,,,,,,,,,,,,,,,,,,346.43891416236875,346.43891416236875,346.43891416236875,346.43891416236875,s,1,0.6190122140396852,347.0893671984086,347.0893671984086,347.0893671984086,,,,,,,,,,,,,,,,,,,,,,,,,,,,120,001,2023-03-03_11h30.53.291,eb_01,2022.2.4,99.95537586264587,
,,,1,0,1,0,88,0,88,0,,,,,,,,,,,,,,,,,,,,,,,,,,,,,,,,,,,,,,,,,,,,,,,,,,,,,,,,,,,120,001,2023-03-03_11h30.53.291,eb_01,2022.2.4,99.95537586264587,
9,stimuli/9.png,l,1,0,1,0,89,0,89,0,0,0,0,0,,,,,,,,,,,,,,,,,,348.10002170322696,348.10002170322696,348.10002170322696,348.10002170322696,l,1,0.4459158272948116,348.57003577862633,348.57003577862633,348.57003577862633,,,,,,,,,,,,,,,,,,,,,,,,,,,,120,001,2023-03-03_11h30.53.291,eb_01,2022.2.4,99.95537586264587,
,,,1,0,1,0,89,0,89,0,,,,,,,,,,,,,,,,,,,,,,,,,,,,,,,,,,,,,,,,,,,,,,,,,,,,,,,,,,,120,001,2023-03-03_11h30.53.291,eb_01,2022.2.4,99.95537586264587,
6,stimuli/6.png,s,1,0,1,0,90,0,90,0,0,0,0,0,,,,,,,,,,,,,,,,,,349.59101999443374,349.59101999443374,349.59101999443374,349.59101999443374,s,1,0.44298634404549375,350.0713414437196,350.0713414437196,350.0713414437196,,,,,,,,,,,,,,,,,,,,,,,,,,,,120,001,2023-03-03_11h30.53.291,eb_01,2022.2.4,99.95537586264587,
,,,1,0,1,0,90,0,90,0,,,,,,,,,,,,,,,,,,,,,,,,,,,,,,,,,,,,,,,,,,,,,,,,,,,,,,,,,,,120,001,2023-03-03_11h30.53.291,eb_01,2022.2.4,99.95537586264587,
9,stimuli/9.png,l,1,0,1,0,91,0,91,0,0,0,0,0,,,,,,,,,,,,,,,,,,351.08203247273923,351.08203247273923,351.08203247273923,351.08203247273923,l,1,0.36801542004104704,351.4719640456897,351.4719640456897,351.4719640456897,,,,,,,,,,,,,,,,,,,,,,,,,,,,120,001,2023-03-03_11h30.53.291,eb_01,2022.2.4,99.95537586264587,
,,,1,0,1,0,91,0,91,0,,,,,,,,,,,,,,,,,,,,,,,,,,,,,,,,,,,,,,,,,,,,,,,,,,,,,,,,,,,120,001,2023-03-03_11h30.53.291,eb_01,2022.2.4,99.95537586264587,
6,stimuli/6.png,s,1,0,1,0,92,0,92,0,0,0,0,0,,,,,,,,,,,,,,,,,,352.49297301343177,352.49297301343177,352.49297301343177,352.49297301343177,s,1,0.4451497243717313,352.9732935571519,352.9732935571519,352.9732935571519,,,,,,,,,,,,,,,,,,,,,,,,,,,,120,001,2023-03-03_11h30.53.291,eb_01,2022.2.4,99.95537586264587,
,,,1,0,1,0,92,0,92,0,,,,,,,,,,,,,,,,,,,,,,,,,,,,,,,,,,,,,,,,,,,,,,,,,,,,,,,,,,,120,001,2023-03-03_11h30.53.291,eb_01,2022.2.4,99.95537586264587,
5,stimuli/5.png,s,1,0,1,0,93,0,93,0,0,0,0,0,,,,,,,,,,,,,,,,,,353.9739678967162,353.9739678967162,353.9739678967162,353.9739678967162,s,1,0.5312140474561602,354.53434347428265,354.53434347428265,354.53434347428265,,,,,,,,,,,,,,,,,,,,,,,,,,,,120,001,2023-03-03_11h30.53.291,eb_01,2022.2.4,99.95537586264587,
,,,1,0,1,0,93,0,93,0,,,,,,,,,,,,,,,,,,,,,,,,,,,,,,,,,,,,,,,,,,,,,,,,,,,,,,,,,,,120,001,2023-03-03_11h30.53.291,eb_01,2022.2.4,99.95537586264587,
6,stimuli/6.png,s,1,0,1,0,94,0,94,0,0,0,0,0,,,,,,,,,,,,,,,,,,355.5550279500603,355.5550279500603,355.5550279500603,355.5550279500603,s,1,0.5582018172717653,356.14542431622976,356.14542431622976,356.14542431622976,,,,,,,,,,,,,,,,,,,,,,,,,,,,120,001,2023-03-03_11h30.53.291,eb_01,2022.2.4,99.95537586264587,
,,,1,0,1,0,94,0,94,0,,,,,,,,,,,,,,,,,,,,,,,,,,,,,,,,,,,,,,,,,,,,,,,,,,,,,,,,,,,120,001,2023-03-03_11h30.53.291,eb_01,2022.2.4,99.95537586264587,
9,stimuli/9.png,l,1,0,1,0,95,0,95,0,0,0,0,0,,,,,,,,,,,,,,,,,,357.1561062896799,357.1561062896799,357.1561062896799,357.1561062896799,l,1,0.3891390919161495,357.56605373404454,357.56605373404454,357.56605373404454,,,,,,,,,,,,,,,,,,,,,,,,,,,,120,001,2023-03-03_11h30.53.291,eb_01,2022.2.4,99.95537586264587,
,,,1,0,1,0,95,0,95,0,,,,,,,,,,,,,,,,,,,,,,,,,,,,,,,,,,,,,,,,,,,,,,,,,,,,,,,,,,,120,001,2023-03-03_11h30.53.291,eb_01,2022.2.4,99.95537586264587,
6,stimuli/6.png,s,1,0,1,0,96,0,96,0,0,0,0,0,,,,,,,,,,,,,,,,,,358.58705334435217,358.58705334435217,358.58705334435217,358.58705334435217,s,1,0.39023179971263744,359.007343781268,359.007343781268,359.007343781268,,,,,,,,,,,,,,,,,,,,,,,,,,,,120,001,2023-03-03_11h30.53.291,eb_01,2022.2.4,99.95537586264587,
,,,1,0,1,0,96,0,96,0,,,,,,,,,,,,,,,,,,,,,,,,,,,,,,,,,,,,,,,,,,,,,,,,,,,,,,,,,,,120,001,2023-03-03_11h30.53.291,eb_01,2022.2.4,99.95537586264587,
5,stimuli/5.png,s,1,0,1,0,97,0,97,0,0,0,0,0,,,,,,,,,,,,,,,,,,360.00802023379947,360.00802023379947,360.00802023379947,360.00802023379947,s,1,0.42537563721998595,360.45833417598624,360.45833417598624,360.45833417598624,,,,,,,,,,,,,,,,,,,,,,,,,,,,120,001,2023-03-03_11h30.53.291,eb_01,2022.2.4,99.95537586264587,
,,,1,0,1,0,97,0,97,0,,,,,,,,,,,,,,,,,,,,,,,,,,,,,,,,,,,,,,,,,,,,,,,,,,,,,,,,,,,120,001,2023-03-03_11h30.53.291,eb_01,2022.2.4,99.95537586264587,
9,stimuli/9.png,l,1,0,1,0,98,0,98,0,0,0,0,0,,,,,,,,,,,,,,,,,,361.4790068795264,361.4790068795264,361.4790068795264,361.4790068795264,l,1,0.4183865331870038,361.9189847718226,361.9189847718226,361.9189847718226,,,,,,,,,,,,,,,,,,,,,,,,,,,,120,001,2023-03-03_11h30.53.291,eb_01,2022.2.4,99.95537586264587,
,,,1,0,1,0,98,0,98,0,,,,,,,,,,,,,,,,,,,,,,,,,,,,,,,,,,,,,,,,,,,,,,,,,,,,,,,,,,,120,001,2023-03-03_11h30.53.291,eb_01,2022.2.4,99.95537586264587,
8,stimuli/8.png,l,1,0,1,0,99,0,99,0,0,0,0,0,,,,,,,,,,,,,,,,,,362.9299794649414,362.9299794649414,362.9299794649414,362.9299794649414,l,1,0.5035498251090758,363.46027780737495,363.46027780737495,363.46027780737495,,,,,,,,,,,,,,,,,,,,,,,,,,,,120,001,2023-03-03_11h30.53.291,eb_01,2022.2.4,99.95537586264587,
,,,1,0,1,0,99,0,99,0,,,,,,,,,,,,,,,,,,,,,,,,,,,,,,,,,,,,,,,,,,,,,,,,,,,,,,,,,,,120,001,2023-03-03_11h30.53.291,eb_01,2022.2.4,99.95537586264587,
,,,1,0,1,0,,,,,,,,,,,,,,,,,,,,,,,,,,,,,,,,,,,,,,,364.4610079897393,364.4610079897393,return,1.7325729292060714,,,,,,,,,,,,,,,,,,,,,120,001,2023-03-03_11h30.53.291,eb_01,2022.2.4,99.95537586264587,
9,stimuli/9.png,l,2,0,2,0,0,0,0,0,0,0,0,0,,,,,,,,,,,,,,,,,,366.2322040308791,366.2322040308791,366.2322040308791,366.2322040308791,l,1,0.5533489268273115,366.81227128976025,366.81227128976025,366.81227128976025,,,,,,,,,,,,,,,,,,,,,,,,,,,,120,001,2023-03-03_11h30.53.291,eb_01,2022.2.4,99.95537586264587,
,,,2,0,2,0,0,0,0,0,,,,,,,,,,,,,,,,,,,,,,,,,,,,,,,,,,,,,,,,,,,,,,,,,,,,,,,,,,,120,001,2023-03-03_11h30.53.291,eb_01,2022.2.4,99.95537586264587,
5,stimuli/5.png,s,2,0,2,0,1,0,1,0,0,0,0,0,,,,,,,,,,,,,,,,,,367.8232747366128,367.8232747366128,367.8232747366128,367.8232747366128,s,1,0.5063229484658223,368.35362862001057,368.35362862001057,368.35362862001057,,,,,,,,,,,,,,,,,,,,,,,,,,,,120,001,2023-03-03_11h30.53.291,eb_01,2022.2.4,99.95537586264587,
,,,2,0,2,0,1,0,1,0,,,,,,,,,,,,,,,,,,,,,,,,,,,,,,,,,,,,,,,,,,,,,,,,,,,,,,,,,,,120,001,2023-03-03_11h30.53.291,eb_01,2022.2.4,99.95537586264587,
9,stimuli/9.png,l,2,0,2,0,2,0,2,0,0,0,0,0,,,,,,,,,,,,,,,,,,369.37431339765317,369.37431339765317,369.37431339765317,369.37431339765317,l,1,0.40236417672713287,369.8042815430963,369.8042815430963,369.8042815430963,,,,,,,,,,,,,,,,,,,,,,,,,,,,120,001,2023-03-03_11h30.53.291,eb_01,2022.2.4,99.95537586264587,
,,,2,0,2,0,2,0,2,0,,,,,,,,,,,,,,,,,,,,,,,,,,,,,,,,,,,,,,,,,,,,,,,,,,,,,,,,,,,120,001,2023-03-03_11h30.53.291,eb_01,2022.2.4,99.95537586264587,
5,stimuli/5.png,s,2,0,2,0,3,0,3,0,0,0,0,0,,,,,,,,,,,,,,,,,,370.815284688113,370.815284688113,370.815284688113,370.815284688113,s,1,0.5374192392628174,371.37564064521575,371.37564064521575,371.37564064521575,,,,,,,,,,,,,,,,,,,,,,,,,,,,120,001,2023-03-03_11h30.53.291,eb_01,2022.2.4,99.95537586264587,
,,,2,0,2,0,3,0,3,0,,,,,,,,,,,,,,,,,,,,,,,,,,,,,,,,,,,,,,,,,,,,,,,,,,,,,,,,,,,120,001,2023-03-03_11h30.53.291,eb_01,2022.2.4,99.95537586264587,
9,stimuli/9.png,l,2,0,2,0,4,0,4,0,0,0,0,0,,,,,,,,,,,,,,,,,,372.39634806182585,372.39634806182585,372.39634806182585,372.39634806182585,l,1,0.5004359096928965,372.9163734416361,372.9163734416361,372.9163734416361,,,,,,,,,,,,,,,,,,,,,,,,,,,,120,001,2023-03-03_11h30.53.291,eb_01,2022.2.4,99.95537586264587,
,,,2,0,2,0,4,0,4,0,,,,,,,,,,,,,,,,,,,,,,,,,,,,,,,,,,,,,,,,,,,,,,,,,,,,,,,,,,,120,001,2023-03-03_11h30.53.291,eb_01,2022.2.4,99.95537586264587,
5,stimuli/5.png,s,2,0,2,0,5,0,5,0,0,0,0,0,,,,,,,,,,,,,,,,,,373.9273741718207,373.9273741718207,373.9273741718207,373.9273741718207,s,1,0.4894246146432124,374.4377161078737,374.4377161078737,374.4377161078737,,,,,,,,,,,,,,,,,,,,,,,,,,,,120,001,2023-03-03_11h30.53.291,eb_01,2022.2.4,99.95537586264587,
,,,2,0,2,0,5,0,5,0,,,,,,,,,,,,,,,,,,,,,,,,,,,,,,,,,,,,,,,,,,,,,,,,,,,,,,,,,,,120,001,2023-03-03_11h30.53.291,eb_01,2022.2.4,99.95537586264587,
9,stimuli/9.png,l,2,0,2,0,6,0,6,0,0,0,0,0,,,,,,,,,,,,,,,,,,375.45840360218426,375.45840360218426,375.45840360218426,375.45840360218426,l,1,0.49444292052066885,375.97843139679753,375.97843139679753,375.97843139679753,,,,,,,,,,,,,,,,,,,,,,,,,,,,120,001,2023-03-03_11h30.53.291,eb_01,2022.2.4,99.95537586264587,
,,,2,0,2,0,6,0,6,0,,,,,,,,,,,,,,,,,,,,,,,,,,,,,,,,,,,,,,,,,,,,,,,,,,,,,,,,,,,120,001,2023-03-03_11h30.53.291,eb_01,2022.2.4,99.95537586264587,
5,stimuli/5.png,s,2,0,2,0,7,0,7,0,0,0,0,0,,,,,,,,,,,,,,,,,,376.9894185436133,376.9894185436133,376.9894185436133,376.9894185436133,s,1,0.5074736120295711,377.5197872177814,377.5197872177814,377.5197872177814,,,,,,,,,,,,,,,,,,,,,,,,,,,,120,001,2023-03-03_11h30.53.291,eb_01,2022.2.4,99.95537586264587,
,,,2,0,2,0,7,0,7,0,,,,,,,,,,,,,,,,,,,,,,,,,,,,,,,,,,,,,,,,,,,,,,,,,,,,,,,,,,,120,001,2023-03-03_11h30.53.291,eb_01,2022.2.4,99.95537586264587,
6,stimuli/6.png,s,2,0,2,0,8,0,8,0,0,0,0,0,,,,,,,,,,,,,,,,,,378.5404523749894,378.5404523749894,378.5404523749894,378.5404523749894,s,1,0.5084999121900182,379.0808326071128,379.0808326071128,379.0808326071128,,,,,,,,,,,,,,,,,,,,,,,,,,,,120,001,2023-03-03_11h30.53.291,eb_01,2022.2.4,99.95537586264587,
,,,2,0,2,0,8,0,8,0,,,,,,,,,,,,,,,,,,,,,,,,,,,,,,,,,,,,,,,,,,,,,,,,,,,,,,,,,,,120,001,2023-03-03_11h30.53.291,eb_01,2022.2.4,99.95537586264587,
5,stimuli/5.png,s,2,0,2,0,9,0,9,0,0,0,0,0,,,,,,,,,,,,,,,,,,380.0815157004108,380.0815157004108,380.0815157004108,380.0815157004108,s,1,0.4634731061232742,380.5718372372503,380.5718372372503,380.5718372372503,,,,,,,,,,,,,,,,,,,,,,,,,,,,120,001,2023-03-03_11h30.53.291,eb_01,2022.2.4,99.95537586264587,
,,,2,0,2,0,9,0,9,0,,,,,,,,,,,,,,,,,,,,,,,,,,,,,,,,,,,,,,,,,,,,,,,,,,,,,,,,,,,120,001,2023-03-03_11h30.53.291,eb_01,2022.2.4,99.95537586264587,
9,stimuli/9.png,l,2,0,2,0,10,0,10,0,0,0,0,0,,,,,,,,,,,,,,,,,,381.5925102426263,381.5925102426263,381.5925102426263,381.5925102426263,l,1,0.5365308859327342,382.15257793013006,382.15257793013006,382.15257793013006,,,,,,,,,,,,,,,,,,,,,,,,,,,,120,001,2023-03-03_11h30.53.291,eb_01,2022.2.4,99.95537586264587,
,,,2,0,2,0,10,0,10,0,,,,,,,,,,,,,,,,,,,,,,,,,,,,,,,,,,,,,,,,,,,,,,,,,,,,,,,,,,,120,001,2023-03-03_11h30.53.291,eb_01,2022.2.4,99.95537586264587,
5,stimuli/5.png,s,2,0,2,0,11,0,11,0,0,0,0,0,,,,,,,,,,,,,,,,,,383.16355994541664,383.16355994541664,383.16355994541664,383.16355994541664,s,1,0.581519658502657,383.7739525625948,383.7739525625948,383.7739525625948,,,,,,,,,,,,,,,,,,,,,,,,,,,,120,001,2023-03-03_11h30.53.291,eb_01,2022.2.4,99.95537586264587,
,,,2,0,2,0,11,0,11,0,,,,,,,,,,,,,,,,,,,,,,,,,,,,,,,,,,,,,,,,,,,,,,,,,,,,,,,,,,,120,001,2023-03-03_11h30.53.291,eb_01,2022.2.4,99.95537586264587,
