index,stimulus,correct_answer,block.thisRepN,block.thisTrialN,block.thisN,block.thisIndex,trial.thisRepN,trial.thisTrialN,trial.thisN,trial.thisIndex,display_row.thisRepN,display_row.thisTrialN,display_row.thisN,display_row.thisIndex,pair_questions.thisRepN,pair_questions.thisTrialN,pair_questions.thisN,pair_questions.thisIndex,welcome_text.started,instructions_0_keypress.started,instructions_0_keypress.keys,instructions_0_keypress.rt,instructions_1_keypress.started,instructions_1_text.started,instructions_1_keypress.keys,instructions_1_keypress.rt,instructions_2_keypress.started,instructions_2_text.started,instructions_2_keypress.keys,instructions_2_keypress.rt,text_countdown.started,image.started,size_question.started,size_resp.started,keypress_options.started,size_resp.keys,size_resp.corr,size_resp.rt,fb_image.started,fb.started,fb_size_question.started,fb_image.stopped,fb.stopped,fb_size_question.stopped,block_break_text.started,block_break_keypress.started,block_break_keypress.keys,block_break_keypress.rt,seq_reveal.started,seq_reveal_adv.started,seq_reveal_adv.keys,seq_reveal_adv.rt,instruction_2afc_text.started,instruction_2afc_keypress.started,instruction_2afc_keypress.keys,instruction_2afc_keypress.rt,dist_2afc_test.started,dist_2afc_resp.started,text.started,stim_00.started,stim_01.started,stim_10.started,stim_11.started,dist_2afc_resp.keys,dist_2afc_resp.rt,graph.started,debrief_text.started,debriefing_title.started,participant,session,date,expName,psychopyVersion,frameRate,
,,,,,,,,,,,,,,,,,,,24.730295511486474,24.730295511486474,return,1.9181873466004618,,,,,,,,,,,,,,,,,,,,,,,,,,,,,,,,,,,,,,,,,,,,,,,121,001,2023-03-03_11h28.10.343,eb_01,2022.2.4,60.003803554113084,
,,,,,,,,,,,,,,,,,,,,,,,26.680175978748593,26.680175978748593,return,8.176512379024643,,,,,,,,,,,,,,,,,,,,,,,,,,,,,,,,,,,,,,,,,,,121,001,2023-03-03_11h28.10.343,eb_01,2022.2.4,60.003803554113084,
,,,,,,,,,,,,,,,,,,,,,,,,,,,34.87965921097202,34.87965921097202,space,4.297122720454354,,,,,,,,,,,,,,,,,,,,,,,,,,,,,,,,,,,,,,,121,001,2023-03-03_11h28.10.343,eb_01,2022.2.4,60.003803554113084,
1,stimuli/1.png,s,0,0,0,0,0,0,0,0,0,0,0,0,,,,,,,,,,,,,,,,,39.21275740288547,44.22876905431622,44.22876905431622,44.22876905431622,44.22876905431622,s,1,2.0351733709394466,46.31229647740838,46.31229647740838,46.31229647740838,,,,,,,,,,,,,,,,,,,,,,,,,,,,121,001,2023-03-03_11h28.10.343,eb_01,2022.2.4,60.003803554113084,
,,,0,0,0,0,0,0,0,0,,,,,,,,,,,,,,,,,,,,,,,,,,,,,,,,,,,,,,,,,,,,,,,,,,,,,,,,,,,121,001,2023-03-03_11h28.10.343,eb_01,2022.2.4,60.003803554113084,
2,stimuli/2.png,s,0,0,0,0,1,0,1,0,0,0,0,0,,,,,,,,,,,,,,,,,,47.3122430499061,47.3122430499061,47.3122430499061,47.3122430499061,s,1,1.4637546743033454,48.79545835976023,48.79545835976023,48.79545835976023,49.81207733406336,49.81207733406336,49.81207733406336,,,,,,,,,,,,,,,,,,,,,,,,,121,001,2023-03-03_11h28.10.343,eb_01,2022.2.4,60.003803554113084,
,,,0,0,0,0,1,0,1,0,,,,,,,,,,,,,,,,,,,,,,,,,,,,,,,,,,,,,,,,,,,,,,,,,,,,,,,,,,,121,001,2023-03-03_11h28.10.343,eb_01,2022.2.4,60.003803554113084,
1,stimuli/1.png,s,0,0,0,0,2,0,2,0,0,0,0,0,,,,,,,,,,,,,,,,,,49.81207733406336,49.81207733406336,49.81207733406336,49.81207733406336,s,1,1.2599688673217315,51.11200670109247,51.11200670109247,51.11200670109247,,,,,,,,,,,,,,,,,,,,,,,,,,,,121,001,2023-03-03_11h28.10.343,eb_01,2022.2.4,60.003803554113084,
,,,0,0,0,0,2,0,2,0,,,,,,,,,,,,,,,,,,,,,,,,,,,,,,,,,,,,,,,,,,,,,,,,,,,,,,,,,,,121,001,2023-03-03_11h28.10.343,eb_01,2022.2.4,60.003803554113084,
2,stimuli/2.png,s,0,0,0,0,3,0,3,0,0,0,0,0,,,,,,,,,,,,,,,,,,52.11191222193884,52.11191222193884,52.11191222193884,52.11191222193884,s,1,1.360172314423835,53.49514745391207,53.49514745391207,53.49514745391207,54.49513447433128,54.49513447433128,54.49513447433128,,,,,,,,,,,,,,,,,,,,,,,,,121,001,2023-03-03_11h28.10.343,eb_01,2022.2.4,60.003803554113084,
,,,0,0,0,0,3,0,3,0,,,,,,,,,,,,,,,,,,,,,,,,,,,,,,,,,,,,,,,,,,,,,,,,,,,,,,,,,,,121,001,2023-03-03_11h28.10.343,eb_01,2022.2.4,60.003803554113084,
3,stimuli/3.png,l,0,0,0,0,4,0,4,0,0,0,0,0,,,,,,,,,,,,,,,,,,54.49513447433128,54.49513447433128,54.49513447433128,54.49513447433128,l,1,0.8810184009489603,55.395065652468475,55.395065652468475,55.395065652468475,56.39500437682727,56.39500437682727,56.39500437682727,,,,,,,,,,,,,,,,,,,,,,,,,121,001,2023-03-03_11h28.10.343,eb_01,2022.2.4,60.003803554113084,
,,,0,0,0,0,4,0,4,0,,,,,,,,,,,,,,,,,,,,,,,,,,,,,,,,,,,,,,,,,,,,,,,,,,,,,,,,,,,121,001,2023-03-03_11h28.10.343,eb_01,2022.2.4,60.003803554113084,
2,stimuli/2.png,s,0,0,0,0,5,0,5,0,0,0,0,0,,,,,,,,,,,,,,,,,,56.39500437682727,56.39500437682727,56.39500437682727,56.39500437682727,s,1,0.7161900028586388,57.1282951492758,57.1282951492758,57.1282951492758,58.12823417549953,58.12823417549953,58.12823417549953,,,,,,,,,,,,,,,,,,,,,,,,,121,001,2023-03-03_11h28.10.343,eb_01,2022.2.4,60.003803554113084,
,,,0,0,0,0,5,0,5,0,,,,,,,,,,,,,,,,,,,,,,,,,,,,,,,,,,,,,,,,,,,,,,,,,,,,,,,,,,,121,001,2023-03-03_11h28.10.343,eb_01,2022.2.4,60.003803554113084,
3,stimuli/3.png,l,0,0,0,0,6,0,6,0,0,0,0,0,,,,,,,,,,,,,,,,,,58.12823417549953,58.12823417549953,58.12823417549953,58.12823417549953,l,1,0.4789899666502606,58.62821697004256,58.62821697004256,58.62821697004256,59.62781430166797,59.62781430166797,59.62781430166797,,,,,,,,,,,,,,,,,,,,,,,,,121,001,2023-03-03_11h28.10.343,eb_01,2022.2.4,60.003803554113084,
,,,0,0,0,0,6,0,6,0,,,,,,,,,,,,,,,,,,,,,,,,,,,,,,,,,,,,,,,,,,,,,,,,,,,,,,,,,,,121,001,2023-03-03_11h28.10.343,eb_01,2022.2.4,60.003803554113084,
2,stimuli/2.png,s,0,0,0,0,7,0,7,0,0,0,0,0,,,,,,,,,,,,,,,,,,59.62781430166797,59.62781430166797,59.62781430166797,59.62781430166797,s,1,0.5954510732262861,60.2447613873228,60.2447613873228,60.2447613873228,61.2613658728078,61.2613658728078,61.2613658728078,,,,,,,,,,,,,,,,,,,,,,,,,121,001,2023-03-03_11h28.10.343,eb_01,2022.2.4,60.003803554113084,
,,,0,0,0,0,7,0,7,0,,,,,,,,,,,,,,,,,,,,,,,,,,,,,,,,,,,,,,,,,,,,,,,,,,,,,,,,,,,121,001,2023-03-03_11h28.10.343,eb_01,2022.2.4,60.003803554113084,
4,stimuli/4.png,l,0,0,0,0,8,0,8,0,0,0,0,0,,,,,,,,,,,,,,,,,,61.2613658728078,61.2613658728078,61.2613658728078,61.2613658728078,l,1,0.5459310152800754,61.82799993964727,61.82799993964727,61.82799993964727,62.82793292886345,62.82793292886345,62.82793292886345,,,,,,,,,,,,,,,,,,,,,,,,,121,001,2023-03-03_11h28.10.343,eb_01,2022.2.4,60.003803554113084,
,,,0,0,0,0,8,0,8,0,,,,,,,,,,,,,,,,,,,,,,,,,,,,,,,,,,,,,,,,,,,,,,,,,,,,,,,,,,,121,001,2023-03-03_11h28.10.343,eb_01,2022.2.4,60.003803554113084,
2,stimuli/2.png,s,0,0,0,0,9,0,9,0,0,0,0,0,,,,,,,,,,,,,,,,,,62.82793292886345,62.82793292886345,62.82793292886345,62.82793292886345,s,1,0.7794086330977734,63.627863503294066,63.627863503294066,63.627863503294066,64.64450179602136,64.64450179602136,64.64450179602136,,,,,,,,,,,,,,,,,,,,,,,,,121,001,2023-03-03_11h28.10.343,eb_01,2022.2.4,60.003803554113084,
,,,0,0,0,0,9,0,9,0,,,,,,,,,,,,,,,,,,,,,,,,,,,,,,,,,,,,,,,,,,,,,,,,,,,,,,,,,,,121,001,2023-03-03_11h28.10.343,eb_01,2022.2.4,60.003803554113084,
4,stimuli/4.png,l,0,0,0,0,10,0,10,0,0,0,0,0,,,,,,,,,,,,,,,,,,64.64450179602136,64.64450179602136,64.64450179602136,64.64450179602136,s,0,0.6668558847159147,65.36108364272513,65.36108364272513,65.36108364272513,,,,,,,,,,,,,,,,,,,,,,,,,,,,121,001,2023-03-03_11h28.10.343,eb_01,2022.2.4,60.003803554113084,
,,,0,0,0,0,10,0,10,0,,,,,,,,,,,,,,,,,,,,,,,,,,,,,,,,,,,,,,,,,,,,,,,,,,,,,,,,,,,121,001,2023-03-03_11h28.10.343,eb_01,2022.2.4,60.003803554113084,
1,stimuli/1.png,s,0,0,0,0,11,0,11,0,0,0,0,0,,,,,,,,,,,,,,,,,,66.37772012437927,66.37772012437927,66.37772012437927,66.37772012437927,s,1,0.8137075856502634,67.22766850795597,67.22766850795597,67.22766850795597,,,,,,,,,,,,,,,,,,,,,,,,,,,,121,001,2023-03-03_11h28.10.343,eb_01,2022.2.4,60.003803554113084,
,,,0,0,0,0,11,0,11,0,,,,,,,,,,,,,,,,,,,,,,,,,,,,,,,,,,,,,,,,,,,,,,,,,,,,,,,,,,,121,001,2023-03-03_11h28.10.343,eb_01,2022.2.4,60.003803554113084,
4,stimuli/4.png,l,0,0,0,0,12,0,12,0,0,0,0,0,,,,,,,,,,,,,,,,,,68.24426967310137,68.24426967310137,68.24426967310137,68.24426967310137,l,1,0.5151975189510267,68.77757553805714,68.77757553805714,68.77757553805714,69.77751214947784,69.77751214947784,69.77751214947784,,,,,,,,,,,,,,,,,,,,,,,,,121,001,2023-03-03_11h28.10.343,eb_01,2022.2.4,60.003803554113084,
,,,0,0,0,0,12,0,12,0,,,,,,,,,,,,,,,,,,,,,,,,,,,,,,,,,,,,,,,,,,,,,,,,,,,,,,,,,,,121,001,2023-03-03_11h28.10.343,eb_01,2022.2.4,60.003803554113084,
3,stimuli/3.png,l,0,0,0,0,13,0,13,0,0,0,0,0,,,,,,,,,,,,,,,,,,69.77751214947784,69.77751214947784,69.77751214947784,69.77751214947784,l,1,0.6220172237372026,70.42748196443426,70.42748196443426,70.42748196443426,71.44407709257212,71.44407709257212,71.44407709257212,,,,,,,,,,,,,,,,,,,,,,,,,121,001,2023-03-03_11h28.10.343,eb_01,2022.2.4,60.003803554113084,
,,,0,0,0,0,13,0,13,0,,,,,,,,,,,,,,,,,,,,,,,,,,,,,,,,,,,,,,,,,,,,,,,,,,,,,,,,,,,121,001,2023-03-03_11h28.10.343,eb_01,2022.2.4,60.003803554113084,
4,stimuli/4.png,l,0,0,0,0,14,0,14,0,0,0,0,0,,,,,,,,,,,,,,,,,,71.44407709257212,71.44407709257212,71.44407709257212,71.44407709257212,l,1,0.9864677051955368,72.46068429472507,72.46068429472507,72.46068429472507,73.47728274323163,73.47728274323163,73.47728274323163,,,,,,,,,,,,,,,,,,,,,,,,,121,001,2023-03-03_11h28.10.343,eb_01,2022.2.4,60.003803554113084,
,,,0,0,0,0,14,0,14,0,,,,,,,,,,,,,,,,,,,,,,,,,,,,,,,,,,,,,,,,,,,,,,,,,,,,,,,,,,,121,001,2023-03-03_11h28.10.343,eb_01,2022.2.4,60.003803554113084,
1,stimuli/1.png,s,0,0,0,0,15,0,15,0,0,0,0,0,,,,,,,,,,,,,,,,,,73.47728274323163,73.47728274323163,73.47728274323163,73.47728274323163,s,1,0.5293235112621915,74.0439146971039,74.0439146971039,74.0439146971039,,,,,,,,,,,,,,,,,,,,,,,,,,,,121,001,2023-03-03_11h28.10.343,eb_01,2022.2.4,60.003803554113084,
,,,0,0,0,0,15,0,15,0,,,,,,,,,,,,,,,,,,,,,,,,,,,,,,,,,,,,,,,,,,,,,,,,,,,,,,,,,,,121,001,2023-03-03_11h28.10.343,eb_01,2022.2.4,60.003803554113084,
2,stimuli/2.png,s,0,0,0,0,16,0,16,0,0,0,0,0,,,,,,,,,,,,,,,,,,75.0438567418314,75.0438567418314,75.0438567418314,75.0438567418314,s,1,0.6267680462624412,75.69381478463765,75.69381478463765,75.69381478463765,76.69375350902556,76.69375350902556,76.69375350902556,,,,,,,,,,,,,,,,,,,,,,,,,121,001,2023-03-03_11h28.10.343,eb_01,2022.2.4,60.003803554113084,
,,,0,0,0,0,16,0,16,0,,,,,,,,,,,,,,,,,,,,,,,,,,,,,,,,,,,,,,,,,,,,,,,,,,,,,,,,,,,121,001,2023-03-03_11h28.10.343,eb_01,2022.2.4,60.003803554113084,
3,stimuli/3.png,l,0,0,0,0,17,0,17,0,0,0,0,0,,,,,,,,,,,,,,,,,,76.69375350902556,76.69375350902556,76.69375350902556,76.69375350902556,s,0,1.0489154095994309,77.76034833531594,77.76034833531594,77.76034833531594,78.76028947447776,78.76028947447776,78.76028947447776,,,,,,,,,,,,,,,,,,,,,,,,,121,001,2023-03-03_11h28.10.343,eb_01,2022.2.4,60.003803554113084,
,,,0,0,0,0,17,0,17,0,,,,,,,,,,,,,,,,,,,,,,,,,,,,,,,,,,,,,,,,,,,,,,,,,,,,,,,,,,,121,001,2023-03-03_11h28.10.343,eb_01,2022.2.4,60.003803554113084,
2,stimuli/2.png,s,0,0,0,0,18,0,18,0,0,0,0,0,,,,,,,,,,,,,,,,,,78.76028947447776,78.76028947447776,78.76028947447776,78.76028947447776,s,1,0.6303817986045033,79.41022940626135,79.41022940626135,79.41022940626135,80.426859549043,80.426859549043,80.426859549043,,,,,,,,,,,,,,,,,,,,,,,,,121,001,2023-03-03_11h28.10.343,eb_01,2022.2.4,60.003803554113084,
,,,0,0,0,0,18,0,18,0,,,,,,,,,,,,,,,,,,,,,,,,,,,,,,,,,,,,,,,,,,,,,,,,,,,,,,,,,,,121,001,2023-03-03_11h28.10.343,eb_01,2022.2.4,60.003803554113084,
1,stimuli/1.png,s,0,0,0,0,19,0,19,0,0,0,0,0,,,,,,,,,,,,,,,,,,80.426859549043,80.426859549043,80.426859549043,80.426859549043,s,1,0.8358727581507992,81.31014519001474,81.31014519001474,81.31014519001474,,,,,,,,,,,,,,,,,,,,,,,,,,,,121,001,2023-03-03_11h28.10.343,eb_01,2022.2.4,60.003803554113084,
,,,0,0,0,0,19,0,19,0,,,,,,,,,,,,,,,,,,,,,,,,,,,,,,,,,,,,,,,,,,,,,,,,,,,,,,,,,,,121,001,2023-03-03_11h28.10.343,eb_01,2022.2.4,60.003803554113084,
2,stimuli/2.png,s,0,0,0,0,20,0,20,0,0,0,0,0,,,,,,,,,,,,,,,,,,82.31007757553016,82.31007757553016,82.31007757553016,82.31007757553016,s,1,0.5127054425247479,82.84338042198215,82.84338042198215,82.84338042198215,83.84331461862894,83.84331461862894,83.84331461862894,,,,,,,,,,,,,,,,,,,,,,,,,121,001,2023-03-03_11h28.10.343,eb_01,2022.2.4,60.003803554113084,
,,,0,0,0,0,20,0,20,0,,,,,,,,,,,,,,,,,,,,,,,,,,,,,,,,,,,,,,,,,,,,,,,,,,,,,,,,,,,121,001,2023-03-03_11h28.10.343,eb_01,2022.2.4,60.003803554113084,
3,stimuli/3.png,l,0,0,0,0,21,0,21,0,0,0,0,0,,,,,,,,,,,,,,,,,,83.84331461862894,83.84331461862894,83.84331461862894,83.84331461862894,l,1,0.4755002748570405,84.34329379093833,84.34329379093833,84.34329379093833,85.35987684506108,85.35987684506108,85.35987684506108,,,,,,,,,,,,,,,,,,,,,,,,,121,001,2023-03-03_11h28.10.343,eb_01,2022.2.4,60.003803554113084,
,,,0,0,0,0,21,0,21,0,,,,,,,,,,,,,,,,,,,,,,,,,,,,,,,,,,,,,,,,,,,,,,,,,,,,,,,,,,,121,001,2023-03-03_11h28.10.343,eb_01,2022.2.4,60.003803554113084,
8,stimuli/8.png,l,0,0,0,0,22,0,22,0,0,0,0,0,,,,,,,,,,,,,,,,,,85.35987684506108,85.35987684506108,85.35987684506108,85.35987684506108,l,1,0.6700346707075369,86.05985299887834,86.05985299887834,86.05985299887834,87.07639801985351,87.07639801985351,87.07639801985351,,,,,,,,,,,,,,,,,,,,,,,,,121,001,2023-03-03_11h28.10.343,eb_01,2022.2.4,60.003803554113084,
,,,0,0,0,0,22,0,22,0,,,,,,,,,,,,,,,,,,,,,,,,,,,,,,,,,,,,,,,,,,,,,,,,,,,,,,,,,,,121,001,2023-03-03_11h28.10.343,eb_01,2022.2.4,60.003803554113084,
9,stimuli/9.png,l,0,0,0,0,23,0,23,0,0,0,0,0,,,,,,,,,,,,,,,,,,87.07639801985351,87.07639801985351,87.07639801985351,87.07639801985351,l,1,0.6654966526548378,87.77643182710744,87.77643182710744,87.77643182710744,,,,,,,,,,,,,,,,,,,,,,,,,,,,121,001,2023-03-03_11h28.10.343,eb_01,2022.2.4,60.003803554113084,
,,,0,0,0,0,23,0,23,0,,,,,,,,,,,,,,,,,,,,,,,,,,,,,,,,,,,,,,,,,,,,,,,,,,,,,,,,,,,121,001,2023-03-03_11h28.10.343,eb_01,2022.2.4,60.003803554113084,
6,stimuli/6.png,s,0,0,0,0,24,0,24,0,0,0,0,0,,,,,,,,,,,,,,,,,,88.80967581275036,88.80967581275036,88.80967581275036,88.80967581275036,s,1,0.8203042230452411,89.6762848259823,89.6762848259823,89.6762848259823,,,,,,,,,,,,,,,,,,,,,,,,,,,,121,001,2023-03-03_11h28.10.343,eb_01,2022.2.4,60.003803554113084,
,,,0,0,0,0,24,0,24,0,,,,,,,,,,,,,,,,,,,,,,,,,,,,,,,,,,,,,,,,,,,,,,,,,,,,,,,,,,,121,001,2023-03-03_11h28.10.343,eb_01,2022.2.4,60.003803554113084,
5,stimuli/5.png,s,0,0,0,0,25,0,25,0,0,0,0,0,,,,,,,,,,,,,,,,,,90.67592290742323,90.67592290742323,90.67592290742323,90.67592290742323,s,1,0.7620462013874203,91.45958555949619,91.45958555949619,91.45958555949619,92.47611941199284,92.47611941199284,92.47611941199284,,,,,,,,,,,,,,,,,,,,,,,,,121,001,2023-03-03_11h28.10.343,eb_01,2022.2.4,60.003803554113084,
,,,0,0,0,0,25,0,25,0,,,,,,,,,,,,,,,,,,,,,,,,,,,,,,,,,,,,,,,,,,,,,,,,,,,,,,,,,,,121,001,2023-03-03_11h28.10.343,eb_01,2022.2.4,60.003803554113084,
6,stimuli/6.png,s,0,0,0,0,26,0,26,0,0,0,0,0,,,,,,,,,,,,,,,,,,92.47611941199284,92.47611941199284,92.47611941199284,92.47611941199284,s,1,0.5298961213848088,93.04274834736134,93.04274834736134,93.04274834736134,,,,,,,,,,,,,,,,,,,,,,,,,,,,121,001,2023-03-03_11h28.10.343,eb_01,2022.2.4,60.003803554113084,
,,,0,0,0,0,26,0,26,0,,,,,,,,,,,,,,,,,,,,,,,,,,,,,,,,,,,,,,,,,,,,,,,,,,,,,,,,,,,121,001,2023-03-03_11h28.10.343,eb_01,2022.2.4,60.003803554113084,
9,stimuli/9.png,l,0,0,0,0,27,0,27,0,0,0,0,0,,,,,,,,,,,,,,,,,,94.0593534365762,94.0593534365762,94.0593534365762,94.0593534365762,l,1,0.7627144980360754,94.85930966827436,94.85930966827436,94.85930966827436,,,,,,,,,,,,,,,,,,,,,,,,,,,,121,001,2023-03-03_11h28.10.343,eb_01,2022.2.4,60.003803554113084,
,,,0,0,0,0,27,0,27,0,,,,,,,,,,,,,,,,,,,,,,,,,,,,,,,,,,,,,,,,,,,,,,,,,,,,,,,,,,,121,001,2023-03-03_11h28.10.343,eb_01,2022.2.4,60.003803554113084,
6,stimuli/6.png,s,0,0,0,0,28,0,28,0,0,0,0,0,,,,,,,,,,,,,,,,,,95.8759123426571,95.8759123426571,95.8759123426571,95.8759123426571,s,1,0.7141437593963929,96.62586495216237,96.62586495216237,96.62586495216237,,,,,,,,,,,,,,,,,,,,,,,,,,,,121,001,2023-03-03_11h28.10.343,eb_01,2022.2.4,60.003803554113084,
,,,0,0,0,0,28,0,28,0,,,,,,,,,,,,,,,,,,,,,,,,,,,,,,,,,,,,,,,,,,,,,,,,,,,,,,,,,,,121,001,2023-03-03_11h28.10.343,eb_01,2022.2.4,60.003803554113084,
8,stimuli/8.png,l,0,0,0,0,29,0,29,0,0,0,0,0,,,,,,,,,,,,,,,,,,97.64246430620551,97.64246430620551,97.64246430620551,97.64246430620551,l,1,0.6516824717109557,98.3257587008411,98.3257587008411,98.3257587008411,99.32570859367843,99.32570859367843,99.32570859367843,,,,,,,,,,,,,,,,,,,,,,,,,121,001,2023-03-03_11h28.10.343,eb_01,2022.2.4,60.003803554113084,
,,,0,0,0,0,29,0,29,0,,,,,,,,,,,,,,,,,,,,,,,,,,,,,,,,,,,,,,,,,,,,,,,,,,,,,,,,,,,121,001,2023-03-03_11h28.10.343,eb_01,2022.2.4,60.003803554113084,
3,stimuli/3.png,l,0,0,0,0,30,0,30,0,0,0,0,0,,,,,,,,,,,,,,,,,,99.32570859367843,99.32570859367843,99.32570859367843,99.32570859367843,l,1,0.6004747684928589,99.99232424763613,99.99232424763613,99.99232424763613,,,,,,,,,,,,,,,,,,,,,,,,,,,,121,001,2023-03-03_11h28.10.343,eb_01,2022.2.4,60.003803554113084,
,,,0,0,0,0,30,0,30,0,,,,,,,,,,,,,,,,,,,,,,,,,,,,,,,,,,,,,,,,,,,,,,,,,,,,,,,,,,,121,001,2023-03-03_11h28.10.343,eb_01,2022.2.4,60.003803554113084,
8,stimuli/8.png,l,0,0,0,0,31,0,31,0,0,0,0,0,,,,,,,,,,,,,,,,,,101.00892329984345,101.00892329984345,101.00892329984345,101.00892329984345,l,1,0.621279199665878,101.65888768149307,101.65888768149307,101.65888768149307,102.675492468843,102.675492468843,102.675492468843,,,,,,,,,,,,,,,,,,,,,,,,,121,001,2023-03-03_11h28.10.343,eb_01,2022.2.4,60.003803554113084,
,,,0,0,0,0,31,0,31,0,,,,,,,,,,,,,,,,,,,,,,,,,,,,,,,,,,,,,,,,,,,,,,,,,,,,,,,,,,,121,001,2023-03-03_11h28.10.343,eb_01,2022.2.4,60.003803554113084,
6,stimuli/6.png,s,0,0,0,0,32,0,32,0,0,0,0,0,,,,,,,,,,,,,,,,,,102.675492468843,102.675492468843,102.675492468843,102.675492468843,s,1,0.6177587191050407,103.34211989495088,103.34211989495088,103.34211989495088,,,,,,,,,,,,,,,,,,,,,,,,,,,,121,001,2023-03-03_11h28.10.343,eb_01,2022.2.4,60.003803554113084,
,,,0,0,0,0,32,0,32,0,,,,,,,,,,,,,,,,,,,,,,,,,,,,,,,,,,,,,,,,,,,,,,,,,,,,,,,,,,,121,001,2023-03-03_11h28.10.343,eb_01,2022.2.4,60.003803554113084,
9,stimuli/9.png,l,0,0,0,0,33,0,33,0,0,0,0,0,,,,,,,,,,,,,,,,,,104.35871653235517,104.35871653235517,104.35871653235517,104.35871653235517,l,1,0.5745778201962821,104.97534788251505,104.97534788251505,104.97534788251505,,,,,,,,,,,,,,,,,,,,,,,,,,,,121,001,2023-03-03_11h28.10.343,eb_01,2022.2.4,60.003803554113084,
,,,0,0,0,0,33,0,33,0,,,,,,,,,,,,,,,,,,,,,,,,,,,,,,,,,,,,,,,,,,,,,,,,,,,,,,,,,,,121,001,2023-03-03_11h28.10.343,eb_01,2022.2.4,60.003803554113084,
6,stimuli/6.png,s,0,0,0,0,34,0,34,0,0,0,0,0,,,,,,,,,,,,,,,,,,105.99193063480197,105.99193063480197,105.99193063480197,105.99193063480197,s,1,0.5493865980242845,106.57524887562613,106.57524887562613,106.57524887562613,,,,,,,,,,,,,,,,,,,,,,,,,,,,121,001,2023-03-03_11h28.10.343,eb_01,2022.2.4,60.003803554113084,
,,,0,0,0,0,34,0,34,0,,,,,,,,,,,,,,,,,,,,,,,,,,,,,,,,,,,,,,,,,,,,,,,,,,,,,,,,,,,121,001,2023-03-03_11h28.10.343,eb_01,2022.2.4,60.003803554113084,
8,stimuli/8.png,l,0,0,0,0,35,0,35,0,0,0,0,0,,,,,,,,,,,,,,,,,,107.59183374085114,107.59183374085114,107.59183374085114,107.59183374085114,l,1,1.0375368591048755,108.65845271514263,108.65845271514263,108.65845271514263,109.67506535060238,109.67506535060238,109.67506535060238,,,,,,,,,,,,,,,,,,,,,,,,,121,001,2023-03-03_11h28.10.343,eb_01,2022.2.4,60.003803554113084,
,,,0,0,0,0,35,0,35,0,,,,,,,,,,,,,,,,,,,,,,,,,,,,,,,,,,,,,,,,,,,,,,,,,,,,,,,,,,,121,001,2023-03-03_11h28.10.343,eb_01,2022.2.4,60.003803554113084,
9,stimuli/9.png,l,0,0,0,0,36,0,36,0,0,0,0,0,,,,,,,,,,,,,,,,,,109.67506535060238,109.67506535060238,109.67506535060238,109.67506535060238,l,1,0.6263330799120013,110.34165504542761,110.34165504542761,110.34165504542761,,,,,,,,,,,,,,,,,,,,,,,,,,,,121,001,2023-03-03_11h28.10.343,eb_01,2022.2.4,60.003803554113084,
,,,0,0,0,0,36,0,36,0,,,,,,,,,,,,,,,,,,,,,,,,,,,,,,,,,,,,,,,,,,,,,,,,,,,,,,,,,,,121,001,2023-03-03_11h28.10.343,eb_01,2022.2.4,60.003803554113084,
6,stimuli/6.png,s,0,0,0,0,37,0,37,0,0,0,0,0,,,,,,,,,,,,,,,,,,111.35828760301229,111.35828760301229,111.35828760301229,111.35828760301229,s,1,0.6231210904370528,112.02494944006321,112.02494944006321,112.02494944006321,,,,,,,,,,,,,,,,,,,,,,,,,,,,121,001,2023-03-03_11h28.10.343,eb_01,2022.2.4,60.003803554113084,
,,,0,0,0,0,37,0,37,0,,,,,,,,,,,,,,,,,,,,,,,,,,,,,,,,,,,,,,,,,,,,,,,,,,,,,,,,,,,121,001,2023-03-03_11h28.10.343,eb_01,2022.2.4,60.003803554113084,
5,stimuli/5.png,s,0,0,0,0,38,0,38,0,0,0,0,0,,,,,,,,,,,,,,,,,,113.0245497902215,113.0245497902215,113.0245497902215,113.0245497902215,s,1,0.6849548312602565,113.74150019622175,113.74150019622175,113.74150019622175,114.75808355218032,114.75808355218032,114.75808355218032,,,,,,,,,,,,,,,,,,,,,,,,,121,001,2023-03-03_11h28.10.343,eb_01,2022.2.4,60.003803554113084,
,,,0,0,0,0,38,0,38,0,,,,,,,,,,,,,,,,,,,,,,,,,,,,,,,,,,,,,,,,,,,,,,,,,,,,,,,,,,,121,001,2023-03-03_11h28.10.343,eb_01,2022.2.4,60.003803554113084,
9,stimuli/9.png,l,0,0,0,0,39,0,39,0,0,0,0,0,,,,,,,,,,,,,,,,,,114.75808355218032,114.75808355218032,114.75808355218032,114.75808355218032,l,1,0.5754607324488461,115.37469316914212,115.37469316914212,115.37469316914212,,,,,,,,,,,,,,,,,,,,,,,,,,,,121,001,2023-03-03_11h28.10.343,eb_01,2022.2.4,60.003803554113084,
,,,0,0,0,0,39,0,39,0,,,,,,,,,,,,,,,,,,,,,,,,,,,,,,,,,,,,,,,,,,,,,,,,,,,,,,,,,,,121,001,2023-03-03_11h28.10.343,eb_01,2022.2.4,60.003803554113084,
5,stimuli/5.png,s,0,0,0,0,40,0,40,0,0,0,0,0,,,,,,,,,,,,,,,,,,116.3743360801891,116.3743360801891,116.3743360801891,116.3743360801891,s,1,0.6392462376097683,117.04128437320469,117.04128437320469,117.04128437320469,118.05788704761653,118.05788704761653,118.05788704761653,,,,,,,,,,,,,,,,,,,,,,,,,121,001,2023-03-03_11h28.10.343,eb_01,2022.2.4,60.003803554113084,
,,,0,0,0,0,40,0,40,0,,,,,,,,,,,,,,,,,,,,,,,,,,,,,,,,,,,,,,,,,,,,,,,,,,,,,,,,,,,121,001,2023-03-03_11h28.10.343,eb_01,2022.2.4,60.003803554113084,
6,stimuli/6.png,s,0,0,0,0,41,0,41,0,0,0,0,0,,,,,,,,,,,,,,,,,,118.05788704761653,118.05788704761653,118.05788704761653,118.05788704761653,s,1,0.5467128076707013,118.64118446075008,118.64118446075008,118.64118446075008,,,,,,,,,,,,,,,,,,,,,,,,,,,,121,001,2023-03-03_11h28.10.343,eb_01,2022.2.4,60.003803554113084,
,,,0,0,0,0,41,0,41,0,,,,,,,,,,,,,,,,,,,,,,,,,,,,,,,,,,,,,,,,,,,,,,,,,,,,,,,,,,,121,001,2023-03-03_11h28.10.343,eb_01,2022.2.4,60.003803554113084,
5,stimuli/5.png,s,0,0,0,0,42,0,42,0,0,0,0,0,,,,,,,,,,,,,,,,,,119.6408146940812,119.6408146940812,119.6408146940812,119.6408146940812,s,1,0.5238325516984332,120.19110688520595,120.19110688520595,120.19110688520595,121.20769446709892,121.20769446709892,121.20769446709892,,,,,,,,,,,,,,,,,,,,,,,,,121,001,2023-03-03_11h28.10.343,eb_01,2022.2.4,60.003803554113084,
,,,0,0,0,0,42,0,42,0,,,,,,,,,,,,,,,,,,,,,,,,,,,,,,,,,,,,,,,,,,,,,,,,,,,,,,,,,,,121,001,2023-03-03_11h28.10.343,eb_01,2022.2.4,60.003803554113084,
9,stimuli/9.png,l,0,0,0,0,43,0,43,0,0,0,0,0,,,,,,,,,,,,,,,,,,121.20769446709892,121.20769446709892,121.20769446709892,121.20769446709892,l,1,0.5969874914735556,121.8409849376767,121.8409849376767,121.8409849376767,,,,,,,,,,,,,,,,,,,,,,,,,,,,121,001,2023-03-03_11h28.10.343,eb_01,2022.2.4,60.003803554113084,
,,,0,0,0,0,43,0,43,0,,,,,,,,,,,,,,,,,,,,,,,,,,,,,,,,,,,,,,,,,,,,,,,,,,,,,,,,,,,121,001,2023-03-03_11h28.10.343,eb_01,2022.2.4,60.003803554113084,
8,stimuli/8.png,l,0,0,0,0,44,0,44,0,0,0,0,0,,,,,,,,,,,,,,,,,,122.85758912132587,122.85758912132587,122.85758912132587,122.85758912132587,l,1,0.5711346133321058,123.45750641432824,123.45750641432824,123.45750641432824,124.47418334390386,124.47418334390386,124.47418334390386,,,,,,,,,,,,,,,,,,,,,,,,,121,001,2023-03-03_11h28.10.343,eb_01,2022.2.4,60.003803554113084,
,,,0,0,0,0,44,0,44,0,,,,,,,,,,,,,,,,,,,,,,,,,,,,,,,,,,,,,,,,,,,,,,,,,,,,,,,,,,,121,001,2023-03-03_11h28.10.343,eb_01,2022.2.4,60.003803554113084,
6,stimuli/6.png,s,0,0,0,0,45,0,45,0,0,0,0,0,,,,,,,,,,,,,,,,,,124.47418334390386,124.47418334390386,124.47418334390386,124.47418334390386,s,1,0.7785776391101535,125.29080412932672,125.29080412932672,125.29080412932672,,,,,,,,,,,,,,,,,,,,,,,,,,,,121,001,2023-03-03_11h28.10.343,eb_01,2022.2.4,60.003803554113084,
,,,0,0,0,0,45,0,45,0,,,,,,,,,,,,,,,,,,,,,,,,,,,,,,,,,,,,,,,,,,,,,,,,,,,,,,,,,,,121,001,2023-03-03_11h28.10.343,eb_01,2022.2.4,60.003803554113084,
8,stimuli/8.png,l,0,0,0,0,46,0,46,0,0,0,0,0,,,,,,,,,,,,,,,,,,126.30741042591399,126.30741042591399,126.30741042591399,126.30741042591399,l,1,0.5453879864944611,126.87402879653382,126.87402879653382,126.87402879653382,127.89062875427771,127.89062875427771,127.89062875427771,,,,,,,,,,,,,,,,,,,,,,,,,121,001,2023-03-03_11h28.10.343,eb_01,2022.2.4,60.003803554113084,
,,,0,0,0,0,46,0,46,0,,,,,,,,,,,,,,,,,,,,,,,,,,,,,,,,,,,,,,,,,,,,,,,,,,,,,,,,,,,121,001,2023-03-03_11h28.10.343,eb_01,2022.2.4,60.003803554113084,
9,stimuli/9.png,l,0,0,0,0,47,0,47,0,0,0,0,0,,,,,,,,,,,,,,,,,,127.89062875427771,127.89062875427771,127.89062875427771,127.89062875427771,l,1,0.8742183164577,128.80726251925807,128.80726251925807,128.80726251925807,,,,,,,,,,,,,,,,,,,,,,,,,,,,121,001,2023-03-03_11h28.10.343,eb_01,2022.2.4,60.003803554113084,
,,,0,0,0,0,47,0,47,0,,,,,,,,,,,,,,,,,,,,,,,,,,,,,,,,,,,,,,,,,,,,,,,,,,,,,,,,,,,121,001,2023-03-03_11h28.10.343,eb_01,2022.2.4,60.003803554113084,
6,stimuli/6.png,s,0,0,0,0,48,0,48,0,0,0,0,0,,,,,,,,,,,,,,,,,,129.82385794923175,129.82385794923175,129.82385794923175,129.82385794923175,s,1,0.6450363308540545,130.50713996801642,130.50713996801642,130.50713996801642,,,,,,,,,,,,,,,,,,,,,,,,,,,,121,001,2023-03-03_11h28.10.343,eb_01,2022.2.4,60.003803554113084,
,,,0,0,0,0,48,0,48,0,,,,,,,,,,,,,,,,,,,,,,,,,,,,,,,,,,,,,,,,,,,,,,,,,,,,,,,,,,,121,001,2023-03-03_11h28.10.343,eb_01,2022.2.4,60.003803554113084,
5,stimuli/5.png,s,0,0,0,0,49,0,49,0,0,0,0,0,,,,,,,,,,,,,,,,,,131.50673216819996,131.50673216819996,131.50673216819996,131.50673216819996,s,1,0.7541974887717515,132.2903661444725,132.2903661444725,132.2903661444725,133.30697093182243,133.30697093182243,133.30697093182243,,,,,,,,,,,,,,,,,,,,,,,,,121,001,2023-03-03_11h28.10.343,eb_01,2022.2.4,60.003803554113084,
,,,0,0,0,0,49,0,49,0,,,,,,,,,,,,,,,,,,,,,,,,,,,,,,,,,,,,,,,,,,,,,,,,,,,,,,,,,,,121,001,2023-03-03_11h28.10.343,eb_01,2022.2.4,60.003803554113084,
6,stimuli/6.png,s,0,0,0,0,50,0,50,0,0,0,0,0,,,,,,,,,,,,,,,,,,133.30697093182243,133.30697093182243,133.30697093182243,133.30697093182243,s,1,0.7530136317072902,134.1069150895055,134.1069150895055,134.1069150895055,,,,,,,,,,,,,,,,,,,,,,,,,,,,121,001,2023-03-03_11h28.10.343,eb_01,2022.2.4,60.003803554113084,
,,,0,0,0,0,50,0,50,0,,,,,,,,,,,,,,,,,,,,,,,,,,,,,,,,,,,,,,,,,,,,,,,,,,,,,,,,,,,121,001,2023-03-03_11h28.10.343,eb_01,2022.2.4,60.003803554113084,
5,stimuli/5.png,s,0,0,0,0,51,0,51,0,0,0,0,0,,,,,,,,,,,,,,,,,,135.10653626732528,135.10653626732528,135.10653626732528,135.10653626732528,s,1,0.5615007578162476,135.6901485103881,135.6901485103881,135.6901485103881,136.7067542032746,136.7067542032746,136.7067542032746,,,,,,,,,,,,,,,,,,,,,,,,,121,001,2023-03-03_11h28.10.343,eb_01,2022.2.4,60.003803554113084,
,,,0,0,0,0,51,0,51,0,,,,,,,,,,,,,,,,,,,,,,,,,,,,,,,,,,,,,,,,,,,,,,,,,,,,,,,,,,,121,001,2023-03-03_11h28.10.343,eb_01,2022.2.4,60.003803554113084,
6,stimuli/6.png,s,0,0,0,0,52,0,52,0,0,0,0,0,,,,,,,,,,,,,,,,,,136.7067542032746,136.7067542032746,136.7067542032746,136.7067542032746,s,1,0.37728089003940113,137.12339219416026,137.12339219416026,137.12339219416026,,,,,,,,,,,,,,,,,,,,,,,,,,,,121,001,2023-03-03_11h28.10.343,eb_01,2022.2.4,60.003803554113084,
,,,0,0,0,0,52,0,52,0,,,,,,,,,,,,,,,,,,,,,,,,,,,,,,,,,,,,,,,,,,,,,,,,,,,,,,,,,,,121,001,2023-03-03_11h28.10.343,eb_01,2022.2.4,60.003803554113084,
8,stimuli/8.png,l,0,0,0,0,53,0,53,0,0,0,0,0,,,,,,,,,,,,,,,,,,138.12303631260875,138.12303631260875,138.12303631260875,138.12303631260875,l,1,0.3370240153744817,138.48993298923597,138.48993298923597,138.48993298923597,139.4899169911514,139.4899169911514,139.4899169911514,,,,,,,,,,,,,,,,,,,,,,,,,121,001,2023-03-03_11h28.10.343,eb_01,2022.2.4,60.003803554113084,
,,,0,0,0,0,53,0,53,0,,,,,,,,,,,,,,,,,,,,,,,,,,,,,,,,,,,,,,,,,,,,,,,,,,,,,,,,,,,121,001,2023-03-03_11h28.10.343,eb_01,2022.2.4,60.003803554113084,
3,stimuli/3.png,l,0,0,0,0,54,0,54,0,0,0,0,0,,,,,,,,,,,,,,,,,,139.4899169911514,139.4899169911514,139.4899169911514,139.4899169911514,l,1,0.4341875277168583,139.95656765977037,139.95656765977037,139.95656765977037,140.95619849680224,140.95619849680224,140.95619849680224,,,,,,,,,,,,,,,,,,,,,,,,,121,001,2023-03-03_11h28.10.343,eb_01,2022.2.4,60.003803554113084,
,,,0,0,0,0,54,0,54,0,,,,,,,,,,,,,,,,,,,,,,,,,,,,,,,,,,,,,,,,,,,,,,,,,,,,,,,,,,,121,001,2023-03-03_11h28.10.343,eb_01,2022.2.4,60.003803554113084,
2,stimuli/2.png,s,0,0,0,0,55,0,55,0,0,0,0,0,,,,,,,,,,,,,,,,,,140.95619849680224,140.95619849680224,140.95619849680224,140.95619849680224,s,1,0.423941217828542,141.40645114553627,141.40645114553627,141.40645114553627,142.42307253464242,142.42307253464242,142.42307253464242,,,,,,,,,,,,,,,,,,,,,,,,,121,001,2023-03-03_11h28.10.343,eb_01,2022.2.4,60.003803554113084,
,,,0,0,0,0,55,0,55,0,,,,,,,,,,,,,,,,,,,,,,,,,,,,,,,,,,,,,,,,,,,,,,,,,,,,,,,,,,,121,001,2023-03-03_11h28.10.343,eb_01,2022.2.4,60.003803554113084,
4,stimuli/4.png,l,0,0,0,0,56,0,56,0,0,0,0,0,,,,,,,,,,,,,,,,,,142.42307253464242,142.42307253464242,142.42307253464242,142.42307253464242,l,1,0.6291028586856555,143.07303993479582,143.07303993479582,143.07303993479582,144.08964170364197,144.08964170364197,144.08964170364197,,,,,,,,,,,,,,,,,,,,,,,,,121,001,2023-03-03_11h28.10.343,eb_01,2022.2.4,60.003803554113084,
,,,0,0,0,0,56,0,56,0,,,,,,,,,,,,,,,,,,,,,,,,,,,,,,,,,,,,,,,,,,,,,,,,,,,,,,,,,,,121,001,2023-03-03_11h28.10.343,eb_01,2022.2.4,60.003803554113084,
1,stimuli/1.png,s,0,0,0,0,57,0,57,0,0,0,0,0,,,,,,,,,,,,,,,,,,144.08964170364197,144.08964170364197,144.08964170364197,144.08964170364197,s,1,0.5545669535931665,144.68962449819082,144.68962449819082,144.68962449819082,,,,,,,,,,,,,,,,,,,,,,,,,,,,121,001,2023-03-03_11h28.10.343,eb_01,2022.2.4,60.003803554113084,
,,,0,0,0,0,57,0,57,0,,,,,,,,,,,,,,,,,,,,,,,,,,,,,,,,,,,,,,,,,,,,,,,,,,,,,,,,,,,121,001,2023-03-03_11h28.10.343,eb_01,2022.2.4,60.003803554113084,
2,stimuli/2.png,s,0,0,0,0,58,0,58,0,0,0,0,0,,,,,,,,,,,,,,,,,,145.68955054483376,145.68955054483376,145.68955054483376,145.68955054483376,s,1,0.4826894444413483,146.18951130431378,146.18951130431378,146.18951130431378,147.2061136768316,147.2061136768316,147.2061136768316,,,,,,,,,,,,,,,,,,,,,,,,,121,001,2023-03-03_11h28.10.343,eb_01,2022.2.4,60.003803554113084,
,,,0,0,0,0,58,0,58,0,,,,,,,,,,,,,,,,,,,,,,,,,,,,,,,,,,,,,,,,,,,,,,,,,,,,,,,,,,,121,001,2023-03-03_11h28.10.343,eb_01,2022.2.4,60.003803554113084,
4,stimuli/4.png,l,0,0,0,0,59,0,59,0,0,0,0,0,,,,,,,,,,,,,,,,,,147.2061136768316,147.2061136768316,147.2061136768316,147.2061136768316,l,1,0.8301783514616545,148.05606930484646,148.05606930484646,148.05606930484646,149.05601104773814,149.05601104773814,149.05601104773814,,,,,,,,,,,,,,,,,,,,,,,,,121,001,2023-03-03_11h28.10.343,eb_01,2022.2.4,60.003803554113084,
,,,0,0,0,0,59,0,59,0,,,,,,,,,,,,,,,,,,,,,,,,,,,,,,,,,,,,,,,,,,,,,,,,,,,,,,,,,,,121,001,2023-03-03_11h28.10.343,eb_01,2022.2.4,60.003803554113084,
3,stimuli/3.png,l,0,0,0,0,60,0,60,0,0,0,0,0,,,,,,,,,,,,,,,,,,149.05601104773814,149.05601104773814,149.05601104773814,149.05601104773814,l,1,0.7713368530676235,149.85591204080265,149.85591204080265,149.85591204080265,150.85589694831287,150.85589694831287,150.85589694831287,,,,,,,,,,,,,,,,,,,,,,,,,121,001,2023-03-03_11h28.10.343,eb_01,2022.2.4,60.003803554113084,
,,,0,0,0,0,60,0,60,0,,,,,,,,,,,,,,,,,,,,,,,,,,,,,,,,,,,,,,,,,,,,,,,,,,,,,,,,,,,121,001,2023-03-03_11h28.10.343,eb_01,2022.2.4,60.003803554113084,
2,stimuli/2.png,s,0,0,0,0,61,0,61,0,0,0,0,0,,,,,,,,,,,,,,,,,,150.85589694831287,150.85589694831287,150.85589694831287,150.85589694831287,s,1,0.7714850615884643,151.65585891515366,151.65585891515366,151.65585891515366,152.67245374145568,152.67245374145568,152.67245374145568,,,,,,,,,,,,,,,,,,,,,,,,,121,001,2023-03-03_11h28.10.343,eb_01,2022.2.4,60.003803554113084,
,,,0,0,0,0,61,0,61,0,,,,,,,,,,,,,,,,,,,,,,,,,,,,,,,,,,,,,,,,,,,,,,,,,,,,,,,,,,,121,001,2023-03-03_11h28.10.343,eb_01,2022.2.4,60.003803554113084,
1,stimuli/1.png,s,0,0,0,0,62,0,62,0,0,0,0,0,,,,,,,,,,,,,,,,,,152.67245374145568,152.67245374145568,152.67245374145568,152.67245374145568,s,1,0.5309586345974822,153.23908116755774,153.23908116755774,153.23908116755774,,,,,,,,,,,,,,,,,,,,,,,,,,,,121,001,2023-03-03_11h28.10.343,eb_01,2022.2.4,60.003803554113084,
,,,0,0,0,0,62,0,62,0,,,,,,,,,,,,,,,,,,,,,,,,,,,,,,,,,,,,,,,,,,,,,,,,,,,,,,,,,,,121,001,2023-03-03_11h28.10.343,eb_01,2022.2.4,60.003803554113084,
2,stimuli/2.png,s,0,0,0,0,63,0,63,0,0,0,0,0,,,,,,,,,,,,,,,,,,154.23902774005546,154.23902774005546,154.23902774005546,154.23902774005546,s,1,0.4844293098140042,154.7556609013409,154.7556609013409,154.7556609013409,155.77226176462136,155.77226176462136,155.77226176462136,,,,,,,,,,,,,,,,,,,,,,,,,121,001,2023-03-03_11h28.10.343,eb_01,2022.2.4,60.003803554113084,
,,,0,0,0,0,63,0,63,0,,,,,,,,,,,,,,,,,,,,,,,,,,,,,,,,,,,,,,,,,,,,,,,,,,,,,,,,,,,121,001,2023-03-03_11h28.10.343,eb_01,2022.2.4,60.003803554113084,
1,stimuli/1.png,s,0,0,0,0,64,0,64,0,0,0,0,0,,,,,,,,,,,,,,,,,,155.77226176462136,155.77226176462136,155.77226176462136,155.77226176462136,s,1,0.6232110418495722,156.43890126477345,156.43890126477345,156.43890126477345,,,,,,,,,,,,,,,,,,,,,,,,,,,,121,001,2023-03-03_11h28.10.343,eb_01,2022.2.4,60.003803554113084,
,,,0,0,0,0,64,0,64,0,,,,,,,,,,,,,,,,,,,,,,,,,,,,,,,,,,,,,,,,,,,,,,,,,,,,,,,,,,,121,001,2023-03-03_11h28.10.343,eb_01,2022.2.4,60.003803554113084,
4,stimuli/4.png,l,0,0,0,0,65,0,65,0,0,0,0,0,,,,,,,,,,,,,,,,,,157.45550816506147,157.45550816506147,157.45550816506147,157.45550816506147,l,1,0.6120184311293997,158.0887913912302,158.0887913912302,158.0887913912302,159.08873524705996,159.08873524705996,159.08873524705996,,,,,,,,,,,,,,,,,,,,,,,,,121,001,2023-03-03_11h28.10.343,eb_01,2022.2.4,60.003803554113084,
,,,0,0,0,0,65,0,65,0,,,,,,,,,,,,,,,,,,,,,,,,,,,,,,,,,,,,,,,,,,,,,,,,,,,,,,,,,,,121,001,2023-03-03_11h28.10.343,eb_01,2022.2.4,60.003803554113084,
3,stimuli/3.png,l,0,0,0,0,66,0,66,0,0,0,0,0,,,,,,,,,,,,,,,,,,159.08873524705996,159.08873524705996,159.08873524705996,159.08873524705996,l,1,0.5228267863567453,159.6387020435359,159.6387020435359,159.6387020435359,160.6552977753745,160.6552977753745,160.6552977753745,,,,,,,,,,,,,,,,,,,,,,,,,121,001,2023-03-03_11h28.10.343,eb_01,2022.2.4,60.003803554113084,
,,,0,0,0,0,66,0,66,0,,,,,,,,,,,,,,,,,,,,,,,,,,,,,,,,,,,,,,,,,,,,,,,,,,,,,,,,,,,121,001,2023-03-03_11h28.10.343,eb_01,2022.2.4,60.003803554113084,
8,stimuli/8.png,l,0,0,0,0,67,0,67,0,0,0,0,0,,,,,,,,,,,,,,,,,,160.6552977753745,160.6552977753745,160.6552977753745,160.6552977753745,l,1,0.5883017478627153,161.27192852183362,161.27192852183362,161.27192852183362,162.27187509433134,162.27187509433134,162.27187509433134,,,,,,,,,,,,,,,,,,,,,,,,,121,001,2023-03-03_11h28.10.343,eb_01,2022.2.4,60.003803554113084,
,,,0,0,0,0,67,0,67,0,,,,,,,,,,,,,,,,,,,,,,,,,,,,,,,,,,,,,,,,,,,,,,,,,,,,,,,,,,,121,001,2023-03-03_11h28.10.343,eb_01,2022.2.4,60.003803554113084,
3,stimuli/3.png,l,0,0,0,0,68,0,68,0,0,0,0,0,,,,,,,,,,,,,,,,,,162.27187509433134,162.27187509433134,162.27187509433134,162.27187509433134,l,1,0.4437595039198641,162.73850795376347,162.73850795376347,162.73850795376347,163.75511425035074,163.75511425035074,163.75511425035074,,,,,,,,,,,,,,,,,,,,,,,,,121,001,2023-03-03_11h28.10.343,eb_01,2022.2.4,60.003803554113084,
,,,0,0,0,0,68,0,68,0,,,,,,,,,,,,,,,,,,,,,,,,,,,,,,,,,,,,,,,,,,,,,,,,,,,,,,,,,,,121,001,2023-03-03_11h28.10.343,eb_01,2022.2.4,60.003803554113084,
8,stimuli/8.png,l,0,0,0,0,69,0,69,0,0,0,0,0,,,,,,,,,,,,,,,,,,163.75511425035074,163.75511425035074,163.75511425035074,163.75511425035074,l,1,0.5125566303031519,164.28841800236842,164.28841800236842,164.28841800236842,165.30502188415267,165.30502188415267,165.30502188415267,,,,,,,,,,,,,,,,,,,,,,,,,121,001,2023-03-03_11h28.10.343,eb_01,2022.2.4,60.003803554113084,
,,,0,0,0,0,69,0,69,0,,,,,,,,,,,,,,,,,,,,,,,,,,,,,,,,,,,,,,,,,,,,,,,,,,,,,,,,,,,121,001,2023-03-03_11h28.10.343,eb_01,2022.2.4,60.003803554113084,
6,stimuli/6.png,s,0,0,0,0,70,0,70,0,0,0,0,0,,,,,,,,,,,,,,,,,,165.30502188415267,165.30502188415267,165.30502188415267,165.30502188415267,l,0,0.4337368651176803,165.78833167316043,165.78833167316043,165.78833167316043,,,,,,,,,,,,,,,,,,,,,,,,,,,,121,001,2023-03-03_11h28.10.343,eb_01,2022.2.4,60.003803554113084,
,,,0,0,0,0,70,0,70,0,,,,,,,,,,,,,,,,,,,,,,,,,,,,,,,,,,,,,,,,,,,,,,,,,,,,,,,,,,,121,001,2023-03-03_11h28.10.343,eb_01,2022.2.4,60.003803554113084,
8,stimuli/8.png,l,0,0,0,0,71,0,71,0,0,0,0,0,,,,,,,,,,,,,,,,,,166.78795103987795,166.78795103987795,166.78795103987795,166.78795103987795,l,1,0.502796299464535,167.3215696217958,167.3215696217958,167.3215696217958,168.33818135168985,168.33818135168985,168.33818135168985,,,,,,,,,,,,,,,,,,,,,,,,,121,001,2023-03-03_11h28.10.343,eb_01,2022.2.4,60.003803554113084,
,,,0,0,0,0,71,0,71,0,,,,,,,,,,,,,,,,,,,,,,,,,,,,,,,,,,,,,,,,,,,,,,,,,,,,,,,,,,,121,001,2023-03-03_11h28.10.343,eb_01,2022.2.4,60.003803554113084,
9,stimuli/9.png,l,0,0,0,0,72,0,72,0,0,0,0,0,,,,,,,,,,,,,,,,,,168.33818135168985,168.33818135168985,168.33818135168985,168.33818135168985,l,1,0.5046022700553294,168.88813697968726,168.88813697968726,168.88813697968726,,,,,,,,,,,,,,,,,,,,,,,,,,,,121,001,2023-03-03_11h28.10.343,eb_01,2022.2.4,60.003803554113084,
,,,0,0,0,0,72,0,72,0,,,,,,,,,,,,,,,,,,,,,,,,,,,,,,,,,,,,,,,,,,,,,,,,,,,,,,,,,,,121,001,2023-03-03_11h28.10.343,eb_01,2022.2.4,60.003803554113084,
8,stimuli/8.png,l,0,0,0,0,73,0,73,0,0,0,0,0,,,,,,,,,,,,,,,,,,169.9047167134704,169.9047167134704,169.9047167134704,169.9047167134704,l,1,0.5061006551550236,170.4380503486318,170.4380503486318,170.4380503486318,171.45465513598174,171.45465513598174,171.45465513598174,,,,,,,,,,,,,,,,,,,,,,,,,121,001,2023-03-03_11h28.10.343,eb_01,2022.2.4,60.003803554113084,
,,,0,0,0,0,73,0,73,0,,,,,,,,,,,,,,,,,,,,,,,,,,,,,,,,,,,,,,,,,,,,,,,,,,,,,,,,,,,121,001,2023-03-03_11h28.10.343,eb_01,2022.2.4,60.003803554113084,
9,stimuli/9.png,l,0,0,0,0,74,0,74,0,0,0,0,0,,,,,,,,,,,,,,,,,,171.45465513598174,171.45465513598174,171.45465513598174,171.45465513598174,l,1,0.43617008076398633,171.9379111956223,171.9379111956223,171.9379111956223,,,,,,,,,,,,,,,,,,,,,,,,,,,,121,001,2023-03-03_11h28.10.343,eb_01,2022.2.4,60.003803554113084,
,,,0,0,0,0,74,0,74,0,,,,,,,,,,,,,,,,,,,,,,,,,,,,,,,,,,,,,,,,,,,,,,,,,,,,,,,,,,,121,001,2023-03-03_11h28.10.343,eb_01,2022.2.4,60.003803554113084,
5,stimuli/5.png,s,0,0,0,0,75,0,75,0,0,0,0,0,,,,,,,,,,,,,,,,,,172.93758429170703,172.93758429170703,172.93758429170703,172.93758429170703,s,1,0.5773053398879711,173.53787436988205,173.53787436988205,173.53787436988205,174.55446134807426,174.55446134807426,174.55446134807426,,,,,,,,,,,,,,,,,,,,,,,,,121,001,2023-03-03_11h28.10.343,eb_01,2022.2.4,60.003803554113084,
,,,0,0,0,0,75,0,75,0,,,,,,,,,,,,,,,,,,,,,,,,,,,,,,,,,,,,,,,,,,,,,,,,,,,,,,,,,,,121,001,2023-03-03_11h28.10.343,eb_01,2022.2.4,60.003803554113084,
6,stimuli/6.png,s,0,0,0,0,76,0,76,0,0,0,0,0,,,,,,,,,,,,,,,,,,174.55446134807426,174.55446134807426,174.55446134807426,174.55446134807426,s,1,0.5924579252605326,175.18775634642225,175.18775634642225,175.18775634642225,,,,,,,,,,,,,,,,,,,,,,,,,,,,121,001,2023-03-03_11h28.10.343,eb_01,2022.2.4,60.003803554113084,
,,,0,0,0,0,76,0,76,0,,,,,,,,,,,,,,,,,,,,,,,,,,,,,,,,,,,,,,,,,,,,,,,,,,,,,,,,,,,121,001,2023-03-03_11h28.10.343,eb_01,2022.2.4,60.003803554113084,
5,stimuli/5.png,s,0,0,0,0,77,0,77,0,0,0,0,0,,,,,,,,,,,,,,,,,,176.18738416495034,176.18738416495034,176.18738416495034,176.18738416495034,s,1,0.4955742281745188,176.7043339672382,176.7043339672382,176.7043339672382,177.72095958224963,177.72095958224963,177.72095958224963,,,,,,,,,,,,,,,,,,,,,,,,,121,001,2023-03-03_11h28.10.343,eb_01,2022.2.4,60.003803554113084,
,,,0,0,0,0,77,0,77,0,,,,,,,,,,,,,,,,,,,,,,,,,,,,,,,,,,,,,,,,,,,,,,,,,,,,,,,,,,,121,001,2023-03-03_11h28.10.343,eb_01,2022.2.4,60.003803554113084,
6,stimuli/6.png,s,0,0,0,0,78,0,78,0,0,0,0,0,,,,,,,,,,,,,,,,,,177.72095958224963,177.72095958224963,177.72095958224963,177.72095958224963,s,1,0.5220492198714055,178.28757131216116,178.28757131216116,178.28757131216116,,,,,,,,,,,,,,,,,,,,,,,,,,,,121,001,2023-03-03_11h28.10.343,eb_01,2022.2.4,60.003803554113084,
,,,0,0,0,0,78,0,78,0,,,,,,,,,,,,,,,,,,,,,,,,,,,,,,,,,,,,,,,,,,,,,,,,,,,,,,,,,,,121,001,2023-03-03_11h28.10.343,eb_01,2022.2.4,60.003803554113084,
8,stimuli/8.png,l,0,0,0,0,79,0,79,0,0,0,0,0,,,,,,,,,,,,,,,,,,179.30417338284315,179.30417338284315,179.30417338284315,179.30417338284315,l,1,0.6338536812108941,179.9708038274548,179.9708038274548,179.9708038274548,180.987420386984,180.987420386984,180.987420386984,,,,,,,,,,,,,,,,,,,,,,,,,121,001,2023-03-03_11h28.10.343,eb_01,2022.2.4,60.003803554113084,
,,,0,0,0,0,79,0,79,0,,,,,,,,,,,,,,,,,,,,,,,,,,,,,,,,,,,,,,,,,,,,,,,,,,,,,,,,,,,121,001,2023-03-03_11h28.10.343,eb_01,2022.2.4,60.003803554113084,
6,stimuli/6.png,s,0,0,0,0,80,0,80,0,0,0,0,0,,,,,,,,,,,,,,,,,,180.987420386984,180.987420386984,180.987420386984,180.987420386984,s,1,0.7986730237898882,181.82069244468585,181.82069244468585,181.82069244468585,,,,,,,,,,,,,,,,,,,,,,,,,,,,121,001,2023-03-03_11h28.10.343,eb_01,2022.2.4,60.003803554113084,
,,,0,0,0,0,80,0,80,0,,,,,,,,,,,,,,,,,,,,,,,,,,,,,,,,,,,,,,,,,,,,,,,,,,,,,,,,,,,121,001,2023-03-03_11h28.10.343,eb_01,2022.2.4,60.003803554113084,
9,stimuli/9.png,l,0,0,0,0,81,0,81,0,0,0,0,0,,,,,,,,,,,,,,,,,,182.83729693019995,182.83729693019995,182.83729693019995,182.83729693019995,l,1,0.5328159197524656,183.4039264692692,183.4039264692692,183.4039264692692,,,,,,,,,,,,,,,,,,,,,,,,,,,,121,001,2023-03-03_11h28.10.343,eb_01,2022.2.4,60.003803554113084,
,,,0,0,0,0,81,0,81,0,,,,,,,,,,,,,,,,,,,,,,,,,,,,,,,,,,,,,,,,,,,,,,,,,,,,,,,,,,,121,001,2023-03-03_11h28.10.343,eb_01,2022.2.4,60.003803554113084,
8,stimuli/8.png,l,0,0,0,0,82,0,82,0,0,0,0,0,,,,,,,,,,,,,,,,,,184.42054665097385,184.42054665097385,184.42054665097385,184.42054665097385,l,1,0.7176162457326427,185.17049171420513,185.17049171420513,185.17049171420513,186.17042621268774,186.17042621268774,186.17042621268774,,,,,,,,,,,,,,,,,,,,,,,,,121,001,2023-03-03_11h28.10.343,eb_01,2022.2.4,60.003803554113084,
,,,0,0,0,0,82,0,82,0,,,,,,,,,,,,,,,,,,,,,,,,,,,,,,,,,,,,,,,,,,,,,,,,,,,,,,,,,,,121,001,2023-03-03_11h28.10.343,eb_01,2022.2.4,60.003803554113084,
3,stimuli/3.png,l,0,0,0,0,83,0,83,0,0,0,0,0,,,,,,,,,,,,,,,,,,186.17042621268774,186.17042621268774,186.17042621268774,186.17042621268774,l,1,0.6317639712942764,186.82040387575398,186.82040387575398,186.82040387575398,187.83695251893369,187.83695251893369,187.83695251893369,,,,,,,,,,,,,,,,,,,,,,,,,121,001,2023-03-03_11h28.10.343,eb_01,2022.2.4,60.003803554113084,
,,,0,0,0,0,83,0,83,0,,,,,,,,,,,,,,,,,,,,,,,,,,,,,,,,,,,,,,,,,,,,,,,,,,,,,,,,,,,121,001,2023-03-03_11h28.10.343,eb_01,2022.2.4,60.003803554113084,
4,stimuli/4.png,l,0,0,0,0,84,0,84,0,0,0,0,0,,,,,,,,,,,,,,,,,,187.83695251893369,187.83695251893369,187.83695251893369,187.83695251893369,l,1,0.725278113008244,188.58695402820013,188.58695402820013,188.58695402820013,189.60355458964477,189.60355458964477,189.60355458964477,,,,,,,,,,,,,,,,,,,,,,,,,121,001,2023-03-03_11h28.10.343,eb_01,2022.2.4,60.003803554113084,
,,,0,0,0,0,84,0,84,0,,,,,,,,,,,,,,,,,,,,,,,,,,,,,,,,,,,,,,,,,,,,,,,,,,,,,,,,,,,121,001,2023-03-03_11h28.10.343,eb_01,2022.2.4,60.003803554113084,
1,stimuli/1.png,s,0,0,0,0,85,0,85,0,0,0,0,0,,,,,,,,,,,,,,,,,,189.60355458964477,189.60355458964477,189.60355458964477,189.60355458964477,s,1,0.7427229498571251,190.38684324911446,190.38684324911446,190.38684324911446,,,,,,,,,,,,,,,,,,,,,,,,,,,,121,001,2023-03-03_11h28.10.343,eb_01,2022.2.4,60.003803554113084,
,,,0,0,0,0,85,0,85,0,,,,,,,,,,,,,,,,,,,,,,,,,,,,,,,,,,,,,,,,,,,,,,,,,,,,,,,,,,,121,001,2023-03-03_11h28.10.343,eb_01,2022.2.4,60.003803554113084,
4,stimuli/4.png,l,0,0,0,0,86,0,86,0,0,0,0,0,,,,,,,,,,,,,,,,,,191.40340185337118,191.40340185337118,191.40340185337118,191.40340185337118,l,1,1.006915952952113,192.43673096079146,192.43673096079146,192.43673096079146,193.4366633463069,193.4366633463069,193.4366633463069,,,,,,,,,,,,,,,,,,,,,,,,,121,001,2023-03-03_11h28.10.343,eb_01,2022.2.4,60.003803554113084,
,,,0,0,0,0,86,0,86,0,,,,,,,,,,,,,,,,,,,,,,,,,,,,,,,,,,,,,,,,,,,,,,,,,,,,,,,,,,,121,001,2023-03-03_11h28.10.343,eb_01,2022.2.4,60.003803554113084,
2,stimuli/2.png,s,0,0,0,0,87,0,87,0,0,0,0,0,,,,,,,,,,,,,,,,,,193.4366633463069,193.4366633463069,193.4366633463069,193.4366633463069,s,1,0.589694787224289,194.05329047059058,194.05329047059058,194.05329047059058,195.06989676717785,195.06989676717785,195.06989676717785,,,,,,,,,,,,,,,,,,,,,,,,,121,001,2023-03-03_11h28.10.343,eb_01,2022.2.4,60.003803554113084,
,,,0,0,0,0,87,0,87,0,,,,,,,,,,,,,,,,,,,,,,,,,,,,,,,,,,,,,,,,,,,,,,,,,,,,,,,,,,,121,001,2023-03-03_11h28.10.343,eb_01,2022.2.4,60.003803554113084,
1,stimuli/1.png,s,0,0,0,0,88,0,88,0,0,0,0,0,,,,,,,,,,,,,,,,,,195.06989676717785,195.06989676717785,195.06989676717785,195.06989676717785,s,1,0.7075585923448671,195.8198545081541,195.8198545081541,195.8198545081541,,,,,,,,,,,,,,,,,,,,,,,,,,,,121,001,2023-03-03_11h28.10.343,eb_01,2022.2.4,60.003803554113084,
,,,0,0,0,0,88,0,88,0,,,,,,,,,,,,,,,,,,,,,,,,,,,,,,,,,,,,,,,,,,,,,,,,,,,,,,,,,,,121,001,2023-03-03_11h28.10.343,eb_01,2022.2.4,60.003803554113084,
2,stimuli/2.png,s,0,0,0,0,89,0,89,0,0,0,0,0,,,,,,,,,,,,,,,,,,196.81979202511138,196.81979202511138,196.81979202511138,196.81979202511138,s,1,0.6216697939962614,197.4697497660818,197.4697497660818,197.4697497660818,198.48636542004533,198.48636542004533,198.48636542004533,,,,,,,,,,,,,,,,,,,,,,,,,121,001,2023-03-03_11h28.10.343,eb_01,2022.2.4,60.003803554113084,
,,,0,0,0,0,89,0,89,0,,,,,,,,,,,,,,,,,,,,,,,,,,,,,,,,,,,,,,,,,,,,,,,,,,,,,,,,,,,121,001,2023-03-03_11h28.10.343,eb_01,2022.2.4,60.003803554113084,
4,stimuli/4.png,l,0,0,0,0,90,0,90,0,0,0,0,0,,,,,,,,,,,,,,,,,,198.48636542004533,198.48636542004533,198.48636542004533,198.48636542004533,l,1,0.7231382959289476,199.23631501101772,199.23631501101772,199.23631501101772,200.23625071690185,200.23625071690185,200.23625071690185,,,,,,,,,,,,,,,,,,,,,,,,,121,001,2023-03-03_11h28.10.343,eb_01,2022.2.4,60.003803554113084,
,,,0,0,0,0,90,0,90,0,,,,,,,,,,,,,,,,,,,,,,,,,,,,,,,,,,,,,,,,,,,,,,,,,,,,,,,,,,,121,001,2023-03-03_11h28.10.343,eb_01,2022.2.4,60.003803554113084,
2,stimuli/2.png,s,0,0,0,0,91,0,91,0,0,0,0,0,,,,,,,,,,,,,,,,,,200.23625071690185,200.23625071690185,200.23625071690185,200.23625071690185,s,1,0.5172712308121845,200.78621841891436,200.78621841891436,200.78621841891436,201.80282199886278,201.80282199886278,201.80282199886278,,,,,,,,,,,,,,,,,,,,,,,,,121,001,2023-03-03_11h28.10.343,eb_01,2022.2.4,60.003803554113084,
,,,0,0,0,0,91,0,91,0,,,,,,,,,,,,,,,,,,,,,,,,,,,,,,,,,,,,,,,,,,,,,,,,,,,,,,,,,,,121,001,2023-03-03_11h28.10.343,eb_01,2022.2.4,60.003803554113084,
4,stimuli/4.png,l,0,0,0,0,92,0,92,0,0,0,0,0,,,,,,,,,,,,,,,,,,201.80282199886278,201.80282199886278,201.80282199886278,201.80282199886278,l,1,0.5827492108219303,202.40278879532707,202.40278879532707,202.40278879532707,203.4193902623083,203.4193902623083,203.4193902623083,,,,,,,,,,,,,,,,,,,,,,,,,121,001,2023-03-03_11h28.10.343,eb_01,2022.2.4,60.003803554113084,
,,,0,0,0,0,92,0,92,0,,,,,,,,,,,,,,,,,,,,,,,,,,,,,,,,,,,,,,,,,,,,,,,,,,,,,,,,,,,121,001,2023-03-03_11h28.10.343,eb_01,2022.2.4,60.003803554113084,
1,stimuli/1.png,s,0,0,0,0,93,0,93,0,0,0,0,0,,,,,,,,,,,,,,,,,,203.4193902623083,203.4193902623083,203.4193902623083,203.4193902623083,s,1,0.6061818529269658,204.06935404028627,204.06935404028627,204.06935404028627,,,,,,,,,,,,,,,,,,,,,,,,,,,,121,001,2023-03-03_11h28.10.343,eb_01,2022.2.4,60.003803554113084,
,,,0,0,0,0,93,0,93,0,,,,,,,,,,,,,,,,,,,,,,,,,,,,,,,,,,,,,,,,,,,,,,,,,,,,,,,,,,,121,001,2023-03-03_11h28.10.343,eb_01,2022.2.4,60.003803554113084,
2,stimuli/2.png,s,0,0,0,0,94,0,94,0,0,0,0,0,,,,,,,,,,,,,,,,,,205.0692963868496,205.0692963868496,205.0692963868496,205.0692963868496,l,0,0.5883403847110458,205.68593075554236,205.68593075554236,205.68593075554236,206.7024875486677,206.7024875486677,206.7024875486677,,,,,,,,,,,,,,,,,,,,,,,,,121,001,2023-03-03_11h28.10.343,eb_01,2022.2.4,60.003803554113084,
,,,0,0,0,0,94,0,94,0,,,,,,,,,,,,,,,,,,,,,,,,,,,,,,,,,,,,,,,,,,,,,,,,,,,,,,,,,,,121,001,2023-03-03_11h28.10.343,eb_01,2022.2.4,60.003803554113084,
1,stimuli/1.png,s,0,0,0,0,95,0,95,0,0,0,0,0,,,,,,,,,,,,,,,,,,206.7024875486677,206.7024875486677,206.7024875486677,206.7024875486677,s,1,0.7072181051480584,207.45250565969036,207.45250565969036,207.45250565969036,,,,,,,,,,,,,,,,,,,,,,,,,,,,121,001,2023-03-03_11h28.10.343,eb_01,2022.2.4,60.003803554113084,
,,,0,0,0,0,95,0,95,0,,,,,,,,,,,,,,,,,,,,,,,,,,,,,,,,,,,,,,,,,,,,,,,,,,,,,,,,,,,121,001,2023-03-03_11h28.10.343,eb_01,2022.2.4,60.003803554113084,
2,stimuli/2.png,s,0,0,0,0,96,0,96,0,0,0,0,0,,,,,,,,,,,,,,,,,,208.45242476381827,208.45242476381827,208.45242476381827,208.45242476381827,s,1,0.5892824596376158,209.06905490657664,209.06905490657664,209.06905490657664,210.08565426061978,210.08565426061978,210.08565426061978,,,,,,,,,,,,,,,,,,,,,,,,,121,001,2023-03-03_11h28.10.343,eb_01,2022.2.4,60.003803554113084,
,,,0,0,0,0,96,0,96,0,,,,,,,,,,,,,,,,,,,,,,,,,,,,,,,,,,,,,,,,,,,,,,,,,,,,,,,,,,,121,001,2023-03-03_11h28.10.343,eb_01,2022.2.4,60.003803554113084,
4,stimuli/4.png,l,0,0,0,0,97,0,97,0,0,0,0,0,,,,,,,,,,,,,,,,,,210.08565426061978,210.08565426061978,210.08565426061978,210.08565426061978,l,1,0.6441129706799984,210.75228802560014,210.75228802560014,210.75228802560014,211.752251501719,211.752251501719,211.752251501719,,,,,,,,,,,,,,,,,,,,,,,,,121,001,2023-03-03_11h28.10.343,eb_01,2022.2.4,60.003803554113084,
,,,0,0,0,0,97,0,97,0,,,,,,,,,,,,,,,,,,,,,,,,,,,,,,,,,,,,,,,,,,,,,,,,,,,,,,,,,,,121,001,2023-03-03_11h28.10.343,eb_01,2022.2.4,60.003803554113084,
3,stimuli/3.png,l,0,0,0,0,98,0,98,0,0,0,0,0,,,,,,,,,,,,,,,,,,211.752251501719,211.752251501719,211.752251501719,211.752251501719,l,1,0.6165114734903909,212.38550363731338,212.38550363731338,212.38550363731338,213.40212080051424,213.40212080051424,213.40212080051424,,,,,,,,,,,,,,,,,,,,,,,,,121,001,2023-03-03_11h28.10.343,eb_01,2022.2.4,60.003803554113084,
,,,0,0,0,0,98,0,98,0,,,,,,,,,,,,,,,,,,,,,,,,,,,,,,,,,,,,,,,,,,,,,,,,,,,,,,,,,,,121,001,2023-03-03_11h28.10.343,eb_01,2022.2.4,60.003803554113084,
4,stimuli/4.png,l,0,0,0,0,99,0,99,0,0,0,0,0,,,,,,,,,,,,,,,,,,213.40212080051424,213.40212080051424,213.40212080051424,213.40212080051424,l,1,0.6787065291719045,214.10208729511942,214.10208729511942,214.10208729511942,215.10201334179146,215.10201334179146,215.10201334179146,,,,,,,,,,,,,,,,,,,,,,,,,121,001,2023-03-03_11h28.10.343,eb_01,2022.2.4,60.003803554113084,
,,,0,0,0,0,99,0,99,0,,,,,,,,,,,,,,,,,,,,,,,,,,,,,,,,,,,,,,,,,,,,,,,,,,,,,,,,,,,121,001,2023-03-03_11h28.10.343,eb_01,2022.2.4,60.003803554113084,
,,,0,0,0,0,,,,,,,,,,,,,,,,,,,,,,,,,,,,,,,,,,,,,,,215.10201334179146,215.10201334179146,return,2.8268981437722687,,,,,,,,,,,,,,,,,,,,,121,001,2023-03-03_11h28.10.343,eb_01,2022.2.4,60.003803554113084,
1,stimuli/1.png,s,1,0,1,0,0,0,0,0,0,0,0,0,,,,,,,,,,,,,,,,,,217.96851791482186,217.96851791482186,217.96851791482186,217.96851791482186,s,1,1.1684128287888598,219.1851224003185,219.1851224003185,219.1851224003185,,,,,,,,,,,,,,,,,,,,,,,,,,,,121,001,2023-03-03_11h28.10.343,eb_01,2022.2.4,60.003803554113084,
,,,1,0,1,0,0,0,0,0,,,,,,,,,,,,,,,,,,,,,,,,,,,,,,,,,,,,,,,,,,,,,,,,,,,,,,,,,,,121,001,2023-03-03_11h28.10.343,eb_01,2022.2.4,60.003803554113084,
4,stimuli/4.png,l,1,0,1,0,1,0,1,0,0,0,0,0,,,,,,,,,,,,,,,,,,220.20171541548916,220.20171541548916,220.20171541548916,220.20171541548916,l,1,0.7432702045189217,220.96833589905873,220.96833589905873,220.96833589905873,221.96827884935192,221.96827884935192,221.96827884935192,,,,,,,,,,,,,,,,,,,,,,,,,121,001,2023-03-03_11h28.10.343,eb_01,2022.2.4,60.003803554113084,
,,,1,0,1,0,1,0,1,0,,,,,,,,,,,,,,,,,,,,,,,,,,,,,,,,,,,,,,,,,,,,,,,,,,,,,,,,,,,121,001,2023-03-03_11h28.10.343,eb_01,2022.2.4,60.003803554113084,
2,stimuli/2.png,s,1,0,1,0,2,0,2,0,0,0,0,0,,,,,,,,,,,,,,,,,,221.96827884935192,221.96827884935192,221.96827884935192,221.96827884935192,s,1,0.5607431134558283,222.55157988469,222.55157988469,222.55157988469,223.56814995926106,223.56814995926106,223.56814995926106,,,,,,,,,,,,,,,,,,,,,,,,,121,001,2023-03-03_11h28.10.343,eb_01,2022.2.4,60.003803554113084,
,,,1,0,1,0,2,0,2,0,,,,,,,,,,,,,,,,,,,,,,,,,,,,,,,,,,,,,,,,,,,,,,,,,,,,,,,,,,,121,001,2023-03-03_11h28.10.343,eb_01,2022.2.4,60.003803554113084,
4,stimuli/4.png,l,1,0,1,0,3,0,3,0,0,0,0,0,,,,,,,,,,,,,,,,,,223.56814995926106,223.56814995926106,223.56814995926106,223.56814995926106,l,1,0.6889048448647372,224.28481390926754,224.28481390926754,224.28481390926754,225.28475052068825,225.28475052068825,225.28475052068825,,,,,,,,,,,,,,,,,,,,,,,,,121,001,2023-03-03_11h28.10.343,eb_01,2022.2.4,60.003803554113084,
,,,1,0,1,0,3,0,3,0,,,,,,,,,,,,,,,,,,,,,,,,,,,,,,,,,,,,,,,,,,,,,,,,,,,,,,,,,,,121,001,2023-03-03_11h28.10.343,eb_01,2022.2.4,60.003803554113084,
3,stimuli/3.png,l,1,0,1,0,4,0,4,0,0,0,0,0,,,,,,,,,,,,,,,,,,225.28475052068825,225.28475052068825,225.28475052068825,225.28475052068825,l,1,0.49231243337271735,225.8013785505318,225.8013785505318,225.8013785505318,226.80132844336913,226.80132844336913,226.80132844336913,,,,,,,,,,,,,,,,,,,,,,,,,121,001,2023-03-03_11h28.10.343,eb_01,2022.2.4,60.003803554113084,
,,,1,0,1,0,4,0,4,0,,,,,,,,,,,,,,,,,,,,,,,,,,,,,,,,,,,,,,,,,,,,,,,,,,,,,,,,,,,121,001,2023-03-03_11h28.10.343,eb_01,2022.2.4,60.003803554113084,
2,stimuli/2.png,s,1,0,1,0,5,0,5,0,0,0,0,0,,,,,,,,,,,,,,,,,,226.80132844336913,226.80132844336913,226.80132844336913,226.80132844336913,s,1,0.5108143501274753,227.33465030638035,227.33465030638035,227.33465030638035,228.35122702165972,228.35122702165972,228.35122702165972,,,,,,,,,,,,,,,,,,,,,,,,,121,001,2023-03-03_11h28.10.343,eb_01,2022.2.4,60.003803554113084,
,,,1,0,1,0,5,0,5,0,,,,,,,,,,,,,,,,,,,,,,,,,,,,,,,,,,,,,,,,,,,,,,,,,,,,,,,,,,,121,001,2023-03-03_11h28.10.343,eb_01,2022.2.4,60.003803554113084,
1,stimuli/1.png,s,1,0,1,0,6,0,6,0,0,0,0,0,,,,,,,,,,,,,,,,,,228.35122702165972,228.35122702165972,228.35122702165972,228.35122702165972,s,1,0.6969379880174529,229.08451779407915,229.08451779407915,229.08451779407915,,,,,,,,,,,,,,,,,,,,,,,,,,,,121,001,2023-03-03_11h28.10.343,eb_01,2022.2.4,60.003803554113084,
,,,1,0,1,0,6,0,6,0,,,,,,,,,,,,,,,,,,,,,,,,,,,,,,,,,,,,,,,,,,,,,,,,,,,,,,,,,,,121,001,2023-03-03_11h28.10.343,eb_01,2022.2.4,60.003803554113084,
2,stimuli/2.png,s,1,0,1,0,7,0,7,0,0,0,0,0,,,,,,,,,,,,,,,,,,230.08444414258702,230.08444414258702,230.08444414258702,230.08444414258702,s,1,0.6597560628142674,230.76775393160642,230.76775393160642,230.76775393160642,231.76771137071773,231.76771137071773,231.76771137071773,,,,,,,,,,,,,,,,,,,,,,,,,121,001,2023-03-03_11h28.10.343,eb_01,2022.2.4,60.003803554113084,
,,,1,0,1,0,7,0,7,0,,,,,,,,,,,,,,,,,,,,,,,,,,,,,,,,,,,,,,,,,,,,,,,,,,,,,,,,,,,121,001,2023-03-03_11h28.10.343,eb_01,2022.2.4,60.003803554113084,
3,stimuli/3.png,l,1,0,1,0,8,0,8,0,0,0,0,0,,,,,,,,,,,,,,,,,,231.76771137071773,231.76771137071773,231.76771137071773,231.76771137071773,l,1,0.5845515592081938,232.38428868967458,232.38428868967458,232.38428868967458,233.38394669324043,233.38394669324043,233.38394669324043,,,,,,,,,,,,,,,,,,,,,,,,,121,001,2023-03-03_11h28.10.343,eb_01,2022.2.4,60.003803554113084,
,,,1,0,1,0,8,0,8,0,,,,,,,,,,,,,,,,,,,,,,,,,,,,,,,,,,,,,,,,,,,,,,,,,,,,,,,,,,,121,001,2023-03-03_11h28.10.343,eb_01,2022.2.4,60.003803554113084,
8,stimuli/8.png,l,1,0,1,0,9,0,9,0,0,0,0,0,,,,,,,,,,,,,,,,,,233.38394669324043,233.38394669324043,233.38394669324043,233.38394669324043,l,1,0.6323359776870348,234.03423948807176,234.03423948807176,234.03423948807176,235.05084125691792,235.05084125691792,235.05084125691792,,,,,,,,,,,,,,,,,,,,,,,,,121,001,2023-03-03_11h28.10.343,eb_01,2022.2.4,60.003803554113084,
,,,1,0,1,0,9,0,9,0,,,,,,,,,,,,,,,,,,,,,,,,,,,,,,,,,,,,,,,,,,,,,,,,,,,,,,,,,,,121,001,2023-03-03_11h28.10.343,eb_01,2022.2.4,60.003803554113084,
9,stimuli/9.png,l,1,0,1,0,10,0,10,0,0,0,0,0,,,,,,,,,,,,,,,,,,235.05084125691792,235.05084125691792,235.05084125691792,235.05084125691792,l,1,0.5095121677441057,235.60080050711986,235.60080050711986,235.60080050711986,,,,,,,,,,,,,,,,,,,,,,,,,,,,121,001,2023-03-03_11h28.10.343,eb_01,2022.2.4,60.003803554113084,
,,,1,0,1,0,10,0,10,0,,,,,,,,,,,,,,,,,,,,,,,,,,,,,,,,,,,,,,,,,,,,,,,,,,,,,,,,,,,121,001,2023-03-03_11h28.10.343,eb_01,2022.2.4,60.003803554113084,
8,stimuli/8.png,l,1,0,1,0,11,0,11,0,0,0,0,0,,,,,,,,,,,,,,,,,,236.61739955929806,236.61739955929806,236.61739955929806,236.61739955929806,l,1,0.4629689578723628,237.10070904647,237.10070904647,237.10070904647,238.11731866342598,238.11731866342598,238.11731866342598,,,,,,,,,,,,,,,,,,,,,,,,,121,001,2023-03-03_11h28.10.343,eb_01,2022.2.4,60.003803554113084,
,,,1,0,1,0,11,0,11,0,,,,,,,,,,,,,,,,,,,,,,,,,,,,,,,,,,,,,,,,,,,,,,,,,,,,,,,,,,,121,001,2023-03-03_11h28.10.343,eb_01,2022.2.4,60.003803554113084,
9,stimuli/9.png,l,1,0,1,0,12,0,12,0,0,0,0,0,,,,,,,,,,,,,,,,,,238.11731866342598,238.11731866342598,238.11731866342598,238.11731866342598,l,1,0.5231008664995898,238.6839500135975,238.6839500135975,238.6839500135975,,,,,,,,,,,,,,,,,,,,,,,,,,,,121,001,2023-03-03_11h28.10.343,eb_01,2022.2.4,60.003803554113084,
,,,1,0,1,0,12,0,12,0,,,,,,,,,,,,,,,,,,,,,,,,,,,,,,,,,,,,,,,,,,,,,,,,,,,,,,,,,,,121,001,2023-03-03_11h28.10.343,eb_01,2022.2.4,60.003803554113084,
8,stimuli/8.png,l,1,0,1,0,13,0,13,0,0,0,0,0,,,,,,,,,,,,,,,,,,239.70054333063308,239.70054333063308,239.70054333063308,239.70054333063308,l,1,0.45187414667452686,240.18385191223933,240.18385191223933,240.18385191223933,241.18376316822832,241.18376316822832,241.18376316822832,,,,,,,,,,,,,,,,,,,,,,,,,121,001,2023-03-03_11h28.10.343,eb_01,2022.2.4,60.003803554113084,
,,,1,0,1,0,13,0,13,0,,,,,,,,,,,,,,,,,,,,,,,,,,,,,,,,,,,,,,,,,,,,,,,,,,,,,,,,,,,121,001,2023-03-03_11h28.10.343,eb_01,2022.2.4,60.003803554113084,
3,stimuli/3.png,l,1,0,1,0,14,0,14,0,0,0,0,0,,,,,,,,,,,,,,,,,,241.18376316822832,241.18376316822832,241.18376316822832,241.18376316822832,l,1,0.624700975138694,241.83375954601797,241.83375954601797,241.83375954601797,242.85034199643997,242.85034199643997,242.85034199643997,,,,,,,,,,,,,,,,,,,,,,,,,121,001,2023-03-03_11h28.10.343,eb_01,2022.2.4,60.003803554113084,
,,,1,0,1,0,14,0,14,0,,,,,,,,,,,,,,,,,,,,,,,,,,,,,,,,,,,,,,,,,,,,,,,,,,,,,,,,,,,121,001,2023-03-03_11h28.10.343,eb_01,2022.2.4,60.003803554113084,
4,stimuli/4.png,l,1,0,1,0,15,0,15,0,0,0,0,0,,,,,,,,,,,,,,,,,,242.85034199643997,242.85034199643997,242.85034199643997,242.85034199643997,l,1,1.045168239477789,243.91695946149412,243.91695946149412,243.91695946149412,244.9169440671394,244.9169440671394,244.9169440671394,,,,,,,,,,,,,,,,,,,,,,,,,121,001,2023-03-03_11h28.10.343,eb_01,2022.2.4,60.003803554113084,
,,,1,0,1,0,15,0,15,0,,,,,,,,,,,,,,,,,,,,,,,,,,,,,,,,,,,,,,,,,,,,,,,,,,,,,,,,,,,121,001,2023-03-03_11h28.10.343,eb_01,2022.2.4,60.003803554113084,
3,stimuli/3.png,l,1,0,1,0,16,0,16,0,0,0,0,0,,,,,,,,,,,,,,,,,,244.9169440671394,244.9169440671394,244.9169440671394,244.9169440671394,l,1,0.4746300402912311,245.41687584895408,245.41687584895408,245.41687584895408,246.41681789368158,246.41681789368158,246.41681789368158,,,,,,,,,,,,,,,,,,,,,,,,,121,001,2023-03-03_11h28.10.343,eb_01,2022.2.4,60.003803554113084,
,,,1,0,1,0,16,0,16,0,,,,,,,,,,,,,,,,,,,,,,,,,,,,,,,,,,,,,,,,,,,,,,,,,,,,,,,,,,,121,001,2023-03-03_11h28.10.343,eb_01,2022.2.4,60.003803554113084,
2,stimuli/2.png,s,1,0,1,0,17,0,17,0,0,0,0,0,,,,,,,,,,,,,,,,,,246.41681789368158,246.41681789368158,246.41681789368158,246.41681789368158,s,1,0.46276762371417135,246.90007757555577,246.90007757555577,246.90007757555577,247.91673458300647,247.91673458300647,247.91673458300647,,,,,,,,,,,,,,,,,,,,,,,,,121,001,2023-03-03_11h28.10.343,eb_01,2022.2.4,60.003803554113084,
,,,1,0,1,0,17,0,17,0,,,,,,,,,,,,,,,,,,,,,,,,,,,,,,,,,,,,,,,,,,,,,,,,,,,,,,,,,,,121,001,2023-03-03_11h28.10.343,eb_01,2022.2.4,60.003803554113084,
4,stimuli/4.png,l,1,0,1,0,18,0,18,0,0,0,0,0,,,,,,,,,,,,,,,,,,247.91673458300647,247.91673458300647,247.91673458300647,247.91673458300647,l,1,0.6029070785443764,248.5500310905918,248.5500310905918,248.5500310905918,249.56664070754778,249.56664070754778,249.56664070754778,,,,,,,,,,,,,,,,,,,,,,,,,121,001,2023-03-03_11h28.10.343,eb_01,2022.2.4,60.003803554113084,
,,,1,0,1,0,18,0,18,0,,,,,,,,,,,,,,,,,,,,,,,,,,,,,,,,,,,,,,,,,,,,,,,,,,,,,,,,,,,121,001,2023-03-03_11h28.10.343,eb_01,2022.2.4,60.003803554113084,
1,stimuli/1.png,s,1,0,1,0,19,0,19,0,0,0,0,0,,,,,,,,,,,,,,,,,,249.56664070754778,249.56664070754778,249.56664070754778,249.56664070754778,s,1,0.6250577622558922,250.23320806544507,250.23320806544507,250.23320806544507,,,,,,,,,,,,,,,,,,,,,,,,,,,,121,001,2023-03-03_11h28.10.343,eb_01,2022.2.4,60.003803554113084,
,,,1,0,1,0,19,0,19,0,,,,,,,,,,,,,,,,,,,,,,,,,,,,,,,,,,,,,,,,,,,,,,,,,,,,,,,,,,,121,001,2023-03-03_11h28.10.343,eb_01,2022.2.4,60.003803554113084,
2,stimuli/2.png,s,1,0,1,0,20,0,20,0,0,0,0,0,,,,,,,,,,,,,,,,,,251.23319870809792,251.23319870809792,251.23319870809792,251.23319870809792,s,1,0.6225004861480556,251.88317123969318,251.88317123969318,251.88317123969318,252.8997573123197,252.8997573123197,252.8997573123197,,,,,,,,,,,,,,,,,,,,,,,,,121,001,2023-03-03_11h28.10.343,eb_01,2022.2.4,60.003803554113084,
,,,1,0,1,0,20,0,20,0,,,,,,,,,,,,,,,,,,,,,,,,,,,,,,,,,,,,,,,,,,,,,,,,,,,,,,,,,,,121,001,2023-03-03_11h28.10.343,eb_01,2022.2.4,60.003803554113084,
4,stimuli/4.png,l,1,0,1,0,21,0,21,0,0,0,0,0,,,,,,,,,,,,,,,,,,252.8997573123197,252.8997573123197,252.8997573123197,252.8997573123197,l,1,0.5559778020833619,253.4830607624899,253.4830607624899,253.4830607624899,254.48300220351666,254.48300220351666,254.48300220351666,,,,,,,,,,,,,,,,,,,,,,,,,121,001,2023-03-03_11h28.10.343,eb_01,2022.2.4,60.003803554113084,
,,,1,0,1,0,21,0,21,0,,,,,,,,,,,,,,,,,,,,,,,,,,,,,,,,,,,,,,,,,,,,,,,,,,,,,,,,,,,121,001,2023-03-03_11h28.10.343,eb_01,2022.2.4,60.003803554113084,
3,stimuli/3.png,l,1,0,1,0,22,0,22,0,0,0,0,0,,,,,,,,,,,,,,,,,,254.48300220351666,254.48300220351666,254.48300220351666,254.48300220351666,l,1,0.5327495126693975,255.03296115185367,255.03296115185367,255.03296115185367,256.04956986327306,256.04956986327306,256.04956986327306,,,,,,,,,,,,,,,,,,,,,,,,,121,001,2023-03-03_11h28.10.343,eb_01,2022.2.4,60.003803554113084,
,,,1,0,1,0,22,0,22,0,,,,,,,,,,,,,,,,,,,,,,,,,,,,,,,,,,,,,,,,,,,,,,,,,,,,,,,,,,,121,001,2023-03-03_11h28.10.343,eb_01,2022.2.4,60.003803554113084,
4,stimuli/4.png,l,1,0,1,0,23,0,23,0,0,0,0,0,,,,,,,,,,,,,,,,,,256.04956986327306,256.04956986327306,256.04956986327306,256.04956986327306,l,1,0.6462395063135773,256.71621811707155,256.71621811707155,256.71621811707155,257.7327610250795,257.7327610250795,257.7327610250795,,,,,,,,,,,,,,,,,,,,,,,,,121,001,2023-03-03_11h28.10.343,eb_01,2022.2.4,60.003803554113084,
,,,1,0,1,0,23,0,23,0,,,,,,,,,,,,,,,,,,,,,,,,,,,,,,,,,,,,,,,,,,,,,,,,,,,,,,,,,,,121,001,2023-03-03_11h28.10.343,eb_01,2022.2.4,60.003803554113084,
1,stimuli/1.png,s,1,0,1,0,24,0,24,0,0,0,0,0,,,,,,,,,,,,,,,,,,257.7327610250795,257.7327610250795,257.7327610250795,257.7327610250795,s,1,0.5061097106954549,258.2827718917106,258.2827718917106,258.2827718917106,,,,,,,,,,,,,,,,,,,,,,,,,,,,121,001,2023-03-03_11h28.10.343,eb_01,2022.2.4,60.003803554113084,
,,,1,0,1,0,24,0,24,0,,,,,,,,,,,,,,,,,,,,,,,,,,,,,,,,,,,,,,,,,,,,,,,,,,,,,,,,,,,121,001,2023-03-03_11h28.10.343,eb_01,2022.2.4,60.003803554113084,
4,stimuli/4.png,l,1,0,1,0,25,0,25,0,0,0,0,0,,,,,,,,,,,,,,,,,,259.2993763771956,259.2993763771956,259.2993763771956,259.2993763771956,l,1,0.5235068551555742,259.84936339763226,259.84936339763226,259.84936339763226,260.86595218689763,260.86595218689763,260.86595218689763,,,,,,,,,,,,,,,,,,,,,,,,,121,001,2023-03-03_11h28.10.343,eb_01,2022.2.4,60.003803554113084,
,,,1,0,1,0,25,0,25,0,,,,,,,,,,,,,,,,,,,,,,,,,,,,,,,,,,,,,,,,,,,,,,,,,,,,,,,,,,,121,001,2023-03-03_11h28.10.343,eb_01,2022.2.4,60.003803554113084,
1,stimuli/1.png,s,1,0,1,0,26,0,26,0,0,0,0,0,,,,,,,,,,,,,,,,,,260.86595218689763,260.86595218689763,260.86595218689763,260.86595218689763,s,1,0.5569461380073335,261.46592351113213,261.46592351113213,261.46592351113213,,,,,,,,,,,,,,,,,,,,,,,,,,,,121,001,2023-03-03_11h28.10.343,eb_01,2022.2.4,60.003803554113084,
,,,1,0,1,0,26,0,26,0,,,,,,,,,,,,,,,,,,,,,,,,,,,,,,,,,,,,,,,,,,,,,,,,,,,,,,,,,,,121,001,2023-03-03_11h28.10.343,eb_01,2022.2.4,60.003803554113084,
2,stimuli/2.png,s,1,0,1,0,27,0,27,0,0,0,0,0,,,,,,,,,,,,,,,,,,262.465857405914,262.465857405914,262.465857405914,262.465857405914,s,1,0.6370711040217429,263.1324809079815,263.1324809079815,263.1324809079815,264.14908569533145,264.14908569533145,264.14908569533145,,,,,,,,,,,,,,,,,,,,,,,,,121,001,2023-03-03_11h28.10.343,eb_01,2022.2.4,60.003803554113084,
,,,1,0,1,0,27,0,27,0,,,,,,,,,,,,,,,,,,,,,,,,,,,,,,,,,,,,,,,,,,,,,,,,,,,,,,,,,,,121,001,2023-03-03_11h28.10.343,eb_01,2022.2.4,60.003803554113084,
1,stimuli/1.png,s,1,0,1,0,28,0,28,0,0,0,0,0,,,,,,,,,,,,,,,,,,264.14908569533145,264.14908569533145,264.14908569533145,264.14908569533145,s,1,0.705893284000922,264.8990446436801,264.8990446436801,264.8990446436801,,,,,,,,,,,,,,,,,,,,,,,,,,,,121,001,2023-03-03_11h28.10.343,eb_01,2022.2.4,60.003803554113084,
,,,1,0,1,0,28,0,28,0,,,,,,,,,,,,,,,,,,,,,,,,,,,,,,,,,,,,,,,,,,,,,,,,,,,,,,,,,,,121,001,2023-03-03_11h28.10.343,eb_01,2022.2.4,60.003803554113084,
2,stimuli/2.png,s,1,0,1,0,29,0,29,0,0,0,0,0,,,,,,,,,,,,,,,,,,265.89899695132044,265.89899695132044,265.89899695132044,265.89899695132044,s,1,0.6600153522740584,266.5822753479006,266.5822753479006,266.5822753479006,267.5822176944639,267.5822176944639,267.5822176944639,,,,,,,,,,,,,,,,,,,,,,,,,121,001,2023-03-03_11h28.10.343,eb_01,2022.2.4,60.003803554113084,
,,,1,0,1,0,29,0,29,0,,,,,,,,,,,,,,,,,,,,,,,,,,,,,,,,,,,,,,,,,,,,,,,,,,,,,,,,,,,121,001,2023-03-03_11h28.10.343,eb_01,2022.2.4,60.003803554113084,
3,stimuli/3.png,l,1,0,1,0,30,0,30,0,0,0,0,0,,,,,,,,,,,,,,,,,,267.5822176944639,267.5822176944639,267.5822176944639,267.5822176944639,l,1,0.6088574543537106,268.2155326149368,268.2155326149368,268.2155326149368,269.2154538320028,269.2154538320028,269.2154538320028,,,,,,,,,,,,,,,,,,,,,,,,,121,001,2023-03-03_11h28.10.343,eb_01,2022.2.4,60.003803554113084,
,,,1,0,1,0,30,0,30,0,,,,,,,,,,,,,,,,,,,,,,,,,,,,,,,,,,,,,,,,,,,,,,,,,,,,,,,,,,,121,001,2023-03-03_11h28.10.343,eb_01,2022.2.4,60.003803554113084,
2,stimuli/2.png,s,1,0,1,0,31,0,31,0,0,0,0,0,,,,,,,,,,,,,,,,,,269.2154538320028,269.2154538320028,269.2154538320028,269.2154538320028,s,1,0.4876639380818233,269.73209695433616,269.73209695433616,269.73209695433616,270.7486899695068,270.7486899695068,270.7486899695068,,,,,,,,,,,,,,,,,,,,,,,,,121,001,2023-03-03_11h28.10.343,eb_01,2022.2.4,60.003803554113084,
,,,1,0,1,0,31,0,31,0,,,,,,,,,,,,,,,,,,,,,,,,,,,,,,,,,,,,,,,,,,,,,,,,,,,,,,,,,,,121,001,2023-03-03_11h28.10.343,eb_01,2022.2.4,60.003803554113084,
1,stimuli/1.png,s,1,0,1,0,32,0,32,0,0,0,0,0,,,,,,,,,,,,,,,,,,270.7486899695068,270.7486899695068,270.7486899695068,270.7486899695068,s,1,0.9464640829828568,271.7319737993821,271.7319737993821,271.7319737993821,,,,,,,,,,,,,,,,,,,,,,,,,,,,121,001,2023-03-03_11h28.10.343,eb_01,2022.2.4,60.003803554113084,
,,,1,0,1,0,32,0,32,0,,,,,,,,,,,,,,,,,,,,,,,,,,,,,,,,,,,,,,,,,,,,,,,,,,,,,,,,,,,121,001,2023-03-03_11h28.10.343,eb_01,2022.2.4,60.003803554113084,
2,stimuli/2.png,s,1,0,1,0,33,0,33,0,0,0,0,0,,,,,,,,,,,,,,,,,,272.7319170515402,272.7319170515402,272.7319170515402,272.7319170515402,s,1,0.5952708685945254,273.34847022246686,273.34847022246686,273.34847022246686,274.34849316309555,274.34849316309555,274.34849316309555,,,,,,,,,,,,,,,,,,,,,,,,,121,001,2023-03-03_11h28.10.343,eb_01,2022.2.4,60.003803554113084,
,,,1,0,1,0,33,0,33,0,,,,,,,,,,,,,,,,,,,,,,,,,,,,,,,,,,,,,,,,,,,,,,,,,,,,,,,,,,,121,001,2023-03-03_11h28.10.343,eb_01,2022.2.4,60.003803554113084,
3,stimuli/3.png,l,1,0,1,0,34,0,34,0,0,0,0,0,,,,,,,,,,,,,,,,,,274.34849316309555,274.34849316309555,274.34849316309555,274.34849316309555,l,1,0.48173620109446347,274.84844818740385,274.84844818740385,274.84844818740385,275.8650508617866,275.8650508617866,275.8650508617866,,,,,,,,,,,,,,,,,,,,,,,,,121,001,2023-03-03_11h28.10.343,eb_01,2022.2.4,60.003803554113084,
,,,1,0,1,0,34,0,34,0,,,,,,,,,,,,,,,,,,,,,,,,,,,,,,,,,,,,,,,,,,,,,,,,,,,,,,,,,,,121,001,2023-03-03_11h28.10.343,eb_01,2022.2.4,60.003803554113084,
8,stimuli/8.png,l,1,0,1,0,35,0,35,0,0,0,0,0,,,,,,,,,,,,,,,,,,275.8650508617866,275.8650508617866,275.8650508617866,275.8650508617866,l,1,0.5252427965169773,276.4150381840882,276.4150381840882,276.4150381840882,277.4316076549294,277.4316076549294,277.4316076549294,,,,,,,,,,,,,,,,,,,,,,,,,121,001,2023-03-03_11h28.10.343,eb_01,2022.2.4,60.003803554113084,
,,,1,0,1,0,35,0,35,0,,,,,,,,,,,,,,,,,,,,,,,,,,,,,,,,,,,,,,,,,,,,,,,,,,,,,,,,,,,121,001,2023-03-03_11h28.10.343,eb_01,2022.2.4,60.003803554113084,
9,stimuli/9.png,l,1,0,1,0,36,0,36,0,0,0,0,0,,,,,,,,,,,,,,,,,,277.4316076549294,277.4316076549294,277.4316076549294,277.4316076549294,l,1,0.5986464609741233,278.0649204624351,278.0649204624351,278.0649204624351,,,,,,,,,,,,,,,,,,,,,,,,,,,,121,001,2023-03-03_11h28.10.343,eb_01,2022.2.4,60.003803554113084,
,,,1,0,1,0,36,0,36,0,,,,,,,,,,,,,,,,,,,,,,,,,,,,,,,,,,,,,,,,,,,,,,,,,,,,,,,,,,,121,001,2023-03-03_11h28.10.343,eb_01,2022.2.4,60.003803554113084,
8,stimuli/8.png,l,1,0,1,0,37,0,37,0,0,0,0,0,,,,,,,,,,,,,,,,,,279.0815258534858,279.0815258534858,279.0815258534858,279.0815258534858,l,1,0.6048271485778969,279.7148338313855,279.7148338313855,279.7148338313855,280.7314310724905,280.7314310724905,280.7314310724905,,,,,,,,,,,,,,,,,,,,,,,,,121,001,2023-03-03_11h28.10.343,eb_01,2022.2.4,60.003803554113084,
,,,1,0,1,0,37,0,37,0,,,,,,,,,,,,,,,,,,,,,,,,,,,,,,,,,,,,,,,,,,,,,,,,,,,,,,,,,,,121,001,2023-03-03_11h28.10.343,eb_01,2022.2.4,60.003803554113084,
9,stimuli/9.png,l,1,0,1,0,38,0,38,0,0,0,0,0,,,,,,,,,,,,,,,,,,280.7314310724905,280.7314310724905,280.7314310724905,280.7314310724905,l,1,0.538949820533162,281.31472697635763,281.31472697635763,281.31472697635763,,,,,,,,,,,,,,,,,,,,,,,,,,,,121,001,2023-03-03_11h28.10.343,eb_01,2022.2.4,60.003803554113084,
,,,1,0,1,0,38,0,38,0,,,,,,,,,,,,,,,,,,,,,,,,,,,,,,,,,,,,,,,,,,,,,,,,,,,,,,,,,,,121,001,2023-03-03_11h28.10.343,eb_01,2022.2.4,60.003803554113084,
6,stimuli/6.png,s,1,0,1,0,39,0,39,0,0,0,0,0,,,,,,,,,,,,,,,,,,282.33133689517854,282.33133689517854,282.33133689517854,282.33133689517854,s,1,0.5790560718742199,282.9479646231339,282.9479646231339,282.9479646231339,,,,,,,,,,,,,,,,,,,,,,,,,,,,121,001,2023-03-03_11h28.10.343,eb_01,2022.2.4,60.003803554113084,
,,,1,0,1,0,39,0,39,0,,,,,,,,,,,,,,,,,,,,,,,,,,,,,,,,,,,,,,,,,,,,,,,,,,,,,,,,,,,121,001,2023-03-03_11h28.10.343,eb_01,2022.2.4,60.003803554113084,
5,stimuli/5.png,s,1,0,1,0,40,0,40,0,0,0,0,0,,,,,,,,,,,,,,,,,,283.9475945546292,283.9475945546292,283.9475945546292,283.9475945546292,s,1,0.5468558847496752,284.5145377161971,284.5145377161971,284.5145377161971,285.5311455220508,285.5311455220508,285.5311455220508,,,,,,,,,,,,,,,,,,,,,,,,,121,001,2023-03-03_11h28.10.343,eb_01,2022.2.4,60.003803554113084,
,,,1,0,1,0,40,0,40,0,,,,,,,,,,,,,,,,,,,,,,,,,,,,,,,,,,,,,,,,,,,,,,,,,,,,,,,,,,,121,001,2023-03-03_11h28.10.343,eb_01,2022.2.4,60.003803554113084,
9,stimuli/9.png,l,1,0,1,0,41,0,41,0,0,0,0,0,,,,,,,,,,,,,,,,,,285.5311455220508,285.5311455220508,285.5311455220508,285.5311455220508,l,1,0.6113431919075083,286.18110054635326,286.18110054635326,286.18110054635326,,,,,,,,,,,,,,,,,,,,,,,,,,,,121,001,2023-03-03_11h28.10.343,eb_01,2022.2.4,60.003803554113084,
,,,1,0,1,0,41,0,41,0,,,,,,,,,,,,,,,,,,,,,,,,,,,,,,,,,,,,,,,,,,,,,,,,,,,,,,,,,,,121,001,2023-03-03_11h28.10.343,eb_01,2022.2.4,60.003803554113084,
5,stimuli/5.png,s,1,0,1,0,42,0,42,0,0,0,0,0,,,,,,,,,,,,,,,,,,287.18073168525007,287.18073168525007,287.18073168525007,287.18073168525007,s,1,0.6737905945046805,287.8810241782048,287.8810241782048,287.8810241782048,288.8976193063427,288.8976193063427,288.8976193063427,,,,,,,,,,,,,,,,,,,,,,,,,121,001,2023-03-03_11h28.10.343,eb_01,2022.2.4,60.003803554113084,
,,,1,0,1,0,42,0,42,0,,,,,,,,,,,,,,,,,,,,,,,,,,,,,,,,,,,,,,,,,,,,,,,,,,,,,,,,,,,121,001,2023-03-03_11h28.10.343,eb_01,2022.2.4,60.003803554113084,
9,stimuli/9.png,l,1,0,1,0,43,0,43,0,0,0,0,0,,,,,,,,,,,,,,,,,,288.8976193063427,288.8976193063427,288.8976193063427,288.8976193063427,l,1,0.4839762324700132,289.43090766397654,289.43090766397654,289.43090766397654,,,,,,,,,,,,,,,,,,,,,,,,,,,,121,001,2023-03-03_11h28.10.343,eb_01,2022.2.4,60.003803554113084,
,,,1,0,1,0,43,0,43,0,,,,,,,,,,,,,,,,,,,,,,,,,,,,,,,,,,,,,,,,,,,,,,,,,,,,,,,,,,,121,001,2023-03-03_11h28.10.343,eb_01,2022.2.4,60.003803554113084,
5,stimuli/5.png,s,1,0,1,0,44,0,44,0,0,0,0,0,,,,,,,,,,,,,,,,,,290.43054212321294,290.43054212321294,290.43054212321294,290.43054212321294,s,1,0.9910775636381004,291.4474602312257,291.4474602312257,291.4474602312257,292.464081318496,292.464081318496,292.464081318496,,,,,,,,,,,,,,,,,,,,,,,,,121,001,2023-03-03_11h28.10.343,eb_01,2022.2.4,60.003803554113084,
,,,1,0,1,0,44,0,44,0,,,,,,,,,,,,,,,,,,,,,,,,,,,,,,,,,,,,,,,,,,,,,,,,,,,,,,,,,,,121,001,2023-03-03_11h28.10.343,eb_01,2022.2.4,60.003803554113084,
6,stimuli/6.png,s,1,0,1,0,45,0,45,0,0,0,0,0,,,,,,,,,,,,,,,,,,292.464081318496,292.464081318496,292.464081318496,292.464081318496,s,1,0.5735777899972163,293.0806939539325,293.0806939539325,293.0806939539325,,,,,,,,,,,,,,,,,,,,,,,,,,,,121,001,2023-03-03_11h28.10.343,eb_01,2022.2.4,60.003803554113084,
,,,1,0,1,0,45,0,45,0,,,,,,,,,,,,,,,,,,,,,,,,,,,,,,,,,,,,,,,,,,,,,,,,,,,,,,,,,,,121,001,2023-03-03_11h28.10.343,eb_01,2022.2.4,60.003803554113084,
5,stimuli/5.png,s,1,0,1,0,46,0,46,0,0,0,0,0,,,,,,,,,,,,,,,,,,294.08032237616135,294.08032237616135,294.08032237616135,294.08032237616135,s,1,0.5733921520586591,294.6805861933681,294.6805861933681,294.6805861933681,295.69720456397044,295.69720456397044,295.69720456397044,,,,,,,,,,,,,,,,,,,,,,,,,121,001,2023-03-03_11h28.10.343,eb_01,2022.2.4,60.003803554113084,
,,,1,0,1,0,46,0,46,0,,,,,,,,,,,,,,,,,,,,,,,,,,,,,,,,,,,,,,,,,,,,,,,,,,,,,,,,,,,121,001,2023-03-03_11h28.10.343,eb_01,2022.2.4,60.003803554113084,
6,stimuli/6.png,s,1,0,1,0,47,0,47,0,0,0,0,0,,,,,,,,,,,,,,,,,,295.69720456397044,295.69720456397044,295.69720456397044,295.69720456397044,s,1,0.5085196838190313,296.24718554739957,296.24718554739957,296.24718554739957,,,,,,,,,,,,,,,,,,,,,,,,,,,,121,001,2023-03-03_11h28.10.343,eb_01,2022.2.4,60.003803554113084,
,,,1,0,1,0,47,0,47,0,,,,,,,,,,,,,,,,,,,,,,,,,,,,,,,,,,,,,,,,,,,,,,,,,,,,,,,,,,,121,001,2023-03-03_11h28.10.343,eb_01,2022.2.4,60.003803554113084,
8,stimuli/8.png,l,1,0,1,0,48,0,48,0,0,0,0,0,,,,,,,,,,,,,,,,,,297.2637728274276,297.2637728274276,297.2637728274276,297.2637728274276,l,1,0.550002674543066,297.8304093090701,297.8304093090701,297.8304093090701,298.8470168130589,298.8470168130589,298.8470168130589,,,,,,,,,,,,,,,,,,,,,,,,,121,001,2023-03-03_11h28.10.343,eb_01,2022.2.4,60.003803554113084,
,,,1,0,1,0,48,0,48,0,,,,,,,,,,,,,,,,,,,,,,,,,,,,,,,,,,,,,,,,,,,,,,,,,,,,,,,,,,,121,001,2023-03-03_11h28.10.343,eb_01,2022.2.4,60.003803554113084,
9,stimuli/9.png,l,1,0,1,0,49,0,49,0,0,0,0,0,,,,,,,,,,,,,,,,,,298.8470168130589,298.8470168130589,298.8470168130589,298.8470168130589,l,1,0.6387738418125082,299.5303084910556,299.5303084910556,299.5303084910556,,,,,,,,,,,,,,,,,,,,,,,,,,,,121,001,2023-03-03_11h28.10.343,eb_01,2022.2.4,60.003803554113084,
,,,1,0,1,0,49,0,49,0,,,,,,,,,,,,,,,,,,,,,,,,,,,,,,,,,,,,,,,,,,,,,,,,,,,,,,,,,,,121,001,2023-03-03_11h28.10.343,eb_01,2022.2.4,60.003803554113084,
5,stimuli/5.png,s,1,0,1,0,50,0,50,0,0,0,0,0,,,,,,,,,,,,,,,,,,300.5299634761177,300.5299634761177,300.5299634761177,300.5299634761177,s,1,0.6039134476159234,301.16355247667525,301.16355247667525,301.16355247667525,302.1801527362841,302.1801527362841,302.1801527362841,,,,,,,,,,,,,,,,,,,,,,,,,121,001,2023-03-03_11h28.10.343,eb_01,2022.2.4,60.003803554113084,
,,,1,0,1,0,50,0,50,0,,,,,,,,,,,,,,,,,,,,,,,,,,,,,,,,,,,,,,,,,,,,,,,,,,,,,,,,,,,121,001,2023-03-03_11h28.10.343,eb_01,2022.2.4,60.003803554113084,
6,stimuli/6.png,s,1,0,1,0,51,0,51,0,0,0,0,0,,,,,,,,,,,,,,,,,,302.1801527362841,302.1801527362841,302.1801527362841,302.1801527362841,s,1,0.8257284736901056,303.0467647680198,303.0467647680198,303.0467647680198,,,,,,,,,,,,,,,,,,,,,,,,,,,,121,001,2023-03-03_11h28.10.343,eb_01,2022.2.4,60.003803554113084,
,,,1,0,1,0,51,0,51,0,,,,,,,,,,,,,,,,,,,,,,,,,,,,,,,,,,,,,,,,,,,,,,,,,,,,,,,,,,,121,001,2023-03-03_11h28.10.343,eb_01,2022.2.4,60.003803554113084,
5,stimuli/5.png,s,1,0,1,0,52,0,52,0,0,0,0,0,,,,,,,,,,,,,,,,,,304.0464028494607,304.0464028494607,304.0464028494607,304.0464028494607,s,1,0.6225463673763443,304.6966654592834,304.6966654592834,304.6966654592834,305.71327507621027,305.71327507621027,305.71327507621027,,,,,,,,,,,,,,,,,,,,,,,,,121,001,2023-03-03_11h28.10.343,eb_01,2022.2.4,60.003803554113084,
,,,1,0,1,0,52,0,52,0,,,,,,,,,,,,,,,,,,,,,,,,,,,,,,,,,,,,,,,,,,,,,,,,,,,,,,,,,,,121,001,2023-03-03_11h28.10.343,eb_01,2022.2.4,60.003803554113084,
6,stimuli/6.png,s,1,0,1,0,53,0,53,0,0,0,0,0,,,,,,,,,,,,,,,,,,305.71327507621027,305.71327507621027,305.71327507621027,305.71327507621027,s,1,0.5556883276149165,306.3132367412327,306.3132367412327,306.3132367412327,,,,,,,,,,,,,,,,,,,,,,,,,,,,121,001,2023-03-03_11h28.10.343,eb_01,2022.2.4,60.003803554113084,
,,,1,0,1,0,53,0,53,0,,,,,,,,,,,,,,,,,,,,,,,,,,,,,,,,,,,,,,,,,,,,,,,,,,,,,,,,,,,121,001,2023-03-03_11h28.10.343,eb_01,2022.2.4,60.003803554113084,
9,stimuli/9.png,l,1,0,1,0,54,0,54,0,0,0,0,0,,,,,,,,,,,,,,,,,,307.3298400193162,307.3298400193162,307.3298400193162,307.3298400193162,l,1,0.5631295422499534,307.9298237194016,307.9298237194016,307.9298237194016,,,,,,,,,,,,,,,,,,,,,,,,,,,,121,001,2023-03-03_11h28.10.343,eb_01,2022.2.4,60.003803554113084,
,,,1,0,1,0,54,0,54,0,,,,,,,,,,,,,,,,,,,,,,,,,,,,,,,,,,,,,,,,,,,,,,,,,,,,,,,,,,,121,001,2023-03-03_11h28.10.343,eb_01,2022.2.4,60.003803554113084,
5,stimuli/5.png,s,1,0,1,0,55,0,55,0,0,0,0,0,,,,,,,,,,,,,,,,,,308.9294340306078,308.9294340306078,308.9294340306078,308.9294340306078,s,1,0.5156270519946702,309.4630489903211,309.4630489903211,309.4630489903211,310.47965498507256,310.47965498507256,310.47965498507256,,,,,,,,,,,,,,,,,,,,,,,,,121,001,2023-03-03_11h28.10.343,eb_01,2022.2.4,60.003803554113084,
,,,1,0,1,0,55,0,55,0,,,,,,,,,,,,,,,,,,,,,,,,,,,,,,,,,,,,,,,,,,,,,,,,,,,,,,,,,,,121,001,2023-03-03_11h28.10.343,eb_01,2022.2.4,60.003803554113084,
6,stimuli/6.png,s,1,0,1,0,56,0,56,0,0,0,0,0,,,,,,,,,,,,,,,,,,310.47965498507256,310.47965498507256,310.47965498507256,310.47965498507256,s,1,0.5093902201915625,311.0295451115526,311.0295451115526,311.0295451115526,,,,,,,,,,,,,,,,,,,,,,,,,,,,121,001,2023-03-03_11h28.10.343,eb_01,2022.2.4,60.003803554113084,
,,,1,0,1,0,56,0,56,0,,,,,,,,,,,,,,,,,,,,,,,,,,,,,,,,,,,,,,,,,,,,,,,,,,,,,,,,,,,121,001,2023-03-03_11h28.10.343,eb_01,2022.2.4,60.003803554113084,
5,stimuli/5.png,s,1,0,1,0,57,0,57,0,0,0,0,0,,,,,,,,,,,,,,,,,,312.02925805185805,312.02925805185805,312.02925805185805,312.02925805185805,s,1,0.7278528964088764,312.7795233783254,312.7795233783254,312.7795233783254,313.7961332971172,313.7961332971172,313.7961332971172,,,,,,,,,,,,,,,,,,,,,,,,,121,001,2023-03-03_11h28.10.343,eb_01,2022.2.4,60.003803554113084,
,,,1,0,1,0,57,0,57,0,,,,,,,,,,,,,,,,,,,,,,,,,,,,,,,,,,,,,,,,,,,,,,,,,,,,,,,,,,,121,001,2023-03-03_11h28.10.343,eb_01,2022.2.4,60.003803554113084,
9,stimuli/9.png,l,1,0,1,0,58,0,58,0,0,0,0,0,,,,,,,,,,,,,,,,,,313.7961332971172,313.7961332971172,313.7961332971172,313.7961332971172,l,1,0.46501882356824353,314.29609013252775,314.29609013252775,314.29609013252775,,,,,,,,,,,,,,,,,,,,,,,,,,,,121,001,2023-03-03_11h28.10.343,eb_01,2022.2.4,60.003803554113084,
,,,1,0,1,0,58,0,58,0,,,,,,,,,,,,,,,,,,,,,,,,,,,,,,,,,,,,,,,,,,,,,,,,,,,,,,,,,,,121,001,2023-03-03_11h28.10.343,eb_01,2022.2.4,60.003803554113084,
6,stimuli/6.png,s,1,0,1,0,59,0,59,0,0,0,0,0,,,,,,,,,,,,,,,,,,315.31270005131955,315.31270005131955,315.31270005131955,315.31270005131955,s,1,0.5885030820500106,315.9459977663064,315.9459977663064,315.9459977663064,,,,,,,,,,,,,,,,,,,,,,,,,,,,121,001,2023-03-03_11h28.10.343,eb_01,2022.2.4,60.003803554113084,
,,,1,0,1,0,59,0,59,0,,,,,,,,,,,,,,,,,,,,,,,,,,,,,,,,,,,,,,,,,,,,,,,,,,,,,,,,,,,121,001,2023-03-03_11h28.10.343,eb_01,2022.2.4,60.003803554113084,
8,stimuli/8.png,l,1,0,1,0,60,0,60,0,0,0,0,0,,,,,,,,,,,,,,,,,,316.96262338134693,316.96262338134693,316.96262338134693,316.96262338134693,l,1,0.6426351114059798,317.62924145010766,317.62924145010766,317.62924145010766,318.64583476711414,318.64583476711414,318.64583476711414,,,,,,,,,,,,,,,,,,,,,,,,,121,001,2023-03-03_11h28.10.343,eb_01,2022.2.4,60.003803554113084,
,,,1,0,1,0,60,0,60,0,,,,,,,,,,,,,,,,,,,,,,,,,,,,,,,,,,,,,,,,,,,,,,,,,,,,,,,,,,,121,001,2023-03-03_11h28.10.343,eb_01,2022.2.4,60.003803554113084,
6,stimuli/6.png,s,1,0,1,0,61,0,61,0,0,0,0,0,,,,,,,,,,,,,,,,,,318.64583476711414,318.64583476711414,318.64583476711414,318.64583476711414,s,1,0.6474236652429681,319.32912916177884,319.32912916177884,319.32912916177884,,,,,,,,,,,,,,,,,,,,,,,,,,,,121,001,2023-03-03_11h28.10.343,eb_01,2022.2.4,60.003803554113084,
,,,1,0,1,0,61,0,61,0,,,,,,,,,,,,,,,,,,,,,,,,,,,,,,,,,,,,,,,,,,,,,,,,,,,,,,,,,,,121,001,2023-03-03_11h28.10.343,eb_01,2022.2.4,60.003803554113084,
8,stimuli/8.png,l,1,0,1,0,62,0,62,0,0,0,0,0,,,,,,,,,,,,,,,,,,320.3287533581024,320.3287533581024,320.3287533581024,320.3287533581024,l,1,0.499545673141256,320.8457091973978,320.8457091973978,320.8457091973978,321.8623167013866,321.8623167013866,321.8623167013866,,,,,,,,,,,,,,,,,,,,,,,,,121,001,2023-03-03_11h28.10.343,eb_01,2022.2.4,60.003803554113084,
,,,1,0,1,0,62,0,62,0,,,,,,,,,,,,,,,,,,,,,,,,,,,,,,,,,,,,,,,,,,,,,,,,,,,,,,,,,,,121,001,2023-03-03_11h28.10.343,eb_01,2022.2.4,60.003803554113084,
6,stimuli/6.png,s,1,0,1,0,63,0,63,0,0,0,0,0,,,,,,,,,,,,,,,,,,321.8623167013866,321.8623167013866,321.8623167013866,321.8623167013866,s,1,0.4620178274344653,322.36229104411905,322.36229104411905,322.36229104411905,,,,,,,,,,,,,,,,,,,,,,,,,,,,121,001,2023-03-03_11h28.10.343,eb_01,2022.2.4,60.003803554113084,
,,,1,0,1,0,63,0,63,0,,,,,,,,,,,,,,,,,,,,,,,,,,,,,,,,,,,,,,,,,,,,,,,,,,,,,,,,,,,121,001,2023-03-03_11h28.10.343,eb_01,2022.2.4,60.003803554113084,
9,stimuli/9.png,l,1,0,1,0,64,0,64,0,0,0,0,0,,,,,,,,,,,,,,,,,,323.378888285195,323.378888285195,323.378888285195,323.378888285195,l,1,0.553479990514461,323.97885689276154,323.97885689276154,323.97885689276154,,,,,,,,,,,,,,,,,,,,,,,,,,,,121,001,2023-03-03_11h28.10.343,eb_01,2022.2.4,60.003803554113084,
,,,1,0,1,0,64,0,64,0,,,,,,,,,,,,,,,,,,,,,,,,,,,,,,,,,,,,,,,,,,,,,,,,,,,,,,,,,,,121,001,2023-03-03_11h28.10.343,eb_01,2022.2.4,60.003803554113084,
8,stimuli/8.png,l,1,0,1,0,65,0,65,0,0,0,0,0,,,,,,,,,,,,,,,,,,324.9954562468047,324.9954562468047,324.9954562468047,324.9954562468047,l,1,0.4489193336921744,325.4620963506459,325.4620963506459,325.4620963506459,326.47868302697316,326.47868302697316,326.47868302697316,,,,,,,,,,,,,,,,,,,,,,,,,121,001,2023-03-03_11h28.10.343,eb_01,2022.2.4,60.003803554113084,
,,,1,0,1,0,65,0,65,0,,,,,,,,,,,,,,,,,,,,,,,,,,,,,,,,,,,,,,,,,,,,,,,,,,,,,,,,,,,121,001,2023-03-03_11h28.10.343,eb_01,2022.2.4,60.003803554113084,
9,stimuli/9.png,l,1,0,1,0,66,0,66,0,0,0,0,0,,,,,,,,,,,,,,,,,,326.47868302697316,326.47868302697316,326.47868302697316,326.47868302697316,l,1,0.4457526217447594,326.9620054936968,326.9620054936968,326.9620054936968,,,,,,,,,,,,,,,,,,,,,,,,,,,,121,001,2023-03-03_11h28.10.343,eb_01,2022.2.4,60.003803554113084,
,,,1,0,1,0,66,0,66,0,,,,,,,,,,,,,,,,,,,,,,,,,,,,,,,,,,,,,,,,,,,,,,,,,,,,,,,,,,,121,001,2023-03-03_11h28.10.343,eb_01,2022.2.4,60.003803554113084,
8,stimuli/8.png,l,1,0,1,0,67,0,67,0,0,0,0,0,,,,,,,,,,,,,,,,,,327.97860545141157,327.97860545141157,327.97860545141157,327.97860545141157,l,1,0.3858646082226187,328.39525491261156,328.39525491261156,328.39525491261156,329.41187026473926,329.41187026473926,329.41187026473926,,,,,,,,,,,,,,,,,,,,,,,,,121,001,2023-03-03_11h28.10.343,eb_01,2022.2.4,60.003803554113084,
,,,1,0,1,0,67,0,67,0,,,,,,,,,,,,,,,,,,,,,,,,,,,,,,,,,,,,,,,,,,,,,,,,,,,,,,,,,,,121,001,2023-03-03_11h28.10.343,eb_01,2022.2.4,60.003803554113084,
6,stimuli/6.png,s,1,0,1,0,68,0,68,0,0,0,0,0,,,,,,,,,,,,,,,,,,329.41187026473926,329.41187026473926,329.41187026473926,329.41187026473926,s,1,0.5526339039788581,330.01182921309373,330.01182921309373,330.01182921309373,,,,,,,,,,,,,,,,,,,,,,,,,,,,121,001,2023-03-03_11h28.10.343,eb_01,2022.2.4,60.003803554113084,
,,,1,0,1,0,68,0,68,0,,,,,,,,,,,,,,,,,,,,,,,,,,,,,,,,,,,,,,,,,,,,,,,,,,,,,,,,,,,121,001,2023-03-03_11h28.10.343,eb_01,2022.2.4,60.003803554113084,
9,stimuli/9.png,l,1,0,1,0,69,0,69,0,0,0,0,0,,,,,,,,,,,,,,,,,,331.0284318874765,331.0284318874765,331.0284318874765,331.0284318874765,l,1,0.4720987233449705,331.5450650487619,331.5450650487619,331.5450650487619,,,,,,,,,,,,,,,,,,,,,,,,,,,,121,001,2023-03-03_11h28.10.343,eb_01,2022.2.4,60.003803554113084,
,,,1,0,1,0,69,0,69,0,,,,,,,,,,,,,,,,,,,,,,,,,,,,,,,,,,,,,,,,,,,,,,,,,,,,,,,,,,,121,001,2023-03-03_11h28.10.343,eb_01,2022.2.4,60.003803554113084,
8,stimuli/8.png,l,1,0,1,0,70,0,70,0,0,0,0,0,,,,,,,,,,,,,,,,,,332.5616728546156,332.5616728546156,332.5616728546156,332.5616728546156,l,1,0.5309049052302726,333.1116426695662,333.1116426695662,333.1116426695662,334.12824655137956,334.12824655137956,334.12824655137956,,,,,,,,,,,,,,,,,,,,,,,,,121,001,2023-03-03_11h28.10.343,eb_01,2022.2.4,60.003803554113084,
,,,1,0,1,0,70,0,70,0,,,,,,,,,,,,,,,,,,,,,,,,,,,,,,,,,,,,,,,,,,,,,,,,,,,,,,,,,,,121,001,2023-03-03_11h28.10.343,eb_01,2022.2.4,60.003803554113084,
9,stimuli/9.png,l,1,0,1,0,71,0,71,0,0,0,0,0,,,,,,,,,,,,,,,,,,334.12824655137956,334.12824655137956,334.12824655137956,334.12824655137956,l,1,0.5403688190272078,334.71149838512065,334.71149838512065,334.71149838512065,,,,,,,,,,,,,,,,,,,,,,,,,,,,121,001,2023-03-03_11h28.10.343,eb_01,2022.2.4,60.003803554113084,
,,,1,0,1,0,71,0,71,0,,,,,,,,,,,,,,,,,,,,,,,,,,,,,,,,,,,,,,,,,,,,,,,,,,,,,,,,,,,121,001,2023-03-03_11h28.10.343,eb_01,2022.2.4,60.003803554113084,
5,stimuli/5.png,s,1,0,1,0,72,0,72,0,0,0,0,0,,,,,,,,,,,,,,,,,,335.71117238674196,335.71117238674196,335.71117238674196,335.71117238674196,s,1,0.5884786321839783,336.3281357722881,336.3281357722881,336.3281357722881,337.3446967913478,337.3446967913478,337.3446967913478,,,,,,,,,,,,,,,,,,,,,,,,,121,001,2023-03-03_11h28.10.343,eb_01,2022.2.4,60.003803554113084,
,,,1,0,1,0,72,0,72,0,,,,,,,,,,,,,,,,,,,,,,,,,,,,,,,,,,,,,,,,,,,,,,,,,,,,,,,,,,,121,001,2023-03-03_11h28.10.343,eb_01,2022.2.4,60.003803554113084,
9,stimuli/9.png,l,1,0,1,0,73,0,73,0,0,0,0,0,,,,,,,,,,,,,,,,,,337.3446967913478,337.3446967913478,337.3446967913478,337.3446967913478,l,1,0.578992381459102,337.9613498747349,337.9613498747349,337.9613498747349,,,,,,,,,,,,,,,,,,,,,,,,,,,,121,001,2023-03-03_11h28.10.343,eb_01,2022.2.4,60.003803554113084,
,,,1,0,1,0,73,0,73,0,,,,,,,,,,,,,,,,,,,,,,,,,,,,,,,,,,,,,,,,,,,,,,,,,,,,,,,,,,,121,001,2023-03-03_11h28.10.343,eb_01,2022.2.4,60.003803554113084,
6,stimuli/6.png,s,1,0,1,0,74,0,74,0,0,0,0,0,,,,,,,,,,,,,,,,,,338.9779579824244,338.9779579824244,338.9779579824244,338.9779579824244,s,1,0.5377680764649995,339.5612656584999,339.5612656584999,339.5612656584999,,,,,,,,,,,,,,,,,,,,,,,,,,,,121,001,2023-03-03_11h28.10.343,eb_01,2022.2.4,60.003803554113084,
,,,1,0,1,0,74,0,74,0,,,,,,,,,,,,,,,,,,,,,,,,,,,,,,,,,,,,,,,,,,,,,,,,,,,,,,,,,,,121,001,2023-03-03_11h28.10.343,eb_01,2022.2.4,60.003803554113084,
8,stimuli/8.png,l,1,0,1,0,75,0,75,0,0,0,0,0,,,,,,,,,,,,,,,,,,340.5778604847728,340.5778604847728,340.5778604847728,340.5778604847728,l,1,0.5699115157476626,341.1778381478507,341.1778381478507,341.1778381478507,342.19443448339007,342.19443448339007,342.19443448339007,,,,,,,,,,,,,,,,,,,,,,,,,121,001,2023-03-03_11h28.10.343,eb_01,2022.2.4,60.003803554113084,
,,,1,0,1,0,75,0,75,0,,,,,,,,,,,,,,,,,,,,,,,,,,,,,,,,,,,,,,,,,,,,,,,,,,,,,,,,,,,121,001,2023-03-03_11h28.10.343,eb_01,2022.2.4,60.003803554113084,
9,stimuli/9.png,l,1,0,1,0,76,0,76,0,0,0,0,0,,,,,,,,,,,,,,,,,,342.19443448339007,342.19443448339007,342.19443448339007,342.19443448339007,l,1,0.8093769387924112,343.04437954662717,343.04437954662717,343.04437954662717,,,,,,,,,,,,,,,,,,,,,,,,,,,,121,001,2023-03-03_11h28.10.343,eb_01,2022.2.4,60.003803554113084,
,,,1,0,1,0,76,0,76,0,,,,,,,,,,,,,,,,,,,,,,,,,,,,,,,,,,,,,,,,,,,,,,,,,,,,,,,,,,,121,001,2023-03-03_11h28.10.343,eb_01,2022.2.4,60.003803554113084,
6,stimuli/6.png,s,1,0,1,0,77,0,77,0,0,0,0,0,,,,,,,,,,,,,,,,,,344.0609900691197,344.0609900691197,344.0609900691197,344.0609900691197,s,1,0.46288111942703836,344.5609577711439,344.5609577711439,344.5609577711439,,,,,,,,,,,,,,,,,,,,,,,,,,,,121,001,2023-03-03_11h28.10.343,eb_01,2022.2.4,60.003803554113084,
,,,1,0,1,0,77,0,77,0,,,,,,,,,,,,,,,,,,,,,,,,,,,,,,,,,,,,,,,,,,,,,,,,,,,,,,,,,,,121,001,2023-03-03_11h28.10.343,eb_01,2022.2.4,60.003803554113084,
8,stimuli/8.png,l,1,0,1,0,78,0,78,0,0,0,0,0,,,,,,,,,,,,,,,,,,345.57756497329683,345.57756497329683,345.57756497329683,345.57756497329683,l,1,0.522324205521727,346.1275341845467,346.1275341845467,346.1275341845467,347.14414259410114,347.14414259410114,347.14414259410114,,,,,,,,,,,,,,,,,,,,,,,,,121,001,2023-03-03_11h28.10.343,eb_01,2022.2.4,60.003803554113084,
,,,1,0,1,0,78,0,78,0,,,,,,,,,,,,,,,,,,,,,,,,,,,,,,,,,,,,,,,,,,,,,,,,,,,,,,,,,,,121,001,2023-03-03_11h28.10.343,eb_01,2022.2.4,60.003803554113084,
6,stimuli/6.png,s,1,0,1,0,79,0,79,0,0,0,0,0,,,,,,,,,,,,,,,,,,347.14414259410114,347.14414259410114,347.14414259410114,347.14414259410114,s,1,0.6917754416062962,347.8774107277568,347.8774107277568,347.8774107277568,,,,,,,,,,,,,,,,,,,,,,,,,,,,121,001,2023-03-03_11h28.10.343,eb_01,2022.2.4,60.003803554113084,
,,,1,0,1,0,79,0,79,0,,,,,,,,,,,,,,,,,,,,,,,,,,,,,,,,,,,,,,,,,,,,,,,,,,,,,,,,,,,121,001,2023-03-03_11h28.10.343,eb_01,2022.2.4,60.003803554113084,
8,stimuli/8.png,l,1,0,1,0,80,0,80,0,0,0,0,0,,,,,,,,,,,,,,,,,,348.8940318150271,348.8940318150271,348.8940318150271,348.8940318150271,l,1,0.517970316199353,349.4440100818174,349.4440100818174,349.4440100818174,350.4606169821054,350.4606169821054,350.4606169821054,,,,,,,,,,,,,,,,,,,,,,,,,121,001,2023-03-03_11h28.10.343,eb_01,2022.2.4,60.003803554113084,
,,,1,0,1,0,80,0,80,0,,,,,,,,,,,,,,,,,,,,,,,,,,,,,,,,,,,,,,,,,,,,,,,,,,,,,,,,,,,121,001,2023-03-03_11h28.10.343,eb_01,2022.2.4,60.003803554113084,
6,stimuli/6.png,s,1,0,1,0,81,0,81,0,0,0,0,0,,,,,,,,,,,,,,,,,,350.4606169821054,350.4606169821054,350.4606169821054,350.4606169821054,s,1,0.4313736788171809,350.9272504452383,350.9272504452383,350.9272504452383,,,,,,,,,,,,,,,,,,,,,,,,,,,,121,001,2023-03-03_11h28.10.343,eb_01,2022.2.4,60.003803554113084,
,,,1,0,1,0,81,0,81,0,,,,,,,,,,,,,,,,,,,,,,,,,,,,,,,,,,,,,,,,,,,,,,,,,,,,,,,,,,,121,001,2023-03-03_11h28.10.343,eb_01,2022.2.4,60.003803554113084,
9,stimuli/9.png,l,1,0,1,0,82,0,82,0,0,0,0,0,,,,,,,,,,,,,,,,,,351.94385432702256,351.94385432702256,351.94385432702256,351.94385432702256,l,1,0.5152569834608585,352.49383168824716,352.49383168824716,352.49383168824716,,,,,,,,,,,,,,,,,,,,,,,,,,,,121,001,2023-03-03_11h28.10.343,eb_01,2022.2.4,60.003803554113084,
,,,1,0,1,0,82,0,82,0,,,,,,,,,,,,,,,,,,,,,,,,,,,,,,,,,,,,,,,,,,,,,,,,,,,,,,,,,,,121,001,2023-03-03_11h28.10.343,eb_01,2022.2.4,60.003803554113084,
8,stimuli/8.png,l,1,0,1,0,83,0,83,0,0,0,0,0,,,,,,,,,,,,,,,,,,353.51042530714767,353.51042530714767,353.51042530714767,353.51042530714767,l,1,0.49264718539780006,354.0270738627878,354.0270738627878,354.0270738627878,355.02665700746,355.02665700746,355.02665700746,,,,,,,,,,,,,,,,,,,,,,,,,121,001,2023-03-03_11h28.10.343,eb_01,2022.2.4,60.003803554113084,
,,,1,0,1,0,83,0,83,0,,,,,,,,,,,,,,,,,,,,,,,,,,,,,,,,,,,,,,,,,,,,,,,,,,,,,,,,,,,121,001,2023-03-03_11h28.10.343,eb_01,2022.2.4,60.003803554113084,
3,stimuli/3.png,l,1,0,1,0,84,0,84,0,0,0,0,0,,,,,,,,,,,,,,,,,,355.02665700746,355.02665700746,355.02665700746,355.02665700746,l,1,0.48046873148996383,355.52697908176924,355.52697908176924,355.52697908176924,356.52691327841603,356.52691327841603,356.52691327841603,,,,,,,,,,,,,,,,,,,,,,,,,121,001,2023-03-03_11h28.10.343,eb_01,2022.2.4,60.003803554113084,
,,,1,0,1,0,84,0,84,0,,,,,,,,,,,,,,,,,,,,,,,,,,,,,,,,,,,,,,,,,,,,,,,,,,,,,,,,,,,121,001,2023-03-03_11h28.10.343,eb_01,2022.2.4,60.003803554113084,
2,stimuli/2.png,s,1,0,1,0,85,0,85,0,0,0,0,0,,,,,,,,,,,,,,,,,,356.52691327841603,356.52691327841603,356.52691327841603,356.52691327841603,s,1,0.7082265871576965,357.2602046545362,357.2602046545362,357.2602046545362,358.26016118808184,358.26016118808184,358.26016118808184,,,,,,,,,,,,,,,,,,,,,,,,,121,001,2023-03-03_11h28.10.343,eb_01,2022.2.4,60.003803554113084,
,,,1,0,1,0,85,0,85,0,,,,,,,,,,,,,,,,,,,,,,,,,,,,,,,,,,,,,,,,,,,,,,,,,,,,,,,,,,,121,001,2023-03-03_11h28.10.343,eb_01,2022.2.4,60.003803554113084,
3,stimuli/3.png,l,1,0,1,0,86,0,86,0,0,0,0,0,,,,,,,,,,,,,,,,,,358.26016118808184,358.26016118808184,358.26016118808184,358.26016118808184,l,1,0.5670532948570326,358.86011379759293,358.86011379759293,358.86011379759293,359.860051918251,359.860051918251,359.860051918251,,,,,,,,,,,,,,,,,,,,,,,,,121,001,2023-03-03_11h28.10.343,eb_01,2022.2.4,60.003803554113084,
,,,1,0,1,0,86,0,86,0,,,,,,,,,,,,,,,,,,,,,,,,,,,,,,,,,,,,,,,,,,,,,,,,,,,,,,,,,,,121,001,2023-03-03_11h28.10.343,eb_01,2022.2.4,60.003803554113084,
2,stimuli/2.png,s,1,0,1,0,87,0,87,0,0,0,0,0,,,,,,,,,,,,,,,,,,359.860051918251,359.860051918251,359.860051918251,359.860051918251,s,1,0.6071791664580815,360.4933451054967,360.4933451054967,360.4933451054967,361.4932934890967,361.4932934890967,361.4932934890967,,,,,,,,,,,,,,,,,,,,,,,,,121,001,2023-03-03_11h28.10.343,eb_01,2022.2.4,60.003803554113084,
,,,1,0,1,0,87,0,87,0,,,,,,,,,,,,,,,,,,,,,,,,,,,,,,,,,,,,,,,,,,,,,,,,,,,,,,,,,,,121,001,2023-03-03_11h28.10.343,eb_01,2022.2.4,60.003803554113084,
3,stimuli/3.png,l,1,0,1,0,88,0,88,0,0,0,0,0,,,,,,,,,,,,,,,,,,361.4932934890967,361.4932934890967,361.4932934890967,361.4932934890967,l,1,1.6940130582079291,363.2098536026024,363.2098536026024,363.2098536026024,364.2097938362276,364.2097938362276,364.2097938362276,,,,,,,,,,,,,,,,,,,,,,,,,121,001,2023-03-03_11h28.10.343,eb_01,2022.2.4,60.003803554113084,
,,,1,0,1,0,88,0,88,0,,,,,,,,,,,,,,,,,,,,,,,,,,,,,,,,,,,,,,,,,,,,,,,,,,,,,,,,,,,121,001,2023-03-03_11h28.10.343,eb_01,2022.2.4,60.003803554113084,
2,stimuli/2.png,s,1,0,1,0,89,0,89,0,0,0,0,0,,,,,,,,,,,,,,,,,,364.2097938362276,364.2097938362276,364.2097938362276,364.2097938362276,s,1,1.0095408435445279,365.24302393672406,365.24302393672406,365.24302393672406,366.2596770201344,366.2596770201344,366.2596770201344,,,,,,,,,,,,,,,,,,,,,,,,,121,001,2023-03-03_11h28.10.343,eb_01,2022.2.4,60.003803554113084,
,,,1,0,1,0,89,0,89,0,,,,,,,,,,,,,,,,,,,,,,,,,,,,,,,,,,,,,,,,,,,,,,,,,,,,,,,,,,,121,001,2023-03-03_11h28.10.343,eb_01,2022.2.4,60.003803554113084,
1,stimuli/1.png,s,1,0,1,0,90,0,90,0,0,0,0,0,,,,,,,,,,,,,,,,,,366.2596770201344,366.2596770201344,366.2596770201344,366.2596770201344,s,1,0.7027247609512415,367.0096223852306,367.0096223852306,367.0096223852306,,,,,,,,,,,,,,,,,,,,,,,,,,,,121,001,2023-03-03_11h28.10.343,eb_01,2022.2.4,60.003803554113084,
,,,1,0,1,0,90,0,90,0,,,,,,,,,,,,,,,,,,,,,,,,,,,,,,,,,,,,,,,,,,,,,,,,,,,,,,,,,,,121,001,2023-03-03_11h28.10.343,eb_01,2022.2.4,60.003803554113084,
4,stimuli/4.png,l,1,0,1,0,91,0,91,0,0,0,0,0,,,,,,,,,,,,,,,,,,368.0262289836828,368.0262289836828,368.0262289836828,368.0262289836828,l,1,0.648171650362201,368.6928718041745,368.6928718041745,368.6928718041745,369.7094696489512,369.7094696489512,369.7094696489512,,,,,,,,,,,,,,,,,,,,,,,,,121,001,2023-03-03_11h28.10.343,eb_01,2022.2.4,60.003803554113084,
,,,1,0,1,0,91,0,91,0,,,,,,,,,,,,,,,,,,,,,,,,,,,,,,,,,,,,,,,,,,,,,,,,,,,,,,,,,,,121,001,2023-03-03_11h28.10.343,eb_01,2022.2.4,60.003803554113084,
1,stimuli/1.png,s,1,0,1,0,92,0,92,0,0,0,0,0,,,,,,,,,,,,,,,,,,369.7094696489512,369.7094696489512,369.7094696489512,369.7094696489512,s,1,0.852965939353453,370.60947357301484,370.60947357301484,370.60947357301484,,,,,,,,,,,,,,,,,,,,,,,,,,,,121,001,2023-03-03_11h28.10.343,eb_01,2022.2.4,60.003803554113084,
,,,1,0,1,0,92,0,92,0,,,,,,,,,,,,,,,,,,,,,,,,,,,,,,,,,,,,,,,,,,,,,,,,,,,,,,,,,,,121,001,2023-03-03_11h28.10.343,eb_01,2022.2.4,60.003803554113084,
2,stimuli/2.png,s,1,0,1,0,93,0,93,0,0,0,0,0,,,,,,,,,,,,,,,,,,371.609386941971,371.609386941971,371.609386941971,371.609386941971,s,1,0.6330896980070975,372.2593123849365,372.2593123849365,372.2593123849365,373.27593618884566,373.27593618884566,373.27593618884566,,,,,,,,,,,,,,,,,,,,,,,,,121,001,2023-03-03_11h28.10.343,eb_01,2022.2.4,60.003803554113084,
,,,1,0,1,0,93,0,93,0,,,,,,,,,,,,,,,,,,,,,,,,,,,,,,,,,,,,,,,,,,,,,,,,,,,,,,,,,,,121,001,2023-03-03_11h28.10.343,eb_01,2022.2.4,60.003803554113084,
4,stimuli/4.png,l,1,0,1,0,94,0,94,0,0,0,0,0,,,,,,,,,,,,,,,,,,373.27593618884566,373.27593618884566,373.27593618884566,373.27593618884566,l,1,0.39058856607880443,373.69257568896865,373.69257568896865,373.69257568896865,374.6921890186786,374.6921890186786,374.6921890186786,,,,,,,,,,,,,,,,,,,,,,,,,121,001,2023-03-03_11h28.10.343,eb_01,2022.2.4,60.003803554113084,
,,,1,0,1,0,94,0,94,0,,,,,,,,,,,,,,,,,,,,,,,,,,,,,,,,,,,,,,,,,,,,,,,,,,,,,,,,,,,121,001,2023-03-03_11h28.10.343,eb_01,2022.2.4,60.003803554113084,
2,stimuli/2.png,s,1,0,1,0,95,0,95,0,0,0,0,0,,,,,,,,,,,,,,,,,,374.6921890186786,374.6921890186786,374.6921890186786,374.6921890186786,s,1,0.49436592124402523,375.20914183947025,375.20914183947025,375.20914183947025,376.2257499471889,376.2257499471889,376.2257499471889,,,,,,,,,,,,,,,,,,,,,,,,,121,001,2023-03-03_11h28.10.343,eb_01,2022.2.4,60.003803554113084,
,,,1,0,1,0,95,0,95,0,,,,,,,,,,,,,,,,,,,,,,,,,,,,,,,,,,,,,,,,,,,,,,,,,,,,,,,,,,,121,001,2023-03-03_11h28.10.343,eb_01,2022.2.4,60.003803554113084,
4,stimuli/4.png,l,1,0,1,0,96,0,96,0,0,0,0,0,,,,,,,,,,,,,,,,,,376.2257499471889,376.2257499471889,376.2257499471889,376.2257499471889,l,1,0.4728403696208261,376.7257182528847,376.7257182528847,376.7257182528847,377.72566090134205,377.72566090134205,377.72566090134205,,,,,,,,,,,,,,,,,,,,,,,,,121,001,2023-03-03_11h28.10.343,eb_01,2022.2.4,60.003803554113084,
,,,1,0,1,0,96,0,96,0,,,,,,,,,,,,,,,,,,,,,,,,,,,,,,,,,,,,,,,,,,,,,,,,,,,,,,,,,,,121,001,2023-03-03_11h28.10.343,eb_01,2022.2.4,60.003803554113084,
2,stimuli/2.png,s,1,0,1,0,97,0,97,0,0,0,0,0,,,,,,,,,,,,,,,,,,377.72566090134205,377.72566090134205,377.72566090134205,377.72566090134205,s,1,0.4369488546217326,378.19229406261,378.19229406261,378.19229406261,379.1922394277062,379.1922394277062,379.1922394277062,,,,,,,,,,,,,,,,,,,,,,,,,121,001,2023-03-03_11h28.10.343,eb_01,2022.2.4,60.003803554113084,
,,,1,0,1,0,97,0,97,0,,,,,,,,,,,,,,,,,,,,,,,,,,,,,,,,,,,,,,,,,,,,,,,,,,,,,,,,,,,121,001,2023-03-03_11h28.10.343,eb_01,2022.2.4,60.003803554113084,
3,stimuli/3.png,l,1,0,1,0,98,0,98,0,0,0,0,0,,,,,,,,,,,,,,,,,,379.1922394277062,379.1922394277062,379.1922394277062,379.1922394277062,l,1,0.4504228502337355,379.6755413686042,379.6755413686042,379.6755413686042,380.69215973920655,380.69215973920655,380.69215973920655,,,,,,,,,,,,,,,,,,,,,,,,,121,001,2023-03-03_11h28.10.343,eb_01,2022.2.4,60.003803554113084,
,,,1,0,1,0,98,0,98,0,,,,,,,,,,,,,,,,,,,,,,,,,,,,,,,,,,,,,,,,,,,,,,,,,,,,,,,,,,,121,001,2023-03-03_11h28.10.343,eb_01,2022.2.4,60.003803554113084,
4,stimuli/4.png,l,1,0,1,0,99,0,99,0,0,0,0,0,,,,,,,,,,,,,,,,,,380.69215973920655,380.69215973920655,380.69215973920655,380.69215973920655,l,1,0.48654105482273735,381.20878716532025,381.20878716532025,381.20878716532025,382.20871955086477,382.20871955086477,382.20871955086477,,,,,,,,,,,,,,,,,,,,,,,,,121,001,2023-03-03_11h28.10.343,eb_01,2022.2.4,60.003803554113084,
,,,1,0,1,0,99,0,99,0,,,,,,,,,,,,,,,,,,,,,,,,,,,,,,,,,,,,,,,,,,,,,,,,,,,,,,,,,,,121,001,2023-03-03_11h28.10.343,eb_01,2022.2.4,60.003803554113084,
,,,1,0,1,0,,,,,,,,,,,,,,,,,,,,,,,,,,,,,,,,,,,,,,,382.20871955086477,382.20871955086477,return,1.4730359686363954,,,,,,,,,,,,,,,,,,,,,121,001,2023-03-03_11h28.10.343,eb_01,2022.2.4,60.003803554113084,
3,stimuli/3.png,l,2,0,2,0,0,0,0,0,0,0,0,0,,,,,,,,,,,,,,,,,,383.72525612002937,383.72525612002937,383.72525612002937,383.72525612002937,l,1,0.564506885362789,384.3085991125554,384.3085991125554,384.3085991125554,385.32520631470834,385.32520631470834,385.32520631470834,,,,,,,,,,,,,,,,,,,,,,,,,121,001,2023-03-03_11h28.10.343,eb_01,2022.2.4,60.003803554113084,
,,,2,0,2,0,0,0,0,0,,,,,,,,,,,,,,,,,,,,,,,,,,,,,,,,,,,,,,,,,,,,,,,,,,,,,,,,,,,121,001,2023-03-03_11h28.10.343,eb_01,2022.2.4,60.003803554113084,
