index,stimulus,correct_answer,block.thisRepN,block.thisTrialN,block.thisN,block.thisIndex,trial.thisRepN,trial.thisTrialN,trial.thisN,trial.thisIndex,display_row.thisRepN,display_row.thisTrialN,display_row.thisN,display_row.thisIndex,pair_questions.thisRepN,pair_questions.thisTrialN,pair_questions.thisN,pair_questions.thisIndex,welcome_text.started,instructions_0_keypress.started,instructions_0_keypress.keys,instructions_0_keypress.rt,instructions_1_keypress.started,instructions_1_text.started,instructions_1_keypress.keys,instructions_1_keypress.rt,instructions_2_keypress.started,instructions_2_text.started,instructions_2_keypress.keys,instructions_2_keypress.rt,text_countdown.started,image.started,size_question.started,size_resp.started,keypress_options.started,size_resp.keys,size_resp.corr,size_resp.rt,fb_image.started,fb.started,fb_size_question.started,fb_image.stopped,fb.stopped,fb_size_question.stopped,block_break_text.started,block_break_keypress.started,block_break_keypress.keys,block_break_keypress.rt,seq_reveal.started,seq_reveal_adv.started,seq_reveal_adv.keys,seq_reveal_adv.rt,instruction_2afc_text.started,instruction_2afc_keypress.started,instruction_2afc_keypress.keys,instruction_2afc_keypress.rt,dist_2afc_test.started,dist_2afc_resp.started,text.started,stim_00.started,stim_01.started,stim_10.started,stim_11.started,dist_2afc_resp.keys,dist_2afc_resp.rt,graph.started,debrief_text.started,debriefing_title.started,participant,session,date,expName,psychopyVersion,frameRate,
,,,,,,,,,,,,,,,,,,,130.49583494194667,130.49583494194667,return,6.157379304262577,,,,,,,,,,,,,,,,,,,,,,,,,,,,,,,,,,,,,,,,,,,,,,,122,001,2023-03-03_11h47.49.322,eb_01,2022.2.4,99.94838036416039,
,,,,,,,,,,,,,,,,,,,,,,,136.68955745673156,136.68955745673156,return,9.193754476757022,,,,,,,,,,,,,,,,,,,,,,,,,,,,,,,,,,,,,,,,,,,122,001,2023-03-03_11h47.49.322,eb_01,2022.2.4,99.94838036416039,
,,,,,,,,,,,,,,,,,,,,,,,,,,,145.8948214550328,145.8948214550328,space,7.4446434963610955,,,,,,,,,,,,,,,,,,,,,,,,,,,,,,,,,,,,,,,122,001,2023-03-03_11h47.49.322,eb_01,2022.2.4,99.94838036416039,
4,stimuli/4.png,l,0,0,0,0,0,0,0,0,0,0,0,0,,,,,,,,,,,,,,,,,153.37928062834544,158.6625432134024,158.6625432134024,158.6625432134024,158.6625432134024,s,0,3.5400240354065318,162.2846682940435,162.2846682940435,162.2846682940435,,,,,,,,,,,,,,,,,,,,,,,,,,,,122,001,2023-03-03_11h47.49.322,eb_01,2022.2.4,99.94838036416039,
,,,0,0,0,0,0,0,0,0,,,,,,,,,,,,,,,,,,,,,,,,,,,,,,,,,,,,,,,,,,,,,,,,,,,,,,,,,,,122,001,2023-03-03_11h47.49.322,eb_01,2022.2.4,99.94838036416039,
3,stimuli/3.png,l,0,0,0,0,1,0,1,0,0,0,0,0,,,,,,,,,,,,,,,,,,163.3256309617136,163.3256309617136,163.3256309617136,163.3256309617136,l,1,1.5169984196254518,164.8665663120628,164.8665663120628,164.8665663120628,,,,,,,,,,,,,,,,,,,,,,,,,,,,122,001,2023-03-03_11h47.49.322,eb_01,2022.2.4,99.94838036416039,
,,,0,0,0,0,1,0,1,0,,,,,,,,,,,,,,,,,,,,,,,,,,,,,,,,,,,,,,,,,,,,,,,,,,,,,,,,,,,122,001,2023-03-03_11h47.49.322,eb_01,2022.2.4,99.94838036416039,
4,stimuli/4.png,l,0,0,0,0,2,0,2,0,0,0,0,0,,,,,,,,,,,,,,,,,,165.87684214435285,165.87684214435285,165.87684214435285,165.87684214435285,l,1,1.1738216018420644,167.07788750645705,167.07788750645705,167.07788750645705,,,,,,,,,,,,,,,,,,,,,,,,,,,,122,001,2023-03-03_11h47.49.322,eb_01,2022.2.4,99.94838036416039,
,,,0,0,0,0,2,0,2,0,,,,,,,,,,,,,,,,,,,,,,,,,,,,,,,,,,,,,,,,,,,,,,,,,,,,,,,,,,,122,001,2023-03-03_11h47.49.322,eb_01,2022.2.4,99.94838036416039,
1,stimuli/1.png,s,0,0,0,0,3,0,3,0,0,0,0,0,,,,,,,,,,,,,,,,,,168.1382191958255,168.1382191958255,168.1382191958255,168.1382191958255,l,0,1.9445165690267459,170.11974424970686,170.11974424970686,170.11974424970686,,,,,,,,,,,,,,,,,,,,,,,,,,,,122,001,2023-03-03_11h47.49.322,eb_01,2022.2.4,99.94838036416039,
,,,0,0,0,0,3,0,3,0,,,,,,,,,,,,,,,,,,,,,,,,,,,,,,,,,,,,,,,,,,,,,,,,,,,,,,,,,,,122,001,2023-03-03_11h47.49.322,eb_01,2022.2.4,99.94838036416039,
4,stimuli/4.png,l,0,0,0,0,4,0,4,0,0,0,0,0,,,,,,,,,,,,,,,,,,171.12002315782593,171.12002315782593,171.12002315782593,171.12002315782593,l,1,0.8827553246519528,172.03088635733002,172.03088635733002,172.03088635733002,,,,,,,,,,,,,,,,,,,,,,,,,,,,122,001,2023-03-03_11h47.49.322,eb_01,2022.2.4,99.94838036416039,
,,,0,0,0,0,4,0,4,0,,,,,,,,,,,,,,,,,,,,,,,,,,,,,,,,,,,,,,,,,,,,,,,,,,,,,,,,,,,122,001,2023-03-03_11h47.49.322,eb_01,2022.2.4,99.94838036416039,
2,stimuli/2.png,s,0,0,0,0,5,0,5,0,0,0,0,0,,,,,,,,,,,,,,,,,,173.07153691351414,173.07153691351414,173.07153691351414,173.07153691351414,s,1,0.9552551352244336,174.04177916815388,174.04177916815388,174.04177916815388,175.0524012208043,175.0524012208043,175.0524012208043,,,,,,,,,,,,,,,,,,,,,,,,,122,001,2023-03-03_11h47.49.322,eb_01,2022.2.4,99.94838036416039,
,,,0,0,0,0,5,0,5,0,,,,,,,,,,,,,,,,,,,,,,,,,,,,,,,,,,,,,,,,,,,,,,,,,,,,,,,,,,,122,001,2023-03-03_11h47.49.322,eb_01,2022.2.4,99.94838036416039,
4,stimuli/4.png,l,0,0,0,0,6,0,6,0,0,0,0,0,,,,,,,,,,,,,,,,,,175.0524012208043,175.0524012208043,175.0524012208043,175.0524012208043,l,1,0.6704232392366976,175.74314071668778,175.74314071668778,175.74314071668778,,,,,,,,,,,,,,,,,,,,,,,,,,,,122,001,2023-03-03_11h47.49.322,eb_01,2022.2.4,99.94838036416039,
,,,0,0,0,0,6,0,6,0,,,,,,,,,,,,,,,,,,,,,,,,,,,,,,,,,,,,,,,,,,,,,,,,,,,,,,,,,,,122,001,2023-03-03_11h47.49.322,eb_01,2022.2.4,99.94838036416039,
3,stimuli/3.png,l,0,0,0,0,7,0,7,0,0,0,0,0,,,,,,,,,,,,,,,,,,176.75375522312243,176.75375522312243,176.75375522312243,176.75375522312243,l,1,0.7280962460499723,177.49385722982697,177.49385722982697,177.49385722982697,178.54482255678158,178.54482255678158,178.54482255678158,,,,,,,,,,,,,,,,,,,,,,,,,122,001,2023-03-03_11h47.49.322,eb_01,2022.2.4,99.94838036416039,
,,,0,0,0,0,7,0,7,0,,,,,,,,,,,,,,,,,,,,,,,,,,,,,,,,,,,,,,,,,,,,,,,,,,,,,,,,,,,122,001,2023-03-03_11h47.49.322,eb_01,2022.2.4,99.94838036416039,
8,stimuli/8.png,l,0,0,0,0,8,0,8,0,0,0,0,0,,,,,,,,,,,,,,,,,,178.54482255678158,178.54482255678158,178.54482255678158,178.54482255678158,l,1,0.969036939117359,179.53541906698956,179.53541906698956,179.53541906698956,,,,,,,,,,,,,,,,,,,,,,,,,,,,122,001,2023-03-03_11h47.49.322,eb_01,2022.2.4,99.94838036416039,
,,,0,0,0,0,8,0,8,0,,,,,,,,,,,,,,,,,,,,,,,,,,,,,,,,,,,,,,,,,,,,,,,,,,,,,,,,,,,122,001,2023-03-03_11h47.49.322,eb_01,2022.2.4,99.94838036416039,
6,stimuli/6.png,s,0,0,0,0,9,0,9,0,0,0,0,0,,,,,,,,,,,,,,,,,,180.57605241783313,180.57605241783313,180.57605241783313,180.57605241783313,s,1,0.785878220165614,181.3965427467483,181.3965427467483,181.3965427467483,,,,,,,,,,,,,,,,,,,,,,,,,,,,122,001,2023-03-03_11h47.49.322,eb_01,2022.2.4,99.94838036416039,
,,,0,0,0,0,9,0,9,0,,,,,,,,,,,,,,,,,,,,,,,,,,,,,,,,,,,,,,,,,,,,,,,,,,,,,,,,,,,122,001,2023-03-03_11h47.49.322,eb_01,2022.2.4,99.94838036416039,
9,stimuli/9.png,l,0,0,0,0,10,0,10,0,0,0,0,0,,,,,,,,,,,,,,,,,,182.4071644975338,182.4071644975338,182.4071644975338,182.4071644975338,l,1,0.8108118210511748,183.24735557977692,183.24735557977692,183.24735557977692,,,,,,,,,,,,,,,,,,,,,,,,,,,,122,001,2023-03-03_11h47.49.322,eb_01,2022.2.4,99.94838036416039,
,,,0,0,0,0,10,0,10,0,,,,,,,,,,,,,,,,,,,,,,,,,,,,,,,,,,,,,,,,,,,,,,,,,,,,,,,,,,,122,001,2023-03-03_11h47.49.322,eb_01,2022.2.4,99.94838036416039,
6,stimuli/6.png,s,0,0,0,0,11,0,11,0,0,0,0,0,,,,,,,,,,,,,,,,,,184.26828787542763,184.26828787542763,184.26828787542763,184.26828787542763,s,1,0.8217142910289112,185.12880000990117,185.12880000990117,185.12880000990117,,,,,,,,,,,,,,,,,,,,,,,,,,,,122,001,2023-03-03_11h47.49.322,eb_01,2022.2.4,99.94838036416039,
,,,0,0,0,0,11,0,11,0,,,,,,,,,,,,,,,,,,,,,,,,,,,,,,,,,,,,,,,,,,,,,,,,,,,,,,,,,,,122,001,2023-03-03_11h47.49.322,eb_01,2022.2.4,99.94838036416039,
9,stimuli/9.png,l,0,0,0,0,12,0,12,0,0,0,0,0,,,,,,,,,,,,,,,,,,186.1394640195067,186.1394640195067,186.1394640195067,186.1394640195067,l,1,0.702558042423334,186.86985163236386,186.86985163236386,186.86985163236386,,,,,,,,,,,,,,,,,,,,,,,,,,,,122,001,2023-03-03_11h47.49.322,eb_01,2022.2.4,99.94838036416039,
,,,0,0,0,0,12,0,12,0,,,,,,,,,,,,,,,,,,,,,,,,,,,,,,,,,,,,,,,,,,,,,,,,,,,,,,,,,,,122,001,2023-03-03_11h47.49.322,eb_01,2022.2.4,99.94838036416039,
6,stimuli/6.png,s,0,0,0,0,13,0,13,0,0,0,0,0,,,,,,,,,,,,,,,,,,187.89049354963936,187.89049354963936,187.89049354963936,187.89049354963936,s,1,0.44755965578951873,188.3707709122973,188.3707709122973,188.3707709122973,,,,,,,,,,,,,,,,,,,,,,,,,,,,122,001,2023-03-03_11h47.49.322,eb_01,2022.2.4,99.94838036416039,
,,,0,0,0,0,13,0,13,0,,,,,,,,,,,,,,,,,,,,,,,,,,,,,,,,,,,,,,,,,,,,,,,,,,,,,,,,,,,122,001,2023-03-03_11h47.49.322,eb_01,2022.2.4,99.94838036416039,
9,stimuli/9.png,l,0,0,0,0,14,0,14,0,0,0,0,0,,,,,,,,,,,,,,,,,,189.38136187451892,189.38136187451892,189.38136187451892,189.38136187451892,l,1,0.4526995339547284,189.86165040559717,189.86165040559717,189.86165040559717,,,,,,,,,,,,,,,,,,,,,,,,,,,,122,001,2023-03-03_11h47.49.322,eb_01,2022.2.4,99.94838036416039,
,,,0,0,0,0,14,0,14,0,,,,,,,,,,,,,,,,,,,,,,,,,,,,,,,,,,,,,,,,,,,,,,,,,,,,,,,,,,,122,001,2023-03-03_11h47.49.322,eb_01,2022.2.4,99.94838036416039,
5,stimuli/5.png,s,0,0,0,0,15,0,15,0,0,0,0,0,,,,,,,,,,,,,,,,,,190.8923239596188,190.8923239596188,190.8923239596188,190.8923239596188,s,1,1.076869337091921,191.99290202991688,191.99290202991688,191.99290202991688,,,,,,,,,,,,,,,,,,,,,,,,,,,,122,001,2023-03-03_11h47.49.322,eb_01,2022.2.4,99.94838036416039,
,,,0,0,0,0,15,0,15,0,,,,,,,,,,,,,,,,,,,,,,,,,,,,,,,,,,,,,,,,,,,,,,,,,,,,,,,,,,,122,001,2023-03-03_11h47.49.322,eb_01,2022.2.4,99.94838036416039,
9,stimuli/9.png,l,0,0,0,0,16,0,16,0,0,0,0,0,,,,,,,,,,,,,,,,,,193.01363993505947,193.01363993505947,193.01363993505947,193.01363993505947,l,1,0.8435255698277615,193.88378949198523,193.88378949198523,193.88378949198523,,,,,,,,,,,,,,,,,,,,,,,,,,,,122,001,2023-03-03_11h47.49.322,eb_01,2022.2.4,99.94838036416039,
,,,0,0,0,0,16,0,16,0,,,,,,,,,,,,,,,,,,,,,,,,,,,,,,,,,,,,,,,,,,,,,,,,,,,,,,,,,,,122,001,2023-03-03_11h47.49.322,eb_01,2022.2.4,99.94838036416039,
6,stimuli/6.png,s,0,0,0,0,17,0,17,0,0,0,0,0,,,,,,,,,,,,,,,,,,194.90472269320162,194.90472269320162,194.90472269320162,194.90472269320162,s,1,1.536470975377597,196.47566179552814,196.47566179552814,196.47566179552814,,,,,,,,,,,,,,,,,,,,,,,,,,,,122,001,2023-03-03_11h47.49.322,eb_01,2022.2.4,99.94838036416039,
,,,0,0,0,0,17,0,17,0,,,,,,,,,,,,,,,,,,,,,,,,,,,,,,,,,,,,,,,,,,,,,,,,,,,,,,,,,,,122,001,2023-03-03_11h47.49.322,eb_01,2022.2.4,99.94838036416039,
5,stimuli/5.png,s,0,0,0,0,18,0,18,0,0,0,0,0,,,,,,,,,,,,,,,,,,197.47628873510985,197.47628873510985,197.47628873510985,197.47628873510985,s,1,0.8929312450054567,198.39681984376512,198.39681984376512,198.39681984376512,,,,,,,,,,,,,,,,,,,,,,,,,,,,122,001,2023-03-03_11h47.49.322,eb_01,2022.2.4,99.94838036416039,
,,,0,0,0,0,18,0,18,0,,,,,,,,,,,,,,,,,,,,,,,,,,,,,,,,,,,,,,,,,,,,,,,,,,,,,,,,,,,122,001,2023-03-03_11h47.49.322,eb_01,2022.2.4,99.94838036416039,
9,stimuli/9.png,l,0,0,0,0,19,0,19,0,0,0,0,0,,,,,,,,,,,,,,,,,,199.41745300745242,199.41745300745242,199.41745300745242,199.41745300745242,l,1,0.5837842359906062,200.02779995527817,200.02779995527817,200.02779995527817,,,,,,,,,,,,,,,,,,,,,,,,,,,,122,001,2023-03-03_11h47.49.322,eb_01,2022.2.4,99.94838036416039,
,,,0,0,0,0,19,0,19,0,,,,,,,,,,,,,,,,,,,,,,,,,,,,,,,,,,,,,,,,,,,,,,,,,,,,,,,,,,,122,001,2023-03-03_11h47.49.322,eb_01,2022.2.4,99.94838036416039,
5,stimuli/5.png,s,0,0,0,0,20,0,20,0,0,0,0,0,,,,,,,,,,,,,,,,,,201.03843287445488,201.03843287445488,201.03843287445488,201.03843287445488,s,1,0.6668940252857283,201.72881558528752,201.72881558528752,201.72881558528752,,,,,,,,,,,,,,,,,,,,,,,,,,,,122,001,2023-03-03_11h47.49.322,eb_01,2022.2.4,99.94838036416039,
,,,0,0,0,0,20,0,20,0,,,,,,,,,,,,,,,,,,,,,,,,,,,,,,,,,,,,,,,,,,,,,,,,,,,,,,,,,,,122,001,2023-03-03_11h47.49.322,eb_01,2022.2.4,99.94838036416039,
6,stimuli/6.png,s,0,0,0,0,21,0,21,0,0,0,0,0,,,,,,,,,,,,,,,,,,202.7494750097976,202.7494750097976,202.7494750097976,202.7494750097976,s,1,0.5238413276383653,203.3098098685732,203.3098098685732,203.3098098685732,,,,,,,,,,,,,,,,,,,,,,,,,,,,122,001,2023-03-03_11h47.49.322,eb_01,2022.2.4,99.94838036416039,
,,,0,0,0,0,21,0,21,0,,,,,,,,,,,,,,,,,,,,,,,,,,,,,,,,,,,,,,,,,,,,,,,,,,,,,,,,,,,122,001,2023-03-03_11h47.49.322,eb_01,2022.2.4,99.94838036416039,
8,stimuli/8.png,l,0,0,0,0,22,0,22,0,0,0,0,0,,,,,,,,,,,,,,,,,,204.31040964176646,204.31040964176646,204.31040964176646,204.31040964176646,l,1,0.5629147248691879,204.90077270226902,204.90077270226902,204.90077270226902,,,,,,,,,,,,,,,,,,,,,,,,,,,,122,001,2023-03-03_11h47.49.322,eb_01,2022.2.4,99.94838036416039,
,,,0,0,0,0,22,0,22,0,,,,,,,,,,,,,,,,,,,,,,,,,,,,,,,,,,,,,,,,,,,,,,,,,,,,,,,,,,,122,001,2023-03-03_11h47.49.322,eb_01,2022.2.4,99.94838036416039,
6,stimuli/6.png,s,0,0,0,0,23,0,23,0,0,0,0,0,,,,,,,,,,,,,,,,,,205.9214034511533,205.9214034511533,205.9214034511533,205.9214034511533,s,1,0.5120019195601344,206.47172055821284,206.47172055821284,206.47172055821284,,,,,,,,,,,,,,,,,,,,,,,,,,,,122,001,2023-03-03_11h47.49.322,eb_01,2022.2.4,99.94838036416039,
,,,0,0,0,0,23,0,23,0,,,,,,,,,,,,,,,,,,,,,,,,,,,,,,,,,,,,,,,,,,,,,,,,,,,,,,,,,,,122,001,2023-03-03_11h47.49.322,eb_01,2022.2.4,99.94838036416039,
5,stimuli/5.png,s,0,0,0,0,24,0,24,0,0,0,0,0,,,,,,,,,,,,,,,,,,207.47232908502338,207.47232908502338,207.47232908502338,207.47232908502338,s,1,0.6160681523906533,208.1127132900001,208.1127132900001,208.1127132900001,,,,,,,,,,,,,,,,,,,,,,,,,,,,122,001,2023-03-03_11h47.49.322,eb_01,2022.2.4,99.94838036416039,
,,,0,0,0,0,24,0,24,0,,,,,,,,,,,,,,,,,,,,,,,,,,,,,,,,,,,,,,,,,,,,,,,,,,,,,,,,,,,122,001,2023-03-03_11h47.49.322,eb_01,2022.2.4,99.94838036416039,
9,stimuli/9.png,l,0,0,0,0,25,0,25,0,0,0,0,0,,,,,,,,,,,,,,,,,,209.13332562614232,209.13332562614232,209.13332562614232,209.13332562614232,l,1,0.6111139111162629,209.7734091899183,209.7734091899183,209.7734091899183,,,,,,,,,,,,,,,,,,,,,,,,,,,,122,001,2023-03-03_11h47.49.322,eb_01,2022.2.4,99.94838036416039,
,,,0,0,0,0,25,0,25,0,,,,,,,,,,,,,,,,,,,,,,,,,,,,,,,,,,,,,,,,,,,,,,,,,,,,,,,,,,,122,001,2023-03-03_11h47.49.322,eb_01,2022.2.4,99.94838036416039,
5,stimuli/5.png,s,0,0,0,0,26,0,26,0,0,0,0,0,,,,,,,,,,,,,,,,,,210.78433278930606,210.78433278930606,210.78433278930606,210.78433278930606,s,1,0.5121380532800686,211.32470670124167,211.32470670124167,211.32470670124167,,,,,,,,,,,,,,,,,,,,,,,,,,,,122,001,2023-03-03_11h47.49.322,eb_01,2022.2.4,99.94838036416039,
,,,0,0,0,0,26,0,26,0,,,,,,,,,,,,,,,,,,,,,,,,,,,,,,,,,,,,,,,,,,,,,,,,,,,,,,,,,,,122,001,2023-03-03_11h47.49.322,eb_01,2022.2.4,99.94838036416039,
9,stimuli/9.png,l,0,0,0,0,27,0,27,0,0,0,0,0,,,,,,,,,,,,,,,,,,212.3452915691596,212.3452915691596,212.3452915691596,212.3452915691596,l,1,0.31917348032584414,212.68516465389985,212.68516465389985,212.68516465389985,,,,,,,,,,,,,,,,,,,,,,,,,,,,122,001,2023-03-03_11h47.49.322,eb_01,2022.2.4,99.94838036416039,
,,,0,0,0,0,27,0,27,0,,,,,,,,,,,,,,,,,,,,,,,,,,,,,,,,,,,,,,,,,,,,,,,,,,,,,,,,,,,122,001,2023-03-03_11h47.49.322,eb_01,2022.2.4,99.94838036416039,
8,stimuli/8.png,l,0,0,0,0,28,0,28,0,0,0,0,0,,,,,,,,,,,,,,,,,,213.6960737645568,213.6960737645568,213.6960737645568,213.6960737645568,l,1,0.6324051047849935,214.36651575242286,214.36651575242286,214.36651575242286,,,,,,,,,,,,,,,,,,,,,,,,,,,,122,001,2023-03-03_11h47.49.322,eb_01,2022.2.4,99.94838036416039,
,,,0,0,0,0,28,0,28,0,,,,,,,,,,,,,,,,,,,,,,,,,,,,,,,,,,,,,,,,,,,,,,,,,,,,,,,,,,,122,001,2023-03-03_11h47.49.322,eb_01,2022.2.4,99.94838036416039,
6,stimuli/6.png,s,0,0,0,0,29,0,29,0,0,0,0,0,,,,,,,,,,,,,,,,,,215.37710973314825,215.37710973314825,215.37710973314825,215.37710973314825,s,1,0.5274420797359198,215.95749186744797,215.95749186744797,215.95749186744797,,,,,,,,,,,,,,,,,,,,,,,,,,,,122,001,2023-03-03_11h47.49.322,eb_01,2022.2.4,99.94838036416039,
,,,0,0,0,0,29,0,29,0,,,,,,,,,,,,,,,,,,,,,,,,,,,,,,,,,,,,,,,,,,,,,,,,,,,,,,,,,,,122,001,2023-03-03_11h47.49.322,eb_01,2022.2.4,99.94838036416039,
9,stimuli/9.png,l,0,0,0,0,30,0,30,0,0,0,0,0,,,,,,,,,,,,,,,,,,216.96806773723802,216.96806773723802,216.96806773723802,216.96806773723802,l,1,0.5524686499556992,217.54810093456763,217.54810093456763,217.54810093456763,,,,,,,,,,,,,,,,,,,,,,,,,,,,122,001,2023-03-03_11h47.49.322,eb_01,2022.2.4,99.94838036416039,
,,,0,0,0,0,30,0,30,0,,,,,,,,,,,,,,,,,,,,,,,,,,,,,,,,,,,,,,,,,,,,,,,,,,,,,,,,,,,122,001,2023-03-03_11h47.49.322,eb_01,2022.2.4,99.94838036416039,
5,stimuli/5.png,s,0,0,0,0,31,0,31,0,0,0,0,0,,,,,,,,,,,,,,,,,,218.55900853598723,218.55900853598723,218.55900853598723,218.55900853598723,s,1,0.9936258288507815,219.57966735679656,219.57966735679656,219.57966735679656,,,,,,,,,,,,,,,,,,,,,,,,,,,,122,001,2023-03-03_11h47.49.322,eb_01,2022.2.4,99.94838036416039,
,,,0,0,0,0,31,0,31,0,,,,,,,,,,,,,,,,,,,,,,,,,,,,,,,,,,,,,,,,,,,,,,,,,,,,,,,,,,,122,001,2023-03-03_11h47.49.322,eb_01,2022.2.4,99.94838036416039,
9,stimuli/9.png,l,0,0,0,0,32,0,32,0,0,0,0,0,,,,,,,,,,,,,,,,,,220.60029086133,220.60029086133,220.60029086133,220.60029086133,l,1,0.5843384300242178,221.21033113094745,221.21033113094745,221.21033113094745,,,,,,,,,,,,,,,,,,,,,,,,,,,,122,001,2023-03-03_11h47.49.322,eb_01,2022.2.4,99.94838036416039,
,,,0,0,0,0,32,0,32,0,,,,,,,,,,,,,,,,,,,,,,,,,,,,,,,,,,,,,,,,,,,,,,,,,,,,,,,,,,,122,001,2023-03-03_11h47.49.322,eb_01,2022.2.4,99.94838036416039,
8,stimuli/8.png,l,0,0,0,0,33,0,33,0,0,0,0,0,,,,,,,,,,,,,,,,,,222.221264691354,222.221264691354,222.221264691354,222.221264691354,l,1,0.6913932659954298,222.94168526306748,222.94168526306748,222.94168526306748,,,,,,,,,,,,,,,,,,,,,,,,,,,,122,001,2023-03-03_11h47.49.322,eb_01,2022.2.4,99.94838036416039,
,,,0,0,0,0,33,0,33,0,,,,,,,,,,,,,,,,,,,,,,,,,,,,,,,,,,,,,,,,,,,,,,,,,,,,,,,,,,,122,001,2023-03-03_11h47.49.322,eb_01,2022.2.4,99.94838036416039,
9,stimuli/9.png,l,0,0,0,0,34,0,34,0,0,0,0,0,,,,,,,,,,,,,,,,,,223.96231389901368,223.96231389901368,223.96231389901368,223.96231389901368,l,1,0.637406736263074,224.62239795178175,224.62239795178175,224.62239795178175,,,,,,,,,,,,,,,,,,,,,,,,,,,,122,001,2023-03-03_11h47.49.322,eb_01,2022.2.4,99.94838036416039,
,,,0,0,0,0,34,0,34,0,,,,,,,,,,,,,,,,,,,,,,,,,,,,,,,,,,,,,,,,,,,,,,,,,,,,,,,,,,,122,001,2023-03-03_11h47.49.322,eb_01,2022.2.4,99.94838036416039,
8,stimuli/8.png,l,0,0,0,0,35,0,35,0,0,0,0,0,,,,,,,,,,,,,,,,,,225.63332215487026,225.63332215487026,225.63332215487026,225.63332215487026,l,1,0.4143858896859456,226.07357529719593,226.07357529719593,226.07357529719593,,,,,,,,,,,,,,,,,,,,,,,,,,,,122,001,2023-03-03_11h47.49.322,eb_01,2022.2.4,99.94838036416039,
,,,0,0,0,0,35,0,35,0,,,,,,,,,,,,,,,,,,,,,,,,,,,,,,,,,,,,,,,,,,,,,,,,,,,,,,,,,,,122,001,2023-03-03_11h47.49.322,eb_01,2022.2.4,99.94838036416039,
3,stimuli/3.png,l,0,0,0,0,36,0,36,0,0,0,0,0,,,,,,,,,,,,,,,,,,227.084193425806,227.084193425806,227.084193425806,227.084193425806,l,1,0.5635473995353095,227.66421394547797,227.66421394547797,227.66421394547797,228.67516199461534,228.67516199461534,228.67516199461534,,,,,,,,,,,,,,,,,,,,,,,,,122,001,2023-03-03_11h47.49.322,eb_01,2022.2.4,99.94838036416039,
,,,0,0,0,0,36,0,36,0,,,,,,,,,,,,,,,,,,,,,,,,,,,,,,,,,,,,,,,,,,,,,,,,,,,,,,,,,,,122,001,2023-03-03_11h47.49.322,eb_01,2022.2.4,99.94838036416039,
8,stimuli/8.png,l,0,0,0,0,37,0,37,0,0,0,0,0,,,,,,,,,,,,,,,,,,228.67516199461534,228.67516199461534,228.67516199461534,228.67516199461534,l,1,0.436598929023603,229.1354400756536,229.1354400756536,229.1354400756536,,,,,,,,,,,,,,,,,,,,,,,,,,,,122,001,2023-03-03_11h47.49.322,eb_01,2022.2.4,99.94838036416039,
,,,0,0,0,0,37,0,37,0,,,,,,,,,,,,,,,,,,,,,,,,,,,,,,,,,,,,,,,,,,,,,,,,,,,,,,,,,,,122,001,2023-03-03_11h47.49.322,eb_01,2022.2.4,99.94838036416039,
6,stimuli/6.png,s,0,0,0,0,38,0,38,0,0,0,0,0,,,,,,,,,,,,,,,,,,230.15574724285398,230.15574724285398,230.15574724285398,230.15574724285398,s,1,0.6120599046698771,230.80643686128315,230.80643686128315,230.80643686128315,,,,,,,,,,,,,,,,,,,,,,,,,,,,122,001,2023-03-03_11h47.49.322,eb_01,2022.2.4,99.94838036416039,
,,,0,0,0,0,38,0,38,0,,,,,,,,,,,,,,,,,,,,,,,,,,,,,,,,,,,,,,,,,,,,,,,,,,,,,,,,,,,122,001,2023-03-03_11h47.49.322,eb_01,2022.2.4,99.94838036416039,
9,stimuli/9.png,l,0,0,0,0,39,0,39,0,0,0,0,0,,,,,,,,,,,,,,,,,,231.81705287692603,231.81705287692603,231.81705287692603,231.81705287692603,l,1,0.5187696672801394,232.3570808703662,232.3570808703662,232.3570808703662,,,,,,,,,,,,,,,,,,,,,,,,,,,,122,001,2023-03-03_11h47.49.322,eb_01,2022.2.4,99.94838036416039,
,,,0,0,0,0,39,0,39,0,,,,,,,,,,,,,,,,,,,,,,,,,,,,,,,,,,,,,,,,,,,,,,,,,,,,,,,,,,,122,001,2023-03-03_11h47.49.322,eb_01,2022.2.4,99.94838036416039,
8,stimuli/8.png,l,0,0,0,0,40,0,40,0,0,0,0,0,,,,,,,,,,,,,,,,,,233.36799933834118,233.36799933834118,233.36799933834118,233.36799933834118,l,1,0.5198596426052973,233.90837083550286,233.90837083550286,233.90837083550286,,,,,,,,,,,,,,,,,,,,,,,,,,,,122,001,2023-03-03_11h47.49.322,eb_01,2022.2.4,99.94838036416039,
,,,0,0,0,0,40,0,40,0,,,,,,,,,,,,,,,,,,,,,,,,,,,,,,,,,,,,,,,,,,,,,,,,,,,,,,,,,,,122,001,2023-03-03_11h47.49.322,eb_01,2022.2.4,99.94838036416039,
6,stimuli/6.png,s,0,0,0,0,41,0,41,0,0,0,0,0,,,,,,,,,,,,,,,,,,234.9289357814123,234.9289357814123,234.9289357814123,234.9289357814123,s,1,0.4629035262623802,235.42925015673973,235.42925015673973,235.42925015673973,,,,,,,,,,,,,,,,,,,,,,,,,,,,122,001,2023-03-03_11h47.49.322,eb_01,2022.2.4,99.94838036416039,
,,,0,0,0,0,41,0,41,0,,,,,,,,,,,,,,,,,,,,,,,,,,,,,,,,,,,,,,,,,,,,,,,,,,,,,,,,,,,122,001,2023-03-03_11h47.49.322,eb_01,2022.2.4,99.94838036416039,
8,stimuli/8.png,l,0,0,0,0,42,0,42,0,0,0,0,0,,,,,,,,,,,,,,,,,,236.42988917024923,236.42988917024923,236.42988917024923,236.42988917024923,l,1,0.5940048299671616,237.05024964388576,237.05024964388576,237.05024964388576,,,,,,,,,,,,,,,,,,,,,,,,,,,,122,001,2023-03-03_11h47.49.322,eb_01,2022.2.4,99.94838036416039,
,,,0,0,0,0,42,0,42,0,,,,,,,,,,,,,,,,,,,,,,,,,,,,,,,,,,,,,,,,,,,,,,,,,,,,,,,,,,,122,001,2023-03-03_11h47.49.322,eb_01,2022.2.4,99.94838036416039,
6,stimuli/6.png,s,0,0,0,0,43,0,43,0,0,0,0,0,,,,,,,,,,,,,,,,,,238.07084930239944,238.07084930239944,238.07084930239944,238.07084930239944,s,1,0.5921499702672008,238.7012368850701,238.7012368850701,238.7012368850701,,,,,,,,,,,,,,,,,,,,,,,,,,,,122,001,2023-03-03_11h47.49.322,eb_01,2022.2.4,99.94838036416039,
,,,0,0,0,0,43,0,43,0,,,,,,,,,,,,,,,,,,,,,,,,,,,,,,,,,,,,,,,,,,,,,,,,,,,,,,,,,,,122,001,2023-03-03_11h47.49.322,eb_01,2022.2.4,99.94838036416039,
5,stimuli/5.png,s,0,0,0,0,44,0,44,0,0,0,0,0,,,,,,,,,,,,,,,,,,239.70184088413953,239.70184088413953,239.70184088413953,239.70184088413953,s,1,0.5371012352989055,240.26217604475096,240.26217604475096,240.26217604475096,,,,,,,,,,,,,,,,,,,,,,,,,,,,122,001,2023-03-03_11h47.49.322,eb_01,2022.2.4,99.94838036416039,
,,,0,0,0,0,44,0,44,0,,,,,,,,,,,,,,,,,,,,,,,,,,,,,,,,,,,,,,,,,,,,,,,,,,,,,,,,,,,122,001,2023-03-03_11h47.49.322,eb_01,2022.2.4,99.94838036416039,
6,stimuli/6.png,s,0,0,0,0,45,0,45,0,0,0,0,0,,,,,,,,,,,,,,,,,,241.28280920843827,241.28280920843827,241.28280920843827,241.28280920843827,s,1,0.6041620357427746,241.92319824299193,241.92319824299193,241.92319824299193,,,,,,,,,,,,,,,,,,,,,,,,,,,,122,001,2023-03-03_11h47.49.322,eb_01,2022.2.4,99.94838036416039,
,,,0,0,0,0,45,0,45,0,,,,,,,,,,,,,,,,,,,,,,,,,,,,,,,,,,,,,,,,,,,,,,,,,,,,,,,,,,,122,001,2023-03-03_11h47.49.322,eb_01,2022.2.4,99.94838036416039,
5,stimuli/5.png,s,0,0,0,0,46,0,46,0,0,0,0,0,,,,,,,,,,,,,,,,,,242.92381009014207,242.92381009014207,242.92381009014207,242.92381009014207,s,1,0.5231965790153481,243.46378767487477,243.46378767487477,243.46378767487477,244.48480780847603,244.48480780847603,244.48480780847603,,,,,,,,,,,,,,,,,,,,,,,,,122,001,2023-03-03_11h47.49.322,eb_01,2022.2.4,99.94838036416039,
,,,0,0,0,0,46,0,46,0,,,,,,,,,,,,,,,,,,,,,,,,,,,,,,,,,,,,,,,,,,,,,,,,,,,,,,,,,,,122,001,2023-03-03_11h47.49.322,eb_01,2022.2.4,99.94838036416039,
6,stimuli/6.png,s,0,0,0,0,47,0,47,0,0,0,0,0,,,,,,,,,,,,,,,,,,244.48480780847603,244.48480780847603,244.48480780847603,244.48480780847603,s,1,0.3622252422501333,244.88498058661935,244.88498058661935,244.88498058661935,,,,,,,,,,,,,,,,,,,,,,,,,,,,122,001,2023-03-03_11h47.49.322,eb_01,2022.2.4,99.94838036416039,
,,,0,0,0,0,47,0,47,0,,,,,,,,,,,,,,,,,,,,,,,,,,,,,,,,,,,,,,,,,,,,,,,,,,,,,,,,,,,122,001,2023-03-03_11h47.49.322,eb_01,2022.2.4,99.94838036416039,
9,stimuli/9.png,l,0,0,0,0,48,0,48,0,0,0,0,0,,,,,,,,,,,,,,,,,,245.89560475217877,245.89560475217877,245.89560475217877,245.89560475217877,l,1,0.39149520025239326,246.3155202406051,246.3155202406051,246.3155202406051,,,,,,,,,,,,,,,,,,,,,,,,,,,,122,001,2023-03-03_11h47.49.322,eb_01,2022.2.4,99.94838036416039,
,,,0,0,0,0,48,0,48,0,,,,,,,,,,,,,,,,,,,,,,,,,,,,,,,,,,,,,,,,,,,,,,,,,,,,,,,,,,,122,001,2023-03-03_11h47.49.322,eb_01,2022.2.4,99.94838036416039,
8,stimuli/8.png,l,0,0,0,0,49,0,49,0,0,0,0,0,,,,,,,,,,,,,,,,,,247.32643448270392,247.32643448270392,247.32643448270392,247.32643448270392,l,1,0.6006448957195971,247.9568456095585,247.9568456095585,247.9568456095585,,,,,,,,,,,,,,,,,,,,,,,,,,,,122,001,2023-03-03_11h47.49.322,eb_01,2022.2.4,99.94838036416039,
,,,0,0,0,0,49,0,49,0,,,,,,,,,,,,,,,,,,,,,,,,,,,,,,,,,,,,,,,,,,,,,,,,,,,,,,,,,,,122,001,2023-03-03_11h47.49.322,eb_01,2022.2.4,99.94838036416039,
3,stimuli/3.png,l,0,0,0,0,50,0,50,0,0,0,0,0,,,,,,,,,,,,,,,,,,248.96747671766207,248.96747671766207,248.96747671766207,248.96747671766207,l,1,0.4876641678856686,249.4674279691244,249.4674279691244,249.4674279691244,250.47838899775525,250.47838899775525,250.47838899775525,,,,,,,,,,,,,,,,,,,,,,,,,122,001,2023-03-03_11h47.49.322,eb_01,2022.2.4,99.94838036416039,
,,,0,0,0,0,50,0,50,0,,,,,,,,,,,,,,,,,,,,,,,,,,,,,,,,,,,,,,,,,,,,,,,,,,,,,,,,,,,122,001,2023-03-03_11h47.49.322,eb_01,2022.2.4,99.94838036416039,
2,stimuli/2.png,s,0,0,0,0,51,0,51,0,0,0,0,0,,,,,,,,,,,,,,,,,,250.47838899775525,250.47838899775525,250.47838899775525,250.47838899775525,s,1,0.6967655675543938,251.18849027098622,251.18849027098622,251.18849027098622,252.1991017589171,252.1991017589171,252.1991017589171,,,,,,,,,,,,,,,,,,,,,,,,,122,001,2023-03-03_11h47.49.322,eb_01,2022.2.4,99.94838036416039,
,,,0,0,0,0,51,0,51,0,,,,,,,,,,,,,,,,,,,,,,,,,,,,,,,,,,,,,,,,,,,,,,,,,,,,,,,,,,,122,001,2023-03-03_11h47.49.322,eb_01,2022.2.4,99.94838036416039,
4,stimuli/4.png,l,0,0,0,0,52,0,52,0,0,0,0,0,,,,,,,,,,,,,,,,,,252.1991017589171,252.1991017589171,252.1991017589171,252.1991017589171,l,1,0.6791668879741337,252.8997922979761,252.8997922979761,252.8997922979761,,,,,,,,,,,,,,,,,,,,,,,,,,,,122,001,2023-03-03_11h47.49.322,eb_01,2022.2.4,99.94838036416039,
,,,0,0,0,0,52,0,52,0,,,,,,,,,,,,,,,,,,,,,,,,,,,,,,,,,,,,,,,,,,,,,,,,,,,,,,,,,,,122,001,2023-03-03_11h47.49.322,eb_01,2022.2.4,99.94838036416039,
2,stimuli/2.png,s,0,0,0,0,53,0,53,0,0,0,0,0,,,,,,,,,,,,,,,,,,253.91046355193248,253.91046355193248,253.91046355193248,253.91046355193248,s,1,0.5757508370443247,254.50049578634207,254.50049578634207,254.50049578634207,255.5114423262421,255.5114423262421,255.5114423262421,,,,,,,,,,,,,,,,,,,,,,,,,122,001,2023-03-03_11h47.49.322,eb_01,2022.2.4,99.94838036416039,
,,,0,0,0,0,53,0,53,0,,,,,,,,,,,,,,,,,,,,,,,,,,,,,,,,,,,,,,,,,,,,,,,,,,,,,,,,,,,122,001,2023-03-03_11h47.49.322,eb_01,2022.2.4,99.94838036416039,
3,stimuli/3.png,l,0,0,0,0,54,0,54,0,0,0,0,0,,,,,,,,,,,,,,,,,,255.5114423262421,255.5114423262421,255.5114423262421,255.5114423262421,l,1,0.598779169464251,256.1214644849533,256.1214644849533,256.1214644849533,257.1324128359265,257.1324128359265,257.1324128359265,,,,,,,,,,,,,,,,,,,,,,,,,122,001,2023-03-03_11h47.49.322,eb_01,2022.2.4,99.94838036416039,
,,,0,0,0,0,54,0,54,0,,,,,,,,,,,,,,,,,,,,,,,,,,,,,,,,,,,,,,,,,,,,,,,,,,,,,,,,,,,122,001,2023-03-03_11h47.49.322,eb_01,2022.2.4,99.94838036416039,
8,stimuli/8.png,l,0,0,0,0,55,0,55,0,0,0,0,0,,,,,,,,,,,,,,,,,,257.1324128359265,257.1324128359265,257.1324128359265,257.1324128359265,l,1,0.6498622173676267,257.80281679087784,257.80281679087784,257.80281679087784,,,,,,,,,,,,,,,,,,,,,,,,,,,,122,001,2023-03-03_11h47.49.322,eb_01,2022.2.4,99.94838036416039,
,,,0,0,0,0,55,0,55,0,,,,,,,,,,,,,,,,,,,,,,,,,,,,,,,,,,,,,,,,,,,,,,,,,,,,,,,,,,,122,001,2023-03-03_11h47.49.322,eb_01,2022.2.4,99.94838036416039,
9,stimuli/9.png,l,0,0,0,0,56,0,56,0,0,0,0,0,,,,,,,,,,,,,,,,,,258.8234194678662,258.8234194678662,258.8234194678662,258.8234194678662,l,1,0.6468582199886441,259.4935200649488,259.4935200649488,259.4935200649488,,,,,,,,,,,,,,,,,,,,,,,,,,,,122,001,2023-03-03_11h47.49.322,eb_01,2022.2.4,99.94838036416039,
,,,0,0,0,0,56,0,56,0,,,,,,,,,,,,,,,,,,,,,,,,,,,,,,,,,,,,,,,,,,,,,,,,,,,,,,,,,,,122,001,2023-03-03_11h47.49.322,eb_01,2022.2.4,99.94838036416039,
5,stimuli/5.png,s,0,0,0,0,57,0,57,0,0,0,0,0,,,,,,,,,,,,,,,,,,260.50446328450926,260.50446328450926,260.50446328450926,260.50446328450926,s,1,0.6138380948395934,261.1448290767148,261.1448290767148,261.1448290767148,,,,,,,,,,,,,,,,,,,,,,,,,,,,122,001,2023-03-03_11h47.49.322,eb_01,2022.2.4,99.94838036416039,
,,,0,0,0,0,57,0,57,0,,,,,,,,,,,,,,,,,,,,,,,,,,,,,,,,,,,,,,,,,,,,,,,,,,,,,,,,,,,122,001,2023-03-03_11h47.49.322,eb_01,2022.2.4,99.94838036416039,
6,stimuli/6.png,s,0,0,0,0,58,0,58,0,0,0,0,0,,,,,,,,,,,,,,,,,,262.1654628441029,262.1654628441029,262.1654628441029,262.1654628441029,s,1,0.4408743127423804,262.6457577139663,262.6457577139663,262.6457577139663,,,,,,,,,,,,,,,,,,,,,,,,,,,,122,001,2023-03-03_11h47.49.322,eb_01,2022.2.4,99.94838036416039,
,,,0,0,0,0,58,0,58,0,,,,,,,,,,,,,,,,,,,,,,,,,,,,,,,,,,,,,,,,,,,,,,,,,,,,,,,,,,,122,001,2023-03-03_11h47.49.322,eb_01,2022.2.4,99.94838036416039,
9,stimuli/9.png,l,0,0,0,0,59,0,59,0,0,0,0,0,,,,,,,,,,,,,,,,,,263.6563652778859,263.6563652778859,263.6563652778859,263.6563652778859,l,1,0.5980046259355731,264.2763997550355,264.2763997550355,264.2763997550355,,,,,,,,,,,,,,,,,,,,,,,,,,,,122,001,2023-03-03_11h47.49.322,eb_01,2022.2.4,99.94838036416039,
,,,0,0,0,0,59,0,59,0,,,,,,,,,,,,,,,,,,,,,,,,,,,,,,,,,,,,,,,,,,,,,,,,,,,,,,,,,,,122,001,2023-03-03_11h47.49.322,eb_01,2022.2.4,99.94838036416039,
8,stimuli/8.png,l,0,0,0,0,60,0,60,0,0,0,0,0,,,,,,,,,,,,,,,,,,265.28737497053226,265.28737497053226,265.28737497053226,265.28737497053226,l,1,0.551024304353632,265.86770729982527,265.86770729982527,265.86770729982527,,,,,,,,,,,,,,,,,,,,,,,,,,,,122,001,2023-03-03_11h47.49.322,eb_01,2022.2.4,99.94838036416039,
,,,0,0,0,0,60,0,60,0,,,,,,,,,,,,,,,,,,,,,,,,,,,,,,,,,,,,,,,,,,,,,,,,,,,,,,,,,,,122,001,2023-03-03_11h47.49.322,eb_01,2022.2.4,99.94838036416039,
6,stimuli/6.png,s,0,0,0,0,61,0,61,0,0,0,0,0,,,,,,,,,,,,,,,,,,266.8883341246983,266.8883341246983,266.8883341246983,266.8883341246983,s,1,0.670099355687853,267.58876929982216,267.58876929982216,267.58876929982216,,,,,,,,,,,,,,,,,,,,,,,,,,,,122,001,2023-03-03_11h47.49.322,eb_01,2022.2.4,99.94838036416039,
,,,0,0,0,0,61,0,61,0,,,,,,,,,,,,,,,,,,,,,,,,,,,,,,,,,,,,,,,,,,,,,,,,,,,,,,,,,,,122,001,2023-03-03_11h47.49.322,eb_01,2022.2.4,99.94838036416039,
9,stimuli/9.png,l,0,0,0,0,62,0,62,0,0,0,0,0,,,,,,,,,,,,,,,,,,268.59936237501097,268.59936237501097,268.59936237501097,268.59936237501097,l,1,0.6070944950333796,269.22943694065907,269.22943694065907,269.22943694065907,,,,,,,,,,,,,,,,,,,,,,,,,,,,122,001,2023-03-03_11h47.49.322,eb_01,2022.2.4,99.94838036416039,
,,,0,0,0,0,62,0,62,0,,,,,,,,,,,,,,,,,,,,,,,,,,,,,,,,,,,,,,,,,,,,,,,,,,,,,,,,,,,122,001,2023-03-03_11h47.49.322,eb_01,2022.2.4,99.94838036416039,
8,stimuli/8.png,l,0,0,0,0,63,0,63,0,0,0,0,0,,,,,,,,,,,,,,,,,,270.2403481642541,270.2403481642541,270.2403481642541,270.2403481642541,l,1,0.541138158616377,270.81070590618765,270.81070590618765,270.81070590618765,,,,,,,,,,,,,,,,,,,,,,,,,,,,122,001,2023-03-03_11h47.49.322,eb_01,2022.2.4,99.94838036416039,
,,,0,0,0,0,63,0,63,0,,,,,,,,,,,,,,,,,,,,,,,,,,,,,,,,,,,,,,,,,,,,,,,,,,,,,,,,,,,122,001,2023-03-03_11h47.49.322,eb_01,2022.2.4,99.94838036416039,
6,stimuli/6.png,s,0,0,0,0,64,0,64,0,0,0,0,0,,,,,,,,,,,,,,,,,,271.83133001442184,271.83133001442184,271.83133001442184,271.83133001442184,s,1,0.630191648931941,272.49172225460643,272.49172225460643,272.49172225460643,,,,,,,,,,,,,,,,,,,,,,,,,,,,122,001,2023-03-03_11h47.49.322,eb_01,2022.2.4,99.94838036416039,
,,,0,0,0,0,64,0,64,0,,,,,,,,,,,,,,,,,,,,,,,,,,,,,,,,,,,,,,,,,,,,,,,,,,,,,,,,,,,122,001,2023-03-03_11h47.49.322,eb_01,2022.2.4,99.94838036416039,
5,stimuli/5.png,s,0,0,0,0,65,0,65,0,0,0,0,0,,,,,,,,,,,,,,,,,,273.4923380257678,273.4923380257678,273.4923380257678,273.4923380257678,s,1,0.7372108667041175,274.2527873455547,274.2527873455547,274.2527873455547,,,,,,,,,,,,,,,,,,,,,,,,,,,,122,001,2023-03-03_11h47.49.322,eb_01,2022.2.4,99.94838036416039,
,,,0,0,0,0,65,0,65,0,,,,,,,,,,,,,,,,,,,,,,,,,,,,,,,,,,,,,,,,,,,,,,,,,,,,,,,,,,,122,001,2023-03-03_11h47.49.322,eb_01,2022.2.4,99.94838036416039,
6,stimuli/6.png,s,0,0,0,0,66,0,66,0,0,0,0,0,,,,,,,,,,,,,,,,,,275.2734153778001,275.2734153778001,275.2734153778001,275.2734153778001,s,1,0.5401589617249556,275.84375742360135,275.84375742360135,275.84375742360135,,,,,,,,,,,,,,,,,,,,,,,,,,,,122,001,2023-03-03_11h47.49.322,eb_01,2022.2.4,99.94838036416039,
,,,0,0,0,0,66,0,66,0,,,,,,,,,,,,,,,,,,,,,,,,,,,,,,,,,,,,,,,,,,,,,,,,,,,,,,,,,,,122,001,2023-03-03_11h47.49.322,eb_01,2022.2.4,99.94838036416039,
8,stimuli/8.png,l,0,0,0,0,67,0,67,0,0,0,0,0,,,,,,,,,,,,,,,,,,276.8443647430104,276.8443647430104,276.8443647430104,276.8443647430104,l,1,0.8412411795579828,277.71484452229924,277.71484452229924,277.71484452229924,,,,,,,,,,,,,,,,,,,,,,,,,,,,122,001,2023-03-03_11h47.49.322,eb_01,2022.2.4,99.94838036416039,
,,,0,0,0,0,67,0,67,0,,,,,,,,,,,,,,,,,,,,,,,,,,,,,,,,,,,,,,,,,,,,,,,,,,,,,,,,,,,122,001,2023-03-03_11h47.49.322,eb_01,2022.2.4,99.94838036416039,
3,stimuli/3.png,l,0,0,0,0,68,0,68,0,0,0,0,0,,,,,,,,,,,,,,,,,,278.7255100411421,278.7255100411421,278.7255100411421,278.7255100411421,l,1,0.4961114012694452,279.2354862886714,279.2354862886714,279.2354862886714,280.2464536561456,280.2464536561456,280.2464536561456,,,,,,,,,,,,,,,,,,,,,,,,,122,001,2023-03-03_11h47.49.322,eb_01,2022.2.4,99.94838036416039,
,,,0,0,0,0,68,0,68,0,,,,,,,,,,,,,,,,,,,,,,,,,,,,,,,,,,,,,,,,,,,,,,,,,,,,,,,,,,,122,001,2023-03-03_11h47.49.322,eb_01,2022.2.4,99.94838036416039,
8,stimuli/8.png,l,0,0,0,0,69,0,69,0,0,0,0,0,,,,,,,,,,,,,,,,,,280.2464536561456,280.2464536561456,280.2464536561456,280.2464536561456,l,1,0.8472029914846644,281.11694550939137,281.11694550939137,281.11694550939137,,,,,,,,,,,,,,,,,,,,,,,,,,,,122,001,2023-03-03_11h47.49.322,eb_01,2022.2.4,99.94838036416039,
,,,0,0,0,0,69,0,69,0,,,,,,,,,,,,,,,,,,,,,,,,,,,,,,,,,,,,,,,,,,,,,,,,,,,,,,,,,,,122,001,2023-03-03_11h47.49.322,eb_01,2022.2.4,99.94838036416039,
6,stimuli/6.png,s,0,0,0,0,70,0,70,0,0,0,0,0,,,,,,,,,,,,,,,,,,282.137559052906,282.137559052906,282.137559052906,282.137559052906,s,1,0.6601298997411504,282.8279912669095,282.8279912669095,282.8279912669095,,,,,,,,,,,,,,,,,,,,,,,,,,,,122,001,2023-03-03_11h47.49.322,eb_01,2022.2.4,99.94838036416039,
,,,0,0,0,0,70,0,70,0,,,,,,,,,,,,,,,,,,,,,,,,,,,,,,,,,,,,,,,,,,,,,,,,,,,,,,,,,,,122,001,2023-03-03_11h47.49.322,eb_01,2022.2.4,99.94838036416039,
8,stimuli/8.png,l,0,0,0,0,71,0,71,0,0,0,0,0,,,,,,,,,,,,,,,,,,283.8285979826178,283.8285979826178,283.8285979826178,283.8285979826178,l,1,0.6331274285330437,284.48899535424425,284.48899535424425,284.48899535424425,,,,,,,,,,,,,,,,,,,,,,,,,,,,122,001,2023-03-03_11h47.49.322,eb_01,2022.2.4,99.94838036416039,
,,,0,0,0,0,71,0,71,0,,,,,,,,,,,,,,,,,,,,,,,,,,,,,,,,,,,,,,,,,,,,,,,,,,,,,,,,,,,122,001,2023-03-03_11h47.49.322,eb_01,2022.2.4,99.94838036416039,
9,stimuli/9.png,l,0,0,0,0,72,0,72,0,0,0,0,0,,,,,,,,,,,,,,,,,,285.509627612395,285.509627612395,285.509627612395,285.509627612395,l,1,0.7351311297970824,286.26975395414047,286.26975395414047,286.26975395414047,,,,,,,,,,,,,,,,,,,,,,,,,,,,122,001,2023-03-03_11h47.49.322,eb_01,2022.2.4,99.94838036416039,
,,,0,0,0,0,72,0,72,0,,,,,,,,,,,,,,,,,,,,,,,,,,,,,,,,,,,,,,,,,,,,,,,,,,,,,,,,,,,122,001,2023-03-03_11h47.49.322,eb_01,2022.2.4,99.94838036416039,
5,stimuli/5.png,s,0,0,0,0,73,0,73,0,0,0,0,0,,,,,,,,,,,,,,,,,,287.28069445706205,287.28069445706205,287.28069445706205,287.28069445706205,s,1,0.5560811741452198,287.86106089525856,287.86106089525856,287.86106089525856,,,,,,,,,,,,,,,,,,,,,,,,,,,,122,001,2023-03-03_11h47.49.322,eb_01,2022.2.4,99.94838036416039,
,,,0,0,0,0,73,0,73,0,,,,,,,,,,,,,,,,,,,,,,,,,,,,,,,,,,,,,,,,,,,,,,,,,,,,,,,,,,,122,001,2023-03-03_11h47.49.322,eb_01,2022.2.4,99.94838036416039,
9,stimuli/9.png,l,0,0,0,0,74,0,74,0,0,0,0,0,,,,,,,,,,,,,,,,,,288.88167745724786,288.88167745724786,288.88167745724786,288.88167745724786,l,1,0.563119076367002,289.47170395654393,289.47170395654393,289.47170395654393,,,,,,,,,,,,,,,,,,,,,,,,,,,,122,001,2023-03-03_11h47.49.322,eb_01,2022.2.4,99.94838036416039,
,,,0,0,0,0,74,0,74,0,,,,,,,,,,,,,,,,,,,,,,,,,,,,,,,,,,,,,,,,,,,,,,,,,,,,,,,,,,,122,001,2023-03-03_11h47.49.322,eb_01,2022.2.4,99.94838036416039,
5,stimuli/5.png,s,0,0,0,0,75,0,75,0,0,0,0,0,,,,,,,,,,,,,,,,,,290.4826417428267,290.4826417428267,290.4826417428267,290.4826417428267,s,1,0.6422311826318037,291.15303634045995,291.15303634045995,291.15303634045995,,,,,,,,,,,,,,,,,,,,,,,,,,,,122,001,2023-03-03_11h47.49.322,eb_01,2022.2.4,99.94838036416039,
,,,0,0,0,0,75,0,75,0,,,,,,,,,,,,,,,,,,,,,,,,,,,,,,,,,,,,,,,,,,,,,,,,,,,,,,,,,,,122,001,2023-03-03_11h47.49.322,eb_01,2022.2.4,99.94838036416039,
6,stimuli/6.png,s,0,0,0,0,76,0,76,0,0,0,0,0,,,,,,,,,,,,,,,,,,292.17336041116505,292.17336041116505,292.17336041116505,292.17336041116505,s,1,0.41551148318103515,292.6238918005547,292.6238918005547,292.6238918005547,,,,,,,,,,,,,,,,,,,,,,,,,,,,122,001,2023-03-03_11h47.49.322,eb_01,2022.2.4,99.94838036416039,
,,,0,0,0,0,76,0,76,0,,,,,,,,,,,,,,,,,,,,,,,,,,,,,,,,,,,,,,,,,,,,,,,,,,,,,,,,,,,122,001,2023-03-03_11h47.49.322,eb_01,2022.2.4,99.94838036416039,
5,stimuli/5.png,s,0,0,0,0,77,0,77,0,0,0,0,0,,,,,,,,,,,,,,,,,,293.62453685104265,293.62453685104265,293.62453685104265,293.62453685104265,s,1,0.4363592612207867,294.08483394855284,294.08483394855284,294.08483394855284,,,,,,,,,,,,,,,,,,,,,,,,,,,,122,001,2023-03-03_11h47.49.322,eb_01,2022.2.4,99.94838036416039,
,,,0,0,0,0,77,0,77,0,,,,,,,,,,,,,,,,,,,,,,,,,,,,,,,,,,,,,,,,,,,,,,,,,,,,,,,,,,,122,001,2023-03-03_11h47.49.322,eb_01,2022.2.4,99.94838036416039,
9,stimuli/9.png,l,0,0,0,0,78,0,78,0,0,0,0,0,,,,,,,,,,,,,,,,,,295.1054423606547,295.1054423606547,295.1054423606547,295.1054423606547,l,1,0.5554663085204083,295.68546589880134,295.68546589880134,295.68546589880134,,,,,,,,,,,,,,,,,,,,,,,,,,,,122,001,2023-03-03_11h47.49.322,eb_01,2022.2.4,99.94838036416039,
,,,0,0,0,0,78,0,78,0,,,,,,,,,,,,,,,,,,,,,,,,,,,,,,,,,,,,,,,,,,,,,,,,,,,,,,,,,,,122,001,2023-03-03_11h47.49.322,eb_01,2022.2.4,99.94838036416039,
6,stimuli/6.png,s,0,0,0,0,79,0,79,0,0,0,0,0,,,,,,,,,,,,,,,,,,296.7064232479024,296.7064232479024,296.7064232479024,296.7064232479024,s,1,0.8985501569113694,297.636992633983,297.636992633983,297.636992633983,,,,,,,,,,,,,,,,,,,,,,,,,,,,122,001,2023-03-03_11h47.49.322,eb_01,2022.2.4,99.94838036416039,
,,,0,0,0,0,79,0,79,0,,,,,,,,,,,,,,,,,,,,,,,,,,,,,,,,,,,,,,,,,,,,,,,,,,,,,,,,,,,122,001,2023-03-03_11h47.49.322,eb_01,2022.2.4,99.94838036416039,
9,stimuli/9.png,l,0,0,0,0,80,0,80,0,0,0,0,0,,,,,,,,,,,,,,,,,,298.6475917461503,298.6475917461503,298.6475917461503,298.6475917461503,l,1,0.5574120246747043,299.2276186046365,299.2276186046365,299.2276186046365,,,,,,,,,,,,,,,,,,,,,,,,,,,,122,001,2023-03-03_11h47.49.322,eb_01,2022.2.4,99.94838036416039,
,,,0,0,0,0,80,0,80,0,,,,,,,,,,,,,,,,,,,,,,,,,,,,,,,,,,,,,,,,,,,,,,,,,,,,,,,,,,,122,001,2023-03-03_11h47.49.322,eb_01,2022.2.4,99.94838036416039,
8,stimuli/8.png,l,0,0,0,0,81,0,81,0,0,0,0,0,,,,,,,,,,,,,,,,,,300.23855095764156,300.23855095764156,300.23855095764156,300.23855095764156,l,1,0.6384644138161093,300.89894863110385,300.89894863110385,300.89894863110385,,,,,,,,,,,,,,,,,,,,,,,,,,,,122,001,2023-03-03_11h47.49.322,eb_01,2022.2.4,99.94838036416039,
,,,0,0,0,0,81,0,81,0,,,,,,,,,,,,,,,,,,,,,,,,,,,,,,,,,,,,,,,,,,,,,,,,,,,,,,,,,,,122,001,2023-03-03_11h47.49.322,eb_01,2022.2.4,99.94838036416039,
9,stimuli/9.png,l,0,0,0,0,82,0,82,0,0,0,0,0,,,,,,,,,,,,,,,,,,301.9195968872227,301.9195968872227,301.9195968872227,301.9195968872227,l,1,0.57241812653956,302.5195991812798,302.5195991812798,302.5195991812798,,,,,,,,,,,,,,,,,,,,,,,,,,,,122,001,2023-03-03_11h47.49.322,eb_01,2022.2.4,99.94838036416039,
,,,0,0,0,0,82,0,82,0,,,,,,,,,,,,,,,,,,,,,,,,,,,,,,,,,,,,,,,,,,,,,,,,,,,,,,,,,,,122,001,2023-03-03_11h47.49.322,eb_01,2022.2.4,99.94838036416039,
5,stimuli/5.png,s,0,0,0,0,83,0,83,0,0,0,0,0,,,,,,,,,,,,,,,,,,303.5305532673665,303.5305532673665,303.5305532673665,303.5305532673665,s,1,0.48951299060718156,304.0408530966379,304.0408530966379,304.0408530966379,,,,,,,,,,,,,,,,,,,,,,,,,,,,122,001,2023-03-03_11h47.49.322,eb_01,2022.2.4,99.94838036416039,
,,,0,0,0,0,83,0,83,0,,,,,,,,,,,,,,,,,,,,,,,,,,,,,,,,,,,,,,,,,,,,,,,,,,,,,,,,,,,122,001,2023-03-03_11h47.49.322,eb_01,2022.2.4,99.94838036416039,
6,stimuli/6.png,s,0,0,0,0,84,0,84,0,0,0,0,0,,,,,,,,,,,,,,,,,,305.0614898825006,305.0614898825006,305.0614898825006,305.0614898825006,s,1,0.5666181054839399,305.66185499858693,305.66185499858693,305.66185499858693,,,,,,,,,,,,,,,,,,,,,,,,,,,,122,001,2023-03-03_11h47.49.322,eb_01,2022.2.4,99.94838036416039,
,,,0,0,0,0,84,0,84,0,,,,,,,,,,,,,,,,,,,,,,,,,,,,,,,,,,,,,,,,,,,,,,,,,,,,,,,,,,,122,001,2023-03-03_11h47.49.322,eb_01,2022.2.4,99.94838036416039,
8,stimuli/8.png,l,0,0,0,0,85,0,85,0,0,0,0,0,,,,,,,,,,,,,,,,,,306.6624439052248,306.6624439052248,306.6624439052248,306.6624439052248,l,1,0.5176968972955365,307.2027725398657,307.2027725398657,307.2027725398657,,,,,,,,,,,,,,,,,,,,,,,,,,,,122,001,2023-03-03_11h47.49.322,eb_01,2022.2.4,99.94838036416039,
,,,0,0,0,0,85,0,85,0,,,,,,,,,,,,,,,,,,,,,,,,,,,,,,,,,,,,,,,,,,,,,,,,,,,,,,,,,,,122,001,2023-03-03_11h47.49.322,eb_01,2022.2.4,99.94838036416039,
6,stimuli/6.png,s,0,0,0,0,86,0,86,0,0,0,0,0,,,,,,,,,,,,,,,,,,308.2233912148222,308.2233912148222,308.2233912148222,308.2233912148222,s,1,0.5408248397579882,308.8037664066069,308.8037664066069,308.8037664066069,,,,,,,,,,,,,,,,,,,,,,,,,,,,122,001,2023-03-03_11h47.49.322,eb_01,2022.2.4,99.94838036416039,
,,,0,0,0,0,86,0,86,0,,,,,,,,,,,,,,,,,,,,,,,,,,,,,,,,,,,,,,,,,,,,,,,,,,,,,,,,,,,122,001,2023-03-03_11h47.49.322,eb_01,2022.2.4,99.94838036416039,
5,stimuli/5.png,s,0,0,0,0,87,0,87,0,0,0,0,0,,,,,,,,,,,,,,,,,,309.8043305616593,309.8043305616593,309.8043305616593,309.8043305616593,s,1,1.1678543566376902,310.9950608511863,310.9950608511863,310.9950608511863,,,,,,,,,,,,,,,,,,,,,,,,,,,,122,001,2023-03-03_11h47.49.322,eb_01,2022.2.4,99.94838036416039,
,,,0,0,0,0,87,0,87,0,,,,,,,,,,,,,,,,,,,,,,,,,,,,,,,,,,,,,,,,,,,,,,,,,,,,,,,,,,,122,001,2023-03-03_11h47.49.322,eb_01,2022.2.4,99.94838036416039,
6,stimuli/6.png,s,0,0,0,0,88,0,88,0,0,0,0,0,,,,,,,,,,,,,,,,,,312.0156852612563,312.0156852612563,312.0156852612563,312.0156852612563,s,1,0.5804925769043621,312.62609318247996,312.62609318247996,312.62609318247996,,,,,,,,,,,,,,,,,,,,,,,,,,,,122,001,2023-03-03_11h47.49.322,eb_01,2022.2.4,99.94838036416039,
,,,0,0,0,0,88,0,88,0,,,,,,,,,,,,,,,,,,,,,,,,,,,,,,,,,,,,,,,,,,,,,,,,,,,,,,,,,,,122,001,2023-03-03_11h47.49.322,eb_01,2022.2.4,99.94838036416039,
8,stimuli/8.png,l,0,0,0,0,89,0,89,0,0,0,0,0,,,,,,,,,,,,,,,,,,313.6266368118231,313.6266368118231,313.6266368118231,313.6266368118231,l,1,0.5856101182289422,314.23704322380945,314.23704322380945,314.23704322380945,,,,,,,,,,,,,,,,,,,,,,,,,,,,122,001,2023-03-03_11h47.49.322,eb_01,2022.2.4,99.94838036416039,
,,,0,0,0,0,89,0,89,0,,,,,,,,,,,,,,,,,,,,,,,,,,,,,,,,,,,,,,,,,,,,,,,,,,,,,,,,,,,122,001,2023-03-03_11h47.49.322,eb_01,2022.2.4,99.94838036416039,
6,stimuli/6.png,s,0,0,0,0,90,0,90,0,0,0,0,0,,,,,,,,,,,,,,,,,,315.2576999317098,315.2576999317098,315.2576999317098,315.2576999317098,s,1,0.330589394812705,315.6278994445747,315.6278994445747,315.6278994445747,,,,,,,,,,,,,,,,,,,,,,,,,,,,122,001,2023-03-03_11h47.49.322,eb_01,2022.2.4,99.94838036416039,
,,,0,0,0,0,90,0,90,0,,,,,,,,,,,,,,,,,,,,,,,,,,,,,,,,,,,,,,,,,,,,,,,,,,,,,,,,,,,122,001,2023-03-03_11h47.49.322,eb_01,2022.2.4,99.94838036416039,
5,stimuli/5.png,s,0,0,0,0,91,0,91,0,0,0,0,0,,,,,,,,,,,,,,,,,,316.6285082732211,316.6285082732211,316.6285082732211,316.6285082732211,s,1,0.42278241252643056,317.07880572995055,317.07880572995055,317.07880572995055,,,,,,,,,,,,,,,,,,,,,,,,,,,,122,001,2023-03-03_11h47.49.322,eb_01,2022.2.4,99.94838036416039,
,,,0,0,0,0,91,0,91,0,,,,,,,,,,,,,,,,,,,,,,,,,,,,,,,,,,,,,,,,,,,,,,,,,,,,,,,,,,,122,001,2023-03-03_11h47.49.322,eb_01,2022.2.4,99.94838036416039,
9,stimuli/9.png,l,0,0,0,0,92,0,92,0,0,0,0,0,,,,,,,,,,,,,,,,,,318.09940931244637,318.09940931244637,318.09940931244637,318.09940931244637,l,1,0.5759156463900581,318.699466542952,318.699466542952,318.699466542952,,,,,,,,,,,,,,,,,,,,,,,,,,,,122,001,2023-03-03_11h47.49.322,eb_01,2022.2.4,99.94838036416039,
,,,0,0,0,0,92,0,92,0,,,,,,,,,,,,,,,,,,,,,,,,,,,,,,,,,,,,,,,,,,,,,,,,,,,,,,,,,,,122,001,2023-03-03_11h47.49.322,eb_01,2022.2.4,99.94838036416039,
6,stimuli/6.png,s,0,0,0,0,93,0,93,0,0,0,0,0,,,,,,,,,,,,,,,,,,319.7203988386027,319.7203988386027,319.7203988386027,319.7203988386027,s,1,0.49898922588909045,320.2506940254243,320.2506940254243,320.2506940254243,,,,,,,,,,,,,,,,,,,,,,,,,,,,122,001,2023-03-03_11h47.49.322,eb_01,2022.2.4,99.94838036416039,
,,,0,0,0,0,93,0,93,0,,,,,,,,,,,,,,,,,,,,,,,,,,,,,,,,,,,,,,,,,,,,,,,,,,,,,,,,,,,122,001,2023-03-03_11h47.49.322,eb_01,2022.2.4,99.94838036416039,
8,stimuli/8.png,l,0,0,0,0,94,0,94,0,0,0,0,0,,,,,,,,,,,,,,,,,,321.2513019485341,321.2513019485341,321.2513019485341,321.2513019485341,l,1,0.4720703667262569,321.7515985147911,321.7515985147911,321.7515985147911,,,,,,,,,,,,,,,,,,,,,,,,,,,,122,001,2023-03-03_11h47.49.322,eb_01,2022.2.4,99.94838036416039,
,,,0,0,0,0,94,0,94,0,,,,,,,,,,,,,,,,,,,,,,,,,,,,,,,,,,,,,,,,,,,,,,,,,,,,,,,,,,,122,001,2023-03-03_11h47.49.322,eb_01,2022.2.4,99.94838036416039,
9,stimuli/9.png,l,0,0,0,0,95,0,95,0,0,0,0,0,,,,,,,,,,,,,,,,,,322.77222745260224,322.77222745260224,322.77222745260224,322.77222745260224,l,1,0.5911840547050815,323.39227430554456,323.39227430554456,323.39227430554456,,,,,,,,,,,,,,,,,,,,,,,,,,,,122,001,2023-03-03_11h47.49.322,eb_01,2022.2.4,99.94838036416039,
,,,0,0,0,0,95,0,95,0,,,,,,,,,,,,,,,,,,,,,,,,,,,,,,,,,,,,,,,,,,,,,,,,,,,,,,,,,,,122,001,2023-03-03_11h47.49.322,eb_01,2022.2.4,99.94838036416039,
8,stimuli/8.png,l,0,0,0,0,96,0,96,0,0,0,0,0,,,,,,,,,,,,,,,,,,324.40320937518845,324.40320937518845,324.40320937518845,324.40320937518845,l,1,0.48823134138365276,324.9135252023989,324.9135252023989,324.9135252023989,,,,,,,,,,,,,,,,,,,,,,,,,,,,122,001,2023-03-03_11h47.49.322,eb_01,2022.2.4,99.94838036416039,
,,,0,0,0,0,96,0,96,0,,,,,,,,,,,,,,,,,,,,,,,,,,,,,,,,,,,,,,,,,,,,,,,,,,,,,,,,,,,122,001,2023-03-03_11h47.49.322,eb_01,2022.2.4,99.94838036416039,
9,stimuli/9.png,l,0,0,0,0,97,0,97,0,0,0,0,0,,,,,,,,,,,,,,,,,,325.9341429718188,325.9341429718188,325.9341429718188,325.9341429718188,l,1,0.4053491459635552,326.36408526741434,326.36408526741434,326.36408526741434,,,,,,,,,,,,,,,,,,,,,,,,,,,,122,001,2023-03-03_11h47.49.322,eb_01,2022.2.4,99.94838036416039,
,,,0,0,0,0,97,0,97,0,,,,,,,,,,,,,,,,,,,,,,,,,,,,,,,,,,,,,,,,,,,,,,,,,,,,,,,,,,,122,001,2023-03-03_11h47.49.322,eb_01,2022.2.4,99.94838036416039,
6,stimuli/6.png,s,0,0,0,0,98,0,98,0,0,0,0,0,,,,,,,,,,,,,,,,,,327.3850323536608,327.3850323536608,327.3850323536608,327.3850323536608,s,1,0.4104434449982364,327.83529570145765,327.83529570145765,327.83529570145765,,,,,,,,,,,,,,,,,,,,,,,,,,,,122,001,2023-03-03_11h47.49.322,eb_01,2022.2.4,99.94838036416039,
,,,0,0,0,0,98,0,98,0,,,,,,,,,,,,,,,,,,,,,,,,,,,,,,,,,,,,,,,,,,,,,,,,,,,,,,,,,,,122,001,2023-03-03_11h47.49.322,eb_01,2022.2.4,99.94838036416039,
5,stimuli/5.png,s,0,0,0,0,99,0,99,0,0,0,0,0,,,,,,,,,,,,,,,,,,328.83594346858445,328.83594346858445,328.83594346858445,328.83594346858445,s,1,0.4236037425871473,329.2861778389488,329.2861778389488,329.2861778389488,,,,,,,,,,,,,,,,,,,,,,,,,,,,122,001,2023-03-03_11h47.49.322,eb_01,2022.2.4,99.94838036416039,
,,,0,0,0,0,99,0,99,0,,,,,,,,,,,,,,,,,,,,,,,,,,,,,,,,,,,,,,,,,,,,,,,,,,,,,,,,,,,122,001,2023-03-03_11h47.49.322,eb_01,2022.2.4,99.94838036416039,
,,,0,0,0,0,,,,,,,,,,,,,,,,,,,,,,,,,,,,,,,,,,,,,,,330.28676584005007,330.28676584005007,return,28.01123114913935,,,,,,,,,,,,,,,,,,,,,122,001,2023-03-03_11h47.49.322,eb_01,2022.2.4,99.94838036416039,
9,stimuli/9.png,l,1,0,1,0,0,0,0,0,0,0,0,0,,,,,,,,,,,,,,,,,,358.3337893259886,358.3337893259886,358.3337893259886,358.3337893259886,l,1,2.668287056614645,361.0251032397791,361.0251032397791,361.0251032397791,,,,,,,,,,,,,,,,,,,,,,,,,,,,122,001,2023-03-03_11h47.49.322,eb_01,2022.2.4,99.94838036416039,
,,,1,0,1,0,0,0,0,0,,,,,,,,,,,,,,,,,,,,,,,,,,,,,,,,,,,,,,,,,,,,,,,,,,,,,,,,,,,122,001,2023-03-03_11h47.49.322,eb_01,2022.2.4,99.94838036416039,
6,stimuli/6.png,s,1,0,1,0,1,0,1,0,0,0,0,0,,,,,,,,,,,,,,,,,,362.0460805108887,362.0460805108887,362.0460805108887,362.0460805108887,s,1,1.0670951771899126,363.14673766549095,363.14673766549095,363.14673766549095,,,,,,,,,,,,,,,,,,,,,,,,,,,,122,001,2023-03-03_11h47.49.322,eb_01,2022.2.4,99.94838036416039,
,,,1,0,1,0,1,0,1,0,,,,,,,,,,,,,,,,,,,,,,,,,,,,,,,,,,,,,,,,,,,,,,,,,,,,,,,,,,,122,001,2023-03-03_11h47.49.322,eb_01,2022.2.4,99.94838036416039,
5,stimuli/5.png,s,1,0,1,0,2,0,2,0,0,0,0,0,,,,,,,,,,,,,,,,,,364.1473386460857,364.1473386460857,364.1473386460857,364.1473386460857,s,1,1.2378195444471203,365.4081258853548,365.4081258853548,365.4081258853548,,,,,,,,,,,,,,,,,,,,,,,,,,,,122,001,2023-03-03_11h47.49.322,eb_01,2022.2.4,99.94838036416039,
,,,1,0,1,0,2,0,2,0,,,,,,,,,,,,,,,,,,,,,,,,,,,,,,,,,,,,,,,,,,,,,,,,,,,,,,,,,,,122,001,2023-03-03_11h47.49.322,eb_01,2022.2.4,99.94838036416039,
9,stimuli/9.png,l,1,0,1,0,3,0,3,0,0,0,0,0,,,,,,,,,,,,,,,,,,366.4287276568066,366.4287276568066,366.4287276568066,366.4287276568066,l,1,0.5004791506798938,366.9590315972164,366.9590315972164,366.9590315972164,,,,,,,,,,,,,,,,,,,,,,,,,,,,122,001,2023-03-03_11h47.49.322,eb_01,2022.2.4,99.94838036416039,
,,,1,0,1,0,3,0,3,0,,,,,,,,,,,,,,,,,,,,,,,,,,,,,,,,,,,,,,,,,,,,,,,,,,,,,,,,,,,122,001,2023-03-03_11h47.49.322,eb_01,2022.2.4,99.94838036416039,
8,stimuli/8.png,l,1,0,1,0,4,0,4,0,0,0,0,0,,,,,,,,,,,,,,,,,,367.9696448962495,367.9696448962495,367.9696448962495,367.9696448962495,l,1,0.3916268062312156,368.3899087179743,368.3899087179743,368.3899087179743,,,,,,,,,,,,,,,,,,,,,,,,,,,,122,001,2023-03-03_11h47.49.322,eb_01,2022.2.4,99.94838036416039,
,,,1,0,1,0,4,0,4,0,,,,,,,,,,,,,,,,,,,,,,,,,,,,,,,,,,,,,,,,,,,,,,,,,,,,,,,,,,,122,001,2023-03-03_11h47.49.322,eb_01,2022.2.4,99.94838036416039,
9,stimuli/9.png,l,1,0,1,0,5,0,5,0,0,0,0,0,,,,,,,,,,,,,,,,,,369.4105352409824,369.4105352409824,369.4105352409824,369.4105352409824,l,1,0.3666781129722949,369.800785651576,369.800785651576,369.800785651576,,,,,,,,,,,,,,,,,,,,,,,,,,,,122,001,2023-03-03_11h47.49.322,eb_01,2022.2.4,99.94838036416039,
,,,1,0,1,0,5,0,5,0,,,,,,,,,,,,,,,,,,,,,,,,,,,,,,,,,,,,,,,,,,,,,,,,,,,,,,,,,,,122,001,2023-03-03_11h47.49.322,eb_01,2022.2.4,99.94838036416039,
6,stimuli/6.png,s,1,0,1,0,6,0,6,0,0,0,0,0,,,,,,,,,,,,,,,,,,370.8213831971225,370.8213831971225,370.8213831971225,370.8213831971225,s,1,0.4838539328193292,371.3417044002563,371.3417044002563,371.3417044002563,,,,,,,,,,,,,,,,,,,,,,,,,,,,122,001,2023-03-03_11h47.49.322,eb_01,2022.2.4,99.94838036416039,
,,,1,0,1,0,6,0,6,0,,,,,,,,,,,,,,,,,,,,,,,,,,,,,,,,,,,,,,,,,,,,,,,,,,,,,,,,,,,122,001,2023-03-03_11h47.49.322,eb_01,2022.2.4,99.94838036416039,
9,stimuli/9.png,l,1,0,1,0,7,0,7,0,0,0,0,0,,,,,,,,,,,,,,,,,,372.3523195103917,372.3523195103917,372.3523195103917,372.3523195103917,l,1,0.4889280080096796,372.8622951542202,372.8622951542202,372.8622951542202,,,,,,,,,,,,,,,,,,,,,,,,,,,,122,001,2023-03-03_11h47.49.322,eb_01,2022.2.4,99.94838036416039,
,,,1,0,1,0,7,0,7,0,,,,,,,,,,,,,,,,,,,,,,,,,,,,,,,,,,,,,,,,,,,,,,,,,,,,,,,,,,,122,001,2023-03-03_11h47.49.322,eb_01,2022.2.4,99.94838036416039,
5,stimuli/5.png,s,1,0,1,0,8,0,8,0,0,0,0,0,,,,,,,,,,,,,,,,,,373.87323082756484,373.87323082756484,373.87323082756484,373.87323082756484,s,1,0.4720344467496034,374.3735156217299,374.3735156217299,374.3735156217299,,,,,,,,,,,,,,,,,,,,,,,,,,,,122,001,2023-03-03_11h47.49.322,eb_01,2022.2.4,99.94838036416039,
,,,1,0,1,0,8,0,8,0,,,,,,,,,,,,,,,,,,,,,,,,,,,,,,,,,,,,,,,,,,,,,,,,,,,,,,,,,,,122,001,2023-03-03_11h47.49.322,eb_01,2022.2.4,99.94838036416039,
6,stimuli/6.png,s,1,0,1,0,9,0,9,0,0,0,0,0,,,,,,,,,,,,,,,,,,375.39415935010766,375.39415935010766,375.39415935010766,375.39415935010766,s,1,0.423197454365436,375.8544392422482,375.8544392422482,375.8544392422482,,,,,,,,,,,,,,,,,,,,,,,,,,,,122,001,2023-03-03_11h47.49.322,eb_01,2022.2.4,99.94838036416039,
,,,1,0,1,0,9,0,9,0,,,,,,,,,,,,,,,,,,,,,,,,,,,,,,,,,,,,,,,,,,,,,,,,,,,,,,,,,,,122,001,2023-03-03_11h47.49.322,eb_01,2022.2.4,99.94838036416039,
9,stimuli/9.png,l,1,0,1,0,10,0,10,0,0,0,0,0,,,,,,,,,,,,,,,,,,376.865055559756,376.865055559756,376.865055559756,376.865055559756,s,0,0.3603169553389307,377.2553225720476,377.2553225720476,377.2553225720476,,,,,,,,,,,,,,,,,,,,,,,,,,,,122,001,2023-03-03_11h47.49.322,eb_01,2022.2.4,99.94838036416039,
,,,1,0,1,0,10,0,10,0,,,,,,,,,,,,,,,,,,,,,,,,,,,,,,,,,,,,,,,,,,,,,,,,,,,,,,,,,,,122,001,2023-03-03_11h47.49.322,eb_01,2022.2.4,99.94838036416039,
6,stimuli/6.png,s,1,0,1,0,11,0,11,0,0,0,0,0,,,,,,,,,,,,,,,,,,378.26588184016873,378.26588184016873,378.26588184016873,378.26588184016873,s,1,0.5025108936824836,378.8062397541362,378.8062397541362,378.8062397541362,,,,,,,,,,,,,,,,,,,,,,,,,,,,122,001,2023-03-03_11h47.49.322,eb_01,2022.2.4,99.94838036416039,
,,,1,0,1,0,11,0,11,0,,,,,,,,,,,,,,,,,,,,,,,,,,,,,,,,,,,,,,,,,,,,,,,,,,,,,,,,,,,122,001,2023-03-03_11h47.49.322,eb_01,2022.2.4,99.94838036416039,
9,stimuli/9.png,l,1,0,1,0,12,0,12,0,0,0,0,0,,,,,,,,,,,,,,,,,,379.8168406773766,379.8168406773766,379.8168406773766,379.8168406773766,l,1,0.41553895140532404,380.25676359731006,380.25676359731006,380.25676359731006,,,,,,,,,,,,,,,,,,,,,,,,,,,,122,001,2023-03-03_11h47.49.322,eb_01,2022.2.4,99.94838036416039,
,,,1,0,1,0,12,0,12,0,,,,,,,,,,,,,,,,,,,,,,,,,,,,,,,,,,,,,,,,,,,,,,,,,,,,,,,,,,,122,001,2023-03-03_11h47.49.322,eb_01,2022.2.4,99.94838036416039,
6,stimuli/6.png,s,1,0,1,0,13,0,13,0,0,0,0,0,,,,,,,,,,,,,,,,,,381.2777339258755,381.2777339258755,381.2777339258755,381.2777339258755,s,1,0.6746928878710605,381.98815696974634,381.98815696974634,381.98815696974634,,,,,,,,,,,,,,,,,,,,,,,,,,,,122,001,2023-03-03_11h47.49.322,eb_01,2022.2.4,99.94838036416039,
,,,1,0,1,0,13,0,13,0,,,,,,,,,,,,,,,,,,,,,,,,,,,,,,,,,,,,,,,,,,,,,,,,,,,,,,,,,,,122,001,2023-03-03_11h47.49.322,eb_01,2022.2.4,99.94838036416039,
9,stimuli/9.png,l,1,0,1,0,14,0,14,0,0,0,0,0,,,,,,,,,,,,,,,,,,382.998776003893,382.998776003893,382.998776003893,382.998776003893,l,1,0.5456797728256788,383.5687956753536,383.5687956753536,383.5687956753536,,,,,,,,,,,,,,,,,,,,,,,,,,,,122,001,2023-03-03_11h47.49.322,eb_01,2022.2.4,99.94838036416039,
,,,1,0,1,0,14,0,14,0,,,,,,,,,,,,,,,,,,,,,,,,,,,,,,,,,,,,,,,,,,,,,,,,,,,,,,,,,,,122,001,2023-03-03_11h47.49.322,eb_01,2022.2.4,99.94838036416039,
5,stimuli/5.png,s,1,0,1,0,15,0,15,0,0,0,0,0,,,,,,,,,,,,,,,,,,384.57972229324514,384.57972229324514,384.57972229324514,384.57972229324514,s,1,0.5007637939124834,385.1100654740003,385.1100654740003,385.1100654740003,,,,,,,,,,,,,,,,,,,,,,,,,,,,122,001,2023-03-03_11h47.49.322,eb_01,2022.2.4,99.94838036416039,
,,,1,0,1,0,15,0,15,0,,,,,,,,,,,,,,,,,,,,,,,,,,,,,,,,,,,,,,,,,,,,,,,,,,,,,,,,,,,122,001,2023-03-03_11h47.49.322,eb_01,2022.2.4,99.94838036416039,
6,stimuli/6.png,s,1,0,1,0,16,0,16,0,0,0,0,0,,,,,,,,,,,,,,,,,,386.13066633985727,386.13066633985727,386.13066633985727,386.13066633985727,s,1,0.5818478771543596,386.7509924027836,386.7509924027836,386.7509924027836,,,,,,,,,,,,,,,,,,,,,,,,,,,,122,001,2023-03-03_11h47.49.322,eb_01,2022.2.4,99.94838036416039,
,,,1,0,1,0,16,0,16,0,,,,,,,,,,,,,,,,,,,,,,,,,,,,,,,,,,,,,,,,,,,,,,,,,,,,,,,,,,,122,001,2023-03-03_11h47.49.322,eb_01,2022.2.4,99.94838036416039,
5,stimuli/5.png,s,1,0,1,0,17,0,17,0,0,0,0,0,,,,,,,,,,,,,,,,,,387.75164952719933,387.75164952719933,387.75164952719933,387.75164952719933,l,0,0.5768866933940444,388.35202098209993,388.35202098209993,388.35202098209993,,,,,,,,,,,,,,,,,,,,,,,,,,,,122,001,2023-03-03_11h47.49.322,eb_01,2022.2.4,99.94838036416039,
,,,1,0,1,0,17,0,17,0,,,,,,,,,,,,,,,,,,,,,,,,,,,,,,,,,,,,,,,,,,,,,,,,,,,,,,,,,,,122,001,2023-03-03_11h47.49.322,eb_01,2022.2.4,99.94838036416039,
6,stimuli/6.png,s,1,0,1,0,18,0,18,0,0,0,0,0,,,,,,,,,,,,,,,,,,389.37231305686873,389.37231305686873,389.37231305686873,389.37231305686873,s,1,0.9242350589775015,390.33318834539386,390.33318834539386,390.33318834539386,,,,,,,,,,,,,,,,,,,,,,,,,,,,122,001,2023-03-03_11h47.49.322,eb_01,2022.2.4,99.94838036416039,
,,,1,0,1,0,18,0,18,0,,,,,,,,,,,,,,,,,,,,,,,,,,,,,,,,,,,,,,,,,,,,,,,,,,,,,,,,,,,122,001,2023-03-03_11h47.49.322,eb_01,2022.2.4,99.94838036416039,
8,stimuli/8.png,l,1,0,1,0,19,0,19,0,0,0,0,0,,,,,,,,,,,,,,,,,,391.3338475827477,391.3338475827477,391.3338475827477,391.3338475827477,l,1,0.4027514368062839,391.7640820678207,391.7640820678207,391.7640820678207,,,,,,,,,,,,,,,,,,,,,,,,,,,,122,001,2023-03-03_11h47.49.322,eb_01,2022.2.4,99.94838036416039,
,,,1,0,1,0,19,0,19,0,,,,,,,,,,,,,,,,,,,,,,,,,,,,,,,,,,,,,,,,,,,,,,,,,,,,,,,,,,,122,001,2023-03-03_11h47.49.322,eb_01,2022.2.4,99.94838036416039,
6,stimuli/6.png,s,1,0,1,0,20,0,20,0,0,0,0,0,,,,,,,,,,,,,,,,,,392.7846953094995,392.7846953094995,392.7846953094995,392.7846953094995,s,1,0.5439239194674883,393.36505420145113,393.36505420145113,393.36505420145113,,,,,,,,,,,,,,,,,,,,,,,,,,,,122,001,2023-03-03_11h47.49.322,eb_01,2022.2.4,99.94838036416039,
,,,1,0,1,0,20,0,20,0,,,,,,,,,,,,,,,,,,,,,,,,,,,,,,,,,,,,,,,,,,,,,,,,,,,,,,,,,,,122,001,2023-03-03_11h47.49.322,eb_01,2022.2.4,99.94838036416039,
5,stimuli/5.png,s,1,0,1,0,21,0,21,0,0,0,0,0,,,,,,,,,,,,,,,,,,394.36567600959097,394.36567600959097,394.36567600959097,394.36567600959097,s,1,0.5379874628270045,394.9260120757681,394.9260120757681,394.9260120757681,,,,,,,,,,,,,,,,,,,,,,,,,,,,122,001,2023-03-03_11h47.49.322,eb_01,2022.2.4,99.94838036416039,
,,,1,0,1,0,21,0,21,0,,,,,,,,,,,,,,,,,,,,,,,,,,,,,,,,,,,,,,,,,,,,,,,,,,,,,,,,,,,122,001,2023-03-03_11h47.49.322,eb_01,2022.2.4,99.94838036416039,
6,stimuli/6.png,s,1,0,1,0,22,0,22,0,0,0,0,0,,,,,,,,,,,,,,,,,,395.9466385987762,395.9466385987762,395.9466385987762,395.9466385987762,s,1,0.3729737694375217,396.35688527248567,396.35688527248567,396.35688527248567,,,,,,,,,,,,,,,,,,,,,,,,,,,,122,001,2023-03-03_11h47.49.322,eb_01,2022.2.4,99.94838036416039,
,,,1,0,1,0,22,0,22,0,,,,,,,,,,,,,,,,,,,,,,,,,,,,,,,,,,,,,,,,,,,,,,,,,,,,,,,,,,,122,001,2023-03-03_11h47.49.322,eb_01,2022.2.4,99.94838036416039,
8,stimuli/8.png,l,1,0,1,0,23,0,23,0,0,0,0,0,,,,,,,,,,,,,,,,,,397.35750194918364,397.35750194918364,397.35750194918364,397.35750194918364,l,1,0.4582493225170765,397.837778406305,397.837778406305,397.837778406305,,,,,,,,,,,,,,,,,,,,,,,,,,,,122,001,2023-03-03_11h47.49.322,eb_01,2022.2.4,99.94838036416039,
,,,1,0,1,0,23,0,23,0,,,,,,,,,,,,,,,,,,,,,,,,,,,,,,,,,,,,,,,,,,,,,,,,,,,,,,,,,,,122,001,2023-03-03_11h47.49.322,eb_01,2022.2.4,99.94838036416039,
9,stimuli/9.png,l,1,0,1,0,24,0,24,0,0,0,0,0,,,,,,,,,,,,,,,,,,398.8583916479838,398.8583916479838,398.8583916479838,398.8583916479838,l,1,0.8053498704102822,399.6885698080878,399.6885698080878,399.6885698080878,,,,,,,,,,,,,,,,,,,,,,,,,,,,122,001,2023-03-03_11h47.49.322,eb_01,2022.2.4,99.94838036416039,
,,,1,0,1,0,24,0,24,0,,,,,,,,,,,,,,,,,,,,,,,,,,,,,,,,,,,,,,,,,,,,,,,,,,,,,,,,,,,122,001,2023-03-03_11h47.49.322,eb_01,2022.2.4,99.94838036416039,
6,stimuli/6.png,s,1,0,1,0,25,0,25,0,0,0,0,0,,,,,,,,,,,,,,,,,,400.70951055549085,400.70951055549085,400.70951055549085,400.70951055549085,s,1,0.5782516527979169,401.31987018094514,401.31987018094514,401.31987018094514,,,,,,,,,,,,,,,,,,,,,,,,,,,,122,001,2023-03-03_11h47.49.322,eb_01,2022.2.4,99.94838036416039,
,,,1,0,1,0,25,0,25,0,,,,,,,,,,,,,,,,,,,,,,,,,,,,,,,,,,,,,,,,,,,,,,,,,,,,,,,,,,,122,001,2023-03-03_11h47.49.322,eb_01,2022.2.4,99.94838036416039,
5,stimuli/5.png,s,1,0,1,0,26,0,26,0,0,0,0,0,,,,,,,,,,,,,,,,,,402.320480216993,402.320480216993,402.320480216993,402.320480216993,s,1,0.6313332403660752,402.9809249788523,402.9809249788523,402.9809249788523,,,,,,,,,,,,,,,,,,,,,,,,,,,,122,001,2023-03-03_11h47.49.322,eb_01,2022.2.4,99.94838036416039,
,,,1,0,1,0,26,0,26,0,,,,,,,,,,,,,,,,,,,,,,,,,,,,,,,,,,,,,,,,,,,,,,,,,,,,,,,,,,,122,001,2023-03-03_11h47.49.322,eb_01,2022.2.4,99.94838036416039,
9,stimuli/9.png,l,1,0,1,0,27,0,27,0,0,0,0,0,,,,,,,,,,,,,,,,,,404.001528863213,404.001528863213,404.001528863213,404.001528863213,l,1,0.678305713867303,404.701621742046,404.701621742046,404.701621742046,,,,,,,,,,,,,,,,,,,,,,,,,,,,122,001,2023-03-03_11h47.49.322,eb_01,2022.2.4,99.94838036416039,
,,,1,0,1,0,27,0,27,0,,,,,,,,,,,,,,,,,,,,,,,,,,,,,,,,,,,,,,,,,,,,,,,,,,,,,,,,,,,122,001,2023-03-03_11h47.49.322,eb_01,2022.2.4,99.94838036416039,
6,stimuli/6.png,s,1,0,1,0,28,0,28,0,0,0,0,0,,,,,,,,,,,,,,,,,,405.7225567543355,405.7225567543355,405.7225567543355,405.7225567543355,s,1,0.5013146676355973,406.2629034999118,406.2629034999118,406.2629034999118,,,,,,,,,,,,,,,,,,,,,,,,,,,,122,001,2023-03-03_11h47.49.322,eb_01,2022.2.4,99.94838036416039,
,,,1,0,1,0,28,0,28,0,,,,,,,,,,,,,,,,,,,,,,,,,,,,,,,,,,,,,,,,,,,,,,,,,,,,,,,,,,,122,001,2023-03-03_11h47.49.322,eb_01,2022.2.4,99.94838036416039,
9,stimuli/9.png,l,1,0,1,0,29,0,29,0,0,0,0,0,,,,,,,,,,,,,,,,,,407.27346005139407,407.27346005139407,407.27346005139407,407.27346005139407,l,1,0.606437672424363,407.90356661300757,407.90356661300757,407.90356661300757,,,,,,,,,,,,,,,,,,,,,,,,,,,,122,001,2023-03-03_11h47.49.322,eb_01,2022.2.4,99.94838036416039,
,,,1,0,1,0,29,0,29,0,,,,,,,,,,,,,,,,,,,,,,,,,,,,,,,,,,,,,,,,,,,,,,,,,,,,,,,,,,,122,001,2023-03-03_11h47.49.322,eb_01,2022.2.4,99.94838036416039,
5,stimuli/5.png,s,1,0,1,0,30,0,30,0,0,0,0,0,,,,,,,,,,,,,,,,,,408.91451586954645,408.91451586954645,408.91451586954645,408.91451586954645,s,1,0.6204844994354062,409.55490067822393,409.55490067822393,409.55490067822393,,,,,,,,,,,,,,,,,,,,,,,,,,,,122,001,2023-03-03_11h47.49.322,eb_01,2022.2.4,99.94838036416039,
,,,1,0,1,0,30,0,30,0,,,,,,,,,,,,,,,,,,,,,,,,,,,,,,,,,,,,,,,,,,,,,,,,,,,,,,,,,,,122,001,2023-03-03_11h47.49.322,eb_01,2022.2.4,99.94838036416039,
6,stimuli/6.png,s,1,0,1,0,31,0,31,0,0,0,0,0,,,,,,,,,,,,,,,,,,410.57550063857343,410.57550063857343,410.57550063857343,410.57550063857343,s,1,0.7194715256628115,411.3259762765083,411.3259762765083,411.3259762765083,,,,,,,,,,,,,,,,,,,,,,,,,,,,122,001,2023-03-03_11h47.49.322,eb_01,2022.2.4,99.94838036416039,
,,,1,0,1,0,31,0,31,0,,,,,,,,,,,,,,,,,,,,,,,,,,,,,,,,,,,,,,,,,,,,,,,,,,,,,,,,,,,122,001,2023-03-03_11h47.49.322,eb_01,2022.2.4,99.94838036416039,
8,stimuli/8.png,l,1,0,1,0,32,0,32,0,0,0,0,0,,,,,,,,,,,,,,,,,,412.3265920476697,412.3265920476697,412.3265920476697,412.3265920476697,l,1,0.5363861559308134,412.88690004192176,412.88690004192176,412.88690004192176,,,,,,,,,,,,,,,,,,,,,,,,,,,,122,001,2023-03-03_11h47.49.322,eb_01,2022.2.4,99.94838036416039,
,,,1,0,1,0,32,0,32,0,,,,,,,,,,,,,,,,,,,,,,,,,,,,,,,,,,,,,,,,,,,,,,,,,,,,,,,,,,,122,001,2023-03-03_11h47.49.322,eb_01,2022.2.4,99.94838036416039,
6,stimuli/6.png,s,1,0,1,0,33,0,33,0,0,0,0,0,,,,,,,,,,,,,,,,,,413.9072223015537,413.9072223015537,413.9072223015537,413.9072223015537,s,1,0.6597900181950536,414.5979467050056,414.5979467050056,414.5979467050056,,,,,,,,,,,,,,,,,,,,,,,,,,,,122,001,2023-03-03_11h47.49.322,eb_01,2022.2.4,99.94838036416039,
,,,1,0,1,0,33,0,33,0,,,,,,,,,,,,,,,,,,,,,,,,,,,,,,,,,,,,,,,,,,,,,,,,,,,,,,,,,,,122,001,2023-03-03_11h47.49.322,eb_01,2022.2.4,99.94838036416039,
8,stimuli/8.png,l,1,0,1,0,34,0,34,0,0,0,0,0,,,,,,,,,,,,,,,,,,415.59856519280584,415.59856519280584,415.59856519280584,415.59856519280584,l,1,0.5205110319075175,416.1488801869273,416.1488801869273,416.1488801869273,,,,,,,,,,,,,,,,,,,,,,,,,,,,122,001,2023-03-03_11h47.49.322,eb_01,2022.2.4,99.94838036416039,
,,,1,0,1,0,34,0,34,0,,,,,,,,,,,,,,,,,,,,,,,,,,,,,,,,,,,,,,,,,,,,,,,,,,,,,,,,,,,122,001,2023-03-03_11h47.49.322,eb_01,2022.2.4,99.94838036416039,
3,stimuli/3.png,l,1,0,1,0,35,0,35,0,0,0,0,0,,,,,,,,,,,,,,,,,,417.1595146153704,417.1595146153704,417.1595146153704,417.1595146153704,l,1,0.6555381786602084,417.8295681240561,417.8295681240561,417.8295681240561,418.8405526969,418.8405526969,418.8405526969,,,,,,,,,,,,,,,,,,,,,,,,,122,001,2023-03-03_11h47.49.322,eb_01,2022.2.4,99.94838036416039,
,,,1,0,1,0,35,0,35,0,,,,,,,,,,,,,,,,,,,,,,,,,,,,,,,,,,,,,,,,,,,,,,,,,,,,,,,,,,,122,001,2023-03-03_11h47.49.322,eb_01,2022.2.4,99.94838036416039,
8,stimuli/8.png,l,1,0,1,0,36,0,36,0,0,0,0,0,,,,,,,,,,,,,,,,,,418.8405526969,418.8405526969,418.8405526969,418.8405526969,l,1,0.5665230231534224,419.4308448229567,419.4308448229567,419.4308448229567,,,,,,,,,,,,,,,,,,,,,,,,,,,,122,001,2023-03-03_11h47.49.322,eb_01,2022.2.4,99.94838036416039,
,,,1,0,1,0,36,0,36,0,,,,,,,,,,,,,,,,,,,,,,,,,,,,,,,,,,,,,,,,,,,,,,,,,,,,,,,,,,,122,001,2023-03-03_11h47.49.322,eb_01,2022.2.4,99.94838036416039,
3,stimuli/3.png,l,1,0,1,0,37,0,37,0,0,0,0,0,,,,,,,,,,,,,,,,,,420.44147562919534,420.44147562919534,420.44147562919534,420.44147562919534,l,1,0.47763072000816464,420.9314719134418,420.9314719134418,420.9314719134418,421.9420649886015,421.9420649886015,421.9420649886015,,,,,,,,,,,,,,,,,,,,,,,,,122,001,2023-03-03_11h47.49.322,eb_01,2022.2.4,99.94838036416039,
,,,1,0,1,0,37,0,37,0,,,,,,,,,,,,,,,,,,,,,,,,,,,,,,,,,,,,,,,,,,,,,,,,,,,,,,,,,,,122,001,2023-03-03_11h47.49.322,eb_01,2022.2.4,99.94838036416039,
4,stimuli/4.png,l,1,0,1,0,38,0,38,0,0,0,0,0,,,,,,,,,,,,,,,,,,421.9420649886015,421.9420649886015,421.9420649886015,421.9420649886015,l,1,0.5370665226946585,422.5027418418613,422.5027418418613,422.5027418418613,,,,,,,,,,,,,,,,,,,,,,,,,,,,122,001,2023-03-03_11h47.49.322,eb_01,2022.2.4,99.94838036416039,
,,,1,0,1,0,38,0,38,0,,,,,,,,,,,,,,,,,,,,,,,,,,,,,,,,,,,,,,,,,,,,,,,,,,,,,,,,,,,122,001,2023-03-03_11h47.49.322,eb_01,2022.2.4,99.94838036416039,
2,stimuli/2.png,s,1,0,1,0,39,0,39,0,0,0,0,0,,,,,,,,,,,,,,,,,,423.5133690259245,423.5133690259245,423.5133690259245,423.5133690259245,s,1,0.8377856166334823,424.36356216375134,424.36356216375134,424.36356216375134,425.3741724443098,425.3741724443098,425.3741724443098,,,,,,,,,,,,,,,,,,,,,,,,,122,001,2023-03-03_11h47.49.322,eb_01,2022.2.4,99.94838036416039,
,,,1,0,1,0,39,0,39,0,,,,,,,,,,,,,,,,,,,,,,,,,,,,,,,,,,,,,,,,,,,,,,,,,,,,,,,,,,,122,001,2023-03-03_11h47.49.322,eb_01,2022.2.4,99.94838036416039,
4,stimuli/4.png,l,1,0,1,0,40,0,40,0,0,0,0,0,,,,,,,,,,,,,,,,,,425.3741724443098,425.3741724443098,425.3741724443098,425.3741724443098,l,1,0.5760228026483674,425.9748493699881,425.9748493699881,425.9748493699881,,,,,,,,,,,,,,,,,,,,,,,,,,,,122,001,2023-03-03_11h47.49.322,eb_01,2022.2.4,99.94838036416039,
,,,1,0,1,0,40,0,40,0,,,,,,,,,,,,,,,,,,,,,,,,,,,,,,,,,,,,,,,,,,,,,,,,,,,,,,,,,,,122,001,2023-03-03_11h47.49.322,eb_01,2022.2.4,99.94838036416039,
1,stimuli/1.png,s,1,0,1,0,41,0,41,0,0,0,0,0,,,,,,,,,,,,,,,,,,426.9951704222185,426.9951704222185,426.9951704222185,426.9951704222185,s,1,1.4750671197543852,428.50637941947207,428.50637941947207,428.50637941947207,,,,,,,,,,,,,,,,,,,,,,,,,,,,122,001,2023-03-03_11h47.49.322,eb_01,2022.2.4,99.94838036416039,
,,,1,0,1,0,41,0,41,0,,,,,,,,,,,,,,,,,,,,,,,,,,,,,,,,,,,,,,,,,,,,,,,,,,,,,,,,,,,122,001,2023-03-03_11h47.49.322,eb_01,2022.2.4,99.94838036416039,
2,stimuli/2.png,s,1,0,1,0,42,0,42,0,0,0,0,0,,,,,,,,,,,,,,,,,,429.5070012276119,429.5070012276119,429.5070012276119,429.5070012276119,s,1,0.6272649247839581,430.14705762502854,430.14705762502854,430.14705762502854,431.1679896188143,431.1679896188143,431.1679896188143,,,,,,,,,,,,,,,,,,,,,,,,,122,001,2023-03-03_11h47.49.322,eb_01,2022.2.4,99.94838036416039,
,,,1,0,1,0,42,0,42,0,,,,,,,,,,,,,,,,,,,,,,,,,,,,,,,,,,,,,,,,,,,,,,,,,,,,,,,,,,,122,001,2023-03-03_11h47.49.322,eb_01,2022.2.4,99.94838036416039,
1,stimuli/1.png,s,1,0,1,0,43,0,43,0,0,0,0,0,,,,,,,,,,,,,,,,,,431.1679896188143,431.1679896188143,431.1679896188143,431.1679896188143,s,1,0.36628631348139606,431.5579046756029,431.5579046756029,431.5579046756029,,,,,,,,,,,,,,,,,,,,,,,,,,,,122,001,2023-03-03_11h47.49.322,eb_01,2022.2.4,99.94838036416039,
,,,1,0,1,0,43,0,43,0,,,,,,,,,,,,,,,,,,,,,,,,,,,,,,,,,,,,,,,,,,,,,,,,,,,,,,,,,,,122,001,2023-03-03_11h47.49.322,eb_01,2022.2.4,99.94838036416039,
2,stimuli/2.png,s,1,0,1,0,44,0,44,0,0,0,0,0,,,,,,,,,,,,,,,,,,432.56884336745134,432.56884336745134,432.56884336745134,432.56884336745134,s,1,0.4295018644479569,433.00876236334443,433.00876236334443,433.00876236334443,434.02972363648587,434.02972363648587,434.02972363648587,,,,,,,,,,,,,,,,,,,,,,,,,122,001,2023-03-03_11h47.49.322,eb_01,2022.2.4,99.94838036416039,
,,,1,0,1,0,44,0,44,0,,,,,,,,,,,,,,,,,,,,,,,,,,,,,,,,,,,,,,,,,,,,,,,,,,,,,,,,,,,122,001,2023-03-03_11h47.49.322,eb_01,2022.2.4,99.94838036416039,
1,stimuli/1.png,s,1,0,1,0,45,0,45,0,0,0,0,0,,,,,,,,,,,,,,,,,,434.02972363648587,434.02972363648587,434.02972363648587,434.02972363648587,s,1,0.3605982782319188,434.42996765088174,434.42996765088174,434.42996765088174,,,,,,,,,,,,,,,,,,,,,,,,,,,,122,001,2023-03-03_11h47.49.322,eb_01,2022.2.4,99.94838036416039,
,,,1,0,1,0,45,0,45,0,,,,,,,,,,,,,,,,,,,,,,,,,,,,,,,,,,,,,,,,,,,,,,,,,,,,,,,,,,,122,001,2023-03-03_11h47.49.322,eb_01,2022.2.4,99.94838036416039,
2,stimuli/2.png,s,1,0,1,0,46,0,46,0,0,0,0,0,,,,,,,,,,,,,,,,,,435.43058251650655,435.43058251650655,435.43058251650655,435.43058251650655,s,1,0.41583234825520776,435.860525113967,435.860525113967,435.860525113967,436.8711399222375,436.8711399222375,436.8711399222375,,,,,,,,,,,,,,,,,,,,,,,,,122,001,2023-03-03_11h47.49.322,eb_01,2022.2.4,99.94838036416039,
,,,1,0,1,0,46,0,46,0,,,,,,,,,,,,,,,,,,,,,,,,,,,,,,,,,,,,,,,,,,,,,,,,,,,,,,,,,,,122,001,2023-03-03_11h47.49.322,eb_01,2022.2.4,99.94838036416039,
4,stimuli/4.png,l,1,0,1,0,47,0,47,0,0,0,0,0,,,,,,,,,,,,,,,,,,436.8711399222375,436.8711399222375,436.8711399222375,436.8711399222375,s,0,0.35925565561046824,437.2516946535616,437.2516946535616,437.2516946535616,,,,,,,,,,,,,,,,,,,,,,,,,,,,122,001,2023-03-03_11h47.49.322,eb_01,2022.2.4,99.94838036416039,
,,,1,0,1,0,47,0,47,0,,,,,,,,,,,,,,,,,,,,,,,,,,,,,,,,,,,,,,,,,,,,,,,,,,,,,,,,,,,122,001,2023-03-03_11h47.49.322,eb_01,2022.2.4,99.94838036416039,
3,stimuli/3.png,l,1,0,1,0,48,0,48,0,0,0,0,0,,,,,,,,,,,,,,,,,,438.26230614152155,438.26230614152155,438.26230614152155,438.26230614152155,l,1,0.6081183654896449,438.8926716892456,438.8926716892456,438.8926716892456,,,,,,,,,,,,,,,,,,,,,,,,,,,,122,001,2023-03-03_11h47.49.322,eb_01,2022.2.4,99.94838036416039,
,,,1,0,1,0,48,0,48,0,,,,,,,,,,,,,,,,,,,,,,,,,,,,,,,,,,,,,,,,,,,,,,,,,,,,,,,,,,,122,001,2023-03-03_11h47.49.322,eb_01,2022.2.4,99.94838036416039,
2,stimuli/2.png,s,1,0,1,0,49,0,49,0,0,0,0,0,,,,,,,,,,,,,,,,,,439.90328921412583,439.90328921412583,439.90328921412583,439.90328921412583,s,1,0.7022362718125805,440.623379865312,440.623379865312,440.623379865312,441.63402968802257,441.63402968802257,441.63402968802257,,,,,,,,,,,,,,,,,,,,,,,,,122,001,2023-03-03_11h47.49.322,eb_01,2022.2.4,99.94838036416039,
,,,1,0,1,0,49,0,49,0,,,,,,,,,,,,,,,,,,,,,,,,,,,,,,,,,,,,,,,,,,,,,,,,,,,,,,,,,,,122,001,2023-03-03_11h47.49.322,eb_01,2022.2.4,99.94838036416039,
4,stimuli/4.png,l,1,0,1,0,50,0,50,0,0,0,0,0,,,,,,,,,,,,,,,,,,441.63402968802257,441.63402968802257,441.63402968802257,441.63402968802257,l,1,1.403463497699704,443.0652026204043,443.0652026204043,443.0652026204043,,,,,,,,,,,,,,,,,,,,,,,,,,,,122,001,2023-03-03_11h47.49.322,eb_01,2022.2.4,99.94838036416039,
,,,1,0,1,0,50,0,50,0,,,,,,,,,,,,,,,,,,,,,,,,,,,,,,,,,,,,,,,,,,,,,,,,,,,,,,,,,,,122,001,2023-03-03_11h47.49.322,eb_01,2022.2.4,99.94838036416039,
2,stimuli/2.png,s,1,0,1,0,51,0,51,0,0,0,0,0,,,,,,,,,,,,,,,,,,444.07583010633243,444.07583010633243,444.07583010633243,444.07583010633243,s,1,0.5696879058377817,444.65585243707756,444.65585243707756,444.65585243707756,445.666455775121,445.666455775121,445.666455775121,,,,,,,,,,,,,,,,,,,,,,,,,122,001,2023-03-03_11h47.49.322,eb_01,2022.2.4,99.94838036416039,
,,,1,0,1,0,51,0,51,0,,,,,,,,,,,,,,,,,,,,,,,,,,,,,,,,,,,,,,,,,,,,,,,,,,,,,,,,,,,122,001,2023-03-03_11h47.49.322,eb_01,2022.2.4,99.94838036416039,
4,stimuli/4.png,l,1,0,1,0,52,0,52,0,0,0,0,0,,,,,,,,,,,,,,,,,,445.666455775121,445.666455775121,445.666455775121,445.666455775121,l,1,0.2990682498784736,445.98695078268065,445.98695078268065,445.98695078268065,,,,,,,,,,,,,,,,,,,,,,,,,,,,122,001,2023-03-03_11h47.49.322,eb_01,2022.2.4,99.94838036416039,
,,,1,0,1,0,52,0,52,0,,,,,,,,,,,,,,,,,,,,,,,,,,,,,,,,,,,,,,,,,,,,,,,,,,,,,,,,,,,122,001,2023-03-03_11h47.49.322,eb_01,2022.2.4,99.94838036416039,
2,stimuli/2.png,s,1,0,1,0,53,0,53,0,0,0,0,0,,,,,,,,,,,,,,,,,,446.9975861166604,446.9975861166604,446.9975861166604,446.9975861166604,s,1,0.3519711430708412,447.367793477606,447.367793477606,447.367793477606,448.38811211503344,448.38811211503344,448.38811211503344,,,,,,,,,,,,,,,,,,,,,,,,,122,001,2023-03-03_11h47.49.322,eb_01,2022.2.4,99.94838036416039,
,,,1,0,1,0,53,0,53,0,,,,,,,,,,,,,,,,,,,,,,,,,,,,,,,,,,,,,,,,,,,,,,,,,,,,,,,,,,,122,001,2023-03-03_11h47.49.322,eb_01,2022.2.4,99.94838036416039,
1,stimuli/1.png,s,1,0,1,0,54,0,54,0,0,0,0,0,,,,,,,,,,,,,,,,,,448.38811211503344,448.38811211503344,448.38811211503344,448.38811211503344,s,1,0.7134710770915262,449.1389022792282,449.1389022792282,449.1389022792282,,,,,,,,,,,,,,,,,,,,,,,,,,,,122,001,2023-03-03_11h47.49.322,eb_01,2022.2.4,99.94838036416039,
,,,1,0,1,0,54,0,54,0,,,,,,,,,,,,,,,,,,,,,,,,,,,,,,,,,,,,,,,,,,,,,,,,,,,,,,,,,,,122,001,2023-03-03_11h47.49.322,eb_01,2022.2.4,99.94838036416039,
2,stimuli/2.png,s,1,0,1,0,55,0,55,0,0,0,0,0,,,,,,,,,,,,,,,,,,450.13949299696833,450.13949299696833,450.13949299696833,450.13949299696833,s,1,0.7461033268191386,450.89962718679453,450.89962718679453,450.89962718679453,451.9205766878149,451.9205766878149,451.9205766878149,,,,,,,,,,,,,,,,,,,,,,,,,122,001,2023-03-03_11h47.49.322,eb_01,2022.2.4,99.94838036416039,
,,,1,0,1,0,55,0,55,0,,,,,,,,,,,,,,,,,,,,,,,,,,,,,,,,,,,,,,,,,,,,,,,,,,,,,,,,,,,122,001,2023-03-03_11h47.49.322,eb_01,2022.2.4,99.94838036416039,
1,stimuli/1.png,s,1,0,1,0,56,0,56,0,0,0,0,0,,,,,,,,,,,,,,,,,,451.9205766878149,451.9205766878149,451.9205766878149,451.9205766878149,s,1,0.33306938302121125,452.2907888783375,452.2907888783375,452.2907888783375,,,,,,,,,,,,,,,,,,,,,,,,,,,,122,001,2023-03-03_11h47.49.322,eb_01,2022.2.4,99.94838036416039,
,,,1,0,1,0,56,0,56,0,,,,,,,,,,,,,,,,,,,,,,,,,,,,,,,,,,,,,,,,,,,,,,,,,,,,,,,,,,,122,001,2023-03-03_11h47.49.322,eb_01,2022.2.4,99.94838036416039,
4,stimuli/4.png,l,1,0,1,0,57,0,57,0,0,0,0,0,,,,,,,,,,,,,,,,,,453.29107563450816,453.29107563450816,453.29107563450816,453.29107563450816,l,1,0.5626382315240335,453.88175563604455,453.88175563604455,453.88175563604455,,,,,,,,,,,,,,,,,,,,,,,,,,,,122,001,2023-03-03_11h47.49.322,eb_01,2022.2.4,99.94838036416039,
,,,1,0,1,0,57,0,57,0,,,,,,,,,,,,,,,,,,,,,,,,,,,,,,,,,,,,,,,,,,,,,,,,,,,,,,,,,,,122,001,2023-03-03_11h47.49.322,eb_01,2022.2.4,99.94838036416039,
2,stimuli/2.png,s,1,0,1,0,58,0,58,0,0,0,0,0,,,,,,,,,,,,,,,,,,454.89236621843884,454.89236621843884,454.89236621843884,454.89236621843884,s,1,0.5613336418173276,455.4727232993173,455.4727232993173,455.4727232993173,456.49335495373816,456.49335495373816,456.49335495373816,,,,,,,,,,,,,,,,,,,,,,,,,122,001,2023-03-03_11h47.49.322,eb_01,2022.2.4,99.94838036416039,
,,,1,0,1,0,58,0,58,0,,,,,,,,,,,,,,,,,,,,,,,,,,,,,,,,,,,,,,,,,,,,,,,,,,,,,,,,,,,122,001,2023-03-03_11h47.49.322,eb_01,2022.2.4,99.94838036416039,
4,stimuli/4.png,l,1,0,1,0,59,0,59,0,0,0,0,0,,,,,,,,,,,,,,,,,,456.49335495373816,456.49335495373816,456.49335495373816,456.49335495373816,l,1,0.3034082292288076,456.82352481302223,456.82352481302223,456.82352481302223,,,,,,,,,,,,,,,,,,,,,,,,,,,,122,001,2023-03-03_11h47.49.322,eb_01,2022.2.4,99.94838036416039,
,,,1,0,1,0,59,0,59,0,,,,,,,,,,,,,,,,,,,,,,,,,,,,,,,,,,,,,,,,,,,,,,,,,,,,,,,,,,,122,001,2023-03-03_11h47.49.322,eb_01,2022.2.4,99.94838036416039,
1,stimuli/1.png,s,1,0,1,0,60,0,60,0,0,0,0,0,,,,,,,,,,,,,,,,,,457.84421080022,457.84421080022,457.84421080022,457.84421080022,s,1,0.9445395095099229,458.82476329786004,458.82476329786004,458.82476329786004,,,,,,,,,,,,,,,,,,,,,,,,,,,,122,001,2023-03-03_11h47.49.322,eb_01,2022.2.4,99.94838036416039,
,,,1,0,1,0,60,0,60,0,,,,,,,,,,,,,,,,,,,,,,,,,,,,,,,,,,,,,,,,,,,,,,,,,,,,,,,,,,,122,001,2023-03-03_11h47.49.322,eb_01,2022.2.4,99.94838036416039,
2,stimuli/2.png,s,1,0,1,0,61,0,61,0,0,0,0,0,,,,,,,,,,,,,,,,,,459.8253675987944,459.8253675987944,459.8253675987944,459.8253675987944,s,1,0.06741996630444191,459.9053801194823,459.9053801194823,459.9053801194823,460.92603290331317,460.92603290331317,460.92603290331317,,,,,,,,,,,,,,,,,,,,,,,,,122,001,2023-03-03_11h47.49.322,eb_01,2022.2.4,99.94838036416039,
,,,1,0,1,0,61,0,61,0,,,,,,,,,,,,,,,,,,,,,,,,,,,,,,,,,,,,,,,,,,,,,,,,,,,,,,,,,,,122,001,2023-03-03_11h47.49.322,eb_01,2022.2.4,99.94838036416039,
1,stimuli/1.png,s,1,0,1,0,62,0,62,0,0,0,0,0,,,,,,,,,,,,,,,,,,460.92603290331317,460.92603290331317,460.92603290331317,460.92603290331317,s,1,0.5267783146409784,461.4863768175419,461.4863768175419,461.4863768175419,,,,,,,,,,,,,,,,,,,,,,,,,,,,122,001,2023-03-03_11h47.49.322,eb_01,2022.2.4,99.94838036416039,
,,,1,0,1,0,62,0,62,0,,,,,,,,,,,,,,,,,,,,,,,,,,,,,,,,,,,,,,,,,,,,,,,,,,,,,,,,,,,122,001,2023-03-03_11h47.49.322,eb_01,2022.2.4,99.94838036416039,
2,stimuli/2.png,s,1,0,1,0,63,0,63,0,0,0,0,0,,,,,,,,,,,,,,,,,,462.4870037571236,462.4870037571236,462.4870037571236,462.4870037571236,s,1,0.3978313044644892,462.89689666425693,462.89689666425693,462.89689666425693,463.91785854107,463.91785854107,463.91785854107,,,,,,,,,,,,,,,,,,,,,,,,,122,001,2023-03-03_11h47.49.322,eb_01,2022.2.4,99.94838036416039,
,,,1,0,1,0,63,0,63,0,,,,,,,,,,,,,,,,,,,,,,,,,,,,,,,,,,,,,,,,,,,,,,,,,,,,,,,,,,,122,001,2023-03-03_11h47.49.322,eb_01,2022.2.4,99.94838036416039,
1,stimuli/1.png,s,1,0,1,0,64,0,64,0,0,0,0,0,,,,,,,,,,,,,,,,,,463.91785854107,463.91785854107,463.91785854107,463.91785854107,s,1,0.4710036337492056,464.4281641054258,464.4281641054258,464.4281641054258,,,,,,,,,,,,,,,,,,,,,,,,,,,,122,001,2023-03-03_11h47.49.322,eb_01,2022.2.4,99.94838036416039,
,,,1,0,1,0,64,0,64,0,,,,,,,,,,,,,,,,,,,,,,,,,,,,,,,,,,,,,,,,,,,,,,,,,,,,,,,,,,,122,001,2023-03-03_11h47.49.322,eb_01,2022.2.4,99.94838036416039,
2,stimuli/2.png,s,1,0,1,0,65,0,65,0,0,0,0,0,,,,,,,,,,,,,,,,,,465.4287841024925,465.4287841024925,465.4287841024925,465.4287841024925,s,1,0.4160892214276828,465.8587049668422,465.8587049668422,465.8587049668422,466.869654223352,466.869654223352,466.869654223352,,,,,,,,,,,,,,,,,,,,,,,,,122,001,2023-03-03_11h47.49.322,eb_01,2022.2.4,99.94838036416039,
,,,1,0,1,0,65,0,65,0,,,,,,,,,,,,,,,,,,,,,,,,,,,,,,,,,,,,,,,,,,,,,,,,,,,,,,,,,,,122,001,2023-03-03_11h47.49.322,eb_01,2022.2.4,99.94838036416039,
3,stimuli/3.png,l,1,0,1,0,66,0,66,0,0,0,0,0,,,,,,,,,,,,,,,,,,466.869654223352,466.869654223352,466.869654223352,466.869654223352,l,1,0.7912553513306193,467.6798068410426,467.6798068410426,467.6798068410426,468.6907400995842,468.6907400995842,468.6907400995842,,,,,,,,,,,,,,,,,,,,,,,,,122,001,2023-03-03_11h47.49.322,eb_01,2022.2.4,99.94838036416039,
,,,1,0,1,0,66,0,66,0,,,,,,,,,,,,,,,,,,,,,,,,,,,,,,,,,,,,,,,,,,,,,,,,,,,,,,,,,,,122,001,2023-03-03_11h47.49.322,eb_01,2022.2.4,99.94838036416039,
8,stimuli/8.png,l,1,0,1,0,67,0,67,0,0,0,0,0,,,,,,,,,,,,,,,,,,468.6907400995842,468.6907400995842,468.6907400995842,468.6907400995842,l,1,0.5222077229409479,469.2410765249806,469.2410765249806,469.2410765249806,,,,,,,,,,,,,,,,,,,,,,,,,,,,122,001,2023-03-03_11h47.49.322,eb_01,2022.2.4,99.94838036416039,
,,,1,0,1,0,67,0,67,0,,,,,,,,,,,,,,,,,,,,,,,,,,,,,,,,,,,,,,,,,,,,,,,,,,,,,,,,,,,122,001,2023-03-03_11h47.49.322,eb_01,2022.2.4,99.94838036416039,
9,stimuli/9.png,l,1,0,1,0,68,0,68,0,0,0,0,0,,,,,,,,,,,,,,,,,,470.2617006331857,470.2617006331857,470.2617006331857,470.2617006331857,l,1,0.47126050692168064,470.7616684863169,470.7616684863169,470.7616684863169,,,,,,,,,,,,,,,,,,,,,,,,,,,,122,001,2023-03-03_11h47.49.322,eb_01,2022.2.4,99.94838036416039,
,,,1,0,1,0,68,0,68,0,,,,,,,,,,,,,,,,,,,,,,,,,,,,,,,,,,,,,,,,,,,,,,,,,,,,,,,,,,,122,001,2023-03-03_11h47.49.322,eb_01,2022.2.4,99.94838036416039,
8,stimuli/8.png,l,1,0,1,0,69,0,69,0,0,0,0,0,,,,,,,,,,,,,,,,,,471.77260597076383,471.77260597076383,471.77260597076383,471.77260597076383,l,1,0.3994679276365787,472.1928749239014,472.1928749239014,472.1928749239014,,,,,,,,,,,,,,,,,,,,,,,,,,,,122,001,2023-03-03_11h47.49.322,eb_01,2022.2.4,99.94838036416039,
,,,1,0,1,0,69,0,69,0,,,,,,,,,,,,,,,,,,,,,,,,,,,,,,,,,,,,,,,,,,,,,,,,,,,,,,,,,,,122,001,2023-03-03_11h47.49.322,eb_01,2022.2.4,99.94838036416039,
9,stimuli/9.png,l,1,0,1,0,70,0,70,0,0,0,0,0,,,,,,,,,,,,,,,,,,473.2135310280719,473.2135310280719,473.2135310280719,473.2135310280719,l,1,0.4064952651388012,473.64341385950684,473.64341385950684,473.64341385950684,,,,,,,,,,,,,,,,,,,,,,,,,,,,122,001,2023-03-03_11h47.49.322,eb_01,2022.2.4,99.94838036416039,
,,,1,0,1,0,70,0,70,0,,,,,,,,,,,,,,,,,,,,,,,,,,,,,,,,,,,,,,,,,,,,,,,,,,,,,,,,,,,122,001,2023-03-03_11h47.49.322,eb_01,2022.2.4,99.94838036416039,
8,stimuli/8.png,l,1,0,1,0,71,0,71,0,0,0,0,0,,,,,,,,,,,,,,,,,,474.65436341788154,474.65436341788154,474.65436341788154,474.65436341788154,l,1,0.4056709166034125,475.08461571199587,475.08461571199587,475.08461571199587,,,,,,,,,,,,,,,,,,,,,,,,,,,,122,001,2023-03-03_11h47.49.322,eb_01,2022.2.4,99.94838036416039,
,,,1,0,1,0,71,0,71,0,,,,,,,,,,,,,,,,,,,,,,,,,,,,,,,,,,,,,,,,,,,,,,,,,,,,,,,,,,,122,001,2023-03-03_11h47.49.322,eb_01,2022.2.4,99.94838036416039,
3,stimuli/3.png,l,1,0,1,0,72,0,72,0,0,0,0,0,,,,,,,,,,,,,,,,,,476.0952447071613,476.0952447071613,476.0952447071613,476.0952447071613,l,1,0.5167976903030649,476.6252238584857,476.6252238584857,476.6252238584857,477.6358585887647,477.6358585887647,477.6358585887647,,,,,,,,,,,,,,,,,,,,,,,,,122,001,2023-03-03_11h47.49.322,eb_01,2022.2.4,99.94838036416039,
,,,1,0,1,0,72,0,72,0,,,,,,,,,,,,,,,,,,,,,,,,,,,,,,,,,,,,,,,,,,,,,,,,,,,,,,,,,,,122,001,2023-03-03_11h47.49.322,eb_01,2022.2.4,99.94838036416039,
4,stimuli/4.png,l,1,0,1,0,73,0,73,0,0,0,0,0,,,,,,,,,,,,,,,,,,477.6358585887647,477.6358585887647,477.6358585887647,477.6358585887647,l,1,0.6002669812878594,478.2565921472851,478.2565921472851,478.2565921472851,,,,,,,,,,,,,,,,,,,,,,,,,,,,122,001,2023-03-03_11h47.49.322,eb_01,2022.2.4,99.94838036416039,
,,,1,0,1,0,73,0,73,0,,,,,,,,,,,,,,,,,,,,,,,,,,,,,,,,,,,,,,,,,,,,,,,,,,,,,,,,,,,122,001,2023-03-03_11h47.49.322,eb_01,2022.2.4,99.94838036416039,
3,stimuli/3.png,l,1,0,1,0,74,0,74,0,0,0,0,0,,,,,,,,,,,,,,,,,,479.2671595653228,479.2671595653228,479.2671595653228,479.2671595653228,l,1,0.384975572116673,479.66707909249817,479.66707909249817,479.66707909249817,480.67770295622176,480.67770295622176,480.67770295622176,,,,,,,,,,,,,,,,,,,,,,,,,122,001,2023-03-03_11h47.49.322,eb_01,2022.2.4,99.94838036416039,
,,,1,0,1,0,74,0,74,0,,,,,,,,,,,,,,,,,,,,,,,,,,,,,,,,,,,,,,,,,,,,,,,,,,,,,,,,,,,122,001,2023-03-03_11h47.49.322,eb_01,2022.2.4,99.94838036416039,
4,stimuli/4.png,l,1,0,1,0,75,0,75,0,0,0,0,0,,,,,,,,,,,,,,,,,,480.67770295622176,480.67770295622176,480.67770295622176,480.67770295622176,l,1,0.38244215669692494,481.08826445802697,481.08826445802697,481.08826445802697,,,,,,,,,,,,,,,,,,,,,,,,,,,,122,001,2023-03-03_11h47.49.322,eb_01,2022.2.4,99.94838036416039,
,,,1,0,1,0,75,0,75,0,,,,,,,,,,,,,,,,,,,,,,,,,,,,,,,,,,,,,,,,,,,,,,,,,,,,,,,,,,,122,001,2023-03-03_11h47.49.322,eb_01,2022.2.4,99.94838036416039,
2,stimuli/2.png,s,1,0,1,0,76,0,76,0,0,0,0,0,,,,,,,,,,,,,,,,,,482.0988741348556,482.0988741348556,482.0988741348556,482.0988741348556,s,1,0.5933154077501968,482.70924885274144,482.70924885274144,482.70924885274144,483.7195500403177,483.7195500403177,483.7195500403177,,,,,,,,,,,,,,,,,,,,,,,,,122,001,2023-03-03_11h47.49.322,eb_01,2022.2.4,99.94838036416039,
,,,1,0,1,0,76,0,76,0,,,,,,,,,,,,,,,,,,,,,,,,,,,,,,,,,,,,,,,,,,,,,,,,,,,,,,,,,,,122,001,2023-03-03_11h47.49.322,eb_01,2022.2.4,99.94838036416039,
4,stimuli/4.png,l,1,0,1,0,77,0,77,0,0,0,0,0,,,,,,,,,,,,,,,,,,483.7195500403177,483.7195500403177,483.7195500403177,483.7195500403177,l,1,0.5166775545512792,484.2602031622373,484.2602031622373,484.2602031622373,,,,,,,,,,,,,,,,,,,,,,,,,,,,122,001,2023-03-03_11h47.49.322,eb_01,2022.2.4,99.94838036416039,
,,,1,0,1,0,77,0,77,0,,,,,,,,,,,,,,,,,,,,,,,,,,,,,,,,,,,,,,,,,,,,,,,,,,,,,,,,,,,122,001,2023-03-03_11h47.49.322,eb_01,2022.2.4,99.94838036416039,
1,stimuli/1.png,s,1,0,1,0,78,0,78,0,0,0,0,0,,,,,,,,,,,,,,,,,,485.28082002609153,485.28082002609153,485.28082002609153,485.28082002609153,s,1,0.9474411802075338,486.2614008975215,486.2614008975215,486.2614008975215,,,,,,,,,,,,,,,,,,,,,,,,,,,,122,001,2023-03-03_11h47.49.322,eb_01,2022.2.4,99.94838036416039,
,,,1,0,1,0,78,0,78,0,,,,,,,,,,,,,,,,,,,,,,,,,,,,,,,,,,,,,,,,,,,,,,,,,,,,,,,,,,,122,001,2023-03-03_11h47.49.322,eb_01,2022.2.4,99.94838036416039,
2,stimuli/2.png,s,1,0,1,0,79,0,79,0,0,0,0,0,,,,,,,,,,,,,,,,,,487.2620079150656,487.2620079150656,487.2620079150656,487.2620079150656,s,1,0.5573087924567517,487.8320170218649,487.8320170218649,487.8320170218649,488.8426378670847,488.8426378670847,488.8426378670847,,,,,,,,,,,,,,,,,,,,,,,,,122,001,2023-03-03_11h47.49.322,eb_01,2022.2.4,99.94838036416039,
,,,1,0,1,0,79,0,79,0,,,,,,,,,,,,,,,,,,,,,,,,,,,,,,,,,,,,,,,,,,,,,,,,,,,,,,,,,,,122,001,2023-03-03_11h47.49.322,eb_01,2022.2.4,99.94838036416039,
4,stimuli/4.png,l,1,0,1,0,80,0,80,0,0,0,0,0,,,,,,,,,,,,,,,,,,488.8426378670847,488.8426378670847,488.8426378670847,488.8426378670847,l,1,0.6246925709128845,489.49335585930385,489.49335585930385,489.49335585930385,,,,,,,,,,,,,,,,,,,,,,,,,,,,122,001,2023-03-03_11h47.49.322,eb_01,2022.2.4,99.94838036416039,
,,,1,0,1,0,80,0,80,0,,,,,,,,,,,,,,,,,,,,,,,,,,,,,,,,,,,,,,,,,,,,,,,,,,,,,,,,,,,122,001,2023-03-03_11h47.49.322,eb_01,2022.2.4,99.94838036416039,
3,stimuli/3.png,l,1,0,1,0,81,0,81,0,0,0,0,0,,,,,,,,,,,,,,,,,,490.503973686049,490.503973686049,490.503973686049,490.503973686049,l,1,0.6993605600728188,491.2140918628138,491.2140918628138,491.2140918628138,492.2246994267043,492.2246994267043,492.2246994267043,,,,,,,,,,,,,,,,,,,,,,,,,122,001,2023-03-03_11h47.49.322,eb_01,2022.2.4,99.94838036416039,
,,,1,0,1,0,81,0,81,0,,,,,,,,,,,,,,,,,,,,,,,,,,,,,,,,,,,,,,,,,,,,,,,,,,,,,,,,,,,122,001,2023-03-03_11h47.49.322,eb_01,2022.2.4,99.94838036416039,
4,stimuli/4.png,l,1,0,1,0,82,0,82,0,0,0,0,0,,,,,,,,,,,,,,,,,,492.2246994267043,492.2246994267043,492.2246994267043,492.2246994267043,l,1,0.7386558160069399,492.98547625221545,492.98547625221545,492.98547625221545,,,,,,,,,,,,,,,,,,,,,,,,,,,,122,001,2023-03-03_11h47.49.322,eb_01,2022.2.4,99.94838036416039,
,,,1,0,1,0,82,0,82,0,,,,,,,,,,,,,,,,,,,,,,,,,,,,,,,,,,,,,,,,,,,,,,,,,,,,,,,,,,,122,001,2023-03-03_11h47.49.322,eb_01,2022.2.4,99.94838036416039,
3,stimuli/3.png,l,1,0,1,0,83,0,83,0,0,0,0,0,,,,,,,,,,,,,,,,,,493.99608381610597,493.99608381610597,493.99608381610597,493.99608381610597,l,1,0.8152960840088781,494.8262867278245,494.8262867278245,494.8262867278245,495.837215458625,495.837215458625,495.837215458625,,,,,,,,,,,,,,,,,,,,,,,,,122,001,2023-03-03_11h47.49.322,eb_01,2022.2.4,99.94838036416039,
,,,1,0,1,0,83,0,83,0,,,,,,,,,,,,,,,,,,,,,,,,,,,,,,,,,,,,,,,,,,,,,,,,,,,,,,,,,,,122,001,2023-03-03_11h47.49.322,eb_01,2022.2.4,99.94838036416039,
8,stimuli/8.png,l,1,0,1,0,84,0,84,0,0,0,0,0,,,,,,,,,,,,,,,,,,495.837215458625,495.837215458625,495.837215458625,495.837215458625,s,0,0.5581980384595226,496.4175224326318,496.4175224326318,496.4175224326318,,,,,,,,,,,,,,,,,,,,,,,,,,,,122,001,2023-03-03_11h47.49.322,eb_01,2022.2.4,99.94838036416039,
,,,1,0,1,0,84,0,84,0,,,,,,,,,,,,,,,,,,,,,,,,,,,,,,,,,,,,,,,,,,,,,,,,,,,,,,,,,,,122,001,2023-03-03_11h47.49.322,eb_01,2022.2.4,99.94838036416039,
9,stimuli/9.png,l,1,0,1,0,85,0,85,0,0,0,0,0,,,,,,,,,,,,,,,,,,497.43819453479955,497.43819453479955,497.43819453479955,497.43819453479955,l,1,0.5893047452555038,498.0585531973629,498.0585531973629,498.0585531973629,,,,,,,,,,,,,,,,,,,,,,,,,,,,122,001,2023-03-03_11h47.49.322,eb_01,2022.2.4,99.94838036416039,
,,,1,0,1,0,85,0,85,0,,,,,,,,,,,,,,,,,,,,,,,,,,,,,,,,,,,,,,,,,,,,,,,,,,,,,,,,,,,122,001,2023-03-03_11h47.49.322,eb_01,2022.2.4,99.94838036416039,
5,stimuli/5.png,s,1,0,1,0,86,0,86,0,0,0,0,0,,,,,,,,,,,,,,,,,,499.059153272392,499.059153272392,499.059153272392,499.059153272392,s,1,1.3203546139702667,500.3999596730282,500.3999596730282,500.3999596730282,,,,,,,,,,,,,,,,,,,,,,,,,,,,122,001,2023-03-03_11h47.49.322,eb_01,2022.2.4,99.94838036416039,
,,,1,0,1,0,86,0,86,0,,,,,,,,,,,,,,,,,,,,,,,,,,,,,,,,,,,,,,,,,,,,,,,,,,,,,,,,,,,122,001,2023-03-03_11h47.49.322,eb_01,2022.2.4,99.94838036416039,
6,stimuli/6.png,s,1,0,1,0,87,0,87,0,0,0,0,0,,,,,,,,,,,,,,,,,,501.4202728771779,501.4202728771779,501.4202728771779,501.4202728771779,s,1,0.487246409378713,501.9405919674027,501.9405919674027,501.9405919674027,,,,,,,,,,,,,,,,,,,,,,,,,,,,122,001,2023-03-03_11h47.49.322,eb_01,2022.2.4,99.94838036416039,
,,,1,0,1,0,87,0,87,0,,,,,,,,,,,,,,,,,,,,,,,,,,,,,,,,,,,,,,,,,,,,,,,,,,,,,,,,,,,122,001,2023-03-03_11h47.49.322,eb_01,2022.2.4,99.94838036416039,
5,stimuli/5.png,s,1,0,1,0,88,0,88,0,0,0,0,0,,,,,,,,,,,,,,,,,,502.9315208129119,502.9315208129119,502.9315208129119,502.9315208129119,s,1,0.5830546678917017,503.5419100195286,503.5419100195286,503.5419100195286,,,,,,,,,,,,,,,,,,,,,,,,,,,,122,001,2023-03-03_11h47.49.322,eb_01,2022.2.4,99.94838036416039,
,,,1,0,1,0,88,0,88,0,,,,,,,,,,,,,,,,,,,,,,,,,,,,,,,,,,,,,,,,,,,,,,,,,,,,,,,,,,,122,001,2023-03-03_11h47.49.322,eb_01,2022.2.4,99.94838036416039,
9,stimuli/9.png,l,1,0,1,0,89,0,89,0,0,0,0,0,,,,,,,,,,,,,,,,,,504.5625145075901,504.5625145075901,504.5625145075901,504.5625145075901,l,1,2.1520725038426463,506.7435050479835,506.7435050479835,506.7435050479835,,,,,,,,,,,,,,,,,,,,,,,,,,,,122,001,2023-03-03_11h47.49.322,eb_01,2022.2.4,99.94838036416039,
,,,1,0,1,0,89,0,89,0,,,,,,,,,,,,,,,,,,,,,,,,,,,,,,,,,,,,,,,,,,,,,,,,,,,,,,,,,,,122,001,2023-03-03_11h47.49.322,eb_01,2022.2.4,99.94838036416039,
5,stimuli/5.png,s,1,0,1,0,90,0,90,0,0,0,0,0,,,,,,,,,,,,,,,,,,507.7544449472043,507.7544449472043,507.7544449472043,507.7544449472043,s,1,0.5521538218599744,508.3347965948051,508.3347965948051,508.3347965948051,,,,,,,,,,,,,,,,,,,,,,,,,,,,122,001,2023-03-03_11h47.49.322,eb_01,2022.2.4,99.94838036416039,
,,,1,0,1,0,90,0,90,0,,,,,,,,,,,,,,,,,,,,,,,,,,,,,,,,,,,,,,,,,,,,,,,,,,,,,,,,,,,122,001,2023-03-03_11h47.49.322,eb_01,2022.2.4,99.94838036416039,
9,stimuli/9.png,l,1,0,1,0,91,0,91,0,0,0,0,0,,,,,,,,,,,,,,,,,,509.35542402334977,509.35542402334977,509.35542402334977,509.35542402334977,l,1,0.6632851232716348,510.04550609298167,510.04550609298167,510.04550609298167,,,,,,,,,,,,,,,,,,,,,,,,,,,,122,001,2023-03-03_11h47.49.322,eb_01,2022.2.4,99.94838036416039,
,,,1,0,1,0,91,0,91,0,,,,,,,,,,,,,,,,,,,,,,,,,,,,,,,,,,,,,,,,,,,,,,,,,,,,,,,,,,,122,001,2023-03-03_11h47.49.322,eb_01,2022.2.4,99.94838036416039,
6,stimuli/6.png,s,1,0,1,0,92,0,92,0,0,0,0,0,,,,,,,,,,,,,,,,,,511.0664507644251,511.0664507644251,511.0664507644251,511.0664507644251,s,1,0.5922903298633173,511.6968422711361,511.6968422711361,511.6968422711361,,,,,,,,,,,,,,,,,,,,,,,,,,,,122,001,2023-03-03_11h47.49.322,eb_01,2022.2.4,99.94838036416039,
,,,1,0,1,0,92,0,92,0,,,,,,,,,,,,,,,,,,,,,,,,,,,,,,,,,,,,,,,,,,,,,,,,,,,,,,,,,,,122,001,2023-03-03_11h47.49.322,eb_01,2022.2.4,99.94838036416039,
8,stimuli/8.png,l,1,0,1,0,93,0,93,0,0,0,0,0,,,,,,,,,,,,,,,,,,512.6974254426314,512.6974254426314,512.6974254426314,512.6974254426314,l,1,0.6092789733957034,513.3278314380732,513.3278314380732,513.3278314380732,,,,,,,,,,,,,,,,,,,,,,,,,,,,122,001,2023-03-03_11h47.49.322,eb_01,2022.2.4,99.94838036416039,
,,,1,0,1,0,93,0,93,0,,,,,,,,,,,,,,,,,,,,,,,,,,,,,,,,,,,,,,,,,,,,,,,,,,,,,,,,,,,122,001,2023-03-03_11h47.49.322,eb_01,2022.2.4,99.94838036416039,
9,stimuli/9.png,l,1,0,1,0,94,0,94,0,0,0,0,0,,,,,,,,,,,,,,,,,,514.34843290766,514.34843290766,514.34843290766,514.34843290766,l,1,0.6383134895004332,515.0085169604281,515.0085169604281,515.0085169604281,,,,,,,,,,,,,,,,,,,,,,,,,,,,122,001,2023-03-03_11h47.49.322,eb_01,2022.2.4,99.94838036416039,
,,,1,0,1,0,94,0,94,0,,,,,,,,,,,,,,,,,,,,,,,,,,,,,,,,,,,,,,,,,,,,,,,,,,,,,,,,,,,122,001,2023-03-03_11h47.49.322,eb_01,2022.2.4,99.94838036416039,
5,stimuli/5.png,s,1,0,1,0,95,0,95,0,0,0,0,0,,,,,,,,,,,,,,,,,,516.0194462949585,516.0194462949585,516.0194462949585,516.0194462949585,s,1,0.5993946387898177,516.6398269924684,516.6398269924684,516.6398269924684,,,,,,,,,,,,,,,,,,,,,,,,,,,,122,001,2023-03-03_11h47.49.322,eb_01,2022.2.4,99.94838036416039,
,,,1,0,1,0,95,0,95,0,,,,,,,,,,,,,,,,,,,,,,,,,,,,,,,,,,,,,,,,,,,,,,,,,,,,,,,,,,,122,001,2023-03-03_11h47.49.322,eb_01,2022.2.4,99.94838036416039,
6,stimuli/6.png,s,1,0,1,0,96,0,96,0,0,0,0,0,,,,,,,,,,,,,,,,,,517.660436008242,517.660436008242,517.660436008242,517.660436008242,s,1,0.6143545578233898,518.3108358520258,518.3108358520258,518.3108358520258,,,,,,,,,,,,,,,,,,,,,,,,,,,,122,001,2023-03-03_11h47.49.322,eb_01,2022.2.4,99.94838036416039,
,,,1,0,1,0,96,0,96,0,,,,,,,,,,,,,,,,,,,,,,,,,,,,,,,,,,,,,,,,,,,,,,,,,,,,,,,,,,,122,001,2023-03-03_11h47.49.322,eb_01,2022.2.4,99.94838036416039,
5,stimuli/5.png,s,1,0,1,0,97,0,97,0,0,0,0,0,,,,,,,,,,,,,,,,,,519.3114621878776,519.3114621878776,519.3114621878776,519.3114621878776,s,1,0.5223969820362981,519.8617723524221,519.8617723524221,519.8617723524221,,,,,,,,,,,,,,,,,,,,,,,,,,,,122,001,2023-03-03_11h47.49.322,eb_01,2022.2.4,99.94838036416039,
,,,1,0,1,0,97,0,97,0,,,,,,,,,,,,,,,,,,,,,,,,,,,,,,,,,,,,,,,,,,,,,,,,,,,,,,,,,,,122,001,2023-03-03_11h47.49.322,eb_01,2022.2.4,99.94838036416039,
9,stimuli/9.png,l,1,0,1,0,98,0,98,0,0,0,0,0,,,,,,,,,,,,,,,,,,520.8824109493871,520.8824109493871,520.8824109493871,520.8824109493871,s,0,0.47947531688259915,521.392699912074,521.392699912074,521.392699912074,,,,,,,,,,,,,,,,,,,,,,,,,,,,122,001,2023-03-03_11h47.49.322,eb_01,2022.2.4,99.94838036416039,
,,,1,0,1,0,98,0,98,0,,,,,,,,,,,,,,,,,,,,,,,,,,,,,,,,,,,,,,,,,,,,,,,,,,,,,,,,,,,122,001,2023-03-03_11h47.49.322,eb_01,2022.2.4,99.94838036416039,
5,stimuli/5.png,s,1,0,1,0,99,0,99,0,0,0,0,0,,,,,,,,,,,,,,,,,,522.3933196072758,522.3933196072758,522.3933196072758,522.3933196072758,s,1,0.5285803508304525,522.9436524104676,522.9436524104676,522.9436524104676,,,,,,,,,,,,,,,,,,,,,,,,,,,,122,001,2023-03-03_11h47.49.322,eb_01,2022.2.4,99.94838036416039,
,,,1,0,1,0,99,0,99,0,,,,,,,,,,,,,,,,,,,,,,,,,,,,,,,,,,,,,,,,,,,,,,,,,,,,,,,,,,,122,001,2023-03-03_11h47.49.322,eb_01,2022.2.4,99.94838036416039,
,,,1,0,1,0,,,,,,,,,,,,,,,,,,,,,,,,,,,,,,,,,,,,,,,523.9442482596205,523.9442482596205,return,34.04827008667053,,,,,,,,,,,,,,,,,,,,,122,001,2023-03-03_11h47.49.322,eb_01,2022.2.4,99.94838036416039,
6,stimuli/6.png,s,2,0,2,0,0,0,0,0,0,0,0,0,,,,,,,,,,,,,,,,,,558.0349655394675,558.0349655394675,558.0349655394675,558.0349655394675,s,1,2.4135929334152024,560.4864054931677,560.4864054931677,560.4864054931677,,,,,,,,,,,,,,,,,,,,,,,,,,,,122,001,2023-03-03_11h47.49.322,eb_01,2022.2.4,99.94838036416039,
,,,2,0,2,0,0,0,0,0,,,,,,,,,,,,,,,,,,,,,,,,,,,,,,,,,,,,,,,,,,,,,,,,,,,,,,,,,,,122,001,2023-03-03_11h47.49.322,eb_01,2022.2.4,99.94838036416039,
9,stimuli/9.png,l,2,0,2,0,1,0,1,0,0,0,0,0,,,,,,,,,,,,,,,,,,561.4970082274813,561.4970082274813,561.4970082274813,561.4970082274813,l,1,0.8795536163961515,562.3972318671294,562.3972318671294,562.3972318671294,,,,,,,,,,,,,,,,,,,,,,,,,,,,122,001,2023-03-03_11h47.49.322,eb_01,2022.2.4,99.94838036416039,
,,,2,0,2,0,1,0,1,0,,,,,,,,,,,,,,,,,,,,,,,,,,,,,,,,,,,,,,,,,,,,,,,,,,,,,,,,,,,122,001,2023-03-03_11h47.49.322,eb_01,2022.2.4,99.94838036416039,
6,stimuli/6.png,s,2,0,2,0,2,0,2,0,0,0,0,0,,,,,,,,,,,,,,,,,,563.4181677849847,563.4181677849847,563.4181677849847,563.4181677849847,s,1,0.950451214594068,564.3987598248059,564.3987598248059,564.3987598248059,,,,,,,,,,,,,,,,,,,,,,,,,,,,122,001,2023-03-03_11h47.49.322,eb_01,2022.2.4,99.94838036416039,
,,,2,0,2,0,2,0,2,0,,,,,,,,,,,,,,,,,,,,,,,,,,,,,,,,,,,,,,,,,,,,,,,,,,,,,,,,,,,122,001,2023-03-03_11h47.49.322,eb_01,2022.2.4,99.94838036416039,
8,stimuli/8.png,l,2,0,2,0,3,0,3,0,0,0,0,0,,,,,,,,,,,,,,,,,,565.399392801337,565.399392801337,565.399392801337,565.399392801337,l,1,0.5522452819859609,565.9797290546412,565.9797290546412,565.9797290546412,,,,,,,,,,,,,,,,,,,,,,,,,,,,122,001,2023-03-03_11h47.49.322,eb_01,2022.2.4,99.94838036416039,
,,,2,0,2,0,3,0,3,0,,,,,,,,,,,,,,,,,,,,,,,,,,,,,,,,,,,,,,,,,,,,,,,,,,,,,,,,,,,122,001,2023-03-03_11h47.49.322,eb_01,2022.2.4,99.94838036416039,
3,stimuli/3.png,l,2,0,2,0,4,0,4,0,0,0,0,0,,,,,,,,,,,,,,,,,,566.9903348074586,566.9903348074586,566.9903348074586,566.9903348074586,l,1,0.5773382589104585,567.5803751917847,567.5803751917847,567.5803751917847,568.5910087146622,568.5910087146622,568.5910087146622,,,,,,,,,,,,,,,,,,,,,,,,,122,001,2023-03-03_11h47.49.322,eb_01,2022.2.4,99.94838036416039,
,,,2,0,2,0,4,0,4,0,,,,,,,,,,,,,,,,,,,,,,,,,,,,,,,,,,,,,,,,,,,,,,,,,,,,,,,,,,,122,001,2023-03-03_11h47.49.322,eb_01,2022.2.4,99.94838036416039,
4,stimuli/4.png,l,2,0,2,0,5,0,5,0,0,0,0,0,,,,,,,,,,,,,,,,,,568.5910087146622,568.5910087146622,568.5910087146622,568.5910087146622,l,1,0.4966761600226164,569.1116538013739,569.1116538013739,569.1116538013739,,,,,,,,,,,,,,,,,,,,,,,,,,,,122,001,2023-03-03_11h47.49.322,eb_01,2022.2.4,99.94838036416039,
,,,2,0,2,0,5,0,5,0,,,,,,,,,,,,,,,,,,,,,,,,,,,,,,,,,,,,,,,,,,,,,,,,,,,,,,,,,,,122,001,2023-03-03_11h47.49.322,eb_01,2022.2.4,99.94838036416039,
1,stimuli/1.png,s,2,0,2,0,6,0,6,0,0,0,0,0,,,,,,,,,,,,,,,,,,570.132249837683,570.132249837683,570.132249837683,570.132249837683,s,1,0.5474929774354678,570.7126045037585,570.7126045037585,570.7126045037585,,,,,,,,,,,,,,,,,,,,,,,,,,,,122,001,2023-03-03_11h47.49.322,eb_01,2022.2.4,99.94838036416039,
,,,2,0,2,0,6,0,6,0,,,,,,,,,,,,,,,,,,,,,,,,,,,,,,,,,,,,,,,,,,,,,,,,,,,,,,,,,,,122,001,2023-03-03_11h47.49.322,eb_01,2022.2.4,99.94838036416039,
4,stimuli/4.png,l,2,0,2,0,7,0,7,0,0,0,0,0,,,,,,,,,,,,,,,,,,571.712877676764,571.712877676764,571.712877676764,571.712877676764,l,1,1.0868840703042224,572.8238634871668,572.8238634871668,572.8238634871668,,,,,,,,,,,,,,,,,,,,,,,,,,,,122,001,2023-03-03_11h47.49.322,eb_01,2022.2.4,99.94838036416039,
,,,2,0,2,0,7,0,7,0,,,,,,,,,,,,,,,,,,,,,,,,,,,,,,,,,,,,,,,,,,,,,,,,,,,,,,,,,,,122,001,2023-03-03_11h47.49.322,eb_01,2022.2.4,99.94838036416039,
1,stimuli/1.png,s,2,0,2,0,8,0,8,0,0,0,0,0,,,,,,,,,,,,,,,,,,573.8444866898353,573.8444866898353,573.8444866898353,573.8444866898353,s,1,0.6832880270667374,574.5649244669185,574.5649244669185,574.5649244669185,,,,,,,,,,,,,,,,,,,,,,,,,,,,122,001,2023-03-03_11h47.49.322,eb_01,2022.2.4,99.94838036416039,
,,,2,0,2,0,8,0,8,0,,,,,,,,,,,,,,,,,,,,,,,,,,,,,,,,,,,,,,,,,,,,,,,,,,,,,,,,,,,122,001,2023-03-03_11h47.49.322,eb_01,2022.2.4,99.94838036416039,
2,stimuli/2.png,s,2,0,2,0,9,0,9,0,0,0,0,0,,,,,,,,,,,,,,,,,,575.565528164152,575.565528164152,575.565528164152,575.565528164152,s,1,0.530287908448372,576.1055510261504,576.1055510261504,576.1055510261504,577.1161516475258,577.1161516475258,577.1161516475258,,,,,,,,,,,,,,,,,,,,,,,,,122,001,2023-03-03_11h47.49.322,eb_01,2022.2.4,99.94838036416039,
,,,2,0,2,0,9,0,9,0,,,,,,,,,,,,,,,,,,,,,,,,,,,,,,,,,,,,,,,,,,,,,,,,,,,,,,,,,,,122,001,2023-03-03_11h47.49.322,eb_01,2022.2.4,99.94838036416039,
4,stimuli/4.png,l,2,0,2,0,10,0,10,0,0,0,0,0,,,,,,,,,,,,,,,,,,577.1161516475258,577.1161516475258,577.1161516475258,577.1161516475258,l,1,0.7396712347399443,577.8769224360876,577.8769224360876,577.8769224360876,,,,,,,,,,,,,,,,,,,,,,,,,,,,122,001,2023-03-03_11h47.49.322,eb_01,2022.2.4,99.94838036416039,
,,,2,0,2,0,10,0,10,0,,,,,,,,,,,,,,,,,,,,,,,,,,,,,,,,,,,,,,,,,,,,,,,,,,,,,,,,,,,122,001,2023-03-03_11h47.49.322,eb_01,2022.2.4,99.94838036416039,
2,stimuli/2.png,s,2,0,2,0,11,0,11,0,0,0,0,0,,,,,,,,,,,,,,,,,,578.8875387535954,578.8875387535954,578.8875387535954,578.8875387535954,s,1,0.6003321805619635,579.4975841546548,579.4975841546548,579.4975841546548,580.5185318445729,580.5185318445729,580.5185318445729,,,,,,,,,,,,,,,,,,,,,,,,,122,001,2023-03-03_11h47.49.322,eb_01,2022.2.4,99.94838036416039,
,,,2,0,2,0,11,0,11,0,,,,,,,,,,,,,,,,,,,,,,,,,,,,,,,,,,,,,,,,,,,,,,,,,,,,,,,,,,,122,001,2023-03-03_11h47.49.322,eb_01,2022.2.4,99.94838036416039,
4,stimuli/4.png,l,2,0,2,0,12,0,12,0,0,0,0,0,,,,,,,,,,,,,,,,,,580.5185318445729,580.5185318445729,580.5185318445729,580.5185318445729,l,1,0.5123991523287259,581.0588707420975,581.0588707420975,581.0588707420975,,,,,,,,,,,,,,,,,,,,,,,,,,,,122,001,2023-03-03_11h47.49.322,eb_01,2022.2.4,99.94838036416039,
,,,2,0,2,0,12,0,12,0,,,,,,,,,,,,,,,,,,,,,,,,,,,,,,,,,,,,,,,,,,,,,,,,,,,,,,,,,,,122,001,2023-03-03_11h47.49.322,eb_01,2022.2.4,99.94838036416039,
