index,stimulus,correct_answer,block.thisRepN,block.thisTrialN,block.thisN,block.thisIndex,trial.thisRepN,trial.thisTrialN,trial.thisN,trial.thisIndex,display_row.thisRepN,display_row.thisTrialN,display_row.thisN,display_row.thisIndex,pair_questions.thisRepN,pair_questions.thisTrialN,pair_questions.thisN,pair_questions.thisIndex,welcome_text.started,instructions_0_keypress.started,instructions_0_keypress.keys,instructions_0_keypress.rt,instructions_1_keypress.started,instructions_1_text.started,instructions_1_keypress.keys,instructions_1_keypress.rt,instructions_2_keypress.started,instructions_2_text.started,instructions_2_keypress.keys,instructions_2_keypress.rt,text_countdown.started,image.started,size_question.started,size_resp.started,keypress_options.started,size_resp.keys,size_resp.corr,size_resp.rt,fb_image.started,fb.started,fb_size_question.started,fb_image.stopped,fb.stopped,fb_size_question.stopped,block_break_text.started,block_break_keypress.started,block_break_keypress.keys,block_break_keypress.rt,seq_reveal.started,seq_reveal_adv.started,seq_reveal_adv.keys,seq_reveal_adv.rt,instruction_2afc_text.started,instruction_2afc_keypress.started,instruction_2afc_keypress.keys,instruction_2afc_keypress.rt,dist_2afc_test.started,dist_2afc_resp.started,text.started,stim_00.started,stim_01.started,stim_10.started,stim_11.started,dist_2afc_resp.keys,dist_2afc_resp.rt,graph.started,debrief_text.started,debriefing_title.started,participant,session,date,expName,psychopyVersion,frameRate,
,,,,,,,,,,,,,,,,,,,12.798177170188865,12.798177170188865,return,33.16910697647836,,,,,,,,,,,,,,,,,,,,,,,,,,,,,,,,,,,,,,,,,,,,,,,123,001,2023-03-03_11h46.50.661,eb_01,2022.2.4,60.00219153212062,
,,,,,,,,,,,,,,,,,,,,,,,45.996567629714264,45.996567629714264,return,10.963076617917977,,,,,,,,,,,,,,,,,,,,,,,,,,,,,,,,,,,,,,,,,,,123,001,2023-03-03_11h46.50.661,eb_01,2022.2.4,60.00219153212062,
,,,,,,,,,,,,,,,,,,,,,,,,,,,56.979370763292536,56.979370763292536,space,6.755517977697309,,,,,,,,,,,,,,,,,,,,,,,,,,,,,,,,,,,,,,,123,001,2023-03-03_11h46.50.661,eb_01,2022.2.4,60.00219153212062,
4,stimuli/4.png,l,0,0,0,0,0,0,0,0,0,0,0,0,,,,,,,,,,,,,,,,,63.7790460298711,68.81216986716026,68.81216986716026,68.81216986716026,68.81216986716026,l,1,3.5149580524885096,72.36199206067249,72.36199206067249,72.36199206067249,,,,,,,,,,,,,,,,,,,,,,,,,,,,123,001,2023-03-03_11h46.50.661,eb_01,2022.2.4,60.00219153212062,
,,,0,0,0,0,0,0,0,0,,,,,,,,,,,,,,,,,,,,,,,,,,,,,,,,,,,,,,,,,,,,,,,,,,,,,,,,,,,123,001,2023-03-03_11h46.50.661,eb_01,2022.2.4,60.00219153212062,
2,stimuli/2.png,s,0,0,0,0,1,0,1,0,0,0,0,0,,,,,,,,,,,,,,,,,,73.37830479966942,73.37830479966942,73.37830479966942,73.37830479966942,s,1,3.0599515037902165,76.46180186310085,76.46180186310085,76.46180186310085,77.47841675693053,77.47841675693053,77.47841675693053,,,,,,,,,,,,,,,,,,,,,,,,,123,001,2023-03-03_11h46.50.661,eb_01,2022.2.4,60.00219153212062,
,,,0,0,0,0,1,0,1,0,,,,,,,,,,,,,,,,,,,,,,,,,,,,,,,,,,,,,,,,,,,,,,,,,,,,,,,,,,,123,001,2023-03-03_11h46.50.661,eb_01,2022.2.4,60.00219153212062,
3,stimuli/3.png,l,0,0,0,0,2,0,2,0,0,0,0,0,,,,,,,,,,,,,,,,,,77.47841675693053,77.47841675693053,77.47841675693053,77.47841675693053,l,1,4.71201643475797,82.2115367607039,82.2115367607039,82.2115367607039,83.21149027533829,83.21149027533829,83.21149027533829,,,,,,,,,,,,,,,,,,,,,,,,,123,001,2023-03-03_11h46.50.661,eb_01,2022.2.4,60.00219153212062,
,,,0,0,0,0,2,0,2,0,,,,,,,,,,,,,,,,,,,,,,,,,,,,,,,,,,,,,,,,,,,,,,,,,,,,,,,,,,,123,001,2023-03-03_11h46.50.661,eb_01,2022.2.4,60.00219153212062,
2,stimuli/2.png,s,0,0,0,0,3,0,3,0,0,0,0,0,,,,,,,,,,,,,,,,,,83.21149027533829,83.21149027533829,83.21149027533829,83.21149027533829,s,1,2.515092377056135,85.7447177991562,85.7447177991562,85.7447177991562,86.7613209207484,86.7613209207484,86.7613209207484,,,,,,,,,,,,,,,,,,,,,,,,,123,001,2023-03-03_11h46.50.661,eb_01,2022.2.4,60.00219153212062,
,,,0,0,0,0,3,0,3,0,,,,,,,,,,,,,,,,,,,,,,,,,,,,,,,,,,,,,,,,,,,,,,,,,,,,,,,,,,,123,001,2023-03-03_11h46.50.661,eb_01,2022.2.4,60.00219153212062,
1,stimuli/1.png,s,0,0,0,0,4,0,4,0,0,0,0,0,,,,,,,,,,,,,,,,,,86.7613209207484,86.7613209207484,86.7613209207484,86.7613209207484,s,1,1.2933065000979695,88.09461159218336,88.09461159218336,88.09461159218336,,,,,,,,,,,,,,,,,,,,,,,,,,,,123,001,2023-03-03_11h46.50.661,eb_01,2022.2.4,60.00219153212062,
,,,0,0,0,0,4,0,4,0,,,,,,,,,,,,,,,,,,,,,,,,,,,,,,,,,,,,,,,,,,,,,,,,,,,,,,,,,,,123,001,2023-03-03_11h46.50.661,eb_01,2022.2.4,60.00219153212062,
4,stimuli/4.png,l,0,0,0,0,5,0,5,0,0,0,0,0,,,,,,,,,,,,,,,,,,89.11120928041055,89.11120928041055,89.11120928041055,89.11120928041055,l,1,1.1914926957106218,90.32778457115637,90.32778457115637,90.32778457115637,91.32778034519288,91.32778034519288,91.32778034519288,,,,,,,,,,,,,,,,,,,,,,,,,123,001,2023-03-03_11h46.50.661,eb_01,2022.2.4,60.00219153212062,
,,,0,0,0,0,5,0,5,0,,,,,,,,,,,,,,,,,,,,,,,,,,,,,,,,,,,,,,,,,,,,,,,,,,,,,,,,,,,123,001,2023-03-03_11h46.50.661,eb_01,2022.2.4,60.00219153212062,
2,stimuli/2.png,s,0,0,0,0,6,0,6,0,0,0,0,0,,,,,,,,,,,,,,,,,,91.32778034519288,91.32778034519288,91.32778034519288,91.32778034519288,s,1,1.5420061929035,92.89437711276696,92.89437711276696,92.89437711276696,93.91099321402726,93.91099321402726,93.91099321402726,,,,,,,,,,,,,,,,,,,,,,,,,123,001,2023-03-03_11h46.50.661,eb_01,2022.2.4,60.00219153212062,
,,,0,0,0,0,6,0,6,0,,,,,,,,,,,,,,,,,,,,,,,,,,,,,,,,,,,,,,,,,,,,,,,,,,,,,,,,,,,123,001,2023-03-03_11h46.50.661,eb_01,2022.2.4,60.00219153212062,
4,stimuli/4.png,l,0,0,0,0,7,0,7,0,0,0,0,0,,,,,,,,,,,,,,,,,,93.91099321402726,93.91099321402726,93.91099321402726,93.91099321402726,l,1,0.7588456049852539,94.69430774697685,94.69430774697685,94.69430774697685,95.69425160231185,95.69425160231185,95.69425160231185,,,,,,,,,,,,,,,,,,,,,,,,,123,001,2023-03-03_11h46.50.661,eb_01,2022.2.4,60.00219153212062,
,,,0,0,0,0,7,0,7,0,,,,,,,,,,,,,,,,,,,,,,,,,,,,,,,,,,,,,,,,,,,,,,,,,,,,,,,,,,,123,001,2023-03-03_11h46.50.661,eb_01,2022.2.4,60.00219153212062,
3,stimuli/3.png,l,0,0,0,0,8,0,8,0,0,0,0,0,,,,,,,,,,,,,,,,,,95.69425160231185,95.69425160231185,95.69425160231185,95.69425160231185,l,1,0.5996323425497394,96.31089106699801,96.31089106699801,96.31089106699801,97.32750354602467,97.32750354602467,97.32750354602467,,,,,,,,,,,,,,,,,,,,,,,,,123,001,2023-03-03_11h46.50.661,eb_01,2022.2.4,60.00219153212062,
,,,0,0,0,0,8,0,8,0,,,,,,,,,,,,,,,,,,,,,,,,,,,,,,,,,,,,,,,,,,,,,,,,,,,,,,,,,,,123,001,2023-03-03_11h46.50.661,eb_01,2022.2.4,60.00219153212062,
4,stimuli/4.png,l,0,0,0,0,9,0,9,0,0,0,0,0,,,,,,,,,,,,,,,,,,97.32750354602467,97.32750354602467,97.32750354602467,97.32750354602467,l,1,1.2624604454322252,98.61078110194649,98.61078110194649,98.61078110194649,99.62740988103906,99.62740988103906,99.62740988103906,,,,,,,,,,,,,,,,,,,,,,,,,123,001,2023-03-03_11h46.50.661,eb_01,2022.2.4,60.00219153212062,
,,,0,0,0,0,9,0,9,0,,,,,,,,,,,,,,,,,,,,,,,,,,,,,,,,,,,,,,,,,,,,,,,,,,,,,,,,,,,123,001,2023-03-03_11h46.50.661,eb_01,2022.2.4,60.00219153212062,
1,stimuli/1.png,s,0,0,0,0,10,0,10,0,0,0,0,0,,,,,,,,,,,,,,,,,,99.62740988103906,99.62740988103906,99.62740988103906,99.62740988103906,s,1,0.866615572507726,100.5273492387787,100.5273492387787,100.5273492387787,,,,,,,,,,,,,,,,,,,,,,,,,,,,123,001,2023-03-03_11h46.50.661,eb_01,2022.2.4,60.00219153212062,
,,,0,0,0,0,10,0,10,0,,,,,,,,,,,,,,,,,,,,,,,,,,,,,,,,,,,,,,,,,,,,,,,,,,,,,,,,,,,123,001,2023-03-03_11h46.50.661,eb_01,2022.2.4,60.00219153212062,
4,stimuli/4.png,l,0,0,0,0,11,0,11,0,0,0,0,0,,,,,,,,,,,,,,,,,,101.54397107523982,101.54397107523982,101.54397107523982,101.54397107523982,l,1,0.7981030949449632,102.36060353691573,102.36060353691573,102.36060353691573,103.36026183934882,103.36026183934882,103.36026183934882,,,,,,,,,,,,,,,,,,,,,,,,,123,001,2023-03-03_11h46.50.661,eb_01,2022.2.4,60.00219153212062,
,,,0,0,0,0,11,0,11,0,,,,,,,,,,,,,,,,,,,,,,,,,,,,,,,,,,,,,,,,,,,,,,,,,,,,,,,,,,,123,001,2023-03-03_11h46.50.661,eb_01,2022.2.4,60.00219153212062,
3,stimuli/3.png,l,0,0,0,0,12,0,12,0,0,0,0,0,,,,,,,,,,,,,,,,,,103.36026183934882,103.36026183934882,103.36026183934882,103.36026183934882,l,1,0.6778717306733597,104.06055261433357,104.06055261433357,104.06055261433357,105.06048167886911,105.06048167886911,105.06048167886911,,,,,,,,,,,,,,,,,,,,,,,,,123,001,2023-03-03_11h46.50.661,eb_01,2022.2.4,60.00219153212062,
,,,0,0,0,0,12,0,12,0,,,,,,,,,,,,,,,,,,,,,,,,,,,,,,,,,,,,,,,,,,,,,,,,,,,,,,,,,,,123,001,2023-03-03_11h46.50.661,eb_01,2022.2.4,60.00219153212062,
2,stimuli/2.png,s,0,0,0,0,13,0,13,0,0,0,0,0,,,,,,,,,,,,,,,,,,105.06048167886911,105.06048167886911,105.06048167886911,105.06048167886911,s,1,0.6576934623590205,105.74378296046052,105.74378296046052,105.74378296046052,106.743741606595,106.743741606595,106.743741606595,,,,,,,,,,,,,,,,,,,,,,,,,123,001,2023-03-03_11h46.50.661,eb_01,2022.2.4,60.00219153212062,
,,,0,0,0,0,13,0,13,0,,,,,,,,,,,,,,,,,,,,,,,,,,,,,,,,,,,,,,,,,,,,,,,,,,,,,,,,,,,123,001,2023-03-03_11h46.50.661,eb_01,2022.2.4,60.00219153212062,
3,stimuli/3.png,l,0,0,0,0,14,0,14,0,0,0,0,0,,,,,,,,,,,,,,,,,,106.743741606595,106.743741606595,106.743741606595,106.743741606595,l,1,0.5255186810391024,107.29371774510946,107.29371774510946,107.29371774510946,108.31032871486968,108.31032871486968,108.31032871486968,,,,,,,,,,,,,,,,,,,,,,,,,123,001,2023-03-03_11h46.50.661,eb_01,2022.2.4,60.00219153212062,
,,,0,0,0,0,14,0,14,0,,,,,,,,,,,,,,,,,,,,,,,,,,,,,,,,,,,,,,,,,,,,,,,,,,,,,,,,,,,123,001,2023-03-03_11h46.50.661,eb_01,2022.2.4,60.00219153212062,
4,stimuli/4.png,l,0,0,0,0,15,0,15,0,0,0,0,0,,,,,,,,,,,,,,,,,,108.31032871486968,108.31032871486968,108.31032871486968,108.31032871486968,s,0,0.6789674570027273,109.02696090491372,109.02696090491372,109.02696090491372,,,,,,,,,,,,,,,,,,,,,,,,,,,,123,001,2023-03-03_11h46.50.661,eb_01,2022.2.4,60.00219153212062,
,,,0,0,0,0,15,0,15,0,,,,,,,,,,,,,,,,,,,,,,,,,,,,,,,,,,,,,,,,,,,,,,,,,,,,,,,,,,,123,001,2023-03-03_11h46.50.661,eb_01,2022.2.4,60.00219153212062,
2,stimuli/2.png,s,0,0,0,0,16,0,16,0,0,0,0,0,,,,,,,,,,,,,,,,,,110.02691834364668,110.02691834364668,110.02691834364668,110.02691834364668,s,1,1.378451378957834,111.42685423005605,111.42685423005605,111.42685423005605,112.44347636838211,112.44347636838211,112.44347636838211,,,,,,,,,,,,,,,,,,,,,,,,,123,001,2023-03-03_11h46.50.661,eb_01,2022.2.4,60.00219153212062,
,,,0,0,0,0,16,0,16,0,,,,,,,,,,,,,,,,,,,,,,,,,,,,,,,,,,,,,,,,,,,,,,,,,,,,,,,,,,,123,001,2023-03-03_11h46.50.661,eb_01,2022.2.4,60.00219153212062,
4,stimuli/4.png,l,0,0,0,0,17,0,17,0,0,0,0,0,,,,,,,,,,,,,,,,,,112.44347636838211,112.44347636838211,112.44347636838211,112.44347636838211,l,1,0.569927895849105,113.043451435311,113.043451435311,113.043451435311,114.06002497530426,114.06002497530426,114.06002497530426,,,,,,,,,,,,,,,,,,,,,,,,,123,001,2023-03-03_11h46.50.661,eb_01,2022.2.4,60.00219153212062,
,,,0,0,0,0,17,0,17,0,,,,,,,,,,,,,,,,,,,,,,,,,,,,,,,,,,,,,,,,,,,,,,,,,,,,,,,,,,,123,001,2023-03-03_11h46.50.661,eb_01,2022.2.4,60.00219153212062,
1,stimuli/1.png,s,0,0,0,0,18,0,18,0,0,0,0,0,,,,,,,,,,,,,,,,,,114.06002497530426,114.06002497530426,114.06002497530426,114.06002497530426,s,1,2.521512186329346,116.62661661137827,116.62661661137827,116.62661661137827,,,,,,,,,,,,,,,,,,,,,,,,,,,,123,001,2023-03-03_11h46.50.661,eb_01,2022.2.4,60.00219153212062,
,,,0,0,0,0,18,0,18,0,,,,,,,,,,,,,,,,,,,,,,,,,,,,,,,,,,,,,,,,,,,,,,,,,,,,,,,,,,,123,001,2023-03-03_11h46.50.661,eb_01,2022.2.4,60.00219153212062,
4,stimuli/4.png,l,0,0,0,0,19,0,19,0,0,0,0,0,,,,,,,,,,,,,,,,,,117.64323361820425,117.64323361820425,117.64323361820425,117.64323361820425,l,1,0.594358970905887,118.25988153478829,118.25988153478829,118.25988153478829,119.25983323829132,119.25983323829132,119.25983323829132,,,,,,,,,,,,,,,,,,,,,,,,,123,001,2023-03-03_11h46.50.661,eb_01,2022.2.4,60.00219153212062,
,,,0,0,0,0,19,0,19,0,,,,,,,,,,,,,,,,,,,,,,,,,,,,,,,,,,,,,,,,,,,,,,,,,,,,,,,,,,,123,001,2023-03-03_11h46.50.661,eb_01,2022.2.4,60.00219153212062,
2,stimuli/2.png,s,0,0,0,0,20,0,20,0,0,0,0,0,,,,,,,,,,,,,,,,,,119.25983323829132,119.25983323829132,119.25983323829132,119.25983323829132,s,1,1.049819204636151,120.32645279576536,120.32645279576536,120.32645279576536,121.34310149715748,121.34310149715748,121.34310149715748,,,,,,,,,,,,,,,,,,,,,,,,,123,001,2023-03-03_11h46.50.661,eb_01,2022.2.4,60.00219153212062,
,,,0,0,0,0,20,0,20,0,,,,,,,,,,,,,,,,,,,,,,,,,,,,,,,,,,,,,,,,,,,,,,,,,,,,,,,,,,,123,001,2023-03-03_11h46.50.661,eb_01,2022.2.4,60.00219153212062,
4,stimuli/4.png,l,0,0,0,0,21,0,21,0,0,0,0,0,,,,,,,,,,,,,,,,,,121.34310149715748,121.34310149715748,121.34310149715748,121.34310149715748,l,1,0.4145780497638043,121.7763836865488,121.7763836865488,121.7763836865488,122.77634142711759,122.77634142711759,122.77634142711759,,,,,,,,,,,,,,,,,,,,,,,,,123,001,2023-03-03_11h46.50.661,eb_01,2022.2.4,60.00219153212062,
,,,0,0,0,0,21,0,21,0,,,,,,,,,,,,,,,,,,,,,,,,,,,,,,,,,,,,,,,,,,,,,,,,,,,,,,,,,,,123,001,2023-03-03_11h46.50.661,eb_01,2022.2.4,60.00219153212062,
2,stimuli/2.png,s,0,0,0,0,22,0,22,0,0,0,0,0,,,,,,,,,,,,,,,,,,122.77634142711759,122.77634142711759,122.77634142711759,122.77634142711759,s,1,0.44439086166676134,123.24298591766274,123.24298591766274,123.24298591766274,124.2426233922015,124.2426233922015,124.2426233922015,,,,,,,,,,,,,,,,,,,,,,,,,123,001,2023-03-03_11h46.50.661,eb_01,2022.2.4,60.00219153212062,
,,,0,0,0,0,22,0,22,0,,,,,,,,,,,,,,,,,,,,,,,,,,,,,,,,,,,,,,,,,,,,,,,,,,,,,,,,,,,123,001,2023-03-03_11h46.50.661,eb_01,2022.2.4,60.00219153212062,
3,stimuli/3.png,l,0,0,0,0,23,0,23,0,0,0,0,0,,,,,,,,,,,,,,,,,,124.2426233922015,124.2426233922015,124.2426233922015,124.2426233922015,l,1,0.5781745194108225,124.84289880288998,124.84289880288998,124.84289880288998,125.84286439162679,125.84286439162679,125.84286439162679,,,,,,,,,,,,,,,,,,,,,,,,,123,001,2023-03-03_11h46.50.661,eb_01,2022.2.4,60.00219153212062,
,,,0,0,0,0,23,0,23,0,,,,,,,,,,,,,,,,,,,,,,,,,,,,,,,,,,,,,,,,,,,,,,,,,,,,,,,,,,,123,001,2023-03-03_11h46.50.661,eb_01,2022.2.4,60.00219153212062,
2,stimuli/2.png,s,0,0,0,0,24,0,24,0,0,0,0,0,,,,,,,,,,,,,,,,,,125.84286439162679,125.84286439162679,125.84286439162679,125.84286439162679,s,1,0.5539852286165114,126.42617747565964,126.42617747565964,126.42617747565964,127.44279810471926,127.44279810471926,127.44279810471926,,,,,,,,,,,,,,,,,,,,,,,,,123,001,2023-03-03_11h46.50.661,eb_01,2022.2.4,60.00219153212062,
,,,0,0,0,0,24,0,24,0,,,,,,,,,,,,,,,,,,,,,,,,,,,,,,,,,,,,,,,,,,,,,,,,,,,,,,,,,,,123,001,2023-03-03_11h46.50.661,eb_01,2022.2.4,60.00219153212062,
1,stimuli/1.png,s,0,0,0,0,25,0,25,0,0,0,0,0,,,,,,,,,,,,,,,,,,127.44279810471926,127.44279810471926,127.44279810471926,127.44279810471926,s,1,0.5461234676185995,128.02610002018628,128.02610002018628,128.02610002018628,,,,,,,,,,,,,,,,,,,,,,,,,,,,123,001,2023-03-03_11h46.50.661,eb_01,2022.2.4,60.00219153212062,
,,,0,0,0,0,25,0,25,0,,,,,,,,,,,,,,,,,,,,,,,,,,,,,,,,,,,,,,,,,,,,,,,,,,,,,,,,,,,123,001,2023-03-03_11h46.50.661,eb_01,2022.2.4,60.00219153212062,
4,stimuli/4.png,l,0,0,0,0,26,0,26,0,0,0,0,0,,,,,,,,,,,,,,,,,,129.04271491404506,129.04271491404506,129.04271491404506,129.04271491404506,l,1,0.5142236441606656,129.5760323900322,129.5760323900322,129.5760323900322,130.59264939685818,130.59264939685818,130.59264939685818,,,,,,,,,,,,,,,,,,,,,,,,,123,001,2023-03-03_11h46.50.661,eb_01,2022.2.4,60.00219153212062,
,,,0,0,0,0,26,0,26,0,,,,,,,,,,,,,,,,,,,,,,,,,,,,,,,,,,,,,,,,,,,,,,,,,,,,,,,,,,,123,001,2023-03-03_11h46.50.661,eb_01,2022.2.4,60.00219153212062,
1,stimuli/1.png,s,0,0,0,0,27,0,27,0,0,0,0,0,,,,,,,,,,,,,,,,,,130.59264939685818,130.59264939685818,130.59264939685818,130.59264939685818,s,1,0.6523570034187287,131.29261326504638,131.29261326504638,131.29261326504638,,,,,,,,,,,,,,,,,,,,,,,,,,,,123,001,2023-03-03_11h46.50.661,eb_01,2022.2.4,60.00219153212062,
,,,0,0,0,0,27,0,27,0,,,,,,,,,,,,,,,,,,,,,,,,,,,,,,,,,,,,,,,,,,,,,,,,,,,,,,,,,,,123,001,2023-03-03_11h46.50.661,eb_01,2022.2.4,60.00219153212062,
2,stimuli/2.png,s,0,0,0,0,28,0,28,0,0,0,0,0,,,,,,,,,,,,,,,,,,132.2925746278779,132.2925746278779,132.2925746278779,132.2925746278779,s,1,0.5604642010875978,132.8758590358484,132.8758590358484,132.8758590358484,133.87583428391372,133.87583428391372,133.87583428391372,,,,,,,,,,,,,,,,,,,,,,,,,123,001,2023-03-03_11h46.50.661,eb_01,2022.2.4,60.00219153212062,
,,,0,0,0,0,28,0,28,0,,,,,,,,,,,,,,,,,,,,,,,,,,,,,,,,,,,,,,,,,,,,,,,,,,,,,,,,,,,123,001,2023-03-03_11h46.50.661,eb_01,2022.2.4,60.00219153212062,
3,stimuli/3.png,l,0,0,0,0,29,0,29,0,0,0,0,0,,,,,,,,,,,,,,,,,,133.87583428391372,133.87583428391372,133.87583428391372,133.87583428391372,l,1,0.4652655048412271,134.35914256848628,134.35914256848628,134.35914256848628,135.37576500864816,135.37576500864816,135.37576500864816,,,,,,,,,,,,,,,,,,,,,,,,,123,001,2023-03-03_11h46.50.661,eb_01,2022.2.4,60.00219153212062,
,,,0,0,0,0,29,0,29,0,,,,,,,,,,,,,,,,,,,,,,,,,,,,,,,,,,,,,,,,,,,,,,,,,,,,,,,,,,,123,001,2023-03-03_11h46.50.661,eb_01,2022.2.4,60.00219153212062,
4,stimuli/4.png,l,0,0,0,0,30,0,30,0,0,0,0,0,,,,,,,,,,,,,,,,,,135.37576500864816,135.37576500864816,135.37576500864816,135.37576500864816,l,1,0.5813910648284946,135.97574218857335,135.97574218857335,135.97574218857335,136.97572679407313,136.97572679407313,136.97572679407313,,,,,,,,,,,,,,,,,,,,,,,,,123,001,2023-03-03_11h46.50.661,eb_01,2022.2.4,60.00219153212062,
,,,0,0,0,0,30,0,30,0,,,,,,,,,,,,,,,,,,,,,,,,,,,,,,,,,,,,,,,,,,,,,,,,,,,,,,,,,,,123,001,2023-03-03_11h46.50.661,eb_01,2022.2.4,60.00219153212062,
3,stimuli/3.png,l,0,0,0,0,31,0,31,0,0,0,0,0,,,,,,,,,,,,,,,,,,136.97572679407313,136.97572679407313,136.97572679407313,136.97572679407313,l,1,0.525484873476671,137.52568482141942,137.52568482141942,137.52568482141942,138.5422888485482,138.5422888485482,138.5422888485482,,,,,,,,,,,,,,,,,,,,,,,,,123,001,2023-03-03_11h46.50.661,eb_01,2022.2.4,60.00219153212062,
,,,0,0,0,0,31,0,31,0,,,,,,,,,,,,,,,,,,,,,,,,,,,,,,,,,,,,,,,,,,,,,,,,,,,,,,,,,,,123,001,2023-03-03_11h46.50.661,eb_01,2022.2.4,60.00219153212062,
4,stimuli/4.png,l,0,0,0,0,32,0,32,0,0,0,0,0,,,,,,,,,,,,,,,,,,138.5422888485482,138.5422888485482,138.5422888485482,138.5422888485482,l,1,0.405962561868364,138.97560816584155,138.97560816584155,138.97560816584155,139.99223271899973,139.99223271899973,139.99223271899973,,,,,,,,,,,,,,,,,,,,,,,,,123,001,2023-03-03_11h46.50.661,eb_01,2022.2.4,60.00219153212062,
,,,0,0,0,0,32,0,32,0,,,,,,,,,,,,,,,,,,,,,,,,,,,,,,,,,,,,,,,,,,,,,,,,,,,,,,,,,,,123,001,2023-03-03_11h46.50.661,eb_01,2022.2.4,60.00219153212062,
1,stimuli/1.png,s,0,0,0,0,33,0,33,0,0,0,0,0,,,,,,,,,,,,,,,,,,139.99223271899973,139.99223271899973,139.99223271899973,139.99223271899973,s,1,0.5000365538580809,140.52553359305602,140.52553359305602,140.52553359305602,,,,,,,,,,,,,,,,,,,,,,,,,,,,123,001,2023-03-03_11h46.50.661,eb_01,2022.2.4,60.00219153212062,
,,,0,0,0,0,33,0,33,0,,,,,,,,,,,,,,,,,,,,,,,,,,,,,,,,,,,,,,,,,,,,,,,,,,,,,,,,,,,123,001,2023-03-03_11h46.50.661,eb_01,2022.2.4,60.00219153212062,
4,stimuli/4.png,l,0,0,0,0,34,0,34,0,0,0,0,0,,,,,,,,,,,,,,,,,,141.54210894418065,141.54210894418065,141.54210894418065,141.54210894418065,s,0,0.38221910793799907,141.94182266679127,141.94182266679127,141.94182266679127,142.94209282522206,142.94209282522206,142.94209282522206,,,,,,,,,,,,,,,,,,,,,,,,,123,001,2023-03-03_11h46.50.661,eb_01,2022.2.4,60.00219153212062,
,,,0,0,0,0,34,0,34,0,,,,,,,,,,,,,,,,,,,,,,,,,,,,,,,,,,,,,,,,,,,,,,,,,,,,,,,,,,,123,001,2023-03-03_11h46.50.661,eb_01,2022.2.4,60.00219153212062,
2,stimuli/2.png,s,0,0,0,0,35,0,35,0,0,0,0,0,,,,,,,,,,,,,,,,,,142.94209282522206,142.94209282522206,142.94209282522206,142.94209282522206,s,1,0.6223178017826285,143.5920562557294,143.5920562557294,143.5920562557294,144.60867416812107,144.60867416812107,144.60867416812107,,,,,,,,,,,,,,,,,,,,,,,,,123,001,2023-03-03_11h46.50.661,eb_01,2022.2.4,60.00219153212062,
,,,0,0,0,0,35,0,35,0,,,,,,,,,,,,,,,,,,,,,,,,,,,,,,,,,,,,,,,,,,,,,,,,,,,,,,,,,,,123,001,2023-03-03_11h46.50.661,eb_01,2022.2.4,60.00219153212062,
4,stimuli/4.png,l,0,0,0,0,36,0,36,0,0,0,0,0,,,,,,,,,,,,,,,,,,144.60867416812107,144.60867416812107,144.60867416812107,144.60867416812107,l,1,0.45976996939862147,145.091997243464,145.091997243464,145.091997243464,146.10861757068778,146.10861757068778,146.10861757068778,,,,,,,,,,,,,,,,,,,,,,,,,123,001,2023-03-03_11h46.50.661,eb_01,2022.2.4,60.00219153212062,
,,,0,0,0,0,36,0,36,0,,,,,,,,,,,,,,,,,,,,,,,,,,,,,,,,,,,,,,,,,,,,,,,,,,,,,,,,,,,123,001,2023-03-03_11h46.50.661,eb_01,2022.2.4,60.00219153212062,
1,stimuli/1.png,s,0,0,0,0,37,0,37,0,0,0,0,0,,,,,,,,,,,,,,,,,,146.10861757068778,146.10861757068778,146.10861757068778,146.10861757068778,s,1,0.5998795601481106,146.74192747016787,146.74192747016787,146.74192747016787,,,,,,,,,,,,,,,,,,,,,,,,,,,,123,001,2023-03-03_11h46.50.661,eb_01,2022.2.4,60.00219153212062,
,,,0,0,0,0,37,0,37,0,,,,,,,,,,,,,,,,,,,,,,,,,,,,,,,,,,,,,,,,,,,,,,,,,,,,,,,,,,,123,001,2023-03-03_11h46.50.661,eb_01,2022.2.4,60.00219153212062,
4,stimuli/4.png,l,0,0,0,0,38,0,38,0,0,0,0,0,,,,,,,,,,,,,,,,,,147.75854447696474,147.75854447696474,147.75854447696474,147.75854447696474,l,1,0.5580092307354789,148.34185182579677,148.34185182579677,148.34185182579677,149.3414923188975,149.3414923188975,149.3414923188975,,,,,,,,,,,,,,,,,,,,,,,,,123,001,2023-03-03_11h46.50.661,eb_01,2022.2.4,60.00219153212062,
,,,0,0,0,0,38,0,38,0,,,,,,,,,,,,,,,,,,,,,,,,,,,,,,,,,,,,,,,,,,,,,,,,,,,,,,,,,,,123,001,2023-03-03_11h46.50.661,eb_01,2022.2.4,60.00219153212062,
3,stimuli/3.png,l,0,0,0,0,39,0,39,0,0,0,0,0,,,,,,,,,,,,,,,,,,149.3414923188975,149.3414923188975,149.3414923188975,149.3414923188975,l,1,0.543090448831208,149.90844889523578,149.90844889523578,149.90844889523578,150.92507435393054,150.92507435393054,150.92507435393054,,,,,,,,,,,,,,,,,,,,,,,,,123,001,2023-03-03_11h46.50.661,eb_01,2022.2.4,60.00219153212062,
,,,0,0,0,0,39,0,39,0,,,,,,,,,,,,,,,,,,,,,,,,,,,,,,,,,,,,,,,,,,,,,,,,,,,,,,,,,,,123,001,2023-03-03_11h46.50.661,eb_01,2022.2.4,60.00219153212062,
8,stimuli/8.png,l,0,0,0,0,40,0,40,0,0,0,0,0,,,,,,,,,,,,,,,,,,150.92507435393054,150.92507435393054,150.92507435393054,150.92507435393054,s,0,0.7595812207146082,151.70837198308436,151.70837198308436,151.70837198308436,152.7080103632179,152.7080103632179,152.7080103632179,,,,,,,,,,,,,,,,,,,,,,,,,123,001,2023-03-03_11h46.50.661,eb_01,2022.2.4,60.00219153212062,
,,,0,0,0,0,40,0,40,0,,,,,,,,,,,,,,,,,,,,,,,,,,,,,,,,,,,,,,,,,,,,,,,,,,,,,,,,,,,123,001,2023-03-03_11h46.50.661,eb_01,2022.2.4,60.00219153212062,
3,stimuli/3.png,l,0,0,0,0,41,0,41,0,0,0,0,0,,,,,,,,,,,,,,,,,,152.7080103632179,152.7080103632179,152.7080103632179,152.7080103632179,l,1,0.5606951186200604,153.29163012988283,153.29163012988283,153.29163012988283,154.3082534756104,154.3082534756104,154.3082534756104,,,,,,,,,,,,,,,,,,,,,,,,,123,001,2023-03-03_11h46.50.661,eb_01,2022.2.4,60.00219153212062,
,,,0,0,0,0,41,0,41,0,,,,,,,,,,,,,,,,,,,,,,,,,,,,,,,,,,,,,,,,,,,,,,,,,,,,,,,,,,,123,001,2023-03-03_11h46.50.661,eb_01,2022.2.4,60.00219153212062,
8,stimuli/8.png,l,0,0,0,0,42,0,42,0,0,0,0,0,,,,,,,,,,,,,,,,,,154.3082534756104,154.3082534756104,154.3082534756104,154.3082534756104,l,1,0.5915082713181619,154.92489052546443,154.92489052546443,154.92489052546443,155.92484434196376,155.92484434196376,155.92484434196376,,,,,,,,,,,,,,,,,,,,,,,,,123,001,2023-03-03_11h46.50.661,eb_01,2022.2.4,60.00219153212062,
,,,0,0,0,0,42,0,42,0,,,,,,,,,,,,,,,,,,,,,,,,,,,,,,,,,,,,,,,,,,,,,,,,,,,,,,,,,,,123,001,2023-03-03_11h46.50.661,eb_01,2022.2.4,60.00219153212062,
3,stimuli/3.png,l,0,0,0,0,43,0,43,0,0,0,0,0,,,,,,,,,,,,,,,,,,155.92484434196376,155.92484434196376,155.92484434196376,155.92484434196376,l,1,0.4789669136807788,156.42482607986312,156.42482607986312,156.42482607986312,157.42477748153033,157.42477748153033,157.42477748153033,,,,,,,,,,,,,,,,,,,,,,,,,123,001,2023-03-03_11h46.50.661,eb_01,2022.2.4,60.00219153212062,
,,,0,0,0,0,43,0,43,0,,,,,,,,,,,,,,,,,,,,,,,,,,,,,,,,,,,,,,,,,,,,,,,,,,,,,,,,,,,123,001,2023-03-03_11h46.50.661,eb_01,2022.2.4,60.00219153212062,
2,stimuli/2.png,s,0,0,0,0,44,0,44,0,0,0,0,0,,,,,,,,,,,,,,,,,,157.42477748153033,157.42477748153033,157.42477748153033,157.42477748153033,s,1,0.5790740413067397,158.0247447002912,158.0247447002912,158.0247447002912,159.0247111946228,159.0247111946228,159.0247111946228,,,,,,,,,,,,,,,,,,,,,,,,,123,001,2023-03-03_11h46.50.661,eb_01,2022.2.4,60.00219153212062,
,,,0,0,0,0,44,0,44,0,,,,,,,,,,,,,,,,,,,,,,,,,,,,,,,,,,,,,,,,,,,,,,,,,,,,,,,,,,,123,001,2023-03-03_11h46.50.661,eb_01,2022.2.4,60.00219153212062,
3,stimuli/3.png,l,0,0,0,0,45,0,45,0,0,0,0,0,,,,,,,,,,,,,,,,,,159.0247111946228,159.0247111946228,159.0247111946228,159.0247111946228,s,0,0.5311802356154658,159.57468310717377,159.57468310717377,159.57468310717377,160.59130313253263,160.59130313253263,160.59130313253263,,,,,,,,,,,,,,,,,,,,,,,,,123,001,2023-03-03_11h46.50.661,eb_01,2022.2.4,60.00219153212062,
,,,0,0,0,0,45,0,45,0,,,,,,,,,,,,,,,,,,,,,,,,,,,,,,,,,,,,,,,,,,,,,,,,,,,,,,,,,,,123,001,2023-03-03_11h46.50.661,eb_01,2022.2.4,60.00219153212062,
8,stimuli/8.png,l,0,0,0,0,46,0,46,0,0,0,0,0,,,,,,,,,,,,,,,,,,160.59130313253263,160.59130313253263,160.59130313253263,160.59130313253263,l,1,0.6286458477552515,161.27461346969358,161.27461346969358,161.27461346969358,,,,,,,,,,,,,,,,,,,,,,,,,,,,123,001,2023-03-03_11h46.50.661,eb_01,2022.2.4,60.00219153212062,
,,,0,0,0,0,46,0,46,0,,,,,,,,,,,,,,,,,,,,,,,,,,,,,,,,,,,,,,,,,,,,,,,,,,,,,,,,,,,123,001,2023-03-03_11h46.50.661,eb_01,2022.2.4,60.00219153212062,
9,stimuli/9.png,l,0,0,0,0,47,0,47,0,0,0,0,0,,,,,,,,,,,,,,,,,,162.307886120514,162.307886120514,162.307886120514,162.307886120514,l,1,0.7681345269083977,163.12452673225198,163.12452673225198,163.12452673225198,,,,,,,,,,,,,,,,,,,,,,,,,,,,123,001,2023-03-03_11h46.50.661,eb_01,2022.2.4,60.00219153212062,
,,,0,0,0,0,47,0,47,0,,,,,,,,,,,,,,,,,,,,,,,,,,,,,,,,,,,,,,,,,,,,,,,,,,,,,,,,,,,123,001,2023-03-03_11h46.50.661,eb_01,2022.2.4,60.00219153212062,
6,stimuli/6.png,s,0,0,0,0,48,0,48,0,0,0,0,0,,,,,,,,,,,,,,,,,,164.14113257051213,164.14113257051213,164.14113257051213,164.14113257051213,s,1,0.8309501330659259,165.00776245136512,165.00776245136512,165.00776245136512,,,,,,,,,,,,,,,,,,,,,,,,,,,,123,001,2023-03-03_11h46.50.661,eb_01,2022.2.4,60.00219153212062,
,,,0,0,0,0,48,0,48,0,,,,,,,,,,,,,,,,,,,,,,,,,,,,,,,,,,,,,,,,,,,,,,,,,,,,,,,,,,,123,001,2023-03-03_11h46.50.661,eb_01,2022.2.4,60.00219153212062,
5,stimuli/5.png,s,0,0,0,0,49,0,49,0,0,0,0,0,,,,,,,,,,,,,,,,,,166.02439304155996,166.02439304155996,166.02439304155996,166.02439304155996,s,1,1.5637700949737336,167.6076119474601,167.6076119474601,167.6076119474601,168.62427966558607,168.62427966558607,168.62427966558607,,,,,,,,,,,,,,,,,,,,,,,,,123,001,2023-03-03_11h46.50.661,eb_01,2022.2.4,60.00219153212062,
,,,0,0,0,0,49,0,49,0,,,,,,,,,,,,,,,,,,,,,,,,,,,,,,,,,,,,,,,,,,,,,,,,,,,,,,,,,,,123,001,2023-03-03_11h46.50.661,eb_01,2022.2.4,60.00219153212062,
9,stimuli/9.png,l,0,0,0,0,50,0,50,0,0,0,0,0,,,,,,,,,,,,,,,,,,168.62427966558607,168.62427966558607,168.62427966558607,168.62427966558607,l,1,1.2189429042919073,169.89088437188184,169.89088437188184,169.89088437188184,,,,,,,,,,,,,,,,,,,,,,,,,,,,123,001,2023-03-03_11h46.50.661,eb_01,2022.2.4,60.00219153212062,
,,,0,0,0,0,50,0,50,0,,,,,,,,,,,,,,,,,,,,,,,,,,,,,,,,,,,,,,,,,,,,,,,,,,,,,,,,,,,123,001,2023-03-03_11h46.50.661,eb_01,2022.2.4,60.00219153212062,
8,stimuli/8.png,l,0,0,0,0,51,0,51,0,0,0,0,0,,,,,,,,,,,,,,,,,,170.90750590650714,170.90750590650714,170.90750590650714,170.90750590650714,s,0,1.0317958647792693,171.95746136808884,171.95746136808884,171.95746136808884,172.9740877323493,172.9740877323493,172.9740877323493,,,,,,,,,,,,,,,,,,,,,,,,,123,001,2023-03-03_11h46.50.661,eb_01,2022.2.4,60.00219153212062,
,,,0,0,0,0,51,0,51,0,,,,,,,,,,,,,,,,,,,,,,,,,,,,,,,,,,,,,,,,,,,,,,,,,,,,,,,,,,,123,001,2023-03-03_11h46.50.661,eb_01,2022.2.4,60.00219153212062,
6,stimuli/6.png,s,0,0,0,0,52,0,52,0,0,0,0,0,,,,,,,,,,,,,,,,,,172.9740877323493,172.9740877323493,172.9740877323493,172.9740877323493,s,1,0.7413034187629819,173.75737721149926,173.75737721149926,173.75737721149926,,,,,,,,,,,,,,,,,,,,,,,,,,,,123,001,2023-03-03_11h46.50.661,eb_01,2022.2.4,60.00219153212062,
,,,0,0,0,0,52,0,52,0,,,,,,,,,,,,,,,,,,,,,,,,,,,,,,,,,,,,,,,,,,,,,,,,,,,,,,,,,,,123,001,2023-03-03_11h46.50.661,eb_01,2022.2.4,60.00219153212062,
5,stimuli/5.png,s,0,0,0,0,53,0,53,0,0,0,0,0,,,,,,,,,,,,,,,,,,174.75702042126795,174.75702042126795,174.75702042126795,174.75702042126795,s,1,1.07841253047809,175.8572440641292,175.8572440641292,175.8572440641292,176.87392023415305,176.87392023415305,176.87392023415305,,,,,,,,,,,,,,,,,,,,,,,,,123,001,2023-03-03_11h46.50.661,eb_01,2022.2.4,60.00219153212062,
,,,0,0,0,0,53,0,53,0,,,,,,,,,,,,,,,,,,,,,,,,,,,,,,,,,,,,,,,,,,,,,,,,,,,,,,,,,,,123,001,2023-03-03_11h46.50.661,eb_01,2022.2.4,60.00219153212062,
6,stimuli/6.png,s,0,0,0,0,54,0,54,0,0,0,0,0,,,,,,,,,,,,,,,,,,176.87392023415305,176.87392023415305,176.87392023415305,176.87392023415305,l,0,0.6015632961061783,177.52388457019697,177.52388457019697,177.52388457019697,,,,,,,,,,,,,,,,,,,,,,,,,,,,123,001,2023-03-03_11h46.50.661,eb_01,2022.2.4,60.00219153212062,
,,,0,0,0,0,54,0,54,0,,,,,,,,,,,,,,,,,,,,,,,,,,,,,,,,,,,,,,,,,,,,,,,,,,,,,,,,,,,123,001,2023-03-03_11h46.50.661,eb_01,2022.2.4,60.00219153212062,
9,stimuli/9.png,l,0,0,0,0,55,0,55,0,0,0,0,0,,,,,,,,,,,,,,,,,,178.54050067145727,178.54050067145727,178.54050067145727,178.54050067145727,l,1,0.7830361032101791,179.3571280016622,179.3571280016622,179.3571280016622,,,,,,,,,,,,,,,,,,,,,,,,,,,,123,001,2023-03-03_11h46.50.661,eb_01,2022.2.4,60.00219153212062,
,,,0,0,0,0,55,0,55,0,,,,,,,,,,,,,,,,,,,,,,,,,,,,,,,,,,,,,,,,,,,,,,,,,,,,,,,,,,,123,001,2023-03-03_11h46.50.661,eb_01,2022.2.4,60.00219153212062,
8,stimuli/8.png,l,0,0,0,0,56,0,56,0,0,0,0,0,,,,,,,,,,,,,,,,,,180.37374983812333,180.37374983812333,180.37374983812333,180.37374983812333,l,1,1.0618613276164979,181.45705914899008,181.45705914899008,181.45705914899008,182.4736601576151,182.4736601576151,182.4736601576151,,,,,,,,,,,,,,,,,,,,,,,,,123,001,2023-03-03_11h46.50.661,eb_01,2022.2.4,60.00219153212062,
,,,0,0,0,0,56,0,56,0,,,,,,,,,,,,,,,,,,,,,,,,,,,,,,,,,,,,,,,,,,,,,,,,,,,,,,,,,,,123,001,2023-03-03_11h46.50.661,eb_01,2022.2.4,60.00219153212062,
6,stimuli/6.png,s,0,0,0,0,57,0,57,0,0,0,0,0,,,,,,,,,,,,,,,,,,182.4736601576151,182.4736601576151,182.4736601576151,182.4736601576151,s,1,0.48998937726719305,183.00696948356926,183.00696948356926,183.00696948356926,,,,,,,,,,,,,,,,,,,,,,,,,,,,123,001,2023-03-03_11h46.50.661,eb_01,2022.2.4,60.00219153212062,
,,,0,0,0,0,57,0,57,0,,,,,,,,,,,,,,,,,,,,,,,,,,,,,,,,,,,,,,,,,,,,,,,,,,,,,,,,,,,123,001,2023-03-03_11h46.50.661,eb_01,2022.2.4,60.00219153212062,
9,stimuli/9.png,l,0,0,0,0,58,0,58,0,0,0,0,0,,,,,,,,,,,,,,,,,,184.02359222559608,184.02359222559608,184.02359222559608,184.02359222559608,l,1,0.9631626460177358,185.0235460420954,185.0235460420954,185.0235460420954,,,,,,,,,,,,,,,,,,,,,,,,,,,,123,001,2023-03-03_11h46.50.661,eb_01,2022.2.4,60.00219153212062,
,,,0,0,0,0,58,0,58,0,,,,,,,,,,,,,,,,,,,,,,,,,,,,,,,,,,,,,,,,,,,,,,,,,,,,,,,,,,,123,001,2023-03-03_11h46.50.661,eb_01,2022.2.4,60.00219153212062,
5,stimuli/5.png,s,0,0,0,0,59,0,59,0,0,0,0,0,,,,,,,,,,,,,,,,,,186.02319106296636,186.02319106296636,186.02319106296636,186.02319106296636,s,1,0.6275790992949624,186.67347264653654,186.67347264653654,186.67347264653654,187.69010625526425,187.69010625526425,187.69010625526425,,,,,,,,,,,,,,,,,,,,,,,,,123,001,2023-03-03_11h46.50.661,eb_01,2022.2.4,60.00219153212062,
,,,0,0,0,0,59,0,59,0,,,,,,,,,,,,,,,,,,,,,,,,,,,,,,,,,,,,,,,,,,,,,,,,,,,,,,,,,,,123,001,2023-03-03_11h46.50.661,eb_01,2022.2.4,60.00219153212062,
9,stimuli/9.png,l,0,0,0,0,60,0,60,0,0,0,0,0,,,,,,,,,,,,,,,,,,187.69010625526425,187.69010625526425,187.69010625526425,187.69010625526425,l,1,0.5767186824814416,188.30674813478254,188.30674813478254,188.30674813478254,,,,,,,,,,,,,,,,,,,,,,,,,,,,123,001,2023-03-03_11h46.50.661,eb_01,2022.2.4,60.00219153212062,
,,,0,0,0,0,60,0,60,0,,,,,,,,,,,,,,,,,,,,,,,,,,,,,,,,,,,,,,,,,,,,,,,,,,,,,,,,,,,123,001,2023-03-03_11h46.50.661,eb_01,2022.2.4,60.00219153212062,
6,stimuli/6.png,s,0,0,0,0,61,0,61,0,0,0,0,0,,,,,,,,,,,,,,,,,,189.32335397304269,189.32335397304269,189.32335397304269,189.32335397304269,s,1,0.5915300047199707,189.95665753359208,189.95665753359208,189.95665753359208,,,,,,,,,,,,,,,,,,,,,,,,,,,,123,001,2023-03-03_11h46.50.661,eb_01,2022.2.4,60.00219153212062,
,,,0,0,0,0,61,0,61,0,,,,,,,,,,,,,,,,,,,,,,,,,,,,,,,,,,,,,,,,,,,,,,,,,,,,,,,,,,,123,001,2023-03-03_11h46.50.661,eb_01,2022.2.4,60.00219153212062,
9,stimuli/9.png,l,0,0,0,0,62,0,62,0,0,0,0,0,,,,,,,,,,,,,,,,,,190.97328933121753,190.97328933121753,190.97328933121753,190.97328933121753,l,1,1.149658588663442,192.15656118211336,192.15656118211336,192.15656118211336,,,,,,,,,,,,,,,,,,,,,,,,,,,,123,001,2023-03-03_11h46.50.661,eb_01,2022.2.4,60.00219153212062,
,,,0,0,0,0,62,0,62,0,,,,,,,,,,,,,,,,,,,,,,,,,,,,,,,,,,,,,,,,,,,,,,,,,,,,,,,,,,,123,001,2023-03-03_11h46.50.661,eb_01,2022.2.4,60.00219153212062,
8,stimuli/8.png,l,0,0,0,0,63,0,63,0,0,0,0,0,,,,,,,,,,,,,,,,,,193.1731884519395,193.1731884519395,193.1731884519395,193.1731884519395,l,1,0.6137940771877766,193.80648597545223,193.80648597545223,193.80648597545223,194.8231147545448,194.8231147545448,194.8231147545448,,,,,,,,,,,,,,,,,,,,,,,,,123,001,2023-03-03_11h46.50.661,eb_01,2022.2.4,60.00219153212062,
,,,0,0,0,0,63,0,63,0,,,,,,,,,,,,,,,,,,,,,,,,,,,,,,,,,,,,,,,,,,,,,,,,,,,,,,,,,,,123,001,2023-03-03_11h46.50.661,eb_01,2022.2.4,60.00219153212062,
6,stimuli/6.png,s,0,0,0,0,64,0,64,0,0,0,0,0,,,,,,,,,,,,,,,,,,194.8231147545448,194.8231147545448,194.8231147545448,194.8231147545448,s,1,0.6519365222193301,195.52308345239726,195.52308345239726,195.52308345239726,,,,,,,,,,,,,,,,,,,,,,,,,,,,123,001,2023-03-03_11h46.50.661,eb_01,2022.2.4,60.00219153212062,
,,,0,0,0,0,64,0,64,0,,,,,,,,,,,,,,,,,,,,,,,,,,,,,,,,,,,,,,,,,,,,,,,,,,,,,,,,,,,123,001,2023-03-03_11h46.50.661,eb_01,2022.2.4,60.00219153212062,
8,stimuli/8.png,l,0,0,0,0,65,0,65,0,0,0,0,0,,,,,,,,,,,,,,,,,,196.53969925179263,196.53969925179263,196.53969925179263,196.53969925179263,l,1,0.7114589123229962,197.27300912109786,197.27300912109786,197.27300912109786,198.2895923203614,198.2895923203614,198.2895923203614,,,,,,,,,,,,,,,,,,,,,,,,,123,001,2023-03-03_11h46.50.661,eb_01,2022.2.4,60.00219153212062,
,,,0,0,0,0,65,0,65,0,,,,,,,,,,,,,,,,,,,,,,,,,,,,,,,,,,,,,,,,,,,,,,,,,,,,,,,,,,,123,001,2023-03-03_11h46.50.661,eb_01,2022.2.4,60.00219153212062,
9,stimuli/9.png,l,0,0,0,0,66,0,66,0,0,0,0,0,,,,,,,,,,,,,,,,,,198.2895923203614,198.2895923203614,198.2895923203614,198.2895923203614,s,0,0.585573841643054,198.92292908477248,198.92292908477248,198.92292908477248,,,,,,,,,,,,,,,,,,,,,,,,,,,,123,001,2023-03-03_11h46.50.661,eb_01,2022.2.4,60.00219153212062,
,,,0,0,0,0,66,0,66,0,,,,,,,,,,,,,,,,,,,,,,,,,,,,,,,,,,,,,,,,,,,,,,,,,,,,,,,,,,,123,001,2023-03-03_11h46.50.661,eb_01,2022.2.4,60.00219153212062,
8,stimuli/8.png,l,0,0,0,0,67,0,67,0,0,0,0,0,,,,,,,,,,,,,,,,,,199.9225716908404,199.9225716908404,199.9225716908404,199.9225716908404,l,1,0.7516651261830702,200.70620679162676,200.70620679162676,200.70620679162676,201.70614279879373,201.70614279879373,201.70614279879373,,,,,,,,,,,,,,,,,,,,,,,,,123,001,2023-03-03_11h46.50.661,eb_01,2022.2.4,60.00219153212062,
,,,0,0,0,0,67,0,67,0,,,,,,,,,,,,,,,,,,,,,,,,,,,,,,,,,,,,,,,,,,,,,,,,,,,,,,,,,,,123,001,2023-03-03_11h46.50.661,eb_01,2022.2.4,60.00219153212062,
3,stimuli/3.png,l,0,0,0,0,68,0,68,0,0,0,0,0,,,,,,,,,,,,,,,,,,201.70614279879373,201.70614279879373,201.70614279879373,201.70614279879373,l,1,0.5681324743200094,202.30611303608748,202.30611303608748,202.30611303608748,203.3060538729187,203.3060538729187,203.3060538729187,,,,,,,,,,,,,,,,,,,,,,,,,123,001,2023-03-03_11h46.50.661,eb_01,2022.2.4,60.00219153212062,
,,,0,0,0,0,68,0,68,0,,,,,,,,,,,,,,,,,,,,,,,,,,,,,,,,,,,,,,,,,,,,,,,,,,,,,,,,,,,123,001,2023-03-03_11h46.50.661,eb_01,2022.2.4,60.00219153212062,
2,stimuli/2.png,s,0,0,0,0,69,0,69,0,0,0,0,0,,,,,,,,,,,,,,,,,,203.3060538729187,203.3060538729187,203.3060538729187,203.3060538729187,s,1,0.6162997588107828,203.93937222426757,203.93937222426757,203.93937222426757,204.95597745882696,204.95597745882696,204.95597745882696,,,,,,,,,,,,,,,,,,,,,,,,,123,001,2023-03-03_11h46.50.661,eb_01,2022.2.4,60.00219153212062,
,,,0,0,0,0,69,0,69,0,,,,,,,,,,,,,,,,,,,,,,,,,,,,,,,,,,,,,,,,,,,,,,,,,,,,,,,,,,,123,001,2023-03-03_11h46.50.661,eb_01,2022.2.4,60.00219153212062,
4,stimuli/4.png,l,0,0,0,0,70,0,70,0,0,0,0,0,,,,,,,,,,,,,,,,,,204.95597745882696,204.95597745882696,204.95597745882696,204.95597745882696,l,1,0.5823989519267343,205.55597425918677,205.55597425918677,205.55597425918677,206.5559301886533,206.5559301886533,206.5559301886533,,,,,,,,,,,,,,,,,,,,,,,,,123,001,2023-03-03_11h46.50.661,eb_01,2022.2.4,60.00219153212062,
,,,0,0,0,0,70,0,70,0,,,,,,,,,,,,,,,,,,,,,,,,,,,,,,,,,,,,,,,,,,,,,,,,,,,,,,,,,,,123,001,2023-03-03_11h46.50.661,eb_01,2022.2.4,60.00219153212062,
3,stimuli/3.png,l,0,0,0,0,71,0,71,0,0,0,0,0,,,,,,,,,,,,,,,,,,206.5559301886533,206.5559301886533,206.5559301886533,206.5559301886533,l,1,0.534491562837502,207.1225746489945,207.1225746489945,207.1225746489945,208.139147585287,208.139147585287,208.139147585287,,,,,,,,,,,,,,,,,,,,,,,,,123,001,2023-03-03_11h46.50.661,eb_01,2022.2.4,60.00219153212062,
,,,0,0,0,0,71,0,71,0,,,,,,,,,,,,,,,,,,,,,,,,,,,,,,,,,,,,,,,,,,,,,,,,,,,,,,,,,,,123,001,2023-03-03_11h46.50.661,eb_01,2022.2.4,60.00219153212062,
8,stimuli/8.png,l,0,0,0,0,72,0,72,0,0,0,0,0,,,,,,,,,,,,,,,,,,208.139147585287,208.139147585287,208.139147585287,208.139147585287,l,1,0.6793281713325996,208.8391579388408,208.8391579388408,208.8391579388408,209.85577886973624,209.85577886973624,209.85577886973624,,,,,,,,,,,,,,,,,,,,,,,,,123,001,2023-03-03_11h46.50.661,eb_01,2022.2.4,60.00219153212062,
,,,0,0,0,0,72,0,72,0,,,,,,,,,,,,,,,,,,,,,,,,,,,,,,,,,,,,,,,,,,,,,,,,,,,,,,,,,,,123,001,2023-03-03_11h46.50.661,eb_01,2022.2.4,60.00219153212062,
6,stimuli/6.png,s,0,0,0,0,73,0,73,0,0,0,0,0,,,,,,,,,,,,,,,,,,209.85577886973624,209.85577886973624,209.85577886973624,209.85577886973624,s,1,1.314780019572936,211.20572186479694,211.20572186479694,211.20572186479694,,,,,,,,,,,,,,,,,,,,,,,,,,,,123,001,2023-03-03_11h46.50.661,eb_01,2022.2.4,60.00219153212062,
,,,0,0,0,0,73,0,73,0,,,,,,,,,,,,,,,,,,,,,,,,,,,,,,,,,,,,,,,,,,,,,,,,,,,,,,,,,,,123,001,2023-03-03_11h46.50.661,eb_01,2022.2.4,60.00219153212062,
5,stimuli/5.png,s,0,0,0,0,74,0,74,0,0,0,0,0,,,,,,,,,,,,,,,,,,212.20536537643056,212.20536537643056,212.20536537643056,212.20536537643056,s,1,0.6692438668105751,212.90565132178017,212.90565132178017,212.90565132178017,213.92226832857705,213.92226832857705,213.92226832857705,,,,,,,,,,,,,,,,,,,,,,,,,123,001,2023-03-03_11h46.50.661,eb_01,2022.2.4,60.00219153212062,
,,,0,0,0,0,74,0,74,0,,,,,,,,,,,,,,,,,,,,,,,,,,,,,,,,,,,,,,,,,,,,,,,,,,,,,,,,,,,123,001,2023-03-03_11h46.50.661,eb_01,2022.2.4,60.00219153212062,
6,stimuli/6.png,s,0,0,0,0,75,0,75,0,0,0,0,0,,,,,,,,,,,,,,,,,,213.92226832857705,213.92226832857705,213.92226832857705,213.92226832857705,l,0,0.6243900225090329,214.58891426800983,214.58891426800983,214.58891426800983,,,,,,,,,,,,,,,,,,,,,,,,,,,,123,001,2023-03-03_11h46.50.661,eb_01,2022.2.4,60.00219153212062,
,,,0,0,0,0,75,0,75,0,,,,,,,,,,,,,,,,,,,,,,,,,,,,,,,,,,,,,,,,,,,,,,,,,,,,,,,,,,,123,001,2023-03-03_11h46.50.661,eb_01,2022.2.4,60.00219153212062,
8,stimuli/8.png,l,0,0,0,0,76,0,76,0,0,0,0,0,,,,,,,,,,,,,,,,,,215.6055225211021,215.6055225211021,215.6055225211021,215.6055225211021,s,0,0.5802283271041233,216.2054598564282,216.2054598564282,216.2054598564282,217.2221396486566,217.2221396486566,217.2221396486566,,,,,,,,,,,,,,,,,,,,,,,,,123,001,2023-03-03_11h46.50.661,eb_01,2022.2.4,60.00219153212062,
,,,0,0,0,0,76,0,76,0,,,,,,,,,,,,,,,,,,,,,,,,,,,,,,,,,,,,,,,,,,,,,,,,,,,,,,,,,,,123,001,2023-03-03_11h46.50.661,eb_01,2022.2.4,60.00219153212062,
6,stimuli/6.png,s,0,0,0,0,77,0,77,0,0,0,0,0,,,,,,,,,,,,,,,,,,217.2221396486566,217.2221396486566,217.2221396486566,217.2221396486566,s,1,1.4036388975800946,218.67205997457495,218.67205997457495,218.67205997457495,,,,,,,,,,,,,,,,,,,,,,,,,,,,123,001,2023-03-03_11h46.50.661,eb_01,2022.2.4,60.00219153212062,
,,,0,0,0,0,77,0,77,0,,,,,,,,,,,,,,,,,,,,,,,,,,,,,,,,,,,,,,,,,,,,,,,,,,,,,,,,,,,123,001,2023-03-03_11h46.50.661,eb_01,2022.2.4,60.00219153212062,
8,stimuli/8.png,l,0,0,0,0,78,0,78,0,0,0,0,0,,,,,,,,,,,,,,,,,,219.688676679536,219.688676679536,219.688676679536,219.688676679536,l,1,1.113193842524197,220.82197042988264,220.82197042988264,220.82197042988264,221.8385925682087,221.8385925682087,221.8385925682087,,,,,,,,,,,,,,,,,,,,,,,,,123,001,2023-03-03_11h46.50.661,eb_01,2022.2.4,60.00219153212062,
,,,0,0,0,0,78,0,78,0,,,,,,,,,,,,,,,,,,,,,,,,,,,,,,,,,,,,,,,,,,,,,,,,,,,,,,,,,,,123,001,2023-03-03_11h46.50.661,eb_01,2022.2.4,60.00219153212062,
9,stimuli/9.png,l,0,0,0,0,79,0,79,0,0,0,0,0,,,,,,,,,,,,,,,,,,221.8385925682087,221.8385925682087,221.8385925682087,221.8385925682087,l,1,1.3313091871968936,223.20519784803037,223.20519784803037,223.20519784803037,,,,,,,,,,,,,,,,,,,,,,,,,,,,123,001,2023-03-03_11h46.50.661,eb_01,2022.2.4,60.00219153212062,
,,,0,0,0,0,79,0,79,0,,,,,,,,,,,,,,,,,,,,,,,,,,,,,,,,,,,,,,,,,,,,,,,,,,,,,,,,,,,123,001,2023-03-03_11h46.50.661,eb_01,2022.2.4,60.00219153212062,
8,stimuli/8.png,l,0,0,0,0,80,0,80,0,0,0,0,0,,,,,,,,,,,,,,,,,,224.22180428999127,224.22180428999127,224.22180428999127,224.22180428999127,l,1,5.476346527924761,229.7215943512274,229.7215943512274,229.7215943512274,230.73820260431967,230.73820260431967,230.73820260431967,,,,,,,,,,,,,,,,,,,,,,,,,123,001,2023-03-03_11h46.50.661,eb_01,2022.2.4,60.00219153212062,
,,,0,0,0,0,80,0,80,0,,,,,,,,,,,,,,,,,,,,,,,,,,,,,,,,,,,,,,,,,,,,,,,,,,,,,,,,,,,123,001,2023-03-03_11h46.50.661,eb_01,2022.2.4,60.00219153212062,
9,stimuli/9.png,l,0,0,0,0,81,0,81,0,0,0,0,0,,,,,,,,,,,,,,,,,,230.73820260431967,230.73820260431967,230.73820260431967,230.73820260431967,l,1,0.7830524032760877,231.55482601042604,231.55482601042604,231.55482601042604,,,,,,,,,,,,,,,,,,,,,,,,,,,,123,001,2023-03-03_11h46.50.661,eb_01,2022.2.4,60.00219153212062,
,,,0,0,0,0,81,0,81,0,,,,,,,,,,,,,,,,,,,,,,,,,,,,,,,,,,,,,,,,,,,,,,,,,,,,,,,,,,,123,001,2023-03-03_11h46.50.661,eb_01,2022.2.4,60.00219153212062,
8,stimuli/8.png,l,0,0,0,0,82,0,82,0,0,0,0,0,,,,,,,,,,,,,,,,,,232.57144573391997,232.57144573391997,232.57144573391997,232.57144573391997,l,1,0.9978220094635617,233.58807240004535,233.58807240004535,233.58807240004535,234.5880286313477,234.5880286313477,234.5880286313477,,,,,,,,,,,,,,,,,,,,,,,,,123,001,2023-03-03_11h46.50.661,eb_01,2022.2.4,60.00219153212062,
,,,0,0,0,0,82,0,82,0,,,,,,,,,,,,,,,,,,,,,,,,,,,,,,,,,,,,,,,,,,,,,,,,,,,,,,,,,,,123,001,2023-03-03_11h46.50.661,eb_01,2022.2.4,60.00219153212062,
3,stimuli/3.png,l,0,0,0,0,83,0,83,0,0,0,0,0,,,,,,,,,,,,,,,,,,234.5880286313477,234.5880286313477,234.5880286313477,234.5880286313477,l,1,0.6452933417167515,235.25466974114534,235.25466974114534,235.25466974114534,236.27128584240563,236.27128584240563,236.27128584240563,,,,,,,,,,,,,,,,,,,,,,,,,123,001,2023-03-03_11h46.50.661,eb_01,2022.2.4,60.00219153212062,
,,,0,0,0,0,83,0,83,0,,,,,,,,,,,,,,,,,,,,,,,,,,,,,,,,,,,,,,,,,,,,,,,,,,,,,,,,,,,123,001,2023-03-03_11h46.50.661,eb_01,2022.2.4,60.00219153212062,
4,stimuli/4.png,l,0,0,0,0,84,0,84,0,0,0,0,0,,,,,,,,,,,,,,,,,,236.27128584240563,236.27128584240563,236.27128584240563,236.27128584240563,l,1,0.6500816356274299,236.93794174297363,236.93794174297363,236.93794174297363,237.95458531286567,237.95458531286567,237.95458531286567,,,,,,,,,,,,,,,,,,,,,,,,,123,001,2023-03-03_11h46.50.661,eb_01,2022.2.4,60.00219153212062,
,,,0,0,0,0,84,0,84,0,,,,,,,,,,,,,,,,,,,,,,,,,,,,,,,,,,,,,,,,,,,,,,,,,,,,,,,,,,,123,001,2023-03-03_11h46.50.661,eb_01,2022.2.4,60.00219153212062,
1,stimuli/1.png,s,0,0,0,0,85,0,85,0,0,0,0,0,,,,,,,,,,,,,,,,,,237.95458531286567,237.95458531286567,237.95458531286567,237.95458531286567,s,1,1.0708568484114949,239.07116576528642,239.07116576528642,239.07116576528642,,,,,,,,,,,,,,,,,,,,,,,,,,,,123,001,2023-03-03_11h46.50.661,eb_01,2022.2.4,60.00219153212062,
,,,0,0,0,0,85,0,85,0,,,,,,,,,,,,,,,,,,,,,,,,,,,,,,,,,,,,,,,,,,,,,,,,,,,,,,,,,,,123,001,2023-03-03_11h46.50.661,eb_01,2022.2.4,60.00219153212062,
2,stimuli/2.png,s,0,0,0,0,86,0,86,0,0,0,0,0,,,,,,,,,,,,,,,,,,240.0711201854865,240.0711201854865,240.0711201854865,240.0711201854865,s,1,1.0664027057937346,241.15440564995515,241.15440564995515,241.15440564995515,242.1710407679493,242.1710407679493,242.1710407679493,,,,,,,,,,,,,,,,,,,,,,,,,123,001,2023-03-03_11h46.50.661,eb_01,2022.2.4,60.00219153212062,
,,,0,0,0,0,86,0,86,0,,,,,,,,,,,,,,,,,,,,,,,,,,,,,,,,,,,,,,,,,,,,,,,,,,,,,,,,,,,123,001,2023-03-03_11h46.50.661,eb_01,2022.2.4,60.00219153212062,
4,stimuli/4.png,l,0,0,0,0,87,0,87,0,0,0,0,0,,,,,,,,,,,,,,,,,,242.1710407679493,242.1710407679493,242.1710407679493,242.1710407679493,l,1,0.5745245131256524,242.77102368307533,242.77102368307533,242.77102368307533,243.77096874584095,243.77096874584095,243.77096874584095,,,,,,,,,,,,,,,,,,,,,,,,,123,001,2023-03-03_11h46.50.661,eb_01,2022.2.4,60.00219153212062,
,,,0,0,0,0,87,0,87,0,,,,,,,,,,,,,,,,,,,,,,,,,,,,,,,,,,,,,,,,,,,,,,,,,,,,,,,,,,,123,001,2023-03-03_11h46.50.661,eb_01,2022.2.4,60.00219153212062,
2,stimuli/2.png,s,0,0,0,0,88,0,88,0,0,0,0,0,,,,,,,,,,,,,,,,,,243.77096874584095,243.77096874584095,243.77096874584095,243.77096874584095,s,1,0.5746926452266052,244.37093505903613,244.37093505903613,244.37093505903613,245.3875520658621,245.3875520658621,245.3875520658621,,,,,,,,,,,,,,,,,,,,,,,,,123,001,2023-03-03_11h46.50.661,eb_01,2022.2.4,60.00219153212062,
,,,0,0,0,0,88,0,88,0,,,,,,,,,,,,,,,,,,,,,,,,,,,,,,,,,,,,,,,,,,,,,,,,,,,,,,,,,,,123,001,2023-03-03_11h46.50.661,eb_01,2022.2.4,60.00219153212062,
4,stimuli/4.png,l,0,0,0,0,89,0,89,0,0,0,0,0,,,,,,,,,,,,,,,,,,245.3875520658621,245.3875520658621,245.3875520658621,245.3875520658621,l,1,0.614102570922114,246.02086619127658,246.02086619127658,246.02086619127658,247.03750493153348,247.03750493153348,247.03750493153348,,,,,,,,,,,,,,,,,,,,,,,,,123,001,2023-03-03_11h46.50.661,eb_01,2022.2.4,60.00219153212062,
,,,0,0,0,0,89,0,89,0,,,,,,,,,,,,,,,,,,,,,,,,,,,,,,,,,,,,,,,,,,,,,,,,,,,,,,,,,,,123,001,2023-03-03_11h46.50.661,eb_01,2022.2.4,60.00219153212062,
1,stimuli/1.png,s,0,0,0,0,90,0,90,0,0,0,0,0,,,,,,,,,,,,,,,,,,247.03750493153348,247.03750493153348,247.03750493153348,247.03750493153348,s,1,0.7632070787658449,247.8374467342801,247.8374467342801,247.8374467342801,,,,,,,,,,,,,,,,,,,,,,,,,,,,123,001,2023-03-03_11h46.50.661,eb_01,2022.2.4,60.00219153212062,
,,,0,0,0,0,90,0,90,0,,,,,,,,,,,,,,,,,,,,,,,,,,,,,,,,,,,,,,,,,,,,,,,,,,,,,,,,,,,123,001,2023-03-03_11h46.50.661,eb_01,2022.2.4,60.00219153212062,
4,stimuli/4.png,l,0,0,0,0,91,0,91,0,0,0,0,0,,,,,,,,,,,,,,,,,,248.85406706147478,248.85406706147478,248.85406706147478,248.85406706147478,l,1,1.0107304505072534,249.8873623512627,249.8873623512627,249.8873623512627,250.88731888443,250.88731888443,250.88731888443,,,,,,,,,,,,,,,,,,,,,,,,,123,001,2023-03-03_11h46.50.661,eb_01,2022.2.4,60.00219153212062,
,,,0,0,0,0,91,0,91,0,,,,,,,,,,,,,,,,,,,,,,,,,,,,,,,,,,,,,,,,,,,,,,,,,,,,,,,,,,,123,001,2023-03-03_11h46.50.661,eb_01,2022.2.4,60.00219153212062,
2,stimuli/2.png,s,0,0,0,0,92,0,92,0,0,0,0,0,,,,,,,,,,,,,,,,,,250.88731888443,250.88731888443,250.88731888443,250.88731888443,s,1,0.6255289138352964,251.53730314280256,251.53730314280256,251.53730314280256,252.5539110940299,252.5539110940299,252.5539110940299,,,,,,,,,,,,,,,,,,,,,,,,,123,001,2023-03-03_11h46.50.661,eb_01,2022.2.4,60.00219153212062,
,,,0,0,0,0,92,0,92,0,,,,,,,,,,,,,,,,,,,,,,,,,,,,,,,,,,,,,,,,,,,,,,,,,,,,,,,,,,,123,001,2023-03-03_11h46.50.661,eb_01,2022.2.4,60.00219153212062,
1,stimuli/1.png,s,0,0,0,0,93,0,93,0,0,0,0,0,,,,,,,,,,,,,,,,,,252.5539110940299,252.5539110940299,252.5539110940299,252.5539110940299,s,1,1.3190141113882419,253.92051969424938,253.92051969424938,253.92051969424938,,,,,,,,,,,,,,,,,,,,,,,,,,,,123,001,2023-03-03_11h46.50.661,eb_01,2022.2.4,60.00219153212062,
,,,0,0,0,0,93,0,93,0,,,,,,,,,,,,,,,,,,,,,,,,,,,,,,,,,,,,,,,,,,,,,,,,,,,,,,,,,,,123,001,2023-03-03_11h46.50.661,eb_01,2022.2.4,60.00219153212062,
4,stimuli/4.png,l,0,0,0,0,94,0,94,0,0,0,0,0,,,,,,,,,,,,,,,,,,254.93713760661194,254.93713760661194,254.93713760661194,254.93713760661194,l,1,0.5358375252981205,255.503782670683,255.503782670683,255.503782670683,256.5204238257429,256.5204238257429,256.5204238257429,,,,,,,,,,,,,,,,,,,,,,,,,123,001,2023-03-03_11h46.50.661,eb_01,2022.2.4,60.00219153212062,
,,,0,0,0,0,94,0,94,0,,,,,,,,,,,,,,,,,,,,,,,,,,,,,,,,,,,,,,,,,,,,,,,,,,,,,,,,,,,123,001,2023-03-03_11h46.50.661,eb_01,2022.2.4,60.00219153212062,
1,stimuli/1.png,s,0,0,0,0,95,0,95,0,0,0,0,0,,,,,,,,,,,,,,,,,,256.5204238257429,256.5204238257429,256.5204238257429,256.5204238257429,s,1,0.5525948937574867,257.12037444260204,257.12037444260204,257.12037444260204,,,,,,,,,,,,,,,,,,,,,,,,,,,,123,001,2023-03-03_11h46.50.661,eb_01,2022.2.4,60.00219153212062,
,,,0,0,0,0,95,0,95,0,,,,,,,,,,,,,,,,,,,,,,,,,,,,,,,,,,,,,,,,,,,,,,,,,,,,,,,,,,,123,001,2023-03-03_11h46.50.661,eb_01,2022.2.4,60.00219153212062,
2,stimuli/2.png,s,0,0,0,0,96,0,96,0,0,0,0,0,,,,,,,,,,,,,,,,,,258.1203348998388,258.1203348998388,258.1203348998388,258.1203348998388,l,0,2.096783906861674,260.23690388185787,260.23690388185787,260.23690388185787,261.2535396035528,261.2535396035528,261.2535396035528,,,,,,,,,,,,,,,,,,,,,,,,,123,001,2023-03-03_11h46.50.661,eb_01,2022.2.4,60.00219153212062,
,,,0,0,0,0,96,0,96,0,,,,,,,,,,,,,,,,,,,,,,,,,,,,,,,,,,,,,,,,,,,,,,,,,,,,,,,,,,,123,001,2023-03-03_11h46.50.661,eb_01,2022.2.4,60.00219153212062,
4,stimuli/4.png,l,0,0,0,0,97,0,97,0,0,0,0,0,,,,,,,,,,,,,,,,,,261.2535396035528,261.2535396035528,261.2535396035528,261.2535396035528,l,1,0.4756317400606349,261.7531920198526,261.7531920198526,261.7531920198526,262.75345553751686,262.75345553751686,262.75345553751686,,,,,,,,,,,,,,,,,,,,,,,,,123,001,2023-03-03_11h46.50.661,eb_01,2022.2.4,60.00219153212062,
,,,0,0,0,0,97,0,97,0,,,,,,,,,,,,,,,,,,,,,,,,,,,,,,,,,,,,,,,,,,,,,,,,,,,,,,,,,,,123,001,2023-03-03_11h46.50.661,eb_01,2022.2.4,60.00219153212062,
2,stimuli/2.png,s,0,0,0,0,98,0,98,0,0,0,0,0,,,,,,,,,,,,,,,,,,262.75345553751686,262.75345553751686,262.75345553751686,262.75345553751686,s,1,0.990783099696273,263.7700794869452,263.7700794869452,263.7700794869452,264.78673543280456,264.78673543280456,264.78673543280456,,,,,,,,,,,,,,,,,,,,,,,,,123,001,2023-03-03_11h46.50.661,eb_01,2022.2.4,60.00219153212062,
,,,0,0,0,0,98,0,98,0,,,,,,,,,,,,,,,,,,,,,,,,,,,,,,,,,,,,,,,,,,,,,,,,,,,,,,,,,,,123,001,2023-03-03_11h46.50.661,eb_01,2022.2.4,60.00219153212062,
1,stimuli/1.png,s,0,0,0,0,99,0,99,0,0,0,0,0,,,,,,,,,,,,,,,,,,264.78673543280456,264.78673543280456,264.78673543280456,264.78673543280456,s,1,0.7895911426458042,265.62000301250373,265.62000301250373,265.62000301250373,,,,,,,,,,,,,,,,,,,,,,,,,,,,123,001,2023-03-03_11h46.50.661,eb_01,2022.2.4,60.00219153212062,
,,,0,0,0,0,99,0,99,0,,,,,,,,,,,,,,,,,,,,,,,,,,,,,,,,,,,,,,,,,,,,,,,,,,,,,,,,,,,123,001,2023-03-03_11h46.50.661,eb_01,2022.2.4,60.00219153212062,
,,,0,0,0,0,,,,,,,,,,,,,,,,,,,,,,,,,,,,,,,,,,,,,,,266.6199550178717,266.6199550178717,return,3.140481352369534,,,,,,,,,,,,,,,,,,,,,123,001,2023-03-03_11h46.50.661,eb_01,2022.2.4,60.00219153212062,
2,stimuli/2.png,s,1,0,1,0,0,0,0,0,0,0,0,0,,,,,,,,,,,,,,,,,,269.80313872770057,269.80313872770057,269.80313872770057,269.80313872770057,s,1,1.5653355045360513,271.3864204190322,271.3864204190322,271.3864204190322,272.3863778577652,272.3863778577652,272.3863778577652,,,,,,,,,,,,,,,,,,,,,,,,,123,001,2023-03-03_11h46.50.661,eb_01,2022.2.4,60.00219153212062,
,,,1,0,1,0,0,0,0,0,,,,,,,,,,,,,,,,,,,,,,,,,,,,,,,,,,,,,,,,,,,,,,,,,,,,,,,,,,,123,001,2023-03-03_11h46.50.661,eb_01,2022.2.4,60.00219153212062,
3,stimuli/3.png,l,1,0,1,0,1,0,1,0,0,0,0,0,,,,,,,,,,,,,,,,,,272.3863778577652,272.3863778577652,272.3863778577652,272.3863778577652,l,1,0.5181543737417087,272.9363524870132,272.9363524870132,272.9363524870132,273.93631928318064,273.93631928318064,273.93631928318064,,,,,,,,,,,,,,,,,,,,,,,,,123,001,2023-03-03_11h46.50.661,eb_01,2022.2.4,60.00219153212062,
,,,1,0,1,0,1,0,1,0,,,,,,,,,,,,,,,,,,,,,,,,,,,,,,,,,,,,,,,,,,,,,,,,,,,,,,,,,,,123,001,2023-03-03_11h46.50.661,eb_01,2022.2.4,60.00219153212062,
2,stimuli/2.png,s,1,0,1,0,2,0,2,0,0,0,0,0,,,,,,,,,,,,,,,,,,273.93631928318064,273.93631928318064,273.93631928318064,273.93631928318064,s,1,0.768268851476023,274.736283121194,274.736283121194,274.736283121194,275.7528823186876,275.7528823186876,275.7528823186876,,,,,,,,,,,,,,,,,,,,,,,,,123,001,2023-03-03_11h46.50.661,eb_01,2022.2.4,60.00219153212062,
,,,1,0,1,0,2,0,2,0,,,,,,,,,,,,,,,,,,,,,,,,,,,,,,,,,,,,,,,,,,,,,,,,,,,,,,,,,,,123,001,2023-03-03_11h46.50.661,eb_01,2022.2.4,60.00219153212062,
4,stimuli/4.png,l,1,0,1,0,3,0,3,0,0,0,0,0,,,,,,,,,,,,,,,,,,275.7528823186876,275.7528823186876,275.7528823186876,275.7528823186876,l,1,0.5117541848740075,276.2862076428428,276.2862076428428,276.2862076428428,277.3028258570994,277.3028258570994,277.3028258570994,,,,,,,,,,,,,,,,,,,,,,,,,123,001,2023-03-03_11h46.50.661,eb_01,2022.2.4,60.00219153212062,
,,,1,0,1,0,3,0,3,0,,,,,,,,,,,,,,,,,,,,,,,,,,,,,,,,,,,,,,,,,,,,,,,,,,,,,,,,,,,123,001,2023-03-03_11h46.50.661,eb_01,2022.2.4,60.00219153212062,
1,stimuli/1.png,s,1,0,1,0,4,0,4,0,0,0,0,0,,,,,,,,,,,,,,,,,,277.3028258570994,277.3028258570994,277.3028258570994,277.3028258570994,s,1,0.6489273498009425,277.98616124805994,277.98616124805994,277.98616124805994,,,,,,,,,,,,,,,,,,,,,,,,,,,,123,001,2023-03-03_11h46.50.661,eb_01,2022.2.4,60.00219153212062,
,,,1,0,1,0,4,0,4,0,,,,,,,,,,,,,,,,,,,,,,,,,,,,,,,,,,,,,,,,,,,,,,,,,,,,,,,,,,,123,001,2023-03-03_11h46.50.661,eb_01,2022.2.4,60.00219153212062,
2,stimuli/2.png,s,1,0,1,0,5,0,5,0,0,0,0,0,,,,,,,,,,,,,,,,,,278.98610087746056,278.98610087746056,278.98610087746056,278.98610087746056,l,0,0.46962245082249865,279.4860705412284,279.4860705412284,279.4860705412284,280.5026923776895,280.5026923776895,280.5026923776895,,,,,,,,,,,,,,,,,,,,,,,,,123,001,2023-03-03_11h46.50.661,eb_01,2022.2.4,60.00219153212062,
,,,1,0,1,0,5,0,5,0,,,,,,,,,,,,,,,,,,,,,,,,,,,,,,,,,,,,,,,,,,,,,,,,,,,,,,,,,,,123,001,2023-03-03_11h46.50.661,eb_01,2022.2.4,60.00219153212062,
4,stimuli/4.png,l,1,0,1,0,6,0,6,0,0,0,0,0,,,,,,,,,,,,,,,,,,280.5026923776895,280.5026923776895,280.5026923776895,280.5026923776895,l,1,1.1691169376135804,281.70231862334185,281.70231862334185,281.70231862334185,282.702595724375,282.702595724375,282.702595724375,,,,,,,,,,,,,,,,,,,,,,,,,123,001,2023-03-03_11h46.50.661,eb_01,2022.2.4,60.00219153212062,
,,,1,0,1,0,6,0,6,0,,,,,,,,,,,,,,,,,,,,,,,,,,,,,,,,,,,,,,,,,,,,,,,,,,,,,,,,,,,123,001,2023-03-03_11h46.50.661,eb_01,2022.2.4,60.00219153212062,
2,stimuli/2.png,s,1,0,1,0,7,0,7,0,0,0,0,0,,,,,,,,,,,,,,,,,,282.702595724375,282.702595724375,282.702595724375,282.702595724375,s,1,0.49726343050133437,283.21924789706827,283.21924789706827,283.21924789706827,284.2358818076609,284.2358818076609,284.2358818076609,,,,,,,,,,,,,,,,,,,,,,,,,123,001,2023-03-03_11h46.50.661,eb_01,2022.2.4,60.00219153212062,
,,,1,0,1,0,7,0,7,0,,,,,,,,,,,,,,,,,,,,,,,,,,,,,,,,,,,,,,,,,,,,,,,,,,,,,,,,,,,123,001,2023-03-03_11h46.50.661,eb_01,2022.2.4,60.00219153212062,
4,stimuli/4.png,l,1,0,1,0,8,0,8,0,0,0,0,0,,,,,,,,,,,,,,,,,,284.2358818076609,284.2358818076609,284.2358818076609,284.2358818076609,l,1,0.556007039907854,284.8191770823614,284.8191770823614,284.8191770823614,285.81917013973,285.81917013973,285.81917013973,,,,,,,,,,,,,,,,,,,,,,,,,123,001,2023-03-03_11h46.50.661,eb_01,2022.2.4,60.00219153212062,
,,,1,0,1,0,8,0,8,0,,,,,,,,,,,,,,,,,,,,,,,,,,,,,,,,,,,,,,,,,,,,,,,,,,,,,,,,,,,123,001,2023-03-03_11h46.50.661,eb_01,2022.2.4,60.00219153212062,
3,stimuli/3.png,l,1,0,1,0,9,0,9,0,0,0,0,0,,,,,,,,,,,,,,,,,,285.81917013973,285.81917013973,285.81917013973,285.81917013973,l,1,0.5168361817486584,286.3690973780758,286.3690973780758,286.3690973780758,287.3690584390424,287.3690584390424,287.3690584390424,,,,,,,,,,,,,,,,,,,,,,,,,123,001,2023-03-03_11h46.50.661,eb_01,2022.2.4,60.00219153212062,
,,,1,0,1,0,9,0,9,0,,,,,,,,,,,,,,,,,,,,,,,,,,,,,,,,,,,,,,,,,,,,,,,,,,,,,,,,,,,123,001,2023-03-03_11h46.50.661,eb_01,2022.2.4,60.00219153212062,
2,stimuli/2.png,s,1,0,1,0,10,0,10,0,0,0,0,0,,,,,,,,,,,,,,,,,,287.3690584390424,287.3690584390424,287.3690584390424,287.3690584390424,s,1,0.47094547245069407,287.869034139876,287.869034139876,287.869034139876,288.8856641263701,288.8856641263701,288.8856641263701,,,,,,,,,,,,,,,,,,,,,,,,,123,001,2023-03-03_11h46.50.661,eb_01,2022.2.4,60.00219153212062,
,,,1,0,1,0,10,0,10,0,,,,,,,,,,,,,,,,,,,,,,,,,,,,,,,,,,,,,,,,,,,,,,,,,,,,,,,,,,,123,001,2023-03-03_11h46.50.661,eb_01,2022.2.4,60.00219153212062,
1,stimuli/1.png,s,1,0,1,0,11,0,11,0,0,0,0,0,,,,,,,,,,,,,,,,,,288.8856641263701,288.8856641263701,288.8856641263701,288.8856641263701,s,1,0.6513971109234262,289.58562618345604,289.58562618345604,289.58562618345604,,,,,,,,,,,,,,,,,,,,,,,,,,,,123,001,2023-03-03_11h46.50.661,eb_01,2022.2.4,60.00219153212062,
,,,1,0,1,0,11,0,11,0,,,,,,,,,,,,,,,,,,,,,,,,,,,,,,,,,,,,,,,,,,,,,,,,,,,,,,,,,,,123,001,2023-03-03_11h46.50.661,eb_01,2022.2.4,60.00219153212062,
2,stimuli/2.png,s,1,0,1,0,12,0,12,0,0,0,0,0,,,,,,,,,,,,,,,,,,290.58558090549195,290.58558090549195,290.58558090549195,290.58558090549195,s,1,0.5345332185679581,291.15222627139883,291.15222627139883,291.15222627139883,292.15218310643104,292.15218310643104,292.15218310643104,,,,,,,,,,,,,,,,,,,,,,,,,123,001,2023-03-03_11h46.50.661,eb_01,2022.2.4,60.00219153212062,
,,,1,0,1,0,12,0,12,0,,,,,,,,,,,,,,,,,,,,,,,,,,,,,,,,,,,,,,,,,,,,,,,,,,,,,,,,,,,123,001,2023-03-03_11h46.50.661,eb_01,2022.2.4,60.00219153212062,
3,stimuli/3.png,l,1,0,1,0,13,0,13,0,0,0,0,0,,,,,,,,,,,,,,,,,,292.15218310643104,292.15218310643104,292.15218310643104,292.15218310643104,l,1,0.5439781984605361,292.7188142852392,292.7188142852392,292.7188142852392,293.73543612172944,293.73543612172944,293.73543612172944,,,,,,,,,,,,,,,,,,,,,,,,,123,001,2023-03-03_11h46.50.661,eb_01,2022.2.4,60.00219153212062,
,,,1,0,1,0,13,0,13,0,,,,,,,,,,,,,,,,,,,,,,,,,,,,,,,,,,,,,,,,,,,,,,,,,,,,,,,,,,,123,001,2023-03-03_11h46.50.661,eb_01,2022.2.4,60.00219153212062,
4,stimuli/4.png,l,1,0,1,0,14,0,14,0,0,0,0,0,,,,,,,,,,,,,,,,,,293.73543612172944,293.73543612172944,293.73543612172944,293.73543612172944,l,1,0.567759987723548,294.33540817012545,294.33540817012545,294.33540817012545,295.33538130522356,295.33538130522356,295.33538130522356,,,,,,,,,,,,,,,,,,,,,,,,,123,001,2023-03-03_11h46.50.661,eb_01,2022.2.4,60.00219153212062,
,,,1,0,1,0,14,0,14,0,,,,,,,,,,,,,,,,,,,,,,,,,,,,,,,,,,,,,,,,,,,,,,,,,,,,,,,,,,,123,001,2023-03-03_11h46.50.661,eb_01,2022.2.4,60.00219153212062,
2,stimuli/2.png,s,1,0,1,0,15,0,15,0,0,0,0,0,,,,,,,,,,,,,,,,,,295.33538130522356,295.33538130522356,295.33538130522356,295.33538130522356,s,1,0.439863066887483,295.80203153096954,295.80203153096954,295.80203153096954,296.80197749927174,296.80197749927174,296.80197749927174,,,,,,,,,,,,,,,,,,,,,,,,,123,001,2023-03-03_11h46.50.661,eb_01,2022.2.4,60.00219153212062,
,,,1,0,1,0,15,0,15,0,,,,,,,,,,,,,,,,,,,,,,,,,,,,,,,,,,,,,,,,,,,,,,,,,,,,,,,,,,,123,001,2023-03-03_11h46.50.661,eb_01,2022.2.4,60.00219153212062,
3,stimuli/3.png,l,1,0,1,0,16,0,16,0,0,0,0,0,,,,,,,,,,,,,,,,,,296.80197749927174,296.80197749927174,296.80197749927174,296.80197749927174,l,1,0.44533052999759093,297.26862591388635,297.26862591388635,297.26862591388635,298.2682600680855,298.2682600680855,298.2682600680855,,,,,,,,,,,,,,,,,,,,,,,,,123,001,2023-03-03_11h46.50.661,eb_01,2022.2.4,60.00219153212062,
,,,1,0,1,0,16,0,16,0,,,,,,,,,,,,,,,,,,,,,,,,,,,,,,,,,,,,,,,,,,,,,,,,,,,,,,,,,,,123,001,2023-03-03_11h46.50.661,eb_01,2022.2.4,60.00219153212062,
8,stimuli/8.png,l,1,0,1,0,17,0,17,0,0,0,0,0,,,,,,,,,,,,,,,,,,298.2682600680855,298.2682600680855,298.2682600680855,298.2682600680855,l,1,0.5470981509133708,298.83521543699317,298.83521543699317,298.83521543699317,299.8518623272539,299.8518623272539,299.8518623272539,,,,,,,,,,,,,,,,,,,,,,,,,123,001,2023-03-03_11h46.50.661,eb_01,2022.2.4,60.00219153212062,
,,,1,0,1,0,17,0,17,0,,,,,,,,,,,,,,,,,,,,,,,,,,,,,,,,,,,,,,,,,,,,,,,,,,,,,,,,,,,123,001,2023-03-03_11h46.50.661,eb_01,2022.2.4,60.00219153212062,
6,stimuli/6.png,s,1,0,1,0,18,0,18,0,0,0,0,0,,,,,,,,,,,,,,,,,,299.8518623272539,299.8518623272539,299.8518623272539,299.8518623272539,s,1,0.5635261977440678,300.4518147552444,300.4518147552444,300.4518147552444,,,,,,,,,,,,,,,,,,,,,,,,,,,,123,001,2023-03-03_11h46.50.661,eb_01,2022.2.4,60.00219153212062,
,,,1,0,1,0,18,0,18,0,,,,,,,,,,,,,,,,,,,,,,,,,,,,,,,,,,,,,,,,,,,,,,,,,,,,,,,,,,,123,001,2023-03-03_11h46.50.661,eb_01,2022.2.4,60.00219153212062,
9,stimuli/9.png,l,1,0,1,0,19,0,19,0,0,0,0,0,,,,,,,,,,,,,,,,,,301.46844987323857,301.46844987323857,301.46844987323857,301.46844987323857,l,1,0.6589869023882784,302.168456000858,302.168456000858,302.168456000858,,,,,,,,,,,,,,,,,,,,,,,,,,,,123,001,2023-03-03_11h46.50.661,eb_01,2022.2.4,60.00219153212062,
,,,1,0,1,0,19,0,19,0,,,,,,,,,,,,,,,,,,,,,,,,,,,,,,,,,,,,,,,,,,,,,,,,,,,,,,,,,,,123,001,2023-03-03_11h46.50.661,eb_01,2022.2.4,60.00219153212062,
5,stimuli/5.png,s,1,0,1,0,20,0,20,0,0,0,0,0,,,,,,,,,,,,,,,,,,303.1680542345275,303.1680542345275,303.1680542345275,303.1680542345275,s,1,0.631439195247367,303.8183240458311,303.8183240458311,303.8183240458311,304.8349715397926,304.8349715397926,304.8349715397926,,,,,,,,,,,,,,,,,,,,,,,,,123,001,2023-03-03_11h46.50.661,eb_01,2022.2.4,60.00219153212062,
,,,1,0,1,0,20,0,20,0,,,,,,,,,,,,,,,,,,,,,,,,,,,,,,,,,,,,,,,,,,,,,,,,,,,,,,,,,,,123,001,2023-03-03_11h46.50.661,eb_01,2022.2.4,60.00219153212062,
6,stimuli/6.png,s,1,0,1,0,21,0,21,0,0,0,0,0,,,,,,,,,,,,,,,,,,304.8349715397926,304.8349715397926,304.8349715397926,304.8349715397926,s,1,0.46856596536235884,305.35160469575203,305.35160469575203,305.35160469575203,,,,,,,,,,,,,,,,,,,,,,,,,,,,123,001,2023-03-03_11h46.50.661,eb_01,2022.2.4,60.00219153212062,
,,,1,0,1,0,21,0,21,0,,,,,,,,,,,,,,,,,,,,,,,,,,,,,,,,,,,,,,,,,,,,,,,,,,,,,,,,,,,123,001,2023-03-03_11h46.50.661,eb_01,2022.2.4,60.00219153212062,
9,stimuli/9.png,l,1,0,1,0,22,0,22,0,0,0,0,0,,,,,,,,,,,,,,,,,,306.36822532481165,306.36822532481165,306.36822532481165,306.36822532481165,l,1,0.4713891963183414,306.8848705548735,306.8848705548735,306.8848705548735,,,,,,,,,,,,,,,,,,,,,,,,,,,,123,001,2023-03-03_11h46.50.661,eb_01,2022.2.4,60.00219153212062,
,,,1,0,1,0,22,0,22,0,,,,,,,,,,,,,,,,,,,,,,,,,,,,,,,,,,,,,,,,,,,,,,,,,,,,,,,,,,,123,001,2023-03-03_11h46.50.661,eb_01,2022.2.4,60.00219153212062,
8,stimuli/8.png,l,1,0,1,0,23,0,23,0,0,0,0,0,,,,,,,,,,,,,,,,,,307.88451225537574,307.88451225537574,307.88451225537574,307.88451225537574,l,1,0.491145474195946,308.40147473293473,308.40147473293473,308.40147473293473,309.4181098509289,309.4181098509289,309.4181098509289,,,,,,,,,,,,,,,,,,,,,,,,,123,001,2023-03-03_11h46.50.661,eb_01,2022.2.4,60.00219153212062,
,,,1,0,1,0,23,0,23,0,,,,,,,,,,,,,,,,,,,,,,,,,,,,,,,,,,,,,,,,,,,,,,,,,,,,,,,,,,,123,001,2023-03-03_11h46.50.661,eb_01,2022.2.4,60.00219153212062,
6,stimuli/6.png,s,1,0,1,0,24,0,24,0,0,0,0,0,,,,,,,,,,,,,,,,,,309.4181098509289,309.4181098509289,309.4181098509289,309.4181098509289,s,1,0.48459073665435426,309.9514182713465,309.9514182713465,309.9514182713465,,,,,,,,,,,,,,,,,,,,,,,,,,,,123,001,2023-03-03_11h46.50.661,eb_01,2022.2.4,60.00219153212062,
,,,1,0,1,0,24,0,24,0,,,,,,,,,,,,,,,,,,,,,,,,,,,,,,,,,,,,,,,,,,,,,,,,,,,,,,,,,,,123,001,2023-03-03_11h46.50.661,eb_01,2022.2.4,60.00219153212062,
5,stimuli/5.png,s,1,0,1,0,25,0,25,0,0,0,0,0,,,,,,,,,,,,,,,,,,310.9510488032829,310.9510488032829,310.9510488032829,310.9510488032829,s,1,0.5516962774272542,311.5346691736486,311.5346691736486,311.5346691736486,312.5512907082739,312.5512907082739,312.5512907082739,,,,,,,,,,,,,,,,,,,,,,,,,123,001,2023-03-03_11h46.50.661,eb_01,2022.2.4,60.00219153212062,
,,,1,0,1,0,25,0,25,0,,,,,,,,,,,,,,,,,,,,,,,,,,,,,,,,,,,,,,,,,,,,,,,,,,,,,,,,,,,123,001,2023-03-03_11h46.50.661,eb_01,2022.2.4,60.00219153212062,
6,stimuli/6.png,s,1,0,1,0,26,0,26,0,0,0,0,0,,,,,,,,,,,,,,,,,,312.5512907082739,312.5512907082739,312.5512907082739,312.5512907082739,s,1,0.43951412485330366,313.03457876868197,313.03457876868197,313.03457876868197,,,,,,,,,,,,,,,,,,,,,,,,,,,,123,001,2023-03-03_11h46.50.661,eb_01,2022.2.4,60.00219153212062,
,,,1,0,1,0,26,0,26,0,,,,,,,,,,,,,,,,,,,,,,,,,,,,,,,,,,,,,,,,,,,,,,,,,,,,,,,,,,,123,001,2023-03-03_11h46.50.661,eb_01,2022.2.4,60.00219153212062,
9,stimuli/9.png,l,1,0,1,0,27,0,27,0,0,0,0,0,,,,,,,,,,,,,,,,,,314.0512558442424,314.0512558442424,314.0512558442424,314.0512558442424,l,1,0.45959761133417487,314.5512064912764,314.5512064912764,314.5512064912764,,,,,,,,,,,,,,,,,,,,,,,,,,,,123,001,2023-03-03_11h46.50.661,eb_01,2022.2.4,60.00219153212062,
,,,1,0,1,0,27,0,27,0,,,,,,,,,,,,,,,,,,,,,,,,,,,,,,,,,,,,,,,,,,,,,,,,,,,,,,,,,,,123,001,2023-03-03_11h46.50.661,eb_01,2022.2.4,60.00219153212062,
8,stimuli/8.png,l,1,0,1,0,28,0,28,0,0,0,0,0,,,,,,,,,,,,,,,,,,315.5678247055039,315.5678247055039,315.5678247055039,315.5678247055039,l,1,0.6230733397824224,316.2177974934748,316.2177974934748,316.2177974934748,317.23443381887046,317.23443381887046,317.23443381887046,,,,,,,,,,,,,,,,,,,,,,,,,123,001,2023-03-03_11h46.50.661,eb_01,2022.2.4,60.00219153212062,
,,,1,0,1,0,28,0,28,0,,,,,,,,,,,,,,,,,,,,,,,,,,,,,,,,,,,,,,,,,,,,,,,,,,,,,,,,,,,123,001,2023-03-03_11h46.50.661,eb_01,2022.2.4,60.00219153212062,
9,stimuli/9.png,l,1,0,1,0,29,0,29,0,0,0,0,0,,,,,,,,,,,,,,,,,,317.23443381887046,317.23443381887046,317.23443381887046,317.23443381887046,l,1,0.6445637630531564,317.917726648564,317.917726648564,317.917726648564,,,,,,,,,,,,,,,,,,,,,,,,,,,,123,001,2023-03-03_11h46.50.661,eb_01,2022.2.4,60.00219153212062,
,,,1,0,1,0,29,0,29,0,,,,,,,,,,,,,,,,,,,,,,,,,,,,,,,,,,,,,,,,,,,,,,,,,,,,,,,,,,,123,001,2023-03-03_11h46.50.661,eb_01,2022.2.4,60.00219153212062,
6,stimuli/6.png,s,1,0,1,0,30,0,30,0,0,0,0,0,,,,,,,,,,,,,,,,,,318.9343469757878,318.9343469757878,318.9343469757878,318.9343469757878,s,1,0.4406451679824386,319.4176615992619,319.4176615992619,319.4176615992619,,,,,,,,,,,,,,,,,,,,,,,,,,,,123,001,2023-03-03_11h46.50.661,eb_01,2022.2.4,60.00219153212062,
,,,1,0,1,0,30,0,30,0,,,,,,,,,,,,,,,,,,,,,,,,,,,,,,,,,,,,,,,,,,,,,,,,,,,,,,,,,,,123,001,2023-03-03_11h46.50.661,eb_01,2022.2.4,60.00219153212062,
9,stimuli/9.png,l,1,0,1,0,31,0,31,0,0,0,0,0,,,,,,,,,,,,,,,,,,320.43428554869024,320.43428554869024,320.43428554869024,320.43428554869024,l,1,0.7248095679678954,321.20091515788226,321.20091515788226,321.20091515788226,,,,,,,,,,,,,,,,,,,,,,,,,,,,123,001,2023-03-03_11h46.50.661,eb_01,2022.2.4,60.00219153212062,
,,,1,0,1,0,31,0,31,0,,,,,,,,,,,,,,,,,,,,,,,,,,,,,,,,,,,,,,,,,,,,,,,,,,,,,,,,,,,123,001,2023-03-03_11h46.50.661,eb_01,2022.2.4,60.00219153212062,
6,stimuli/6.png,s,1,0,1,0,32,0,32,0,0,0,0,0,,,,,,,,,,,,,,,,,,322.2175599351758,322.2175599351758,322.2175599351758,322.2175599351758,s,1,0.5975613291957416,322.85084779938916,322.85084779938916,322.85084779938916,,,,,,,,,,,,,,,,,,,,,,,,,,,,123,001,2023-03-03_11h46.50.661,eb_01,2022.2.4,60.00219153212062,
,,,1,0,1,0,32,0,32,0,,,,,,,,,,,,,,,,,,,,,,,,,,,,,,,,,,,,,,,,,,,,,,,,,,,,,,,,,,,123,001,2023-03-03_11h46.50.661,eb_01,2022.2.4,60.00219153212062,
9,stimuli/9.png,l,1,0,1,0,33,0,33,0,0,0,0,0,,,,,,,,,,,,,,,,,,323.8674663154816,323.8674663154816,323.8674663154816,323.8674663154816,l,1,0.47569965696311556,324.38410852701054,324.38410852701054,324.38410852701054,,,,,,,,,,,,,,,,,,,,,,,,,,,,123,001,2023-03-03_11h46.50.661,eb_01,2022.2.4,60.00219153212062,
,,,1,0,1,0,33,0,33,0,,,,,,,,,,,,,,,,,,,,,,,,,,,,,,,,,,,,,,,,,,,,,,,,,,,,,,,,,,,123,001,2023-03-03_11h46.50.661,eb_01,2022.2.4,60.00219153212062,
6,stimuli/6.png,s,1,0,1,0,34,0,34,0,0,0,0,0,,,,,,,,,,,,,,,,,,325.40069142443826,325.40069142443826,325.40069142443826,325.40069142443826,s,1,0.5095352636126336,325.9507040871831,325.9507040871831,325.9507040871831,,,,,,,,,,,,,,,,,,,,,,,,,,,,123,001,2023-03-03_11h46.50.661,eb_01,2022.2.4,60.00219153212062,
,,,1,0,1,0,34,0,34,0,,,,,,,,,,,,,,,,,,,,,,,,,,,,,,,,,,,,,,,,,,,,,,,,,,,,,,,,,,,123,001,2023-03-03_11h46.50.661,eb_01,2022.2.4,60.00219153212062,
8,stimuli/8.png,l,1,0,1,0,35,0,35,0,0,0,0,0,,,,,,,,,,,,,,,,,,326.9673298477428,326.9673298477428,326.9673298477428,326.9673298477428,l,1,0.4789415580453351,327.46731701897806,327.46731701897806,327.46731701897806,328.4839355350705,328.4839355350705,328.4839355350705,,,,,,,,,,,,,,,,,,,,,,,,,123,001,2023-03-03_11h46.50.661,eb_01,2022.2.4,60.00219153212062,
,,,1,0,1,0,35,0,35,0,,,,,,,,,,,,,,,,,,,,,,,,,,,,,,,,,,,,,,,,,,,,,,,,,,,,,,,,,,,123,001,2023-03-03_11h46.50.661,eb_01,2022.2.4,60.00219153212062,
6,stimuli/6.png,s,1,0,1,0,36,0,36,0,0,0,0,0,,,,,,,,,,,,,,,,,,328.4839355350705,328.4839355350705,328.4839355350705,328.4839355350705,s,1,0.6743916676205117,329.20056893251603,329.20056893251603,329.20056893251603,,,,,,,,,,,,,,,,,,,,,,,,,,,,123,001,2023-03-03_11h46.50.661,eb_01,2022.2.4,60.00219153212062,
,,,1,0,1,0,36,0,36,0,,,,,,,,,,,,,,,,,,,,,,,,,,,,,,,,,,,,,,,,,,,,,,,,,,,,,,,,,,,123,001,2023-03-03_11h46.50.661,eb_01,2022.2.4,60.00219153212062,
5,stimuli/5.png,s,1,0,1,0,37,0,37,0,0,0,0,0,,,,,,,,,,,,,,,,,,330.2002118404198,330.2002118404198,330.2002118404198,330.2002118404198,s,1,0.7181712171295658,330.9504511343839,330.9504511343839,330.9504511343839,331.9671113061777,331.9671113061777,331.9671113061777,,,,,,,,,,,,,,,,,,,,,,,,,123,001,2023-03-03_11h46.50.661,eb_01,2022.2.4,60.00219153212062,
,,,1,0,1,0,37,0,37,0,,,,,,,,,,,,,,,,,,,,,,,,,,,,,,,,,,,,,,,,,,,,,,,,,,,,,,,,,,,123,001,2023-03-03_11h46.50.661,eb_01,2022.2.4,60.00219153212062,
9,stimuli/9.png,l,1,0,1,0,38,0,38,0,0,0,0,0,,,,,,,,,,,,,,,,,,331.9671113061777,331.9671113061777,331.9671113061777,331.9671113061777,l,1,0.5353144140681252,332.55043223837856,332.55043223837856,332.55043223837856,,,,,,,,,,,,,,,,,,,,,,,,,,,,123,001,2023-03-03_11h46.50.661,eb_01,2022.2.4,60.00219153212062,
,,,1,0,1,0,38,0,38,0,,,,,,,,,,,,,,,,,,,,,,,,,,,,,,,,,,,,,,,,,,,,,,,,,,,,,,,,,,,123,001,2023-03-03_11h46.50.661,eb_01,2022.2.4,60.00219153212062,
6,stimuli/6.png,s,1,0,1,0,39,0,39,0,0,0,0,0,,,,,,,,,,,,,,,,,,333.56704049147083,333.56704049147083,333.56704049147083,333.56704049147083,s,1,0.7594179182779044,334.3669949720206,334.3669949720206,334.3669949720206,,,,,,,,,,,,,,,,,,,,,,,,,,,,123,001,2023-03-03_11h46.50.661,eb_01,2022.2.4,60.00219153212062,
,,,1,0,1,0,39,0,39,0,,,,,,,,,,,,,,,,,,,,,,,,,,,,,,,,,,,,,,,,,,,,,,,,,,,,,,,,,,,123,001,2023-03-03_11h46.50.661,eb_01,2022.2.4,60.00219153212062,
9,stimuli/9.png,l,1,0,1,0,40,0,40,0,0,0,0,0,,,,,,,,,,,,,,,,,,335.3836186196131,335.3836186196131,335.3836186196131,335.3836186196131,l,1,0.6709200564364437,336.1002619781939,336.1002619781939,336.1002619781939,,,,,,,,,,,,,,,,,,,,,,,,,,,,123,001,2023-03-03_11h46.50.661,eb_01,2022.2.4,60.00219153212062,
,,,1,0,1,0,40,0,40,0,,,,,,,,,,,,,,,,,,,,,,,,,,,,,,,,,,,,,,,,,,,,,,,,,,,,,,,,,,,123,001,2023-03-03_11h46.50.661,eb_01,2022.2.4,60.00219153212062,
8,stimuli/8.png,l,1,0,1,0,41,0,41,0,0,0,0,0,,,,,,,,,,,,,,,,,,337.11688653135207,337.11688653135207,337.11688653135207,337.11688653135207,l,1,0.7937213970290031,337.9335214078601,337.9335214078601,337.9335214078601,338.9501529036206,338.9501529036206,338.9501529036206,,,,,,,,,,,,,,,,,,,,,,,,,123,001,2023-03-03_11h46.50.661,eb_01,2022.2.4,60.00219153212062,
,,,1,0,1,0,41,0,41,0,,,,,,,,,,,,,,,,,,,,,,,,,,,,,,,,,,,,,,,,,,,,,,,,,,,,,,,,,,,123,001,2023-03-03_11h46.50.661,eb_01,2022.2.4,60.00219153212062,
9,stimuli/9.png,l,1,0,1,0,42,0,42,0,0,0,0,0,,,,,,,,,,,,,,,,,,338.9501529036206,338.9501529036206,338.9501529036206,338.9501529036206,l,1,0.6325044344703201,339.6167695633194,339.6167695633194,339.6167695633194,,,,,,,,,,,,,,,,,,,,,,,,,,,,123,001,2023-03-03_11h46.50.661,eb_01,2022.2.4,60.00219153212062,
,,,1,0,1,0,42,0,42,0,,,,,,,,,,,,,,,,,,,,,,,,,,,,,,,,,,,,,,,,,,,,,,,,,,,,,,,,,,,123,001,2023-03-03_11h46.50.661,eb_01,2022.2.4,60.00219153212062,
6,stimuli/6.png,s,1,0,1,0,43,0,43,0,0,0,0,0,,,,,,,,,,,,,,,,,,340.63340347391204,340.63340347391204,340.63340347391204,340.63340347391204,s,1,0.676310547045432,341.35004170099273,341.35004170099273,341.35004170099273,,,,,,,,,,,,,,,,,,,,,,,,,,,,123,001,2023-03-03_11h46.50.661,eb_01,2022.2.4,60.00219153212062,
,,,1,0,1,0,43,0,43,0,,,,,,,,,,,,,,,,,,,,,,,,,,,,,,,,,,,,,,,,,,,,,,,,,,,,,,,,,,,123,001,2023-03-03_11h46.50.661,eb_01,2022.2.4,60.00219153212062,
5,stimuli/5.png,s,1,0,1,0,44,0,44,0,0,0,0,0,,,,,,,,,,,,,,,,,,342.3496849107614,342.3496849107614,342.3496849107614,342.3496849107614,s,1,0.7201079058868345,343.0999637474597,343.0999637474597,343.0999637474597,344.1165834709536,344.1165834709536,344.1165834709536,,,,,,,,,,,,,,,,,,,,,,,,,123,001,2023-03-03_11h46.50.661,eb_01,2022.2.4,60.00219153212062,
,,,1,0,1,0,44,0,44,0,,,,,,,,,,,,,,,,,,,,,,,,,,,,,,,,,,,,,,,,,,,,,,,,,,,,,,,,,,,123,001,2023-03-03_11h46.50.661,eb_01,2022.2.4,60.00219153212062,
9,stimuli/9.png,l,1,0,1,0,45,0,45,0,0,0,0,0,,,,,,,,,,,,,,,,,,344.1165834709536,344.1165834709536,344.1165834709536,344.1165834709536,l,1,0.6172198067069985,344.7832336363208,344.7832336363208,344.7832336363208,,,,,,,,,,,,,,,,,,,,,,,,,,,,123,001,2023-03-03_11h46.50.661,eb_01,2022.2.4,60.00219153212062,
,,,1,0,1,0,45,0,45,0,,,,,,,,,,,,,,,,,,,,,,,,,,,,,,,,,,,,,,,,,,,,,,,,,,,,,,,,,,,123,001,2023-03-03_11h46.50.661,eb_01,2022.2.4,60.00219153212062,
6,stimuli/6.png,s,1,0,1,0,46,0,46,0,0,0,0,0,,,,,,,,,,,,,,,,,,345.7998162319127,345.7998162319127,345.7998162319127,345.7998162319127,l,0,0.5900780918891542,346.43315601482755,346.43315601482755,346.43315601482755,,,,,,,,,,,,,,,,,,,,,,,,,,,,123,001,2023-03-03_11h46.50.661,eb_01,2022.2.4,60.00219153212062,
,,,1,0,1,0,46,0,46,0,,,,,,,,,,,,,,,,,,,,,,,,,,,,,,,,,,,,,,,,,,,,,,,,,,,,,,,,,,,123,001,2023-03-03_11h46.50.661,eb_01,2022.2.4,60.00219153212062,
8,stimuli/8.png,l,1,0,1,0,47,0,47,0,0,0,0,0,,,,,,,,,,,,,,,,,,347.4497703049565,347.4497703049565,347.4497703049565,347.4497703049565,l,1,0.46017958389711566,347.93309488959494,347.93309488959494,347.93309488959494,348.9330459894263,348.9330459894263,348.9330459894263,,,,,,,,,,,,,,,,,,,,,,,,,123,001,2023-03-03_11h46.50.661,eb_01,2022.2.4,60.00219153212062,
,,,1,0,1,0,47,0,47,0,,,,,,,,,,,,,,,,,,,,,,,,,,,,,,,,,,,,,,,,,,,,,,,,,,,,,,,,,,,123,001,2023-03-03_11h46.50.661,eb_01,2022.2.4,60.00219153212062,
3,stimuli/3.png,l,1,0,1,0,48,0,48,0,0,0,0,0,,,,,,,,,,,,,,,,,,348.9330459894263,348.9330459894263,348.9330459894263,348.9330459894263,l,1,0.49695735157001764,349.44969001208665,349.44969001208665,349.44969001208665,350.4662837762153,350.4662837762153,350.4662837762153,,,,,,,,,,,,,,,,,,,,,,,,,123,001,2023-03-03_11h46.50.661,eb_01,2022.2.4,60.00219153212062,
,,,1,0,1,0,48,0,48,0,,,,,,,,,,,,,,,,,,,,,,,,,,,,,,,,,,,,,,,,,,,,,,,,,,,,,,,,,,,123,001,2023-03-03_11h46.50.661,eb_01,2022.2.4,60.00219153212062,
4,stimuli/4.png,l,1,0,1,0,49,0,49,0,0,0,0,0,,,,,,,,,,,,,,,,,,350.4662837762153,350.4662837762153,350.4662837762153,350.4662837762153,l,1,1.7157624303363264,352.19957251579035,352.19957251579035,352.19957251579035,353.19954776385566,353.19954776385566,353.19954776385566,,,,,,,,,,,,,,,,,,,,,,,,,123,001,2023-03-03_11h46.50.661,eb_01,2022.2.4,60.00219153212062,
,,,1,0,1,0,49,0,49,0,,,,,,,,,,,,,,,,,,,,,,,,,,,,,,,,,,,,,,,,,,,,,,,,,,,,,,,,,,,123,001,2023-03-03_11h46.50.661,eb_01,2022.2.4,60.00219153212062,
2,stimuli/2.png,s,1,0,1,0,50,0,50,0,0,0,0,0,,,,,,,,,,,,,,,,,,353.19954776385566,353.19954776385566,353.19954776385566,353.19954776385566,s,1,0.6705967719026376,353.8995258191426,353.8995258191426,353.8995258191426,354.9161355815013,354.9161355815013,354.9161355815013,,,,,,,,,,,,,,,,,,,,,,,,,123,001,2023-03-03_11h46.50.661,eb_01,2022.2.4,60.00219153212062,
,,,1,0,1,0,50,0,50,0,,,,,,,,,,,,,,,,,,,,,,,,,,,,,,,,,,,,,,,,,,,,,,,,,,,,,,,,,,,123,001,2023-03-03_11h46.50.661,eb_01,2022.2.4,60.00219153212062,
4,stimuli/4.png,l,1,0,1,0,51,0,51,0,0,0,0,0,,,,,,,,,,,,,,,,,,354.9161355815013,354.9161355815013,354.9161355815013,354.9161355815013,l,1,0.5700229795475025,355.516052390798,355.516052390798,355.516052390798,356.516052390798,356.516052390798,356.516052390798,,,,,,,,,,,,,,,,,,,,,,,,,123,001,2023-03-03_11h46.50.661,eb_01,2022.2.4,60.00219153212062,
,,,1,0,1,0,51,0,51,0,,,,,,,,,,,,,,,,,,,,,,,,,,,,,,,,,,,,,,,,,,,,,,,,,,,,,,,,,,,123,001,2023-03-03_11h46.50.661,eb_01,2022.2.4,60.00219153212062,
2,stimuli/2.png,s,1,0,1,0,52,0,52,0,0,0,0,0,,,,,,,,,,,,,,,,,,356.516052390798,356.516052390798,356.516052390798,356.516052390798,s,1,0.7851705056673381,357.3326785136014,357.3326785136014,357.3326785136014,358.33265376163763,358.33265376163763,358.33265376163763,,,,,,,,,,,,,,,,,,,,,,,,,123,001,2023-03-03_11h46.50.661,eb_01,2022.2.4,60.00219153212062,
,,,1,0,1,0,52,0,52,0,,,,,,,,,,,,,,,,,,,,,,,,,,,,,,,,,,,,,,,,,,,,,,,,,,,,,,,,,,,123,001,2023-03-03_11h46.50.661,eb_01,2022.2.4,60.00219153212062,
3,stimuli/3.png,l,1,0,1,0,53,0,53,0,0,0,0,0,,,,,,,,,,,,,,,,,,358.33265376163763,358.33265376163763,358.33265376163763,358.33265376163763,l,1,0.5446193341922481,358.8992798089748,358.8992798089748,358.8992798089748,359.9158965139359,359.9158965139359,359.9158965139359,,,,,,,,,,,,,,,,,,,,,,,,,123,001,2023-03-03_11h46.50.661,eb_01,2022.2.4,60.00219153212062,
,,,1,0,1,0,53,0,53,0,,,,,,,,,,,,,,,,,,,,,,,,,,,,,,,,,,,,,,,,,,,,,,,,,,,,,,,,,,,123,001,2023-03-03_11h46.50.661,eb_01,2022.2.4,60.00219153212062,
4,stimuli/4.png,l,1,0,1,0,54,0,54,0,0,0,0,0,,,,,,,,,,,,,,,,,,359.9158965139359,359.9158965139359,359.9158965139359,359.9158965139359,l,1,0.6974124854896218,360.63253474101657,360.63253474101657,360.63253474101657,361.63249429271673,361.63249429271673,361.63249429271673,,,,,,,,,,,,,,,,,,,,,,,,,123,001,2023-03-03_11h46.50.661,eb_01,2022.2.4,60.00219153212062,
,,,1,0,1,0,54,0,54,0,,,,,,,,,,,,,,,,,,,,,,,,,,,,,,,,,,,,,,,,,,,,,,,,,,,,,,,,,,,123,001,2023-03-03_11h46.50.661,eb_01,2022.2.4,60.00219153212062,
3,stimuli/3.png,l,1,0,1,0,55,0,55,0,0,0,0,0,,,,,,,,,,,,,,,,,,361.63249429271673,361.63249429271673,361.63249429271673,361.63249429271673,l,1,1.1649045792291872,362.8157794251456,362.8157794251456,362.8157794251456,363.81573444904643,363.81573444904643,363.81573444904643,,,,,,,,,,,,,,,,,,,,,,,,,123,001,2023-03-03_11h46.50.661,eb_01,2022.2.4,60.00219153212062,
,,,1,0,1,0,55,0,55,0,,,,,,,,,,,,,,,,,,,,,,,,,,,,,,,,,,,,,,,,,,,,,,,,,,,,,,,,,,,123,001,2023-03-03_11h46.50.661,eb_01,2022.2.4,60.00219153212062,
2,stimuli/2.png,s,1,0,1,0,56,0,56,0,0,0,0,0,,,,,,,,,,,,,,,,,,363.81573444904643,363.81573444904643,363.81573444904643,363.81573444904643,s,1,0.7737215237866621,364.6156994944904,364.6156994944904,364.6156994944904,365.615660555457,365.615660555457,365.615660555457,,,,,,,,,,,,,,,,,,,,,,,,,123,001,2023-03-03_11h46.50.661,eb_01,2022.2.4,60.00219153212062,
,,,1,0,1,0,56,0,56,0,,,,,,,,,,,,,,,,,,,,,,,,,,,,,,,,,,,,,,,,,,,,,,,,,,,,,,,,,,,123,001,2023-03-03_11h46.50.661,eb_01,2022.2.4,60.00219153212062,
3,stimuli/3.png,l,1,0,1,0,57,0,57,0,0,0,0,0,,,,,,,,,,,,,,,,,,365.615660555457,365.615660555457,365.615660555457,365.615660555457,l,1,0.6458424123120494,366.28229200592614,366.28229200592614,366.28229200592614,367.2819382342277,367.2819382342277,367.2819382342277,,,,,,,,,,,,,,,,,,,,,,,,,123,001,2023-03-03_11h46.50.661,eb_01,2022.2.4,60.00219153212062,
,,,1,0,1,0,57,0,57,0,,,,,,,,,,,,,,,,,,,,,,,,,,,,,,,,,,,,,,,,,,,,,,,,,,,,,,,,,,,123,001,2023-03-03_11h46.50.661,eb_01,2022.2.4,60.00219153212062,
2,stimuli/2.png,s,1,0,1,0,58,0,58,0,0,0,0,0,,,,,,,,,,,,,,,,,,367.2819382342277,367.2819382342277,367.2819382342277,367.2819382342277,s,1,0.707627190509811,368.0155614269315,368.0155614269315,368.0155614269315,369.0155113193323,369.0155113193323,369.0155113193323,,,,,,,,,,,,,,,,,,,,,,,,,123,001,2023-03-03_11h46.50.661,eb_01,2022.2.4,60.00219153212062,
,,,1,0,1,0,58,0,58,0,,,,,,,,,,,,,,,,,,,,,,,,,,,,,,,,,,,,,,,,,,,,,,,,,,,,,,,,,,,123,001,2023-03-03_11h46.50.661,eb_01,2022.2.4,60.00219153212062,
3,stimuli/3.png,l,1,0,1,0,59,0,59,0,0,0,0,0,,,,,,,,,,,,,,,,,,369.0155113193323,369.0155113193323,369.0155113193323,369.0155113193323,l,1,0.5900934863893781,369.63214323768625,369.63214323768625,369.63214323768625,370.63210852458724,370.63210852458724,370.63210852458724,,,,,,,,,,,,,,,,,,,,,,,,,123,001,2023-03-03_11h46.50.661,eb_01,2022.2.4,60.00219153212062,
,,,1,0,1,0,59,0,59,0,,,,,,,,,,,,,,,,,,,,,,,,,,,,,,,,,,,,,,,,,,,,,,,,,,,,,,,,,,,123,001,2023-03-03_11h46.50.661,eb_01,2022.2.4,60.00219153212062,
2,stimuli/2.png,s,1,0,1,0,60,0,60,0,0,0,0,0,,,,,,,,,,,,,,,,,,370.63210852458724,370.63210852458724,370.63210852458724,370.63210852458724,s,1,0.5565579216054175,371.21541345858714,371.21541345858714,371.21541345858714,372.21536818065215,372.21536818065215,372.21536818065215,,,,,,,,,,,,,,,,,,,,,,,,,123,001,2023-03-03_11h46.50.661,eb_01,2022.2.4,60.00219153212062,
,,,1,0,1,0,60,0,60,0,,,,,,,,,,,,,,,,,,,,,,,,,,,,,,,,,,,,,,,,,,,,,,,,,,,,,,,,,,,123,001,2023-03-03_11h46.50.661,eb_01,2022.2.4,60.00219153212062,
3,stimuli/3.png,l,1,0,1,0,61,0,61,0,0,0,0,0,,,,,,,,,,,,,,,,,,372.21536818065215,372.21536818065215,372.21536818065215,372.21536818065215,l,1,0.6293464485206641,372.8653424778604,372.8653424778604,372.8653424778604,373.8819510327885,373.8819510327885,373.8819510327885,,,,,,,,,,,,,,,,,,,,,,,,,123,001,2023-03-03_11h46.50.661,eb_01,2022.2.4,60.00219153212062,
,,,1,0,1,0,61,0,61,0,,,,,,,,,,,,,,,,,,,,,,,,,,,,,,,,,,,,,,,,,,,,,,,,,,,,,,,,,,,123,001,2023-03-03_11h46.50.661,eb_01,2022.2.4,60.00219153212062,
4,stimuli/4.png,l,1,0,1,0,62,0,62,0,0,0,0,0,,,,,,,,,,,,,,,,,,373.8819510327885,373.8819510327885,373.8819510327885,373.8819510327885,l,1,0.538802929018857,374.44859851169167,374.44859851169167,374.44859851169167,375.4485656096949,375.4485656096949,375.4485656096949,,,,,,,,,,,,,,,,,,,,,,,,,123,001,2023-03-03_11h46.50.661,eb_01,2022.2.4,60.00219153212062,
,,,1,0,1,0,62,0,62,0,,,,,,,,,,,,,,,,,,,,,,,,,,,,,,,,,,,,,,,,,,,,,,,,,,,,,,,,,,,123,001,2023-03-03_11h46.50.661,eb_01,2022.2.4,60.00219153212062,
2,stimuli/2.png,s,1,0,1,0,63,0,63,0,0,0,0,0,,,,,,,,,,,,,,,,,,375.4485656096949,375.4485656096949,375.4485656096949,375.4485656096949,l,0,0.9562598719494417,376.43184053953155,376.43184053953155,376.43184053953155,377.44847173342714,377.44847173342714,377.44847173342714,,,,,,,,,,,,,,,,,,,,,,,,,123,001,2023-03-03_11h46.50.661,eb_01,2022.2.4,60.00219153212062,
,,,1,0,1,0,63,0,63,0,,,,,,,,,,,,,,,,,,,,,,,,,,,,,,,,,,,,,,,,,,,,,,,,,,,,,,,,,,,123,001,2023-03-03_11h46.50.661,eb_01,2022.2.4,60.00219153212062,
4,stimuli/4.png,l,1,0,1,0,64,0,64,0,0,0,0,0,,,,,,,,,,,,,,,,,,377.44847173342714,377.44847173342714,377.44847173342714,377.44847173342714,l,1,0.5084021075163037,377.9814704526798,377.9814704526798,377.9814704526798,378.98174362961436,378.98174362961436,378.98174362961436,,,,,,,,,,,,,,,,,,,,,,,,,123,001,2023-03-03_11h46.50.661,eb_01,2022.2.4,60.00219153212062,
,,,1,0,1,0,64,0,64,0,,,,,,,,,,,,,,,,,,,,,,,,,,,,,,,,,,,,,,,,,,,,,,,,,,,,,,,,,,,123,001,2023-03-03_11h46.50.661,eb_01,2022.2.4,60.00219153212062,
3,stimuli/3.png,l,1,0,1,0,65,0,65,0,0,0,0,0,,,,,,,,,,,,,,,,,,378.98174362961436,378.98174362961436,378.98174362961436,378.98174362961436,l,1,0.5592193593620323,379.5650437339791,379.5650437339791,379.5650437339791,380.5650057004823,380.5650057004823,380.5650057004823,,,,,,,,,,,,,,,,,,,,,,,,,123,001,2023-03-03_11h46.50.661,eb_01,2022.2.4,60.00219153212062,
,,,1,0,1,0,65,0,65,0,,,,,,,,,,,,,,,,,,,,,,,,,,,,,,,,,,,,,,,,,,,,,,,,,,,,,,,,,,,123,001,2023-03-03_11h46.50.661,eb_01,2022.2.4,60.00219153212062,
2,stimuli/2.png,s,1,0,1,0,66,0,66,0,0,0,0,0,,,,,,,,,,,,,,,,,,380.5650057004823,380.5650057004823,380.5650057004823,380.5650057004823,s,1,1.4560152201156598,382.04827595158713,382.04827595158713,382.04827595158713,383.06489990101545,383.06489990101545,383.06489990101545,,,,,,,,,,,,,,,,,,,,,,,,,123,001,2023-03-03_11h46.50.661,eb_01,2022.2.4,60.00219153212062,
,,,1,0,1,0,66,0,66,0,,,,,,,,,,,,,,,,,,,,,,,,,,,,,,,,,,,,,,,,,,,,,,,,,,,,,,,,,,,123,001,2023-03-03_11h46.50.661,eb_01,2022.2.4,60.00219153212062,
1,stimuli/1.png,s,1,0,1,0,67,0,67,0,0,0,0,0,,,,,,,,,,,,,,,,,,383.06489990101545,383.06489990101545,383.06489990101545,383.06489990101545,s,1,0.492162115056999,383.5982119436667,383.5982119436667,383.5982119436667,,,,,,,,,,,,,,,,,,,,,,,,,,,,123,001,2023-03-03_11h46.50.661,eb_01,2022.2.4,60.00219153212062,
,,,1,0,1,0,67,0,67,0,,,,,,,,,,,,,,,,,,,,,,,,,,,,,,,,,,,,,,,,,,,,,,,,,,,,,,,,,,,123,001,2023-03-03_11h46.50.661,eb_01,2022.2.4,60.00219153212062,
2,stimuli/2.png,s,1,0,1,0,68,0,68,0,0,0,0,0,,,,,,,,,,,,,,,,,,384.59816515643615,384.59816515643615,384.59816515643615,384.59816515643615,s,1,0.5989477399853058,385.2148046211223,385.2148046211223,385.2148046211223,386.21475511722383,386.21475511722383,386.21475511722383,,,,,,,,,,,,,,,,,,,,,,,,,123,001,2023-03-03_11h46.50.661,eb_01,2022.2.4,60.00219153212062,
,,,1,0,1,0,68,0,68,0,,,,,,,,,,,,,,,,,,,,,,,,,,,,,,,,,,,,,,,,,,,,,,,,,,,,,,,,,,,123,001,2023-03-03_11h46.50.661,eb_01,2022.2.4,60.00219153212062,
3,stimuli/3.png,l,1,0,1,0,69,0,69,0,0,0,0,0,,,,,,,,,,,,,,,,,,386.21475511722383,386.21475511722383,386.21475511722383,386.21475511722383,l,1,1.2054757333535235,387.448039781797,387.448039781797,387.448039781797,388.4479957112635,388.4479957112635,388.4479957112635,,,,,,,,,,,,,,,,,,,,,,,,,123,001,2023-03-03_11h46.50.661,eb_01,2022.2.4,60.00219153212062,
,,,1,0,1,0,69,0,69,0,,,,,,,,,,,,,,,,,,,,,,,,,,,,,,,,,,,,,,,,,,,,,,,,,,,,,,,,,,,123,001,2023-03-03_11h46.50.661,eb_01,2022.2.4,60.00219153212062,
2,stimuli/2.png,s,1,0,1,0,70,0,70,0,0,0,0,0,,,,,,,,,,,,,,,,,,388.4479957112635,388.4479957112635,388.4479957112635,388.4479957112635,s,1,0.6602444219170138,389.13130695399013,389.13130695399013,389.13130695399013,390.1479257719475,390.1479257719475,390.1479257719475,,,,,,,,,,,,,,,,,,,,,,,,,123,001,2023-03-03_11h46.50.661,eb_01,2022.2.4,60.00219153212062,
,,,1,0,1,0,70,0,70,0,,,,,,,,,,,,,,,,,,,,,,,,,,,,,,,,,,,,,,,,,,,,,,,,,,,,,,,,,,,123,001,2023-03-03_11h46.50.661,eb_01,2022.2.4,60.00219153212062,
1,stimuli/1.png,s,1,0,1,0,71,0,71,0,0,0,0,0,,,,,,,,,,,,,,,,,,390.1479257719475,390.1479257719475,390.1479257719475,390.1479257719475,s,1,1.2003886050079018,391.39787121201516,391.39787121201516,391.39787121201516,,,,,,,,,,,,,,,,,,,,,,,,,,,,123,001,2023-03-03_11h46.50.661,eb_01,2022.2.4,60.00219153212062,
,,,1,0,1,0,71,0,71,0,,,,,,,,,,,,,,,,,,,,,,,,,,,,,,,,,,,,,,,,,,,,,,,,,,,,,,,,,,,123,001,2023-03-03_11h46.50.661,eb_01,2022.2.4,60.00219153212062,
2,stimuli/2.png,s,1,0,1,0,72,0,72,0,0,0,0,0,,,,,,,,,,,,,,,,,,392.39782472664956,392.39782472664956,392.39782472664956,392.39782472664956,s,1,1.2465630561346188,393.66443848854396,393.66443848854396,393.66443848854396,394.6810570046364,394.6810570046364,394.6810570046364,,,,,,,,,,,,,,,,,,,,,,,,,123,001,2023-03-03_11h46.50.661,eb_01,2022.2.4,60.00219153212062,
,,,1,0,1,0,72,0,72,0,,,,,,,,,,,,,,,,,,,,,,,,,,,,,,,,,,,,,,,,,,,,,,,,,,,,,,,,,,,123,001,2023-03-03_11h46.50.661,eb_01,2022.2.4,60.00219153212062,
4,stimuli/4.png,l,1,0,1,0,73,0,73,0,0,0,0,0,,,,,,,,,,,,,,,,,,394.6810570046364,394.6810570046364,394.6810570046364,394.6810570046364,l,1,1.0993928221869282,395.7976815275906,395.7976815275906,395.7976815275906,396.7975927828229,396.7975927828229,396.7975927828229,,,,,,,,,,,,,,,,,,,,,,,,,123,001,2023-03-03_11h46.50.661,eb_01,2022.2.4,60.00219153212062,
,,,1,0,1,0,73,0,73,0,,,,,,,,,,,,,,,,,,,,,,,,,,,,,,,,,,,,,,,,,,,,,,,,,,,,,,,,,,,123,001,2023-03-03_11h46.50.661,eb_01,2022.2.4,60.00219153212062,
3,stimuli/3.png,l,1,0,1,0,74,0,74,0,0,0,0,0,,,,,,,,,,,,,,,,,,396.7975927828229,396.7975927828229,396.7975927828229,396.7975927828229,s,0,0.9669258471985813,397.79759217912215,397.79759217912215,397.79759217912215,398.79723357775947,398.79723357775947,398.79723357775947,,,,,,,,,,,,,,,,,,,,,,,,,123,001,2023-03-03_11h46.50.661,eb_01,2022.2.4,60.00219153212062,
,,,1,0,1,0,74,0,74,0,,,,,,,,,,,,,,,,,,,,,,,,,,,,,,,,,,,,,,,,,,,,,,,,,,,,,,,,,,,123,001,2023-03-03_11h46.50.661,eb_01,2022.2.4,60.00219153212062,
2,stimuli/2.png,s,1,0,1,0,75,0,75,0,0,0,0,0,,,,,,,,,,,,,,,,,,398.79723357775947,398.79723357775947,398.79723357775947,398.79723357775947,l,0,5.926506525080185,404.74729109584587,404.74729109584587,404.74729109584587,405.7639268175408,405.7639268175408,405.7639268175408,,,,,,,,,,,,,,,,,,,,,,,,,123,001,2023-03-03_11h46.50.661,eb_01,2022.2.4,60.00219153212062,
,,,1,0,1,0,75,0,75,0,,,,,,,,,,,,,,,,,,,,,,,,,,,,,,,,,,,,,,,,,,,,,,,,,,,,,,,,,,,123,001,2023-03-03_11h46.50.661,eb_01,2022.2.4,60.00219153212062,
1,stimuli/1.png,s,1,0,1,0,76,0,76,0,0,0,0,0,,,,,,,,,,,,,,,,,,405.7639268175408,405.7639268175408,405.7639268175408,405.7639268175408,s,1,1.5198885191348381,407.33051271841396,407.33051271841396,407.33051271841396,,,,,,,,,,,,,,,,,,,,,,,,,,,,123,001,2023-03-03_11h46.50.661,eb_01,2022.2.4,60.00219153212062,
,,,1,0,1,0,76,0,76,0,,,,,,,,,,,,,,,,,,,,,,,,,,,,,,,,,,,,,,,,,,,,,,,,,,,,,,,,,,,123,001,2023-03-03_11h46.50.661,eb_01,2022.2.4,60.00219153212062,
4,stimuli/4.png,l,1,0,1,0,77,0,77,0,0,0,0,0,,,,,,,,,,,,,,,,,,408.3471285178384,408.3471285178384,408.3471285178384,408.3471285178384,l,1,0.48873578183702193,408.8637794831011,408.8637794831011,408.8637794831011,409.86372394216596,409.86372394216596,409.86372394216596,,,,,,,,,,,,,,,,,,,,,,,,,123,001,2023-03-03_11h46.50.661,eb_01,2022.2.4,60.00219153212062,
,,,1,0,1,0,77,0,77,0,,,,,,,,,,,,,,,,,,,,,,,,,,,,,,,,,,,,,,,,,,,,,,,,,,,,,,,,,,,123,001,2023-03-03_11h46.50.661,eb_01,2022.2.4,60.00219153212062,
3,stimuli/3.png,l,1,0,1,0,78,0,78,0,0,0,0,0,,,,,,,,,,,,,,,,,,409.86372394216596,409.86372394216596,409.86372394216596,409.86372394216596,l,1,0.5081886974512599,410.3970459459524,410.3970459459524,410.3970459459524,411.4136629527784,411.4136629527784,411.4136629527784,,,,,,,,,,,,,,,,,,,,,,,,,123,001,2023-03-03_11h46.50.661,eb_01,2022.2.4,60.00219153212062,
,,,1,0,1,0,78,0,78,0,,,,,,,,,,,,,,,,,,,,,,,,,,,,,,,,,,,,,,,,,,,,,,,,,,,,,,,,,,,123,001,2023-03-03_11h46.50.661,eb_01,2022.2.4,60.00219153212062,
8,stimuli/8.png,l,1,0,1,0,79,0,79,0,0,0,0,0,,,,,,,,,,,,,,,,,,411.4136629527784,411.4136629527784,411.4136629527784,411.4136629527784,l,1,1.3263322351849638,412.76362285160576,412.76362285160576,412.76362285160576,413.78022174723446,413.78022174723446,413.78022174723446,,,,,,,,,,,,,,,,,,,,,,,,,123,001,2023-03-03_11h46.50.661,eb_01,2022.2.4,60.00219153212062,
,,,1,0,1,0,79,0,79,0,,,,,,,,,,,,,,,,,,,,,,,,,,,,,,,,,,,,,,,,,,,,,,,,,,,,,,,,,,,123,001,2023-03-03_11h46.50.661,eb_01,2022.2.4,60.00219153212062,
9,stimuli/9.png,l,1,0,1,0,80,0,80,0,0,0,0,0,,,,,,,,,,,,,,,,,,413.78022174723446,413.78022174723446,413.78022174723446,413.78022174723446,l,1,1.4478488894819748,415.2635134298762,415.2635134298762,415.2635134298762,,,,,,,,,,,,,,,,,,,,,,,,,,,,123,001,2023-03-03_11h46.50.661,eb_01,2022.2.4,60.00219153212062,
,,,1,0,1,0,80,0,80,0,,,,,,,,,,,,,,,,,,,,,,,,,,,,,,,,,,,,,,,,,,,,,,,,,,,,,,,,,,,123,001,2023-03-03_11h46.50.661,eb_01,2022.2.4,60.00219153212062,
6,stimuli/6.png,s,1,0,1,0,81,0,81,0,0,0,0,0,,,,,,,,,,,,,,,,,,416.28012047556695,416.28012047556695,416.28012047556695,416.28012047556695,s,1,0.8200058494112454,417.1467370748869,417.1467370748869,417.1467370748869,,,,,,,,,,,,,,,,,,,,,,,,,,,,123,001,2023-03-03_11h46.50.661,eb_01,2022.2.4,60.00219153212062,
,,,1,0,1,0,81,0,81,0,,,,,,,,,,,,,,,,,,,,,,,,,,,,,,,,,,,,,,,,,,,,,,,,,,,,,,,,,,,123,001,2023-03-03_11h46.50.661,eb_01,2022.2.4,60.00219153212062,
8,stimuli/8.png,l,1,0,1,0,82,0,82,0,0,0,0,0,,,,,,,,,,,,,,,,,,418.1633260093804,418.1633260093804,418.1633260093804,418.1633260093804,l,1,0.5278592490358278,418.7133513499284,418.7133513499284,418.7133513499284,419.713312410895,419.713312410895,419.713312410895,,,,,,,,,,,,,,,,,,,,,,,,,123,001,2023-03-03_11h46.50.661,eb_01,2022.2.4,60.00219153212062,
,,,1,0,1,0,82,0,82,0,,,,,,,,,,,,,,,,,,,,,,,,,,,,,,,,,,,,,,,,,,,,,,,,,,,,,,,,,,,123,001,2023-03-03_11h46.50.661,eb_01,2022.2.4,60.00219153212062,
3,stimuli/3.png,l,1,0,1,0,83,0,83,0,0,0,0,0,,,,,,,,,,,,,,,,,,419.713312410895,419.713312410895,419.713312410895,419.713312410895,l,1,0.5059106129629072,420.2466338109807,420.2466338109807,420.2466338109807,421.26326138264267,421.26326138264267,421.26326138264267,,,,,,,,,,,,,,,,,,,,,,,,,123,001,2023-03-03_11h46.50.661,eb_01,2022.2.4,60.00219153212062,
,,,1,0,1,0,83,0,83,0,,,,,,,,,,,,,,,,,,,,,,,,,,,,,,,,,,,,,,,,,,,,,,,,,,,,,,,,,,,123,001,2023-03-03_11h46.50.661,eb_01,2022.2.4,60.00219153212062,
4,stimuli/4.png,l,1,0,1,0,84,0,84,0,0,0,0,0,,,,,,,,,,,,,,,,,,421.26326138264267,421.26326138264267,421.26326138264267,421.26326138264267,l,1,0.6840228908113204,421.9798802911537,421.9798802911537,421.9798802911537,422.97983350392315,422.97983350392315,422.97983350392315,,,,,,,,,,,,,,,,,,,,,,,,,123,001,2023-03-03_11h46.50.661,eb_01,2022.2.4,60.00219153212062,
,,,1,0,1,0,84,0,84,0,,,,,,,,,,,,,,,,,,,,,,,,,,,,,,,,,,,,,,,,,,,,,,,,,,,,,,,,,,,123,001,2023-03-03_11h46.50.661,eb_01,2022.2.4,60.00219153212062,
2,stimuli/2.png,s,1,0,1,0,85,0,85,0,0,0,0,0,,,,,,,,,,,,,,,,,,422.97983350392315,422.97983350392315,422.97983350392315,422.97983350392315,s,1,0.71950902955723,423.72981350615737,423.72981350615737,423.72981350615737,424.7297902634891,424.7297902634891,424.7297902634891,,,,,,,,,,,,,,,,,,,,,,,,,123,001,2023-03-03_11h46.50.661,eb_01,2022.2.4,60.00219153212062,
,,,1,0,1,0,85,0,85,0,,,,,,,,,,,,,,,,,,,,,,,,,,,,,,,,,,,,,,,,,,,,,,,,,,,,,,,,,,,123,001,2023-03-03_11h46.50.661,eb_01,2022.2.4,60.00219153212062,
3,stimuli/3.png,l,1,0,1,0,86,0,86,0,0,0,0,0,,,,,,,,,,,,,,,,,,424.7297902634891,424.7297902634891,424.7297902634891,424.7297902634891,l,1,0.4336113897152245,425.1964048705704,425.1964048705704,425.1964048705704,426.21303123483085,426.21303123483085,426.21303123483085,,,,,,,,,,,,,,,,,,,,,,,,,123,001,2023-03-03_11h46.50.661,eb_01,2022.2.4,60.00219153212062,
,,,1,0,1,0,86,0,86,0,,,,,,,,,,,,,,,,,,,,,,,,,,,,,,,,,,,,,,,,,,,,,,,,,,,,,,,,,,,123,001,2023-03-03_11h46.50.661,eb_01,2022.2.4,60.00219153212062,
4,stimuli/4.png,l,1,0,1,0,87,0,87,0,0,0,0,0,,,,,,,,,,,,,,,,,,426.21303123483085,426.21303123483085,426.21303123483085,426.21303123483085,l,1,0.6464108014770318,426.8796647982963,426.8796647982963,426.8796647982963,427.87962314259494,427.87962314259494,427.87962314259494,,,,,,,,,,,,,,,,,,,,,,,,,123,001,2023-03-03_11h46.50.661,eb_01,2022.2.4,60.00219153212062,
,,,1,0,1,0,87,0,87,0,,,,,,,,,,,,,,,,,,,,,,,,,,,,,,,,,,,,,,,,,,,,,,,,,,,,,,,,,,,123,001,2023-03-03_11h46.50.661,eb_01,2022.2.4,60.00219153212062,
2,stimuli/2.png,s,1,0,1,0,88,0,88,0,0,0,0,0,,,,,,,,,,,,,,,,,,427.87962314259494,427.87962314259494,427.87962314259494,427.87962314259494,s,1,0.611835655028699,428.5129264013085,428.5129264013085,428.5129264013085,429.52954310626956,429.52954310626956,429.52954310626956,,,,,,,,,,,,,,,,,,,,,,,,,123,001,2023-03-03_11h46.50.661,eb_01,2022.2.4,60.00219153212062,
,,,1,0,1,0,88,0,88,0,,,,,,,,,,,,,,,,,,,,,,,,,,,,,,,,,,,,,,,,,,,,,,,,,,,,,,,,,,,123,001,2023-03-03_11h46.50.661,eb_01,2022.2.4,60.00219153212062,
4,stimuli/4.png,l,1,0,1,0,89,0,89,0,0,0,0,0,,,,,,,,,,,,,,,,,,429.52954310626956,429.52954310626956,429.52954310626956,429.52954310626956,l,1,0.4979945184313692,430.0461937696964,430.0461937696964,430.0461937696964,431.046149397298,431.046149397298,431.046149397298,,,,,,,,,,,,,,,,,,,,,,,,,123,001,2023-03-03_11h46.50.661,eb_01,2022.2.4,60.00219153212062,
,,,1,0,1,0,89,0,89,0,,,,,,,,,,,,,,,,,,,,,,,,,,,,,,,,,,,,,,,,,,,,,,,,,,,,,,,,,,,123,001,2023-03-03_11h46.50.661,eb_01,2022.2.4,60.00219153212062,
2,stimuli/2.png,s,1,0,1,0,90,0,90,0,0,0,0,0,,,,,,,,,,,,,,,,,,431.046149397298,431.046149397298,431.046149397298,431.046149397298,s,1,0.5734414646285586,431.64611329569016,431.64611329569016,431.64611329569016,432.6460867326241,432.6460867326241,432.6460867326241,,,,,,,,,,,,,,,,,,,,,,,,,123,001,2023-03-03_11h46.50.661,eb_01,2022.2.4,60.00219153212062,
,,,1,0,1,0,90,0,90,0,,,,,,,,,,,,,,,,,,,,,,,,,,,,,,,,,,,,,,,,,,,,,,,,,,,,,,,,,,,123,001,2023-03-03_11h46.50.661,eb_01,2022.2.4,60.00219153212062,
3,stimuli/3.png,l,1,0,1,0,91,0,91,0,0,0,0,0,,,,,,,,,,,,,,,,,,432.6460867326241,432.6460867326241,432.6460867326241,432.6460867326241,l,1,0.6055595277575776,433.27938546353835,433.27938546353835,433.27938546353835,434.29600911113084,434.29600911113084,434.29600911113084,,,,,,,,,,,,,,,,,,,,,,,,,123,001,2023-03-03_11h46.50.661,eb_01,2022.2.4,60.00219153212062,
,,,1,0,1,0,91,0,91,0,,,,,,,,,,,,,,,,,,,,,,,,,,,,,,,,,,,,,,,,,,,,,,,,,,,,,,,,,,,123,001,2023-03-03_11h46.50.661,eb_01,2022.2.4,60.00219153212062,
8,stimuli/8.png,l,1,0,1,0,92,0,92,0,0,0,0,0,,,,,,,,,,,,,,,,,,434.29600911113084,434.29600911113084,434.29600911113084,434.29600911113084,l,1,0.5146827625576407,434.829318437085,434.829318437085,434.829318437085,435.8459405754111,435.8459405754111,435.8459405754111,,,,,,,,,,,,,,,,,,,,,,,,,123,001,2023-03-03_11h46.50.661,eb_01,2022.2.4,60.00219153212062,
,,,1,0,1,0,92,0,92,0,,,,,,,,,,,,,,,,,,,,,,,,,,,,,,,,,,,,,,,,,,,,,,,,,,,,,,,,,,,123,001,2023-03-03_11h46.50.661,eb_01,2022.2.4,60.00219153212062,
6,stimuli/6.png,s,1,0,1,0,93,0,93,0,0,0,0,0,,,,,,,,,,,,,,,,,,435.8459405754111,435.8459405754111,435.8459405754111,435.8459405754111,s,1,0.5968073004623875,436.4792444378254,436.4792444378254,436.4792444378254,,,,,,,,,,,,,,,,,,,,,,,,,,,,123,001,2023-03-03_11h46.50.661,eb_01,2022.2.4,60.00219153212062,
,,,1,0,1,0,93,0,93,0,,,,,,,,,,,,,,,,,,,,,,,,,,,,,,,,,,,,,,,,,,,,,,,,,,,,,,,,,,,123,001,2023-03-03_11h46.50.661,eb_01,2022.2.4,60.00219153212062,
9,stimuli/9.png,l,1,0,1,0,94,0,94,0,0,0,0,0,,,,,,,,,,,,,,,,,,437.49587834841805,437.49587834841805,437.49587834841805,437.49587834841805,l,1,0.48289854879840277,438.01250697657815,438.01250697657815,438.01250697657815,,,,,,,,,,,,,,,,,,,,,,,,,,,,123,001,2023-03-03_11h46.50.661,eb_01,2022.2.4,60.00219153212062,
,,,1,0,1,0,94,0,94,0,,,,,,,,,,,,,,,,,,,,,,,,,,,,,,,,,,,,,,,,,,,,,,,,,,,,,,,,,,,123,001,2023-03-03_11h46.50.661,eb_01,2022.2.4,60.00219153212062,
8,stimuli/8.png,l,1,0,1,0,95,0,95,0,0,0,0,0,,,,,,,,,,,,,,,,,,439.0121743345808,439.0121743345808,439.0121743345808,439.0121743345808,l,1,0.47067531404900365,439.51245037914487,439.51245037914487,439.51245037914487,440.512409930845,440.512409930845,440.512409930845,,,,,,,,,,,,,,,,,,,,,,,,,123,001,2023-03-03_11h46.50.661,eb_01,2022.2.4,60.00219153212062,
,,,1,0,1,0,95,0,95,0,,,,,,,,,,,,,,,,,,,,,,,,,,,,,,,,,,,,,,,,,,,,,,,,,,,,,,,,,,,123,001,2023-03-03_11h46.50.661,eb_01,2022.2.4,60.00219153212062,
3,stimuli/3.png,l,1,0,1,0,96,0,96,0,0,0,0,0,,,,,,,,,,,,,,,,,,440.512409930845,440.512409930845,440.512409930845,440.512409930845,l,1,0.5704872294445522,441.1123837903724,441.1123837903724,441.1123837903724,442.1123297586746,442.1123297586746,442.1123297586746,,,,,,,,,,,,,,,,,,,,,,,,,123,001,2023-03-03_11h46.50.661,eb_01,2022.2.4,60.00219153212062,
,,,1,0,1,0,96,0,96,0,,,,,,,,,,,,,,,,,,,,,,,,,,,,,,,,,,,,,,,,,,,,,,,,,,,,,,,,,,,123,001,2023-03-03_11h46.50.661,eb_01,2022.2.4,60.00219153212062,
2,stimuli/2.png,s,1,0,1,0,97,0,97,0,0,0,0,0,,,,,,,,,,,,,,,,,,442.1123297586746,442.1123297586746,442.1123297586746,442.1123297586746,s,1,0.5785968117415905,442.7123039200669,442.7123039200669,442.7123039200669,443.71226950883283,443.71226950883283,443.71226950883283,,,,,,,,,,,,,,,,,,,,,,,,,123,001,2023-03-03_11h46.50.661,eb_01,2022.2.4,60.00219153212062,
,,,1,0,1,0,97,0,97,0,,,,,,,,,,,,,,,,,,,,,,,,,,,,,,,,,,,,,,,,,,,,,,,,,,,,,,,,,,,123,001,2023-03-03_11h46.50.661,eb_01,2022.2.4,60.00219153212062,
3,stimuli/3.png,l,1,0,1,0,98,0,98,0,0,0,0,0,,,,,,,,,,,,,,,,,,443.71226950883283,443.71226950883283,443.71226950883283,443.71226950883283,l,1,0.40275929801282473,444.1455821853597,444.1455821853597,444.1455821853597,445.16220341812004,445.16220341812004,445.16220341812004,,,,,,,,,,,,,,,,,,,,,,,,,123,001,2023-03-03_11h46.50.661,eb_01,2022.2.4,60.00219153212062,
,,,1,0,1,0,98,0,98,0,,,,,,,,,,,,,,,,,,,,,,,,,,,,,,,,,,,,,,,,,,,,,,,,,,,,,,,,,,,123,001,2023-03-03_11h46.50.661,eb_01,2022.2.4,60.00219153212062,
4,stimuli/4.png,l,1,0,1,0,99,0,99,0,0,0,0,0,,,,,,,,,,,,,,,,,,445.16220341812004,445.16220341812004,445.16220341812004,445.16220341812004,l,1,0.5288414786627982,445.71218408443383,445.71218408443383,445.71218408443383,446.7121231101337,446.7121231101337,446.7121231101337,,,,,,,,,,,,,,,,,,,,,,,,,123,001,2023-03-03_11h46.50.661,eb_01,2022.2.4,60.00219153212062,
,,,1,0,1,0,99,0,99,0,,,,,,,,,,,,,,,,,,,,,,,,,,,,,,,,,,,,,,,,,,,,,,,,,,,,,,,,,,,123,001,2023-03-03_11h46.50.661,eb_01,2022.2.4,60.00219153212062,
,,,1,0,1,0,,,,,,,,,,,,,,,,,,,,,,,,,,,,,,,,,,,,,,,446.7121231101337,446.7121231101337,return,1.9390237646875903,,,,,,,,,,,,,,,,,,,,,123,001,2023-03-03_11h46.50.661,eb_01,2022.2.4,60.00219153212062,
