index,stimulus,correct_answer,block.thisRepN,block.thisTrialN,block.thisN,block.thisIndex,trial.thisRepN,trial.thisTrialN,trial.thisN,trial.thisIndex,display_row.thisRepN,display_row.thisTrialN,display_row.thisN,display_row.thisIndex,pair_questions.thisRepN,pair_questions.thisTrialN,pair_questions.thisN,pair_questions.thisIndex,welcome_text.started,instructions_0_keypress.started,instructions_0_keypress.keys,instructions_0_keypress.rt,instructions_1_keypress.started,instructions_1_text.started,instructions_1_keypress.keys,instructions_1_keypress.rt,instructions_2_keypress.started,instructions_2_text.started,instructions_2_keypress.keys,instructions_2_keypress.rt,text_countdown.started,image.started,size_question.started,size_resp.started,keypress_options.started,size_resp.keys,size_resp.corr,size_resp.rt,fb_image.started,fb.started,fb_size_question.started,fb_image.stopped,fb.stopped,fb_size_question.stopped,block_break_text.started,block_break_keypress.started,block_break_keypress.keys,block_break_keypress.rt,seq_reveal.started,seq_reveal_adv.started,seq_reveal_adv.keys,seq_reveal_adv.rt,instruction_2afc_text.started,instruction_2afc_keypress.started,instruction_2afc_keypress.keys,instruction_2afc_keypress.rt,dist_2afc_test.started,dist_2afc_resp.started,text.started,stim_00.started,stim_01.started,stim_10.started,stim_11.started,dist_2afc_resp.keys,dist_2afc_resp.rt,graph.started,debrief_text.started,debriefing_title.started,participant,session,date,expName,psychopyVersion,frameRate,
,,,,,,,,,,,,,,,,,,,19.92528165402473,19.92528165402473,return,194.68337702966528,,,,,,,,,,,,,,,,,,,,,,,,,,,,,,,,,,,,,,,,,,,,,,,124,001,2023-03-03_12h03.50.705,eb_01,2022.2.4,119.96136284611737,
,,,,,,,,,,,,,,,,,,,,,,,214.62010552271386,214.62010552271386,return,11.227972740714904,,,,,,,,,,,,,,,,,,,,,,,,,,,,,,,,,,,,,,,,,,,124,001,2023-03-03_12h03.50.705,eb_01,2022.2.4,119.96136284611737,
,,,,,,,,,,,,,,,,,,,,,,,,,,,225.8629390906426,225.8629390906426,space,6.50542644286179,,,,,,,,,,,,,,,,,,,,,,,,,,,,,,,,,,,,,,,124,001,2023-03-03_12h03.50.705,eb_01,2022.2.4,119.96136284611737,
3,stimuli/3.png,l,0,0,0,0,0,0,0,0,0,0,0,0,,,,,,,,,,,,,,,,,232.38865402835654,237.40584139112616,237.40584139112616,237.40584139112616,237.40584139112616,l,1,1.0657464219839312,238.48928940447513,238.48928940447513,238.48928940447513,,,,,,,,,,,,,,,,,,,,,,,,,,,,124,001,2023-03-03_12h03.50.705,eb_01,2022.2.4,119.96136284611737,
,,,0,0,0,0,0,0,0,0,,,,,,,,,,,,,,,,,,,,,,,,,,,,,,,,,,,,,,,,,,,,,,,,,,,,,,,,,,,124,001,2023-03-03_12h03.50.705,eb_01,2022.2.4,119.96136284611737,
4,stimuli/4.png,l,0,0,0,0,1,0,1,0,0,0,0,0,,,,,,,,,,,,,,,,,,239.50609491975047,239.50609491975047,239.50609491975047,239.50609491975047,l,1,1.8136027181753889,241.33960700198077,241.33960700198077,241.33960700198077,,,,,,,,,,,,,,,,,,,,,,,,,,,,124,001,2023-03-03_12h03.50.705,eb_01,2022.2.4,119.96136284611737,
,,,0,0,0,0,1,0,1,0,,,,,,,,,,,,,,,,,,,,,,,,,,,,,,,,,,,,,,,,,,,,,,,,,,,,,,,,,,,124,001,2023-03-03_12h03.50.705,eb_01,2022.2.4,119.96136284611737,
1,stimuli/1.png,s,0,0,0,0,2,0,2,0,0,0,0,0,,,,,,,,,,,,,,,,,,242.3647229070193,242.3647229070193,242.3647229070193,242.3647229070193,l,0,0.8350682820018847,243.23149043373996,243.23149043373996,243.23149043373996,,,,,,,,,,,,,,,,,,,,,,,,,,,,124,001,2023-03-03_12h03.50.705,eb_01,2022.2.4,119.96136284611737,
,,,0,0,0,0,2,0,2,0,,,,,,,,,,,,,,,,,,,,,,,,,,,,,,,,,,,,,,,,,,,,,,,,,,,,,,,,,,,124,001,2023-03-03_12h03.50.705,eb_01,2022.2.4,119.96136284611737,
4,stimuli/4.png,l,0,0,0,0,3,0,3,0,0,0,0,0,,,,,,,,,,,,,,,,,,244.23994601611048,244.23994601611048,244.23994601611048,244.23994601611048,l,1,0.8159463259507902,245.07335244884598,245.07335244884598,245.07335244884598,,,,,,,,,,,,,,,,,,,,,,,,,,,,124,001,2023-03-03_12h03.50.705,eb_01,2022.2.4,119.96136284611737,
,,,0,0,0,0,3,0,3,0,,,,,,,,,,,,,,,,,,,,,,,,,,,,,,,,,,,,,,,,,,,,,,,,,,,,,,,,,,,124,001,2023-03-03_12h03.50.705,eb_01,2022.2.4,119.96136284611737,
2,stimuli/2.png,s,0,0,0,0,4,0,4,0,0,0,0,0,,,,,,,,,,,,,,,,,,246.08179384400137,246.08179384400137,246.08179384400137,246.08179384400137,s,1,0.7021678500168491,246.79851855250308,246.79851855250308,246.79851855250308,247.8069665884832,247.8069665884832,247.8069665884832,,,,,,,,,,,,,,,,,,,,,,,,,124,001,2023-03-03_12h03.50.705,eb_01,2022.2.4,119.96136284611737,
,,,0,0,0,0,4,0,4,0,,,,,,,,,,,,,,,,,,,,,,,,,,,,,,,,,,,,,,,,,,,,,,,,,,,,,,,,,,,124,001,2023-03-03_12h03.50.705,eb_01,2022.2.4,119.96136284611737,
3,stimuli/3.png,l,0,0,0,0,5,0,5,0,0,0,0,0,,,,,,,,,,,,,,,,,,247.8069665884832,247.8069665884832,247.8069665884832,247.8069665884832,l,1,0.7130198649538215,248.53207383028348,248.53207383028348,248.53207383028348,249.54047477678978,249.54047477678978,249.54047477678978,,,,,,,,,,,,,,,,,,,,,,,,,124,001,2023-03-03_12h03.50.705,eb_01,2022.2.4,119.96136284611737,
,,,0,0,0,0,5,0,5,0,,,,,,,,,,,,,,,,,,,,,,,,,,,,,,,,,,,,,,,,,,,,,,,,,,,,,,,,,,,124,001,2023-03-03_12h03.50.705,eb_01,2022.2.4,119.96136284611737,
2,stimuli/2.png,s,0,0,0,0,6,0,6,0,0,0,0,0,,,,,,,,,,,,,,,,,,249.54047477678978,249.54047477678978,249.54047477678978,249.54047477678978,s,1,1.162619468435878,250.71562263325904,250.71562263325904,250.71562263325904,251.73240973532666,251.73240973532666,251.73240973532666,,,,,,,,,,,,,,,,,,,,,,,,,124,001,2023-03-03_12h03.50.705,eb_01,2022.2.4,119.96136284611737,
,,,0,0,0,0,6,0,6,0,,,,,,,,,,,,,,,,,,,,,,,,,,,,,,,,,,,,,,,,,,,,,,,,,,,,,,,,,,,124,001,2023-03-03_12h03.50.705,eb_01,2022.2.4,119.96136284611737,
4,stimuli/4.png,l,0,0,0,0,7,0,7,0,0,0,0,0,,,,,,,,,,,,,,,,,,251.73240973532666,251.73240973532666,251.73240973532666,251.73240973532666,l,1,0.554759024787927,252.30746963105048,252.30746963105048,252.30746963105048,,,,,,,,,,,,,,,,,,,,,,,,,,,,124,001,2023-03-03_12h03.50.705,eb_01,2022.2.4,119.96136284611737,
,,,0,0,0,0,7,0,7,0,,,,,,,,,,,,,,,,,,,,,,,,,,,,,,,,,,,,,,,,,,,,,,,,,,,,,,,,,,,124,001,2023-03-03_12h03.50.705,eb_01,2022.2.4,119.96136284611737,
3,stimuli/3.png,l,0,0,0,0,8,0,8,0,0,0,0,0,,,,,,,,,,,,,,,,,,253.31589472599444,253.31589472599444,253.31589472599444,253.31589472599444,l,1,0.6513628159009386,253.982647522178,253.982647522178,253.982647522178,254.99939085516962,254.99939085516962,254.99939085516962,,,,,,,,,,,,,,,,,,,,,,,,,124,001,2023-03-03_12h03.50.705,eb_01,2022.2.4,119.96136284611737,
,,,0,0,0,0,8,0,8,0,,,,,,,,,,,,,,,,,,,,,,,,,,,,,,,,,,,,,,,,,,,,,,,,,,,,,,,,,,,124,001,2023-03-03_12h03.50.705,eb_01,2022.2.4,119.96136284611737,
4,stimuli/4.png,l,0,0,0,0,9,0,9,0,0,0,0,0,,,,,,,,,,,,,,,,,,254.99939085516962,254.99939085516962,254.99939085516962,254.99939085516962,l,1,0.6319251187669579,255.64945948205423,255.64945948205423,255.64945948205423,,,,,,,,,,,,,,,,,,,,,,,,,,,,124,001,2023-03-03_12h03.50.705,eb_01,2022.2.4,119.96136284611737,
,,,0,0,0,0,9,0,9,0,,,,,,,,,,,,,,,,,,,,,,,,,,,,,,,,,,,,,,,,,,,,,,,,,,,,,,,,,,,124,001,2023-03-03_12h03.50.705,eb_01,2022.2.4,119.96136284611737,
2,stimuli/2.png,s,0,0,0,0,10,0,10,0,0,0,0,0,,,,,,,,,,,,,,,,,,256.65788608629373,256.65788608629373,256.65788608629373,256.65788608629373,s,1,0.37346176360733807,257.0412576395902,257.0412576395902,257.0412576395902,258.04972982403706,258.04972982403706,258.04972982403706,,,,,,,,,,,,,,,,,,,,,,,,,124,001,2023-03-03_12h03.50.705,eb_01,2022.2.4,119.96136284611737,
,,,0,0,0,0,10,0,10,0,,,,,,,,,,,,,,,,,,,,,,,,,,,,,,,,,,,,,,,,,,,,,,,,,,,,,,,,,,,124,001,2023-03-03_12h03.50.705,eb_01,2022.2.4,119.96136284611737,
3,stimuli/3.png,l,0,0,0,0,11,0,11,0,0,0,0,0,,,,,,,,,,,,,,,,,,258.04972982403706,258.04972982403706,258.04972982403706,258.04972982403706,l,1,0.4217076649365481,258.4831037770782,258.4831037770782,258.4831037770782,259.491570528131,259.491570528131,259.491570528131,,,,,,,,,,,,,,,,,,,,,,,,,124,001,2023-03-03_12h03.50.705,eb_01,2022.2.4,119.96136284611737,
,,,0,0,0,0,11,0,11,0,,,,,,,,,,,,,,,,,,,,,,,,,,,,,,,,,,,,,,,,,,,,,,,,,,,,,,,,,,,124,001,2023-03-03_12h03.50.705,eb_01,2022.2.4,119.96136284611737,
8,stimuli/8.png,l,0,0,0,0,12,0,12,0,0,0,0,0,,,,,,,,,,,,,,,,,,259.491570528131,259.491570528131,259.491570528131,259.491570528131,l,1,1.1479713159787934,260.6583424921264,260.6583424921264,260.6583424921264,,,,,,,,,,,,,,,,,,,,,,,,,,,,124,001,2023-03-03_12h03.50.705,eb_01,2022.2.4,119.96136284611737,
,,,0,0,0,0,12,0,12,0,,,,,,,,,,,,,,,,,,,,,,,,,,,,,,,,,,,,,,,,,,,,,,,,,,,,,,,,,,,124,001,2023-03-03_12h03.50.705,eb_01,2022.2.4,119.96136284611737,
3,stimuli/3.png,l,0,0,0,0,13,0,13,0,0,0,0,0,,,,,,,,,,,,,,,,,,261.66678267988027,261.66678267988027,261.66678267988027,261.66678267988027,l,1,0.6127765994169749,262.30018192844,262.30018192844,262.30018192844,,,,,,,,,,,,,,,,,,,,,,,,,,,,124,001,2023-03-03_12h03.50.705,eb_01,2022.2.4,119.96136284611737,
,,,0,0,0,0,13,0,13,0,,,,,,,,,,,,,,,,,,,,,,,,,,,,,,,,,,,,,,,,,,,,,,,,,,,,,,,,,,,124,001,2023-03-03_12h03.50.705,eb_01,2022.2.4,119.96136284611737,
2,stimuli/2.png,s,0,0,0,0,14,0,14,0,0,0,0,0,,,,,,,,,,,,,,,,,,263.3086160790699,263.3086160790699,263.3086160790699,263.3086160790699,s,1,0.6421290494618006,263.96701049039257,263.96701049039257,263.96701049039257,264.9838160056679,264.9838160056679,264.9838160056679,,,,,,,,,,,,,,,,,,,,,,,,,124,001,2023-03-03_12h03.50.705,eb_01,2022.2.4,119.96136284611737,
,,,0,0,0,0,14,0,14,0,,,,,,,,,,,,,,,,,,,,,,,,,,,,,,,,,,,,,,,,,,,,,,,,,,,,,,,,,,,124,001,2023-03-03_12h03.50.705,eb_01,2022.2.4,119.96136284611737,
4,stimuli/4.png,l,0,0,0,0,15,0,15,0,0,0,0,0,,,,,,,,,,,,,,,,,,264.9838160056679,264.9838160056679,264.9838160056679,264.9838160056679,l,1,0.5349352541670669,265.5421965618152,265.5421965618152,265.5421965618152,,,,,,,,,,,,,,,,,,,,,,,,,,,,124,001,2023-03-03_12h03.50.705,eb_01,2022.2.4,119.96136284611737,
,,,0,0,0,0,15,0,15,0,,,,,,,,,,,,,,,,,,,,,,,,,,,,,,,,,,,,,,,,,,,,,,,,,,,,,,,,,,,124,001,2023-03-03_12h03.50.705,eb_01,2022.2.4,119.96136284611737,
1,stimuli/1.png,s,0,0,0,0,16,0,16,0,0,0,0,0,,,,,,,,,,,,,,,,,,266.56729646850727,266.56729646850727,266.56729646850727,266.56729646850727,s,1,0.7594854212366045,267.35903745456017,267.35903745456017,267.35903745456017,,,,,,,,,,,,,,,,,,,,,,,,,,,,124,001,2023-03-03_12h03.50.705,eb_01,2022.2.4,119.96136284611737,
,,,0,0,0,0,16,0,16,0,,,,,,,,,,,,,,,,,,,,,,,,,,,,,,,,,,,,,,,,,,,,,,,,,,,,,,,,,,,124,001,2023-03-03_12h03.50.705,eb_01,2022.2.4,119.96136284611737,
2,stimuli/2.png,s,0,0,0,0,17,0,17,0,0,0,0,0,,,,,,,,,,,,,,,,,,268.3591603098321,268.3591603098321,268.3591603098321,268.3591603098321,s,1,0.6316920861427207,269.000896511483,269.000896511483,269.000896511483,270.0176718411676,270.0176718411676,270.0176718411676,,,,,,,,,,,,,,,,,,,,,,,,,124,001,2023-03-03_12h03.50.705,eb_01,2022.2.4,119.96136284611737,
,,,0,0,0,0,17,0,17,0,,,,,,,,,,,,,,,,,,,,,,,,,,,,,,,,,,,,,,,,,,,,,,,,,,,,,,,,,,,124,001,2023-03-03_12h03.50.705,eb_01,2022.2.4,119.96136284611737,
4,stimuli/4.png,l,0,0,0,0,18,0,18,0,0,0,0,0,,,,,,,,,,,,,,,,,,270.0176718411676,270.0176718411676,270.0176718411676,270.0176718411676,l,1,0.5412591314816382,270.57605481217615,270.57605481217615,270.57605481217615,,,,,,,,,,,,,,,,,,,,,,,,,,,,124,001,2023-03-03_12h03.50.705,eb_01,2022.2.4,119.96136284611737,
,,,0,0,0,0,18,0,18,0,,,,,,,,,,,,,,,,,,,,,,,,,,,,,,,,,,,,,,,,,,,,,,,,,,,,,,,,,,,124,001,2023-03-03_12h03.50.705,eb_01,2022.2.4,119.96136284611737,
3,stimuli/3.png,l,0,0,0,0,19,0,19,0,0,0,0,0,,,,,,,,,,,,,,,,,,271.58449318876956,271.58449318876956,271.58449318876956,271.58449318876956,l,1,0.5184934750723187,272.1178994101938,272.1178994101938,272.1178994101938,273.1263347682543,273.1263347682543,273.1263347682543,,,,,,,,,,,,,,,,,,,,,,,,,124,001,2023-03-03_12h03.50.705,eb_01,2022.2.4,119.96136284611737,
,,,0,0,0,0,19,0,19,0,,,,,,,,,,,,,,,,,,,,,,,,,,,,,,,,,,,,,,,,,,,,,,,,,,,,,,,,,,,124,001,2023-03-03_12h03.50.705,eb_01,2022.2.4,119.96136284611737,
8,stimuli/8.png,l,0,0,0,0,20,0,20,0,0,0,0,0,,,,,,,,,,,,,,,,,,273.1263347682543,273.1263347682543,273.1263347682543,273.1263347682543,l,1,0.7447524473245721,273.89308542123763,273.89308542123763,273.89308542123763,,,,,,,,,,,,,,,,,,,,,,,,,,,,124,001,2023-03-03_12h03.50.705,eb_01,2022.2.4,119.96136284611737,
,,,0,0,0,0,20,0,20,0,,,,,,,,,,,,,,,,,,,,,,,,,,,,,,,,,,,,,,,,,,,,,,,,,,,,,,,,,,,124,001,2023-03-03_12h03.50.705,eb_01,2022.2.4,119.96136284611737,
9,stimuli/9.png,l,0,0,0,0,21,0,21,0,0,0,0,0,,,,,,,,,,,,,,,,,,274.9098734288709,274.9098734288709,274.9098734288709,274.9098734288709,l,1,0.8012864011398051,275.7432946525223,275.7432946525223,275.7432946525223,,,,,,,,,,,,,,,,,,,,,,,,,,,,124,001,2023-03-03_12h03.50.705,eb_01,2022.2.4,119.96136284611737,
,,,0,0,0,0,21,0,21,0,,,,,,,,,,,,,,,,,,,,,,,,,,,,,,,,,,,,,,,,,,,,,,,,,,,,,,,,,,,124,001,2023-03-03_12h03.50.705,eb_01,2022.2.4,119.96136284611737,
8,stimuli/8.png,l,0,0,0,0,22,0,22,0,0,0,0,0,,,,,,,,,,,,,,,,,,276.74335924966726,276.74335924966726,276.74335924966726,276.74335924966726,l,1,0.5518430985393934,277.31844027526677,277.31844027526677,277.31844027526677,,,,,,,,,,,,,,,,,,,,,,,,,,,,124,001,2023-03-03_12h03.50.705,eb_01,2022.2.4,119.96136284611737,
,,,0,0,0,0,22,0,22,0,,,,,,,,,,,,,,,,,,,,,,,,,,,,,,,,,,,,,,,,,,,,,,,,,,,,,,,,,,,124,001,2023-03-03_12h03.50.705,eb_01,2022.2.4,119.96136284611737,
3,stimuli/3.png,l,0,0,0,0,23,0,23,0,0,0,0,0,,,,,,,,,,,,,,,,,,278.326900083659,278.326900083659,278.326900083659,278.326900083659,l,1,0.6083574316871818,278.94362270933925,278.94362270933925,278.94362270933925,279.95204508758616,279.95204508758616,279.95204508758616,,,,,,,,,,,,,,,,,,,,,,,,,124,001,2023-03-03_12h03.50.705,eb_01,2022.2.4,119.96136284611737,
,,,0,0,0,0,23,0,23,0,,,,,,,,,,,,,,,,,,,,,,,,,,,,,,,,,,,,,,,,,,,,,,,,,,,,,,,,,,,124,001,2023-03-03_12h03.50.705,eb_01,2022.2.4,119.96136284611737,
2,stimuli/2.png,s,0,0,0,0,24,0,24,0,0,0,0,0,,,,,,,,,,,,,,,,,,279.95204508758616,279.95204508758616,279.95204508758616,279.95204508758616,s,1,0.5032757208682597,280.4687858548132,280.4687858548132,280.4687858548132,281.49391051367274,281.49391051367274,281.49391051367274,,,,,,,,,,,,,,,,,,,,,,,,,124,001,2023-03-03_12h03.50.705,eb_01,2022.2.4,119.96136284611737,
,,,0,0,0,0,24,0,24,0,,,,,,,,,,,,,,,,,,,,,,,,,,,,,,,,,,,,,,,,,,,,,,,,,,,,,,,,,,,124,001,2023-03-03_12h03.50.705,eb_01,2022.2.4,119.96136284611737,
1,stimuli/1.png,s,0,0,0,0,25,0,25,0,0,0,0,0,,,,,,,,,,,,,,,,,,281.49391051367274,281.49391051367274,281.49391051367274,281.49391051367274,l,0,0.36846303290803917,281.893907978083,281.893907978083,281.893907978083,,,,,,,,,,,,,,,,,,,,,,,,,,,,124,001,2023-03-03_12h03.50.705,eb_01,2022.2.4,119.96136284611737,
,,,0,0,0,0,25,0,25,0,,,,,,,,,,,,,,,,,,,,,,,,,,,,,,,,,,,,,,,,,,,,,,,,,,,,,,,,,,,124,001,2023-03-03_12h03.50.705,eb_01,2022.2.4,119.96136284611737,
2,stimuli/2.png,s,0,0,0,0,26,0,26,0,0,0,0,0,,,,,,,,,,,,,,,,,,282.89402690922725,282.89402690922725,282.89402690922725,282.89402690922725,s,1,0.5764150595932733,283.4941064180166,283.4941064180166,283.4941064180166,,,,,,,,,,,,,,,,,,,,,,,,,,,,124,001,2023-03-03_12h03.50.705,eb_01,2022.2.4,119.96136284611737,
,,,0,0,0,0,26,0,26,0,,,,,,,,,,,,,,,,,,,,,,,,,,,,,,,,,,,,,,,,,,,,,,,,,,,,,,,,,,,124,001,2023-03-03_12h03.50.705,eb_01,2022.2.4,119.96136284611737,
3,stimuli/3.png,l,0,0,0,0,27,0,27,0,0,0,0,0,,,,,,,,,,,,,,,,,,284.5025650189782,284.5025650189782,284.5025650189782,284.5025650189782,l,1,0.45594534793053754,284.9692668618809,284.9692668618809,284.9692668618809,285.9860391730326,285.9860391730326,285.9860391730326,,,,,,,,,,,,,,,,,,,,,,,,,124,001,2023-03-03_12h03.50.705,eb_01,2022.2.4,119.96136284611737,
,,,0,0,0,0,27,0,27,0,,,,,,,,,,,,,,,,,,,,,,,,,,,,,,,,,,,,,,,,,,,,,,,,,,,,,,,,,,,124,001,2023-03-03_12h03.50.705,eb_01,2022.2.4,119.96136284611737,
4,stimuli/4.png,l,0,0,0,0,28,0,28,0,0,0,0,0,,,,,,,,,,,,,,,,,,285.9860391730326,285.9860391730326,285.9860391730326,285.9860391730326,l,1,0.596536459896015,286.6027503281948,286.6027503281948,286.6027503281948,,,,,,,,,,,,,,,,,,,,,,,,,,,,124,001,2023-03-03_12h03.50.705,eb_01,2022.2.4,119.96136284611737,
,,,0,0,0,0,28,0,28,0,,,,,,,,,,,,,,,,,,,,,,,,,,,,,,,,,,,,,,,,,,,,,,,,,,,,,,,,,,,124,001,2023-03-03_12h03.50.705,eb_01,2022.2.4,119.96136284611737,
2,stimuli/2.png,s,0,0,0,0,29,0,29,0,0,0,0,0,,,,,,,,,,,,,,,,,,287.6111820639635,287.6111820639635,287.6111820639635,287.6111820639635,s,1,0.41944948231684975,288.04460069167544,288.04460069167544,288.04460069167544,289.0613370819774,289.0613370819774,289.0613370819774,,,,,,,,,,,,,,,,,,,,,,,,,124,001,2023-03-03_12h03.50.705,eb_01,2022.2.4,119.96136284611737,
,,,0,0,0,0,29,0,29,0,,,,,,,,,,,,,,,,,,,,,,,,,,,,,,,,,,,,,,,,,,,,,,,,,,,,,,,,,,,124,001,2023-03-03_12h03.50.705,eb_01,2022.2.4,119.96136284611737,
4,stimuli/4.png,l,0,0,0,0,30,0,30,0,0,0,0,0,,,,,,,,,,,,,,,,,,289.0613370819774,289.0613370819774,289.0613370819774,289.0613370819774,l,1,0.481383333040867,289.56141813023714,289.56141813023714,289.56141813023714,,,,,,,,,,,,,,,,,,,,,,,,,,,,124,001,2023-03-03_12h03.50.705,eb_01,2022.2.4,119.96136284611737,
,,,0,0,0,0,30,0,30,0,,,,,,,,,,,,,,,,,,,,,,,,,,,,,,,,,,,,,,,,,,,,,,,,,,,,,,,,,,,124,001,2023-03-03_12h03.50.705,eb_01,2022.2.4,119.96136284611737,
1,stimuli/1.png,s,0,0,0,0,31,0,31,0,0,0,0,0,,,,,,,,,,,,,,,,,,290.5865286018816,290.5865286018816,290.5865286018816,290.5865286018816,s,1,0.3802514042763505,290.99493787961546,290.99493787961546,290.99493787961546,,,,,,,,,,,,,,,,,,,,,,,,,,,,124,001,2023-03-03_12h03.50.705,eb_01,2022.2.4,119.96136284611737,
,,,0,0,0,0,31,0,31,0,,,,,,,,,,,,,,,,,,,,,,,,,,,,,,,,,,,,,,,,,,,,,,,,,,,,,,,,,,,124,001,2023-03-03_12h03.50.705,eb_01,2022.2.4,119.96136284611737,
2,stimuli/2.png,s,0,0,0,0,32,0,32,0,0,0,0,0,,,,,,,,,,,,,,,,,,291.9949843653885,291.9949843653885,291.9949843653885,291.9949843653885,s,1,0.5238459806714673,292.5283999443345,292.5283999443345,292.5283999443345,293.5451622942346,293.5451622942346,293.5451622942346,,,,,,,,,,,,,,,,,,,,,,,,,124,001,2023-03-03_12h03.50.705,eb_01,2022.2.4,119.96136284611737,
,,,0,0,0,0,32,0,32,0,,,,,,,,,,,,,,,,,,,,,,,,,,,,,,,,,,,,,,,,,,,,,,,,,,,,,,,,,,,124,001,2023-03-03_12h03.50.705,eb_01,2022.2.4,119.96136284611737,
4,stimuli/4.png,l,0,0,0,0,33,0,33,0,0,0,0,0,,,,,,,,,,,,,,,,,,293.5451622942346,293.5451622942346,293.5451622942346,293.5451622942346,l,1,0.47774114191997796,294.0452460591914,294.0452460591914,294.0452460591914,,,,,,,,,,,,,,,,,,,,,,,,,,,,124,001,2023-03-03_12h03.50.705,eb_01,2022.2.4,119.96136284611737,
,,,0,0,0,0,33,0,33,0,,,,,,,,,,,,,,,,,,,,,,,,,,,,,,,,,,,,,,,,,,,,,,,,,,,,,,,,,,,124,001,2023-03-03_12h03.50.705,eb_01,2022.2.4,119.96136284611737,
3,stimuli/3.png,l,0,0,0,0,34,0,34,0,0,0,0,0,,,,,,,,,,,,,,,,,,295.05367417269736,295.05367417269736,295.05367417269736,295.05367417269736,l,1,0.4892961788282264,295.55373016695376,295.55373016695376,295.55373016695376,296.5621688454121,296.5621688454121,296.5621688454121,,,,,,,,,,,,,,,,,,,,,,,,,124,001,2023-03-03_12h03.50.705,eb_01,2022.2.4,119.96136284611737,
,,,0,0,0,0,34,0,34,0,,,,,,,,,,,,,,,,,,,,,,,,,,,,,,,,,,,,,,,,,,,,,,,,,,,,,,,,,,,124,001,2023-03-03_12h03.50.705,eb_01,2022.2.4,119.96136284611737,
2,stimuli/2.png,s,0,0,0,0,35,0,35,0,0,0,0,0,,,,,,,,,,,,,,,,,,296.5621688454121,296.5621688454121,296.5621688454121,296.5621688454121,s,1,0.4758240562514402,297.0538872828474,297.0538872828474,297.0538872828474,298.078976926452,298.078976926452,298.078976926452,,,,,,,,,,,,,,,,,,,,,,,,,124,001,2023-03-03_12h03.50.705,eb_01,2022.2.4,119.96136284611737,
,,,0,0,0,0,35,0,35,0,,,,,,,,,,,,,,,,,,,,,,,,,,,,,,,,,,,,,,,,,,,,,,,,,,,,,,,,,,,124,001,2023-03-03_12h03.50.705,eb_01,2022.2.4,119.96136284611737,
1,stimuli/1.png,s,0,0,0,0,36,0,36,0,0,0,0,0,,,,,,,,,,,,,,,,,,298.078976926452,298.078976926452,298.078976926452,298.078976926452,s,1,0.6870977032813244,298.79575415785075,298.79575415785075,298.79575415785075,,,,,,,,,,,,,,,,,,,,,,,,,,,,124,001,2023-03-03_12h03.50.705,eb_01,2022.2.4,119.96136284611737,
,,,0,0,0,0,36,0,36,0,,,,,,,,,,,,,,,,,,,,,,,,,,,,,,,,,,,,,,,,,,,,,,,,,,,,,,,,,,,124,001,2023-03-03_12h03.50.705,eb_01,2022.2.4,119.96136284611737,
4,stimuli/4.png,l,0,0,0,0,37,0,37,0,0,0,0,0,,,,,,,,,,,,,,,,,,299.8041747249663,299.8041747249663,299.8041747249663,299.8041747249663,l,1,0.5219756826409139,300.3459305774013,300.3459305774013,300.3459305774013,,,,,,,,,,,,,,,,,,,,,,,,,,,,124,001,2023-03-03_12h03.50.705,eb_01,2022.2.4,119.96136284611737,
,,,0,0,0,0,37,0,37,0,,,,,,,,,,,,,,,,,,,,,,,,,,,,,,,,,,,,,,,,,,,,,,,,,,,,,,,,,,,124,001,2023-03-03_12h03.50.705,eb_01,2022.2.4,119.96136284611737,
2,stimuli/2.png,s,0,0,0,0,38,0,38,0,0,0,0,0,,,,,,,,,,,,,,,,,,301.35433725916664,301.35433725916664,301.35433725916664,301.35433725916664,s,1,0.7318852436437737,302.0960595452634,302.0960595452634,302.0960595452634,303.10453655940364,303.10453655940364,303.10453655940364,,,,,,,,,,,,,,,,,,,,,,,,,124,001,2023-03-03_12h03.50.705,eb_01,2022.2.4,119.96136284611737,
,,,0,0,0,0,38,0,38,0,,,,,,,,,,,,,,,,,,,,,,,,,,,,,,,,,,,,,,,,,,,,,,,,,,,,,,,,,,,124,001,2023-03-03_12h03.50.705,eb_01,2022.2.4,119.96136284611737,
3,stimuli/3.png,l,0,0,0,0,39,0,39,0,0,0,0,0,,,,,,,,,,,,,,,,,,303.10453655940364,303.10453655940364,303.10453655940364,303.10453655940364,l,1,0.5177331004815642,303.63792346205446,303.63792346205446,303.63792346205446,304.6463856852788,304.6463856852788,304.6463856852788,,,,,,,,,,,,,,,,,,,,,,,,,124,001,2023-03-03_12h03.50.705,eb_01,2022.2.4,119.96136284611737,
,,,0,0,0,0,39,0,39,0,,,,,,,,,,,,,,,,,,,,,,,,,,,,,,,,,,,,,,,,,,,,,,,,,,,,,,,,,,,124,001,2023-03-03_12h03.50.705,eb_01,2022.2.4,119.96136284611737,
2,stimuli/2.png,s,0,0,0,0,40,0,40,0,0,0,0,0,,,,,,,,,,,,,,,,,,304.6463856852788,304.6463856852788,304.6463856852788,304.6463856852788,s,1,0.6959595834487118,305.35477404439007,305.35477404439007,305.35477404439007,306.36322721192846,306.36322721192846,306.36322721192846,,,,,,,,,,,,,,,,,,,,,,,,,124,001,2023-03-03_12h03.50.705,eb_01,2022.2.4,119.96136284611737,
,,,0,0,0,0,40,0,40,0,,,,,,,,,,,,,,,,,,,,,,,,,,,,,,,,,,,,,,,,,,,,,,,,,,,,,,,,,,,124,001,2023-03-03_12h03.50.705,eb_01,2022.2.4,119.96136284611737,
3,stimuli/3.png,l,0,0,0,0,41,0,41,0,0,0,0,0,,,,,,,,,,,,,,,,,,306.36322721192846,306.36322721192846,306.36322721192846,306.36322721192846,l,1,0.4031710071139969,306.7882470061304,306.7882470061304,306.7882470061304,,,,,,,,,,,,,,,,,,,,,,,,,,,,124,001,2023-03-03_12h03.50.705,eb_01,2022.2.4,119.96136284611737,
,,,0,0,0,0,41,0,41,0,,,,,,,,,,,,,,,,,,,,,,,,,,,,,,,,,,,,,,,,,,,,,,,,,,,,,,,,,,,124,001,2023-03-03_12h03.50.705,eb_01,2022.2.4,119.96136284611737,
4,stimuli/4.png,l,0,0,0,0,42,0,42,0,0,0,0,0,,,,,,,,,,,,,,,,,,307.80500482817297,307.80500482817297,307.80500482817297,307.80500482817297,l,1,0.5694753966236021,308.39674647833453,308.39674647833453,308.39674647833453,,,,,,,,,,,,,,,,,,,,,,,,,,,,124,001,2023-03-03_12h03.50.705,eb_01,2022.2.4,119.96136284611737,
,,,0,0,0,0,42,0,42,0,,,,,,,,,,,,,,,,,,,,,,,,,,,,,,,,,,,,,,,,,,,,,,,,,,,,,,,,,,,124,001,2023-03-03_12h03.50.705,eb_01,2022.2.4,119.96136284611737,
2,stimuli/2.png,s,0,0,0,0,43,0,43,0,0,0,0,0,,,,,,,,,,,,,,,,,,309.4052183609165,309.4052183609165,309.4052183609165,309.4052183609165,s,1,0.6013332491274923,310.0219201585569,310.0219201585569,310.0219201585569,311.047046326712,311.047046326712,311.047046326712,,,,,,,,,,,,,,,,,,,,,,,,,124,001,2023-03-03_12h03.50.705,eb_01,2022.2.4,119.96136284611737,
,,,0,0,0,0,43,0,43,0,,,,,,,,,,,,,,,,,,,,,,,,,,,,,,,,,,,,,,,,,,,,,,,,,,,,,,,,,,,124,001,2023-03-03_12h03.50.705,eb_01,2022.2.4,119.96136284611737,
1,stimuli/1.png,s,0,0,0,0,44,0,44,0,0,0,0,0,,,,,,,,,,,,,,,,,,311.047046326712,311.047046326712,311.047046326712,311.047046326712,s,1,0.6315523269586265,311.705439832469,311.705439832469,311.705439832469,,,,,,,,,,,,,,,,,,,,,,,,,,,,124,001,2023-03-03_12h03.50.705,eb_01,2022.2.4,119.96136284611737,
,,,0,0,0,0,44,0,44,0,,,,,,,,,,,,,,,,,,,,,,,,,,,,,,,,,,,,,,,,,,,,,,,,,,,,,,,,,,,124,001,2023-03-03_12h03.50.705,eb_01,2022.2.4,119.96136284611737,
4,stimuli/4.png,l,0,0,0,0,45,0,45,0,0,0,0,0,,,,,,,,,,,,,,,,,,312.7138902832812,312.7138902832812,312.7138902832812,312.7138902832812,l,1,0.5797843730833847,313.31396858466906,313.31396858466906,313.31396858466906,,,,,,,,,,,,,,,,,,,,,,,,,,,,124,001,2023-03-03_12h03.50.705,eb_01,2022.2.4,119.96136284611737,
,,,0,0,0,0,45,0,45,0,,,,,,,,,,,,,,,,,,,,,,,,,,,,,,,,,,,,,,,,,,,,,,,,,,,,,,,,,,,124,001,2023-03-03_12h03.50.705,eb_01,2022.2.4,119.96136284611737,
3,stimuli/3.png,l,0,0,0,0,46,0,46,0,0,0,0,0,,,,,,,,,,,,,,,,,,314.3223970000399,314.3223970000399,314.3223970000399,314.3223970000399,s,0,0.4433320048847236,314.81411755047156,314.81411755047156,314.81411755047156,,,,,,,,,,,,,,,,,,,,,,,,,,,,124,001,2023-03-03_12h03.50.705,eb_01,2022.2.4,119.96136284611737,
,,,0,0,0,0,46,0,46,0,,,,,,,,,,,,,,,,,,,,,,,,,,,,,,,,,,,,,,,,,,,,,,,,,,,,,,,,,,,124,001,2023-03-03_12h03.50.705,eb_01,2022.2.4,119.96136284611737,
8,stimuli/8.png,l,0,0,0,0,47,0,47,0,0,0,0,0,,,,,,,,,,,,,,,,,,315.82255592706497,315.82255592706497,315.82255592706497,315.82255592706497,l,1,0.9112750785134267,316.7559804409684,316.7559804409684,316.7559804409684,,,,,,,,,,,,,,,,,,,,,,,,,,,,124,001,2023-03-03_12h03.50.705,eb_01,2022.2.4,119.96136284611737,
,,,0,0,0,0,47,0,47,0,,,,,,,,,,,,,,,,,,,,,,,,,,,,,,,,,,,,,,,,,,,,,,,,,,,,,,,,,,,124,001,2023-03-03_12h03.50.705,eb_01,2022.2.4,119.96136284611737,
3,stimuli/3.png,l,0,0,0,0,48,0,48,0,0,0,0,0,,,,,,,,,,,,,,,,,,317.7644100637408,317.7644100637408,317.7644100637408,317.7644100637408,l,1,0.33745309308869764,318.1144685181207,318.1144685181207,318.1144685181207,319.13125924245105,319.13125924245105,319.13125924245105,,,,,,,,,,,,,,,,,,,,,,,,,124,001,2023-03-03_12h03.50.705,eb_01,2022.2.4,119.96136284611737,
,,,0,0,0,0,48,0,48,0,,,,,,,,,,,,,,,,,,,,,,,,,,,,,,,,,,,,,,,,,,,,,,,,,,,,,,,,,,,124,001,2023-03-03_12h03.50.705,eb_01,2022.2.4,119.96136284611737,
4,stimuli/4.png,l,0,0,0,0,49,0,49,0,0,0,0,0,,,,,,,,,,,,,,,,,,319.13125924245105,319.13125924245105,319.13125924245105,319.13125924245105,l,1,0.5546874849824235,319.7062732561026,319.7062732561026,319.7062732561026,,,,,,,,,,,,,,,,,,,,,,,,,,,,124,001,2023-03-03_12h03.50.705,eb_01,2022.2.4,119.96136284611737,
,,,0,0,0,0,49,0,49,0,,,,,,,,,,,,,,,,,,,,,,,,,,,,,,,,,,,,,,,,,,,,,,,,,,,,,,,,,,,124,001,2023-03-03_12h03.50.705,eb_01,2022.2.4,119.96136284611737,
1,stimuli/1.png,s,0,0,0,0,50,0,50,0,0,0,0,0,,,,,,,,,,,,,,,,,,320.73141602630494,320.73141602630494,320.73141602630494,320.73141602630494,s,1,0.4665960251004435,321.22312782291556,321.22312782291556,321.22312782291556,,,,,,,,,,,,,,,,,,,,,,,,,,,,124,001,2023-03-03_12h03.50.705,eb_01,2022.2.4,119.96136284611737,
,,,0,0,0,0,50,0,50,0,,,,,,,,,,,,,,,,,,,,,,,,,,,,,,,,,,,,,,,,,,,,,,,,,,,,,,,,,,,124,001,2023-03-03_12h03.50.705,eb_01,2022.2.4,119.96136284611737,
2,stimuli/2.png,s,0,0,0,0,51,0,51,0,0,0,0,0,,,,,,,,,,,,,,,,,,322.22321626663324,322.22321626663324,322.22321626663324,322.22321626663324,s,1,0.6148421980906278,322.84829878644086,322.84829878644086,322.84829878644086,323.8567492372822,323.8567492372822,323.8567492372822,,,,,,,,,,,,,,,,,,,,,,,,,124,001,2023-03-03_12h03.50.705,eb_01,2022.2.4,119.96136284611737,
,,,0,0,0,0,51,0,51,0,,,,,,,,,,,,,,,,,,,,,,,,,,,,,,,,,,,,,,,,,,,,,,,,,,,,,,,,,,,124,001,2023-03-03_12h03.50.705,eb_01,2022.2.4,119.96136284611737,
3,stimuli/3.png,l,0,0,0,0,52,0,52,0,0,0,0,0,,,,,,,,,,,,,,,,,,323.8567492372822,323.8567492372822,323.8567492372822,323.8567492372822,l,1,0.6053820398810785,324.4734573739115,324.4734573739115,324.4734573739115,325.49026409658836,325.49026409658836,325.49026409658836,,,,,,,,,,,,,,,,,,,,,,,,,124,001,2023-03-03_12h03.50.705,eb_01,2022.2.4,119.96136284611737,
,,,0,0,0,0,52,0,52,0,,,,,,,,,,,,,,,,,,,,,,,,,,,,,,,,,,,,,,,,,,,,,,,,,,,,,,,,,,,124,001,2023-03-03_12h03.50.705,eb_01,2022.2.4,119.96136284611737,
4,stimuli/4.png,l,0,0,0,0,53,0,53,0,0,0,0,0,,,,,,,,,,,,,,,,,,325.49026409658836,325.49026409658836,325.49026409658836,325.49026409658836,l,1,0.731942294340115,326.24032454320695,326.24032454320695,326.24032454320695,,,,,,,,,,,,,,,,,,,,,,,,,,,,124,001,2023-03-03_12h03.50.705,eb_01,2022.2.4,119.96136284611737,
,,,0,0,0,0,53,0,53,0,,,,,,,,,,,,,,,,,,,,,,,,,,,,,,,,,,,,,,,,,,,,,,,,,,,,,,,,,,,124,001,2023-03-03_12h03.50.705,eb_01,2022.2.4,119.96136284611737,
2,stimuli/2.png,s,0,0,0,0,54,0,54,0,0,0,0,0,,,,,,,,,,,,,,,,,,327.24877650331473,327.24877650331473,327.24877650331473,327.24877650331473,s,1,0.7085460613307077,327.9655350196408,327.9655350196408,327.9655350196408,328.98228408789146,328.98228408789146,328.98228408789146,,,,,,,,,,,,,,,,,,,,,,,,,124,001,2023-03-03_12h03.50.705,eb_01,2022.2.4,119.96136284611737,
,,,0,0,0,0,54,0,54,0,,,,,,,,,,,,,,,,,,,,,,,,,,,,,,,,,,,,,,,,,,,,,,,,,,,,,,,,,,,124,001,2023-03-03_12h03.50.705,eb_01,2022.2.4,119.96136284611737,
4,stimuli/4.png,l,0,0,0,0,55,0,55,0,0,0,0,0,,,,,,,,,,,,,,,,,,328.98228408789146,328.98228408789146,328.98228408789146,328.98228408789146,l,1,0.4470218891801778,329.44902849246864,329.44902849246864,329.44902849246864,,,,,,,,,,,,,,,,,,,,,,,,,,,,124,001,2023-03-03_12h03.50.705,eb_01,2022.2.4,119.96136284611737,
,,,0,0,0,0,55,0,55,0,,,,,,,,,,,,,,,,,,,,,,,,,,,,,,,,,,,,,,,,,,,,,,,,,,,,,,,,,,,124,001,2023-03-03_12h03.50.705,eb_01,2022.2.4,119.96136284611737,
3,stimuli/3.png,l,0,0,0,0,56,0,56,0,0,0,0,0,,,,,,,,,,,,,,,,,,330.45743789093103,330.45743789093103,330.45743789093103,330.45743789093103,l,1,0.41199153306661174,330.89083267201204,330.89083267201204,330.89083267201204,,,,,,,,,,,,,,,,,,,,,,,,,,,,124,001,2023-03-03_12h03.50.705,eb_01,2022.2.4,119.96136284611737,
,,,0,0,0,0,56,0,56,0,,,,,,,,,,,,,,,,,,,,,,,,,,,,,,,,,,,,,,,,,,,,,,,,,,,,,,,,,,,124,001,2023-03-03_12h03.50.705,eb_01,2022.2.4,119.96136284611737,
8,stimuli/8.png,l,0,0,0,0,57,0,57,0,0,0,0,0,,,,,,,,,,,,,,,,,,331.8992906692438,331.8992906692438,331.8992906692438,331.8992906692438,l,1,0.75419057009276,332.6743535231508,332.6743535231508,332.6743535231508,,,,,,,,,,,,,,,,,,,,,,,,,,,,124,001,2023-03-03_12h03.50.705,eb_01,2022.2.4,119.96136284611737,
,,,0,0,0,0,57,0,57,0,,,,,,,,,,,,,,,,,,,,,,,,,,,,,,,,,,,,,,,,,,,,,,,,,,,,,,,,,,,124,001,2023-03-03_12h03.50.705,eb_01,2022.2.4,119.96136284611737,
9,stimuli/9.png,l,0,0,0,0,58,0,58,0,0,0,0,0,,,,,,,,,,,,,,,,,,333.69114877533866,333.69114877533866,333.69114877533866,333.69114877533866,l,1,0.6663798360386863,334.382870472793,334.382870472793,334.382870472793,,,,,,,,,,,,,,,,,,,,,,,,,,,,124,001,2023-03-03_12h03.50.705,eb_01,2022.2.4,119.96136284611737,
,,,0,0,0,0,58,0,58,0,,,,,,,,,,,,,,,,,,,,,,,,,,,,,,,,,,,,,,,,,,,,,,,,,,,,,,,,,,,124,001,2023-03-03_12h03.50.705,eb_01,2022.2.4,119.96136284611737,
6,stimuli/6.png,s,0,0,0,0,59,0,59,0,0,0,0,0,,,,,,,,,,,,,,,,,,335.39964399137534,335.39964399137534,335.39964399137534,335.39964399137534,s,1,0.573960670735687,335.99970689808833,335.99970689808833,335.99970689808833,,,,,,,,,,,,,,,,,,,,,,,,,,,,124,001,2023-03-03_12h03.50.705,eb_01,2022.2.4,119.96136284611737,
,,,0,0,0,0,59,0,59,0,,,,,,,,,,,,,,,,,,,,,,,,,,,,,,,,,,,,,,,,,,,,,,,,,,,,,,,,,,,124,001,2023-03-03_12h03.50.705,eb_01,2022.2.4,119.96136284611737,
9,stimuli/9.png,l,0,0,0,0,60,0,60,0,0,0,0,0,,,,,,,,,,,,,,,,,,337.00815583966323,337.00815583966323,337.00815583966323,337.00815583966323,l,1,0.8215095268387813,337.8582177653443,337.8582177653443,337.8582177653443,,,,,,,,,,,,,,,,,,,,,,,,,,,,124,001,2023-03-03_12h03.50.705,eb_01,2022.2.4,119.96136284611737,
,,,0,0,0,0,60,0,60,0,,,,,,,,,,,,,,,,,,,,,,,,,,,,,,,,,,,,,,,,,,,,,,,,,,,,,,,,,,,124,001,2023-03-03_12h03.50.705,eb_01,2022.2.4,119.96136284611737,
5,stimuli/5.png,s,0,0,0,0,61,0,61,0,0,0,0,0,,,,,,,,,,,,,,,,,,338.8583907286811,338.8583907286811,338.8583907286811,338.8583907286811,s,1,1.2513786331401207,340.1334848246479,340.1334848246479,340.1334848246479,,,,,,,,,,,,,,,,,,,,,,,,,,,,124,001,2023-03-03_12h03.50.705,eb_01,2022.2.4,119.96136284611737,
,,,0,0,0,0,61,0,61,0,,,,,,,,,,,,,,,,,,,,,,,,,,,,,,,,,,,,,,,,,,,,,,,,,,,,,,,,,,,124,001,2023-03-03_12h03.50.705,eb_01,2022.2.4,119.96136284611737,
9,stimuli/9.png,l,0,0,0,0,62,0,62,0,0,0,0,0,,,,,,,,,,,,,,,,,,341.1502752471424,341.1502752471424,341.1502752471424,341.1502752471424,l,1,0.8715677699074149,342.05037126745447,342.05037126745447,342.05037126745447,,,,,,,,,,,,,,,,,,,,,,,,,,,,124,001,2023-03-03_12h03.50.705,eb_01,2022.2.4,119.96136284611737,
,,,0,0,0,0,62,0,62,0,,,,,,,,,,,,,,,,,,,,,,,,,,,,,,,,,,,,,,,,,,,,,,,,,,,,,,,,,,,124,001,2023-03-03_12h03.50.705,eb_01,2022.2.4,119.96136284611737,
5,stimuli/5.png,s,0,0,0,0,63,0,63,0,0,0,0,0,,,,,,,,,,,,,,,,,,343.0504814447777,343.0504814447777,343.0504814447777,343.0504814447777,s,1,0.5624584585893899,343.6338619933813,343.6338619933813,343.6338619933813,,,,,,,,,,,,,,,,,,,,,,,,,,,,124,001,2023-03-03_12h03.50.705,eb_01,2022.2.4,119.96136284611737,
,,,0,0,0,0,63,0,63,0,,,,,,,,,,,,,,,,,,,,,,,,,,,,,,,,,,,,,,,,,,,,,,,,,,,,,,,,,,,124,001,2023-03-03_12h03.50.705,eb_01,2022.2.4,119.96136284611737,
9,stimuli/9.png,l,0,0,0,0,64,0,64,0,0,0,0,0,,,,,,,,,,,,,,,,,,344.6506397379271,344.6506397379271,344.6506397379271,344.6506397379271,l,1,0.5223572282411624,345.200692698505,345.200692698505,345.200692698505,,,,,,,,,,,,,,,,,,,,,,,,,,,,124,001,2023-03-03_12h03.50.705,eb_01,2022.2.4,119.96136284611737,
,,,0,0,0,0,64,0,64,0,,,,,,,,,,,,,,,,,,,,,,,,,,,,,,,,,,,,,,,,,,,,,,,,,,,,,,,,,,,124,001,2023-03-03_12h03.50.705,eb_01,2022.2.4,119.96136284611737,
8,stimuli/8.png,l,0,0,0,0,65,0,65,0,0,0,0,0,,,,,,,,,,,,,,,,,,346.200818270474,346.200818270474,346.200818270474,346.200818270474,l,1,0.6442492840287741,346.8675408810668,346.8675408810668,346.8675408810668,,,,,,,,,,,,,,,,,,,,,,,,,,,,124,001,2023-03-03_12h03.50.705,eb_01,2022.2.4,119.96136284611737,
,,,0,0,0,0,65,0,65,0,,,,,,,,,,,,,,,,,,,,,,,,,,,,,,,,,,,,,,,,,,,,,,,,,,,,,,,,,,,124,001,2023-03-03_12h03.50.705,eb_01,2022.2.4,119.96136284611737,
6,stimuli/6.png,s,0,0,0,0,66,0,66,0,0,0,0,0,,,,,,,,,,,,,,,,,,347.89265135271125,347.89265135271125,347.89265135271125,347.89265135271125,s,1,0.7444596473069396,348.6677145084832,348.6677145084832,348.6677145084832,,,,,,,,,,,,,,,,,,,,,,,,,,,,124,001,2023-03-03_12h03.50.705,eb_01,2022.2.4,119.96136284611737,
,,,0,0,0,0,66,0,66,0,,,,,,,,,,,,,,,,,,,,,,,,,,,,,,,,,,,,,,,,,,,,,,,,,,,,,,,,,,,124,001,2023-03-03_12h03.50.705,eb_01,2022.2.4,119.96136284611737,
5,stimuli/5.png,s,0,0,0,0,67,0,67,0,0,0,0,0,,,,,,,,,,,,,,,,,,349.6678246858355,349.6678246858355,349.6678246858355,349.6678246858355,s,1,0.8013748448283877,350.49289658031194,350.49289658031194,350.49289658031194,,,,,,,,,,,,,,,,,,,,,,,,,,,,124,001,2023-03-03_12h03.50.705,eb_01,2022.2.4,119.96136284611737,
,,,0,0,0,0,67,0,67,0,,,,,,,,,,,,,,,,,,,,,,,,,,,,,,,,,,,,,,,,,,,,,,,,,,,,,,,,,,,124,001,2023-03-03_12h03.50.705,eb_01,2022.2.4,119.96136284611737,
6,stimuli/6.png,s,0,0,0,0,68,0,68,0,0,0,0,0,,,,,,,,,,,,,,,,,,351.51803784124786,351.51803784124786,351.51803784124786,351.51803784124786,s,1,0.5672211381024681,352.11810376652284,352.11810376652284,352.11810376652284,,,,,,,,,,,,,,,,,,,,,,,,,,,,124,001,2023-03-03_12h03.50.705,eb_01,2022.2.4,119.96136284611737,
,,,0,0,0,0,68,0,68,0,,,,,,,,,,,,,,,,,,,,,,,,,,,,,,,,,,,,,,,,,,,,,,,,,,,,,,,,,,,124,001,2023-03-03_12h03.50.705,eb_01,2022.2.4,119.96136284611737,
5,stimuli/5.png,s,0,0,0,0,69,0,69,0,0,0,0,0,,,,,,,,,,,,,,,,,,353.1182100197475,353.1182100197475,353.1182100197475,353.1182100197475,s,1,0.5671616725157946,353.70990669337334,353.70990669337334,353.70990669337334,,,,,,,,,,,,,,,,,,,,,,,,,,,,124,001,2023-03-03_12h03.50.705,eb_01,2022.2.4,119.96136284611737,
,,,0,0,0,0,69,0,69,0,,,,,,,,,,,,,,,,,,,,,,,,,,,,,,,,,,,,,,,,,,,,,,,,,,,,,,,,,,,124,001,2023-03-03_12h03.50.705,eb_01,2022.2.4,119.96136284611737,
9,stimuli/9.png,l,0,0,0,0,70,0,70,0,0,0,0,0,,,,,,,,,,,,,,,,,,354.72670556782396,354.72670556782396,354.72670556782396,354.72670556782396,l,1,0.5746975005604327,355.326779945055,355.326779945055,355.326779945055,,,,,,,,,,,,,,,,,,,,,,,,,,,,124,001,2023-03-03_12h03.50.705,eb_01,2022.2.4,119.96136284611737,
,,,0,0,0,0,70,0,70,0,,,,,,,,,,,,,,,,,,,,,,,,,,,,,,,,,,,,,,,,,,,,,,,,,,,,,,,,,,,124,001,2023-03-03_12h03.50.705,eb_01,2022.2.4,119.96136284611737,
5,stimuli/5.png,s,0,0,0,0,71,0,71,0,0,0,0,0,,,,,,,,,,,,,,,,,,356.326876538893,356.326876538893,356.326876538893,356.326876538893,s,1,0.4865960794559214,356.835270995507,356.835270995507,356.835270995507,,,,,,,,,,,,,,,,,,,,,,,,,,,,124,001,2023-03-03_12h03.50.705,eb_01,2022.2.4,119.96136284611737,
,,,0,0,0,0,71,0,71,0,,,,,,,,,,,,,,,,,,,,,,,,,,,,,,,,,,,,,,,,,,,,,,,,,,,,,,,,,,,124,001,2023-03-03_12h03.50.705,eb_01,2022.2.4,119.96136284611737,
6,stimuli/6.png,s,0,0,0,0,72,0,72,0,0,0,0,0,,,,,,,,,,,,,,,,,,357.8603648650751,357.8603648650751,357.8603648650751,357.8603648650751,s,1,0.48912955448031425,358.3770980859117,358.3770980859117,358.3770980859117,,,,,,,,,,,,,,,,,,,,,,,,,,,,124,001,2023-03-03_12h03.50.705,eb_01,2022.2.4,119.96136284611737,
,,,0,0,0,0,72,0,72,0,,,,,,,,,,,,,,,,,,,,,,,,,,,,,,,,,,,,,,,,,,,,,,,,,,,,,,,,,,,124,001,2023-03-03_12h03.50.705,eb_01,2022.2.4,119.96136284611737,
8,stimuli/8.png,l,0,0,0,0,73,0,73,0,0,0,0,0,,,,,,,,,,,,,,,,,,359.3771958871512,359.3771958871512,359.3771958871512,359.3771958871512,l,1,0.4593723159050569,359.8605909550097,359.8605909550097,359.8605909550097,,,,,,,,,,,,,,,,,,,,,,,,,,,,124,001,2023-03-03_12h03.50.705,eb_01,2022.2.4,119.96136284611737,
,,,0,0,0,0,73,0,73,0,,,,,,,,,,,,,,,,,,,,,,,,,,,,,,,,,,,,,,,,,,,,,,,,,,,,,,,,,,,124,001,2023-03-03_12h03.50.705,eb_01,2022.2.4,119.96136284611737,
6,stimuli/6.png,s,0,0,0,0,74,0,74,0,0,0,0,0,,,,,,,,,,,,,,,,,,360.8857255751209,360.8857255751209,360.8857255751209,360.8857255751209,s,1,0.5349346504663117,361.45244791405275,361.45244791405275,361.45244791405275,,,,,,,,,,,,,,,,,,,,,,,,,,,,124,001,2023-03-03_12h03.50.705,eb_01,2022.2.4,119.96136284611737,
,,,0,0,0,0,74,0,74,0,,,,,,,,,,,,,,,,,,,,,,,,,,,,,,,,,,,,,,,,,,,,,,,,,,,,,,,,,,,124,001,2023-03-03_12h03.50.705,eb_01,2022.2.4,119.96136284611737,
5,stimuli/5.png,s,0,0,0,0,75,0,75,0,0,0,0,0,,,,,,,,,,,,,,,,,,362.45255145055125,362.45255145055125,362.45255145055125,362.45255145055125,s,1,0.552180875063641,363.0276019887533,363.0276019887533,363.0276019887533,,,,,,,,,,,,,,,,,,,,,,,,,,,,124,001,2023-03-03_12h03.50.705,eb_01,2022.2.4,119.96136284611737,
,,,0,0,0,0,75,0,75,0,,,,,,,,,,,,,,,,,,,,,,,,,,,,,,,,,,,,,,,,,,,,,,,,,,,,,,,,,,,124,001,2023-03-03_12h03.50.705,eb_01,2022.2.4,119.96136284611737,
9,stimuli/9.png,l,0,0,0,0,76,0,76,0,0,0,0,0,,,,,,,,,,,,,,,,,,364.0443462273106,364.0443462273106,364.0443462273106,364.0443462273106,l,1,0.5764527915453073,364.6527762727055,364.6527762727055,364.6527762727055,,,,,,,,,,,,,,,,,,,,,,,,,,,,124,001,2023-03-03_12h03.50.705,eb_01,2022.2.4,119.96136284611737,
,,,0,0,0,0,76,0,76,0,,,,,,,,,,,,,,,,,,,,,,,,,,,,,,,,,,,,,,,,,,,,,,,,,,,,,,,,,,,124,001,2023-03-03_12h03.50.705,eb_01,2022.2.4,119.96136284611737,
8,stimuli/8.png,l,0,0,0,0,77,0,77,0,0,0,0,0,,,,,,,,,,,,,,,,,,365.6528804129048,365.6528804129048,365.6528804129048,365.6528804129048,l,1,0.583934587368276,366.2612974785152,366.2612974785152,366.2612974785152,,,,,,,,,,,,,,,,,,,,,,,,,,,,124,001,2023-03-03_12h03.50.705,eb_01,2022.2.4,119.96136284611737,
,,,0,0,0,0,77,0,77,0,,,,,,,,,,,,,,,,,,,,,,,,,,,,,,,,,,,,,,,,,,,,,,,,,,,,,,,,,,,124,001,2023-03-03_12h03.50.705,eb_01,2022.2.4,119.96136284611737,
6,stimuli/6.png,s,0,0,0,0,78,0,78,0,0,0,0,0,,,,,,,,,,,,,,,,,,367.2863925555139,367.2863925555139,367.2863925555139,367.2863925555139,s,1,0.4705310162389651,367.78644492747844,367.78644492747844,367.78644492747844,,,,,,,,,,,,,,,,,,,,,,,,,,,,124,001,2023-03-03_12h03.50.705,eb_01,2022.2.4,119.96136284611737,
,,,0,0,0,0,78,0,78,0,,,,,,,,,,,,,,,,,,,,,,,,,,,,,,,,,,,,,,,,,,,,,,,,,,,,,,,,,,,124,001,2023-03-03_12h03.50.705,eb_01,2022.2.4,119.96136284611737,
9,stimuli/9.png,l,0,0,0,0,79,0,79,0,0,0,0,0,,,,,,,,,,,,,,,,,,368.79488873749506,368.79488873749506,368.79488873749506,368.79488873749506,l,1,0.5780924717837479,369.40327773051104,369.40327773051104,369.40327773051104,,,,,,,,,,,,,,,,,,,,,,,,,,,,124,001,2023-03-03_12h03.50.705,eb_01,2022.2.4,119.96136284611737,
,,,0,0,0,0,79,0,79,0,,,,,,,,,,,,,,,,,,,,,,,,,,,,,,,,,,,,,,,,,,,,,,,,,,,,,,,,,,,124,001,2023-03-03_12h03.50.705,eb_01,2022.2.4,119.96136284611737,
6,stimuli/6.png,s,0,0,0,0,80,0,80,0,0,0,0,0,,,,,,,,,,,,,,,,,,370.4200738882355,370.4200738882355,370.4200738882355,370.4200738882355,s,1,0.5129770617932081,370.9617663509853,370.9617663509853,370.9617663509853,,,,,,,,,,,,,,,,,,,,,,,,,,,,124,001,2023-03-03_12h03.50.705,eb_01,2022.2.4,119.96136284611737,
,,,0,0,0,0,80,0,80,0,,,,,,,,,,,,,,,,,,,,,,,,,,,,,,,,,,,,,,,,,,,,,,,,,,,,,,,,,,,124,001,2023-03-03_12h03.50.705,eb_01,2022.2.4,119.96136284611737,
9,stimuli/9.png,l,0,0,0,0,81,0,81,0,0,0,0,0,,,,,,,,,,,,,,,,,,371.9702261593484,371.9702261593484,371.9702261593484,371.9702261593484,l,1,0.41888652139459737,372.42025802022545,372.42025802022545,372.42025802022545,,,,,,,,,,,,,,,,,,,,,,,,,,,,124,001,2023-03-03_12h03.50.705,eb_01,2022.2.4,119.96136284611737,
,,,0,0,0,0,81,0,81,0,,,,,,,,,,,,,,,,,,,,,,,,,,,,,,,,,,,,,,,,,,,,,,,,,,,,,,,,,,,124,001,2023-03-03_12h03.50.705,eb_01,2022.2.4,119.96136284611737,
5,stimuli/5.png,s,0,0,0,0,82,0,82,0,0,0,0,0,,,,,,,,,,,,,,,,,,373.4203890256176,373.4203890256176,373.4203890256176,373.4203890256176,s,1,0.6078358250088058,374.0454380394367,374.0454380394367,374.0454380394367,,,,,,,,,,,,,,,,,,,,,,,,,,,,124,001,2023-03-03_12h03.50.705,eb_01,2022.2.4,119.96136284611737,
,,,0,0,0,0,82,0,82,0,,,,,,,,,,,,,,,,,,,,,,,,,,,,,,,,,,,,,,,,,,,,,,,,,,,,,,,,,,,124,001,2023-03-03_12h03.50.705,eb_01,2022.2.4,119.96136284611737,
6,stimuli/6.png,s,0,0,0,0,83,0,83,0,0,0,0,0,,,,,,,,,,,,,,,,,,375.07057084841654,375.07057084841654,375.07057084841654,375.07057084841654,s,1,0.30959362140856683,375.412289934844,375.412289934844,375.412289934844,,,,,,,,,,,,,,,,,,,,,,,,,,,,124,001,2023-03-03_12h03.50.705,eb_01,2022.2.4,119.96136284611737,
,,,0,0,0,0,83,0,83,0,,,,,,,,,,,,,,,,,,,,,,,,,,,,,,,,,,,,,,,,,,,,,,,,,,,,,,,,,,,124,001,2023-03-03_12h03.50.705,eb_01,2022.2.4,119.96136284611737,
8,stimuli/8.png,l,0,0,0,0,84,0,84,0,0,0,0,0,,,,,,,,,,,,,,,,,,376.4123934713425,376.4123934713425,376.4123934713425,376.4123934713425,l,1,0.43188110820483416,376.86241748396424,376.86241748396424,376.86241748396424,,,,,,,,,,,,,,,,,,,,,,,,,,,,124,001,2023-03-03_12h03.50.705,eb_01,2022.2.4,119.96136284611737,
,,,0,0,0,0,84,0,84,0,,,,,,,,,,,,,,,,,,,,,,,,,,,,,,,,,,,,,,,,,,,,,,,,,,,,,,,,,,,124,001,2023-03-03_12h03.50.705,eb_01,2022.2.4,119.96136284611737,
9,stimuli/9.png,l,0,0,0,0,85,0,85,0,0,0,0,0,,,,,,,,,,,,,,,,,,377.87920579346246,377.87920579346246,377.87920579346246,377.87920579346246,l,1,0.4451123499311507,378.35421017790213,378.35421017790213,378.35421017790213,,,,,,,,,,,,,,,,,,,,,,,,,,,,124,001,2023-03-03_12h03.50.705,eb_01,2022.2.4,119.96136284611737,
,,,0,0,0,0,85,0,85,0,,,,,,,,,,,,,,,,,,,,,,,,,,,,,,,,,,,,,,,,,,,,,,,,,,,,,,,,,,,124,001,2023-03-03_12h03.50.705,eb_01,2022.2.4,119.96136284611737,
8,stimuli/8.png,l,0,0,0,0,86,0,86,0,0,0,0,0,,,,,,,,,,,,,,,,,,379.354374085553,379.354374085553,379.354374085553,379.354374085553,l,1,0.5220366574940272,379.89607500028796,379.89607500028796,379.89607500028796,,,,,,,,,,,,,,,,,,,,,,,,,,,,124,001,2023-03-03_12h03.50.705,eb_01,2022.2.4,119.96136284611737,
,,,0,0,0,0,86,0,86,0,,,,,,,,,,,,,,,,,,,,,,,,,,,,,,,,,,,,,,,,,,,,,,,,,,,,,,,,,,,124,001,2023-03-03_12h03.50.705,eb_01,2022.2.4,119.96136284611737,
3,stimuli/3.png,l,0,0,0,0,87,0,87,0,0,0,0,0,,,,,,,,,,,,,,,,,,380.90455382555956,380.90455382555956,380.90455382555956,380.90455382555956,l,1,0.49995289312209934,381.4212384475977,381.4212384475977,381.4212384475977,,,,,,,,,,,,,,,,,,,,,,,,,,,,124,001,2023-03-03_12h03.50.705,eb_01,2022.2.4,119.96136284611737,
,,,0,0,0,0,87,0,87,0,,,,,,,,,,,,,,,,,,,,,,,,,,,,,,,,,,,,,,,,,,,,,,,,,,,,,,,,,,,124,001,2023-03-03_12h03.50.705,eb_01,2022.2.4,119.96136284611737,
2,stimuli/2.png,s,0,0,0,0,88,0,88,0,0,0,0,0,,,,,,,,,,,,,,,,,,382.42966414627153,382.42966414627153,382.42966414627153,382.42966414627153,s,1,0.5348812220036052,382.9797222384077,382.9797222384077,382.9797222384077,383.98818446160294,383.98818446160294,383.98818446160294,,,,,,,,,,,,,,,,,,,,,,,,,124,001,2023-03-03_12h03.50.705,eb_01,2022.2.4,119.96136284611737,
,,,0,0,0,0,88,0,88,0,,,,,,,,,,,,,,,,,,,,,,,,,,,,,,,,,,,,,,,,,,,,,,,,,,,,,,,,,,,124,001,2023-03-03_12h03.50.705,eb_01,2022.2.4,119.96136284611737,
3,stimuli/3.png,l,0,0,0,0,89,0,89,0,0,0,0,0,,,,,,,,,,,,,,,,,,383.98818446160294,383.98818446160294,383.98818446160294,383.98818446160294,l,1,0.39241498231422156,384.3965602333483,384.3965602333483,384.3965602333483,385.4133198665513,385.4133198665513,385.4133198665513,,,,,,,,,,,,,,,,,,,,,,,,,124,001,2023-03-03_12h03.50.705,eb_01,2022.2.4,119.96136284611737,
,,,0,0,0,0,89,0,89,0,,,,,,,,,,,,,,,,,,,,,,,,,,,,,,,,,,,,,,,,,,,,,,,,,,,,,,,,,,,124,001,2023-03-03_12h03.50.705,eb_01,2022.2.4,119.96136284611737,
4,stimuli/4.png,l,0,0,0,0,90,0,90,0,0,0,0,0,,,,,,,,,,,,,,,,,,385.4133198665513,385.4133198665513,385.4133198665513,385.4133198665513,l,1,0.45531899729394354,385.88839730009204,385.88839730009204,385.88839730009204,,,,,,,,,,,,,,,,,,,,,,,,,,,,124,001,2023-03-03_12h03.50.705,eb_01,2022.2.4,119.96136284611737,
,,,0,0,0,0,90,0,90,0,,,,,,,,,,,,,,,,,,,,,,,,,,,,,,,,,,,,,,,,,,,,,,,,,,,,,,,,,,,124,001,2023-03-03_12h03.50.705,eb_01,2022.2.4,119.96136284611737,
1,stimuli/1.png,s,0,0,0,0,91,0,91,0,0,0,0,0,,,,,,,,,,,,,,,,,,386.91349177339,386.91349177339,386.91349177339,386.91349177339,s,1,0.4752710565808229,387.42189105966827,387.42189105966827,387.42189105966827,,,,,,,,,,,,,,,,,,,,,,,,,,,,124,001,2023-03-03_12h03.50.705,eb_01,2022.2.4,119.96136284611737,
,,,0,0,0,0,91,0,91,0,,,,,,,,,,,,,,,,,,,,,,,,,,,,,,,,,,,,,,,,,,,,,,,,,,,,,,,,,,,124,001,2023-03-03_12h03.50.705,eb_01,2022.2.4,119.96136284611737,
2,stimuli/2.png,s,0,0,0,0,92,0,92,0,0,0,0,0,,,,,,,,,,,,,,,,,,388.4219915776339,388.4219915776339,388.4219915776339,388.4219915776339,s,1,0.6067693687509745,389.0387132977485,389.0387132977485,389.0387132977485,390.0638340324804,390.0638340324804,390.0638340324804,,,,,,,,,,,,,,,,,,,,,,,,,124,001,2023-03-03_12h03.50.705,eb_01,2022.2.4,119.96136284611737,
,,,0,0,0,0,92,0,92,0,,,,,,,,,,,,,,,,,,,,,,,,,,,,,,,,,,,,,,,,,,,,,,,,,,,,,,,,,,,124,001,2023-03-03_12h03.50.705,eb_01,2022.2.4,119.96136284611737,
1,stimuli/1.png,s,0,0,0,0,93,0,93,0,0,0,0,0,,,,,,,,,,,,,,,,,,390.0638340324804,390.0638340324804,390.0638340324804,390.0638340324804,s,1,0.6759924313810188,390.7722537845839,390.7722537845839,390.7722537845839,,,,,,,,,,,,,,,,,,,,,,,,,,,,124,001,2023-03-03_12h03.50.705,eb_01,2022.2.4,119.96136284611737,
,,,0,0,0,0,93,0,93,0,,,,,,,,,,,,,,,,,,,,,,,,,,,,,,,,,,,,,,,,,,,,,,,,,,,,,,,,,,,124,001,2023-03-03_12h03.50.705,eb_01,2022.2.4,119.96136284611737,
2,stimuli/2.png,s,0,0,0,0,94,0,94,0,0,0,0,0,,,,,,,,,,,,,,,,,,391.7723467561591,391.7723467561591,391.7723467561591,391.7723467561591,s,1,0.5435520275204908,392.33075327187544,392.33075327187544,392.33075327187544,393.34751682920614,393.34751682920614,393.34751682920614,,,,,,,,,,,,,,,,,,,,,,,,,124,001,2023-03-03_12h03.50.705,eb_01,2022.2.4,119.96136284611737,
,,,0,0,0,0,94,0,94,0,,,,,,,,,,,,,,,,,,,,,,,,,,,,,,,,,,,,,,,,,,,,,,,,,,,,,,,,,,,124,001,2023-03-03_12h03.50.705,eb_01,2022.2.4,119.96136284611737,
4,stimuli/4.png,l,0,0,0,0,95,0,95,0,0,0,0,0,,,,,,,,,,,,,,,,,,393.34751682920614,393.34751682920614,393.34751682920614,393.34751682920614,l,1,0.5444681596418377,393.9142264901893,393.9142264901893,393.9142264901893,,,,,,,,,,,,,,,,,,,,,,,,,,,,124,001,2023-03-03_12h03.50.705,eb_01,2022.2.4,119.96136284611737,
,,,0,0,0,0,95,0,95,0,,,,,,,,,,,,,,,,,,,,,,,,,,,,,,,,,,,,,,,,,,,,,,,,,,,,,,,,,,,124,001,2023-03-03_12h03.50.705,eb_01,2022.2.4,119.96136284611737,
3,stimuli/3.png,l,0,0,0,0,96,0,96,0,0,0,0,0,,,,,,,,,,,,,,,,,,394.92268327999045,394.92268327999045,394.92268327999045,394.92268327999045,l,1,0.46534936100943014,395.40606778289657,395.40606778289657,395.40606778289657,,,,,,,,,,,,,,,,,,,,,,,,,,,,124,001,2023-03-03_12h03.50.705,eb_01,2022.2.4,119.96136284611737,
,,,0,0,0,0,96,0,96,0,,,,,,,,,,,,,,,,,,,,,,,,,,,,,,,,,,,,,,,,,,,,,,,,,,,,,,,,,,,124,001,2023-03-03_12h03.50.705,eb_01,2022.2.4,119.96136284611737,
2,stimuli/2.png,s,0,0,0,0,97,0,97,0,0,0,0,0,,,,,,,,,,,,,,,,,,396.41451340404456,396.41451340404456,396.41451340404456,396.41451340404456,s,1,0.5015641989302821,396.93126020839554,396.93126020839554,396.93126020839554,397.9563377777522,397.9563377777522,397.9563377777522,,,,,,,,,,,,,,,,,,,,,,,,,124,001,2023-03-03_12h03.50.705,eb_01,2022.2.4,119.96136284611737,
,,,0,0,0,0,97,0,97,0,,,,,,,,,,,,,,,,,,,,,,,,,,,,,,,,,,,,,,,,,,,,,,,,,,,,,,,,,,,124,001,2023-03-03_12h03.50.705,eb_01,2022.2.4,119.96136284611737,
1,stimuli/1.png,s,0,0,0,0,98,0,98,0,0,0,0,0,,,,,,,,,,,,,,,,,,397.9563377777522,397.9563377777522,397.9563377777522,397.9563377777522,s,1,0.5438049826188944,398.5314100495598,398.5314100495598,398.5314100495598,,,,,,,,,,,,,,,,,,,,,,,,,,,,124,001,2023-03-03_12h03.50.705,eb_01,2022.2.4,119.96136284611737,
,,,0,0,0,0,98,0,98,0,,,,,,,,,,,,,,,,,,,,,,,,,,,,,,,,,,,,,,,,,,,,,,,,,,,,,,,,,,,124,001,2023-03-03_12h03.50.705,eb_01,2022.2.4,119.96136284611737,
2,stimuli/2.png,s,0,0,0,0,99,0,99,0,0,0,0,0,,,,,,,,,,,,,,,,,,399.53151751018595,399.53151751018595,399.53151751018595,399.53151751018595,s,1,0.4646925229462795,400.00657109712483,400.00657109712483,400.00657109712483,401.006661352003,401.006661352003,401.006661352003,,,,,,,,,,,,,,,,,,,,,,,,,124,001,2023-03-03_12h03.50.705,eb_01,2022.2.4,119.96136284611737,
,,,0,0,0,0,99,0,99,0,,,,,,,,,,,,,,,,,,,,,,,,,,,,,,,,,,,,,,,,,,,,,,,,,,,,,,,,,,,124,001,2023-03-03_12h03.50.705,eb_01,2022.2.4,119.96136284611737,
,,,0,0,0,0,,,,,,,,,,,,,,,,,,,,,,,,,,,,,,,,,,,,,,,401.006661352003,401.006661352003,return,55.395883002638584,,,,,,,,,,,,,,,,,,,,,124,001,2023-03-03_12h03.50.705,eb_01,2022.2.4,119.96136284611737,
3,stimuli/3.png,l,1,0,1,0,0,0,0,0,0,0,0,0,,,,,,,,,,,,,,,,,,456.4292753561167,456.4292753561167,456.4292753561167,456.4292753561167,l,1,1.0373004446737468,457.4877131139219,457.4877131139219,457.4877131139219,,,,,,,,,,,,,,,,,,,,,,,,,,,,124,001,2023-03-03_12h03.50.705,eb_01,2022.2.4,119.96136284611737,
,,,1,0,1,0,0,0,0,0,,,,,,,,,,,,,,,,,,,,,,,,,,,,,,,,,,,,,,,,,,,,,,,,,,,,,,,,,,,124,001,2023-03-03_12h03.50.705,eb_01,2022.2.4,119.96136284611737,
8,stimuli/8.png,l,1,0,1,0,1,0,1,0,0,0,0,0,,,,,,,,,,,,,,,,,,458.49618046867545,458.49618046867545,458.49618046867545,458.49618046867545,l,1,0.6024938843911514,459.1212183138414,459.1212183138414,459.1212183138414,,,,,,,,,,,,,,,,,,,,,,,,,,,,124,001,2023-03-03_12h03.50.705,eb_01,2022.2.4,119.96136284611737,
,,,1,0,1,0,1,0,1,0,,,,,,,,,,,,,,,,,,,,,,,,,,,,,,,,,,,,,,,,,,,,,,,,,,,,,,,,,,,124,001,2023-03-03_12h03.50.705,eb_01,2022.2.4,119.96136284611737,
6,stimuli/6.png,s,1,0,1,0,2,0,2,0,0,0,0,0,,,,,,,,,,,,,,,,,,460.14634840609506,460.14634840609506,460.14634840609506,460.14634840609506,s,1,0.4803579291328788,460.6547479942383,460.6547479942383,460.6547479942383,,,,,,,,,,,,,,,,,,,,,,,,,,,,124,001,2023-03-03_12h03.50.705,eb_01,2022.2.4,119.96136284611737,
,,,1,0,1,0,2,0,2,0,,,,,,,,,,,,,,,,,,,,,,,,,,,,,,,,,,,,,,,,,,,,,,,,,,,,,,,,,,,124,001,2023-03-03_12h03.50.705,eb_01,2022.2.4,119.96136284611737,
5,stimuli/5.png,s,1,0,1,0,3,0,3,0,0,0,0,0,,,,,,,,,,,,,,,,,,461.6548572660249,461.6548572660249,461.6548572660249,461.6548572660249,s,1,0.47593302617315203,462.15487854683306,462.15487854683306,462.15487854683306,,,,,,,,,,,,,,,,,,,,,,,,,,,,124,001,2023-03-03_12h03.50.705,eb_01,2022.2.4,119.96136284611737,
,,,1,0,1,0,3,0,3,0,,,,,,,,,,,,,,,,,,,,,,,,,,,,,,,,,,,,,,,,,,,,,,,,,,,,,,,,,,,124,001,2023-03-03_12h03.50.705,eb_01,2022.2.4,119.96136284611737,
6,stimuli/6.png,s,1,0,1,0,4,0,4,0,0,0,0,0,,,,,,,,,,,,,,,,,,463.1799998852948,463.1799998852948,463.1799998852948,463.1799998852948,s,1,0.3748481869115494,463.5800773414667,463.5800773414667,463.5800773414667,,,,,,,,,,,,,,,,,,,,,,,,,,,,124,001,2023-03-03_12h03.50.705,eb_01,2022.2.4,119.96136284611737,
,,,1,0,1,0,4,0,4,0,,,,,,,,,,,,,,,,,,,,,,,,,,,,,,,,,,,,,,,,,,,,,,,,,,,,,,,,,,,124,001,2023-03-03_12h03.50.705,eb_01,2022.2.4,119.96136284611737,
9,stimuli/9.png,l,1,0,1,0,5,0,5,0,0,0,0,0,,,,,,,,,,,,,,,,,,464.5884797972394,464.5884797972394,464.5884797972394,464.5884797972394,l,1,0.430409863445675,465.0468667225505,465.0468667225505,465.0468667225505,,,,,,,,,,,,,,,,,,,,,,,,,,,,124,001,2023-03-03_12h03.50.705,eb_01,2022.2.4,119.96136284611737,
,,,1,0,1,0,5,0,5,0,,,,,,,,,,,,,,,,,,,,,,,,,,,,,,,,,,,,,,,,,,,,,,,,,,,,,,,,,,,124,001,2023-03-03_12h03.50.705,eb_01,2022.2.4,119.96136284611737,
6,stimuli/6.png,s,1,0,1,0,6,0,6,0,0,0,0,0,,,,,,,,,,,,,,,,,,466.0636432596657,466.0636432596657,466.0636432596657,466.0636432596657,s,1,0.43528785184025764,466.530361100944,466.530361100944,466.530361100944,,,,,,,,,,,,,,,,,,,,,,,,,,,,124,001,2023-03-03_12h03.50.705,eb_01,2022.2.4,119.96136284611737,
,,,1,0,1,0,6,0,6,0,,,,,,,,,,,,,,,,,,,,,,,,,,,,,,,,,,,,,,,,,,,,,,,,,,,,,,,,,,,124,001,2023-03-03_12h03.50.705,eb_01,2022.2.4,119.96136284611737,
5,stimuli/5.png,s,1,0,1,0,7,0,7,0,0,0,0,0,,,,,,,,,,,,,,,,,,467.53048938961,467.53048938961,467.53048938961,467.53048938961,s,1,0.5515318852849305,468.10552724986337,468.10552724986337,468.10552724986337,,,,,,,,,,,,,,,,,,,,,,,,,,,,124,001,2023-03-03_12h03.50.705,eb_01,2022.2.4,119.96136284611737,
,,,1,0,1,0,7,0,7,0,,,,,,,,,,,,,,,,,,,,,,,,,,,,,,,,,,,,,,,,,,,,,,,,,,,,,,,,,,,124,001,2023-03-03_12h03.50.705,eb_01,2022.2.4,119.96136284611737,
9,stimuli/9.png,l,1,0,1,0,8,0,8,0,0,0,0,0,,,,,,,,,,,,,,,,,,469.12225941420184,469.12225941420184,469.12225941420184,469.12225941420184,l,1,0.6558088487945497,469.80570452974644,469.80570452974644,469.80570452974644,,,,,,,,,,,,,,,,,,,,,,,,,,,,124,001,2023-03-03_12h03.50.705,eb_01,2022.2.4,119.96136284611737,
,,,1,0,1,0,8,0,8,0,,,,,,,,,,,,,,,,,,,,,,,,,,,,,,,,,,,,,,,,,,,,,,,,,,,,,,,,,,,124,001,2023-03-03_12h03.50.705,eb_01,2022.2.4,119.96136284611737,
6,stimuli/6.png,s,1,0,1,0,9,0,9,0,0,0,0,0,,,,,,,,,,,,,,,,,,470.82247020004434,470.82247020004434,470.82247020004434,470.82247020004434,s,1,0.5076960959995631,471.3558749122021,471.3558749122021,471.3558749122021,,,,,,,,,,,,,,,,,,,,,,,,,,,,124,001,2023-03-03_12h03.50.705,eb_01,2022.2.4,119.96136284611737,
,,,1,0,1,0,9,0,9,0,,,,,,,,,,,,,,,,,,,,,,,,,,,,,,,,,,,,,,,,,,,,,,,,,,,,,,,,,,,124,001,2023-03-03_12h03.50.705,eb_01,2022.2.4,119.96136284611737,
5,stimuli/5.png,s,1,0,1,0,10,0,10,0,0,0,0,0,,,,,,,,,,,,,,,,,,472.3559986730397,472.3559986730397,472.3559986730397,472.3559986730397,s,1,0.3582672523043584,472.7310263305844,472.7310263305844,472.7310263305844,,,,,,,,,,,,,,,,,,,,,,,,,,,,124,001,2023-03-03_12h03.50.705,eb_01,2022.2.4,119.96136284611737,
,,,1,0,1,0,10,0,10,0,,,,,,,,,,,,,,,,,,,,,,,,,,,,,,,,,,,,,,,,,,,,,,,,,,,,,,,,,,,124,001,2023-03-03_12h03.50.705,eb_01,2022.2.4,119.96136284611737,
9,stimuli/9.png,l,1,0,1,0,11,0,11,0,0,0,0,0,,,,,,,,,,,,,,,,,,473.7478590128594,473.7478590128594,473.7478590128594,473.7478590128594,l,1,0.4704283853061497,474.24786761574796,474.24786761574796,474.24786761574796,,,,,,,,,,,,,,,,,,,,,,,,,,,,124,001,2023-03-03_12h03.50.705,eb_01,2022.2.4,119.96136284611737,
,,,1,0,1,0,11,0,11,0,,,,,,,,,,,,,,,,,,,,,,,,,,,,,,,,,,,,,,,,,,,,,,,,,,,,,,,,,,,124,001,2023-03-03_12h03.50.705,eb_01,2022.2.4,119.96136284611737,
8,stimuli/8.png,l,1,0,1,0,12,0,12,0,0,0,0,0,,,,,,,,,,,,,,,,,,475.2479630021553,475.2479630021553,475.2479630021553,475.2479630021553,l,1,0.6903909491375089,475.95636947260937,475.95636947260937,475.95636947260937,,,,,,,,,,,,,,,,,,,,,,,,,,,,124,001,2023-03-03_12h03.50.705,eb_01,2022.2.4,119.96136284611737,
,,,1,0,1,0,12,0,12,0,,,,,,,,,,,,,,,,,,,,,,,,,,,,,,,,,,,,,,,,,,,,,,,,,,,,,,,,,,,124,001,2023-03-03_12h03.50.705,eb_01,2022.2.4,119.96136284611737,
6,stimuli/6.png,s,1,0,1,0,13,0,13,0,0,0,0,0,,,,,,,,,,,,,,,,,,476.981502583425,476.981502583425,476.981502583425,476.981502583425,s,1,0.49293021982884966,477.5065661165281,477.5065661165281,477.5065661165281,,,,,,,,,,,,,,,,,,,,,,,,,,,,124,001,2023-03-03_12h03.50.705,eb_01,2022.2.4,119.96136284611737,
,,,1,0,1,0,13,0,13,0,,,,,,,,,,,,,,,,,,,,,,,,,,,,,,,,,,,,,,,,,,,,,,,,,,,,,,,,,,,124,001,2023-03-03_12h03.50.705,eb_01,2022.2.4,119.96136284611737,
9,stimuli/9.png,l,1,0,1,0,14,0,14,0,0,0,0,0,,,,,,,,,,,,,,,,,,478.51496102591045,478.51496102591045,478.51496102591045,478.51496102591045,l,1,0.4795251092291437,479.0233651418821,479.0233651418821,479.0233651418821,,,,,,,,,,,,,,,,,,,,,,,,,,,,124,001,2023-03-03_12h03.50.705,eb_01,2022.2.4,119.96136284611737,
,,,1,0,1,0,14,0,14,0,,,,,,,,,,,,,,,,,,,,,,,,,,,,,,,,,,,,,,,,,,,,,,,,,,,,,,,,,,,124,001,2023-03-03_12h03.50.705,eb_01,2022.2.4,119.96136284611737,
6,stimuli/6.png,s,1,0,1,0,15,0,15,0,0,0,0,0,,,,,,,,,,,,,,,,,,480.0401232657896,480.0401232657896,480.0401232657896,480.0401232657896,s,1,0.5384228951588739,480.60686884762254,480.60686884762254,480.60686884762254,,,,,,,,,,,,,,,,,,,,,,,,,,,,124,001,2023-03-03_12h03.50.705,eb_01,2022.2.4,119.96136284611737,
,,,1,0,1,0,15,0,15,0,,,,,,,,,,,,,,,,,,,,,,,,,,,,,,,,,,,,,,,,,,,,,,,,,,,,,,,,,,,124,001,2023-03-03_12h03.50.705,eb_01,2022.2.4,119.96136284611737,
9,stimuli/9.png,l,1,0,1,0,16,0,16,0,0,0,0,0,,,,,,,,,,,,,,,,,,481.6153132613399,481.6153132613399,481.6153132613399,481.6153132613399,l,1,0.5312924593745265,482.17371766408905,482.17371766408905,482.17371766408905,,,,,,,,,,,,,,,,,,,,,,,,,,,,124,001,2023-03-03_12h03.50.705,eb_01,2022.2.4,119.96136284611737,
,,,1,0,1,0,16,0,16,0,,,,,,,,,,,,,,,,,,,,,,,,,,,,,,,,,,,,,,,,,,,,,,,,,,,,,,,,,,,124,001,2023-03-03_12h03.50.705,eb_01,2022.2.4,119.96136284611737,
6,stimuli/6.png,s,1,0,1,0,17,0,17,0,0,0,0,0,,,,,,,,,,,,,,,,,,483.1904935975035,483.1904935975035,483.1904935975035,483.1904935975035,s,1,0.48319808961241506,483.69883764418773,483.69883764418773,483.69883764418773,,,,,,,,,,,,,,,,,,,,,,,,,,,,124,001,2023-03-03_12h03.50.705,eb_01,2022.2.4,119.96136284611737,
,,,1,0,1,0,17,0,17,0,,,,,,,,,,,,,,,,,,,,,,,,,,,,,,,,,,,,,,,,,,,,,,,,,,,,,,,,,,,124,001,2023-03-03_12h03.50.705,eb_01,2022.2.4,119.96136284611737,
8,stimuli/8.png,l,1,0,1,0,18,0,18,0,0,0,0,0,,,,,,,,,,,,,,,,,,484.6989448029781,484.6989448029781,484.6989448029781,484.6989448029781,l,1,0.49478059538523667,485.2156900980044,485.2156900980044,485.2156900980044,,,,,,,,,,,,,,,,,,,,,,,,,,,,124,001,2023-03-03_12h03.50.705,eb_01,2022.2.4,119.96136284611737,
,,,1,0,1,0,18,0,18,0,,,,,,,,,,,,,,,,,,,,,,,,,,,,,,,,,,,,,,,,,,,,,,,,,,,,,,,,,,,124,001,2023-03-03_12h03.50.705,eb_01,2022.2.4,119.96136284611737,
6,stimuli/6.png,s,1,0,1,0,19,0,19,0,0,0,0,0,,,,,,,,,,,,,,,,,,486.24077581748134,486.24077581748134,486.24077581748134,486.24077581748134,s,1,0.48099725958309136,486.74919683739427,486.74919683739427,486.74919683739427,,,,,,,,,,,,,,,,,,,,,,,,,,,,124,001,2023-03-03_12h03.50.705,eb_01,2022.2.4,119.96136284611737,
,,,1,0,1,0,19,0,19,0,,,,,,,,,,,,,,,,,,,,,,,,,,,,,,,,,,,,,,,,,,,,,,,,,,,,,,,,,,,124,001,2023-03-03_12h03.50.705,eb_01,2022.2.4,119.96136284611737,
9,stimuli/9.png,l,1,0,1,0,20,0,20,0,0,0,0,0,,,,,,,,,,,,,,,,,,487.7576497030677,487.7576497030677,487.7576497030677,487.7576497030677,l,1,0.4922066716826521,488.2826930118317,488.2826930118317,488.2826930118317,,,,,,,,,,,,,,,,,,,,,,,,,,,,124,001,2023-03-03_12h03.50.705,eb_01,2022.2.4,119.96136284611737,
,,,1,0,1,0,20,0,20,0,,,,,,,,,,,,,,,,,,,,,,,,,,,,,,,,,,,,,,,,,,,,,,,,,,,,,,,,,,,124,001,2023-03-03_12h03.50.705,eb_01,2022.2.4,119.96136284611737,
6,stimuli/6.png,s,1,0,1,0,21,0,21,0,0,0,0,0,,,,,,,,,,,,,,,,,,489.299437250389,489.299437250389,489.299437250389,489.299437250389,s,1,0.6544755520590115,489.98287089541554,489.98287089541554,489.98287089541554,,,,,,,,,,,,,,,,,,,,,,,,,,,,124,001,2023-03-03_12h03.50.705,eb_01,2022.2.4,119.96136284611737,
,,,1,0,1,0,21,0,21,0,,,,,,,,,,,,,,,,,,,,,,,,,,,,,,,,,,,,,,,,,,,,,,,,,,,,,,,,,,,124,001,2023-03-03_12h03.50.705,eb_01,2022.2.4,119.96136284611737,
8,stimuli/8.png,l,1,0,1,0,22,0,22,0,0,0,0,0,,,,,,,,,,,,,,,,,,490.98298620429705,490.98298620429705,490.98298620429705,490.98298620429705,l,1,0.6669910938653629,491.674723900127,491.674723900127,491.674723900127,,,,,,,,,,,,,,,,,,,,,,,,,,,,124,001,2023-03-03_12h03.50.705,eb_01,2022.2.4,119.96136284611737,
,,,1,0,1,0,22,0,22,0,,,,,,,,,,,,,,,,,,,,,,,,,,,,,,,,,,,,,,,,,,,,,,,,,,,,,,,,,,,124,001,2023-03-03_12h03.50.705,eb_01,2022.2.4,119.96136284611737,
3,stimuli/3.png,l,1,0,1,0,23,0,23,0,0,0,0,0,,,,,,,,,,,,,,,,,,492.68318431219086,492.68318431219086,492.68318431219086,492.68318431219086,l,1,0.5028534247248899,493.2082143393054,493.2082143393054,493.2082143393054,,,,,,,,,,,,,,,,,,,,,,,,,,,,124,001,2023-03-03_12h03.50.705,eb_01,2022.2.4,119.96136284611737,
,,,1,0,1,0,23,0,23,0,,,,,,,,,,,,,,,,,,,,,,,,,,,,,,,,,,,,,,,,,,,,,,,,,,,,,,,,,,,124,001,2023-03-03_12h03.50.705,eb_01,2022.2.4,119.96136284611737,
2,stimuli/2.png,s,1,0,1,0,24,0,24,0,0,0,0,0,,,,,,,,,,,,,,,,,,494.21666599754826,494.21666599754826,494.21666599754826,494.21666599754826,s,1,0.4574476838170085,494.6833681423159,494.6833681423159,494.6833681423159,495.70849068820826,495.70849068820826,495.70849068820826,,,,,,,,,,,,,,,,,,,,,,,,,124,001,2023-03-03_12h03.50.705,eb_01,2022.2.4,119.96136284611737,
,,,1,0,1,0,24,0,24,0,,,,,,,,,,,,,,,,,,,,,,,,,,,,,,,,,,,,,,,,,,,,,,,,,,,,,,,,,,,124,001,2023-03-03_12h03.50.705,eb_01,2022.2.4,119.96136284611737,
1,stimuli/1.png,s,1,0,1,0,25,0,25,0,0,0,0,0,,,,,,,,,,,,,,,,,,495.70849068820826,495.70849068820826,495.70849068820826,495.70849068820826,s,1,0.5576559340988752,496.2918534273049,496.2918534273049,496.2918534273049,,,,,,,,,,,,,,,,,,,,,,,,,,,,124,001,2023-03-03_12h03.50.705,eb_01,2022.2.4,119.96136284611737,
,,,1,0,1,0,25,0,25,0,,,,,,,,,,,,,,,,,,,,,,,,,,,,,,,,,,,,,,,,,,,,,,,,,,,,,,,,,,,124,001,2023-03-03_12h03.50.705,eb_01,2022.2.4,119.96136284611737,
2,stimuli/2.png,s,1,0,1,0,26,0,26,0,0,0,0,0,,,,,,,,,,,,,,,,,,497.29200556260184,497.29200556260184,497.29200556260184,497.29200556260184,s,1,0.47024666814832017,497.7753746708622,497.7753746708622,497.7753746708622,498.792137926328,498.792137926328,498.792137926328,,,,,,,,,,,,,,,,,,,,,,,,,124,001,2023-03-03_12h03.50.705,eb_01,2022.2.4,119.96136284611737,
,,,1,0,1,0,26,0,26,0,,,,,,,,,,,,,,,,,,,,,,,,,,,,,,,,,,,,,,,,,,,,,,,,,,,,,,,,,,,124,001,2023-03-03_12h03.50.705,eb_01,2022.2.4,119.96136284611737,
4,stimuli/4.png,l,1,0,1,0,27,0,27,0,0,0,0,0,,,,,,,,,,,,,,,,,,498.792137926328,498.792137926328,498.792137926328,498.792137926328,l,1,0.5691801817156374,499.38387504863204,499.38387504863204,499.38387504863204,,,,,,,,,,,,,,,,,,,,,,,,,,,,124,001,2023-03-03_12h03.50.705,eb_01,2022.2.4,119.96136284611737,
,,,1,0,1,0,27,0,27,0,,,,,,,,,,,,,,,,,,,,,,,,,,,,,,,,,,,,,,,,,,,,,,,,,,,,,,,,,,,124,001,2023-03-03_12h03.50.705,eb_01,2022.2.4,119.96136284611737,
3,stimuli/3.png,l,1,0,1,0,28,0,28,0,0,0,0,0,,,,,,,,,,,,,,,,,,500.39232308464125,500.39232308464125,500.39232308464125,500.39232308464125,l,1,0.48904231819324195,500.89238028629916,500.89238028629916,500.89238028629916,501.909155012283,501.909155012283,501.909155012283,,,,,,,,,,,,,,,,,,,,,,,,,124,001,2023-03-03_12h03.50.705,eb_01,2022.2.4,119.96136284611737,
,,,1,0,1,0,28,0,28,0,,,,,,,,,,,,,,,,,,,,,,,,,,,,,,,,,,,,,,,,,,,,,,,,,,,,,,,,,,,124,001,2023-03-03_12h03.50.705,eb_01,2022.2.4,119.96136284611737,
4,stimuli/4.png,l,1,0,1,0,29,0,29,0,0,0,0,0,,,,,,,,,,,,,,,,,,501.909155012283,501.909155012283,501.909155012283,501.909155012283,l,1,0.5562864147068467,502.4842197376711,502.4842197376711,502.4842197376711,,,,,,,,,,,,,,,,,,,,,,,,,,,,124,001,2023-03-03_12h03.50.705,eb_01,2022.2.4,119.96136284611737,
,,,1,0,1,0,29,0,29,0,,,,,,,,,,,,,,,,,,,,,,,,,,,,,,,,,,,,,,,,,,,,,,,,,,,,,,,,,,,124,001,2023-03-03_12h03.50.705,eb_01,2022.2.4,119.96136284611737,
1,stimuli/1.png,s,1,0,1,0,30,0,30,0,0,0,0,0,,,,,,,,,,,,,,,,,,503.5092967033561,503.5092967033561,503.5092967033561,503.5092967033561,s,1,0.596184798021568,504.1343846565578,504.1343846565578,504.1343846565578,,,,,,,,,,,,,,,,,,,,,,,,,,,,124,001,2023-03-03_12h03.50.705,eb_01,2022.2.4,119.96136284611737,
,,,1,0,1,0,30,0,30,0,,,,,,,,,,,,,,,,,,,,,,,,,,,,,,,,,,,,,,,,,,,,,,,,,,,,,,,,,,,124,001,2023-03-03_12h03.50.705,eb_01,2022.2.4,119.96136284611737,
2,stimuli/2.png,s,1,0,1,0,31,0,31,0,0,0,0,0,,,,,,,,,,,,,,,,,,505.13451958604855,505.13451958604855,505.13451958604855,505.13451958604855,s,1,0.5710302554361988,505.71788836229825,505.71788836229825,505.71788836229825,506.73467335136957,506.73467335136957,506.73467335136957,,,,,,,,,,,,,,,,,,,,,,,,,124,001,2023-03-03_12h03.50.705,eb_01,2022.2.4,119.96136284611737,
,,,1,0,1,0,31,0,31,0,,,,,,,,,,,,,,,,,,,,,,,,,,,,,,,,,,,,,,,,,,,,,,,,,,,,,,,,,,,124,001,2023-03-03_12h03.50.705,eb_01,2022.2.4,119.96136284611737,
4,stimuli/4.png,l,1,0,1,0,32,0,32,0,0,0,0,0,,,,,,,,,,,,,,,,,,506.73467335136957,506.73467335136957,506.73467335136957,506.73467335136957,l,1,1.17898336876533,507.9347931277007,507.9347931277007,507.9347931277007,,,,,,,,,,,,,,,,,,,,,,,,,,,,124,001,2023-03-03_12h03.50.705,eb_01,2022.2.4,119.96136284611737,
,,,1,0,1,0,32,0,32,0,,,,,,,,,,,,,,,,,,,,,,,,,,,,,,,,,,,,,,,,,,,,,,,,,,,,,,,,,,,124,001,2023-03-03_12h03.50.705,eb_01,2022.2.4,119.96136284611737,
2,stimuli/2.png,s,1,0,1,0,33,0,33,0,0,0,0,0,,,,,,,,,,,,,,,,,,508.9432441822719,508.9432441822719,508.9432441822719,508.9432441822719,s,1,0.8264714311226271,509.78496885302593,509.78496885302593,509.78496885302593,510.8101104157977,510.8101104157977,510.8101104157977,,,,,,,,,,,,,,,,,,,,,,,,,124,001,2023-03-03_12h03.50.705,eb_01,2022.2.4,119.96136284611737,
,,,1,0,1,0,33,0,33,0,,,,,,,,,,,,,,,,,,,,,,,,,,,,,,,,,,,,,,,,,,,,,,,,,,,,,,,,,,,124,001,2023-03-03_12h03.50.705,eb_01,2022.2.4,119.96136284611737,
1,stimuli/1.png,s,1,0,1,0,34,0,34,0,0,0,0,0,,,,,,,,,,,,,,,,,,510.8101104157977,510.8101104157977,510.8101104157977,510.8101104157977,s,1,0.5837069881672505,511.42685779364547,511.42685779364547,511.42685779364547,,,,,,,,,,,,,,,,,,,,,,,,,,,,124,001,2023-03-03_12h03.50.705,eb_01,2022.2.4,119.96136284611737,
,,,1,0,1,0,34,0,34,0,,,,,,,,,,,,,,,,,,,,,,,,,,,,,,,,,,,,,,,,,,,,,,,,,,,,,,,,,,,124,001,2023-03-03_12h03.50.705,eb_01,2022.2.4,119.96136284611737,
2,stimuli/2.png,s,1,0,1,0,35,0,35,0,0,0,0,0,,,,,,,,,,,,,,,,,,512.4269561986148,512.4269561986148,512.4269561986148,512.4269561986148,s,1,0.6468977660988458,513.0853524210688,513.0853524210688,513.0853524210688,514.1104797966545,514.1104797966545,514.1104797966545,,,,,,,,,,,,,,,,,,,,,,,,,124,001,2023-03-03_12h03.50.705,eb_01,2022.2.4,119.96136284611737,
,,,1,0,1,0,35,0,35,0,,,,,,,,,,,,,,,,,,,,,,,,,,,,,,,,,,,,,,,,,,,,,,,,,,,,,,,,,,,124,001,2023-03-03_12h03.50.705,eb_01,2022.2.4,119.96136284611737,
1,stimuli/1.png,s,1,0,1,0,36,0,36,0,0,0,0,0,,,,,,,,,,,,,,,,,,514.1104797966545,514.1104797966545,514.1104797966545,514.1104797966545,s,1,0.6424526388000231,514.7855049487844,514.7855049487844,514.7855049487844,,,,,,,,,,,,,,,,,,,,,,,,,,,,124,001,2023-03-03_12h03.50.705,eb_01,2022.2.4,119.96136284611737,
,,,1,0,1,0,36,0,36,0,,,,,,,,,,,,,,,,,,,,,,,,,,,,,,,,,,,,,,,,,,,,,,,,,,,,,,,,,,,124,001,2023-03-03_12h03.50.705,eb_01,2022.2.4,119.96136284611737,
4,stimuli/4.png,l,1,0,1,0,37,0,37,0,0,0,0,0,,,,,,,,,,,,,,,,,,515.7939973575412,515.7939973575412,515.7939973575412,515.7939973575412,l,1,0.39096154703292996,516.2023245305172,516.2023245305172,516.2023245305172,,,,,,,,,,,,,,,,,,,,,,,,,,,,124,001,2023-03-03_12h03.50.705,eb_01,2022.2.4,119.96136284611737,
,,,1,0,1,0,37,0,37,0,,,,,,,,,,,,,,,,,,,,,,,,,,,,,,,,,,,,,,,,,,,,,,,,,,,,,,,,,,,124,001,2023-03-03_12h03.50.705,eb_01,2022.2.4,119.96136284611737,
2,stimuli/2.png,s,1,0,1,0,38,0,38,0,0,0,0,0,,,,,,,,,,,,,,,,,,517.2107789054862,517.2107789054862,517.2107789054862,517.2107789054862,s,1,0.4702605535276234,517.6941812178702,517.6941812178702,517.6941812178702,518.7192941043759,518.7192941043759,518.7192941043759,,,,,,,,,,,,,,,,,,,,,,,,,124,001,2023-03-03_12h03.50.705,eb_01,2022.2.4,119.96136284611737,
,,,1,0,1,0,38,0,38,0,,,,,,,,,,,,,,,,,,,,,,,,,,,,,,,,,,,,,,,,,,,,,,,,,,,,,,,,,,,124,001,2023-03-03_12h03.50.705,eb_01,2022.2.4,119.96136284611737,
1,stimuli/1.png,s,1,0,1,0,39,0,39,0,0,0,0,0,,,,,,,,,,,,,,,,,,518.7192941043759,518.7192941043759,518.7192941043759,518.7192941043759,s,1,0.585811828088481,519.336037558096,519.336037558096,519.336037558096,,,,,,,,,,,,,,,,,,,,,,,,,,,,124,001,2023-03-03_12h03.50.705,eb_01,2022.2.4,119.96136284611737,
,,,1,0,1,0,39,0,39,0,,,,,,,,,,,,,,,,,,,,,,,,,,,,,,,,,,,,,,,,,,,,,,,,,,,,,,,,,,,124,001,2023-03-03_12h03.50.705,eb_01,2022.2.4,119.96136284611737,
2,stimuli/2.png,s,1,0,1,0,40,0,40,0,0,0,0,0,,,,,,,,,,,,,,,,,,520.3361516595469,520.3361516595469,520.3361516595469,520.3361516595469,s,1,0.44901836290955544,520.7945228883473,520.7945228883473,520.7945228883473,521.8196233987692,521.8196233987692,521.8196233987692,,,,,,,,,,,,,,,,,,,,,,,,,124,001,2023-03-03_12h03.50.705,eb_01,2022.2.4,119.96136284611737,
,,,1,0,1,0,40,0,40,0,,,,,,,,,,,,,,,,,,,,,,,,,,,,,,,,,,,,,,,,,,,,,,,,,,,,,,,,,,,124,001,2023-03-03_12h03.50.705,eb_01,2022.2.4,119.96136284611737,
1,stimuli/1.png,s,1,0,1,0,41,0,41,0,0,0,0,0,,,,,,,,,,,,,,,,,,521.8196233987692,521.8196233987692,521.8196233987692,521.8196233987692,s,1,0.5576378227560781,522.403035340365,522.403035340365,522.403035340365,,,,,,,,,,,,,,,,,,,,,,,,,,,,124,001,2023-03-03_12h03.50.705,eb_01,2022.2.4,119.96136284611737,
,,,1,0,1,0,41,0,41,0,,,,,,,,,,,,,,,,,,,,,,,,,,,,,,,,,,,,,,,,,,,,,,,,,,,,,,,,,,,124,001,2023-03-03_12h03.50.705,eb_01,2022.2.4,119.96136284611737,
4,stimuli/4.png,l,1,0,1,0,42,0,42,0,0,0,0,0,,,,,,,,,,,,,,,,,,523.4114731132577,523.4114731132577,523.4114731132577,523.4114731132577,s,0,0.39781518108793534,523.8281680285872,523.8281680285872,523.8281680285872,,,,,,,,,,,,,,,,,,,,,,,,,,,,124,001,2023-03-03_12h03.50.705,eb_01,2022.2.4,119.96136284611737,
,,,1,0,1,0,42,0,42,0,,,,,,,,,,,,,,,,,,,,,,,,,,,,,,,,,,,,,,,,,,,,,,,,,,,,,,,,,,,124,001,2023-03-03_12h03.50.705,eb_01,2022.2.4,119.96136284611737,
3,stimuli/3.png,l,1,0,1,0,43,0,43,0,0,0,0,0,,,,,,,,,,,,,,,,,,524.8365958402574,524.8365958402574,524.8365958402574,524.8365958402574,l,1,0.5168625485966913,525.3700192674587,525.3700192674587,525.3700192674587,,,,,,,,,,,,,,,,,,,,,,,,,,,,124,001,2023-03-03_12h03.50.705,eb_01,2022.2.4,119.96136284611737,
,,,1,0,1,0,43,0,43,0,,,,,,,,,,,,,,,,,,,,,,,,,,,,,,,,,,,,,,,,,,,,,,,,,,,,,,,,,,,124,001,2023-03-03_12h03.50.705,eb_01,2022.2.4,119.96136284611737,
4,stimuli/4.png,l,1,0,1,0,44,0,44,0,0,0,0,0,,,,,,,,,,,,,,,,,,526.3867822210595,526.3867822210595,526.3867822210595,526.3867822210595,l,1,0.6546645137423184,527.061855368258,527.061855368258,527.061855368258,,,,,,,,,,,,,,,,,,,,,,,,,,,,124,001,2023-03-03_12h03.50.705,eb_01,2022.2.4,119.96136284611737,
,,,1,0,1,0,44,0,44,0,,,,,,,,,,,,,,,,,,,,,,,,,,,,,,,,,,,,,,,,,,,,,,,,,,,,,,,,,,,124,001,2023-03-03_12h03.50.705,eb_01,2022.2.4,119.96136284611737,
3,stimuli/3.png,l,1,0,1,0,45,0,45,0,0,0,0,0,,,,,,,,,,,,,,,,,,528.0702783502056,528.0702783502056,528.0702783502056,528.0702783502056,l,1,0.5792162806610577,528.6620402246772,528.6620402246772,528.6620402246772,529.6788013671758,529.6788013671758,529.6788013671758,,,,,,,,,,,,,,,,,,,,,,,,,124,001,2023-03-03_12h03.50.705,eb_01,2022.2.4,119.96136284611737,
,,,1,0,1,0,45,0,45,0,,,,,,,,,,,,,,,,,,,,,,,,,,,,,,,,,,,,,,,,,,,,,,,,,,,,,,,,,,,124,001,2023-03-03_12h03.50.705,eb_01,2022.2.4,119.96136284611737,
4,stimuli/4.png,l,1,0,1,0,46,0,46,0,0,0,0,0,,,,,,,,,,,,,,,,,,529.6788013671758,529.6788013671758,529.6788013671758,529.6788013671758,l,1,0.6098129799938761,530.312210878823,530.312210878823,530.312210878823,,,,,,,,,,,,,,,,,,,,,,,,,,,,124,001,2023-03-03_12h03.50.705,eb_01,2022.2.4,119.96136284611737,
,,,1,0,1,0,46,0,46,0,,,,,,,,,,,,,,,,,,,,,,,,,,,,,,,,,,,,,,,,,,,,,,,,,,,,,,,,,,,124,001,2023-03-03_12h03.50.705,eb_01,2022.2.4,119.96136284611737,
1,stimuli/1.png,s,1,0,1,0,47,0,47,0,0,0,0,0,,,,,,,,,,,,,,,,,,531.3373171244748,531.3373171244748,531.3373171244748,531.3373171244748,s,1,0.49531729487353005,531.8623507738521,531.8623507738521,531.8623507738521,,,,,,,,,,,,,,,,,,,,,,,,,,,,124,001,2023-03-03_12h03.50.705,eb_01,2022.2.4,119.96136284611737,
,,,1,0,1,0,47,0,47,0,,,,,,,,,,,,,,,,,,,,,,,,,,,,,,,,,,,,,,,,,,,,,,,,,,,,,,,,,,,124,001,2023-03-03_12h03.50.705,eb_01,2022.2.4,119.96136284611737,
2,stimuli/2.png,s,1,0,1,0,48,0,48,0,0,0,0,0,,,,,,,,,,,,,,,,,,532.8624802699487,532.8624802699487,532.8624802699487,532.8624802699487,s,1,0.5862452929141,533.4625552509096,533.4625552509096,533.4625552509096,534.4709818551491,534.4709818551491,534.4709818551491,,,,,,,,,,,,,,,,,,,,,,,,,124,001,2023-03-03_12h03.50.705,eb_01,2022.2.4,119.96136284611737,
,,,1,0,1,0,48,0,48,0,,,,,,,,,,,,,,,,,,,,,,,,,,,,,,,,,,,,,,,,,,,,,,,,,,,,,,,,,,,124,001,2023-03-03_12h03.50.705,eb_01,2022.2.4,119.96136284611737,
3,stimuli/3.png,l,1,0,1,0,49,0,49,0,0,0,0,0,,,,,,,,,,,,,,,,,,534.4709818551491,534.4709818551491,534.4709818551491,534.4709818551491,l,1,0.5937732726742979,535.0793645092053,535.0793645092053,535.0793645092053,536.0878243175684,536.0878243175684,536.0878243175684,,,,,,,,,,,,,,,,,,,,,,,,,124,001,2023-03-03_12h03.50.705,eb_01,2022.2.4,119.96136284611737,
,,,1,0,1,0,49,0,49,0,,,,,,,,,,,,,,,,,,,,,,,,,,,,,,,,,,,,,,,,,,,,,,,,,,,,,,,,,,,124,001,2023-03-03_12h03.50.705,eb_01,2022.2.4,119.96136284611737,
2,stimuli/2.png,s,1,0,1,0,50,0,50,0,0,0,0,0,,,,,,,,,,,,,,,,,,536.0878243175684,536.0878243175684,536.0878243175684,536.0878243175684,s,1,0.6489793631481007,536.7462268789823,536.7462268789823,536.7462268789823,537.7629774564994,537.7629774564994,537.7629774564994,,,,,,,,,,,,,,,,,,,,,,,,,124,001,2023-03-03_12h03.50.705,eb_01,2022.2.4,119.96136284611737,
,,,1,0,1,0,50,0,50,0,,,,,,,,,,,,,,,,,,,,,,,,,,,,,,,,,,,,,,,,,,,,,,,,,,,,,,,,,,,124,001,2023-03-03_12h03.50.705,eb_01,2022.2.4,119.96136284611737,
4,stimuli/4.png,l,1,0,1,0,51,0,51,0,0,0,0,0,,,,,,,,,,,,,,,,,,537.7629774564994,537.7629774564994,537.7629774564994,537.7629774564994,l,1,0.557916737452615,538.3380533505697,538.3380533505697,538.3380533505697,,,,,,,,,,,,,,,,,,,,,,,,,,,,124,001,2023-03-03_12h03.50.705,eb_01,2022.2.4,119.96136284611737,
,,,1,0,1,0,51,0,51,0,,,,,,,,,,,,,,,,,,,,,,,,,,,,,,,,,,,,,,,,,,,,,,,,,,,,,,,,,,,124,001,2023-03-03_12h03.50.705,eb_01,2022.2.4,119.96136284611737,
2,stimuli/2.png,s,1,0,1,0,52,0,52,0,0,0,0,0,,,,,,,,,,,,,,,,,,539.3465077255387,539.3465077255387,539.3465077255387,539.3465077255387,s,1,0.550469654990593,539.9132339885982,539.9132339885982,539.9132339885982,540.9299948292028,540.9299948292028,540.9299948292028,,,,,,,,,,,,,,,,,,,,,,,,,124,001,2023-03-03_12h03.50.705,eb_01,2022.2.4,119.96136284611737,
,,,1,0,1,0,52,0,52,0,,,,,,,,,,,,,,,,,,,,,,,,,,,,,,,,,,,,,,,,,,,,,,,,,,,,,,,,,,,124,001,2023-03-03_12h03.50.705,eb_01,2022.2.4,119.96136284611737,
4,stimuli/4.png,l,1,0,1,0,53,0,53,0,0,0,0,0,,,,,,,,,,,,,,,,,,540.9299948292028,540.9299948292028,540.9299948292028,540.9299948292028,l,1,0.4710179095272906,541.4217123610724,541.4217123610724,541.4217123610724,,,,,,,,,,,,,,,,,,,,,,,,,,,,124,001,2023-03-03_12h03.50.705,eb_01,2022.2.4,119.96136284611737,
,,,1,0,1,0,53,0,53,0,,,,,,,,,,,,,,,,,,,,,,,,,,,,,,,,,,,,,,,,,,,,,,,,,,,,,,,,,,,124,001,2023-03-03_12h03.50.705,eb_01,2022.2.4,119.96136284611737,
3,stimuli/3.png,l,1,0,1,0,54,0,54,0,0,0,0,0,,,,,,,,,,,,,,,,,,542.4301809232566,542.4301809232566,542.4301809232566,542.4301809232566,l,1,0.5789379696652759,543.0302420188673,543.0302420188673,543.0302420188673,,,,,,,,,,,,,,,,,,,,,,,,,,,,124,001,2023-03-03_12h03.50.705,eb_01,2022.2.4,119.96136284611737,
,,,1,0,1,0,54,0,54,0,,,,,,,,,,,,,,,,,,,,,,,,,,,,,,,,,,,,,,,,,,,,,,,,,,,,,,,,,,,124,001,2023-03-03_12h03.50.705,eb_01,2022.2.4,119.96136284611737,
8,stimuli/8.png,l,1,0,1,0,55,0,55,0,0,0,0,0,,,,,,,,,,,,,,,,,,544.0386544358626,544.0386544358626,544.0386544358626,544.0386544358626,l,1,0.6104969850275666,544.6720437231997,544.6720437231997,544.6720437231997,,,,,,,,,,,,,,,,,,,,,,,,,,,,124,001,2023-03-03_12h03.50.705,eb_01,2022.2.4,119.96136284611737,
,,,1,0,1,0,55,0,55,0,,,,,,,,,,,,,,,,,,,,,,,,,,,,,,,,,,,,,,,,,,,,,,,,,,,,,,,,,,,124,001,2023-03-03_12h03.50.705,eb_01,2022.2.4,119.96136284611737,
6,stimuli/6.png,s,1,0,1,0,56,0,56,0,0,0,0,0,,,,,,,,,,,,,,,,,,545.6971904175298,545.6971904175298,545.6971904175298,545.6971904175298,s,1,0.6150184818543494,546.3389151486626,546.3389151486626,546.3389151486626,,,,,,,,,,,,,,,,,,,,,,,,,,,,124,001,2023-03-03_12h03.50.705,eb_01,2022.2.4,119.96136284611737,
,,,1,0,1,0,56,0,56,0,,,,,,,,,,,,,,,,,,,,,,,,,,,,,,,,,,,,,,,,,,,,,,,,,,,,,,,,,,,124,001,2023-03-03_12h03.50.705,eb_01,2022.2.4,119.96136284611737,
9,stimuli/9.png,l,1,0,1,0,57,0,57,0,0,0,0,0,,,,,,,,,,,,,,,,,,547.3474054444523,547.3474054444523,547.3474054444523,547.3474054444523,l,1,0.5408742654253729,547.9141036349174,547.9141036349174,547.9141036349174,,,,,,,,,,,,,,,,,,,,,,,,,,,,124,001,2023-03-03_12h03.50.705,eb_01,2022.2.4,119.96136284611737,
,,,1,0,1,0,57,0,57,0,,,,,,,,,,,,,,,,,,,,,,,,,,,,,,,,,,,,,,,,,,,,,,,,,,,,,,,,,,,124,001,2023-03-03_12h03.50.705,eb_01,2022.2.4,119.96136284611737,
6,stimuli/6.png,s,1,0,1,0,58,0,58,0,0,0,0,0,,,,,,,,,,,,,,,,,,548.9308683996496,548.9308683996496,548.9308683996496,548.9308683996496,s,1,0.5255052815191448,549.4892305426183,549.4892305426183,549.4892305426183,,,,,,,,,,,,,,,,,,,,,,,,,,,,124,001,2023-03-03_12h03.50.705,eb_01,2022.2.4,119.96136284611737,
,,,1,0,1,0,58,0,58,0,,,,,,,,,,,,,,,,,,,,,,,,,,,,,,,,,,,,,,,,,,,,,,,,,,,,,,,,,,,124,001,2023-03-03_12h03.50.705,eb_01,2022.2.4,119.96136284611737,
9,stimuli/9.png,l,1,0,1,0,59,0,59,0,0,0,0,0,,,,,,,,,,,,,,,,,,550.4977009159338,550.4977009159338,550.4977009159338,550.4977009159338,l,1,0.5347031271376181,551.0644205381395,551.0644205381395,551.0644205381395,,,,,,,,,,,,,,,,,,,,,,,,,,,,124,001,2023-03-03_12h03.50.705,eb_01,2022.2.4,119.96136284611737,
,,,1,0,1,0,59,0,59,0,,,,,,,,,,,,,,,,,,,,,,,,,,,,,,,,,,,,,,,,,,,,,,,,,,,,,,,,,,,124,001,2023-03-03_12h03.50.705,eb_01,2022.2.4,119.96136284611737,
8,stimuli/8.png,l,1,0,1,0,60,0,60,0,0,0,0,0,,,,,,,,,,,,,,,,,,552.0728706871159,552.0728706871159,552.0728706871159,552.0728706871159,l,1,0.5196015874098521,552.614618087624,552.614618087624,552.614618087624,,,,,,,,,,,,,,,,,,,,,,,,,,,,124,001,2023-03-03_12h03.50.705,eb_01,2022.2.4,119.96136284611737,
,,,1,0,1,0,60,0,60,0,,,,,,,,,,,,,,,,,,,,,,,,,,,,,,,,,,,,,,,,,,,,,,,,,,,,,,,,,,,124,001,2023-03-03_12h03.50.705,eb_01,2022.2.4,119.96136284611737,
6,stimuli/6.png,s,1,0,1,0,61,0,61,0,0,0,0,0,,,,,,,,,,,,,,,,,,553.6397095423599,553.6397095423599,553.6397095423599,553.6397095423599,s,1,0.48884037672542036,554.156432198215,554.156432198215,554.156432198215,,,,,,,,,,,,,,,,,,,,,,,,,,,,124,001,2023-03-03_12h03.50.705,eb_01,2022.2.4,119.96136284611737,
,,,1,0,1,0,61,0,61,0,,,,,,,,,,,,,,,,,,,,,,,,,,,,,,,,,,,,,,,,,,,,,,,,,,,,,,,,,,,124,001,2023-03-03_12h03.50.705,eb_01,2022.2.4,119.96136284611737,
9,stimuli/9.png,l,1,0,1,0,62,0,62,0,0,0,0,0,,,,,,,,,,,,,,,,,,555.164872084104,555.164872084104,555.164872084104,555.164872084104,l,1,0.427767720335396,555.6232188626018,555.6232188626018,555.6232188626018,,,,,,,,,,,,,,,,,,,,,,,,,,,,124,001,2023-03-03_12h03.50.705,eb_01,2022.2.4,119.96136284611737,
,,,1,0,1,0,62,0,62,0,,,,,,,,,,,,,,,,,,,,,,,,,,,,,,,,,,,,,,,,,,,,,,,,,,,,,,,,,,,124,001,2023-03-03_12h03.50.705,eb_01,2022.2.4,119.96136284611737,
8,stimuli/8.png,l,1,0,1,0,63,0,63,0,0,0,0,0,,,,,,,,,,,,,,,,,,556.6233435290051,556.6233435290051,556.6233435290051,556.6233435290051,l,1,0.729327016393654,557.3734411038749,557.3734411038749,557.3734411038749,,,,,,,,,,,,,,,,,,,,,,,,,,,,124,001,2023-03-03_12h03.50.705,eb_01,2022.2.4,119.96136284611737,
,,,1,0,1,0,63,0,63,0,,,,,,,,,,,,,,,,,,,,,,,,,,,,,,,,,,,,,,,,,,,,,,,,,,,,,,,,,,,124,001,2023-03-03_12h03.50.705,eb_01,2022.2.4,119.96136284611737,
9,stimuli/9.png,l,1,0,1,0,64,0,64,0,0,0,0,0,,,,,,,,,,,,,,,,,,558.3902185465558,558.3902185465558,558.3902185465558,558.3902185465558,l,1,0.49853537866147235,558.9152609497542,558.9152609497542,558.9152609497542,,,,,,,,,,,,,,,,,,,,,,,,,,,,124,001,2023-03-03_12h03.50.705,eb_01,2022.2.4,119.96136284611737,
,,,1,0,1,0,64,0,64,0,,,,,,,,,,,,,,,,,,,,,,,,,,,,,,,,,,,,,,,,,,,,,,,,,,,,,,,,,,,124,001,2023-03-03_12h03.50.705,eb_01,2022.2.4,119.96136284611737,
5,stimuli/5.png,s,1,0,1,0,65,0,65,0,0,0,0,0,,,,,,,,,,,,,,,,,,559.9153641843877,559.9153641843877,559.9153641843877,559.9153641843877,s,1,0.5734284991049208,560.5071076456807,560.5071076456807,560.5071076456807,,,,,,,,,,,,,,,,,,,,,,,,,,,,124,001,2023-03-03_12h03.50.705,eb_01,2022.2.4,119.96136284611737,
,,,1,0,1,0,65,0,65,0,,,,,,,,,,,,,,,,,,,,,,,,,,,,,,,,,,,,,,,,,,,,,,,,,,,,,,,,,,,124,001,2023-03-03_12h03.50.705,eb_01,2022.2.4,119.96136284611737,
9,stimuli/9.png,l,1,0,1,0,66,0,66,0,0,0,0,0,,,,,,,,,,,,,,,,,,561.5239010867081,561.5239010867081,561.5239010867081,561.5239010867081,s,0,0.3399361582414713,561.8905911874317,561.8905911874317,561.8905911874317,,,,,,,,,,,,,,,,,,,,,,,,,,,,124,001,2023-03-03_12h03.50.705,eb_01,2022.2.4,119.96136284611737,
,,,1,0,1,0,66,0,66,0,,,,,,,,,,,,,,,,,,,,,,,,,,,,,,,,,,,,,,,,,,,,,,,,,,,,,,,,,,,124,001,2023-03-03_12h03.50.705,eb_01,2022.2.4,119.96136284611737,
5,stimuli/5.png,s,1,0,1,0,67,0,67,0,0,0,0,0,,,,,,,,,,,,,,,,,,562.8907040814811,562.8907040814811,562.8907040814811,562.8907040814811,s,1,0.7092035030946136,563.6241135629534,563.6241135629534,563.6241135629534,,,,,,,,,,,,,,,,,,,,,,,,,,,,124,001,2023-03-03_12h03.50.705,eb_01,2022.2.4,119.96136284611737,
,,,1,0,1,0,67,0,67,0,,,,,,,,,,,,,,,,,,,,,,,,,,,,,,,,,,,,,,,,,,,,,,,,,,,,,,,,,,,124,001,2023-03-03_12h03.50.705,eb_01,2022.2.4,119.96136284611737,
9,stimuli/9.png,l,1,0,1,0,68,0,68,0,0,0,0,0,,,,,,,,,,,,,,,,,,564.6408901000686,564.6408901000686,564.6408901000686,564.6408901000686,l,1,0.4790457623603288,565.1492676527414,565.1492676527414,565.1492676527414,,,,,,,,,,,,,,,,,,,,,,,,,,,,124,001,2023-03-03_12h03.50.705,eb_01,2022.2.4,119.96136284611737,
,,,1,0,1,0,68,0,68,0,,,,,,,,,,,,,,,,,,,,,,,,,,,,,,,,,,,,,,,,,,,,,,,,,,,,,,,,,,,124,001,2023-03-03_12h03.50.705,eb_01,2022.2.4,119.96136284611737,
5,stimuli/5.png,s,1,0,1,0,69,0,69,0,0,0,0,0,,,,,,,,,,,,,,,,,,566.1493832634878,566.1493832634878,566.1493832634878,566.1493832634878,s,1,0.5786904479900841,566.749448585062,566.749448585062,566.749448585062,,,,,,,,,,,,,,,,,,,,,,,,,,,,124,001,2023-03-03_12h03.50.705,eb_01,2022.2.4,119.96136284611737,
,,,1,0,1,0,69,0,69,0,,,,,,,,,,,,,,,,,,,,,,,,,,,,,,,,,,,,,,,,,,,,,,,,,,,,,,,,,,,124,001,2023-03-03_12h03.50.705,eb_01,2022.2.4,119.96136284611737,
6,stimuli/6.png,s,1,0,1,0,70,0,70,0,0,0,0,0,,,,,,,,,,,,,,,,,,567.7745705272246,567.7745705272246,567.7745705272246,567.7745705272246,s,1,0.5135448524088133,568.3162977033935,568.3162977033935,568.3162977033935,,,,,,,,,,,,,,,,,,,,,,,,,,,,124,001,2023-03-03_12h03.50.705,eb_01,2022.2.4,119.96136284611737,
,,,1,0,1,0,70,0,70,0,,,,,,,,,,,,,,,,,,,,,,,,,,,,,,,,,,,,,,,,,,,,,,,,,,,,,,,,,,,124,001,2023-03-03_12h03.50.705,eb_01,2022.2.4,119.96136284611737,
5,stimuli/5.png,s,1,0,1,0,71,0,71,0,0,0,0,0,,,,,,,,,,,,,,,,,,569.3163939953665,569.3163939953665,569.3163939953665,569.3163939953665,s,1,0.6037891472515184,569.9414496500103,569.9414496500103,569.9414496500103,,,,,,,,,,,,,,,,,,,,,,,,,,,,124,001,2023-03-03_12h03.50.705,eb_01,2022.2.4,119.96136284611737,
,,,1,0,1,0,71,0,71,0,,,,,,,,,,,,,,,,,,,,,,,,,,,,,,,,,,,,,,,,,,,,,,,,,,,,,,,,,,,124,001,2023-03-03_12h03.50.705,eb_01,2022.2.4,119.96136284611737,
6,stimuli/6.png,s,1,0,1,0,72,0,72,0,0,0,0,0,,,,,,,,,,,,,,,,,,570.9665359732171,570.9665359732171,570.9665359732171,570.9665359732171,s,1,0.5697135607770178,571.5666142745758,571.5666142745758,571.5666142745758,,,,,,,,,,,,,,,,,,,,,,,,,,,,124,001,2023-03-03_12h03.50.705,eb_01,2022.2.4,119.96136284611737,
,,,1,0,1,0,72,0,72,0,,,,,,,,,,,,,,,,,,,,,,,,,,,,,,,,,,,,,,,,,,,,,,,,,,,,,,,,,,,124,001,2023-03-03_12h03.50.705,eb_01,2022.2.4,119.96136284611737,
8,stimuli/8.png,l,1,0,1,0,73,0,73,0,0,0,0,0,,,,,,,,,,,,,,,,,,572.5667283760267,572.5667283760267,572.5667283760267,572.5667283760267,l,1,0.42557443666737527,573.0167683870241,573.0167683870241,573.0167683870241,,,,,,,,,,,,,,,,,,,,,,,,,,,,124,001,2023-03-03_12h03.50.705,eb_01,2022.2.4,119.96136284611737,
,,,1,0,1,0,73,0,73,0,,,,,,,,,,,,,,,,,,,,,,,,,,,,,,,,,,,,,,,,,,,,,,,,,,,,,,,,,,,124,001,2023-03-03_12h03.50.705,eb_01,2022.2.4,119.96136284611737,
9,stimuli/9.png,l,1,0,1,0,74,0,74,0,0,0,0,0,,,,,,,,,,,,,,,,,,574.0335781282629,574.0335781282629,574.0335781282629,574.0335781282629,l,1,0.43878605775535107,574.5002485781733,574.5002485781733,574.5002485781733,,,,,,,,,,,,,,,,,,,,,,,,,,,,124,001,2023-03-03_12h03.50.705,eb_01,2022.2.4,119.96136284611737,
,,,1,0,1,0,74,0,74,0,,,,,,,,,,,,,,,,,,,,,,,,,,,,,,,,,,,,,,,,,,,,,,,,,,,,,,,,,,,124,001,2023-03-03_12h03.50.705,eb_01,2022.2.4,119.96136284611737,
8,stimuli/8.png,l,1,0,1,0,75,0,75,0,0,0,0,0,,,,,,,,,,,,,,,,,,575.5003632833541,575.5003632833541,575.5003632833541,575.5003632833541,l,1,0.5231384308717679,576.0420949873514,576.0420949873514,576.0420949873514,,,,,,,,,,,,,,,,,,,,,,,,,,,,124,001,2023-03-03_12h03.50.705,eb_01,2022.2.4,119.96136284611737,
,,,1,0,1,0,75,0,75,0,,,,,,,,,,,,,,,,,,,,,,,,,,,,,,,,,,,,,,,,,,,,,,,,,,,,,,,,,,,124,001,2023-03-03_12h03.50.705,eb_01,2022.2.4,119.96136284611737,
3,stimuli/3.png,l,1,0,1,0,76,0,76,0,0,0,0,0,,,,,,,,,,,,,,,,,,577.0505934332614,577.0505934332614,577.0505934332614,577.0505934332614,l,1,0.5488960811344441,577.6172792476427,577.6172792476427,577.6172792476427,,,,,,,,,,,,,,,,,,,,,,,,,,,,124,001,2023-03-03_12h03.50.705,eb_01,2022.2.4,119.96136284611737,
,,,1,0,1,0,76,0,76,0,,,,,,,,,,,,,,,,,,,,,,,,,,,,,,,,,,,,,,,,,,,,,,,,,,,,,,,,,,,124,001,2023-03-03_12h03.50.705,eb_01,2022.2.4,119.96136284611737,
2,stimuli/2.png,s,1,0,1,0,77,0,77,0,0,0,0,0,,,,,,,,,,,,,,,,,,578.6257082667144,578.6257082667144,578.6257082667144,578.6257082667144,s,1,0.5658573539694771,579.200797744299,579.200797744299,579.200797744299,580.2258997639874,580.2258997639874,580.2258997639874,,,,,,,,,,,,,,,,,,,,,,,,,124,001,2023-03-03_12h03.50.705,eb_01,2022.2.4,119.96136284611737,
,,,1,0,1,0,77,0,77,0,,,,,,,,,,,,,,,,,,,,,,,,,,,,,,,,,,,,,,,,,,,,,,,,,,,,,,,,,,,124,001,2023-03-03_12h03.50.705,eb_01,2022.2.4,119.96136284611737,
1,stimuli/1.png,s,1,0,1,0,78,0,78,0,0,0,0,0,,,,,,,,,,,,,,,,,,580.2258997639874,580.2258997639874,580.2258997639874,580.2258997639874,s,1,0.5497228639724199,580.8009493965947,580.8009493965947,580.8009493965947,,,,,,,,,,,,,,,,,,,,,,,,,,,,124,001,2023-03-03_12h03.50.705,eb_01,2022.2.4,119.96136284611737,
,,,1,0,1,0,78,0,78,0,,,,,,,,,,,,,,,,,,,,,,,,,,,,,,,,,,,,,,,,,,,,,,,,,,,,,,,,,,,124,001,2023-03-03_12h03.50.705,eb_01,2022.2.4,119.96136284611737,
4,stimuli/4.png,l,1,0,1,0,79,0,79,0,0,0,0,0,,,,,,,,,,,,,,,,,,581.8093808305275,581.8093808305275,581.8093808305275,581.8093808305275,l,1,0.5183126634801738,582.3511212883459,582.3511212883459,582.3511212883459,,,,,,,,,,,,,,,,,,,,,,,,,,,,124,001,2023-03-03_12h03.50.705,eb_01,2022.2.4,119.96136284611737,
,,,1,0,1,0,79,0,79,0,,,,,,,,,,,,,,,,,,,,,,,,,,,,,,,,,,,,,,,,,,,,,,,,,,,,,,,,,,,124,001,2023-03-03_12h03.50.705,eb_01,2022.2.4,119.96136284611737,
2,stimuli/2.png,s,1,0,1,0,80,0,80,0,0,0,0,0,,,,,,,,,,,,,,,,,,583.3595681169245,583.3595681169245,583.3595681169245,583.3595681169245,s,1,0.6162174527707975,583.9846162251779,583.9846162251779,583.9846162251779,585.0013903474319,585.0013903474319,585.0013903474319,,,,,,,,,,,,,,,,,,,,,,,,,124,001,2023-03-03_12h03.50.705,eb_01,2022.2.4,119.96136284611737,
,,,1,0,1,0,80,0,80,0,,,,,,,,,,,,,,,,,,,,,,,,,,,,,,,,,,,,,,,,,,,,,,,,,,,,,,,,,,,124,001,2023-03-03_12h03.50.705,eb_01,2022.2.4,119.96136284611737,
4,stimuli/4.png,l,1,0,1,0,81,0,81,0,0,0,0,0,,,,,,,,,,,,,,,,,,585.0013903474319,585.0013903474319,585.0013903474319,585.0013903474319,l,1,0.3424110732739791,585.3680834667175,585.3680834667175,585.3680834667175,,,,,,,,,,,,,,,,,,,,,,,,,,,,124,001,2023-03-03_12h03.50.705,eb_01,2022.2.4,119.96136284611737,
,,,1,0,1,0,81,0,81,0,,,,,,,,,,,,,,,,,,,,,,,,,,,,,,,,,,,,,,,,,,,,,,,,,,,,,,,,,,,124,001,2023-03-03_12h03.50.705,eb_01,2022.2.4,119.96136284611737,
1,stimuli/1.png,s,1,0,1,0,82,0,82,0,0,0,0,0,,,,,,,,,,,,,,,,,,586.3932395185984,586.3932395185984,586.3932395185984,586.3932395185984,s,1,0.45465944256284274,586.8766203992418,586.8766203992418,586.8766203992418,,,,,,,,,,,,,,,,,,,,,,,,,,,,124,001,2023-03-03_12h03.50.705,eb_01,2022.2.4,119.96136284611737,
,,,1,0,1,0,82,0,82,0,,,,,,,,,,,,,,,,,,,,,,,,,,,,,,,,,,,,,,,,,,,,,,,,,,,,,,,,,,,124,001,2023-03-03_12h03.50.705,eb_01,2022.2.4,119.96136284611737,
4,stimuli/4.png,l,1,0,1,0,83,0,83,0,0,0,0,0,,,,,,,,,,,,,,,,,,587.8850572665688,587.8850572665688,587.8850572665688,587.8850572665688,l,1,0.47495863592484966,588.3767862689565,588.3767862689565,588.3767862689565,,,,,,,,,,,,,,,,,,,,,,,,,,,,124,001,2023-03-03_12h03.50.705,eb_01,2022.2.4,119.96136284611737,
,,,1,0,1,0,83,0,83,0,,,,,,,,,,,,,,,,,,,,,,,,,,,,,,,,,,,,,,,,,,,,,,,,,,,,,,,,,,,124,001,2023-03-03_12h03.50.705,eb_01,2022.2.4,119.96136284611737,
3,stimuli/3.png,l,1,0,1,0,84,0,84,0,0,0,0,0,,,,,,,,,,,,,,,,,,589.3852104583348,589.3852104583348,589.3852104583348,589.3852104583348,l,1,0.49478814177564345,589.8936073297809,589.8936073297809,589.8936073297809,590.9103778297722,590.9103778297722,590.9103778297722,,,,,,,,,,,,,,,,,,,,,,,,,124,001,2023-03-03_12h03.50.705,eb_01,2022.2.4,119.96136284611737,
,,,1,0,1,0,84,0,84,0,,,,,,,,,,,,,,,,,,,,,,,,,,,,,,,,,,,,,,,,,,,,,,,,,,,,,,,,,,,124,001,2023-03-03_12h03.50.705,eb_01,2022.2.4,119.96136284611737,
4,stimuli/4.png,l,1,0,1,0,85,0,85,0,0,0,0,0,,,,,,,,,,,,,,,,,,590.9103778297722,590.9103778297722,590.9103778297722,590.9103778297722,l,1,0.6016981927095912,591.5354334844451,591.5354334844451,591.5354334844451,,,,,,,,,,,,,,,,,,,,,,,,,,,,124,001,2023-03-03_12h03.50.705,eb_01,2022.2.4,119.96136284611737,
,,,1,0,1,0,85,0,85,0,,,,,,,,,,,,,,,,,,,,,,,,,,,,,,,,,,,,,,,,,,,,,,,,,,,,,,,,,,,124,001,2023-03-03_12h03.50.705,eb_01,2022.2.4,119.96136284611737,
2,stimuli/2.png,s,1,0,1,0,86,0,86,0,0,0,0,0,,,,,,,,,,,,,,,,,,592.5438981225016,592.5438981225016,592.5438981225016,592.5438981225016,s,1,0.4792549483827315,593.0356180692033,593.0356180692033,593.0356180692033,594.0523855506617,594.0523855506617,594.0523855506617,,,,,,,,,,,,,,,,,,,,,,,,,124,001,2023-03-03_12h03.50.705,eb_01,2022.2.4,119.96136284611737,
,,,1,0,1,0,86,0,86,0,,,,,,,,,,,,,,,,,,,,,,,,,,,,,,,,,,,,,,,,,,,,,,,,,,,,,,,,,,,124,001,2023-03-03_12h03.50.705,eb_01,2022.2.4,119.96136284611737,
4,stimuli/4.png,l,1,0,1,0,87,0,87,0,0,0,0,0,,,,,,,,,,,,,,,,,,594.0523855506617,594.0523855506617,594.0523855506617,594.0523855506617,l,1,0.410827879270073,594.4857761057792,594.4857761057792,594.4857761057792,,,,,,,,,,,,,,,,,,,,,,,,,,,,124,001,2023-03-03_12h03.50.705,eb_01,2022.2.4,119.96136284611737,
,,,1,0,1,0,87,0,87,0,,,,,,,,,,,,,,,,,,,,,,,,,,,,,,,,,,,,,,,,,,,,,,,,,,,,,,,,,,,124,001,2023-03-03_12h03.50.705,eb_01,2022.2.4,119.96136284611737,
1,stimuli/1.png,s,1,0,1,0,88,0,88,0,0,0,0,0,,,,,,,,,,,,,,,,,,595.5108717864787,595.5108717864787,595.5108717864787,595.5108717864787,s,1,0.5443637175194453,596.0859238339472,596.0859238339472,596.0859238339472,,,,,,,,,,,,,,,,,,,,,,,,,,,,124,001,2023-03-03_12h03.50.705,eb_01,2022.2.4,119.96136284611737,
,,,1,0,1,0,88,0,88,0,,,,,,,,,,,,,,,,,,,,,,,,,,,,,,,,,,,,,,,,,,,,,,,,,,,,,,,,,,,124,001,2023-03-03_12h03.50.705,eb_01,2022.2.4,119.96136284611737,
4,stimuli/4.png,l,1,0,1,0,89,0,89,0,0,0,0,0,,,,,,,,,,,,,,,,,,597.0943917924305,597.0943917924305,597.0943917924305,597.0943917924305,l,1,0.5129242370603606,597.6277814117784,597.6277814117784,597.6277814117784,,,,,,,,,,,,,,,,,,,,,,,,,,,,124,001,2023-03-03_12h03.50.705,eb_01,2022.2.4,119.96136284611737,
,,,1,0,1,0,89,0,89,0,,,,,,,,,,,,,,,,,,,,,,,,,,,,,,,,,,,,,,,,,,,,,,,,,,,,,,,,,,,124,001,2023-03-03_12h03.50.705,eb_01,2022.2.4,119.96136284611737,
3,stimuli/3.png,l,1,0,1,0,90,0,90,0,0,0,0,0,,,,,,,,,,,,,,,,,,598.6362203921017,598.6362203921017,598.6362203921017,598.6362203921017,l,1,0.40315863105934113,599.0529313057777,599.0529313057777,599.0529313057777,600.0696969761048,600.0696969761048,600.0696969761048,,,,,,,,,,,,,,,,,,,,,,,,,124,001,2023-03-03_12h03.50.705,eb_01,2022.2.4,119.96136284611737,
,,,1,0,1,0,90,0,90,0,,,,,,,,,,,,,,,,,,,,,,,,,,,,,,,,,,,,,,,,,,,,,,,,,,,,,,,,,,,124,001,2023-03-03_12h03.50.705,eb_01,2022.2.4,119.96136284611737,
4,stimuli/4.png,l,1,0,1,0,91,0,91,0,0,0,0,0,,,,,,,,,,,,,,,,,,600.0696969761048,600.0696969761048,600.0696969761048,600.0696969761048,l,1,0.5137135897530243,600.6030588247231,600.6030588247231,600.6030588247231,,,,,,,,,,,,,,,,,,,,,,,,,,,,124,001,2023-03-03_12h03.50.705,eb_01,2022.2.4,119.96136284611737,
,,,1,0,1,0,91,0,91,0,,,,,,,,,,,,,,,,,,,,,,,,,,,,,,,,,,,,,,,,,,,,,,,,,,,,,,,,,,,124,001,2023-03-03_12h03.50.705,eb_01,2022.2.4,119.96136284611737,
3,stimuli/3.png,l,1,0,1,0,92,0,92,0,0,0,0,0,,,,,,,,,,,,,,,,,,601.6115038421704,601.6115038421704,601.6115038421704,601.6115038421704,l,1,0.5719992122903932,602.1949197078939,602.1949197078939,602.1949197078939,603.2117013765674,603.2117013765674,603.2117013765674,,,,,,,,,,,,,,,,,,,,,,,,,124,001,2023-03-03_12h03.50.705,eb_01,2022.2.4,119.96136284611737,
,,,1,0,1,0,92,0,92,0,,,,,,,,,,,,,,,,,,,,,,,,,,,,,,,,,,,,,,,,,,,,,,,,,,,,,,,,,,,124,001,2023-03-03_12h03.50.705,eb_01,2022.2.4,119.96136284611737,
4,stimuli/4.png,l,1,0,1,0,93,0,93,0,0,0,0,0,,,,,,,,,,,,,,,,,,603.2117013765674,603.2117013765674,603.2117013765674,603.2117013765674,l,1,0.5958859608508646,603.8284300393425,603.8284300393425,603.8284300393425,,,,,,,,,,,,,,,,,,,,,,,,,,,,124,001,2023-03-03_12h03.50.705,eb_01,2022.2.4,119.96136284611737,
,,,1,0,1,0,93,0,93,0,,,,,,,,,,,,,,,,,,,,,,,,,,,,,,,,,,,,,,,,,,,,,,,,,,,,,,,,,,,124,001,2023-03-03_12h03.50.705,eb_01,2022.2.4,119.96136284611737,
2,stimuli/2.png,s,1,0,1,0,94,0,94,0,0,0,0,0,,,,,,,,,,,,,,,,,,604.8368747549248,604.8368747549248,604.8368747549248,604.8368747549248,s,1,0.5147951387916692,605.3619331564696,605.3619331564696,605.3619331564696,606.378747123701,606.378747123701,606.378747123701,,,,,,,,,,,,,,,,,,,,,,,,,124,001,2023-03-03_12h03.50.705,eb_01,2022.2.4,119.96136284611737,
,,,1,0,1,0,94,0,94,0,,,,,,,,,,,,,,,,,,,,,,,,,,,,,,,,,,,,,,,,,,,,,,,,,,,,,,,,,,,124,001,2023-03-03_12h03.50.705,eb_01,2022.2.4,119.96136284611737,
4,stimuli/4.png,l,1,0,1,0,95,0,95,0,0,0,0,0,,,,,,,,,,,,,,,,,,606.378747123701,606.378747123701,606.378747123701,606.378747123701,l,1,0.5009487151401117,606.903778660082,606.903778660082,606.903778660082,,,,,,,,,,,,,,,,,,,,,,,,,,,,124,001,2023-03-03_12h03.50.705,eb_01,2022.2.4,119.96136284611737,
,,,1,0,1,0,95,0,95,0,,,,,,,,,,,,,,,,,,,,,,,,,,,,,,,,,,,,,,,,,,,,,,,,,,,,,,,,,,,124,001,2023-03-03_12h03.50.705,eb_01,2022.2.4,119.96136284611737,
2,stimuli/2.png,s,1,0,1,0,96,0,96,0,0,0,0,0,,,,,,,,,,,,,,,,,,607.9122179422411,607.9122179422411,607.9122179422411,607.9122179422411,s,1,0.6065408639842644,608.5289263807063,608.5289263807063,608.5289263807063,609.5540619063831,609.5540619063831,609.5540619063831,,,,,,,,,,,,,,,,,,,,,,,,,124,001,2023-03-03_12h03.50.705,eb_01,2022.2.4,119.96136284611737,
,,,1,0,1,0,96,0,96,0,,,,,,,,,,,,,,,,,,,,,,,,,,,,,,,,,,,,,,,,,,,,,,,,,,,,,,,,,,,124,001,2023-03-03_12h03.50.705,eb_01,2022.2.4,119.96136284611737,
1,stimuli/1.png,s,1,0,1,0,97,0,97,0,0,0,0,0,,,,,,,,,,,,,,,,,,609.5540619063831,609.5540619063831,609.5540619063831,609.5540619063831,l,0,0.4687591231777333,610.0541012985632,610.0541012985632,610.0541012985632,,,,,,,,,,,,,,,,,,,,,,,,,,,,124,001,2023-03-03_12h03.50.705,eb_01,2022.2.4,119.96136284611737,
,,,1,0,1,0,97,0,97,0,,,,,,,,,,,,,,,,,,,,,,,,,,,,,,,,,,,,,,,,,,,,,,,,,,,,,,,,,,,124,001,2023-03-03_12h03.50.705,eb_01,2022.2.4,119.96136284611737,
2,stimuli/2.png,s,1,0,1,0,98,0,98,0,0,0,0,0,,,,,,,,,,,,,,,,,,611.0541924589779,611.0541924589779,611.0541924589779,611.0541924589779,s,1,0.5367159010493197,611.612597163592,611.612597163592,611.612597163592,,,,,,,,,,,,,,,,,,,,,,,,,,,,124,001,2023-03-03_12h03.50.705,eb_01,2022.2.4,119.96136284611737,
,,,1,0,1,0,98,0,98,0,,,,,,,,,,,,,,,,,,,,,,,,,,,,,,,,,,,,,,,,,,,,,,,,,,,,,,,,,,,124,001,2023-03-03_12h03.50.705,eb_01,2022.2.4,119.96136284611737,
3,stimuli/3.png,l,1,0,1,0,99,0,99,0,0,0,0,0,,,,,,,,,,,,,,,,,,612.6210669331776,612.6210669331776,612.6210669331776,612.6210669331776,l,1,0.3699031865398865,613.012750083697,613.012750083697,613.012750083697,,,,,,,,,,,,,,,,,,,,,,,,,,,,124,001,2023-03-03_12h03.50.705,eb_01,2022.2.4,119.96136284611737,
,,,1,0,1,0,99,0,99,0,,,,,,,,,,,,,,,,,,,,,,,,,,,,,,,,,,,,,,,,,,,,,,,,,,,,,,,,,,,124,001,2023-03-03_12h03.50.705,eb_01,2022.2.4,119.96136284611737,
,,,1,0,1,0,,,,,,,,,,,,,,,,,,,,,,,,,,,,,,,,,,,,,,,614.0128481868014,614.0128481868014,return,129.83148163234,,,,,,,,,,,,,,,,,,,,,124,001,2023-03-03_12h03.50.705,eb_01,2022.2.4,119.96136284611737,
2,stimuli/2.png,s,2,0,2,0,0,0,0,0,0,0,0,0,,,,,,,,,,,,,,,,,,743.8768313963665,743.8768313963665,743.8768313963665,743.8768313963665,s,1,1.439563638123218,745.3269794716907,745.3269794716907,745.3269794716907,746.3354226780066,746.3354226780066,746.3354226780066,,,,,,,,,,,,,,,,,,,,,,,,,124,001,2023-03-03_12h03.50.705,eb_01,2022.2.4,119.96136284611737,
,,,2,0,2,0,0,0,0,0,,,,,,,,,,,,,,,,,,,,,,,,,,,,,,,,,,,,,,,,,,,,,,,,,,,,,,,,,,,124,001,2023-03-03_12h03.50.705,eb_01,2022.2.4,119.96136284611737,
3,stimuli/3.png,l,2,0,2,0,1,0,1,0,0,0,0,0,,,,,,,,,,,,,,,,,,746.3354226780066,746.3354226780066,746.3354226780066,746.3354226780066,l,1,0.37302648765034974,746.7270964709751,746.7270964709751,746.7270964709751,,,,,,,,,,,,,,,,,,,,,,,,,,,,124,001,2023-03-03_12h03.50.705,eb_01,2022.2.4,119.96136284611737,
,,,2,0,2,0,1,0,1,0,,,,,,,,,,,,,,,,,,,,,,,,,,,,,,,,,,,,,,,,,,,,,,,,,,,,,,,,,,,124,001,2023-03-03_12h03.50.705,eb_01,2022.2.4,119.96136284611737,
2,stimuli/2.png,s,2,0,2,0,2,0,2,0,0,0,0,0,,,,,,,,,,,,,,,,,,747.7355937094544,747.7355937094544,747.7355937094544,747.7355937094544,s,1,0.3959026232769247,748.1439100156131,748.1439100156131,748.1439100156131,749.1607122104615,749.1607122104615,749.1607122104615,,,,,,,,,,,,,,,,,,,,,,,,,124,001,2023-03-03_12h03.50.705,eb_01,2022.2.4,119.96136284611737,
,,,2,0,2,0,2,0,2,0,,,,,,,,,,,,,,,,,,,,,,,,,,,,,,,,,,,,,,,,,,,,,,,,,,,,,,,,,,,124,001,2023-03-03_12h03.50.705,eb_01,2022.2.4,119.96136284611737,
4,stimuli/4.png,l,2,0,2,0,3,0,3,0,0,0,0,0,,,,,,,,,,,,,,,,,,749.1607122104615,749.1607122104615,749.1607122104615,749.1607122104615,l,1,0.4428122093377169,749.6274034884118,749.6274034884118,749.6274034884118,,,,,,,,,,,,,,,,,,,,,,,,,,,,124,001,2023-03-03_12h03.50.705,eb_01,2022.2.4,119.96136284611737,
,,,2,0,2,0,3,0,3,0,,,,,,,,,,,,,,,,,,,,,,,,,,,,,,,,,,,,,,,,,,,,,,,,,,,,,,,,,,,124,001,2023-03-03_12h03.50.705,eb_01,2022.2.4,119.96136284611737,
2,stimuli/2.png,s,2,0,2,0,4,0,4,0,0,0,0,0,,,,,,,,,,,,,,,,,,750.6358726543258,750.6358726543258,750.6358726543258,750.6358726543258,s,1,0.5117246624140535,751.1608942294552,751.1608942294552,751.1608942294552,752.1860523943033,752.1860523943033,752.1860523943033,,,,,,,,,,,,,,,,,,,,,,,,,124,001,2023-03-03_12h03.50.705,eb_01,2022.2.4,119.96136284611737,
,,,2,0,2,0,4,0,4,0,,,,,,,,,,,,,,,,,,,,,,,,,,,,,,,,,,,,,,,,,,,,,,,,,,,,,,,,,,,124,001,2023-03-03_12h03.50.705,eb_01,2022.2.4,119.96136284611737,
1,stimuli/1.png,s,2,0,2,0,5,0,5,0,0,0,0,0,,,,,,,,,,,,,,,,,,752.1860523943033,752.1860523943033,752.1860523943033,752.1860523943033,s,1,0.505617215676466,752.7194411081146,752.7194411081146,752.7194411081146,,,,,,,,,,,,,,,,,,,,,,,,,,,,124,001,2023-03-03_12h03.50.705,eb_01,2022.2.4,119.96136284611737,
,,,2,0,2,0,5,0,5,0,,,,,,,,,,,,,,,,,,,,,,,,,,,,,,,,,,,,,,,,,,,,,,,,,,,,,,,,,,,124,001,2023-03-03_12h03.50.705,eb_01,2022.2.4,119.96136284611737,
2,stimuli/2.png,s,2,0,2,0,6,0,6,0,0,0,0,0,,,,,,,,,,,,,,,,,,753.7195491724415,753.7195491724415,753.7195491724415,753.7195491724415,s,1,0.5241922091518063,754.252907700662,754.252907700662,754.252907700662,755.2780172667408,755.2780172667408,755.2780172667408,,,,,,,,,,,,,,,,,,,,,,,,,124,001,2023-03-03_12h03.50.705,eb_01,2022.2.4,119.96136284611737,
,,,2,0,2,0,6,0,6,0,,,,,,,,,,,,,,,,,,,,,,,,,,,,,,,,,,,,,,,,,,,,,,,,,,,,,,,,,,,124,001,2023-03-03_12h03.50.705,eb_01,2022.2.4,119.96136284611737,
1,stimuli/1.png,s,2,0,2,0,7,0,7,0,0,0,0,0,,,,,,,,,,,,,,,,,,755.2780172667408,755.2780172667408,755.2780172667408,755.2780172667408,s,1,0.5097810134466272,755.8197713080735,755.8197713080735,755.8197713080735,,,,,,,,,,,,,,,,,,,,,,,,,,,,124,001,2023-03-03_12h03.50.705,eb_01,2022.2.4,119.96136284611737,
,,,2,0,2,0,7,0,7,0,,,,,,,,,,,,,,,,,,,,,,,,,,,,,,,,,,,,,,,,,,,,,,,,,,,,,,,,,,,124,001,2023-03-03_12h03.50.705,eb_01,2022.2.4,119.96136284611737,
2,stimuli/2.png,s,2,0,2,0,8,0,8,0,0,0,0,0,,,,,,,,,,,,,,,,,,756.819866392616,756.819866392616,756.819866392616,756.819866392616,s,1,0.5120020678441506,757.3449060791172,757.3449060791172,757.3449060791172,758.3617031424074,758.3617031424074,758.3617031424074,,,,,,,,,,,,,,,,,,,,,,,,,124,001,2023-03-03_12h03.50.705,eb_01,2022.2.4,119.96136284611737,
,,,2,0,2,0,8,0,8,0,,,,,,,,,,,,,,,,,,,,,,,,,,,,,,,,,,,,,,,,,,,,,,,,,,,,,,,,,,,124,001,2023-03-03_12h03.50.705,eb_01,2022.2.4,119.96136284611737,
4,stimuli/4.png,l,2,0,2,0,9,0,9,0,0,0,0,0,,,,,,,,,,,,,,,,,,758.3617031424074,758.3617031424074,758.3617031424074,758.3617031424074,l,1,0.4182142887148075,758.8033953334962,758.8033953334962,758.8033953334962,,,,,,,,,,,,,,,,,,,,,,,,,,,,124,001,2023-03-03_12h03.50.705,eb_01,2022.2.4,119.96136284611737,
