index,stimulus,correct_answer,block.thisRepN,block.thisTrialN,block.thisN,block.thisIndex,trial.thisRepN,trial.thisTrialN,trial.thisN,trial.thisIndex,display_row.thisRepN,display_row.thisTrialN,display_row.thisN,display_row.thisIndex,pair_questions.thisRepN,pair_questions.thisTrialN,pair_questions.thisN,pair_questions.thisIndex,welcome_text.started,instructions_0_keypress.started,instructions_0_keypress.keys,instructions_0_keypress.rt,instructions_1_keypress.started,instructions_1_text.started,instructions_1_keypress.keys,instructions_1_keypress.rt,instructions_2_keypress.started,instructions_2_text.started,instructions_2_keypress.keys,instructions_2_keypress.rt,text_countdown.started,image.started,size_question.started,size_resp.started,keypress_options.started,size_resp.keys,size_resp.corr,size_resp.rt,fb_image.started,fb.started,fb_size_question.started,fb_image.stopped,fb.stopped,fb_size_question.stopped,block_break_text.started,block_break_keypress.started,block_break_keypress.keys,block_break_keypress.rt,seq_reveal.started,seq_reveal_adv.started,seq_reveal_adv.keys,seq_reveal_adv.rt,instruction_2afc_text.started,instruction_2afc_keypress.started,instruction_2afc_keypress.keys,instruction_2afc_keypress.rt,dist_2afc_test.started,dist_2afc_resp.started,text.started,stim_00.started,stim_01.started,stim_10.started,stim_11.started,dist_2afc_resp.keys,dist_2afc_resp.rt,graph.started,debrief_text.started,debriefing_title.started,participant,session,date,expName,psychopyVersion,frameRate,
,,,,,,,,,,,,,,,,,,,12.913785463519162,12.913785463519162,return,3.1533880390925333,,,,,,,,,,,,,,,,,,,,,,,,,,,,,,,,,,,,,,,,,,,,,,,125,001,2010-10-16_14h18.11.740,eb_01,2022.2.4,119.96690227622942,
,,,,,,,,,,,,,,,,,,,,,,,16.08039548312081,16.08039548312081,return,2.0748172357562,,,,,,,,,,,,,,,,,,,,,,,,,,,,,,,,,,,,,,,,,,,125,001,2010-10-16_14h18.11.740,eb_01,2022.2.4,119.96690227622942,
,,,,,,,,,,,,,,,,,,,,,,,,,,,18.16389578950475,18.16389578950475,space,2.287378699867986,,,,,,,,,,,,,,,,,,,,,,,,,,,,,,,,,,,,,,,125,001,2010-10-16_14h18.11.740,eb_01,2022.2.4,119.96690227622942,
9,stimuli/9.png,l,0,0,0,0,0,0,0,0,0,0,0,0,,,,,,,,,,,,,,,,,20.47243631730089,25.497865622659447,25.497865622659447,25.497865622659447,25.497865622659447,l,1,0.6495017276320141,26.172921389341354,26.172921389341354,26.172921389341354,,,,,,,,,,,,,,,,,,,,,,,,,,,,125,001,2010-10-16_14h18.11.740,eb_01,2022.2.4,119.96690227622942,
,,,0,0,0,0,0,0,0,0,,,,,,,,,,,,,,,,,,,,,,,,,,,,,,,,,,,,,,,,,,,,,,,,,,,,,,,,,,,125,001,2010-10-16_14h18.11.740,eb_01,2022.2.4,119.96690227622942,
5,stimuli/5.png,s,0,0,0,0,1,0,1,0,0,0,0,0,,,,,,,,,,,,,,,,,,27.17297179819434,27.17297179819434,27.17297179819434,27.17297179819434,s,1,0.5024325347039849,27.69813457049895,27.69813457049895,27.69813457049895,,,,,,,,,,,,,,,,,,,,,,,,,,,,125,001,2010-10-16_14h18.11.740,eb_01,2022.2.4,119.96690227622942,
,,,0,0,0,0,1,0,1,0,,,,,,,,,,,,,,,,,,,,,,,,,,,,,,,,,,,,,,,,,,,,,,,,,,,,,,,,,,,125,001,2010-10-16_14h18.11.740,eb_01,2022.2.4,119.96690227622942,
9,stimuli/9.png,l,0,0,0,0,2,0,2,0,0,0,0,0,,,,,,,,,,,,,,,,,,28.714801488706144,28.714801488706144,28.714801488706144,28.714801488706144,l,1,0.5766177676268853,29.323191695526475,29.323191695526475,29.323191695526475,,,,,,,,,,,,,,,,,,,,,,,,,,,,125,001,2010-10-16_14h18.11.740,eb_01,2022.2.4,119.96690227622942,
,,,0,0,0,0,2,0,2,0,,,,,,,,,,,,,,,,,,,,,,,,,,,,,,,,,,,,,,,,,,,,,,,,,,,,,,,,,,,125,001,2010-10-16_14h18.11.740,eb_01,2022.2.4,119.96690227622942,
5,stimuli/5.png,s,0,0,0,0,3,0,3,0,0,0,0,0,,,,,,,,,,,,,,,,,,30.323256593139376,30.323256593139376,30.323256593139376,30.323256593139376,s,1,0.5191915169707499,30.86499844546779,30.86499844546779,30.86499844546779,,,,,,,,,,,,,,,,,,,,,,,,,,,,125,001,2010-10-16_14h18.11.740,eb_01,2022.2.4,119.96690227622942,
,,,0,0,0,0,3,0,3,0,,,,,,,,,,,,,,,,,,,,,,,,,,,,,,,,,,,,,,,,,,,,,,,,,,,,,,,,,,,125,001,2010-10-16_14h18.11.740,eb_01,2022.2.4,119.96690227622942,
9,stimuli/9.png,l,0,0,0,0,4,0,4,0,0,0,0,0,,,,,,,,,,,,,,,,,,31.88174173157313,31.88174173157313,31.88174173157313,31.88174173157313,l,1,0.6727697910973802,32.58176014438504,32.58176014438504,32.58176014438504,,,,,,,,,,,,,,,,,,,,,,,,,,,,125,001,2010-10-16_14h18.11.740,eb_01,2022.2.4,119.96690227622942,
,,,0,0,0,0,4,0,4,0,,,,,,,,,,,,,,,,,,,,,,,,,,,,,,,,,,,,,,,,,,,,,,,,,,,,,,,,,,,125,001,2010-10-16_14h18.11.740,eb_01,2022.2.4,119.96690227622942,
5,stimuli/5.png,s,0,0,0,0,5,0,5,0,0,0,0,0,,,,,,,,,,,,,,,,,,33.581866093561985,33.581866093561985,33.581866093561985,33.581866093561985,s,1,0.4766570080537349,34.08192465233151,34.08192465233151,34.08192465233151,,,,,,,,,,,,,,,,,,,,,,,,,,,,125,001,2010-10-16_14h18.11.740,eb_01,2022.2.4,119.96690227622942,
,,,0,0,0,0,5,0,5,0,,,,,,,,,,,,,,,,,,,,,,,,,,,,,,,,,,,,,,,,,,,,,,,,,,,,,,,,,,,125,001,2010-10-16_14h18.11.740,eb_01,2022.2.4,119.96690227622942,
6,stimuli/6.png,s,0,0,0,0,6,0,6,0,0,0,0,0,,,,,,,,,,,,,,,,,,35.106983588426374,35.106983588426374,35.106983588426374,35.106983588426374,s,1,0.943570688192267,36.08205988089321,36.08205988089321,36.08205988089321,,,,,,,,,,,,,,,,,,,,,,,,,,,,125,001,2010-10-16_14h18.11.740,eb_01,2022.2.4,119.96690227622942,
,,,0,0,0,0,6,0,6,0,,,,,,,,,,,,,,,,,,,,,,,,,,,,,,,,,,,,,,,,,,,,,,,,,,,,,,,,,,,125,001,2010-10-16_14h18.11.740,eb_01,2022.2.4,119.96690227622942,
9,stimuli/9.png,l,0,0,0,0,7,0,7,0,0,0,0,0,,,,,,,,,,,,,,,,,,37.09051438161987,37.09051438161987,37.09051438161987,37.09051438161987,l,1,0.3840571487089619,37.50721208847244,37.50721208847244,37.50721208847244,,,,,,,,,,,,,,,,,,,,,,,,,,,,125,001,2010-10-16_14h18.11.740,eb_01,2022.2.4,119.96690227622942,
,,,0,0,0,0,7,0,7,0,,,,,,,,,,,,,,,,,,,,,,,,,,,,,,,,,,,,,,,,,,,,,,,,,,,,,,,,,,,125,001,2010-10-16_14h18.11.740,eb_01,2022.2.4,119.96690227622942,
8,stimuli/8.png,l,0,0,0,0,8,0,8,0,0,0,0,0,,,,,,,,,,,,,,,,,,38.50730686917086,38.50730686917086,38.50730686917086,38.50730686917086,l,1,0.7433231716277078,39.274043061828706,39.274043061828706,39.274043061828706,,,,,,,,,,,,,,,,,,,,,,,,,,,,125,001,2010-10-16_14h18.11.740,eb_01,2022.2.4,119.96690227622942,
,,,0,0,0,0,8,0,8,0,,,,,,,,,,,,,,,,,,,,,,,,,,,,,,,,,,,,,,,,,,,,,,,,,,,,,,,,,,,125,001,2010-10-16_14h18.11.740,eb_01,2022.2.4,119.96690227622942,
9,stimuli/9.png,l,0,0,0,0,9,0,9,0,0,0,0,0,,,,,,,,,,,,,,,,,,40.29075586114777,40.29075586114777,40.29075586114777,40.29075586114777,l,1,0.5359040144830942,40.857491148257395,40.857491148257395,40.857491148257395,,,,,,,,,,,,,,,,,,,,,,,,,,,,125,001,2010-10-16_14h18.11.740,eb_01,2022.2.4,119.96690227622942,
,,,0,0,0,0,9,0,9,0,,,,,,,,,,,,,,,,,,,,,,,,,,,,,,,,,,,,,,,,,,,,,,,,,,,,,,,,,,,125,001,2010-10-16_14h18.11.740,eb_01,2022.2.4,119.96690227622942,
6,stimuli/6.png,s,0,0,0,0,10,0,10,0,0,0,0,0,,,,,,,,,,,,,,,,,,41.87425888417056,41.87425888417056,41.87425888417056,41.87425888417056,s,1,0.46443029496003874,42.365960741444724,42.365960741444724,42.365960741444724,,,,,,,,,,,,,,,,,,,,,,,,,,,,125,001,2010-10-16_14h18.11.740,eb_01,2022.2.4,119.96690227622942,
,,,0,0,0,0,10,0,10,0,,,,,,,,,,,,,,,,,,,,,,,,,,,,,,,,,,,,,,,,,,,,,,,,,,,,,,,,,,,125,001,2010-10-16_14h18.11.740,eb_01,2022.2.4,119.96690227622942,
5,stimuli/5.png,s,0,0,0,0,11,0,11,0,0,0,0,0,,,,,,,,,,,,,,,,,,43.366013263264904,43.366013263264904,43.366013263264904,43.366013263264904,s,1,0.4607063785661012,43.84942120371852,43.84942120371852,43.84942120371852,,,,,,,,,,,,,,,,,,,,,,,,,,,,125,001,2010-10-16_14h18.11.740,eb_01,2022.2.4,119.96690227622942,
,,,0,0,0,0,11,0,11,0,,,,,,,,,,,,,,,,,,,,,,,,,,,,,,,,,,,,,,,,,,,,,,,,,,,,,,,,,,,125,001,2010-10-16_14h18.11.740,eb_01,2022.2.4,119.96690227622942,
9,stimuli/9.png,l,0,0,0,0,12,0,12,0,0,0,0,0,,,,,,,,,,,,,,,,,,44.866168715729145,44.866168715729145,44.866168715729145,44.866168715729145,l,1,0.4396457400289364,45.33285359395086,45.33285359395086,45.33285359395086,,,,,,,,,,,,,,,,,,,,,,,,,,,,125,001,2010-10-16_14h18.11.740,eb_01,2022.2.4,119.96690227622942,
,,,0,0,0,0,12,0,12,0,,,,,,,,,,,,,,,,,,,,,,,,,,,,,,,,,,,,,,,,,,,,,,,,,,,,,,,,,,,125,001,2010-10-16_14h18.11.740,eb_01,2022.2.4,119.96690227622942,
5,stimuli/5.png,s,0,0,0,0,13,0,13,0,0,0,0,0,,,,,,,,,,,,,,,,,,46.33293780995882,46.33293780995882,46.33293780995882,46.33293780995882,s,1,0.6687965470191557,47.024683737254236,47.024683737254236,47.024683737254236,,,,,,,,,,,,,,,,,,,,,,,,,,,,125,001,2010-10-16_14h18.11.740,eb_01,2022.2.4,119.96690227622942,
,,,0,0,0,0,13,0,13,0,,,,,,,,,,,,,,,,,,,,,,,,,,,,,,,,,,,,,,,,,,,,,,,,,,,,,,,,,,,125,001,2010-10-16_14h18.11.740,eb_01,2022.2.4,119.96690227622942,
9,stimuli/9.png,l,0,0,0,0,14,0,14,0,0,0,0,0,,,,,,,,,,,,,,,,,,48.041430645564105,48.041430645564105,48.041430645564105,48.041430645564105,l,1,0.39239453186746687,48.46644671904505,48.46644671904505,48.46644671904505,,,,,,,,,,,,,,,,,,,,,,,,,,,,125,001,2010-10-16_14h18.11.740,eb_01,2022.2.4,119.96690227622942,
,,,0,0,0,0,14,0,14,0,,,,,,,,,,,,,,,,,,,,,,,,,,,,,,,,,,,,,,,,,,,,,,,,,,,,,,,,,,,125,001,2010-10-16_14h18.11.740,eb_01,2022.2.4,119.96690227622942,
8,stimuli/8.png,l,0,0,0,0,15,0,15,0,0,0,0,0,,,,,,,,,,,,,,,,,,49.46653153872467,49.46653153872467,49.46653153872467,49.46653153872467,l,1,0.5753466796886642,50.06659039936494,50.06659039936494,50.06659039936494,,,,,,,,,,,,,,,,,,,,,,,,,,,,125,001,2010-10-16_14h18.11.740,eb_01,2022.2.4,119.96690227622942,
,,,0,0,0,0,15,0,15,0,,,,,,,,,,,,,,,,,,,,,,,,,,,,,,,,,,,,,,,,,,,,,,,,,,,,,,,,,,,125,001,2010-10-16_14h18.11.740,eb_01,2022.2.4,119.96690227622942,
3,stimuli/3.png,l,0,0,0,0,16,0,16,0,0,0,0,0,,,,,,,,,,,,,,,,,,51.075018035509856,51.075018035509856,51.075018035509856,51.075018035509856,l,1,0.5028397295973264,51.5917404940119,51.5917404940119,51.5917404940119,52.60014609512291,52.60014609512291,52.60014609512291,,,,,,,,,,,,,,,,,,,,,,,,,125,001,2010-10-16_14h18.11.740,eb_01,2022.2.4,119.96690227622942,
,,,0,0,0,0,16,0,16,0,,,,,,,,,,,,,,,,,,,,,,,,,,,,,,,,,,,,,,,,,,,,,,,,,,,,,,,,,,,125,001,2010-10-16_14h18.11.740,eb_01,2022.2.4,119.96690227622942,
2,stimuli/2.png,s,0,0,0,0,17,0,17,0,0,0,0,0,,,,,,,,,,,,,,,,,,52.60014609512291,52.60014609512291,52.60014609512291,52.60014609512291,s,1,0.6017889917129651,53.22529890638543,53.22529890638543,53.22529890638543,,,,,,,,,,,,,,,,,,,,,,,,,,,,125,001,2010-10-16_14h18.11.740,eb_01,2022.2.4,119.96690227622942,
,,,0,0,0,0,17,0,17,0,,,,,,,,,,,,,,,,,,,,,,,,,,,,,,,,,,,,,,,,,,,,,,,,,,,,,,,,,,,125,001,2010-10-16_14h18.11.740,eb_01,2022.2.4,119.96690227622942,
1,stimuli/1.png,s,0,0,0,0,18,0,18,0,0,0,0,0,,,,,,,,,,,,,,,,,,54.24199359474005,54.24199359474005,54.24199359474005,54.24199359474005,s,1,2.3680011737451423,56.64219070243416,56.64219070243416,56.64219070243416,,,,,,,,,,,,,,,,,,,,,,,,,,,,125,001,2010-10-16_14h18.11.740,eb_01,2022.2.4,119.96690227622942,
,,,0,0,0,0,18,0,18,0,,,,,,,,,,,,,,,,,,,,,,,,,,,,,,,,,,,,,,,,,,,,,,,,,,,,,,,,,,,125,001,2010-10-16_14h18.11.740,eb_01,2022.2.4,119.96690227622942,
4,stimuli/4.png,l,0,0,0,0,19,0,19,0,0,0,0,0,,,,,,,,,,,,,,,,,,57.650606566428905,57.650606566428905,57.650606566428905,57.650606566428905,l,1,0.551415453053778,58.2256107168505,58.2256107168505,58.2256107168505,,,,,,,,,,,,,,,,,,,,,,,,,,,,125,001,2010-10-16_14h18.11.740,eb_01,2022.2.4,119.96690227622942,
,,,0,0,0,0,19,0,19,0,,,,,,,,,,,,,,,,,,,,,,,,,,,,,,,,,,,,,,,,,,,,,,,,,,,,,,,,,,,125,001,2010-10-16_14h18.11.740,eb_01,2022.2.4,119.96690227622942,
2,stimuli/2.png,s,0,0,0,0,20,0,20,0,0,0,0,0,,,,,,,,,,,,,,,,,,59.23404529551044,59.23404529551044,59.23404529551044,59.23404529551044,s,1,0.5199974549759645,59.76744644436985,59.76744644436985,59.76744644436985,60.7758260864357,60.7758260864357,60.7758260864357,,,,,,,,,,,,,,,,,,,,,,,,,125,001,2010-10-16_14h18.11.740,eb_01,2022.2.4,119.96690227622942,
,,,0,0,0,0,20,0,20,0,,,,,,,,,,,,,,,,,,,,,,,,,,,,,,,,,,,,,,,,,,,,,,,,,,,,,,,,,,,125,001,2010-10-16_14h18.11.740,eb_01,2022.2.4,119.96690227622942,
3,stimuli/3.png,l,0,0,0,0,21,0,21,0,0,0,0,0,,,,,,,,,,,,,,,,,,60.7758260864357,60.7758260864357,60.7758260864357,60.7758260864357,l,1,0.5292566862772219,61.3175413760182,61.3175413760182,61.3175413760182,62.334307300829096,62.334307300829096,62.334307300829096,,,,,,,,,,,,,,,,,,,,,,,,,125,001,2010-10-16_14h18.11.740,eb_01,2022.2.4,119.96690227622942,
,,,0,0,0,0,21,0,21,0,,,,,,,,,,,,,,,,,,,,,,,,,,,,,,,,,,,,,,,,,,,,,,,,,,,,,,,,,,,125,001,2010-10-16_14h18.11.740,eb_01,2022.2.4,119.96690227622942,
4,stimuli/4.png,l,0,0,0,0,22,0,22,0,0,0,0,0,,,,,,,,,,,,,,,,,,62.334307300829096,62.334307300829096,62.334307300829096,62.334307300829096,l,1,0.5548127683869097,62.90937182115158,62.90937182115158,62.90937182115158,,,,,,,,,,,,,,,,,,,,,,,,,,,,125,001,2010-10-16_14h18.11.740,eb_01,2022.2.4,119.96690227622942,
,,,0,0,0,0,22,0,22,0,,,,,,,,,,,,,,,,,,,,,,,,,,,,,,,,,,,,,,,,,,,,,,,,,,,,,,,,,,,125,001,2010-10-16_14h18.11.740,eb_01,2022.2.4,119.96690227622942,
2,stimuli/2.png,s,0,0,0,0,23,0,23,0,0,0,0,0,,,,,,,,,,,,,,,,,,63.91776021683472,63.91776021683472,63.91776021683472,63.91776021683472,s,1,0.6033628346631303,64.53451768986997,64.53451768986997,64.53451768986997,65.5428970301,65.5428970301,65.5428970301,,,,,,,,,,,,,,,,,,,,,,,,,125,001,2010-10-16_14h18.11.740,eb_01,2022.2.4,119.96690227622942,
,,,0,0,0,0,23,0,23,0,,,,,,,,,,,,,,,,,,,,,,,,,,,,,,,,,,,,,,,,,,,,,,,,,,,,,,,,,,,125,001,2010-10-16_14h18.11.740,eb_01,2022.2.4,119.96690227622942,
3,stimuli/3.png,l,0,0,0,0,24,0,24,0,0,0,0,0,,,,,,,,,,,,,,,,,,65.5428970301,65.5428970301,65.5428970301,65.5428970301,l,1,0.7702867776679341,66.32629893356352,66.32629893356352,66.32629893356352,67.343089911883,67.343089911883,67.343089911883,,,,,,,,,,,,,,,,,,,,,,,,,125,001,2010-10-16_14h18.11.740,eb_01,2022.2.4,119.96690227622942,
,,,0,0,0,0,24,0,24,0,,,,,,,,,,,,,,,,,,,,,,,,,,,,,,,,,,,,,,,,,,,,,,,,,,,,,,,,,,,125,001,2010-10-16_14h18.11.740,eb_01,2022.2.4,119.96690227622942,
4,stimuli/4.png,l,0,0,0,0,25,0,25,0,0,0,0,0,,,,,,,,,,,,,,,,,,67.343089911883,67.343089911883,67.343089911883,67.343089911883,l,1,0.6021660016558599,67.96811473899288,67.96811473899288,67.96811473899288,,,,,,,,,,,,,,,,,,,,,,,,,,,,125,001,2010-10-16_14h18.11.740,eb_01,2022.2.4,119.96690227622942,
,,,0,0,0,0,25,0,25,0,,,,,,,,,,,,,,,,,,,,,,,,,,,,,,,,,,,,,,,,,,,,,,,,,,,,,,,,,,,125,001,2010-10-16_14h18.11.740,eb_01,2022.2.4,119.96690227622942,
2,stimuli/2.png,s,0,0,0,0,26,0,26,0,0,0,0,0,,,,,,,,,,,,,,,,,,68.97654750657966,68.97654750657966,68.97654750657966,68.97654750657966,s,1,0.6006830153928604,69.59329411303042,69.59329411303042,69.59329411303042,70.6100389083731,70.6100389083731,70.6100389083731,,,,,,,,,,,,,,,,,,,,,,,,,125,001,2010-10-16_14h18.11.740,eb_01,2022.2.4,119.96690227622942,
,,,0,0,0,0,26,0,26,0,,,,,,,,,,,,,,,,,,,,,,,,,,,,,,,,,,,,,,,,,,,,,,,,,,,,,,,,,,,125,001,2010-10-16_14h18.11.740,eb_01,2022.2.4,119.96690227622942,
4,stimuli/4.png,l,0,0,0,0,27,0,27,0,0,0,0,0,,,,,,,,,,,,,,,,,,70.6100389083731,70.6100389083731,70.6100389083731,70.6100389083731,l,1,0.7672178744978737,71.40174770820886,71.40174770820886,71.40174770820886,,,,,,,,,,,,,,,,,,,,,,,,,,,,125,001,2010-10-16_14h18.11.740,eb_01,2022.2.4,119.96690227622942,
,,,0,0,0,0,27,0,27,0,,,,,,,,,,,,,,,,,,,,,,,,,,,,,,,,,,,,,,,,,,,,,,,,,,,,,,,,,,,125,001,2010-10-16_14h18.11.740,eb_01,2022.2.4,119.96690227622942,
3,stimuli/3.png,l,0,0,0,0,28,0,28,0,0,0,0,0,,,,,,,,,,,,,,,,,,72.41018470167182,72.41018470167182,72.41018470167182,72.41018470167182,l,1,0.5271274404076394,72.95187373034423,72.95187373034423,72.95187373034423,73.96032491073129,73.96032491073129,73.96032491073129,,,,,,,,,,,,,,,,,,,,,,,,,125,001,2010-10-16_14h18.11.740,eb_01,2022.2.4,119.96690227622942,
,,,0,0,0,0,28,0,28,0,,,,,,,,,,,,,,,,,,,,,,,,,,,,,,,,,,,,,,,,,,,,,,,,,,,,,,,,,,,125,001,2010-10-16_14h18.11.740,eb_01,2022.2.4,119.96690227622942,
2,stimuli/2.png,s,0,0,0,0,29,0,29,0,0,0,0,0,,,,,,,,,,,,,,,,,,73.96032491073129,73.96032491073129,73.96032491073129,73.96032491073129,s,1,0.5450533725670539,74.51870198707911,74.51870198707911,74.51870198707911,75.54377812860184,75.54377812860184,75.54377812860184,,,,,,,,,,,,,,,,,,,,,,,,,125,001,2010-10-16_14h18.11.740,eb_01,2022.2.4,119.96690227622942,
,,,0,0,0,0,29,0,29,0,,,,,,,,,,,,,,,,,,,,,,,,,,,,,,,,,,,,,,,,,,,,,,,,,,,,,,,,,,,125,001,2010-10-16_14h18.11.740,eb_01,2022.2.4,119.96690227622942,
1,stimuli/1.png,s,0,0,0,0,30,0,30,0,0,0,0,0,,,,,,,,,,,,,,,,,,75.54377812860184,75.54377812860184,75.54377812860184,75.54377812860184,s,1,0.7135894933890086,76.2855024736491,76.2855024736491,76.2855024736491,,,,,,,,,,,,,,,,,,,,,,,,,,,,125,001,2010-10-16_14h18.11.740,eb_01,2022.2.4,119.96690227622942,
,,,0,0,0,0,30,0,30,0,,,,,,,,,,,,,,,,,,,,,,,,,,,,,,,,,,,,,,,,,,,,,,,,,,,,,,,,,,,125,001,2010-10-16_14h18.11.740,eb_01,2022.2.4,119.96690227622942,
2,stimuli/2.png,s,0,0,0,0,31,0,31,0,0,0,0,0,,,,,,,,,,,,,,,,,,77.28561476164032,77.28561476164032,77.28561476164032,77.28561476164032,s,1,0.5547635669354349,77.85228726407513,77.85228726407513,77.85228726407513,78.86907733682892,78.86907733682892,78.86907733682892,,,,,,,,,,,,,,,,,,,,,,,,,125,001,2010-10-16_14h18.11.740,eb_01,2022.2.4,119.96690227622942,
,,,0,0,0,0,31,0,31,0,,,,,,,,,,,,,,,,,,,,,,,,,,,,,,,,,,,,,,,,,,,,,,,,,,,,,,,,,,,125,001,2010-10-16_14h18.11.740,eb_01,2022.2.4,119.96690227622942,
4,stimuli/4.png,l,0,0,0,0,32,0,32,0,0,0,0,0,,,,,,,,,,,,,,,,,,78.86907733682892,78.86907733682892,78.86907733682892,78.86907733682892,l,1,0.6273550348705612,79.51911280414788,79.51911280414788,79.51911280414788,,,,,,,,,,,,,,,,,,,,,,,,,,,,125,001,2010-10-16_14h18.11.740,eb_01,2022.2.4,119.96690227622942,
,,,0,0,0,0,32,0,32,0,,,,,,,,,,,,,,,,,,,,,,,,,,,,,,,,,,,,,,,,,,,,,,,,,,,,,,,,,,,125,001,2010-10-16_14h18.11.740,eb_01,2022.2.4,119.96690227622942,
2,stimuli/2.png,s,0,0,0,0,33,0,33,0,0,0,0,0,,,,,,,,,,,,,,,,,,80.52751116087893,80.52751116087893,80.52751116087893,80.52751116087893,s,1,0.5209772582165897,81.06091472451226,81.06091472451226,81.06091472451226,82.07767581974622,82.07767581974622,82.07767581974622,,,,,,,,,,,,,,,,,,,,,,,,,125,001,2010-10-16_14h18.11.740,eb_01,2022.2.4,119.96690227622942,
,,,0,0,0,0,33,0,33,0,,,,,,,,,,,,,,,,,,,,,,,,,,,,,,,,,,,,,,,,,,,,,,,,,,,,,,,,,,,125,001,2010-10-16_14h18.11.740,eb_01,2022.2.4,119.96690227622942,
4,stimuli/4.png,l,0,0,0,0,34,0,34,0,0,0,0,0,,,,,,,,,,,,,,,,,,82.07767581974622,82.07767581974622,82.07767581974622,82.07767581974622,l,1,0.7948485677479766,82.89441970954067,82.89441970954067,82.89441970954067,,,,,,,,,,,,,,,,,,,,,,,,,,,,125,001,2010-10-16_14h18.11.740,eb_01,2022.2.4,119.96690227622942,
,,,0,0,0,0,34,0,34,0,,,,,,,,,,,,,,,,,,,,,,,,,,,,,,,,,,,,,,,,,,,,,,,,,,,,,,,,,,,125,001,2010-10-16_14h18.11.740,eb_01,2022.2.4,119.96690227622942,
2,stimuli/2.png,s,0,0,0,0,35,0,35,0,0,0,0,0,,,,,,,,,,,,,,,,,,83.90283074395848,83.90283074395848,83.90283074395848,83.90283074395848,s,1,0.5937151231337339,84.51121280083316,84.51121280083316,84.51121280083316,85.52796182208112,85.52796182208112,85.52796182208112,,,,,,,,,,,,,,,,,,,,,,,,,125,001,2010-10-16_14h18.11.740,eb_01,2022.2.4,119.96690227622942,
,,,0,0,0,0,35,0,35,0,,,,,,,,,,,,,,,,,,,,,,,,,,,,,,,,,,,,,,,,,,,,,,,,,,,,,,,,,,,125,001,2010-10-16_14h18.11.740,eb_01,2022.2.4,119.96690227622942,
4,stimuli/4.png,l,0,0,0,0,36,0,36,0,0,0,0,0,,,,,,,,,,,,,,,,,,85.52796182208112,85.52796182208112,85.52796182208112,85.52796182208112,l,1,0.6166580947174225,86.1613173916412,86.1613173916412,86.1613173916412,,,,,,,,,,,,,,,,,,,,,,,,,,,,125,001,2010-10-16_14h18.11.740,eb_01,2022.2.4,119.96690227622942,
,,,0,0,0,0,36,0,36,0,,,,,,,,,,,,,,,,,,,,,,,,,,,,,,,,,,,,,,,,,,,,,,,,,,,,,,,,,,,125,001,2010-10-16_14h18.11.740,eb_01,2022.2.4,119.96690227622942,
2,stimuli/2.png,s,0,0,0,0,37,0,37,0,0,0,0,0,,,,,,,,,,,,,,,,,,87.16976555355359,87.16976555355359,87.16976555355359,87.16976555355359,s,1,0.6388567055983003,87.8198269798886,87.8198269798886,87.8198269798886,88.82825642713578,88.82825642713578,88.82825642713578,,,,,,,,,,,,,,,,,,,,,,,,,125,001,2010-10-16_14h18.11.740,eb_01,2022.2.4,119.96690227622942,
,,,0,0,0,0,37,0,37,0,,,,,,,,,,,,,,,,,,,,,,,,,,,,,,,,,,,,,,,,,,,,,,,,,,,,,,,,,,,125,001,2010-10-16_14h18.11.740,eb_01,2022.2.4,119.96690227622942,
3,stimuli/3.png,l,0,0,0,0,38,0,38,0,0,0,0,0,,,,,,,,,,,,,,,,,,88.82825642713578,88.82825642713578,88.82825642713578,88.82825642713578,l,1,0.7483800551563036,89.58664316264912,89.58664316264912,89.58664316264912,90.59507442096947,90.59507442096947,90.59507442096947,,,,,,,,,,,,,,,,,,,,,,,,,125,001,2010-10-16_14h18.11.740,eb_01,2022.2.4,119.96690227622942,
,,,0,0,0,0,38,0,38,0,,,,,,,,,,,,,,,,,,,,,,,,,,,,,,,,,,,,,,,,,,,,,,,,,,,,,,,,,,,125,001,2010-10-16_14h18.11.740,eb_01,2022.2.4,119.96690227622942,
2,stimuli/2.png,s,0,0,0,0,39,0,39,0,0,0,0,0,,,,,,,,,,,,,,,,,,90.59507442096947,90.59507442096947,90.59507442096947,90.59507442096947,s,1,0.56561535585206,91.17011388778337,91.17011388778337,91.17011388778337,92.19521176247508,92.19521176247508,92.19521176247508,,,,,,,,,,,,,,,,,,,,,,,,,125,001,2010-10-16_14h18.11.740,eb_01,2022.2.4,119.96690227622942,
,,,0,0,0,0,39,0,39,0,,,,,,,,,,,,,,,,,,,,,,,,,,,,,,,,,,,,,,,,,,,,,,,,,,,,,,,,,,,125,001,2010-10-16_14h18.11.740,eb_01,2022.2.4,119.96690227622942,
1,stimuli/1.png,s,0,0,0,0,40,0,40,0,0,0,0,0,,,,,,,,,,,,,,,,,,92.19521176247508,92.19521176247508,92.19521176247508,92.19521176247508,s,1,0.6364455323491711,92.86194040888222,92.86194040888222,92.86194040888222,,,,,,,,,,,,,,,,,,,,,,,,,,,,125,001,2010-10-16_14h18.11.740,eb_01,2022.2.4,119.96690227622942,
,,,0,0,0,0,40,0,40,0,,,,,,,,,,,,,,,,,,,,,,,,,,,,,,,,,,,,,,,,,,,,,,,,,,,,,,,,,,,125,001,2010-10-16_14h18.11.740,eb_01,2022.2.4,119.96690227622942,
4,stimuli/4.png,l,0,0,0,0,41,0,41,0,0,0,0,0,,,,,,,,,,,,,,,,,,93.87030556218815,93.87030556218815,93.87030556218815,93.87030556218815,l,1,0.48942554084351286,94.37872535022325,94.37872535022325,94.37872535022325,,,,,,,,,,,,,,,,,,,,,,,,,,,,125,001,2010-10-16_14h18.11.740,eb_01,2022.2.4,119.96690227622942,
,,,0,0,0,0,41,0,41,0,,,,,,,,,,,,,,,,,,,,,,,,,,,,,,,,,,,,,,,,,,,,,,,,,,,,,,,,,,,125,001,2010-10-16_14h18.11.740,eb_01,2022.2.4,119.96690227622942,
3,stimuli/3.png,l,0,0,0,0,42,0,42,0,0,0,0,0,,,,,,,,,,,,,,,,,,95.38711344407056,95.38711344407056,95.38711344407056,95.38711344407056,l,1,0.5086959104228299,95.91218294488499,95.91218294488499,95.91218294488499,96.92056741655688,96.92056741655688,96.92056741655688,,,,,,,,,,,,,,,,,,,,,,,,,125,001,2010-10-16_14h18.11.740,eb_01,2022.2.4,119.96690227622942,
,,,0,0,0,0,42,0,42,0,,,,,,,,,,,,,,,,,,,,,,,,,,,,,,,,,,,,,,,,,,,,,,,,,,,,,,,,,,,125,001,2010-10-16_14h18.11.740,eb_01,2022.2.4,119.96690227622942,
2,stimuli/2.png,s,0,0,0,0,43,0,43,0,0,0,0,0,,,,,,,,,,,,,,,,,,96.92056741655688,96.92056741655688,96.92056741655688,96.92056741655688,s,1,0.831240138883004,97.76230564669822,97.76230564669822,97.76230564669822,98.77909058803925,98.77909058803925,98.77909058803925,,,,,,,,,,,,,,,,,,,,,,,,,125,001,2010-10-16_14h18.11.740,eb_01,2022.2.4,119.96690227622942,
,,,0,0,0,0,43,0,43,0,,,,,,,,,,,,,,,,,,,,,,,,,,,,,,,,,,,,,,,,,,,,,,,,,,,,,,,,,,,125,001,2010-10-16_14h18.11.740,eb_01,2022.2.4,119.96690227622942,
4,stimuli/4.png,l,0,0,0,0,44,0,44,0,0,0,0,0,,,,,,,,,,,,,,,,,,98.77909058803925,98.77909058803925,98.77909058803925,98.77909058803925,l,1,0.4607492411741987,99.26243996969424,99.26243996969424,99.26243996969424,,,,,,,,,,,,,,,,,,,,,,,,,,,,125,001,2010-10-16_14h18.11.740,eb_01,2022.2.4,119.96690227622942,
,,,0,0,0,0,44,0,44,0,,,,,,,,,,,,,,,,,,,,,,,,,,,,,,,,,,,,,,,,,,,,,,,,,,,,,,,,,,,125,001,2010-10-16_14h18.11.740,eb_01,2022.2.4,119.96690227622942,
2,stimuli/2.png,s,0,0,0,0,45,0,45,0,0,0,0,0,,,,,,,,,,,,,,,,,,100.27088450937299,100.27088450937299,100.27088450937299,100.27088450937299,s,1,0.4889893684303388,100.77091499618837,100.77091499618837,100.77091499618837,101.79600743757328,101.79600743757328,101.79600743757328,,,,,,,,,,,,,,,,,,,,,,,,,125,001,2010-10-16_14h18.11.740,eb_01,2022.2.4,119.96690227622942,
,,,0,0,0,0,45,0,45,0,,,,,,,,,,,,,,,,,,,,,,,,,,,,,,,,,,,,,,,,,,,,,,,,,,,,,,,,,,,125,001,2010-10-16_14h18.11.740,eb_01,2022.2.4,119.96690227622942,
1,stimuli/1.png,s,0,0,0,0,46,0,46,0,0,0,0,0,,,,,,,,,,,,,,,,,,101.79600743757328,101.79600743757328,101.79600743757328,101.79600743757328,s,1,0.6198830540524796,102.47104147108621,102.47104147108621,102.47104147108621,,,,,,,,,,,,,,,,,,,,,,,,,,,,125,001,2010-10-16_14h18.11.740,eb_01,2022.2.4,119.96690227622942,
,,,0,0,0,0,46,0,46,0,,,,,,,,,,,,,,,,,,,,,,,,,,,,,,,,,,,,,,,,,,,,,,,,,,,,,,,,,,,125,001,2010-10-16_14h18.11.740,eb_01,2022.2.4,119.96690227622942,
2,stimuli/2.png,s,0,0,0,0,47,0,47,0,0,0,0,0,,,,,,,,,,,,,,,,,,103.47115828681854,103.47115828681854,103.47115828681854,103.47115828681854,s,1,0.5847924539120868,104.07117760519031,104.07117760519031,104.07117760519031,105.0962631040311,105.0962631040311,105.0962631040311,,,,,,,,,,,,,,,,,,,,,,,,,125,001,2010-10-16_14h18.11.740,eb_01,2022.2.4,119.96690227622942,
,,,0,0,0,0,47,0,47,0,,,,,,,,,,,,,,,,,,,,,,,,,,,,,,,,,,,,,,,,,,,,,,,,,,,,,,,,,,,125,001,2010-10-16_14h18.11.740,eb_01,2022.2.4,119.96690227622942,
1,stimuli/1.png,s,0,0,0,0,48,0,48,0,0,0,0,0,,,,,,,,,,,,,,,,,,105.0962631040311,105.0962631040311,105.0962631040311,105.0962631040311,s,1,0.49570159424911253,105.62135343247792,105.62135343247792,105.62135343247792,,,,,,,,,,,,,,,,,,,,,,,,,,,,125,001,2010-10-16_14h18.11.740,eb_01,2022.2.4,119.96690227622942,
,,,0,0,0,0,48,0,48,0,,,,,,,,,,,,,,,,,,,,,,,,,,,,,,,,,,,,,,,,,,,,,,,,,,,,,,,,,,,125,001,2010-10-16_14h18.11.740,eb_01,2022.2.4,119.96690227622942,
4,stimuli/4.png,l,0,0,0,0,49,0,49,0,0,0,0,0,,,,,,,,,,,,,,,,,,106.6297246227623,106.6297246227623,106.6297246227623,106.6297246227623,l,1,0.6022680267633405,107.25479925502441,107.25479925502441,107.25479925502441,,,,,,,,,,,,,,,,,,,,,,,,,,,,125,001,2010-10-16_14h18.11.740,eb_01,2022.2.4,119.96690227622942,
,,,0,0,0,0,49,0,49,0,,,,,,,,,,,,,,,,,,,,,,,,,,,,,,,,,,,,,,,,,,,,,,,,,,,,,,,,,,,125,001,2010-10-16_14h18.11.740,eb_01,2022.2.4,119.96690227622942,
1,stimuli/1.png,s,0,0,0,0,50,0,50,0,0,0,0,0,,,,,,,,,,,,,,,,,,108.27988656496746,108.27988656496746,108.27988656496746,108.27988656496746,s,1,0.48715261463075876,108.79660419389256,108.79660419389256,108.79660419389256,,,,,,,,,,,,,,,,,,,,,,,,,,,,125,001,2010-10-16_14h18.11.740,eb_01,2022.2.4,119.96690227622942,
,,,0,0,0,0,50,0,50,0,,,,,,,,,,,,,,,,,,,,,,,,,,,,,,,,,,,,,,,,,,,,,,,,,,,,,,,,,,,125,001,2010-10-16_14h18.11.740,eb_01,2022.2.4,119.96690227622942,
4,stimuli/4.png,l,0,0,0,0,51,0,51,0,0,0,0,0,,,,,,,,,,,,,,,,,,109.80502760413219,109.80502760413219,109.80502760413219,109.80502760413219,l,1,0.7860306403017603,110.61344648661907,110.61344648661907,110.61344648661907,,,,,,,,,,,,,,,,,,,,,,,,,,,,125,001,2010-10-16_14h18.11.740,eb_01,2022.2.4,119.96690227622942,
,,,0,0,0,0,51,0,51,0,,,,,,,,,,,,,,,,,,,,,,,,,,,,,,,,,,,,,,,,,,,,,,,,,,,,,,,,,,,125,001,2010-10-16_14h18.11.740,eb_01,2022.2.4,119.96690227622942,
1,stimuli/1.png,s,0,0,0,0,52,0,52,0,0,0,0,0,,,,,,,,,,,,,,,,,,111.63852957068593,111.63852957068593,111.63852957068593,111.63852957068593,s,1,0.8725741926464252,112.53860322193941,112.53860322193941,112.53860322193941,,,,,,,,,,,,,,,,,,,,,,,,,,,,125,001,2010-10-16_14h18.11.740,eb_01,2022.2.4,119.96690227622942,
,,,0,0,0,0,52,0,52,0,,,,,,,,,,,,,,,,,,,,,,,,,,,,,,,,,,,,,,,,,,,,,,,,,,,,,,,,,,,125,001,2010-10-16_14h18.11.740,eb_01,2022.2.4,119.96690227622942,
2,stimuli/2.png,s,0,0,0,0,53,0,53,0,0,0,0,0,,,,,,,,,,,,,,,,,,113.53868351387791,113.53868351387791,113.53868351387791,113.53868351387791,s,1,0.4764529578387737,114.03036152504501,114.03036152504501,114.03036152504501,115.03880998879322,115.03880998879322,115.03880998879322,,,,,,,,,,,,,,,,,,,,,,,,,125,001,2010-10-16_14h18.11.740,eb_01,2022.2.4,119.96690227622942,
,,,0,0,0,0,53,0,53,0,,,,,,,,,,,,,,,,,,,,,,,,,,,,,,,,,,,,,,,,,,,,,,,,,,,,,,,,,,,125,001,2010-10-16_14h18.11.740,eb_01,2022.2.4,119.96690227622942,
3,stimuli/3.png,l,0,0,0,0,54,0,54,0,0,0,0,0,,,,,,,,,,,,,,,,,,115.03880998879322,115.03880998879322,115.03880998879322,115.03880998879322,l,1,0.4723701424372848,115.52216299265274,115.52216299265274,115.52216299265274,116.53893586000777,116.53893586000777,116.53893586000777,,,,,,,,,,,,,,,,,,,,,,,,,125,001,2010-10-16_14h18.11.740,eb_01,2022.2.4,119.96690227622942,
,,,0,0,0,0,54,0,54,0,,,,,,,,,,,,,,,,,,,,,,,,,,,,,,,,,,,,,,,,,,,,,,,,,,,,,,,,,,,125,001,2010-10-16_14h18.11.740,eb_01,2022.2.4,119.96690227622942,
4,stimuli/4.png,l,0,0,0,0,55,0,55,0,0,0,0,0,,,,,,,,,,,,,,,,,,116.53893586000777,116.53893586000777,116.53893586000777,116.53893586000777,l,1,0.9642857090802863,117.52234953560401,117.52234953560401,117.52234953560401,,,,,,,,,,,,,,,,,,,,,,,,,,,,125,001,2010-10-16_14h18.11.740,eb_01,2022.2.4,119.96690227622942,
,,,0,0,0,0,55,0,55,0,,,,,,,,,,,,,,,,,,,,,,,,,,,,,,,,,,,,,,,,,,,,,,,,,,,,,,,,,,,125,001,2010-10-16_14h18.11.740,eb_01,2022.2.4,119.96690227622942,
2,stimuli/2.png,s,0,0,0,0,56,0,56,0,0,0,0,0,,,,,,,,,,,,,,,,,,118.53074215719244,118.53074215719244,118.53074215719244,118.53074215719244,s,1,0.5964891194016673,119.1391559082549,119.1391559082549,119.1391559082549,120.1559251534054,120.1559251534054,120.1559251534054,,,,,,,,,,,,,,,,,,,,,,,,,125,001,2010-10-16_14h18.11.740,eb_01,2022.2.4,119.96690227622942,
,,,0,0,0,0,56,0,56,0,,,,,,,,,,,,,,,,,,,,,,,,,,,,,,,,,,,,,,,,,,,,,,,,,,,,,,,,,,,125,001,2010-10-16_14h18.11.740,eb_01,2022.2.4,119.96690227622942,
4,stimuli/4.png,l,0,0,0,0,57,0,57,0,0,0,0,0,,,,,,,,,,,,,,,,,,120.1559251534054,120.1559251534054,120.1559251534054,120.1559251534054,l,1,0.4754704379301984,120.65594990504906,120.65594990504906,120.65594990504906,,,,,,,,,,,,,,,,,,,,,,,,,,,,125,001,2010-10-16_14h18.11.740,eb_01,2022.2.4,119.96690227622942,
,,,0,0,0,0,57,0,57,0,,,,,,,,,,,,,,,,,,,,,,,,,,,,,,,,,,,,,,,,,,,,,,,,,,,,,,,,,,,125,001,2010-10-16_14h18.11.740,eb_01,2022.2.4,119.96690227622942,
1,stimuli/1.png,s,0,0,0,0,58,0,58,0,0,0,0,0,,,,,,,,,,,,,,,,,,121.68106317406637,121.68106317406637,121.68106317406637,121.68106317406637,s,1,0.5662208658177406,122.27272850755253,122.27272850755253,122.27272850755253,,,,,,,,,,,,,,,,,,,,,,,,,,,,125,001,2010-10-16_14h18.11.740,eb_01,2022.2.4,119.96690227622942,
,,,0,0,0,0,58,0,58,0,,,,,,,,,,,,,,,,,,,,,,,,,,,,,,,,,,,,,,,,,,,,,,,,,,,,,,,,,,,125,001,2010-10-16_14h18.11.740,eb_01,2022.2.4,119.96690227622942,
2,stimuli/2.png,s,0,0,0,0,59,0,59,0,0,0,0,0,,,,,,,,,,,,,,,,,,123.2728118179948,123.2728118179948,123.2728118179948,123.2728118179948,s,1,0.6856297842750791,123.98123130420572,123.98123130420572,123.98123130420572,,,,,,,,,,,,,,,,,,,,,,,,,,,,125,001,2010-10-16_14h18.11.740,eb_01,2022.2.4,119.96690227622942,
,,,0,0,0,0,59,0,59,0,,,,,,,,,,,,,,,,,,,,,,,,,,,,,,,,,,,,,,,,,,,,,,,,,,,,,,,,,,,125,001,2010-10-16_14h18.11.740,eb_01,2022.2.4,119.96690227622942,
1,stimuli/1.png,s,0,0,0,0,60,0,60,0,0,0,0,0,,,,,,,,,,,,,,,,,,125.0063255566929,125.0063255566929,125.0063255566929,125.0063255566929,s,1,1.1520876717404462,126.18977153016021,126.18977153016021,126.18977153016021,,,,,,,,,,,,,,,,,,,,,,,,,,,,125,001,2010-10-16_14h18.11.740,eb_01,2022.2.4,119.96690227622942,
,,,0,0,0,0,60,0,60,0,,,,,,,,,,,,,,,,,,,,,,,,,,,,,,,,,,,,,,,,,,,,,,,,,,,,,,,,,,,125,001,2010-10-16_14h18.11.740,eb_01,2022.2.4,119.96690227622942,
4,stimuli/4.png,l,0,0,0,0,61,0,61,0,0,0,0,0,,,,,,,,,,,,,,,,,,127.19815992587246,127.19815992587246,127.19815992587246,127.19815992587246,l,1,0.8242640966782346,128.03992834093515,128.03992834093515,128.03992834093515,,,,,,,,,,,,,,,,,,,,,,,,,,,,125,001,2010-10-16_14h18.11.740,eb_01,2022.2.4,119.96690227622942,
,,,0,0,0,0,61,0,61,0,,,,,,,,,,,,,,,,,,,,,,,,,,,,,,,,,,,,,,,,,,,,,,,,,,,,,,,,,,,125,001,2010-10-16_14h18.11.740,eb_01,2022.2.4,119.96690227622942,
2,stimuli/2.png,s,0,0,0,0,62,0,62,0,0,0,0,0,,,,,,,,,,,,,,,,,,129.0483025497233,129.0483025497233,129.0483025497233,129.0483025497233,s,1,0.5741537707217503,129.63168754961225,129.63168754961225,129.63168754961225,130.6568189295649,130.6568189295649,130.6568189295649,,,,,,,,,,,,,,,,,,,,,,,,,125,001,2010-10-16_14h18.11.740,eb_01,2022.2.4,119.96690227622942,
,,,0,0,0,0,62,0,62,0,,,,,,,,,,,,,,,,,,,,,,,,,,,,,,,,,,,,,,,,,,,,,,,,,,,,,,,,,,,125,001,2010-10-16_14h18.11.740,eb_01,2022.2.4,119.96690227622942,
1,stimuli/1.png,s,0,0,0,0,63,0,63,0,0,0,0,0,,,,,,,,,,,,,,,,,,130.6568189295649,130.6568189295649,130.6568189295649,130.6568189295649,s,1,0.5176831753633451,131.20686888566706,131.20686888566706,131.20686888566706,,,,,,,,,,,,,,,,,,,,,,,,,,,,125,001,2010-10-16_14h18.11.740,eb_01,2022.2.4,119.96690227622942,
,,,0,0,0,0,63,0,63,0,,,,,,,,,,,,,,,,,,,,,,,,,,,,,,,,,,,,,,,,,,,,,,,,,,,,,,,,,,,125,001,2010-10-16_14h18.11.740,eb_01,2022.2.4,119.96690227622942,
4,stimuli/4.png,l,0,0,0,0,64,0,64,0,0,0,0,0,,,,,,,,,,,,,,,,,,132.2152856551984,132.2152856551984,132.2152856551984,132.2152856551984,l,1,0.5992459102417342,132.83200449150172,132.83200449150172,132.83200449150172,,,,,,,,,,,,,,,,,,,,,,,,,,,,125,001,2010-10-16_14h18.11.740,eb_01,2022.2.4,119.96690227622942,
,,,0,0,0,0,64,0,64,0,,,,,,,,,,,,,,,,,,,,,,,,,,,,,,,,,,,,,,,,,,,,,,,,,,,,,,,,,,,125,001,2010-10-16_14h18.11.740,eb_01,2022.2.4,119.96690227622942,
2,stimuli/2.png,s,0,0,0,0,65,0,65,0,0,0,0,0,,,,,,,,,,,,,,,,,,133.84037719105254,133.84037719105254,133.84037719105254,133.84037719105254,s,1,1.1822037932288367,135.03219224186614,135.03219224186614,135.03219224186614,136.04062289648573,136.04062289648573,136.04062289648573,,,,,,,,,,,,,,,,,,,,,,,,,125,001,2010-10-16_14h18.11.740,eb_01,2022.2.4,119.96690227622942,
,,,0,0,0,0,65,0,65,0,,,,,,,,,,,,,,,,,,,,,,,,,,,,,,,,,,,,,,,,,,,,,,,,,,,,,,,,,,,125,001,2010-10-16_14h18.11.740,eb_01,2022.2.4,119.96690227622942,
3,stimuli/3.png,l,0,0,0,0,66,0,66,0,0,0,0,0,,,,,,,,,,,,,,,,,,136.04062289648573,136.04062289648573,136.04062289648573,136.04062289648573,l,1,0.5339534634258598,136.5906203307677,136.5906203307677,136.5906203307677,137.59904645764618,137.59904645764618,137.59904645764618,,,,,,,,,,,,,,,,,,,,,,,,,125,001,2010-10-16_14h18.11.740,eb_01,2022.2.4,119.96690227622942,
,,,0,0,0,0,66,0,66,0,,,,,,,,,,,,,,,,,,,,,,,,,,,,,,,,,,,,,,,,,,,,,,,,,,,,,,,,,,,125,001,2010-10-16_14h18.11.740,eb_01,2022.2.4,119.96690227622942,
2,stimuli/2.png,s,0,0,0,0,67,0,67,0,0,0,0,0,,,,,,,,,,,,,,,,,,137.59904645764618,137.59904645764618,137.59904645764618,137.59904645764618,s,1,0.9916103270370513,138.59914908645442,138.59914908645442,138.59914908645442,139.61591621866683,139.61591621866683,139.61591621866683,,,,,,,,,,,,,,,,,,,,,,,,,125,001,2010-10-16_14h18.11.740,eb_01,2022.2.4,119.96690227622942,
,,,0,0,0,0,67,0,67,0,,,,,,,,,,,,,,,,,,,,,,,,,,,,,,,,,,,,,,,,,,,,,,,,,,,,,,,,,,,125,001,2010-10-16_14h18.11.740,eb_01,2022.2.4,119.96690227622942,
4,stimuli/4.png,l,0,0,0,0,68,0,68,0,0,0,0,0,,,,,,,,,,,,,,,,,,139.61591621866683,139.61591621866683,139.61591621866683,139.61591621866683,l,1,0.5577431226847693,140.19092218019068,140.19092218019068,140.19092218019068,,,,,,,,,,,,,,,,,,,,,,,,,,,,125,001,2010-10-16_14h18.11.740,eb_01,2022.2.4,119.96690227622942,
,,,0,0,0,0,68,0,68,0,,,,,,,,,,,,,,,,,,,,,,,,,,,,,,,,,,,,,,,,,,,,,,,,,,,,,,,,,,,125,001,2010-10-16_14h18.11.740,eb_01,2022.2.4,119.96690227622942,
3,stimuli/3.png,l,0,0,0,0,69,0,69,0,0,0,0,0,,,,,,,,,,,,,,,,,,141.1993839252973,141.1993839252973,141.1993839252973,141.1993839252973,l,1,0.886335810093442,142.09941471394268,142.09941471394268,142.09941471394268,143.10786408322747,143.10786408322747,143.10786408322747,,,,,,,,,,,,,,,,,,,,,,,,,125,001,2010-10-16_14h18.11.740,eb_01,2022.2.4,119.96690227622942,
,,,0,0,0,0,69,0,69,0,,,,,,,,,,,,,,,,,,,,,,,,,,,,,,,,,,,,,,,,,,,,,,,,,,,,,,,,,,,125,001,2010-10-16_14h18.11.740,eb_01,2022.2.4,119.96690227622942,
8,stimuli/8.png,l,0,0,0,0,70,0,70,0,0,0,0,0,,,,,,,,,,,,,,,,,,143.10786408322747,143.10786408322747,143.10786408322747,143.10786408322747,l,1,1.4338888676429633,144.56634076990304,144.56634076990304,144.56634076990304,,,,,,,,,,,,,,,,,,,,,,,,,,,,125,001,2010-10-16_14h18.11.740,eb_01,2022.2.4,119.96690227622942,
,,,0,0,0,0,70,0,70,0,,,,,,,,,,,,,,,,,,,,,,,,,,,,,,,,,,,,,,,,,,,,,,,,,,,,,,,,,,,125,001,2010-10-16_14h18.11.740,eb_01,2022.2.4,119.96690227622942,
6,stimuli/6.png,s,0,0,0,0,71,0,71,0,0,0,0,0,,,,,,,,,,,,,,,,,,145.59141238365555,145.59141238365555,145.59141238365555,145.59141238365555,s,1,0.6463887544523459,146.26647026330465,146.26647026330465,146.26647026330465,,,,,,,,,,,,,,,,,,,,,,,,,,,,125,001,2010-10-16_14h18.11.740,eb_01,2022.2.4,119.96690227622942,
,,,0,0,0,0,71,0,71,0,,,,,,,,,,,,,,,,,,,,,,,,,,,,,,,,,,,,,,,,,,,,,,,,,,,,,,,,,,,125,001,2010-10-16_14h18.11.740,eb_01,2022.2.4,119.96690227622942,
5,stimuli/5.png,s,0,0,0,0,72,0,72,0,0,0,0,0,,,,,,,,,,,,,,,,,,147.26653757572058,147.26653757572058,147.26653757572058,147.26653757572058,s,1,0.6112996636074968,147.89992453763261,147.89992453763261,147.89992453763261,,,,,,,,,,,,,,,,,,,,,,,,,,,,125,001,2010-10-16_14h18.11.740,eb_01,2022.2.4,119.96690227622942,
,,,0,0,0,0,72,0,72,0,,,,,,,,,,,,,,,,,,,,,,,,,,,,,,,,,,,,,,,,,,,,,,,,,,,,,,,,,,,125,001,2010-10-16_14h18.11.740,eb_01,2022.2.4,119.96690227622942,
9,stimuli/9.png,l,0,0,0,0,73,0,73,0,0,0,0,0,,,,,,,,,,,,,,,,,,148.91669710315182,148.91669710315182,148.91669710315182,148.91669710315182,l,1,0.5691548422910273,149.51671159191756,149.51671159191756,149.51671159191756,,,,,,,,,,,,,,,,,,,,,,,,,,,,125,001,2010-10-16_14h18.11.740,eb_01,2022.2.4,119.96690227622942,
,,,0,0,0,0,73,0,73,0,,,,,,,,,,,,,,,,,,,,,,,,,,,,,,,,,,,,,,,,,,,,,,,,,,,,,,,,,,,125,001,2010-10-16_14h18.11.740,eb_01,2022.2.4,119.96690227622942,
5,stimuli/5.png,s,0,0,0,0,74,0,74,0,0,0,0,0,,,,,,,,,,,,,,,,,,150.51681633366388,150.51681633366388,150.51681633366388,150.51681633366388,s,1,0.5770726547343656,151.11690296445158,151.11690296445158,151.11690296445158,,,,,,,,,,,,,,,,,,,,,,,,,,,,125,001,2010-10-16_14h18.11.740,eb_01,2022.2.4,119.96690227622942,
,,,0,0,0,0,74,0,74,0,,,,,,,,,,,,,,,,,,,,,,,,,,,,,,,,,,,,,,,,,,,,,,,,,,,,,,,,,,,125,001,2010-10-16_14h18.11.740,eb_01,2022.2.4,119.96690227622942,
6,stimuli/6.png,s,0,0,0,0,75,0,75,0,0,0,0,0,,,,,,,,,,,,,,,,,,152.14197940783924,152.14197940783924,152.14197940783924,152.14197940783924,s,1,0.5599436050397344,152.7336996779195,152.7336996779195,152.7336996779195,,,,,,,,,,,,,,,,,,,,,,,,,,,,125,001,2010-10-16_14h18.11.740,eb_01,2022.2.4,119.96690227622942,
,,,0,0,0,0,75,0,75,0,,,,,,,,,,,,,,,,,,,,,,,,,,,,,,,,,,,,,,,,,,,,,,,,,,,,,,,,,,,125,001,2010-10-16_14h18.11.740,eb_01,2022.2.4,119.96690227622942,
8,stimuli/8.png,l,0,0,0,0,76,0,76,0,0,0,0,0,,,,,,,,,,,,,,,,,,153.73378057355876,153.73378057355876,153.73378057355876,153.73378057355876,l,1,0.5762105727335438,154.33382494543912,154.33382494543912,154.33382494543912,,,,,,,,,,,,,,,,,,,,,,,,,,,,125,001,2010-10-16_14h18.11.740,eb_01,2022.2.4,119.96690227622942,
,,,0,0,0,0,76,0,76,0,,,,,,,,,,,,,,,,,,,,,,,,,,,,,,,,,,,,,,,,,,,,,,,,,,,,,,,,,,,125,001,2010-10-16_14h18.11.740,eb_01,2022.2.4,119.96690227622942,
6,stimuli/6.png,s,0,0,0,0,77,0,77,0,0,0,0,0,,,,,,,,,,,,,,,,,,155.3589104442799,155.3589104442799,155.3589104442799,155.3589104442799,s,1,0.6540554281673394,156.0423023867188,156.0423023867188,156.0423023867188,,,,,,,,,,,,,,,,,,,,,,,,,,,,125,001,2010-10-16_14h18.11.740,eb_01,2022.2.4,119.96690227622942,
,,,0,0,0,0,77,0,77,0,,,,,,,,,,,,,,,,,,,,,,,,,,,,,,,,,,,,,,,,,,,,,,,,,,,,,,,,,,,125,001,2010-10-16_14h18.11.740,eb_01,2022.2.4,119.96690227622942,
8,stimuli/8.png,l,0,0,0,0,78,0,78,0,0,0,0,0,,,,,,,,,,,,,,,,,,157.04239082860295,157.04239082860295,157.04239082860295,157.04239082860295,l,1,0.45875129976775497,157.52576043416047,157.52576043416047,157.52576043416047,,,,,,,,,,,,,,,,,,,,,,,,,,,,125,001,2010-10-16_14h18.11.740,eb_01,2022.2.4,119.96690227622942,
,,,0,0,0,0,78,0,78,0,,,,,,,,,,,,,,,,,,,,,,,,,,,,,,,,,,,,,,,,,,,,,,,,,,,,,,,,,,,125,001,2010-10-16_14h18.11.740,eb_01,2022.2.4,119.96690227622942,
6,stimuli/6.png,s,0,0,0,0,79,0,79,0,0,0,0,0,,,,,,,,,,,,,,,,,,158.55083023686893,158.55083023686893,158.55083023686893,158.55083023686893,s,1,0.4622213608236052,159.04257224011235,159.04257224011235,159.04257224011235,,,,,,,,,,,,,,,,,,,,,,,,,,,,125,001,2010-10-16_14h18.11.740,eb_01,2022.2.4,119.96690227622942,
,,,0,0,0,0,79,0,79,0,,,,,,,,,,,,,,,,,,,,,,,,,,,,,,,,,,,,,,,,,,,,,,,,,,,,,,,,,,,125,001,2010-10-16_14h18.11.740,eb_01,2022.2.4,119.96690227622942,
9,stimuli/9.png,l,0,0,0,0,80,0,80,0,0,0,0,0,,,,,,,,,,,,,,,,,,160.05099112261087,160.05099112261087,160.05099112261087,160.05099112261087,l,1,0.602089030056959,160.68437717895722,160.68437717895722,160.68437717895722,,,,,,,,,,,,,,,,,,,,,,,,,,,,125,001,2010-10-16_14h18.11.740,eb_01,2022.2.4,119.96690227622942,
,,,0,0,0,0,80,0,80,0,,,,,,,,,,,,,,,,,,,,,,,,,,,,,,,,,,,,,,,,,,,,,,,,,,,,,,,,,,,125,001,2010-10-16_14h18.11.740,eb_01,2022.2.4,119.96690227622942,
5,stimuli/5.png,s,0,0,0,0,81,0,81,0,0,0,0,0,,,,,,,,,,,,,,,,,,161.68446562084137,161.68446562084137,161.68446562084137,161.68446562084137,s,1,0.4326579256739933,162.13448871232686,162.13448871232686,162.13448871232686,,,,,,,,,,,,,,,,,,,,,,,,,,,,125,001,2010-10-16_14h18.11.740,eb_01,2022.2.4,119.96690227622942,
,,,0,0,0,0,81,0,81,0,,,,,,,,,,,,,,,,,,,,,,,,,,,,,,,,,,,,,,,,,,,,,,,,,,,,,,,,,,,125,001,2010-10-16_14h18.11.740,eb_01,2022.2.4,119.96690227622942,
6,stimuli/6.png,s,0,0,0,0,82,0,82,0,0,0,0,0,,,,,,,,,,,,,,,,,,163.15955670393305,163.15955670393305,163.15955670393305,163.15955670393305,s,1,0.6215897107031196,163.8096117914538,163.8096117914538,163.8096117914538,,,,,,,,,,,,,,,,,,,,,,,,,,,,125,001,2010-10-16_14h18.11.740,eb_01,2022.2.4,119.96690227622942,
,,,0,0,0,0,82,0,82,0,,,,,,,,,,,,,,,,,,,,,,,,,,,,,,,,,,,,,,,,,,,,,,,,,,,,,,,,,,,125,001,2010-10-16_14h18.11.740,eb_01,2022.2.4,119.96690227622942,
5,stimuli/5.png,s,0,0,0,0,83,0,83,0,0,0,0,0,,,,,,,,,,,,,,,,,,164.8096854427131,164.8096854427131,164.8096854427131,164.8096854427131,s,1,0.6034835744067095,165.43473441776587,165.43473441776587,165.43473441776587,,,,,,,,,,,,,,,,,,,,,,,,,,,,125,001,2010-10-16_14h18.11.740,eb_01,2022.2.4,119.96690227622942,
,,,0,0,0,0,83,0,83,0,,,,,,,,,,,,,,,,,,,,,,,,,,,,,,,,,,,,,,,,,,,,,,,,,,,,,,,,,,,125,001,2010-10-16_14h18.11.740,eb_01,2022.2.4,119.96690227622942,
6,stimuli/6.png,s,0,0,0,0,84,0,84,0,0,0,0,0,,,,,,,,,,,,,,,,,,166.4598380276002,166.4598380276002,166.4598380276002,166.4598380276002,s,1,0.44936981942737475,166.9348678352253,166.9348678352253,166.9348678352253,,,,,,,,,,,,,,,,,,,,,,,,,,,,125,001,2010-10-16_14h18.11.740,eb_01,2022.2.4,119.96690227622942,
,,,0,0,0,0,84,0,84,0,,,,,,,,,,,,,,,,,,,,,,,,,,,,,,,,,,,,,,,,,,,,,,,,,,,,,,,,,,,125,001,2010-10-16_14h18.11.740,eb_01,2022.2.4,119.96690227622942,
9,stimuli/9.png,l,0,0,0,0,85,0,85,0,0,0,0,0,,,,,,,,,,,,,,,,,,167.94334527649335,167.94334527649335,167.94334527649335,167.94334527649335,l,1,0.7818835309590213,168.75169926136732,168.75169926136732,168.75169926136732,,,,,,,,,,,,,,,,,,,,,,,,,,,,125,001,2010-10-16_14h18.11.740,eb_01,2022.2.4,119.96690227622942,
,,,0,0,0,0,85,0,85,0,,,,,,,,,,,,,,,,,,,,,,,,,,,,,,,,,,,,,,,,,,,,,,,,,,,,,,,,,,,125,001,2010-10-16_14h18.11.740,eb_01,2022.2.4,119.96690227622942,
5,stimuli/5.png,s,0,0,0,0,86,0,86,0,0,0,0,0,,,,,,,,,,,,,,,,,,169.75181728450116,169.75181728450116,169.75181728450116,169.75181728450116,s,1,0.49249112367397174,170.2685288764187,170.2685288764187,170.2685288764187,,,,,,,,,,,,,,,,,,,,,,,,,,,,125,001,2010-10-16_14h18.11.740,eb_01,2022.2.4,119.96690227622942,
,,,0,0,0,0,86,0,86,0,,,,,,,,,,,,,,,,,,,,,,,,,,,,,,,,,,,,,,,,,,,,,,,,,,,,,,,,,,,125,001,2010-10-16_14h18.11.740,eb_01,2022.2.4,119.96690227622942,
6,stimuli/6.png,s,0,0,0,0,87,0,87,0,0,0,0,0,,,,,,,,,,,,,,,,,,171.29360290500335,171.29360290500335,171.29360290500335,171.29360290500335,s,1,0.5267099826305639,171.85196217222256,171.85196217222256,171.85196217222256,,,,,,,,,,,,,,,,,,,,,,,,,,,,125,001,2010-10-16_14h18.11.740,eb_01,2022.2.4,119.96690227622942,
,,,0,0,0,0,87,0,87,0,,,,,,,,,,,,,,,,,,,,,,,,,,,,,,,,,,,,,,,,,,,,,,,,,,,,,,,,,,,125,001,2010-10-16_14h18.11.740,eb_01,2022.2.4,119.96690227622942,
8,stimuli/8.png,l,0,0,0,0,88,0,88,0,0,0,0,0,,,,,,,,,,,,,,,,,,172.86039916568552,172.86039916568552,172.86039916568552,172.86039916568552,l,1,0.6479484104784206,173.52709249572945,173.52709249572945,173.52709249572945,,,,,,,,,,,,,,,,,,,,,,,,,,,,125,001,2010-10-16_14h18.11.740,eb_01,2022.2.4,119.96690227622942,
,,,0,0,0,0,88,0,88,0,,,,,,,,,,,,,,,,,,,,,,,,,,,,,,,,,,,,,,,,,,,,,,,,,,,,,,,,,,,125,001,2010-10-16_14h18.11.740,eb_01,2022.2.4,119.96690227622942,
3,stimuli/3.png,l,0,0,0,0,89,0,89,0,0,0,0,0,,,,,,,,,,,,,,,,,,174.5355666166579,174.5355666166579,174.5355666166579,174.5355666166579,l,1,1.1488156238920055,175.69399198889732,175.69399198889732,175.69399198889732,176.71073044542572,176.71073044542572,176.71073044542572,,,,,,,,,,,,,,,,,,,,,,,,,125,001,2010-10-16_14h18.11.740,eb_01,2022.2.4,119.96690227622942,
,,,0,0,0,0,89,0,89,0,,,,,,,,,,,,,,,,,,,,,,,,,,,,,,,,,,,,,,,,,,,,,,,,,,,,,,,,,,,125,001,2010-10-16_14h18.11.740,eb_01,2022.2.4,119.96690227622942,
4,stimuli/4.png,l,0,0,0,0,90,0,90,0,0,0,0,0,,,,,,,,,,,,,,,,,,176.71073044542572,176.71073044542572,176.71073044542572,176.71073044542572,l,1,0.8217019987059757,177.55247531624627,177.55247531624627,177.55247531624627,,,,,,,,,,,,,,,,,,,,,,,,,,,,125,001,2010-10-16_14h18.11.740,eb_01,2022.2.4,119.96690227622942,
,,,0,0,0,0,90,0,90,0,,,,,,,,,,,,,,,,,,,,,,,,,,,,,,,,,,,,,,,,,,,,,,,,,,,,,,,,,,,125,001,2010-10-16_14h18.11.740,eb_01,2022.2.4,119.96690227622942,
1,stimuli/1.png,s,0,0,0,0,91,0,91,0,0,0,0,0,,,,,,,,,,,,,,,,,,178.57757137983572,178.57757137983572,178.57757137983572,178.57757137983572,s,1,0.5788728847401217,179.18591449811356,179.18591449811356,179.18591449811356,,,,,,,,,,,,,,,,,,,,,,,,,,,,125,001,2010-10-16_14h18.11.740,eb_01,2022.2.4,119.96690227622942,
,,,0,0,0,0,91,0,91,0,,,,,,,,,,,,,,,,,,,,,,,,,,,,,,,,,,,,,,,,,,,,,,,,,,,,,,,,,,,125,001,2010-10-16_14h18.11.740,eb_01,2022.2.4,119.96690227622942,
2,stimuli/2.png,s,0,0,0,0,92,0,92,0,0,0,0,0,,,,,,,,,,,,,,,,,,180.18602980460855,180.18602980460855,180.18602980460855,180.18602980460855,s,1,0.6104433167492971,180.8110971924907,180.8110971924907,180.8110971924907,181.82781934915693,181.82781934915693,181.82781934915693,,,,,,,,,,,,,,,,,,,,,,,,,125,001,2010-10-16_14h18.11.740,eb_01,2022.2.4,119.96690227622942,
,,,0,0,0,0,92,0,92,0,,,,,,,,,,,,,,,,,,,,,,,,,,,,,,,,,,,,,,,,,,,,,,,,,,,,,,,,,,,125,001,2010-10-16_14h18.11.740,eb_01,2022.2.4,119.96690227622942,
4,stimuli/4.png,l,0,0,0,0,93,0,93,0,0,0,0,0,,,,,,,,,,,,,,,,,,181.82781934915693,181.82781934915693,181.82781934915693,181.82781934915693,l,1,0.6327104474767111,182.47789043467492,182.47789043467492,182.47789043467492,,,,,,,,,,,,,,,,,,,,,,,,,,,,125,001,2010-10-16_14h18.11.740,eb_01,2022.2.4,119.96690227622942,
,,,0,0,0,0,93,0,93,0,,,,,,,,,,,,,,,,,,,,,,,,,,,,,,,,,,,,,,,,,,,,,,,,,,,,,,,,,,,125,001,2010-10-16_14h18.11.740,eb_01,2022.2.4,119.96690227622942,
3,stimuli/3.png,l,0,0,0,0,94,0,94,0,0,0,0,0,,,,,,,,,,,,,,,,,,183.48627460448188,183.48627460448188,183.48627460448188,183.48627460448188,l,1,1.0782818635343574,184.57803562426125,184.57803562426125,184.57803562426125,185.58648921945132,185.58648921945132,185.58648921945132,,,,,,,,,,,,,,,,,,,,,,,,,125,001,2010-10-16_14h18.11.740,eb_01,2022.2.4,119.96690227622942,
,,,0,0,0,0,94,0,94,0,,,,,,,,,,,,,,,,,,,,,,,,,,,,,,,,,,,,,,,,,,,,,,,,,,,,,,,,,,,125,001,2010-10-16_14h18.11.740,eb_01,2022.2.4,119.96690227622942,
8,stimuli/8.png,l,0,0,0,0,95,0,95,0,0,0,0,0,,,,,,,,,,,,,,,,,,185.58648921945132,185.58648921945132,185.58648921945132,185.58648921945132,l,1,0.6651326986029744,186.26989142474486,186.26989142474486,186.26989142474486,,,,,,,,,,,,,,,,,,,,,,,,,,,,125,001,2010-10-16_14h18.11.740,eb_01,2022.2.4,119.96690227622942,
,,,0,0,0,0,95,0,95,0,,,,,,,,,,,,,,,,,,,,,,,,,,,,,,,,,,,,,,,,,,,,,,,,,,,,,,,,,,,125,001,2010-10-16_14h18.11.740,eb_01,2022.2.4,119.96690227622942,
6,stimuli/6.png,s,0,0,0,0,96,0,96,0,0,0,0,0,,,,,,,,,,,,,,,,,,187.29497903655283,187.29497903655283,187.29497903655283,187.29497903655283,s,1,0.7567080809967592,188.0783661493915,188.0783661493915,188.0783661493915,,,,,,,,,,,,,,,,,,,,,,,,,,,,125,001,2010-10-16_14h18.11.740,eb_01,2022.2.4,119.96690227622942,
,,,0,0,0,0,96,0,96,0,,,,,,,,,,,,,,,,,,,,,,,,,,,,,,,,,,,,,,,,,,,,,,,,,,,,,,,,,,,125,001,2010-10-16_14h18.11.740,eb_01,2022.2.4,119.96690227622942,
5,stimuli/5.png,s,0,0,0,0,97,0,97,0,0,0,0,0,,,,,,,,,,,,,,,,,,189.07846666526166,189.07846666526166,189.07846666526166,189.07846666526166,s,1,0.6532340958656278,189.75347866376978,189.75347866376978,189.75347866376978,,,,,,,,,,,,,,,,,,,,,,,,,,,,125,001,2010-10-16_14h18.11.740,eb_01,2022.2.4,119.96690227622942,
,,,0,0,0,0,97,0,97,0,,,,,,,,,,,,,,,,,,,,,,,,,,,,,,,,,,,,,,,,,,,,,,,,,,,,,,,,,,,125,001,2010-10-16_14h18.11.740,eb_01,2022.2.4,119.96690227622942,
6,stimuli/6.png,s,0,0,0,0,98,0,98,0,0,0,0,0,,,,,,,,,,,,,,,,,,190.7785623515083,190.7785623515083,190.7785623515083,190.7785623515083,s,1,0.6011206970724743,191.4119490115845,191.4119490115845,191.4119490115845,,,,,,,,,,,,,,,,,,,,,,,,,,,,125,001,2010-10-16_14h18.11.740,eb_01,2022.2.4,119.96690227622942,
,,,0,0,0,0,98,0,98,0,,,,,,,,,,,,,,,,,,,,,,,,,,,,,,,,,,,,,,,,,,,,,,,,,,,,,,,,,,,125,001,2010-10-16_14h18.11.740,eb_01,2022.2.4,119.96690227622942,
5,stimuli/5.png,s,0,0,0,0,99,0,99,0,0,0,0,0,,,,,,,,,,,,,,,,,,192.41207337356173,192.41207337356173,192.41207337356173,192.41207337356173,s,1,0.8476637664716691,193.27882194204722,193.27882194204722,193.27882194204722,,,,,,,,,,,,,,,,,,,,,,,,,,,,125,001,2010-10-16_14h18.11.740,eb_01,2022.2.4,119.96690227622942,
,,,0,0,0,0,99,0,99,0,,,,,,,,,,,,,,,,,,,,,,,,,,,,,,,,,,,,,,,,,,,,,,,,,,,,,,,,,,,125,001,2010-10-16_14h18.11.740,eb_01,2022.2.4,119.96690227622942,
,,,0,0,0,0,,,,,,,,,,,,,,,,,,,,,,,,,,,,,,,,,,,,,,,194.27885333437007,194.27885333437007,return,41.25075983608258,,,,,,,,,,,,,,,,,,,,,125,001,2010-10-16_14h18.11.740,eb_01,2022.2.4,119.96690227622942,
6,stimuli/6.png,s,1,0,1,0,0,0,0,0,0,0,0,0,,,,,,,,,,,,,,,,,,235.56574522095616,235.56574522095616,235.56574522095616,235.56574522095616,s,1,1.299910884554265,236.89087328058667,236.89087328058667,236.89087328058667,,,,,,,,,,,,,,,,,,,,,,,,,,,,125,001,2010-10-16_14h18.11.740,eb_01,2022.2.4,119.96690227622942,
,,,1,0,1,0,0,0,0,0,,,,,,,,,,,,,,,,,,,,,,,,,,,,,,,,,,,,,,,,,,,,,,,,,,,,,,,,,,,125,001,2010-10-16_14h18.11.740,eb_01,2022.2.4,119.96690227622942,
8,stimuli/8.png,l,1,0,1,0,1,0,1,0,0,0,0,0,,,,,,,,,,,,,,,,,,237.8909484410833,237.8909484410833,237.8909484410833,237.8909484410833,l,1,0.9426995507092215,238.85766108948155,238.85766108948155,238.85766108948155,,,,,,,,,,,,,,,,,,,,,,,,,,,,125,001,2010-10-16_14h18.11.740,eb_01,2022.2.4,119.96690227622942,
,,,1,0,1,0,1,0,1,0,,,,,,,,,,,,,,,,,,,,,,,,,,,,,,,,,,,,,,,,,,,,,,,,,,,,,,,,,,,125,001,2010-10-16_14h18.11.740,eb_01,2022.2.4,119.96690227622942,
6,stimuli/6.png,s,1,0,1,0,2,0,2,0,0,0,0,0,,,,,,,,,,,,,,,,,,239.8827933749999,239.8827933749999,239.8827933749999,239.8827933749999,s,1,0.43089633240015246,240.3411508311401,240.3411508311401,240.3411508311401,,,,,,,,,,,,,,,,,,,,,,,,,,,,125,001,2010-10-16_14h18.11.740,eb_01,2022.2.4,119.96690227622942,
,,,1,0,1,0,2,0,2,0,,,,,,,,,,,,,,,,,,,,,,,,,,,,,,,,,,,,,,,,,,,,,,,,,,,,,,,,,,,125,001,2010-10-16_14h18.11.740,eb_01,2022.2.4,119.96690227622942,
9,stimuli/9.png,l,1,0,1,0,3,0,3,0,0,0,0,0,,,,,,,,,,,,,,,,,,241.3495606581564,241.3495606581564,241.3495606581564,241.3495606581564,l,1,0.9881683379935566,242.36632929960615,242.36632929960615,242.36632929960615,,,,,,,,,,,,,,,,,,,,,,,,,,,,125,001,2010-10-16_14h18.11.740,eb_01,2022.2.4,119.96690227622942,
,,,1,0,1,0,3,0,3,0,,,,,,,,,,,,,,,,,,,,,,,,,,,,,,,,,,,,,,,,,,,,,,,,,,,,,,,,,,,125,001,2010-10-16_14h18.11.740,eb_01,2022.2.4,119.96690227622942,
8,stimuli/8.png,l,1,0,1,0,4,0,4,0,0,0,0,0,,,,,,,,,,,,,,,,,,243.3663815195614,243.3663815195614,243.3663815195614,243.3663815195614,l,1,0.6834117946273182,244.0664853557828,244.0664853557828,244.0664853557828,,,,,,,,,,,,,,,,,,,,,,,,,,,,125,001,2010-10-16_14h18.11.740,eb_01,2022.2.4,119.96690227622942,
,,,1,0,1,0,4,0,4,0,,,,,,,,,,,,,,,,,,,,,,,,,,,,,,,,,,,,,,,,,,,,,,,,,,,,,,,,,,,125,001,2010-10-16_14h18.11.740,eb_01,2022.2.4,119.96690227622942,
9,stimuli/9.png,l,1,0,1,0,5,0,5,0,0,0,0,0,,,,,,,,,,,,,,,,,,245.0832262270851,245.0832262270851,245.0832262270851,245.0832262270851,l,1,0.5345840269001201,245.6499403847265,245.6499403847265,245.6499403847265,,,,,,,,,,,,,,,,,,,,,,,,,,,,125,001,2010-10-16_14h18.11.740,eb_01,2022.2.4,119.96690227622942,
,,,1,0,1,0,5,0,5,0,,,,,,,,,,,,,,,,,,,,,,,,,,,,,,,,,,,,,,,,,,,,,,,,,,,,,,,,,,,125,001,2010-10-16_14h18.11.740,eb_01,2022.2.4,119.96690227622942,
5,stimuli/5.png,s,1,0,1,0,6,0,6,0,0,0,0,0,,,,,,,,,,,,,,,,,,246.65007832992706,246.65007832992706,246.65007832992706,246.65007832992706,s,1,0.4877469561761245,247.15841450568405,247.15841450568405,247.15841450568405,,,,,,,,,,,,,,,,,,,,,,,,,,,,125,001,2010-10-16_14h18.11.740,eb_01,2022.2.4,119.96690227622942,
,,,1,0,1,0,6,0,6,0,,,,,,,,,,,,,,,,,,,,,,,,,,,,,,,,,,,,,,,,,,,,,,,,,,,,,,,,,,,125,001,2010-10-16_14h18.11.740,eb_01,2022.2.4,119.96690227622942,
9,stimuli/9.png,l,1,0,1,0,7,0,7,0,0,0,0,0,,,,,,,,,,,,,,,,,,248.1751360586204,248.1751360586204,248.1751360586204,248.1751360586204,l,1,0.5377314109064173,248.7418556495686,248.7418556495686,248.7418556495686,,,,,,,,,,,,,,,,,,,,,,,,,,,,125,001,2010-10-16_14h18.11.740,eb_01,2022.2.4,119.96690227622942,
,,,1,0,1,0,7,0,7,0,,,,,,,,,,,,,,,,,,,,,,,,,,,,,,,,,,,,,,,,,,,,,,,,,,,,,,,,,,,125,001,2010-10-16_14h18.11.740,eb_01,2022.2.4,119.96690227622942,
5,stimuli/5.png,s,1,0,1,0,8,0,8,0,0,0,0,0,,,,,,,,,,,,,,,,,,249.74194197848556,249.74194197848556,249.74194197848556,249.74194197848556,s,1,0.47497781965648755,250.23362874329905,250.23362874329905,250.23362874329905,,,,,,,,,,,,,,,,,,,,,,,,,,,,125,001,2010-10-16_14h18.11.740,eb_01,2022.2.4,119.96690227622942,
,,,1,0,1,0,8,0,8,0,,,,,,,,,,,,,,,,,,,,,,,,,,,,,,,,,,,,,,,,,,,,,,,,,,,,,,,,,,,125,001,2010-10-16_14h18.11.740,eb_01,2022.2.4,119.96690227622942,
6,stimuli/6.png,s,1,0,1,0,9,0,9,0,0,0,0,0,,,,,,,,,,,,,,,,,,251.25873537160805,251.25873537160805,251.25873537160805,251.25873537160805,s,1,0.3821805508050602,251.66710897668963,251.66710897668963,251.66710897668963,,,,,,,,,,,,,,,,,,,,,,,,,,,,125,001,2010-10-16_14h18.11.740,eb_01,2022.2.4,119.96690227622942,
,,,1,0,1,0,9,0,9,0,,,,,,,,,,,,,,,,,,,,,,,,,,,,,,,,,,,,,,,,,,,,,,,,,,,,,,,,,,,125,001,2010-10-16_14h18.11.740,eb_01,2022.2.4,119.96690227622942,
5,stimuli/5.png,s,1,0,1,0,10,0,10,0,0,0,0,0,,,,,,,,,,,,,,,,,,252.66719017419382,252.66719017419382,252.66719017419382,252.66719017419382,s,1,0.573752310971031,253.25895209950977,253.25895209950977,253.25895209950977,,,,,,,,,,,,,,,,,,,,,,,,,,,,125,001,2010-10-16_14h18.11.740,eb_01,2022.2.4,119.96690227622942,
,,,1,0,1,0,10,0,10,0,,,,,,,,,,,,,,,,,,,,,,,,,,,,,,,,,,,,,,,,,,,,,,,,,,,,,,,,,,,125,001,2010-10-16_14h18.11.740,eb_01,2022.2.4,119.96690227622942,
6,stimuli/6.png,s,1,0,1,0,11,0,11,0,0,0,0,0,,,,,,,,,,,,,,,,,,254.28401646891143,254.28401646891143,254.28401646891143,254.28401646891143,s,1,0.37295723956776783,254.68407200920046,254.68407200920046,254.68407200920046,,,,,,,,,,,,,,,,,,,,,,,,,,,,125,001,2010-10-16_14h18.11.740,eb_01,2022.2.4,119.96690227622942,
,,,1,0,1,0,11,0,11,0,,,,,,,,,,,,,,,,,,,,,,,,,,,,,,,,,,,,,,,,,,,,,,,,,,,,,,,,,,,125,001,2010-10-16_14h18.11.740,eb_01,2022.2.4,119.96690227622942,
8,stimuli/8.png,l,1,0,1,0,12,0,12,0,0,0,0,0,,,,,,,,,,,,,,,,,,255.68414867896354,255.68414867896354,255.68414867896354,255.68414867896354,l,1,0.49289680932997726,256.2008527246362,256.2008527246362,256.2008527246362,,,,,,,,,,,,,,,,,,,,,,,,,,,,125,001,2010-10-16_14h18.11.740,eb_01,2022.2.4,119.96690227622942,
,,,1,0,1,0,12,0,12,0,,,,,,,,,,,,,,,,,,,,,,,,,,,,,,,,,,,,,,,,,,,,,,,,,,,,,,,,,,,125,001,2010-10-16_14h18.11.740,eb_01,2022.2.4,119.96690227622942,
3,stimuli/3.png,l,1,0,1,0,13,0,13,0,0,0,0,0,,,,,,,,,,,,,,,,,,257.209261344251,257.209261344251,257.209261344251,257.209261344251,l,1,0.5117669265018776,257.7342731918325,257.7342731918325,257.7342731918325,258.7426975076378,258.7426975076378,258.7426975076378,,,,,,,,,,,,,,,,,,,,,,,,,125,001,2010-10-16_14h18.11.740,eb_01,2022.2.4,119.96690227622942,
,,,1,0,1,0,13,0,13,0,,,,,,,,,,,,,,,,,,,,,,,,,,,,,,,,,,,,,,,,,,,,,,,,,,,,,,,,,,,125,001,2010-10-16_14h18.11.740,eb_01,2022.2.4,119.96690227622942,
8,stimuli/8.png,l,1,0,1,0,14,0,14,0,0,0,0,0,,,,,,,,,,,,,,,,,,258.7426975076378,258.7426975076378,258.7426975076378,258.7426975076378,l,1,0.6903661036922131,259.45111337161507,259.45111337161507,259.45111337161507,,,,,,,,,,,,,,,,,,,,,,,,,,,,125,001,2010-10-16_14h18.11.740,eb_01,2022.2.4,119.96690227622942,
,,,1,0,1,0,14,0,14,0,,,,,,,,,,,,,,,,,,,,,,,,,,,,,,,,,,,,,,,,,,,,,,,,,,,,,,,,,,,125,001,2010-10-16_14h18.11.740,eb_01,2022.2.4,119.96690227622942,
6,stimuli/6.png,s,1,0,1,0,15,0,15,0,0,0,0,0,,,,,,,,,,,,,,,,,,260.4762040019268,260.4762040019268,260.4762040019268,260.4762040019268,s,1,0.48487878285232,260.99291106610326,260.99291106610326,260.99291106610326,,,,,,,,,,,,,,,,,,,,,,,,,,,,125,001,2010-10-16_14h18.11.740,eb_01,2022.2.4,119.96690227622942,
,,,1,0,1,0,15,0,15,0,,,,,,,,,,,,,,,,,,,,,,,,,,,,,,,,,,,,,,,,,,,,,,,,,,,,,,,,,,,125,001,2010-10-16_14h18.11.740,eb_01,2022.2.4,119.96690227622942,
9,stimuli/9.png,l,1,0,1,0,16,0,16,0,0,0,0,0,,,,,,,,,,,,,,,,,,262.00134172072285,262.00134172072285,262.00134172072285,262.00134172072285,l,1,0.503805345913861,262.53471328830346,262.53471328830346,262.53471328830346,,,,,,,,,,,,,,,,,,,,,,,,,,,,125,001,2010-10-16_14h18.11.740,eb_01,2022.2.4,119.96690227622942,
,,,1,0,1,0,16,0,16,0,,,,,,,,,,,,,,,,,,,,,,,,,,,,,,,,,,,,,,,,,,,,,,,,,,,,,,,,,,,125,001,2010-10-16_14h18.11.740,eb_01,2022.2.4,119.96690227622942,
6,stimuli/6.png,s,1,0,1,0,17,0,17,0,0,0,0,0,,,,,,,,,,,,,,,,,,263.55147921314347,263.55147921314347,263.55147921314347,263.55147921314347,s,1,0.3847351025324315,263.96816605341155,263.96816605341155,263.96816605341155,,,,,,,,,,,,,,,,,,,,,,,,,,,,125,001,2010-10-16_14h18.11.740,eb_01,2022.2.4,119.96690227622942,
,,,1,0,1,0,17,0,17,0,,,,,,,,,,,,,,,,,,,,,,,,,,,,,,,,,,,,,,,,,,,,,,,,,,,,,,,,,,,125,001,2010-10-16_14h18.11.740,eb_01,2022.2.4,119.96690227622942,
8,stimuli/8.png,l,1,0,1,0,18,0,18,0,0,0,0,0,,,,,,,,,,,,,,,,,,264.9682403083716,264.9682403083716,264.9682403083716,264.9682403083716,l,1,0.5359592529130168,265.5266357975197,265.5266357975197,265.5266357975197,,,,,,,,,,,,,,,,,,,,,,,,,,,,125,001,2010-10-16_14h18.11.740,eb_01,2022.2.4,119.96690227622942,
,,,1,0,1,0,18,0,18,0,,,,,,,,,,,,,,,,,,,,,,,,,,,,,,,,,,,,,,,,,,,,,,,,,,,,,,,,,,,125,001,2010-10-16_14h18.11.740,eb_01,2022.2.4,119.96690227622942,
3,stimuli/3.png,l,1,0,1,0,19,0,19,0,0,0,0,0,,,,,,,,,,,,,,,,,,266.53505407631746,266.53505407631746,266.53505407631746,266.53505407631746,l,1,0.5211876472749282,267.0684464715305,267.0684464715305,267.0684464715305,268.08520998153836,268.08520998153836,268.08520998153836,,,,,,,,,,,,,,,,,,,,,,,,,125,001,2010-10-16_14h18.11.740,eb_01,2022.2.4,119.96690227622942,
,,,1,0,1,0,19,0,19,0,,,,,,,,,,,,,,,,,,,,,,,,,,,,,,,,,,,,,,,,,,,,,,,,,,,,,,,,,,,125,001,2010-10-16_14h18.11.740,eb_01,2022.2.4,119.96690227622942,
4,stimuli/4.png,l,1,0,1,0,20,0,20,0,0,0,0,0,,,,,,,,,,,,,,,,,,268.08520998153836,268.08520998153836,268.08520998153836,268.08520998153836,l,1,0.6190381774795242,268.7269210452505,268.7269210452505,268.7269210452505,,,,,,,,,,,,,,,,,,,,,,,,,,,,125,001,2010-10-16_14h18.11.740,eb_01,2022.2.4,119.96690227622942,
,,,1,0,1,0,20,0,20,0,,,,,,,,,,,,,,,,,,,,,,,,,,,,,,,,,,,,,,,,,,,,,,,,,,,,,,,,,,,125,001,2010-10-16_14h18.11.740,eb_01,2022.2.4,119.96690227622942,
2,stimuli/2.png,s,1,0,1,0,21,0,21,0,0,0,0,0,,,,,,,,,,,,,,,,,,269.73533932401915,269.73533932401915,269.73533932401915,269.73533932401915,s,1,0.7529642424779013,270.50202782446286,270.50202782446286,270.50202782446286,271.5104636105243,271.5104636105243,271.5104636105243,,,,,,,,,,,,,,,,,,,,,,,,,125,001,2010-10-16_14h18.11.740,eb_01,2022.2.4,119.96690227622942,
,,,1,0,1,0,21,0,21,0,,,,,,,,,,,,,,,,,,,,,,,,,,,,,,,,,,,,,,,,,,,,,,,,,,,,,,,,,,,125,001,2010-10-16_14h18.11.740,eb_01,2022.2.4,119.96690227622942,
3,stimuli/3.png,l,1,0,1,0,22,0,22,0,0,0,0,0,,,,,,,,,,,,,,,,,,271.5104636105243,271.5104636105243,271.5104636105243,271.5104636105243,l,1,0.5538540946145076,272.07716509050806,272.07716509050806,272.07716509050806,273.085580652667,273.085580652667,273.085580652667,,,,,,,,,,,,,,,,,,,,,,,,,125,001,2010-10-16_14h18.11.740,eb_01,2022.2.4,119.96690227622942,
,,,1,0,1,0,22,0,22,0,,,,,,,,,,,,,,,,,,,,,,,,,,,,,,,,,,,,,,,,,,,,,,,,,,,,,,,,,,,125,001,2010-10-16_14h18.11.740,eb_01,2022.2.4,119.96690227622942,
2,stimuli/2.png,s,1,0,1,0,23,0,23,0,0,0,0,0,,,,,,,,,,,,,,,,,,273.085580652667,273.085580652667,273.085580652667,273.085580652667,s,1,0.7467739143467043,273.8439791603014,273.8439791603014,273.8439791603014,274.8691123513854,274.8691123513854,274.8691123513854,,,,,,,,,,,,,,,,,,,,,,,,,125,001,2010-10-16_14h18.11.740,eb_01,2022.2.4,119.96690227622942,
,,,1,0,1,0,23,0,23,0,,,,,,,,,,,,,,,,,,,,,,,,,,,,,,,,,,,,,,,,,,,,,,,,,,,,,,,,,,,125,001,2010-10-16_14h18.11.740,eb_01,2022.2.4,119.96690227622942,
1,stimuli/1.png,s,1,0,1,0,24,0,24,0,0,0,0,0,,,,,,,,,,,,,,,,,,274.8691123513854,274.8691123513854,274.8691123513854,274.8691123513854,s,1,0.8432863460038789,275.7441753624298,275.7441753624298,275.7441753624298,,,,,,,,,,,,,,,,,,,,,,,,,,,,125,001,2010-10-16_14h18.11.740,eb_01,2022.2.4,119.96690227622942,
,,,1,0,1,0,24,0,24,0,,,,,,,,,,,,,,,,,,,,,,,,,,,,,,,,,,,,,,,,,,,,,,,,,,,,,,,,,,,125,001,2010-10-16_14h18.11.740,eb_01,2022.2.4,119.96690227622942,
2,stimuli/2.png,s,1,0,1,0,25,0,25,0,0,0,0,0,,,,,,,,,,,,,,,,,,276.74426048397436,276.74426048397436,276.74426048397436,276.74426048397436,s,1,0.5841757755260915,277.34431270393543,277.34431270393543,277.34431270393543,278.3693631882488,278.3693631882488,278.3693631882488,,,,,,,,,,,,,,,,,,,,,,,,,125,001,2010-10-16_14h18.11.740,eb_01,2022.2.4,119.96690227622942,
,,,1,0,1,0,25,0,25,0,,,,,,,,,,,,,,,,,,,,,,,,,,,,,,,,,,,,,,,,,,,,,,,,,,,,,,,,,,,125,001,2010-10-16_14h18.11.740,eb_01,2022.2.4,119.96690227622942,
1,stimuli/1.png,s,1,0,1,0,26,0,26,0,0,0,0,0,,,,,,,,,,,,,,,,,,278.3693631882488,278.3693631882488,278.3693631882488,278.3693631882488,s,1,0.4301848732866347,278.8277499237738,278.8277499237738,278.8277499237738,,,,,,,,,,,,,,,,,,,,,,,,,,,,125,001,2010-10-16_14h18.11.740,eb_01,2022.2.4,119.96690227622942,
,,,1,0,1,0,26,0,26,0,,,,,,,,,,,,,,,,,,,,,,,,,,,,,,,,,,,,,,,,,,,,,,,,,,,,,,,,,,,125,001,2010-10-16_14h18.11.740,eb_01,2022.2.4,119.96690227622942,
2,stimuli/2.png,s,1,0,1,0,27,0,27,0,0,0,0,0,,,,,,,,,,,,,,,,,,279.82782176393084,279.82782176393084,279.82782176393084,279.82782176393084,s,1,0.46764559514122084,280.31119861389743,280.31119861389743,280.31119861389743,281.32799230888486,281.32799230888486,281.32799230888486,,,,,,,,,,,,,,,,,,,,,,,,,125,001,2010-10-16_14h18.11.740,eb_01,2022.2.4,119.96690227622942,
,,,1,0,1,0,27,0,27,0,,,,,,,,,,,,,,,,,,,,,,,,,,,,,,,,,,,,,,,,,,,,,,,,,,,,,,,,,,,125,001,2010-10-16_14h18.11.740,eb_01,2022.2.4,119.96690227622942,
4,stimuli/4.png,l,1,0,1,0,28,0,28,0,0,0,0,0,,,,,,,,,,,,,,,,,,281.32799230888486,281.32799230888486,281.32799230888486,281.32799230888486,l,1,0.4075380159774795,281.75299027140136,281.75299027140136,281.75299027140136,,,,,,,,,,,,,,,,,,,,,,,,,,,,125,001,2010-10-16_14h18.11.740,eb_01,2022.2.4,119.96690227622942,
,,,1,0,1,0,28,0,28,0,,,,,,,,,,,,,,,,,,,,,,,,,,,,,,,,,,,,,,,,,,,,,,,,,,,,,,,,,,,125,001,2010-10-16_14h18.11.740,eb_01,2022.2.4,119.96690227622942,
2,stimuli/2.png,s,1,0,1,0,29,0,29,0,0,0,0,0,,,,,,,,,,,,,,,,,,282.7614402443578,282.7614402443578,282.7614402443578,282.7614402443578,s,1,0.6541284757258836,283.4281332725659,283.4281332725659,283.4281332725659,284.43658324555145,284.43658324555145,284.43658324555145,,,,,,,,,,,,,,,,,,,,,,,,,125,001,2010-10-16_14h18.11.740,eb_01,2022.2.4,119.96690227622942,
,,,1,0,1,0,29,0,29,0,,,,,,,,,,,,,,,,,,,,,,,,,,,,,,,,,,,,,,,,,,,,,,,,,,,,,,,,,,,125,001,2010-10-16_14h18.11.740,eb_01,2022.2.4,119.96690227622942,
3,stimuli/3.png,l,1,0,1,0,30,0,30,0,0,0,0,0,,,,,,,,,,,,,,,,,,284.43658324555145,284.43658324555145,284.43658324555145,284.43658324555145,l,1,0.42700217285891995,284.8782837445033,284.8782837445033,284.8782837445033,285.89500650484115,285.89500650484115,285.89500650484115,,,,,,,,,,,,,,,,,,,,,,,,,125,001,2010-10-16_14h18.11.740,eb_01,2022.2.4,119.96690227622942,
,,,1,0,1,0,30,0,30,0,,,,,,,,,,,,,,,,,,,,,,,,,,,,,,,,,,,,,,,,,,,,,,,,,,,,,,,,,,,125,001,2010-10-16_14h18.11.740,eb_01,2022.2.4,119.96690227622942,
4,stimuli/4.png,l,1,0,1,0,31,0,31,0,0,0,0,0,,,,,,,,,,,,,,,,,,285.89500650484115,285.89500650484115,285.89500650484115,285.89500650484115,l,1,1.0406152803916484,286.9534762489784,286.9534762489784,286.9534762489784,,,,,,,,,,,,,,,,,,,,,,,,,,,,125,001,2010-10-16_14h18.11.740,eb_01,2022.2.4,119.96690227622942,
,,,1,0,1,0,31,0,31,0,,,,,,,,,,,,,,,,,,,,,,,,,,,,,,,,,,,,,,,,,,,,,,,,,,,,,,,,,,,125,001,2010-10-16_14h18.11.740,eb_01,2022.2.4,119.96690227622942,
2,stimuli/2.png,s,1,0,1,0,32,0,32,0,0,0,0,0,,,,,,,,,,,,,,,,,,287.9618797371513,287.9618797371513,287.9618797371513,287.9618797371513,s,1,0.7578080203093123,288.7285866503953,288.7285866503953,288.7285866503953,289.7453649510571,289.7453649510571,289.7453649510571,,,,,,,,,,,,,,,,,,,,,,,,,125,001,2010-10-16_14h18.11.740,eb_01,2022.2.4,119.96690227622942,
,,,1,0,1,0,32,0,32,0,,,,,,,,,,,,,,,,,,,,,,,,,,,,,,,,,,,,,,,,,,,,,,,,,,,,,,,,,,,125,001,2010-10-16_14h18.11.740,eb_01,2022.2.4,119.96690227622942,
4,stimuli/4.png,l,1,0,1,0,33,0,33,0,0,0,0,0,,,,,,,,,,,,,,,,,,289.7453649510571,289.7453649510571,289.7453649510571,289.7453649510571,l,1,0.4623457228008192,290.22872882147203,290.22872882147203,290.22872882147203,,,,,,,,,,,,,,,,,,,,,,,,,,,,125,001,2010-10-16_14h18.11.740,eb_01,2022.2.4,119.96690227622942,
,,,1,0,1,0,33,0,33,0,,,,,,,,,,,,,,,,,,,,,,,,,,,,,,,,,,,,,,,,,,,,,,,,,,,,,,,,,,,125,001,2010-10-16_14h18.11.740,eb_01,2022.2.4,119.96690227622942,
1,stimuli/1.png,s,1,0,1,0,34,0,34,0,0,0,0,0,,,,,,,,,,,,,,,,,,291.2538526552089,291.2538526552089,291.2538526552089,291.2538526552089,s,1,0.4658719278522767,291.7455490792054,291.7455490792054,291.7455490792054,,,,,,,,,,,,,,,,,,,,,,,,,,,,125,001,2010-10-16_14h18.11.740,eb_01,2022.2.4,119.96690227622942,
,,,1,0,1,0,34,0,34,0,,,,,,,,,,,,,,,,,,,,,,,,,,,,,,,,,,,,,,,,,,,,,,,,,,,,,,,,,,,125,001,2010-10-16_14h18.11.740,eb_01,2022.2.4,119.96690227622942,
4,stimuli/4.png,l,1,0,1,0,35,0,35,0,0,0,0,0,,,,,,,,,,,,,,,,,,292.75395739695523,292.75395739695523,292.75395739695523,292.75395739695523,l,1,0.5257999065797776,293.30401580483885,293.30401580483885,293.30401580483885,,,,,,,,,,,,,,,,,,,,,,,,,,,,125,001,2010-10-16_14h18.11.740,eb_01,2022.2.4,119.96690227622942,
,,,1,0,1,0,35,0,35,0,,,,,,,,,,,,,,,,,,,,,,,,,,,,,,,,,,,,,,,,,,,,,,,,,,,,,,,,,,,125,001,2010-10-16_14h18.11.740,eb_01,2022.2.4,119.96690227622942,
1,stimuli/1.png,s,1,0,1,0,36,0,36,0,0,0,0,0,,,,,,,,,,,,,,,,,,294.3290801742114,294.3290801742114,294.3290801742114,294.3290801742114,s,1,0.8456993303552736,295.2041778979765,295.2041778979765,295.2041778979765,,,,,,,,,,,,,,,,,,,,,,,,,,,,125,001,2010-10-16_14h18.11.740,eb_01,2022.2.4,119.96690227622942,
,,,1,0,1,0,36,0,36,0,,,,,,,,,,,,,,,,,,,,,,,,,,,,,,,,,,,,,,,,,,,,,,,,,,,,,,,,,,,125,001,2010-10-16_14h18.11.740,eb_01,2022.2.4,119.96690227622942,
4,stimuli/4.png,l,1,0,1,0,37,0,37,0,0,0,0,0,,,,,,,,,,,,,,,,,,296.21259859157726,296.21259859157726,296.21259859157726,296.21259859157726,l,1,0.626261132536456,296.86262107934454,296.86262107934454,296.86262107934454,,,,,,,,,,,,,,,,,,,,,,,,,,,,125,001,2010-10-16_14h18.11.740,eb_01,2022.2.4,119.96690227622942,
,,,1,0,1,0,37,0,37,0,,,,,,,,,,,,,,,,,,,,,,,,,,,,,,,,,,,,,,,,,,,,,,,,,,,,,,,,,,,125,001,2010-10-16_14h18.11.740,eb_01,2022.2.4,119.96690227622942,
3,stimuli/3.png,l,1,0,1,0,38,0,38,0,0,0,0,0,,,,,,,,,,,,,,,,,,297.8710758819361,297.8710758819361,297.8710758819361,297.8710758819361,l,1,0.7278108275204431,298.6127905678004,298.6127905678004,298.6127905678004,299.629545324191,299.629545324191,299.629545324191,,,,,,,,,,,,,,,,,,,,,,,,,125,001,2010-10-16_14h18.11.740,eb_01,2022.2.4,119.96690227622942,
,,,1,0,1,0,38,0,38,0,,,,,,,,,,,,,,,,,,,,,,,,,,,,,,,,,,,,,,,,,,,,,,,,,,,,,,,,,,,125,001,2010-10-16_14h18.11.740,eb_01,2022.2.4,119.96690227622942,
4,stimuli/4.png,l,1,0,1,0,39,0,39,0,0,0,0,0,,,,,,,,,,,,,,,,,,299.629545324191,299.629545324191,299.629545324191,299.629545324191,s,0,0.5133413731819019,300.171273895161,300.171273895161,300.171273895161,,,,,,,,,,,,,,,,,,,,,,,,,,,,125,001,2010-10-16_14h18.11.740,eb_01,2022.2.4,119.96690227622942,
,,,1,0,1,0,39,0,39,0,,,,,,,,,,,,,,,,,,,,,,,,,,,,,,,,,,,,,,,,,,,,,,,,,,,,,,,,,,,125,001,2010-10-16_14h18.11.740,eb_01,2022.2.4,119.96690227622942,
1,stimuli/1.png,s,1,0,1,0,40,0,40,0,0,0,0,0,,,,,,,,,,,,,,,,,,301.18799544809735,301.18799544809735,301.18799544809735,301.18799544809735,s,1,2.274968160490971,303.4881753503578,303.4881753503578,303.4881753503578,,,,,,,,,,,,,,,,,,,,,,,,,,,,125,001,2010-10-16_14h18.11.740,eb_01,2022.2.4,119.96690227622942,
,,,1,0,1,0,40,0,40,0,,,,,,,,,,,,,,,,,,,,,,,,,,,,,,,,,,,,,,,,,,,,,,,,,,,,,,,,,,,125,001,2010-10-16_14h18.11.740,eb_01,2022.2.4,119.96690227622942,
2,stimuli/2.png,s,1,0,1,0,41,0,41,0,0,0,0,0,,,,,,,,,,,,,,,,,,304.4882713384868,304.4882713384868,304.4882713384868,304.4882713384868,s,1,0.5507486676506232,305.055029264302,305.055029264302,305.055029264302,306.08009604847757,306.08009604847757,306.08009604847757,,,,,,,,,,,,,,,,,,,,,,,,,125,001,2010-10-16_14h18.11.740,eb_01,2022.2.4,119.96690227622942,
,,,1,0,1,0,41,0,41,0,,,,,,,,,,,,,,,,,,,,,,,,,,,,,,,,,,,,,,,,,,,,,,,,,,,,,,,,,,,125,001,2010-10-16_14h18.11.740,eb_01,2022.2.4,119.96690227622942,
1,stimuli/1.png,s,1,0,1,0,42,0,42,0,0,0,0,0,,,,,,,,,,,,,,,,,,306.08009604847757,306.08009604847757,306.08009604847757,306.08009604847757,s,1,0.8389605417905841,306.94684793730266,306.94684793730266,306.94684793730266,,,,,,,,,,,,,,,,,,,,,,,,,,,,125,001,2010-10-16_14h18.11.740,eb_01,2022.2.4,119.96690227622942,
,,,1,0,1,0,42,0,42,0,,,,,,,,,,,,,,,,,,,,,,,,,,,,,,,,,,,,,,,,,,,,,,,,,,,,,,,,,,,125,001,2010-10-16_14h18.11.740,eb_01,2022.2.4,119.96690227622942,
4,stimuli/4.png,l,1,0,1,0,43,0,43,0,0,0,0,0,,,,,,,,,,,,,,,,,,307.955248105136,307.955248105136,307.955248105136,307.955248105136,l,1,0.5878136648971122,308.56362986014574,308.56362986014574,308.56362986014574,,,,,,,,,,,,,,,,,,,,,,,,,,,,125,001,2010-10-16_14h18.11.740,eb_01,2022.2.4,119.96690227622942,
,,,1,0,1,0,43,0,43,0,,,,,,,,,,,,,,,,,,,,,,,,,,,,,,,,,,,,,,,,,,,,,,,,,,,,,,,,,,,125,001,2010-10-16_14h18.11.740,eb_01,2022.2.4,119.96690227622942,
2,stimuli/2.png,s,1,0,1,0,44,0,44,0,0,0,0,0,,,,,,,,,,,,,,,,,,309.57207168318564,309.57207168318564,309.57207168318564,309.57207168318564,s,1,0.5381066097470466,310.122106546798,310.122106546798,310.122106546798,311.13053629588103,311.13053629588103,311.13053629588103,,,,,,,,,,,,,,,,,,,,,,,,,125,001,2010-10-16_14h18.11.740,eb_01,2022.2.4,119.96690227622942,
,,,1,0,1,0,44,0,44,0,,,,,,,,,,,,,,,,,,,,,,,,,,,,,,,,,,,,,,,,,,,,,,,,,,,,,,,,,,,125,001,2010-10-16_14h18.11.740,eb_01,2022.2.4,119.96690227622942,
3,stimuli/3.png,l,1,0,1,0,45,0,45,0,0,0,0,0,,,,,,,,,,,,,,,,,,311.13053629588103,311.13053629588103,311.13053629588103,311.13053629588103,l,1,0.5715968041913584,311.7139071088459,311.7139071088459,311.7139071088459,312.7306410376332,312.7306410376332,312.7306410376332,,,,,,,,,,,,,,,,,,,,,,,,,125,001,2010-10-16_14h18.11.740,eb_01,2022.2.4,119.96690227622942,
,,,1,0,1,0,45,0,45,0,,,,,,,,,,,,,,,,,,,,,,,,,,,,,,,,,,,,,,,,,,,,,,,,,,,,,,,,,,,125,001,2010-10-16_14h18.11.740,eb_01,2022.2.4,119.96690227622942,
4,stimuli/4.png,l,1,0,1,0,46,0,46,0,0,0,0,0,,,,,,,,,,,,,,,,,,312.7306410376332,312.7306410376332,312.7306410376332,312.7306410376332,l,1,0.7155349129752722,313.4640234718099,313.4640234718099,313.4640234718099,,,,,,,,,,,,,,,,,,,,,,,,,,,,125,001,2010-10-16_14h18.11.740,eb_01,2022.2.4,119.96690227622942,
,,,1,0,1,0,46,0,46,0,,,,,,,,,,,,,,,,,,,,,,,,,,,,,,,,,,,,,,,,,,,,,,,,,,,,,,,,,,,125,001,2010-10-16_14h18.11.740,eb_01,2022.2.4,119.96690227622942,
1,stimuli/1.png,s,1,0,1,0,47,0,47,0,0,0,0,0,,,,,,,,,,,,,,,,,,314.4891255723778,314.4891255723778,314.4891255723778,314.4891255723778,s,1,0.6450588058796711,315.16418164089555,315.16418164089555,315.16418164089555,,,,,,,,,,,,,,,,,,,,,,,,,,,,125,001,2010-10-16_14h18.11.740,eb_01,2022.2.4,119.96690227622942,
,,,1,0,1,0,47,0,47,0,,,,,,,,,,,,,,,,,,,,,,,,,,,,,,,,,,,,,,,,,,,,,,,,,,,,,,,,,,,125,001,2010-10-16_14h18.11.740,eb_01,2022.2.4,119.96690227622942,
2,stimuli/2.png,s,1,0,1,0,48,0,48,0,0,0,0,0,,,,,,,,,,,,,,,,,,316.16430147513165,316.16430147513165,316.16430147513165,316.16430147513165,s,1,0.7059668896836229,316.8809804673074,316.8809804673074,316.8809804673074,317.8894023683097,317.8894023683097,317.8894023683097,,,,,,,,,,,,,,,,,,,,,,,,,125,001,2010-10-16_14h18.11.740,eb_01,2022.2.4,119.96690227622942,
,,,1,0,1,0,48,0,48,0,,,,,,,,,,,,,,,,,,,,,,,,,,,,,,,,,,,,,,,,,,,,,,,,,,,,,,,,,,,125,001,2010-10-16_14h18.11.740,eb_01,2022.2.4,119.96690227622942,
3,stimuli/3.png,l,1,0,1,0,49,0,49,0,0,0,0,0,,,,,,,,,,,,,,,,,,317.8894023683097,317.8894023683097,317.8894023683097,317.8894023683097,l,1,0.6208879108016845,318.52283279653057,318.52283279653057,318.52283279653057,319.53124051060877,319.53124051060877,319.53124051060877,,,,,,,,,,,,,,,,,,,,,,,,,125,001,2010-10-16_14h18.11.740,eb_01,2022.2.4,119.96690227622942,
,,,1,0,1,0,49,0,49,0,,,,,,,,,,,,,,,,,,,,,,,,,,,,,,,,,,,,,,,,,,,,,,,,,,,,,,,,,,,125,001,2010-10-16_14h18.11.740,eb_01,2022.2.4,119.96690227622942,
8,stimuli/8.png,l,1,0,1,0,50,0,50,0,0,0,0,0,,,,,,,,,,,,,,,,,,319.53124051060877,319.53124051060877,319.53124051060877,319.53124051060877,l,1,0.5310502756037749,320.08130706840893,320.08130706840893,320.08130706840893,,,,,,,,,,,,,,,,,,,,,,,,,,,,125,001,2010-10-16_14h18.11.740,eb_01,2022.2.4,119.96690227622942,
,,,1,0,1,0,50,0,50,0,,,,,,,,,,,,,,,,,,,,,,,,,,,,,,,,,,,,,,,,,,,,,,,,,,,,,,,,,,,125,001,2010-10-16_14h18.11.740,eb_01,2022.2.4,119.96690227622942,
3,stimuli/3.png,l,1,0,1,0,51,0,51,0,0,0,0,0,,,,,,,,,,,,,,,,,,321.0897187064984,321.0897187064984,321.0897187064984,321.0897187064984,l,1,0.7646104990853928,321.8647720583831,321.8647720583831,321.8647720583831,322.8731640762999,322.8731640762999,322.8731640762999,,,,,,,,,,,,,,,,,,,,,,,,,125,001,2010-10-16_14h18.11.740,eb_01,2022.2.4,119.96690227622942,
,,,1,0,1,0,51,0,51,0,,,,,,,,,,,,,,,,,,,,,,,,,,,,,,,,,,,,,,,,,,,,,,,,,,,,,,,,,,,125,001,2010-10-16_14h18.11.740,eb_01,2022.2.4,119.96690227622942,
8,stimuli/8.png,l,1,0,1,0,52,0,52,0,0,0,0,0,,,,,,,,,,,,,,,,,,322.8731640762999,322.8731640762999,322.8731640762999,322.8731640762999,l,1,0.5651972944033332,323.45658439258114,323.45658439258114,323.45658439258114,,,,,,,,,,,,,,,,,,,,,,,,,,,,125,001,2010-10-16_14h18.11.740,eb_01,2022.2.4,119.96690227622942,
,,,1,0,1,0,52,0,52,0,,,,,,,,,,,,,,,,,,,,,,,,,,,,,,,,,,,,,,,,,,,,,,,,,,,,,,,,,,,125,001,2010-10-16_14h18.11.740,eb_01,2022.2.4,119.96690227622942,
3,stimuli/3.png,l,1,0,1,0,53,0,53,0,0,0,0,0,,,,,,,,,,,,,,,,,,324.4649948232691,324.4649948232691,324.4649948232691,324.4649948232691,l,1,0.5894095428520814,325.065059419052,325.065059419052,325.065059419052,326.08177885905025,326.08177885905025,326.08177885905025,,,,,,,,,,,,,,,,,,,,,,,,,125,001,2010-10-16_14h18.11.740,eb_01,2022.2.4,119.96690227622942,
,,,1,0,1,0,53,0,53,0,,,,,,,,,,,,,,,,,,,,,,,,,,,,,,,,,,,,,,,,,,,,,,,,,,,,,,,,,,,125,001,2010-10-16_14h18.11.740,eb_01,2022.2.4,119.96690227622942,
4,stimuli/4.png,l,1,0,1,0,54,0,54,0,0,0,0,0,,,,,,,,,,,,,,,,,,326.08177885905025,326.08177885905025,326.08177885905025,326.08177885905025,l,1,0.5796664468944073,326.6818353049166,326.6818353049166,326.6818353049166,,,,,,,,,,,,,,,,,,,,,,,,,,,,125,001,2010-10-16_14h18.11.740,eb_01,2022.2.4,119.96690227622942,
,,,1,0,1,0,54,0,54,0,,,,,,,,,,,,,,,,,,,,,,,,,,,,,,,,,,,,,,,,,,,,,,,,,,,,,,,,,,,125,001,2010-10-16_14h18.11.740,eb_01,2022.2.4,119.96690227622942,
3,stimuli/3.png,l,1,0,1,0,55,0,55,0,0,0,0,0,,,,,,,,,,,,,,,,,,327.690235170885,327.690235170885,327.690235170885,327.690235170885,l,1,0.5632244065054692,328.2736705796269,328.2736705796269,328.2736705796269,,,,,,,,,,,,,,,,,,,,,,,,,,,,125,001,2010-10-16_14h18.11.740,eb_01,2022.2.4,119.96690227622942,
,,,1,0,1,0,55,0,55,0,,,,,,,,,,,,,,,,,,,,,,,,,,,,,,,,,,,,,,,,,,,,,,,,,,,,,,,,,,,125,001,2010-10-16_14h18.11.740,eb_01,2022.2.4,119.96690227622942,
4,stimuli/4.png,l,1,0,1,0,56,0,56,0,0,0,0,0,,,,,,,,,,,,,,,,,,329.29038488821243,329.29038488821243,329.29038488821243,329.29038488821243,l,1,0.5711370875069406,329.88209791391273,329.88209791391273,329.88209791391273,,,,,,,,,,,,,,,,,,,,,,,,,,,,125,001,2010-10-16_14h18.11.740,eb_01,2022.2.4,119.96690227622942,
,,,1,0,1,0,56,0,56,0,,,,,,,,,,,,,,,,,,,,,,,,,,,,,,,,,,,,,,,,,,,,,,,,,,,,,,,,,,,125,001,2010-10-16_14h18.11.740,eb_01,2022.2.4,119.96690227622942,
3,stimuli/3.png,l,1,0,1,0,57,0,57,0,0,0,0,0,,,,,,,,,,,,,,,,,,330.8905204185867,330.8905204185867,330.8905204185867,330.8905204185867,l,1,0.6430059279082343,331.54894397975295,331.54894397975295,331.54894397975295,332.56568907696055,332.56568907696055,332.56568907696055,,,,,,,,,,,,,,,,,,,,,,,,,125,001,2010-10-16_14h18.11.740,eb_01,2022.2.4,119.96690227622942,
,,,1,0,1,0,57,0,57,0,,,,,,,,,,,,,,,,,,,,,,,,,,,,,,,,,,,,,,,,,,,,,,,,,,,,,,,,,,,125,001,2010-10-16_14h18.11.740,eb_01,2022.2.4,119.96690227622942,
4,stimuli/4.png,l,1,0,1,0,58,0,58,0,0,0,0,0,,,,,,,,,,,,,,,,,,332.56568907696055,332.56568907696055,332.56568907696055,332.56568907696055,l,1,1.4478681185282767,334.0324886580056,334.0324886580056,334.0324886580056,,,,,,,,,,,,,,,,,,,,,,,,,,,,125,001,2010-10-16_14h18.11.740,eb_01,2022.2.4,119.96690227622942,
,,,1,0,1,0,58,0,58,0,,,,,,,,,,,,,,,,,,,,,,,,,,,,,,,,,,,,,,,,,,,,,,,,,,,,,,,,,,,125,001,2010-10-16_14h18.11.740,eb_01,2022.2.4,119.96690227622942,
3,stimuli/3.png,l,1,0,1,0,59,0,59,0,0,0,0,0,,,,,,,,,,,,,,,,,,335.0408655834326,335.0408655834326,335.0408655834326,335.0408655834326,l,1,0.5967423710972071,335.6492805418675,335.6492805418675,335.6492805418675,336.66603197791846,336.66603197791846,336.66603197791846,,,,,,,,,,,,,,,,,,,,,,,,,125,001,2010-10-16_14h18.11.740,eb_01,2022.2.4,119.96690227622942,
,,,1,0,1,0,59,0,59,0,,,,,,,,,,,,,,,,,,,,,,,,,,,,,,,,,,,,,,,,,,,,,,,,,,,,,,,,,,,125,001,2010-10-16_14h18.11.740,eb_01,2022.2.4,119.96690227622942,
8,stimuli/8.png,l,1,0,1,0,60,0,60,0,0,0,0,0,,,,,,,,,,,,,,,,,,336.66603197791846,336.66603197791846,336.66603197791846,336.66603197791846,l,1,0.6835995449800976,337.374394716433,337.374394716433,337.374394716433,,,,,,,,,,,,,,,,,,,,,,,,,,,,125,001,2010-10-16_14h18.11.740,eb_01,2022.2.4,119.96690227622942,
,,,1,0,1,0,60,0,60,0,,,,,,,,,,,,,,,,,,,,,,,,,,,,,,,,,,,,,,,,,,,,,,,,,,,,,,,,,,,125,001,2010-10-16_14h18.11.740,eb_01,2022.2.4,119.96690227622942,
9,stimuli/9.png,l,1,0,1,0,61,0,61,0,0,0,0,0,,,,,,,,,,,,,,,,,,338.39115218946245,338.39115218946245,338.39115218946245,338.39115218946245,l,1,0.6225761546520516,339.0412193509692,339.0412193509692,339.0412193509692,,,,,,,,,,,,,,,,,,,,,,,,,,,,125,001,2010-10-16_14h18.11.740,eb_01,2022.2.4,119.96690227622942,
,,,1,0,1,0,61,0,61,0,,,,,,,,,,,,,,,,,,,,,,,,,,,,,,,,,,,,,,,,,,,,,,,,,,,,,,,,,,,125,001,2010-10-16_14h18.11.740,eb_01,2022.2.4,119.96690227622942,
8,stimuli/8.png,l,1,0,1,0,62,0,62,0,0,0,0,0,,,,,,,,,,,,,,,,,,340.04133646853734,340.04133646853734,340.04133646853734,340.04133646853734,l,1,0.6353809093998279,340.69968909508316,340.69968909508316,340.69968909508316,,,,,,,,,,,,,,,,,,,,,,,,,,,,125,001,2010-10-16_14h18.11.740,eb_01,2022.2.4,119.96690227622942,
,,,1,0,1,0,62,0,62,0,,,,,,,,,,,,,,,,,,,,,,,,,,,,,,,,,,,,,,,,,,,,,,,,,,,,,,,,,,,125,001,2010-10-16_14h18.11.740,eb_01,2022.2.4,119.96690227622942,
6,stimuli/6.png,s,1,0,1,0,63,0,63,0,0,0,0,0,,,,,,,,,,,,,,,,,,341.7247930067533,341.7247930067533,341.7247930067533,341.7247930067533,s,1,0.5039466114540119,342.2581893260067,342.2581893260067,342.2581893260067,,,,,,,,,,,,,,,,,,,,,,,,,,,,125,001,2010-10-16_14h18.11.740,eb_01,2022.2.4,119.96690227622942,
,,,1,0,1,0,63,0,63,0,,,,,,,,,,,,,,,,,,,,,,,,,,,,,,,,,,,,,,,,,,,,,,,,,,,,,,,,,,,125,001,2010-10-16_14h18.11.740,eb_01,2022.2.4,119.96690227622942,
9,stimuli/9.png,l,1,0,1,0,64,0,64,0,0,0,0,0,,,,,,,,,,,,,,,,,,343.2665973419207,343.2665973419207,343.2665973419207,343.2665973419207,l,1,0.4581961986841634,343.74995819386095,343.74995819386095,343.74995819386095,,,,,,,,,,,,,,,,,,,,,,,,,,,,125,001,2010-10-16_14h18.11.740,eb_01,2022.2.4,119.96690227622942,
,,,1,0,1,0,64,0,64,0,,,,,,,,,,,,,,,,,,,,,,,,,,,,,,,,,,,,,,,,,,,,,,,,,,,,,,,,,,,125,001,2010-10-16_14h18.11.740,eb_01,2022.2.4,119.96690227622942,
8,stimuli/8.png,l,1,0,1,0,65,0,65,0,0,0,0,0,,,,,,,,,,,,,,,,,,344.7500568985997,344.7500568985997,344.7500568985997,344.7500568985997,l,1,0.6787563708494417,345.4500958371791,345.4500958371791,345.4500958371791,,,,,,,,,,,,,,,,,,,,,,,,,,,,125,001,2010-10-16_14h18.11.740,eb_01,2022.2.4,119.96690227622942,
,,,1,0,1,0,65,0,65,0,,,,,,,,,,,,,,,,,,,,,,,,,,,,,,,,,,,,,,,,,,,,,,,,,,,,,,,,,,,125,001,2010-10-16_14h18.11.740,eb_01,2022.2.4,119.96690227622942,
9,stimuli/9.png,l,1,0,1,0,66,0,66,0,0,0,0,0,,,,,,,,,,,,,,,,,,346.4668472732301,346.4668472732301,346.4668472732301,346.4668472732301,l,1,0.5220017351966817,347.01690839775256,347.01690839775256,347.01690839775256,,,,,,,,,,,,,,,,,,,,,,,,,,,,125,001,2010-10-16_14h18.11.740,eb_01,2022.2.4,119.96690227622942,
,,,1,0,1,0,66,0,66,0,,,,,,,,,,,,,,,,,,,,,,,,,,,,,,,,,,,,,,,,,,,,,,,,,,,,,,,,,,,125,001,2010-10-16_14h18.11.740,eb_01,2022.2.4,119.96690227622942,
6,stimuli/6.png,s,1,0,1,0,67,0,67,0,0,0,0,0,,,,,,,,,,,,,,,,,,348.03368217064417,348.03368217064417,348.03368217064417,348.03368217064417,s,1,0.763176714302972,348.82539549822104,348.82539549822104,348.82539549822104,,,,,,,,,,,,,,,,,,,,,,,,,,,,125,001,2010-10-16_14h18.11.740,eb_01,2022.2.4,119.96690227622942,
,,,1,0,1,0,67,0,67,0,,,,,,,,,,,,,,,,,,,,,,,,,,,,,,,,,,,,,,,,,,,,,,,,,,,,,,,,,,,125,001,2010-10-16_14h18.11.740,eb_01,2022.2.4,119.96690227622942,
9,stimuli/9.png,l,1,0,1,0,68,0,68,0,0,0,0,0,,,,,,,,,,,,,,,,,,349.8338367175602,349.8338367175602,349.8338367175602,349.8338367175602,l,1,0.4190553829248529,350.2838601108815,350.2838601108815,350.2838601108815,,,,,,,,,,,,,,,,,,,,,,,,,,,,125,001,2010-10-16_14h18.11.740,eb_01,2022.2.4,119.96690227622942,
,,,1,0,1,0,68,0,68,0,,,,,,,,,,,,,,,,,,,,,,,,,,,,,,,,,,,,,,,,,,,,,,,,,,,,,,,,,,,125,001,2010-10-16_14h18.11.740,eb_01,2022.2.4,119.96690227622942,
6,stimuli/6.png,s,1,0,1,0,69,0,69,0,0,0,0,0,,,,,,,,,,,,,,,,,,351.30062663942226,351.30062663942226,351.30062663942226,351.30062663942226,s,1,0.536295815021731,351.86734079706366,351.86734079706366,351.86734079706366,,,,,,,,,,,,,,,,,,,,,,,,,,,,125,001,2010-10-16_14h18.11.740,eb_01,2022.2.4,119.96690227622942,
,,,1,0,1,0,69,0,69,0,,,,,,,,,,,,,,,,,,,,,,,,,,,,,,,,,,,,,,,,,,,,,,,,,,,,,,,,,,,125,001,2010-10-16_14h18.11.740,eb_01,2022.2.4,119.96690227622942,
8,stimuli/8.png,l,1,0,1,0,70,0,70,0,0,0,0,0,,,,,,,,,,,,,,,,,,352.86742772968137,352.86742772968137,352.86742772968137,352.86742772968137,l,1,0.6015399659227114,353.4924673474452,353.4924673474452,353.4924673474452,,,,,,,,,,,,,,,,,,,,,,,,,,,,125,001,2010-10-16_14h18.11.740,eb_01,2022.2.4,119.96690227622942,
,,,1,0,1,0,70,0,70,0,,,,,,,,,,,,,,,,,,,,,,,,,,,,,,,,,,,,,,,,,,,,,,,,,,,,,,,,,,,125,001,2010-10-16_14h18.11.740,eb_01,2022.2.4,119.96690227622942,
3,stimuli/3.png,l,1,0,1,0,71,0,71,0,0,0,0,0,,,,,,,,,,,,,,,,,,354.50088562621386,354.50088562621386,354.50088562621386,354.50088562621386,l,1,0.43212093552574515,354.9425915584725,354.9425915584725,354.9425915584725,355.9593091873976,355.9593091873976,355.9593091873976,,,,,,,,,,,,,,,,,,,,,,,,,125,001,2010-10-16_14h18.11.740,eb_01,2022.2.4,119.96690227622942,
,,,1,0,1,0,71,0,71,0,,,,,,,,,,,,,,,,,,,,,,,,,,,,,,,,,,,,,,,,,,,,,,,,,,,,,,,,,,,125,001,2010-10-16_14h18.11.740,eb_01,2022.2.4,119.96690227622942,
4,stimuli/4.png,l,1,0,1,0,72,0,72,0,0,0,0,0,,,,,,,,,,,,,,,,,,355.9593091873976,355.9593091873976,355.9593091873976,355.9593091873976,l,1,0.4857269797939807,356.467687320197,356.467687320197,356.467687320197,,,,,,,,,,,,,,,,,,,,,,,,,,,,125,001,2010-10-16_14h18.11.740,eb_01,2022.2.4,119.96690227622942,
,,,1,0,1,0,72,0,72,0,,,,,,,,,,,,,,,,,,,,,,,,,,,,,,,,,,,,,,,,,,,,,,,,,,,,,,,,,,,125,001,2010-10-16_14h18.11.740,eb_01,2022.2.4,119.96690227622942,
1,stimuli/1.png,s,1,0,1,0,73,0,73,0,0,0,0,0,,,,,,,,,,,,,,,,,,357.4844556598109,357.4844556598109,357.4844556598109,357.4844556598109,s,1,0.6316080933611374,358.1428771080391,358.1428771080391,358.1428771080391,,,,,,,,,,,,,,,,,,,,,,,,,,,,125,001,2010-10-16_14h18.11.740,eb_01,2022.2.4,119.96690227622942,
,,,1,0,1,0,73,0,73,0,,,,,,,,,,,,,,,,,,,,,,,,,,,,,,,,,,,,,,,,,,,,,,,,,,,,,,,,,,,125,001,2010-10-16_14h18.11.740,eb_01,2022.2.4,119.96690227622942,
4,stimuli/4.png,l,1,0,1,0,74,0,74,0,0,0,0,0,,,,,,,,,,,,,,,,,,359.15125554270344,359.15125554270344,359.15125554270344,359.15125554270344,l,1,0.4688261282572057,359.643004488491,359.643004488491,359.643004488491,,,,,,,,,,,,,,,,,,,,,,,,,,,,125,001,2010-10-16_14h18.11.740,eb_01,2022.2.4,119.96690227622942,
,,,1,0,1,0,74,0,74,0,,,,,,,,,,,,,,,,,,,,,,,,,,,,,,,,,,,,,,,,,,,,,,,,,,,,,,,,,,,125,001,2010-10-16_14h18.11.740,eb_01,2022.2.4,119.96690227622942,
3,stimuli/3.png,l,1,0,1,0,75,0,75,0,0,0,0,0,,,,,,,,,,,,,,,,,,360.65142035248573,360.65142035248573,360.65142035248573,360.65142035248573,l,1,0.47270911931991577,361.13476792306756,361.13476792306756,361.13476792306756,362.14320099246106,362.14320099246106,362.14320099246106,,,,,,,,,,,,,,,,,,,,,,,,,125,001,2010-10-16_14h18.11.740,eb_01,2022.2.4,119.96690227622942,
,,,1,0,1,0,75,0,75,0,,,,,,,,,,,,,,,,,,,,,,,,,,,,,,,,,,,,,,,,,,,,,,,,,,,,,,,,,,,125,001,2010-10-16_14h18.11.740,eb_01,2022.2.4,119.96690227622942,
8,stimuli/8.png,l,1,0,1,0,76,0,76,0,0,0,0,0,,,,,,,,,,,,,,,,,,362.14320099246106,362.14320099246106,362.14320099246106,362.14320099246106,l,1,0.6609729116025846,362.82659293489996,362.82659293489996,362.82659293489996,,,,,,,,,,,,,,,,,,,,,,,,,,,,125,001,2010-10-16_14h18.11.740,eb_01,2022.2.4,119.96690227622942,
,,,1,0,1,0,76,0,76,0,,,,,,,,,,,,,,,,,,,,,,,,,,,,,,,,,,,,,,,,,,,,,,,,,,,,,,,,,,,125,001,2010-10-16_14h18.11.740,eb_01,2022.2.4,119.96690227622942,
3,stimuli/3.png,l,1,0,1,0,77,0,77,0,0,0,0,0,,,,,,,,,,,,,,,,,,363.8350163451396,363.8350163451396,363.8350163451396,363.8350163451396,l,1,0.43316835307632573,364.27673374765436,364.27673374765436,364.27673374765436,365.2934746189858,365.2934746189858,365.2934746189858,,,,,,,,,,,,,,,,,,,,,,,,,125,001,2010-10-16_14h18.11.740,eb_01,2022.2.4,119.96690227622942,
,,,1,0,1,0,77,0,77,0,,,,,,,,,,,,,,,,,,,,,,,,,,,,,,,,,,,,,,,,,,,,,,,,,,,,,,,,,,,125,001,2010-10-16_14h18.11.740,eb_01,2022.2.4,119.96690227622942,
4,stimuli/4.png,l,1,0,1,0,78,0,78,0,0,0,0,0,,,,,,,,,,,,,,,,,,365.2934746189858,365.2934746189858,365.2934746189858,365.2934746189858,l,1,0.6307574816746637,365.94353996939026,365.94353996939026,365.94353996939026,,,,,,,,,,,,,,,,,,,,,,,,,,,,125,001,2010-10-16_14h18.11.740,eb_01,2022.2.4,119.96690227622942,
,,,1,0,1,0,78,0,78,0,,,,,,,,,,,,,,,,,,,,,,,,,,,,,,,,,,,,,,,,,,,,,,,,,,,,,,,,,,,125,001,2010-10-16_14h18.11.740,eb_01,2022.2.4,119.96690227622942,
2,stimuli/2.png,s,1,0,1,0,79,0,79,0,0,0,0,0,,,,,,,,,,,,,,,,,,366.9519621722284,366.9519621722284,366.9519621722284,366.9519621722284,s,1,0.6602901281730738,367.6270194481476,367.6270194481476,367.6270194481476,368.6520753657678,368.6520753657678,368.6520753657678,,,,,,,,,,,,,,,,,,,,,,,,,125,001,2010-10-16_14h18.11.740,eb_01,2022.2.4,119.96690227622942,
,,,1,0,1,0,79,0,79,0,,,,,,,,,,,,,,,,,,,,,,,,,,,,,,,,,,,,,,,,,,,,,,,,,,,,,,,,,,,125,001,2010-10-16_14h18.11.740,eb_01,2022.2.4,119.96690227622942,
1,stimuli/1.png,s,1,0,1,0,80,0,80,0,0,0,0,0,,,,,,,,,,,,,,,,,,368.6520753657678,368.6520753657678,368.6520753657678,368.6520753657678,s,1,0.904207107523689,369.58552631974453,369.58552631974453,369.58552631974453,,,,,,,,,,,,,,,,,,,,,,,,,,,,125,001,2010-10-16_14h18.11.740,eb_01,2022.2.4,119.96690227622942,
,,,1,0,1,0,80,0,80,0,,,,,,,,,,,,,,,,,,,,,,,,,,,,,,,,,,,,,,,,,,,,,,,,,,,,,,,,,,,125,001,2010-10-16_14h18.11.740,eb_01,2022.2.4,119.96690227622942,
2,stimuli/2.png,s,1,0,1,0,81,0,81,0,0,0,0,0,,,,,,,,,,,,,,,,,,370.5855743138236,370.5855743138236,370.5855743138236,370.5855743138236,s,1,0.8747493196569849,371.4689701802854,371.4689701802854,371.4689701802854,372.48573550142464,372.48573550142464,372.48573550142464,,,,,,,,,,,,,,,,,,,,,,,,,125,001,2010-10-16_14h18.11.740,eb_01,2022.2.4,119.96690227622942,
,,,1,0,1,0,81,0,81,0,,,,,,,,,,,,,,,,,,,,,,,,,,,,,,,,,,,,,,,,,,,,,,,,,,,,,,,,,,,125,001,2010-10-16_14h18.11.740,eb_01,2022.2.4,119.96690227622942,
1,stimuli/1.png,s,1,0,1,0,82,0,82,0,0,0,0,0,,,,,,,,,,,,,,,,,,372.48573550142464,372.48573550142464,372.48573550142464,372.48573550142464,s,1,0.6615832511452027,373.1774663362303,373.1774663362303,373.1774663362303,,,,,,,,,,,,,,,,,,,,,,,,,,,,125,001,2010-10-16_14h18.11.740,eb_01,2022.2.4,119.96690227622942,
,,,1,0,1,0,82,0,82,0,,,,,,,,,,,,,,,,,,,,,,,,,,,,,,,,,,,,,,,,,,,,,,,,,,,,,,,,,,,125,001,2010-10-16_14h18.11.740,eb_01,2022.2.4,119.96690227622942,
2,stimuli/2.png,s,1,0,1,0,83,0,83,0,0,0,0,0,,,,,,,,,,,,,,,,,,374.1775864723022,374.1775864723022,374.1775864723022,374.1775864723022,s,1,0.5618111474905163,374.7526259391161,374.7526259391161,374.7526259391161,375.7777038917411,375.7777038917411,375.7777038917411,,,,,,,,,,,,,,,,,,,,,,,,,125,001,2010-10-16_14h18.11.740,eb_01,2022.2.4,119.96690227622942,
,,,1,0,1,0,83,0,83,0,,,,,,,,,,,,,,,,,,,,,,,,,,,,,,,,,,,,,,,,,,,,,,,,,,,,,,,,,,,125,001,2010-10-16_14h18.11.740,eb_01,2022.2.4,119.96690227622942,
1,stimuli/1.png,s,1,0,1,0,84,0,84,0,0,0,0,0,,,,,,,,,,,,,,,,,,375.7777038917411,375.7777038917411,375.7777038917411,375.7777038917411,s,1,0.5137422292027622,376.31939865555614,376.31939865555614,376.31939865555614,,,,,,,,,,,,,,,,,,,,,,,,,,,,125,001,2010-10-16_14h18.11.740,eb_01,2022.2.4,119.96690227622942,
,,,1,0,1,0,84,0,84,0,,,,,,,,,,,,,,,,,,,,,,,,,,,,,,,,,,,,,,,,,,,,,,,,,,,,,,,,,,,125,001,2010-10-16_14h18.11.740,eb_01,2022.2.4,119.96690227622942,
4,stimuli/4.png,l,1,0,1,0,85,0,85,0,0,0,0,0,,,,,,,,,,,,,,,,,,377.3278540618194,377.3278540618194,377.3278540618194,377.3278540618194,l,1,0.5716034448705614,377.9195516932232,377.9195516932232,377.9195516932232,,,,,,,,,,,,,,,,,,,,,,,,,,,,125,001,2010-10-16_14h18.11.740,eb_01,2022.2.4,119.96690227622942,
,,,1,0,1,0,85,0,85,0,,,,,,,,,,,,,,,,,,,,,,,,,,,,,,,,,,,,,,,,,,,,,,,,,,,,,,,,,,,125,001,2010-10-16_14h18.11.740,eb_01,2022.2.4,119.96690227622942,
3,stimuli/3.png,l,1,0,1,0,86,0,86,0,0,0,0,0,,,,,,,,,,,,,,,,,,378.9279681609187,378.9279681609187,378.9279681609187,378.9279681609187,l,1,0.947550271084765,379.8863968535152,379.8863968535152,379.8863968535152,380.90314919510274,380.90314919510274,380.90314919510274,,,,,,,,,,,,,,,,,,,,,,,,,125,001,2010-10-16_14h18.11.740,eb_01,2022.2.4,119.96690227622942,
,,,1,0,1,0,86,0,86,0,,,,,,,,,,,,,,,,,,,,,,,,,,,,,,,,,,,,,,,,,,,,,,,,,,,,,,,,,,,125,001,2010-10-16_14h18.11.740,eb_01,2022.2.4,119.96690227622942,
4,stimuli/4.png,l,1,0,1,0,87,0,87,0,0,0,0,0,,,,,,,,,,,,,,,,,,380.90314919510274,380.90314919510274,380.90314919510274,380.90314919510274,l,1,0.6283876617671922,381.5532021696854,381.5532021696854,381.5532021696854,,,,,,,,,,,,,,,,,,,,,,,,,,,,125,001,2010-10-16_14h18.11.740,eb_01,2022.2.4,119.96690227622942,
,,,1,0,1,0,87,0,87,0,,,,,,,,,,,,,,,,,,,,,,,,,,,,,,,,,,,,,,,,,,,,,,,,,,,,,,,,,,,125,001,2010-10-16_14h18.11.740,eb_01,2022.2.4,119.96690227622942,
3,stimuli/3.png,l,1,0,1,0,88,0,88,0,0,0,0,0,,,,,,,,,,,,,,,,,,382.5616165244428,382.5616165244428,382.5616165244428,382.5616165244428,l,1,0.7219486096873879,383.2950206917594,383.2950206917594,383.2950206917594,384.3117531113094,384.3117531113094,384.3117531113094,,,,,,,,,,,,,,,,,,,,,,,,,125,001,2010-10-16_14h18.11.740,eb_01,2022.2.4,119.96690227622942,
,,,1,0,1,0,88,0,88,0,,,,,,,,,,,,,,,,,,,,,,,,,,,,,,,,,,,,,,,,,,,,,,,,,,,,,,,,,,,125,001,2010-10-16_14h18.11.740,eb_01,2022.2.4,119.96690227622942,
4,stimuli/4.png,l,1,0,1,0,89,0,89,0,0,0,0,0,,,,,,,,,,,,,,,,,,384.3117531113094,384.3117531113094,384.3117531113094,384.3117531113094,l,1,0.5638428959646262,384.89510973735014,384.89510973735014,384.89510973735014,,,,,,,,,,,,,,,,,,,,,,,,,,,,125,001,2010-10-16_14h18.11.740,eb_01,2022.2.4,119.96690227622942,
,,,1,0,1,0,89,0,89,0,,,,,,,,,,,,,,,,,,,,,,,,,,,,,,,,,,,,,,,,,,,,,,,,,,,,,,,,,,,125,001,2010-10-16_14h18.11.740,eb_01,2022.2.4,119.96690227622942,
1,stimuli/1.png,s,1,0,1,0,90,0,90,0,0,0,0,0,,,,,,,,,,,,,,,,,,385.920231156284,385.920231156284,385.920231156284,385.920231156284,s,1,0.69941192746046,386.6452737925283,386.6452737925283,386.6452737925283,,,,,,,,,,,,,,,,,,,,,,,,,,,,125,001,2010-10-16_14h18.11.740,eb_01,2022.2.4,119.96690227622942,
,,,1,0,1,0,90,0,90,0,,,,,,,,,,,,,,,,,,,,,,,,,,,,,,,,,,,,,,,,,,,,,,,,,,,,,,,,,,,125,001,2010-10-16_14h18.11.740,eb_01,2022.2.4,119.96690227622942,
4,stimuli/4.png,l,1,0,1,0,91,0,91,0,0,0,0,0,,,,,,,,,,,,,,,,,,387.653716219269,387.653716219269,387.653716219269,387.653716219269,l,1,0.5969337435963098,388.2703967207053,388.2703967207053,388.2703967207053,,,,,,,,,,,,,,,,,,,,,,,,,,,,125,001,2010-10-16_14h18.11.740,eb_01,2022.2.4,119.96690227622942,
,,,1,0,1,0,91,0,91,0,,,,,,,,,,,,,,,,,,,,,,,,,,,,,,,,,,,,,,,,,,,,,,,,,,,,,,,,,,,125,001,2010-10-16_14h18.11.740,eb_01,2022.2.4,119.96690227622942,
1,stimuli/1.png,s,1,0,1,0,92,0,92,0,0,0,0,0,,,,,,,,,,,,,,,,,,389.28718407682027,389.28718407682027,389.28718407682027,389.28718407682027,s,1,0.7555453569802921,390.07058235810837,390.07058235810837,390.07058235810837,,,,,,,,,,,,,,,,,,,,,,,,,,,,125,001,2010-10-16_14h18.11.740,eb_01,2022.2.4,119.96690227622942,
,,,1,0,1,0,92,0,92,0,,,,,,,,,,,,,,,,,,,,,,,,,,,,,,,,,,,,,,,,,,,,,,,,,,,,,,,,,,,125,001,2010-10-16_14h18.11.740,eb_01,2022.2.4,119.96690227622942,
4,stimuli/4.png,l,1,0,1,0,93,0,93,0,0,0,0,0,,,,,,,,,,,,,,,,,,391.07900637204875,391.07900637204875,391.07900637204875,391.07900637204875,l,1,0.8037147910799831,391.9040864376002,391.9040864376002,391.9040864376002,,,,,,,,,,,,,,,,,,,,,,,,,,,,125,001,2010-10-16_14h18.11.740,eb_01,2022.2.4,119.96690227622942,
,,,1,0,1,0,93,0,93,0,,,,,,,,,,,,,,,,,,,,,,,,,,,,,,,,,,,,,,,,,,,,,,,,,,,,,,,,,,,125,001,2010-10-16_14h18.11.740,eb_01,2022.2.4,119.96690227622942,
1,stimuli/1.png,s,1,0,1,0,94,0,94,0,0,0,0,0,,,,,,,,,,,,,,,,,,392.92917374754325,392.92917374754325,392.92917374754325,392.92917374754325,s,1,0.5136118302471004,393.47092978679575,393.47092978679575,393.47092978679575,,,,,,,,,,,,,,,,,,,,,,,,,,,,125,001,2010-10-16_14h18.11.740,eb_01,2022.2.4,119.96690227622942,
,,,1,0,1,0,94,0,94,0,,,,,,,,,,,,,,,,,,,,,,,,,,,,,,,,,,,,,,,,,,,,,,,,,,,,,,,,,,,125,001,2010-10-16_14h18.11.740,eb_01,2022.2.4,119.96690227622942,
2,stimuli/2.png,s,1,0,1,0,95,0,95,0,0,0,0,0,,,,,,,,,,,,,,,,,,394.470926768292,394.470926768292,394.470926768292,394.470926768292,s,1,0.5718775241402909,395.05434406609857,395.05434406609857,395.05434406609857,396.071111198311,396.071111198311,396.071111198311,,,,,,,,,,,,,,,,,,,,,,,,,125,001,2010-10-16_14h18.11.740,eb_01,2022.2.4,119.96690227622942,
,,,1,0,1,0,95,0,95,0,,,,,,,,,,,,,,,,,,,,,,,,,,,,,,,,,,,,,,,,,,,,,,,,,,,,,,,,,,,125,001,2010-10-16_14h18.11.740,eb_01,2022.2.4,119.96690227622942,
4,stimuli/4.png,l,1,0,1,0,96,0,96,0,0,0,0,0,,,,,,,,,,,,,,,,,,396.071111198311,396.071111198311,396.071111198311,396.071111198311,l,1,0.5397326726524625,396.6294577878725,396.6294577878725,396.6294577878725,,,,,,,,,,,,,,,,,,,,,,,,,,,,125,001,2010-10-16_14h18.11.740,eb_01,2022.2.4,119.96690227622942,
,,,1,0,1,0,96,0,96,0,,,,,,,,,,,,,,,,,,,,,,,,,,,,,,,,,,,,,,,,,,,,,,,,,,,,,,,,,,,125,001,2010-10-16_14h18.11.740,eb_01,2022.2.4,119.96690227622942,
3,stimuli/3.png,l,1,0,1,0,97,0,97,0,0,0,0,0,,,,,,,,,,,,,,,,,,397.6378709352284,397.6378709352284,397.6378709352284,397.6378709352284,l,1,0.5089932320988737,398.16298028017627,398.16298028017627,398.16298028017627,399.1796740629652,399.1796740629652,399.1796740629652,,,,,,,,,,,,,,,,,,,,,,,,,125,001,2010-10-16_14h18.11.740,eb_01,2022.2.4,119.96690227622942,
,,,1,0,1,0,97,0,97,0,,,,,,,,,,,,,,,,,,,,,,,,,,,,,,,,,,,,,,,,,,,,,,,,,,,,,,,,,,,125,001,2010-10-16_14h18.11.740,eb_01,2022.2.4,119.96690227622942,
4,stimuli/4.png,l,1,0,1,0,98,0,98,0,0,0,0,0,,,,,,,,,,,,,,,,,,399.1796740629652,399.1796740629652,399.1796740629652,399.1796740629652,l,1,0.5832466830033809,399.77975918451557,399.77975918451557,399.77975918451557,,,,,,,,,,,,,,,,,,,,,,,,,,,,125,001,2010-10-16_14h18.11.740,eb_01,2022.2.4,119.96690227622942,
,,,1,0,1,0,98,0,98,0,,,,,,,,,,,,,,,,,,,,,,,,,,,,,,,,,,,,,,,,,,,,,,,,,,,,,,,,,,,125,001,2010-10-16_14h18.11.740,eb_01,2022.2.4,119.96690227622942,
2,stimuli/2.png,s,1,0,1,0,99,0,99,0,0,0,0,0,,,,,,,,,,,,,,,,,,400.7881780670141,400.7881780670141,400.7881780670141,400.7881780670141,s,1,0.4147645932389423,401.2131793498702,401.2131793498702,401.2131793498702,402.21329103416065,402.21329103416065,402.21329103416065,,,,,,,,,,,,,,,,,,,,,,,,,125,001,2010-10-16_14h18.11.740,eb_01,2022.2.4,119.96690227622942,
,,,1,0,1,0,99,0,99,0,,,,,,,,,,,,,,,,,,,,,,,,,,,,,,,,,,,,,,,,,,,,,,,,,,,,,,,,,,,125,001,2010-10-16_14h18.11.740,eb_01,2022.2.4,119.96690227622942,
,,,1,0,1,0,,,,,,,,,,,,,,,,,,,,,,,,,,,,,,,,,,,,,,,402.21329103416065,402.21329103416065,return,30.78027376794489,,,,,,,,,,,,,,,,,,,,,125,001,2010-10-16_14h18.11.740,eb_01,2022.2.4,119.96690227622942,
3,stimuli/3.png,l,2,0,2,0,0,0,0,0,0,0,0,0,,,,,,,,,,,,,,,,,,433.0158854300098,433.0158854300098,433.0158854300098,433.0158854300098,l,1,1.2097188781190198,434.24098239914747,434.24098239914747,434.24098239914747,435.24940188534674,435.24940188534674,435.24940188534674,,,,,,,,,,,,,,,,,,,,,,,,,125,001,2010-10-16_14h18.11.740,eb_01,2022.2.4,119.96690227622942,
,,,2,0,2,0,0,0,0,0,,,,,,,,,,,,,,,,,,,,,,,,,,,,,,,,,,,,,,,,,,,,,,,,,,,,,,,,,,,125,001,2010-10-16_14h18.11.740,eb_01,2022.2.4,119.96690227622942,
8,stimuli/8.png,l,2,0,2,0,1,0,1,0,0,0,0,0,,,,,,,,,,,,,,,,,,435.24940188534674,435.24940188534674,435.24940188534674,435.24940188534674,l,1,0.6232245272549335,435.8911217026762,435.8911217026762,435.8911217026762,,,,,,,,,,,,,,,,,,,,,,,,,,,,125,001,2010-10-16_14h18.11.740,eb_01,2022.2.4,119.96690227622942,
,,,2,0,2,0,1,0,1,0,,,,,,,,,,,,,,,,,,,,,,,,,,,,,,,,,,,,,,,,,,,,,,,,,,,,,,,,,,,125,001,2010-10-16_14h18.11.740,eb_01,2022.2.4,119.96690227622942,
6,stimuli/6.png,s,2,0,2,0,2,0,2,0,0,0,0,0,,,,,,,,,,,,,,,,,,436.9162075033819,436.9162075033819,436.9162075033819,436.9162075033819,s,1,0.5004511950246524,437.44962585761095,437.44962585761095,437.44962585761095,,,,,,,,,,,,,,,,,,,,,,,,,,,,125,001,2010-10-16_14h18.11.740,eb_01,2022.2.4,119.96690227622942,
,,,2,0,2,0,2,0,2,0,,,,,,,,,,,,,,,,,,,,,,,,,,,,,,,,,,,,,,,,,,,,,,,,,,,,,,,,,,,125,001,2010-10-16_14h18.11.740,eb_01,2022.2.4,119.96690227622942,
9,stimuli/9.png,l,2,0,2,0,3,0,3,0,0,0,0,0,,,,,,,,,,,,,,,,,,438.4580559085589,438.4580559085589,438.4580559085589,438.4580559085589,l,1,0.7346440949186217,439.224798440031,439.224798440031,439.224798440031,,,,,,,,,,,,,,,,,,,,,,,,,,,,125,001,2010-10-16_14h18.11.740,eb_01,2022.2.4,119.96690227622942,
,,,2,0,2,0,3,0,3,0,,,,,,,,,,,,,,,,,,,,,,,,,,,,,,,,,,,,,,,,,,,,,,,,,,,,,,,,,,,125,001,2010-10-16_14h18.11.740,eb_01,2022.2.4,119.96690227622942,
8,stimuli/8.png,l,2,0,2,0,4,0,4,0,0,0,0,0,,,,,,,,,,,,,,,,,,440.2248545840266,440.2248545840266,440.2248545840266,440.2248545840266,l,1,0.9519017324782908,441.1999290653912,441.1999290653912,441.1999290653912,,,,,,,,,,,,,,,,,,,,,,,,,,,,125,001,2010-10-16_14h18.11.740,eb_01,2022.2.4,119.96690227622942,
,,,2,0,2,0,4,0,4,0,,,,,,,,,,,,,,,,,,,,,,,,,,,,,,,,,,,,,,,,,,,,,,,,,,,,,,,,,,,125,001,2010-10-16_14h18.11.740,eb_01,2022.2.4,119.96690227622942,
9,stimuli/9.png,l,2,0,2,0,5,0,5,0,0,0,0,0,,,,,,,,,,,,,,,,,,442.21671642150613,442.21671642150613,442.21671642150613,442.21671642150613,l,1,0.9921035490115173,443.24176479288144,443.24176479288144,443.24176479288144,,,,,,,,,,,,,,,,,,,,,,,,,,,,125,001,2010-10-16_14h18.11.740,eb_01,2022.2.4,119.96690227622942,
,,,2,0,2,0,5,0,5,0,,,,,,,,,,,,,,,,,,,,,,,,,,,,,,,,,,,,,,,,,,,,,,,,,,,,,,,,,,,125,001,2010-10-16_14h18.11.740,eb_01,2022.2.4,119.96690227622942,
8,stimuli/8.png,l,2,0,2,0,6,0,6,0,0,0,0,0,,,,,,,,,,,,,,,,,,444.2418698364927,444.2418698364927,444.2418698364927,444.2418698364927,l,1,0.7509367198508698,445.0169382808381,445.0169382808381,445.0169382808381,,,,,,,,,,,,,,,,,,,,,,,,,,,,125,001,2010-10-16_14h18.11.740,eb_01,2022.2.4,119.96690227622942,
,,,2,0,2,0,6,0,6,0,,,,,,,,,,,,,,,,,,,,,,,,,,,,,,,,,,,,,,,,,,,,,,,,,,,,,,,,,,,125,001,2010-10-16_14h18.11.740,eb_01,2022.2.4,119.96690227622942,
9,stimuli/9.png,l,2,0,2,0,7,0,7,0,0,0,0,0,,,,,,,,,,,,,,,,,,446.0336870002502,446.0336870002502,446.0336870002502,446.0336870002502,l,1,0.5191184694413096,446.5837348433852,446.5837348433852,446.5837348433852,,,,,,,,,,,,,,,,,,,,,,,,,,,,125,001,2010-10-16_14h18.11.740,eb_01,2022.2.4,119.96690227622942,
,,,2,0,2,0,7,0,7,0,,,,,,,,,,,,,,,,,,,,,,,,,,,,,,,,,,,,,,,,,,,,,,,,,,,,,,,,,,,125,001,2010-10-16_14h18.11.740,eb_01,2022.2.4,119.96690227622942,
