index,stimulus,correct_answer,block.thisRepN,block.thisTrialN,block.thisN,block.thisIndex,trial.thisRepN,trial.thisTrialN,trial.thisN,trial.thisIndex,display_row.thisRepN,display_row.thisTrialN,display_row.thisN,display_row.thisIndex,pair_questions.thisRepN,pair_questions.thisTrialN,pair_questions.thisN,pair_questions.thisIndex,welcome_text.started,instructions_0_keypress.started,instructions_0_keypress.keys,instructions_0_keypress.rt,instructions_1_keypress.started,instructions_1_text.started,instructions_1_keypress.keys,instructions_1_keypress.rt,instructions_2_keypress.started,instructions_2_text.started,instructions_2_keypress.keys,instructions_2_keypress.rt,text_countdown.started,text_countdown.stopped,image.started,size_question.started,size_resp.started,keypress_options.started,size_resp.keys,size_resp.corr,size_resp.rt,fb_image.started,fb.started,fb_size_question.started,fb_image.stopped,fb.stopped,fb_size_question.stopped,block_break_text.started,block_break_keypress.started,block_break_keypress.keys,block_break_keypress.rt,seq_reveal.started,seq_reveal_adv.started,seq_reveal_adv.keys,seq_reveal_adv.rt,instruction_2afc_text.started,instruction_2afc_keypress.started,instruction_2afc_keypress.keys,instruction_2afc_keypress.rt,dist_2afc_test.started,dist_2afc_resp.started,text.started,stim_00.started,stim_01.started,stim_10.started,stim_11.started,dist_2afc_resp.keys,dist_2afc_resp.rt,graph.started,debrief_text.started,debriefing_title.started,participant,session,date,expName,psychopyVersion,frameRate,
,,,,,,,,,,,,,,,,,,,20.195790395111544,20.195790395111544,return,17.869882157072425,,,,,,,,,,,,,,,,,,,,,,,,,,,,,,,,,,,,,,,,,,,,,,,,126,001,2023-03-03_14h17.44.331,eb_01,2022.2.4,59.995979620633264,
,,,,,,,,,,,,,,,,,,,,,,,38.09470554499421,38.09470554499421,return,2.891008058853913,,,,,,,,,,,,,,,,,,,,,,,,,,,,,,,,,,,,,,,,,,,,126,001,2023-03-03_14h17.44.331,eb_01,2022.2.4,59.995979620633264,
,,,,,,,,,,,,,,,,,,,,,,,,,,,41.01115910531371,41.01115910531371,space,2.4856813058722764,,,,,,,,,,,,,,,,,,,,,,,,,,,,,,,,,,,,,,,,126,001,2023-03-03_14h17.44.331,eb_01,2022.2.4,59.995979620633264,
4,stimuli/4.png,l,0,0,0,0,0,0,0,0,0,0,0,0,,,,,,,,,,,,,,,,,43.527378429775126,48.54405173714622,48.54405173714622,48.54405173714622,48.54405173714622,48.54405173714622,l,1,0.9448472933436278,49.527353678044165,49.527353678044165,49.527353678044165,,,,,,,,,,,,,,,,,,,,,,,,,,,,126,001,2023-03-03_14h17.44.331,eb_01,2022.2.4,59.995979620633264,
,,,0,0,0,0,0,0,0,0,,,,,,,,,,,,,,,,,,,,,,,,,,,,,,,,,,,,,,,,,,,,,,,,,,,,,,,,,,,,126,001,2023-03-03_14h17.44.331,eb_01,2022.2.4,59.995979620633264,
2,stimuli/2.png,s,0,0,0,0,1,0,1,0,0,0,0,0,,,,,,,,,,,,,,,,,,,50.52726191555848,50.52726191555848,50.52726191555848,50.52726191555848,s,1,0.5537047898105811,51.110563856433146,51.110563856433146,51.110563856433146,52.127190678875195,52.127190678875195,52.127190678875195,,,,,,,,,,,,,,,,,,,,,,,,,126,001,2023-03-03_14h17.44.331,eb_01,2022.2.4,59.995979620633264,
,,,0,0,0,0,1,0,1,0,,,,,,,,,,,,,,,,,,,,,,,,,,,,,,,,,,,,,,,,,,,,,,,,,,,,,,,,,,,,126,001,2023-03-03_14h17.44.331,eb_01,2022.2.4,59.995979620633264,
1,stimuli/1.png,s,0,0,0,0,2,0,2,0,0,0,0,0,,,,,,,,,,,,,,,,,,,52.127190678875195,52.127190678875195,52.127190678875195,52.127190678875195,s,1,0.5538285484653898,52.72714117541909,52.72714117541909,52.72714117541909,,,,,,,,,,,,,,,,,,,,,,,,,,,,126,001,2023-03-03_14h17.44.331,eb_01,2022.2.4,59.995979620633264,
,,,0,0,0,0,2,0,2,0,,,,,,,,,,,,,,,,,,,,,,,,,,,,,,,,,,,,,,,,,,,,,,,,,,,,,,,,,,,,126,001,2023-03-03_14h17.44.331,eb_01,2022.2.4,59.995979620633264,
2,stimuli/2.png,s,0,0,0,0,3,0,3,0,0,0,0,0,,,,,,,,,,,,,,,,,,,53.727074466471095,53.727074466471095,53.727074466471095,53.727074466471095,s,1,0.5379491074709222,54.29370098706568,54.29370098706568,54.29370098706568,55.293638504022965,55.293638504022965,55.293638504022965,,,,,,,,,,,,,,,,,,,,,,,,,126,001,2023-03-03_14h17.44.331,eb_01,2022.2.4,59.995979620633264,
,,,0,0,0,0,3,0,3,0,,,,,,,,,,,,,,,,,,,,,,,,,,,,,,,,,,,,,,,,,,,,,,,,,,,,,,,,,,,,126,001,2023-03-03_14h17.44.331,eb_01,2022.2.4,59.995979620633264,
3,stimuli/3.png,l,0,0,0,0,4,0,4,0,0,0,0,0,,,,,,,,,,,,,,,,,,,55.293638504022965,55.293638504022965,55.293638504022965,55.293638504022965,l,1,0.48347055396880023,55.81032690391294,55.81032690391294,55.81032690391294,56.82687916929717,56.82687916929717,56.82687916929717,,,,,,,,,,,,,,,,,,,,,,,,,126,001,2023-03-03_14h17.44.331,eb_01,2022.2.4,59.995979620633264,
,,,0,0,0,0,4,0,4,0,,,,,,,,,,,,,,,,,,,,,,,,,,,,,,,,,,,,,,,,,,,,,,,,,,,,,,,,,,,,126,001,2023-03-03_14h17.44.331,eb_01,2022.2.4,59.995979620633264,
4,stimuli/4.png,l,0,0,0,0,5,0,5,0,0,0,0,0,,,,,,,,,,,,,,,,,,,56.82687916929717,56.82687916929717,56.82687916929717,56.82687916929717,s,0,0.35821986725204624,57.22686709530535,57.22686709530535,57.22686709530535,,,,,,,,,,,,,,,,,,,,,,,,,,,,126,001,2023-03-03_14h17.44.331,eb_01,2022.2.4,59.995979620633264,
,,,0,0,0,0,5,0,5,0,,,,,,,,,,,,,,,,,,,,,,,,,,,,,,,,,,,,,,,,,,,,,,,,,,,,,,,,,,,,126,001,2023-03-03_14h17.44.331,eb_01,2022.2.4,59.995979620633264,
1,stimuli/1.png,s,0,0,0,0,6,0,6,0,0,0,0,0,,,,,,,,,,,,,,,,,,,58.243483051104704,58.243483051104704,58.243483051104704,58.243483051104704,s,1,0.5896602970606182,58.87678046425572,58.87678046425572,58.87678046425572,,,,,,,,,,,,,,,,,,,,,,,,,,,,126,001,2023-03-03_14h17.44.331,eb_01,2022.2.4,59.995979620633264,
,,,0,0,0,0,6,0,6,0,,,,,,,,,,,,,,,,,,,,,,,,,,,,,,,,,,,,,,,,,,,,,,,,,,,,,,,,,,,,126,001,2023-03-03_14h17.44.331,eb_01,2022.2.4,59.995979620633264,
4,stimuli/4.png,l,0,0,0,0,7,0,7,0,0,0,0,0,,,,,,,,,,,,,,,,,,,59.89338283680263,59.89338283680263,59.89338283680263,59.89338283680263,l,1,0.6747905455122236,60.593320957472315,60.593320957472315,60.593320957472315,61.593288659496466,61.593288659496466,61.593288659496466,,,,,,,,,,,,,,,,,,,,,,,,,126,001,2023-03-03_14h17.44.331,eb_01,2022.2.4,59.995979620633264,
,,,0,0,0,0,7,0,7,0,,,,,,,,,,,,,,,,,,,,,,,,,,,,,,,,,,,,,,,,,,,,,,,,,,,,,,,,,,,,126,001,2023-03-03_14h17.44.331,eb_01,2022.2.4,59.995979620633264,
2,stimuli/2.png,s,0,0,0,0,8,0,8,0,0,0,0,0,,,,,,,,,,,,,,,,,,,61.593288659496466,61.593288659496466,61.593288659496466,61.593288659496466,s,1,0.5269318718055729,62.14321470615687,62.14321470615687,62.14321470615687,63.159827945317375,63.159827945317375,63.159827945317375,,,,,,,,,,,,,,,,,,,,,,,,,126,001,2023-03-03_14h17.44.331,eb_01,2022.2.4,59.995979620633264,
,,,0,0,0,0,8,0,8,0,,,,,,,,,,,,,,,,,,,,,,,,,,,,,,,,,,,,,,,,,,,,,,,,,,,,,,,,,,,,126,001,2023-03-03_14h17.44.331,eb_01,2022.2.4,59.995979620633264,
4,stimuli/4.png,l,0,0,0,0,9,0,9,0,0,0,0,0,,,,,,,,,,,,,,,,,,,63.159827945317375,63.159827945317375,63.159827945317375,63.159827945317375,l,1,0.5044090066512581,63.69313139547012,63.69313139547012,63.69313139547012,64.70977542334003,64.70977542334003,64.70977542334003,,,,,,,,,,,,,,,,,,,,,,,,,126,001,2023-03-03_14h17.44.331,eb_01,2022.2.4,59.995979620633264,
,,,0,0,0,0,9,0,9,0,,,,,,,,,,,,,,,,,,,,,,,,,,,,,,,,,,,,,,,,,,,,,,,,,,,,,,,,,,,,126,001,2023-03-03_14h17.44.331,eb_01,2022.2.4,59.995979620633264,
1,stimuli/1.png,s,0,0,0,0,10,0,10,0,0,0,0,0,,,,,,,,,,,,,,,,,,,64.70977542334003,64.70977542334003,64.70977542334003,64.70977542334003,s,1,0.7625037272810005,65.50971565698273,65.50971565698273,65.50971565698273,,,,,,,,,,,,,,,,,,,,,,,,,,,,126,001,2023-03-03_14h17.44.331,eb_01,2022.2.4,59.995979620633264,
,,,0,0,0,0,10,0,10,0,,,,,,,,,,,,,,,,,,,,,,,,,,,,,,,,,,,,,,,,,,,,,,,,,,,,,,,,,,,,126,001,2023-03-03_14h17.44.331,eb_01,2022.2.4,59.995979620633264,
4,stimuli/4.png,l,0,0,0,0,11,0,11,0,0,0,0,0,,,,,,,,,,,,,,,,,,,66.52629357963451,66.52629357963451,66.52629357963451,66.52629357963451,l,1,1.5460471484693699,68.09289746143622,68.09289746143622,68.09289746143622,69.09281988590374,69.09281988590374,69.09281988590374,,,,,,,,,,,,,,,,,,,,,,,,,126,001,2023-03-03_14h17.44.331,eb_01,2022.2.4,59.995979620633264,
,,,0,0,0,0,11,0,11,0,,,,,,,,,,,,,,,,,,,,,,,,,,,,,,,,,,,,,,,,,,,,,,,,,,,,,,,,,,,,126,001,2023-03-03_14h17.44.331,eb_01,2022.2.4,59.995979620633264,
3,stimuli/3.png,l,0,0,0,0,12,0,12,0,0,0,0,0,,,,,,,,,,,,,,,,,,,69.09281988590374,69.09281988590374,69.09281988590374,69.09281988590374,l,1,0.5075582113058772,69.62613178786705,69.62613178786705,69.62613178786705,70.64271936973091,70.64271936973091,70.64271936973091,,,,,,,,,,,,,,,,,,,,,,,,,126,001,2023-03-03_14h17.44.331,eb_01,2022.2.4,59.995979620633264,
,,,0,0,0,0,12,0,12,0,,,,,,,,,,,,,,,,,,,,,,,,,,,,,,,,,,,,,,,,,,,,,,,,,,,,,,,,,,,,126,001,2023-03-03_14h17.44.331,eb_01,2022.2.4,59.995979620633264,
4,stimuli/4.png,l,0,0,0,0,13,0,13,0,0,0,0,0,,,,,,,,,,,,,,,,,,,70.64271936973091,70.64271936973091,70.64271936973091,70.64271936973091,l,1,0.9017122756922618,71.57603096985258,71.57603096985258,71.57603096985258,72.57593769810046,72.57593769810046,72.57593769810046,,,,,,,,,,,,,,,,,,,,,,,,,126,001,2023-03-03_14h17.44.331,eb_01,2022.2.4,59.995979620633264,
,,,0,0,0,0,13,0,13,0,,,,,,,,,,,,,,,,,,,,,,,,,,,,,,,,,,,,,,,,,,,,,,,,,,,,,,,,,,,,126,001,2023-03-03_14h17.44.331,eb_01,2022.2.4,59.995979620633264,
3,stimuli/3.png,l,0,0,0,0,14,0,14,0,0,0,0,0,,,,,,,,,,,,,,,,,,,72.57593769810046,72.57593769810046,72.57593769810046,72.57593769810046,l,1,0.592520027217688,73.19254822059884,73.19254822059884,73.19254822059884,74.20917775967973,74.20917775967973,74.20917775967973,,,,,,,,,,,,,,,,,,,,,,,,,126,001,2023-03-03_14h17.44.331,eb_01,2022.2.4,59.995979620633264,
,,,0,0,0,0,14,0,14,0,,,,,,,,,,,,,,,,,,,,,,,,,,,,,,,,,,,,,,,,,,,,,,,,,,,,,,,,,,,,126,001,2023-03-03_14h17.44.331,eb_01,2022.2.4,59.995979620633264,
8,stimuli/8.png,l,0,0,0,0,15,0,15,0,0,0,0,0,,,,,,,,,,,,,,,,,,,74.20917775967973,74.20917775967973,74.20917775967973,74.20917775967973,l,1,0.5263997096626554,74.75913489691447,74.75913489691447,74.75913489691447,75.7590672824299,75.7590672824299,75.7590672824299,,,,,,,,,,,,,,,,,,,,,,,,,126,001,2023-03-03_14h17.44.331,eb_01,2022.2.4,59.995979620633264,
,,,0,0,0,0,15,0,15,0,,,,,,,,,,,,,,,,,,,,,,,,,,,,,,,,,,,,,,,,,,,,,,,,,,,,,,,,,,,,126,001,2023-03-03_14h17.44.331,eb_01,2022.2.4,59.995979620633264,
3,stimuli/3.png,l,0,0,0,0,16,0,16,0,0,0,0,0,,,,,,,,,,,,,,,,,,,75.7590672824299,75.7590672824299,75.7590672824299,75.7590672824299,l,1,0.6804354487394448,76.459041625174,76.459041625174,76.459041625174,77.45899302724865,77.45899302724865,77.45899302724865,,,,,,,,,,,,,,,,,,,,,,,,,126,001,2023-03-03_14h17.44.331,eb_01,2022.2.4,59.995979620633264,
,,,0,0,0,0,16,0,16,0,,,,,,,,,,,,,,,,,,,,,,,,,,,,,,,,,,,,,,,,,,,,,,,,,,,,,,,,,,,,126,001,2023-03-03_14h17.44.331,eb_01,2022.2.4,59.995979620633264,
2,stimuli/2.png,s,0,0,0,0,17,0,17,0,0,0,0,0,,,,,,,,,,,,,,,,,,,77.45899302724865,77.45899302724865,77.45899302724865,77.45899302724865,s,1,0.6605691684526391,78.14225904797786,78.14225904797786,78.14225904797786,79.15887107970775,79.15887107970775,79.15887107970775,,,,,,,,,,,,,,,,,,,,,,,,,126,001,2023-03-03_14h17.44.331,eb_01,2022.2.4,59.995979620633264,
,,,0,0,0,0,17,0,17,0,,,,,,,,,,,,,,,,,,,,,,,,,,,,,,,,,,,,,,,,,,,,,,,,,,,,,,,,,,,,126,001,2023-03-03_14h17.44.331,eb_01,2022.2.4,59.995979620633264,
4,stimuli/4.png,l,0,0,0,0,18,0,18,0,0,0,0,0,,,,,,,,,,,,,,,,,,,79.15887107970775,79.15887107970775,79.15887107970775,79.15887107970775,l,1,0.5207641637825873,79.70883244287688,79.70883244287688,79.70883244287688,80.72542575991247,80.72542575991247,80.72542575991247,,,,,,,,,,,,,,,,,,,,,,,,,126,001,2023-03-03_14h17.44.331,eb_01,2022.2.4,59.995979620633264,
,,,0,0,0,0,18,0,18,0,,,,,,,,,,,,,,,,,,,,,,,,,,,,,,,,,,,,,,,,,,,,,,,,,,,,,,,,,,,,126,001,2023-03-03_14h17.44.331,eb_01,2022.2.4,59.995979620633264,
1,stimuli/1.png,s,0,0,0,0,19,0,19,0,0,0,0,0,,,,,,,,,,,,,,,,,,,80.72542575991247,80.72542575991247,80.72542575991247,80.72542575991247,s,1,0.570209060999332,81.34206918408745,81.34206918408745,81.34206918408745,,,,,,,,,,,,,,,,,,,,,,,,,,,,126,001,2023-03-03_14h17.44.331,eb_01,2022.2.4,59.995979620633264,
,,,0,0,0,0,19,0,19,0,,,,,,,,,,,,,,,,,,,,,,,,,,,,,,,,,,,,,,,,,,,,,,,,,,,,,,,,,,,,126,001,2023-03-03_14h17.44.331,eb_01,2022.2.4,59.995979620633264,
4,stimuli/4.png,l,0,0,0,0,20,0,20,0,0,0,0,0,,,,,,,,,,,,,,,,,,,82.35870717497892,82.35870717497892,82.35870717497892,82.35870717497892,l,1,0.5689418932597619,82.95863503275905,82.95863503275905,82.95863503275905,83.97523649974028,83.97523649974028,83.97523649974028,,,,,,,,,,,,,,,,,,,,,,,,,126,001,2023-03-03_14h17.44.331,eb_01,2022.2.4,59.995979620633264,
,,,0,0,0,0,20,0,20,0,,,,,,,,,,,,,,,,,,,,,,,,,,,,,,,,,,,,,,,,,,,,,,,,,,,,,,,,,,,,126,001,2023-03-03_14h17.44.331,eb_01,2022.2.4,59.995979620633264,
1,stimuli/1.png,s,0,0,0,0,21,0,21,0,0,0,0,0,,,,,,,,,,,,,,,,,,,83.97523649974028,83.97523649974028,83.97523649974028,83.97523649974028,s,1,1.1845101265062112,85.20850674636313,85.20850674636313,85.20850674636313,,,,,,,,,,,,,,,,,,,,,,,,,,,,126,001,2023-03-03_14h17.44.331,eb_01,2022.2.4,59.995979620633264,
,,,0,0,0,0,21,0,21,0,,,,,,,,,,,,,,,,,,,,,,,,,,,,,,,,,,,,,,,,,,,,,,,,,,,,,,,,,,,,126,001,2023-03-03_14h17.44.331,eb_01,2022.2.4,59.995979620633264,
4,stimuli/4.png,l,0,0,0,0,22,0,22,0,0,0,0,0,,,,,,,,,,,,,,,,,,,86.22510640224209,86.22510640224209,86.22510640224209,86.22510640224209,l,1,0.6226673301716801,86.87506384134758,86.87506384134758,86.87506384134758,87.89166862869752,87.89166862869752,87.89166862869752,,,,,,,,,,,,,,,,,,,,,,,,,126,001,2023-03-03_14h17.44.331,eb_01,2022.2.4,59.995979620633264,
,,,0,0,0,0,22,0,22,0,,,,,,,,,,,,,,,,,,,,,,,,,,,,,,,,,,,,,,,,,,,,,,,,,,,,,,,,,,,,126,001,2023-03-03_14h17.44.331,eb_01,2022.2.4,59.995979620633264,
1,stimuli/1.png,s,0,0,0,0,23,0,23,0,0,0,0,0,,,,,,,,,,,,,,,,,,,87.89166862869752,87.89166862869752,87.89166862869752,87.89166862869752,s,1,0.6041690356505569,88.54164116032189,88.54164116032189,88.54164116032189,,,,,,,,,,,,,,,,,,,,,,,,,,,,126,001,2023-03-03_14h17.44.331,eb_01,2022.2.4,59.995979620633264,
,,,0,0,0,0,23,0,23,0,,,,,,,,,,,,,,,,,,,,,,,,,,,,,,,,,,,,,,,,,,,,,,,,,,,,,,,,,,,,126,001,2023-03-03_14h17.44.331,eb_01,2022.2.4,59.995979620633264,
4,stimuli/4.png,l,0,0,0,0,24,0,24,0,0,0,0,0,,,,,,,,,,,,,,,,,,,89.55827462344314,89.55827462344314,89.55827462344314,89.55827462344314,l,1,0.3535650331177749,89.94155784961185,89.94155784961185,89.94155784961185,90.95816988137085,90.95816988137085,90.95816988137085,,,,,,,,,,,,,,,,,,,,,,,,,126,001,2023-03-03_14h17.44.331,eb_01,2022.2.4,59.995979620633264,
,,,0,0,0,0,24,0,24,0,,,,,,,,,,,,,,,,,,,,,,,,,,,,,,,,,,,,,,,,,,,,,,,,,,,,,,,,,,,,126,001,2023-03-03_14h17.44.331,eb_01,2022.2.4,59.995979620633264,
1,stimuli/1.png,s,0,0,0,0,25,0,25,0,0,0,0,0,,,,,,,,,,,,,,,,,,,90.95816988137085,90.95816988137085,90.95816988137085,90.95816988137085,s,1,0.6167679670907091,91.60811222795746,91.60811222795746,91.60811222795746,,,,,,,,,,,,,,,,,,,,,,,,,,,,126,001,2023-03-03_14h17.44.331,eb_01,2022.2.4,59.995979620633264,
,,,0,0,0,0,25,0,25,0,,,,,,,,,,,,,,,,,,,,,,,,,,,,,,,,,,,,,,,,,,,,,,,,,,,,,,,,,,,,126,001,2023-03-03_14h17.44.331,eb_01,2022.2.4,59.995979620633264,
2,stimuli/2.png,s,0,0,0,0,26,0,26,0,0,0,0,0,,,,,,,,,,,,,,,,,,,92.60808898549294,92.60808898549294,92.60808898549294,92.60808898549294,s,1,0.5028203683032189,93.1413773431268,93.1413773431268,93.1413773431268,94.15795918984804,94.15795918984804,94.15795918984804,,,,,,,,,,,,,,,,,,,,,,,,,126,001,2023-03-03_14h17.44.331,eb_01,2022.2.4,59.995979620633264,
,,,0,0,0,0,26,0,26,0,,,,,,,,,,,,,,,,,,,,,,,,,,,,,,,,,,,,,,,,,,,,,,,,,,,,,,,,,,,,126,001,2023-03-03_14h17.44.331,eb_01,2022.2.4,59.995979620633264,
1,stimuli/1.png,s,0,0,0,0,27,0,27,0,0,0,0,0,,,,,,,,,,,,,,,,,,,94.15795918984804,94.15795918984804,94.15795918984804,94.15795918984804,s,1,1.192989404516993,95.39121736242669,95.39121736242669,95.39121736242669,,,,,,,,,,,,,,,,,,,,,,,,,,,,126,001,2023-03-03_14h17.44.331,eb_01,2022.2.4,59.995979620633264,
,,,0,0,0,0,27,0,27,0,,,,,,,,,,,,,,,,,,,,,,,,,,,,,,,,,,,,,,,,,,,,,,,,,,,,,,,,,,,,126,001,2023-03-03_14h17.44.331,eb_01,2022.2.4,59.995979620633264,
2,stimuli/2.png,s,0,0,0,0,28,0,28,0,0,0,0,0,,,,,,,,,,,,,,,,,,,96.39116876453045,96.39116876453045,96.39116876453045,96.39116876453045,s,1,0.8158572846150491,97.22446315916022,97.22446315916022,97.22446315916022,98.2410815297917,98.2410815297917,98.2410815297917,,,,,,,,,,,,,,,,,,,,,,,,,126,001,2023-03-03_14h17.44.331,eb_01,2022.2.4,59.995979620633264,
,,,0,0,0,0,28,0,28,0,,,,,,,,,,,,,,,,,,,,,,,,,,,,,,,,,,,,,,,,,,,,,,,,,,,,,,,,,,,,126,001,2023-03-03_14h17.44.331,eb_01,2022.2.4,59.995979620633264,
1,stimuli/1.png,s,0,0,0,0,29,0,29,0,0,0,0,0,,,,,,,,,,,,,,,,,,,98.2410815297917,98.2410815297917,98.2410815297917,98.2410815297917,s,1,0.9979919702163897,99.27432279876666,99.27432279876666,99.27432279876666,,,,,,,,,,,,,,,,,,,,,,,,,,,,126,001,2023-03-03_14h17.44.331,eb_01,2022.2.4,59.995979620633264,
,,,0,0,0,0,29,0,29,0,,,,,,,,,,,,,,,,,,,,,,,,,,,,,,,,,,,,,,,,,,,,,,,,,,,,,,,,,,,,126,001,2023-03-03_14h17.44.331,eb_01,2022.2.4,59.995979620633264,
4,stimuli/4.png,l,0,0,0,0,30,0,30,0,0,0,0,0,,,,,,,,,,,,,,,,,,,100.29091611580225,100.29091611580225,100.29091611580225,100.29091611580225,l,1,0.5241949947667308,100.8409149083891,100.8409149083891,100.8409149083891,101.85753086418845,101.85753086418845,101.85753086418845,,,,,,,,,,,,,,,,,,,,,,,,,126,001,2023-03-03_14h17.44.331,eb_01,2022.2.4,59.995979620633264,
,,,0,0,0,0,30,0,30,0,,,,,,,,,,,,,,,,,,,,,,,,,,,,,,,,,,,,,,,,,,,,,,,,,,,,,,,,,,,,126,001,2023-03-03_14h17.44.331,eb_01,2022.2.4,59.995979620633264,
1,stimuli/1.png,s,0,0,0,0,31,0,31,0,0,0,0,0,,,,,,,,,,,,,,,,,,,101.85753086418845,101.85753086418845,101.85753086418845,101.85753086418845,s,1,0.5655841100669932,102.45746475897613,102.45746475897613,102.45746475897613,,,,,,,,,,,,,,,,,,,,,,,,,,,,126,001,2023-03-03_14h17.44.331,eb_01,2022.2.4,59.995979620633264,
,,,0,0,0,0,31,0,31,0,,,,,,,,,,,,,,,,,,,,,,,,,,,,,,,,,,,,,,,,,,,,,,,,,,,,,,,,,,,,126,001,2023-03-03_14h17.44.331,eb_01,2022.2.4,59.995979620633264,
4,stimuli/4.png,l,0,0,0,0,32,0,32,0,0,0,0,0,,,,,,,,,,,,,,,,,,,103.47408494068077,103.47408494068077,103.47408494068077,103.47408494068077,l,1,0.493073620746145,103.99068067251937,103.99068067251937,103.99068067251937,104.9906393190322,104.9906393190322,104.9906393190322,,,,,,,,,,,,,,,,,,,,,,,,,126,001,2023-03-03_14h17.44.331,eb_01,2022.2.4,59.995979620633264,
,,,0,0,0,0,32,0,32,0,,,,,,,,,,,,,,,,,,,,,,,,,,,,,,,,,,,,,,,,,,,,,,,,,,,,,,,,,,,,126,001,2023-03-03_14h17.44.331,eb_01,2022.2.4,59.995979620633264,
3,stimuli/3.png,l,0,0,0,0,33,0,33,0,0,0,0,0,,,,,,,,,,,,,,,,,,,104.9906393190322,104.9906393190322,104.9906393190322,104.9906393190322,l,1,0.5445575170160737,105.55731081528938,105.55731081528938,105.55731081528938,106.57388632316724,106.57388632316724,106.57388632316724,,,,,,,,,,,,,,,,,,,,,,,,,126,001,2023-03-03_14h17.44.331,eb_01,2022.2.4,59.995979620633264,
,,,0,0,0,0,33,0,33,0,,,,,,,,,,,,,,,,,,,,,,,,,,,,,,,,,,,,,,,,,,,,,,,,,,,,,,,,,,,,126,001,2023-03-03_14h17.44.331,eb_01,2022.2.4,59.995979620633264,
4,stimuli/4.png,l,0,0,0,0,34,0,34,0,0,0,0,0,,,,,,,,,,,,,,,,,,,106.57388632316724,106.57388632316724,106.57388632316724,106.57388632316724,l,1,0.912399287102744,107.50718313260586,107.50718313260586,107.50718313260586,108.50708774788654,108.50708774788654,108.50708774788654,,,,,,,,,,,,,,,,,,,,,,,,,126,001,2023-03-03_14h17.44.331,eb_01,2022.2.4,59.995979620633264,
,,,0,0,0,0,34,0,34,0,,,,,,,,,,,,,,,,,,,,,,,,,,,,,,,,,,,,,,,,,,,,,,,,,,,,,,,,,,,,126,001,2023-03-03_14h17.44.331,eb_01,2022.2.4,59.995979620633264,
3,stimuli/3.png,l,0,0,0,0,35,0,35,0,0,0,0,0,,,,,,,,,,,,,,,,,,,108.50708774788654,108.50708774788654,108.50708774788654,108.50708774788654,l,1,0.5071878409362398,109.04041745903669,109.04041745903669,109.04041745903669,110.05702073712018,110.05702073712018,110.05702073712018,,,,,,,,,,,,,,,,,,,,,,,,,126,001,2023-03-03_14h17.44.331,eb_01,2022.2.4,59.995979620633264,
,,,0,0,0,0,35,0,35,0,,,,,,,,,,,,,,,,,,,,,,,,,,,,,,,,,,,,,,,,,,,,,,,,,,,,,,,,,,,,126,001,2023-03-03_14h17.44.331,eb_01,2022.2.4,59.995979620633264,
4,stimuli/4.png,l,0,0,0,0,36,0,36,0,0,0,0,0,,,,,,,,,,,,,,,,,,,110.05702073712018,110.05702073712018,110.05702073712018,110.05702073712018,l,1,0.4773191458371002,110.5569881372794,110.5569881372794,110.5569881372794,111.5565984484856,111.5565984484856,111.5565984484856,,,,,,,,,,,,,,,,,,,,,,,,,126,001,2023-03-03_14h17.44.331,eb_01,2022.2.4,59.995979620633264,
,,,0,0,0,0,36,0,36,0,,,,,,,,,,,,,,,,,,,,,,,,,,,,,,,,,,,,,,,,,,,,,,,,,,,,,,,,,,,,126,001,2023-03-03_14h17.44.331,eb_01,2022.2.4,59.995979620633264,
2,stimuli/2.png,s,0,0,0,0,37,0,37,0,0,0,0,0,,,,,,,,,,,,,,,,,,,111.5565984484856,111.5565984484856,111.5565984484856,111.5565984484856,s,1,0.5137751209258568,112.09021853964077,112.09021853964077,112.09021853964077,113.09015122702112,113.09015122702112,113.09015122702112,,,,,,,,,,,,,,,,,,,,,,,,,126,001,2023-03-03_14h17.44.331,eb_01,2022.2.4,59.995979620633264,
,,,0,0,0,0,37,0,37,0,,,,,,,,,,,,,,,,,,,,,,,,,,,,,,,,,,,,,,,,,,,,,,,,,,,,,,,,,,,,126,001,2023-03-03_14h17.44.331,eb_01,2022.2.4,59.995979620633264,
3,stimuli/3.png,l,0,0,0,0,38,0,38,0,0,0,0,0,,,,,,,,,,,,,,,,,,,113.09015122702112,113.09015122702112,113.09015122702112,113.09015122702112,l,1,0.4122371934354305,113.52348063630052,113.52348063630052,113.52348063630052,114.54008663105196,114.54008663105196,114.54008663105196,,,,,,,,,,,,,,,,,,,,,,,,,126,001,2023-03-03_14h17.44.331,eb_01,2022.2.4,59.995979620633264,
,,,0,0,0,0,38,0,38,0,,,,,,,,,,,,,,,,,,,,,,,,,,,,,,,,,,,,,,,,,,,,,,,,,,,,,,,,,,,,126,001,2023-03-03_14h17.44.331,eb_01,2022.2.4,59.995979620633264,
4,stimuli/4.png,l,0,0,0,0,39,0,39,0,0,0,0,0,,,,,,,,,,,,,,,,,,,114.54008663105196,114.54008663105196,114.54008663105196,114.54008663105196,l,1,0.5703397621982731,115.14002807208453,115.14002807208453,115.14002807208453,116.13997977602412,116.13997977602412,116.13997977602412,,,,,,,,,,,,,,,,,,,,,,,,,126,001,2023-03-03_14h17.44.331,eb_01,2022.2.4,59.995979620633264,
,,,0,0,0,0,39,0,39,0,,,,,,,,,,,,,,,,,,,,,,,,,,,,,,,,,,,,,,,,,,,,,,,,,,,,,,,,,,,,126,001,2023-03-03_14h17.44.331,eb_01,2022.2.4,59.995979620633264,
3,stimuli/3.png,l,0,0,0,0,40,0,40,0,0,0,0,0,,,,,,,,,,,,,,,,,,,116.13997977602412,116.13997977602412,116.13997977602412,116.13997977602412,l,1,0.49047408558544703,116.65661535211257,116.65661535211257,116.65661535211257,117.65655347279971,117.65655347279971,117.65655347279971,,,,,,,,,,,,,,,,,,,,,,,,,126,001,2023-03-03_14h17.44.331,eb_01,2022.2.4,59.995979620633264,
,,,0,0,0,0,40,0,40,0,,,,,,,,,,,,,,,,,,,,,,,,,,,,,,,,,,,,,,,,,,,,,,,,,,,,,,,,,,,,126,001,2023-03-03_14h17.44.331,eb_01,2022.2.4,59.995979620633264,
2,stimuli/2.png,s,0,0,0,0,41,0,41,0,0,0,0,0,,,,,,,,,,,,,,,,,,,117.65655347279971,117.65655347279971,117.65655347279971,117.65655347279971,s,1,0.6779503148864023,118.35651634520036,118.35651634520036,118.35651634520036,119.3731102659367,119.3731102659367,119.3731102659367,,,,,,,,,,,,,,,,,,,,,,,,,126,001,2023-03-03_14h17.44.331,eb_01,2022.2.4,59.995979620633264,
,,,0,0,0,0,41,0,41,0,,,,,,,,,,,,,,,,,,,,,,,,,,,,,,,,,,,,,,,,,,,,,,,,,,,,,,,,,,,,126,001,2023-03-03_14h17.44.331,eb_01,2022.2.4,59.995979620633264,
1,stimuli/1.png,s,0,0,0,0,42,0,42,0,0,0,0,0,,,,,,,,,,,,,,,,,,,119.3731102659367,119.3731102659367,119.3731102659367,119.3731102659367,s,1,0.4974187564512249,119.906412206823,119.906412206823,119.906412206823,,,,,,,,,,,,,,,,,,,,,,,,,,,,126,001,2023-03-03_14h17.44.331,eb_01,2022.2.4,59.995979620633264,
,,,0,0,0,0,42,0,42,0,,,,,,,,,,,,,,,,,,,,,,,,,,,,,,,,,,,,,,,,,,,,,,,,,,,,,,,,,,,,126,001,2023-03-03_14h17.44.331,eb_01,2022.2.4,59.995979620633264,
4,stimuli/4.png,l,0,0,0,0,43,0,43,0,0,0,0,0,,,,,,,,,,,,,,,,,,,120.92301276826765,120.92301276826765,120.92301276826765,120.92301276826765,l,1,0.5636172532103956,121.50634247940616,121.50634247940616,121.50634247940616,122.52291406321456,122.52291406321456,122.52291406321456,,,,,,,,,,,,,,,,,,,,,,,,,126,001,2023-03-03_14h17.44.331,eb_01,2022.2.4,59.995979620633264,
,,,0,0,0,0,43,0,43,0,,,,,,,,,,,,,,,,,,,,,,,,,,,,,,,,,,,,,,,,,,,,,,,,,,,,,,,,,,,,126,001,2023-03-03_14h17.44.331,eb_01,2022.2.4,59.995979620633264,
1,stimuli/1.png,s,0,0,0,0,44,0,44,0,0,0,0,0,,,,,,,,,,,,,,,,,,,122.52291406321456,122.52291406321456,122.52291406321456,122.52291406321456,s,1,0.47476579376962036,123.03958374838112,123.03958374838112,123.03958374838112,,,,,,,,,,,,,,,,,,,,,,,,,,,,126,001,2023-03-03_14h17.44.331,eb_01,2022.2.4,59.995979620633264,
,,,0,0,0,0,44,0,44,0,,,,,,,,,,,,,,,,,,,,,,,,,,,,,,,,,,,,,,,,,,,,,,,,,,,,,,,,,,,,126,001,2023-03-03_14h17.44.331,eb_01,2022.2.4,59.995979620633264,
4,stimuli/4.png,l,0,0,0,0,45,0,45,0,0,0,0,0,,,,,,,,,,,,,,,,,,,124.0561616710329,124.0561616710329,124.0561616710329,124.0561616710329,l,1,0.43750176529283635,124.5227963415673,124.5227963415673,124.5227963415673,125.52275528991595,125.52275528991595,125.52275528991595,,,,,,,,,,,,,,,,,,,,,,,,,126,001,2023-03-03_14h17.44.331,eb_01,2022.2.4,59.995979620633264,
,,,0,0,0,0,45,0,45,0,,,,,,,,,,,,,,,,,,,,,,,,,,,,,,,,,,,,,,,,,,,,,,,,,,,,,,,,,,,,126,001,2023-03-03_14h17.44.331,eb_01,2022.2.4,59.995979620633264,
3,stimuli/3.png,l,0,0,0,0,46,0,46,0,0,0,0,0,,,,,,,,,,,,,,,,,,,125.52275528991595,125.52275528991595,125.52275528991595,125.52275528991595,l,1,0.46693307923851535,126.0394171270018,126.0394171270018,126.0394171270018,127.0393416644074,127.0393416644074,127.0393416644074,,,,,,,,,,,,,,,,,,,,,,,,,126,001,2023-03-03_14h17.44.331,eb_01,2022.2.4,59.995979620633264,
,,,0,0,0,0,46,0,46,0,,,,,,,,,,,,,,,,,,,,,,,,,,,,,,,,,,,,,,,,,,,,,,,,,,,,,,,,,,,,126,001,2023-03-03_14h17.44.331,eb_01,2022.2.4,59.995979620633264,
2,stimuli/2.png,s,0,0,0,0,47,0,47,0,0,0,0,0,,,,,,,,,,,,,,,,,,,127.0393416644074,127.0393416644074,127.0393416644074,127.0393416644074,s,1,0.5103841342206579,127.57263726645033,127.57263726645033,127.57263726645033,128.58922847051872,128.58922847051872,128.58922847051872,,,,,,,,,,,,,,,,,,,,,,,,,126,001,2023-03-03_14h17.44.331,eb_01,2022.2.4,59.995979620633264,
,,,0,0,0,0,47,0,47,0,,,,,,,,,,,,,,,,,,,,,,,,,,,,,,,,,,,,,,,,,,,,,,,,,,,,,,,,,,,,126,001,2023-03-03_14h17.44.331,eb_01,2022.2.4,59.995979620633264,
4,stimuli/4.png,l,0,0,0,0,48,0,48,0,0,0,0,0,,,,,,,,,,,,,,,,,,,128.58922847051872,128.58922847051872,128.58922847051872,128.58922847051872,l,1,0.6085259435058106,129.22254007062293,129.22254007062293,129.22254007062293,130.2224564580829,130.2224564580829,130.2224564580829,,,,,,,,,,,,,,,,,,,,,,,,,126,001,2023-03-03_14h17.44.331,eb_01,2022.2.4,59.995979620633264,
,,,0,0,0,0,48,0,48,0,,,,,,,,,,,,,,,,,,,,,,,,,,,,,,,,,,,,,,,,,,,,,,,,,,,,,,,,,,,,126,001,2023-03-03_14h17.44.331,eb_01,2022.2.4,59.995979620633264,
2,stimuli/2.png,s,0,0,0,0,49,0,49,0,0,0,0,0,,,,,,,,,,,,,,,,,,,130.2224564580829,130.2224564580829,130.2224564580829,130.2224564580829,s,1,0.4713757125718985,130.7224105768255,130.7224105768255,130.7224105768255,131.72237375110853,131.72237375110853,131.72237375110853,,,,,,,,,,,,,,,,,,,,,,,,,126,001,2023-03-03_14h17.44.331,eb_01,2022.2.4,59.995979620633264,
,,,0,0,0,0,49,0,49,0,,,,,,,,,,,,,,,,,,,,,,,,,,,,,,,,,,,,,,,,,,,,,,,,,,,,,,,,,,,,126,001,2023-03-03_14h17.44.331,eb_01,2022.2.4,59.995979620633264,
3,stimuli/3.png,l,0,0,0,0,50,0,50,0,0,0,0,0,,,,,,,,,,,,,,,,,,,131.72237375110853,131.72237375110853,131.72237375110853,131.72237375110853,l,1,0.4354657847143244,132.18899876243086,132.18899876243086,132.18899876243086,133.20562528297887,133.20562528297887,133.20562528297887,,,,,,,,,,,,,,,,,,,,,,,,,126,001,2023-03-03_14h17.44.331,eb_01,2022.2.4,59.995979620633264,
,,,0,0,0,0,50,0,50,0,,,,,,,,,,,,,,,,,,,,,,,,,,,,,,,,,,,,,,,,,,,,,,,,,,,,,,,,,,,,126,001,2023-03-03_14h17.44.331,eb_01,2022.2.4,59.995979620633264,
4,stimuli/4.png,l,0,0,0,0,51,0,51,0,0,0,0,0,,,,,,,,,,,,,,,,,,,133.20562528297887,133.20562528297887,133.20562528297887,133.20562528297887,l,1,0.7762355030863546,134.00556279995362,134.00556279995362,134.00556279995362,135.005527483474,135.005527483474,135.005527483474,,,,,,,,,,,,,,,,,,,,,,,,,126,001,2023-03-03_14h17.44.331,eb_01,2022.2.4,59.995979620633264,
,,,0,0,0,0,51,0,51,0,,,,,,,,,,,,,,,,,,,,,,,,,,,,,,,,,,,,,,,,,,,,,,,,,,,,,,,,,,,,126,001,2023-03-03_14h17.44.331,eb_01,2022.2.4,59.995979620633264,
2,stimuli/2.png,s,0,0,0,0,52,0,52,0,0,0,0,0,,,,,,,,,,,,,,,,,,,135.005527483474,135.005527483474,135.005527483474,135.005527483474,s,1,1.0243890845158603,136.05545262459782,136.05545262459782,136.05545262459782,137.05538470827742,137.05538470827742,137.05538470827742,,,,,,,,,,,,,,,,,,,,,,,,,126,001,2023-03-03_14h17.44.331,eb_01,2022.2.4,59.995979620633264,
,,,0,0,0,0,52,0,52,0,,,,,,,,,,,,,,,,,,,,,,,,,,,,,,,,,,,,,,,,,,,,,,,,,,,,,,,,,,,,126,001,2023-03-03_14h17.44.331,eb_01,2022.2.4,59.995979620633264,
3,stimuli/3.png,l,0,0,0,0,53,0,53,0,0,0,0,0,,,,,,,,,,,,,,,,,,,137.05538470827742,137.05538470827742,137.05538470827742,137.05538470827742,l,1,0.3976240146730561,137.47204352682456,137.47204352682456,137.47204352682456,138.47198889192077,138.47198889192077,138.47198889192077,,,,,,,,,,,,,,,,,,,,,,,,,126,001,2023-03-03_14h17.44.331,eb_01,2022.2.4,59.995979620633264,
,,,0,0,0,0,53,0,53,0,,,,,,,,,,,,,,,,,,,,,,,,,,,,,,,,,,,,,,,,,,,,,,,,,,,,,,,,,,,,126,001,2023-03-03_14h17.44.331,eb_01,2022.2.4,59.995979620633264,
2,stimuli/2.png,s,0,0,0,0,54,0,54,0,0,0,0,0,,,,,,,,,,,,,,,,,,,138.47198889192077,138.47198889192077,138.47198889192077,138.47198889192077,s,1,0.6369641697965562,139.13860122550977,139.13860122550977,139.13860122550977,140.15521989797708,140.15521989797708,140.15521989797708,,,,,,,,,,,,,,,,,,,,,,,,,126,001,2023-03-03_14h17.44.331,eb_01,2022.2.4,59.995979620633264,
,,,0,0,0,0,54,0,54,0,,,,,,,,,,,,,,,,,,,,,,,,,,,,,,,,,,,,,,,,,,,,,,,,,,,,,,,,,,,,126,001,2023-03-03_14h17.44.331,eb_01,2022.2.4,59.995979620633264,
4,stimuli/4.png,l,0,0,0,0,55,0,55,0,0,0,0,0,,,,,,,,,,,,,,,,,,,140.15521989797708,140.15521989797708,140.15521989797708,140.15521989797708,l,1,0.3618124900094699,140.5385055389488,140.5385055389488,140.5385055389488,141.55513296509162,141.55513296509162,141.55513296509162,,,,,,,,,,,,,,,,,,,,,,,,,126,001,2023-03-03_14h17.44.331,eb_01,2022.2.4,59.995979620633264,
,,,0,0,0,0,55,0,55,0,,,,,,,,,,,,,,,,,,,,,,,,,,,,,,,,,,,,,,,,,,,,,,,,,,,,,,,,,,,,126,001,2023-03-03_14h17.44.331,eb_01,2022.2.4,59.995979620633264,
3,stimuli/3.png,l,0,0,0,0,56,0,56,0,0,0,0,0,,,,,,,,,,,,,,,,,,,141.55513296509162,141.55513296509162,141.55513296509162,141.55513296509162,l,1,0.5218997247575317,142.1051036856079,142.1051036856079,142.1051036856079,143.1216948896763,143.1216948896763,143.1216948896763,,,,,,,,,,,,,,,,,,,,,,,,,126,001,2023-03-03_14h17.44.331,eb_01,2022.2.4,59.995979620633264,
,,,0,0,0,0,56,0,56,0,,,,,,,,,,,,,,,,,,,,,,,,,,,,,,,,,,,,,,,,,,,,,,,,,,,,,,,,,,,,126,001,2023-03-03_14h17.44.331,eb_01,2022.2.4,59.995979620633264,
8,stimuli/8.png,l,0,0,0,0,57,0,57,0,0,0,0,0,,,,,,,,,,,,,,,,,,,143.1216948896763,143.1216948896763,143.1216948896763,143.1216948896763,s,0,0.4754096405522432,143.62165413988987,143.62165413988987,143.62165413988987,144.63824956986355,144.63824956986355,144.63824956986355,,,,,,,,,,,,,,,,,,,,,,,,,126,001,2023-03-03_14h17.44.331,eb_01,2022.2.4,59.995979620633264,
,,,0,0,0,0,57,0,57,0,,,,,,,,,,,,,,,,,,,,,,,,,,,,,,,,,,,,,,,,,,,,,,,,,,,,,,,,,,,,126,001,2023-03-03_14h17.44.331,eb_01,2022.2.4,59.995979620633264,
9,stimuli/9.png,l,0,0,0,0,58,0,58,0,0,0,0,0,,,,,,,,,,,,,,,,,,,144.63824956986355,144.63824956986355,144.63824956986355,144.63824956986355,l,1,0.822885266126832,145.5049210661382,145.5049210661382,145.5049210661382,,,,,,,,,,,,,,,,,,,,,,,,,,,,126,001,2023-03-03_14h17.44.331,eb_01,2022.2.4,59.995979620633264,
,,,0,0,0,0,58,0,58,0,,,,,,,,,,,,,,,,,,,,,,,,,,,,,,,,,,,,,,,,,,,,,,,,,,,,,,,,,,,,126,001,2023-03-03_14h17.44.331,eb_01,2022.2.4,59.995979620633264,
5,stimuli/5.png,s,0,0,0,0,59,0,59,0,0,0,0,0,,,,,,,,,,,,,,,,,,,146.5045259440376,146.5045259440376,146.5045259440376,146.5045259440376,s,1,1.0446993866935372,147.57143318542512,147.57143318542512,147.57143318542512,148.5880144284456,148.5880144284456,148.5880144284456,,,,,,,,,,,,,,,,,,,,,,,,,126,001,2023-03-03_14h17.44.331,eb_01,2022.2.4,59.995979620633264,
,,,0,0,0,0,59,0,59,0,,,,,,,,,,,,,,,,,,,,,,,,,,,,,,,,,,,,,,,,,,,,,,,,,,,,,,,,,,,,126,001,2023-03-03_14h17.44.331,eb_01,2022.2.4,59.995979620633264,
9,stimuli/9.png,l,0,0,0,0,60,0,60,0,0,0,0,0,,,,,,,,,,,,,,,,,,,148.5880144284456,148.5880144284456,148.5880144284456,148.5880144284456,l,1,0.6412030541687272,149.27131274715066,149.27131274715066,149.27131274715066,,,,,,,,,,,,,,,,,,,,,,,,,,,,126,001,2023-03-03_14h17.44.331,eb_01,2022.2.4,59.995979620633264,
,,,0,0,0,0,60,0,60,0,,,,,,,,,,,,,,,,,,,,,,,,,,,,,,,,,,,,,,,,,,,,,,,,,,,,,,,,,,,,126,001,2023-03-03_14h17.44.331,eb_01,2022.2.4,59.995979620633264,
8,stimuli/8.png,l,0,0,0,0,61,0,61,0,0,0,0,0,,,,,,,,,,,,,,,,,,,150.28786923844018,150.28786923844018,150.28786923844018,150.28786923844018,l,1,0.5733962987433188,150.88789399017696,150.88789399017696,150.88789399017696,151.8878179238818,151.8878179238818,151.8878179238818,,,,,,,,,,,,,,,,,,,,,,,,,126,001,2023-03-03_14h17.44.331,eb_01,2022.2.4,59.995979620633264,
,,,0,0,0,0,61,0,61,0,,,,,,,,,,,,,,,,,,,,,,,,,,,,,,,,,,,,,,,,,,,,,,,,,,,,,,,,,,,,126,001,2023-03-03_14h17.44.331,eb_01,2022.2.4,59.995979620633264,
3,stimuli/3.png,l,0,0,0,0,62,0,62,0,0,0,0,0,,,,,,,,,,,,,,,,,,,151.8878179238818,151.8878179238818,151.8878179238818,151.8878179238818,l,1,0.5094535295793321,152.4211249962391,152.4211249962391,152.4211249962391,153.42107096500695,153.42107096500695,153.42107096500695,,,,,,,,,,,,,,,,,,,,,,,,,126,001,2023-03-03_14h17.44.331,eb_01,2022.2.4,59.995979620633264,
,,,0,0,0,0,62,0,62,0,,,,,,,,,,,,,,,,,,,,,,,,,,,,,,,,,,,,,,,,,,,,,,,,,,,,,,,,,,,,126,001,2023-03-03_14h17.44.331,eb_01,2022.2.4,59.995979620633264,
2,stimuli/2.png,s,0,0,0,0,63,0,63,0,0,0,0,0,,,,,,,,,,,,,,,,,,,153.42107096500695,153.42107096500695,153.42107096500695,153.42107096500695,s,1,0.6152484524645843,154.05437290592818,154.05437290592818,154.05437290592818,155.0709798062162,155.0709798062162,155.0709798062162,,,,,,,,,,,,,,,,,,,,,,,,,126,001,2023-03-03_14h17.44.331,eb_01,2022.2.4,59.995979620633264,
,,,0,0,0,0,63,0,63,0,,,,,,,,,,,,,,,,,,,,,,,,,,,,,,,,,,,,,,,,,,,,,,,,,,,,,,,,,,,,126,001,2023-03-03_14h17.44.331,eb_01,2022.2.4,59.995979620633264,
4,stimuli/4.png,l,0,0,0,0,64,0,64,0,0,0,0,0,,,,,,,,,,,,,,,,,,,155.0709798062162,155.0709798062162,155.0709798062162,155.0709798062162,l,1,0.493387846974656,155.58762081561144,155.58762081561144,155.58762081561144,156.58754022157518,156.58754022157518,156.58754022157518,,,,,,,,,,,,,,,,,,,,,,,,,126,001,2023-03-03_14h17.44.331,eb_01,2022.2.4,59.995979620633264,
,,,0,0,0,0,64,0,64,0,,,,,,,,,,,,,,,,,,,,,,,,,,,,,,,,,,,,,,,,,,,,,,,,,,,,,,,,,,,,126,001,2023-03-03_14h17.44.331,eb_01,2022.2.4,59.995979620633264,
2,stimuli/2.png,s,0,0,0,0,65,0,65,0,0,0,0,0,,,,,,,,,,,,,,,,,,,156.58754022157518,156.58754022157518,156.58754022157518,156.58754022157518,s,1,0.6329214881698135,157.23754203267163,157.23754203267163,157.23754203267163,158.23746324973763,158.23746324973763,158.23746324973763,,,,,,,,,,,,,,,,,,,,,,,,,126,001,2023-03-03_14h17.44.331,eb_01,2022.2.4,59.995979620633264,
,,,0,0,0,0,65,0,65,0,,,,,,,,,,,,,,,,,,,,,,,,,,,,,,,,,,,,,,,,,,,,,,,,,,,,,,,,,,,,126,001,2023-03-03_14h17.44.331,eb_01,2022.2.4,59.995979620633264,
3,stimuli/3.png,l,0,0,0,0,66,0,66,0,0,0,0,0,,,,,,,,,,,,,,,,,,,158.23746324973763,158.23746324973763,158.23746324973763,158.23746324973763,l,1,0.4069970714917872,158.67074707959546,158.67074707959546,158.67074707959546,159.6873509614088,159.6873509614088,159.6873509614088,,,,,,,,,,,,,,,,,,,,,,,,,126,001,2023-03-03_14h17.44.331,eb_01,2022.2.4,59.995979620633264,
,,,0,0,0,0,66,0,66,0,,,,,,,,,,,,,,,,,,,,,,,,,,,,,,,,,,,,,,,,,,,,,,,,,,,,,,,,,,,,126,001,2023-03-03_14h17.44.331,eb_01,2022.2.4,59.995979620633264,
4,stimuli/4.png,l,0,0,0,0,67,0,67,0,0,0,0,0,,,,,,,,,,,,,,,,,,,159.6873509614088,159.6873509614088,159.6873509614088,159.6873509614088,l,1,0.5971401485439856,160.30400827070116,160.30400827070116,160.30400827070116,161.30394759878982,161.30394759878982,161.30394759878982,,,,,,,,,,,,,,,,,,,,,,,,,126,001,2023-03-03_14h17.44.331,eb_01,2022.2.4,59.995979620633264,
,,,0,0,0,0,67,0,67,0,,,,,,,,,,,,,,,,,,,,,,,,,,,,,,,,,,,,,,,,,,,,,,,,,,,,,,,,,,,,126,001,2023-03-03_14h17.44.331,eb_01,2022.2.4,59.995979620633264,
2,stimuli/2.png,s,0,0,0,0,68,0,68,0,0,0,0,0,,,,,,,,,,,,,,,,,,,161.30394759878982,161.30394759878982,161.30394759878982,161.30394759878982,s,1,0.5565633125370368,161.8872398804815,161.8872398804815,161.8872398804815,162.90382746234536,162.90382746234536,162.90382746234536,,,,,,,,,,,,,,,,,,,,,,,,,126,001,2023-03-03_14h17.44.331,eb_01,2022.2.4,59.995979620633264,
,,,0,0,0,0,68,0,68,0,,,,,,,,,,,,,,,,,,,,,,,,,,,,,,,,,,,,,,,,,,,,,,,,,,,,,,,,,,,,126,001,2023-03-03_14h17.44.331,eb_01,2022.2.4,59.995979620633264,
1,stimuli/1.png,s,0,0,0,0,69,0,69,0,0,0,0,0,,,,,,,,,,,,,,,,,,,162.90382746234536,162.90382746234536,162.90382746234536,162.90382746234536,s,1,0.5247202143946197,163.47045820881613,163.47045820881613,163.47045820881613,,,,,,,,,,,,,,,,,,,,,,,,,,,,126,001,2023-03-03_14h17.44.331,eb_01,2022.2.4,59.995979620633264,
,,,0,0,0,0,69,0,69,0,,,,,,,,,,,,,,,,,,,,,,,,,,,,,,,,,,,,,,,,,,,,,,,,,,,,,,,,,,,,126,001,2023-03-03_14h17.44.331,eb_01,2022.2.4,59.995979620633264,
4,stimuli/4.png,l,0,0,0,0,70,0,70,0,0,0,0,0,,,,,,,,,,,,,,,,,,,164.48709438860533,164.48709438860533,164.48709438860533,164.48709438860533,l,1,0.5654878197819926,165.07036765370867,165.07036765370867,165.07036765370867,166.08697485586163,166.08697485586163,166.08697485586163,,,,,,,,,,,,,,,,,,,,,,,,,126,001,2023-03-03_14h17.44.331,eb_01,2022.2.4,59.995979620633264,
,,,0,0,0,0,70,0,70,0,,,,,,,,,,,,,,,,,,,,,,,,,,,,,,,,,,,,,,,,,,,,,,,,,,,,,,,,,,,,126,001,2023-03-03_14h17.44.331,eb_01,2022.2.4,59.995979620633264,
1,stimuli/1.png,s,0,0,0,0,71,0,71,0,0,0,0,0,,,,,,,,,,,,,,,,,,,166.08697485586163,166.08697485586163,166.08697485586163,166.08697485586163,s,1,0.5976919309759978,166.72027890972095,166.72027890972095,166.72027890972095,,,,,,,,,,,,,,,,,,,,,,,,,,,,126,001,2023-03-03_14h17.44.331,eb_01,2022.2.4,59.995979620633264,
,,,0,0,0,0,71,0,71,0,,,,,,,,,,,,,,,,,,,,,,,,,,,,,,,,,,,,,,,,,,,,,,,,,,,,,,,,,,,,126,001,2023-03-03_14h17.44.331,eb_01,2022.2.4,59.995979620633264,
4,stimuli/4.png,l,0,0,0,0,72,0,72,0,0,0,0,0,,,,,,,,,,,,,,,,,,,167.736890639615,167.736890639615,167.736890639615,167.736890639615,l,1,0.5388540548156016,168.30350538803032,168.30350538803032,168.30350538803032,169.3201228530961,169.3201228530961,169.3201228530961,,,,,,,,,,,,,,,,,,,,,,,,,126,001,2023-03-03_14h17.44.331,eb_01,2022.2.4,59.995979620633264,
,,,0,0,0,0,72,0,72,0,,,,,,,,,,,,,,,,,,,,,,,,,,,,,,,,,,,,,,,,,,,,,,,,,,,,,,,,,,,,126,001,2023-03-03_14h17.44.331,eb_01,2022.2.4,59.995979620633264,
1,stimuli/1.png,s,0,0,0,0,73,0,73,0,0,0,0,0,,,,,,,,,,,,,,,,,,,169.3201228530961,169.3201228530961,169.3201228530961,169.3201228530961,s,1,0.5155943729623687,169.87011923087994,169.87011923087994,169.87011923087994,,,,,,,,,,,,,,,,,,,,,,,,,,,,126,001,2023-03-03_14h17.44.331,eb_01,2022.2.4,59.995979620633264,
,,,0,0,0,0,73,0,73,0,,,,,,,,,,,,,,,,,,,,,,,,,,,,,,,,,,,,,,,,,,,,,,,,,,,,,,,,,,,,126,001,2023-03-03_14h17.44.331,eb_01,2022.2.4,59.995979620633264,
2,stimuli/2.png,s,0,0,0,0,74,0,74,0,0,0,0,0,,,,,,,,,,,,,,,,,,,170.870025657292,170.870025657292,170.870025657292,170.870025657292,s,1,0.5337084119964857,171.436655800062,171.436655800062,171.436655800062,172.45326209664927,172.45326209664927,172.45326209664927,,,,,,,,,,,,,,,,,,,,,,,,,126,001,2023-03-03_14h17.44.331,eb_01,2022.2.4,59.995979620633264,
,,,0,0,0,0,74,0,74,0,,,,,,,,,,,,,,,,,,,,,,,,,,,,,,,,,,,,,,,,,,,,,,,,,,,,,,,,,,,,126,001,2023-03-03_14h17.44.331,eb_01,2022.2.4,59.995979620633264,
4,stimuli/4.png,l,0,0,0,0,75,0,75,0,0,0,0,0,,,,,,,,,,,,,,,,,,,172.45326209664927,172.45326209664927,172.45326209664927,172.45326209664927,l,1,0.6225381382391788,173.1032669262495,173.1032669262495,173.1032669262495,174.11985330074094,174.11985330074094,174.11985330074094,,,,,,,,,,,,,,,,,,,,,,,,,126,001,2023-03-03_14h17.44.331,eb_01,2022.2.4,59.995979620633264,
,,,0,0,0,0,75,0,75,0,,,,,,,,,,,,,,,,,,,,,,,,,,,,,,,,,,,,,,,,,,,,,,,,,,,,,,,,,,,,126,001,2023-03-03_14h17.44.331,eb_01,2022.2.4,59.995979620633264,
1,stimuli/1.png,s,0,0,0,0,76,0,76,0,0,0,0,0,,,,,,,,,,,,,,,,,,,174.11985330074094,174.11985330074094,174.11985330074094,174.11985330074094,l,0,0.4679421649198048,174.63649612123845,174.63649612123845,174.63649612123845,,,,,,,,,,,,,,,,,,,,,,,,,,,,126,001,2023-03-03_14h17.44.331,eb_01,2022.2.4,59.995979620633264,
,,,0,0,0,0,76,0,76,0,,,,,,,,,,,,,,,,,,,,,,,,,,,,,,,,,,,,,,,,,,,,,,,,,,,,,,,,,,,,126,001,2023-03-03_14h17.44.331,eb_01,2022.2.4,59.995979620633264,
4,stimuli/4.png,l,0,0,0,0,77,0,77,0,0,0,0,0,,,,,,,,,,,,,,,,,,,175.65308008089778,175.65308008089778,175.65308008089778,175.65308008089778,l,1,0.5347247421450447,176.21938784749364,176.21938784749364,176.21938784749364,177.21966162577155,177.21966162577155,177.21966162577155,,,,,,,,,,,,,,,,,,,,,,,,,126,001,2023-03-03_14h17.44.331,eb_01,2022.2.4,59.995979620633264,
,,,0,0,0,0,77,0,77,0,,,,,,,,,,,,,,,,,,,,,,,,,,,,,,,,,,,,,,,,,,,,,,,,,,,,,,,,,,,,126,001,2023-03-03_14h17.44.331,eb_01,2022.2.4,59.995979620633264,
2,stimuli/2.png,s,0,0,0,0,78,0,78,0,0,0,0,0,,,,,,,,,,,,,,,,,,,177.21966162577155,177.21966162577155,177.21966162577155,177.21966162577155,s,1,0.8722290434816387,178.11958857797435,178.11958857797435,178.11958857797435,179.13620694860583,179.13620694860583,179.13620694860583,,,,,,,,,,,,,,,,,,,,,,,,,126,001,2023-03-03_14h17.44.331,eb_01,2022.2.4,59.995979620633264,
,,,0,0,0,0,78,0,78,0,,,,,,,,,,,,,,,,,,,,,,,,,,,,,,,,,,,,,,,,,,,,,,,,,,,,,,,,,,,,126,001,2023-03-03_14h17.44.331,eb_01,2022.2.4,59.995979620633264,
1,stimuli/1.png,s,0,0,0,0,79,0,79,0,0,0,0,0,,,,,,,,,,,,,,,,,,,179.13620694860583,179.13620694860583,179.13620694860583,179.13620694860583,s,1,0.507718795677647,179.68617012284813,179.68617012284813,179.68617012284813,,,,,,,,,,,,,,,,,,,,,,,,,,,,126,001,2023-03-03_14h17.44.331,eb_01,2022.2.4,59.995979620633264,
,,,0,0,0,0,79,0,79,0,,,,,,,,,,,,,,,,,,,,,,,,,,,,,,,,,,,,,,,,,,,,,,,,,,,,,,,,,,,,126,001,2023-03-03_14h17.44.331,eb_01,2022.2.4,59.995979620633264,
4,stimuli/4.png,l,0,0,0,0,80,0,80,0,0,0,0,0,,,,,,,,,,,,,,,,,,,180.70276072324486,180.70276072324486,180.70276072324486,180.70276072324486,l,1,0.5172056500741746,181.25275800659438,181.25275800659438,181.25275800659438,182.26935373843298,182.26935373843298,182.26935373843298,,,,,,,,,,,,,,,,,,,,,,,,,126,001,2023-03-03_14h17.44.331,eb_01,2022.2.4,59.995979620633264,
,,,0,0,0,0,80,0,80,0,,,,,,,,,,,,,,,,,,,,,,,,,,,,,,,,,,,,,,,,,,,,,,,,,,,,,,,,,,,,126,001,2023-03-03_14h17.44.331,eb_01,2022.2.4,59.995979620633264,
1,stimuli/1.png,s,0,0,0,0,81,0,81,0,0,0,0,0,,,,,,,,,,,,,,,,,,,182.26935373843298,182.26935373843298,182.26935373843298,182.26935373843298,s,1,0.48668707118486054,182.8026502460125,182.8026502460125,182.8026502460125,,,,,,,,,,,,,,,,,,,,,,,,,,,,126,001,2023-03-03_14h17.44.331,eb_01,2022.2.4,59.995979620633264,
,,,0,0,0,0,81,0,81,0,,,,,,,,,,,,,,,,,,,,,,,,,,,,,,,,,,,,,,,,,,,,,,,,,,,,,,,,,,,,126,001,2023-03-03_14h17.44.331,eb_01,2022.2.4,59.995979620633264,
2,stimuli/2.png,s,0,0,0,0,82,0,82,0,0,0,0,0,,,,,,,,,,,,,,,,,,,183.80262609798228,183.80262609798228,183.80262609798228,183.80262609798228,s,1,0.4884933436405845,184.31923692233977,184.31923692233977,184.31923692233977,185.3358229949663,185.3358229949663,185.3358229949663,,,,,,,,,,,,,,,,,,,,,,,,,126,001,2023-03-03_14h17.44.331,eb_01,2022.2.4,59.995979620633264,
,,,0,0,0,0,82,0,82,0,,,,,,,,,,,,,,,,,,,,,,,,,,,,,,,,,,,,,,,,,,,,,,,,,,,,,,,,,,,,126,001,2023-03-03_14h17.44.331,eb_01,2022.2.4,59.995979620633264,
1,stimuli/1.png,s,0,0,0,0,83,0,83,0,0,0,0,0,,,,,,,,,,,,,,,,,,,185.3358229949663,185.3358229949663,185.3358229949663,185.3358229949663,s,1,0.4912368614168372,185.8691086359322,185.8691086359322,185.8691086359322,,,,,,,,,,,,,,,,,,,,,,,,,,,,126,001,2023-03-03_14h17.44.331,eb_01,2022.2.4,59.995979620633264,
,,,0,0,0,0,83,0,83,0,,,,,,,,,,,,,,,,,,,,,,,,,,,,,,,,,,,,,,,,,,,,,,,,,,,,,,,,,,,,126,001,2023-03-03_14h17.44.331,eb_01,2022.2.4,59.995979620633264,
2,stimuli/2.png,s,0,0,0,0,84,0,84,0,0,0,0,0,,,,,,,,,,,,,,,,,,,186.86906728244503,186.86906728244503,186.86906728244503,186.86906728244503,s,1,0.5180607921211049,187.41908780825906,187.41908780825906,187.41908780825906,188.4356509402569,188.4356509402569,188.4356509402569,,,,,,,,,,,,,,,,,,,,,,,,,126,001,2023-03-03_14h17.44.331,eb_01,2022.2.4,59.995979620633264,
,,,0,0,0,0,84,0,84,0,,,,,,,,,,,,,,,,,,,,,,,,,,,,,,,,,,,,,,,,,,,,,,,,,,,,,,,,,,,,126,001,2023-03-03_14h17.44.331,eb_01,2022.2.4,59.995979620633264,
4,stimuli/4.png,l,0,0,0,0,85,0,85,0,0,0,0,0,,,,,,,,,,,,,,,,,,,188.4356509402569,188.4356509402569,188.4356509402569,188.4356509402569,l,1,0.4474948227289133,188.90233300131513,188.90233300131513,188.90233300131513,189.91891032026615,189.91891032026615,189.91891032026615,,,,,,,,,,,,,,,,,,,,,,,,,126,001,2023-03-03_14h17.44.331,eb_01,2022.2.4,59.995979620633264,
,,,0,0,0,0,85,0,85,0,,,,,,,,,,,,,,,,,,,,,,,,,,,,,,,,,,,,,,,,,,,,,,,,,,,,,,,,,,,,126,001,2023-03-03_14h17.44.331,eb_01,2022.2.4,59.995979620633264,
1,stimuli/1.png,s,0,0,0,0,86,0,86,0,0,0,0,0,,,,,,,,,,,,,,,,,,,189.91891032026615,189.91891032026615,189.91891032026615,189.91891032026615,s,1,0.5002383404644206,190.46887651304132,190.46887651304132,190.46887651304132,,,,,,,,,,,,,,,,,,,,,,,,,,,,126,001,2023-03-03_14h17.44.331,eb_01,2022.2.4,59.995979620633264,
,,,0,0,0,0,86,0,86,0,,,,,,,,,,,,,,,,,,,,,,,,,,,,,,,,,,,,,,,,,,,,,,,,,,,,,,,,,,,,126,001,2023-03-03_14h17.44.331,eb_01,2022.2.4,59.995979620633264,
2,stimuli/2.png,s,0,0,0,0,87,0,87,0,0,0,0,0,,,,,,,,,,,,,,,,,,,191.46879380603787,191.46879380603787,191.46879380603787,191.46879380603787,s,1,0.49447873409371823,191.9854686226463,191.9854686226463,191.9854686226463,193.00204865826527,193.00204865826527,193.00204865826527,,,,,,,,,,,,,,,,,,,,,,,,,126,001,2023-03-03_14h17.44.331,eb_01,2022.2.4,59.995979620633264,
,,,0,0,0,0,87,0,87,0,,,,,,,,,,,,,,,,,,,,,,,,,,,,,,,,,,,,,,,,,,,,,,,,,,,,,,,,,,,,126,001,2023-03-03_14h17.44.331,eb_01,2022.2.4,59.995979620633264,
1,stimuli/1.png,s,0,0,0,0,88,0,88,0,0,0,0,0,,,,,,,,,,,,,,,,,,,193.00204865826527,193.00204865826527,193.00204865826527,193.00204865826527,s,1,0.7211976208782289,193.76866461409372,193.76866461409372,193.76866461409372,,,,,,,,,,,,,,,,,,,,,,,,,,,,126,001,2023-03-03_14h17.44.331,eb_01,2022.2.4,59.995979620633264,
,,,0,0,0,0,88,0,88,0,,,,,,,,,,,,,,,,,,,,,,,,,,,,,,,,,,,,,,,,,,,,,,,,,,,,,,,,,,,,126,001,2023-03-03_14h17.44.331,eb_01,2022.2.4,59.995979620633264,
2,stimuli/2.png,s,0,0,0,0,89,0,89,0,0,0,0,0,,,,,,,,,,,,,,,,,,,194.7685954903718,194.7685954903718,194.7685954903718,194.7685954903718,s,1,1.378781912586419,196.16853693139274,196.16853693139274,196.16853693139274,197.1851169670117,197.1851169670117,197.1851169670117,,,,,,,,,,,,,,,,,,,,,,,,,126,001,2023-03-03_14h17.44.331,eb_01,2022.2.4,59.995979620633264,
,,,0,0,0,0,89,0,89,0,,,,,,,,,,,,,,,,,,,,,,,,,,,,,,,,,,,,,,,,,,,,,,,,,,,,,,,,,,,,126,001,2023-03-03_14h17.44.331,eb_01,2022.2.4,59.995979620633264,
1,stimuli/1.png,s,0,0,0,0,90,0,90,0,0,0,0,0,,,,,,,,,,,,,,,,,,,197.1851169670117,197.1851169670117,197.1851169670117,197.1851169670117,s,1,0.6422531915013678,197.86840985240997,197.86840985240997,197.86840985240997,,,,,,,,,,,,,,,,,,,,,,,,,,,,126,001,2023-03-03_14h17.44.331,eb_01,2022.2.4,59.995979620633264,
,,,0,0,0,0,90,0,90,0,,,,,,,,,,,,,,,,,,,,,,,,,,,,,,,,,,,,,,,,,,,,,,,,,,,,,,,,,,,,126,001,2023-03-03_14h17.44.331,eb_01,2022.2.4,59.995979620633264,
2,stimuli/2.png,s,0,0,0,0,91,0,91,0,0,0,0,0,,,,,,,,,,,,,,,,,,,198.86834616196575,198.86834616196575,198.86834616196575,198.86834616196575,s,1,0.5661126500053797,199.45166078058537,199.45166078058537,199.45166078058537,200.46826677533682,200.46826677533682,200.46826677533682,,,,,,,,,,,,,,,,,,,,,,,,,126,001,2023-03-03_14h17.44.331,eb_01,2022.2.4,59.995979620633264,
,,,0,0,0,0,91,0,91,0,,,,,,,,,,,,,,,,,,,,,,,,,,,,,,,,,,,,,,,,,,,,,,,,,,,,,,,,,,,,126,001,2023-03-03_14h17.44.331,eb_01,2022.2.4,59.995979620633264,
1,stimuli/1.png,s,0,0,0,0,92,0,92,0,0,0,0,0,,,,,,,,,,,,,,,,,,,200.46826677533682,200.46826677533682,200.46826677533682,200.46826677533682,s,1,0.47812236958998255,200.98488484410336,200.98488484410336,200.98488484410336,,,,,,,,,,,,,,,,,,,,,,,,,,,,126,001,2023-03-03_14h17.44.331,eb_01,2022.2.4,59.995979620633264,
,,,0,0,0,0,92,0,92,0,,,,,,,,,,,,,,,,,,,,,,,,,,,,,,,,,,,,,,,,,,,,,,,,,,,,,,,,,,,,126,001,2023-03-03_14h17.44.331,eb_01,2022.2.4,59.995979620633264,
2,stimuli/2.png,s,0,0,0,0,93,0,93,0,0,0,0,0,,,,,,,,,,,,,,,,,,,201.9848809200339,201.9848809200339,201.9848809200339,201.9848809200339,s,1,0.553592199634295,202.5681297352712,202.5681297352712,202.5681297352712,203.58475987805286,203.58475987805286,203.58475987805286,,,,,,,,,,,,,,,,,,,,,,,,,126,001,2023-03-03_14h17.44.331,eb_01,2022.2.4,59.995979620633264,
,,,0,0,0,0,93,0,93,0,,,,,,,,,,,,,,,,,,,,,,,,,,,,,,,,,,,,,,,,,,,,,,,,,,,,,,,,,,,,126,001,2023-03-03_14h17.44.331,eb_01,2022.2.4,59.995979620633264,
1,stimuli/1.png,s,0,0,0,0,94,0,94,0,0,0,0,0,,,,,,,,,,,,,,,,,,,203.58475987805286,203.58475987805286,203.58475987805286,203.58475987805286,s,1,0.5217400459223427,204.15139515229384,204.15139515229384,204.15139515229384,,,,,,,,,,,,,,,,,,,,,,,,,,,,126,001,2023-03-03_14h17.44.331,eb_01,2022.2.4,59.995979620633264,
,,,0,0,0,0,94,0,94,0,,,,,,,,,,,,,,,,,,,,,,,,,,,,,,,,,,,,,,,,,,,,,,,,,,,,,,,,,,,,126,001,2023-03-03_14h17.44.331,eb_01,2022.2.4,59.995979620633264,
4,stimuli/4.png,l,0,0,0,0,95,0,95,0,0,0,0,0,,,,,,,,,,,,,,,,,,,205.1680014488811,205.1680014488811,205.1680014488811,205.1680014488811,l,1,0.7065310145844705,205.90129161762889,205.90129161762889,205.90129161762889,206.90117661264958,206.90117661264958,206.90117661264958,,,,,,,,,,,,,,,,,,,,,,,,,126,001,2023-03-03_14h17.44.331,eb_01,2022.2.4,59.995979620633264,
,,,0,0,0,0,95,0,95,0,,,,,,,,,,,,,,,,,,,,,,,,,,,,,,,,,,,,,,,,,,,,,,,,,,,,,,,,,,,,126,001,2023-03-03_14h17.44.331,eb_01,2022.2.4,59.995979620633264,
3,stimuli/3.png,l,0,0,0,0,96,0,96,0,0,0,0,0,,,,,,,,,,,,,,,,,,,206.90117661264958,206.90117661264958,206.90117661264958,206.90117661264958,l,1,0.5814369881700259,207.50119562921464,207.50119562921464,207.50119562921464,208.51777928703814,208.51777928703814,208.51777928703814,,,,,,,,,,,,,,,,,,,,,,,,,126,001,2023-03-03_14h17.44.331,eb_01,2022.2.4,59.995979620633264,
,,,0,0,0,0,96,0,96,0,,,,,,,,,,,,,,,,,,,,,,,,,,,,,,,,,,,,,,,,,,,,,,,,,,,,,,,,,,,,126,001,2023-03-03_14h17.44.331,eb_01,2022.2.4,59.995979620633264,
4,stimuli/4.png,l,0,0,0,0,97,0,97,0,0,0,0,0,,,,,,,,,,,,,,,,,,,208.51777928703814,208.51777928703814,208.51777928703814,208.51777928703814,l,1,0.7648500100185629,209.3010851519939,209.3010851519939,209.3010851519939,210.30103776147007,210.30103776147007,210.30103776147007,,,,,,,,,,,,,,,,,,,,,,,,,126,001,2023-03-03_14h17.44.331,eb_01,2022.2.4,59.995979620633264,
,,,0,0,0,0,97,0,97,0,,,,,,,,,,,,,,,,,,,,,,,,,,,,,,,,,,,,,,,,,,,,,,,,,,,,,,,,,,,,126,001,2023-03-03_14h17.44.331,eb_01,2022.2.4,59.995979620633264,
2,stimuli/2.png,s,0,0,0,0,98,0,98,0,0,0,0,0,,,,,,,,,,,,,,,,,,,210.30103776147007,210.30103776147007,210.30103776147007,210.30103776147007,s,1,0.5176421256910544,210.85098131545237,210.85098131545237,210.85098131545237,211.86758187689702,211.86758187689702,211.86758187689702,,,,,,,,,,,,,,,,,,,,,,,,,126,001,2023-03-03_14h17.44.331,eb_01,2022.2.4,59.995979620633264,
,,,0,0,0,0,98,0,98,0,,,,,,,,,,,,,,,,,,,,,,,,,,,,,,,,,,,,,,,,,,,,,,,,,,,,,,,,,,,,126,001,2023-03-03_14h17.44.331,eb_01,2022.2.4,59.995979620633264,
1,stimuli/1.png,s,0,0,0,0,99,0,99,0,0,0,0,0,,,,,,,,,,,,,,,,,,,211.86758187689702,211.86758187689702,211.86758187689702,211.86758187689702,l,0,0.5190882906899787,212.4342117178312,212.4342117178312,212.4342117178312,,,,,,,,,,,,,,,,,,,,,,,,,,,,126,001,2023-03-03_14h17.44.331,eb_01,2022.2.4,59.995979620633264,
,,,0,0,0,0,99,0,99,0,,,,,,,,,,,,,,,,,,,,,,,,,,,,,,,,,,,,,,,,,,,,,,,,,,,,,,,,,,,,126,001,2023-03-03_14h17.44.331,eb_01,2022.2.4,59.995979620633264,
,,,0,0,0,0,,,,,,,,,,,,,,,,,,,,,,,,,,,,,,,,,,,,,,,,213.43413987744134,213.43413987744134,return,58.76594512304291,,,,,,,,,,,,,,,,,,,,,126,001,2023-03-03_14h17.44.331,eb_01,2022.2.4,59.995979620633264,
2,stimuli/2.png,s,1,0,1,0,0,0,0,0,0,0,0,0,,,,,,,,,,,,,,,,,,,272.2473237948725,272.2473237948725,272.2473237948725,272.2473237948725,s,1,2.432813123916276,274.6971976214263,274.6971976214263,274.6971976214263,275.6971550605376,275.6971550605376,275.6971550605376,,,,,,,,,,,,,,,,,,,,,,,,,126,001,2023-03-03_14h17.44.331,eb_01,2022.2.4,59.995979620633264,
,,,1,0,1,0,0,0,0,0,,,,,,,,,,,,,,,,,,,,,,,,,,,,,,,,,,,,,,,,,,,,,,,,,,,,,,,,,,,,126,001,2023-03-03_14h17.44.331,eb_01,2022.2.4,59.995979620633264,
3,stimuli/3.png,l,1,0,1,0,1,0,1,0,0,0,0,0,,,,,,,,,,,,,,,,,,,275.6971550605376,275.6971550605376,275.6971550605376,275.6971550605376,l,1,0.45500817958964035,276.18041202571476,276.18041202571476,276.18041202571476,277.1970708442677,277.1970708442677,277.1970708442677,,,,,,,,,,,,,,,,,,,,,,,,,126,001,2023-03-03_14h17.44.331,eb_01,2022.2.4,59.995979620633264,
,,,1,0,1,0,1,0,1,0,,,,,,,,,,,,,,,,,,,,,,,,,,,,,,,,,,,,,,,,,,,,,,,,,,,,,,,,,,,,126,001,2023-03-03_14h17.44.331,eb_01,2022.2.4,59.995979620633264,
4,stimuli/4.png,l,1,0,1,0,2,0,2,0,0,0,0,0,,,,,,,,,,,,,,,,,,,277.1970708442677,277.1970708442677,277.1970708442677,277.1970708442677,l,1,1.4261473627702799,278.64695372633287,278.64695372633287,278.64695372633287,279.64689094148343,279.64689094148343,279.64689094148343,,,,,,,,,,,,,,,,,,,,,,,,,126,001,2023-03-03_14h17.44.331,eb_01,2022.2.4,59.995979620633264,
,,,1,0,1,0,2,0,2,0,,,,,,,,,,,,,,,,,,,,,,,,,,,,,,,,,,,,,,,,,,,,,,,,,,,,,,,,,,,,126,001,2023-03-03_14h17.44.331,eb_01,2022.2.4,59.995979620633264,
2,stimuli/2.png,s,1,0,1,0,3,0,3,0,0,0,0,0,,,,,,,,,,,,,,,,,,,279.64689094148343,279.64689094148343,279.64689094148343,279.64689094148343,s,1,0.4563505080586765,280.1301835250051,280.1301835250051,280.1301835250051,281.14678589755204,281.14678589755204,281.14678589755204,,,,,,,,,,,,,,,,,,,,,,,,,126,001,2023-03-03_14h17.44.331,eb_01,2022.2.4,59.995979620633264,
,,,1,0,1,0,3,0,3,0,,,,,,,,,,,,,,,,,,,,,,,,,,,,,,,,,,,,,,,,,,,,,,,,,,,,,,,,,,,,126,001,2023-03-03_14h17.44.331,eb_01,2022.2.4,59.995979620633264,
1,stimuli/1.png,s,1,0,1,0,4,0,4,0,0,0,0,0,,,,,,,,,,,,,,,,,,,281.14678589755204,281.14678589755204,281.14678589755204,281.14678589755204,s,1,0.5724991995375603,281.76341000333196,281.76341000333196,281.76341000333196,,,,,,,,,,,,,,,,,,,,,,,,,,,,126,001,2023-03-03_14h17.44.331,eb_01,2022.2.4,59.995979620633264,
,,,1,0,1,0,4,0,4,0,,,,,,,,,,,,,,,,,,,,,,,,,,,,,,,,,,,,,,,,,,,,,,,,,,,,,,,,,,,,126,001,2023-03-03_14h17.44.331,eb_01,2022.2.4,59.995979620633264,
2,stimuli/2.png,s,1,0,1,0,5,0,5,0,0,0,0,0,,,,,,,,,,,,,,,,,,,282.7630592532223,282.7630592532223,282.7630592532223,282.7630592532223,s,1,0.46025554594234563,283.2467119442299,283.2467119442299,283.2467119442299,284.2632977149915,284.2632977149915,284.2632977149915,,,,,,,,,,,,,,,,,,,,,,,,,126,001,2023-03-03_14h17.44.331,eb_01,2022.2.4,59.995979620633264,
,,,1,0,1,0,5,0,5,0,,,,,,,,,,,,,,,,,,,,,,,,,,,,,,,,,,,,,,,,,,,,,,,,,,,,,,,,,,,,126,001,2023-03-03_14h17.44.331,eb_01,2022.2.4,59.995979620633264,
1,stimuli/1.png,s,1,0,1,0,6,0,6,0,0,0,0,0,,,,,,,,,,,,,,,,,,,284.2632977149915,284.2632977149915,284.2632977149915,284.2632977149915,s,1,0.41606586318812333,284.7132394578657,284.7132394578657,284.7132394578657,,,,,,,,,,,,,,,,,,,,,,,,,,,,126,001,2023-03-03_14h17.44.331,eb_01,2022.2.4,59.995979620633264,
,,,1,0,1,0,6,0,6,0,,,,,,,,,,,,,,,,,,,,,,,,,,,,,,,,,,,,,,,,,,,,,,,,,,,,,,,,,,,,126,001,2023-03-03_14h17.44.331,eb_01,2022.2.4,59.995979620633264,
2,stimuli/2.png,s,1,0,1,0,7,0,7,0,0,0,0,0,,,,,,,,,,,,,,,,,,,285.7128769356059,285.7128769356059,285.7128769356059,285.7128769356059,s,1,0.48651833686744794,286.2298744302534,286.2298744302534,286.2298744302534,287.2464297141414,287.2464297141414,287.2464297141414,,,,,,,,,,,,,,,,,,,,,,,,,126,001,2023-03-03_14h17.44.331,eb_01,2022.2.4,59.995979620633264,
,,,1,0,1,0,7,0,7,0,,,,,,,,,,,,,,,,,,,,,,,,,,,,,,,,,,,,,,,,,,,,,,,,,,,,,,,,,,,,126,001,2023-03-03_14h17.44.331,eb_01,2022.2.4,59.995979620633264,
1,stimuli/1.png,s,1,0,1,0,8,0,8,0,0,0,0,0,,,,,,,,,,,,,,,,,,,287.2464297141414,287.2464297141414,287.2464297141414,287.2464297141414,s,1,0.393014458095422,287.6797262217442,287.6797262217442,287.6797262217442,,,,,,,,,,,,,,,,,,,,,,,,,,,,126,001,2023-03-03_14h17.44.331,eb_01,2022.2.4,59.995979620633264,
,,,1,0,1,0,8,0,8,0,,,,,,,,,,,,,,,,,,,,,,,,,,,,,,,,,,,,,,,,,,,,,,,,,,,,,,,,,,,,126,001,2023-03-03_14h17.44.331,eb_01,2022.2.4,59.995979620633264,
4,stimuli/4.png,l,1,0,1,0,9,0,9,0,0,0,0,0,,,,,,,,,,,,,,,,,,,288.6963479127153,288.6963479127153,288.6963479127153,288.6963479127153,l,1,0.4391015720902942,289.16299556280137,289.16299556280137,289.16299556280137,290.16261221288005,290.16261221288005,290.16261221288005,,,,,,,,,,,,,,,,,,,,,,,,,126,001,2023-03-03_14h17.44.331,eb_01,2022.2.4,59.995979620633264,
,,,1,0,1,0,9,0,9,0,,,,,,,,,,,,,,,,,,,,,,,,,,,,,,,,,,,,,,,,,,,,,,,,,,,,,,,,,,,,126,001,2023-03-03_14h17.44.331,eb_01,2022.2.4,59.995979620633264,
3,stimuli/3.png,l,1,0,1,0,10,0,10,0,0,0,0,0,,,,,,,,,,,,,,,,,,,290.16261221288005,290.16261221288005,290.16261221288005,290.16261221288005,l,1,0.4528973401465919,290.64617404690944,290.64617404690944,290.64617404690944,291.64618280058494,291.64618280058494,291.64618280058494,,,,,,,,,,,,,,,,,,,,,,,,,126,001,2023-03-03_14h17.44.331,eb_01,2022.2.4,59.995979620633264,
,,,1,0,1,0,10,0,10,0,,,,,,,,,,,,,,,,,,,,,,,,,,,,,,,,,,,,,,,,,,,,,,,,,,,,,,,,,,,,126,001,2023-03-03_14h17.44.331,eb_01,2022.2.4,59.995979620633264,
2,stimuli/2.png,s,1,0,1,0,11,0,11,0,0,0,0,0,,,,,,,,,,,,,,,,,,,291.64618280058494,291.64618280058494,291.64618280058494,291.64618280058494,s,1,0.4093469764338806,292.07952337831375,292.07952337831375,292.07952337831375,293.09607866220176,293.09607866220176,293.09607866220176,,,,,,,,,,,,,,,,,,,,,,,,,126,001,2023-03-03_14h17.44.331,eb_01,2022.2.4,59.995979620633264,
,,,1,0,1,0,11,0,11,0,,,,,,,,,,,,,,,,,,,,,,,,,,,,,,,,,,,,,,,,,,,,,,,,,,,,,,,,,,,,126,001,2023-03-03_14h17.44.331,eb_01,2022.2.4,59.995979620633264,
1,stimuli/1.png,s,1,0,1,0,12,0,12,0,0,0,0,0,,,,,,,,,,,,,,,,,,,293.09607866220176,293.09607866220176,293.09607866220176,293.09607866220176,s,1,0.5184948529058602,293.66272510489216,293.66272510489216,293.66272510489216,,,,,,,,,,,,,,,,,,,,,,,,,,,,126,001,2023-03-03_14h17.44.331,eb_01,2022.2.4,59.995979620633264,
,,,1,0,1,0,12,0,12,0,,,,,,,,,,,,,,,,,,,,,,,,,,,,,,,,,,,,,,,,,,,,,,,,,,,,,,,,,,,,126,001,2023-03-03_14h17.44.331,eb_01,2022.2.4,59.995979620633264,
2,stimuli/2.png,s,1,0,1,0,13,0,13,0,0,0,0,0,,,,,,,,,,,,,,,,,,,294.66264813306043,294.66264813306043,294.66264813306043,294.66264813306043,s,1,0.439985993609298,295.12928401099634,295.12928401099634,295.12928401099634,296.1292432611808,296.1292432611808,296.1292432611808,,,,,,,,,,,,,,,,,,,,,,,,,126,001,2023-03-03_14h17.44.331,eb_01,2022.2.4,59.995979620633264,
,,,1,0,1,0,13,0,13,0,,,,,,,,,,,,,,,,,,,,,,,,,,,,,,,,,,,,,,,,,,,,,,,,,,,,,,,,,,,,126,001,2023-03-03_14h17.44.331,eb_01,2022.2.4,59.995979620633264,
3,stimuli/3.png,l,1,0,1,0,14,0,14,0,0,0,0,0,,,,,,,,,,,,,,,,,,,296.1292432611808,296.1292432611808,296.1292432611808,296.1292432611808,l,1,0.3813579033885617,296.5292166983709,296.5292166983709,296.5292166983709,297.5291466690833,297.5291466690833,297.5291466690833,,,,,,,,,,,,,,,,,,,,,,,,,126,001,2023-03-03_14h17.44.331,eb_01,2022.2.4,59.995979620633264,
,,,1,0,1,0,14,0,14,0,,,,,,,,,,,,,,,,,,,,,,,,,,,,,,,,,,,,,,,,,,,,,,,,,,,,,,,,,,,,126,001,2023-03-03_14h17.44.331,eb_01,2022.2.4,59.995979620633264,
2,stimuli/2.png,s,1,0,1,0,15,0,15,0,0,0,0,0,,,,,,,,,,,,,,,,,,,297.5291466690833,297.5291466690833,297.5291466690833,297.5291466690833,s,1,0.48554154916200787,298.04578164147097,298.04578164147097,298.04578164147097,299.0624126897892,299.0624126897892,299.0624126897892,,,,,,,,,,,,,,,,,,,,,,,,,126,001,2023-03-03_14h17.44.331,eb_01,2022.2.4,59.995979620633264,
,,,1,0,1,0,15,0,15,0,,,,,,,,,,,,,,,,,,,,,,,,,,,,,,,,,,,,,,,,,,,,,,,,,,,,,,,,,,,,126,001,2023-03-03_14h17.44.331,eb_01,2022.2.4,59.995979620633264,
4,stimuli/4.png,l,1,0,1,0,16,0,16,0,0,0,0,0,,,,,,,,,,,,,,,,,,,299.0624126897892,299.0624126897892,299.0624126897892,299.0624126897892,s,0,0.3682929150236305,299.46205982673564,299.46205982673564,299.46205982673564,300.4623450753279,300.4623450753279,300.4623450753279,,,,,,,,,,,,,,,,,,,,,,,,,126,001,2023-03-03_14h17.44.331,eb_01,2022.2.4,59.995979620633264,
,,,1,0,1,0,16,0,16,0,,,,,,,,,,,,,,,,,,,,,,,,,,,,,,,,,,,,,,,,,,,,,,,,,,,,,,,,,,,,126,001,2023-03-03_14h17.44.331,eb_01,2022.2.4,59.995979620633264,
2,stimuli/2.png,s,1,0,1,0,17,0,17,0,0,0,0,0,,,,,,,,,,,,,,,,,,,300.4623450753279,300.4623450753279,300.4623450753279,300.4623450753279,s,1,0.6563861264148727,301.145601134951,301.145601134951,301.145601134951,302.16220199826057,302.16220199826057,302.16220199826057,,,,,,,,,,,,,,,,,,,,,,,,,126,001,2023-03-03_14h17.44.331,eb_01,2022.2.4,59.995979620633264,
,,,1,0,1,0,17,0,17,0,,,,,,,,,,,,,,,,,,,,,,,,,,,,,,,,,,,,,,,,,,,,,,,,,,,,,,,,,,,,126,001,2023-03-03_14h17.44.331,eb_01,2022.2.4,59.995979620633264,
4,stimuli/4.png,l,1,0,1,0,18,0,18,0,0,0,0,0,,,,,,,,,,,,,,,,,,,302.16220199826057,302.16220199826057,302.16220199826057,302.16220199826057,l,1,0.5005694703140762,302.69551239095745,302.69551239095745,302.69551239095745,303.71211234870134,303.71211234870134,303.71211234870134,,,,,,,,,,,,,,,,,,,,,,,,,126,001,2023-03-03_14h17.44.331,eb_01,2022.2.4,59.995979620633264,
,,,1,0,1,0,18,0,18,0,,,,,,,,,,,,,,,,,,,,,,,,,,,,,,,,,,,,,,,,,,,,,,,,,,,,,,,,,,,,126,001,2023-03-03_14h17.44.331,eb_01,2022.2.4,59.995979620633264,
1,stimuli/1.png,s,1,0,1,0,19,0,19,0,0,0,0,0,,,,,,,,,,,,,,,,,,,303.71211234870134,303.71211234870134,303.71211234870134,303.71211234870134,s,1,0.6226661227701697,304.3787536599266,304.3787536599266,304.3787536599266,,,,,,,,,,,,,,,,,,,,,,,,,,,,126,001,2023-03-03_14h17.44.331,eb_01,2022.2.4,59.995979620633264,
,,,1,0,1,0,19,0,19,0,,,,,,,,,,,,,,,,,,,,,,,,,,,,,,,,,,,,,,,,,,,,,,,,,,,,,,,,,,,,126,001,2023-03-03_14h17.44.331,eb_01,2022.2.4,59.995979620633264,
4,stimuli/4.png,l,1,0,1,0,20,0,20,0,0,0,0,0,,,,,,,,,,,,,,,,,,,305.39539587672334,305.39539587672334,305.39539587672334,305.39539587672334,l,1,0.5874579969677143,306.01198466599453,306.01198466599453,306.01198466599453,307.0119360680983,307.0119360680983,307.0119360680983,,,,,,,,,,,,,,,,,,,,,,,,,126,001,2023-03-03_14h17.44.331,eb_01,2022.2.4,59.995979620633264,
,,,1,0,1,0,20,0,20,0,,,,,,,,,,,,,,,,,,,,,,,,,,,,,,,,,,,,,,,,,,,,,,,,,,,,,,,,,,,,126,001,2023-03-03_14h17.44.331,eb_01,2022.2.4,59.995979620633264,
3,stimuli/3.png,l,1,0,1,0,21,0,21,0,0,0,0,0,,,,,,,,,,,,,,,,,,,307.0119360680983,307.0119360680983,307.0119360680983,307.0119360680983,l,1,0.5629625398141798,307.5952733254817,307.5952733254817,307.5952733254817,308.5948806181841,308.5948806181841,308.5948806181841,,,,,,,,,,,,,,,,,,,,,,,,,126,001,2023-03-03_14h17.44.331,eb_01,2022.2.4,59.995979620633264,
,,,1,0,1,0,21,0,21,0,,,,,,,,,,,,,,,,,,,,,,,,,,,,,,,,,,,,,,,,,,,,,,,,,,,,,,,,,,,,126,001,2023-03-03_14h17.44.331,eb_01,2022.2.4,59.995979620633264,
8,stimuli/8.png,l,1,0,1,0,22,0,22,0,0,0,0,0,,,,,,,,,,,,,,,,,,,308.5948806181841,308.5948806181841,308.5948806181841,308.5948806181841,l,1,0.6270906451100018,309.2451290410245,309.2451290410245,309.2451290410245,310.24477527241106,310.24477527241106,310.24477527241106,,,,,,,,,,,,,,,,,,,,,,,,,126,001,2023-03-03_14h17.44.331,eb_01,2022.2.4,59.995979620633264,
,,,1,0,1,0,22,0,22,0,,,,,,,,,,,,,,,,,,,,,,,,,,,,,,,,,,,,,,,,,,,,,,,,,,,,,,,,,,,,126,001,2023-03-03_14h17.44.331,eb_01,2022.2.4,59.995979620633264,
3,stimuli/3.png,l,1,0,1,0,23,0,23,0,0,0,0,0,,,,,,,,,,,,,,,,,,,310.24477527241106,310.24477527241106,310.24477527241106,310.24477527241106,l,1,0.3771673150768038,310.64505448398995,310.64505448398995,310.64505448398995,311.6449796250963,311.6449796250963,311.6449796250963,,,,,,,,,,,,,,,,,,,,,,,,,126,001,2023-03-03_14h17.44.331,eb_01,2022.2.4,59.995979620633264,
,,,1,0,1,0,23,0,23,0,,,,,,,,,,,,,,,,,,,,,,,,,,,,,,,,,,,,,,,,,,,,,,,,,,,,,,,,,,,,126,001,2023-03-03_14h17.44.331,eb_01,2022.2.4,59.995979620633264,
2,stimuli/2.png,s,1,0,1,0,24,0,24,0,0,0,0,0,,,,,,,,,,,,,,,,,,,311.6449796250963,311.6449796250963,311.6449796250963,311.6449796250963,s,1,0.5050293091044296,312.17829062152305,312.17829062152305,312.17829062152305,313.1782187811332,313.1782187811332,313.1782187811332,,,,,,,,,,,,,,,,,,,,,,,,,126,001,2023-03-03_14h17.44.331,eb_01,2022.2.4,59.995979620633264,
,,,1,0,1,0,24,0,24,0,,,,,,,,,,,,,,,,,,,,,,,,,,,,,,,,,,,,,,,,,,,,,,,,,,,,,,,,,,,,126,001,2023-03-03_14h17.44.331,eb_01,2022.2.4,59.995979620633264,
3,stimuli/3.png,l,1,0,1,0,25,0,25,0,0,0,0,0,,,,,,,,,,,,,,,,,,,313.1782187811332,313.1782187811332,313.1782187811332,313.1782187811332,l,1,2.011842071340652,315.2114488816587,315.2114488816587,315.2114488816587,316.2280681577977,316.2280681577977,316.2280681577977,,,,,,,,,,,,,,,,,,,,,,,,,126,001,2023-03-03_14h17.44.331,eb_01,2022.2.4,59.995979620633264,
,,,1,0,1,0,25,0,25,0,,,,,,,,,,,,,,,,,,,,,,,,,,,,,,,,,,,,,,,,,,,,,,,,,,,,,,,,,,,,126,001,2023-03-03_14h17.44.331,eb_01,2022.2.4,59.995979620633264,
4,stimuli/4.png,l,1,0,1,0,26,0,26,0,0,0,0,0,,,,,,,,,,,,,,,,,,,316.2280681577977,316.2280681577977,316.2280681577977,316.2280681577977,l,1,0.5220286148833111,316.7780252950615,316.7780252950615,316.7780252950615,317.77799933592905,317.77799933592905,317.77799933592905,,,,,,,,,,,,,,,,,,,,,,,,,126,001,2023-03-03_14h17.44.331,eb_01,2022.2.4,59.995979620633264,
,,,1,0,1,0,26,0,26,0,,,,,,,,,,,,,,,,,,,,,,,,,,,,,,,,,,,,,,,,,,,,,,,,,,,,,,,,,,,,126,001,2023-03-03_14h17.44.331,eb_01,2022.2.4,59.995979620633264,
3,stimuli/3.png,l,1,0,1,0,27,0,27,0,0,0,0,0,,,,,,,,,,,,,,,,,,,317.77799933592905,317.77799933592905,317.77799933592905,317.77799933592905,l,1,0.6361935458844528,318.44461831025546,318.44461831025546,318.44461831025546,319.46117872558534,319.46117872558534,319.46117872558534,,,,,,,,,,,,,,,,,,,,,,,,,126,001,2023-03-03_14h17.44.331,eb_01,2022.2.4,59.995979620633264,
,,,1,0,1,0,27,0,27,0,,,,,,,,,,,,,,,,,,,,,,,,,,,,,,,,,,,,,,,,,,,,,,,,,,,,,,,,,,,,126,001,2023-03-03_14h17.44.331,eb_01,2022.2.4,59.995979620633264,
4,stimuli/4.png,l,1,0,1,0,28,0,28,0,0,0,0,0,,,,,,,,,,,,,,,,,,,319.46117872558534,319.46117872558534,319.46117872558534,319.46117872558534,l,1,0.5610107755055651,320.0444782516861,320.0444782516861,320.0444782516861,321.04441456127097,321.04441456127097,321.04441456127097,,,,,,,,,,,,,,,,,,,,,,,,,126,001,2023-03-03_14h17.44.331,eb_01,2022.2.4,59.995979620633264,
,,,1,0,1,0,28,0,28,0,,,,,,,,,,,,,,,,,,,,,,,,,,,,,,,,,,,,,,,,,,,,,,,,,,,,,,,,,,,,126,001,2023-03-03_14h17.44.331,eb_01,2022.2.4,59.995979620633264,
3,stimuli/3.png,l,1,0,1,0,29,0,29,0,0,0,0,0,,,,,,,,,,,,,,,,,,,321.04441456127097,321.04441456127097,321.04441456127097,321.04441456127097,l,1,0.40982812584843487,321.4777675148798,321.4777675148798,321.4777675148798,322.47769144858466,322.47769144858466,322.47769144858466,,,,,,,,,,,,,,,,,,,,,,,,,126,001,2023-03-03_14h17.44.331,eb_01,2022.2.4,59.995979620633264,
,,,1,0,1,0,29,0,29,0,,,,,,,,,,,,,,,,,,,,,,,,,,,,,,,,,,,,,,,,,,,,,,,,,,,,,,,,,,,,126,001,2023-03-03_14h17.44.331,eb_01,2022.2.4,59.995979620633264,
2,stimuli/2.png,s,1,0,1,0,30,0,30,0,0,0,0,0,,,,,,,,,,,,,,,,,,,322.47769144858466,322.47769144858466,322.47769144858466,322.47769144858466,s,1,0.6405570944480132,323.14429140632274,323.14429140632274,323.14429140632274,324.1608967973734,324.1608967973734,324.1608967973734,,,,,,,,,,,,,,,,,,,,,,,,,126,001,2023-03-03_14h17.44.331,eb_01,2022.2.4,59.995979620633264,
,,,1,0,1,0,30,0,30,0,,,,,,,,,,,,,,,,,,,,,,,,,,,,,,,,,,,,,,,,,,,,,,,,,,,,,,,,,,,,126,001,2023-03-03_14h17.44.331,eb_01,2022.2.4,59.995979620633264,
1,stimuli/1.png,s,1,0,1,0,31,0,31,0,0,0,0,0,,,,,,,,,,,,,,,,,,,324.1608967973734,324.1608967973734,324.1608967973734,324.1608967973734,l,0,0.8764111799828243,325.0775033958198,325.0775033958198,325.0775033958198,,,,,,,,,,,,,,,,,,,,,,,,,,,,126,001,2023-03-03_14h17.44.331,eb_01,2022.2.4,59.995979620633264,
,,,1,0,1,0,31,0,31,0,,,,,,,,,,,,,,,,,,,,,,,,,,,,,,,,,,,,,,,,,,,,,,,,,,,,,,,,,,,,126,001,2023-03-03_14h17.44.331,eb_01,2022.2.4,59.995979620633264,
2,stimuli/2.png,s,1,0,1,0,32,0,32,0,0,0,0,0,,,,,,,,,,,,,,,,,,,326.07748528479715,326.07748528479715,326.07748528479715,326.07748528479715,s,1,0.5918991210637614,326.69409912766423,326.69409912766423,326.69409912766423,327.69402396690566,327.69402396690566,327.69402396690566,,,,,,,,,,,,,,,,,,,,,,,,,126,001,2023-03-03_14h17.44.331,eb_01,2022.2.4,59.995979620633264,
,,,1,0,1,0,32,0,32,0,,,,,,,,,,,,,,,,,,,,,,,,,,,,,,,,,,,,,,,,,,,,,,,,,,,,,,,,,,,,126,001,2023-03-03_14h17.44.331,eb_01,2022.2.4,59.995979620633264,
3,stimuli/3.png,l,1,0,1,0,33,0,33,0,0,0,0,0,,,,,,,,,,,,,,,,,,,327.69402396690566,327.69402396690566,327.69402396690566,327.69402396690566,l,1,0.5113850699563045,328.2273373781354,328.2273373781354,328.2273373781354,329.227296628349,329.227296628349,329.227296628349,,,,,,,,,,,,,,,,,,,,,,,,,126,001,2023-03-03_14h17.44.331,eb_01,2022.2.4,59.995979620633264,
,,,1,0,1,0,33,0,33,0,,,,,,,,,,,,,,,,,,,,,,,,,,,,,,,,,,,,,,,,,,,,,,,,,,,,,,,,,,,,126,001,2023-03-03_14h17.44.331,eb_01,2022.2.4,59.995979620633264,
2,stimuli/2.png,s,1,0,1,0,34,0,34,0,0,0,0,0,,,,,,,,,,,,,,,,,,,329.227296628349,329.227296628349,329.227296628349,329.227296628349,s,1,0.5141002137679607,329.76057623230736,329.76057623230736,329.76057623230736,330.7771852455626,330.7771852455626,330.7771852455626,,,,,,,,,,,,,,,,,,,,,,,,,126,001,2023-03-03_14h17.44.331,eb_01,2022.2.4,59.995979620633264,
,,,1,0,1,0,34,0,34,0,,,,,,,,,,,,,,,,,,,,,,,,,,,,,,,,,,,,,,,,,,,,,,,,,,,,,,,,,,,,126,001,2023-03-03_14h17.44.331,eb_01,2022.2.4,59.995979620633264,
4,stimuli/4.png,l,1,0,1,0,35,0,35,0,0,0,0,0,,,,,,,,,,,,,,,,,,,330.7771852455626,330.7771852455626,330.7771852455626,330.7771852455626,l,1,0.7642586852016393,331.5604711883934,331.5604711883934,331.5604711883934,332.577064505429,332.577064505429,332.577064505429,,,,,,,,,,,,,,,,,,,,,,,,,126,001,2023-03-03_14h17.44.331,eb_01,2022.2.4,59.995979620633264,
,,,1,0,1,0,35,0,35,0,,,,,,,,,,,,,,,,,,,,,,,,,,,,,,,,,,,,,,,,,,,,,,,,,,,,,,,,,,,,126,001,2023-03-03_14h17.44.331,eb_01,2022.2.4,59.995979620633264,
1,stimuli/1.png,s,1,0,1,0,36,0,36,0,0,0,0,0,,,,,,,,,,,,,,,,,,,332.577064505429,332.577064505429,332.577064505429,332.577064505429,s,1,0.8524264536099508,333.4770337166847,333.4770337166847,333.4770337166847,,,,,,,,,,,,,,,,,,,,,,,,,,,,126,001,2023-03-03_14h17.44.331,eb_01,2022.2.4,59.995979620633264,
,,,1,0,1,0,36,0,36,0,,,,,,,,,,,,,,,,,,,,,,,,,,,,,,,,,,,,,,,,,,,,,,,,,,,,,,,,,,,,126,001,2023-03-03_14h17.44.331,eb_01,2022.2.4,59.995979620633264,
4,stimuli/4.png,l,1,0,1,0,37,0,37,0,0,0,0,0,,,,,,,,,,,,,,,,,,,334.49362582631875,334.49362582631875,334.49362582631875,334.49362582631875,l,1,0.631900932174176,335.143578737654,335.143578737654,335.143578737654,336.160215521144,336.160215521144,336.160215521144,,,,,,,,,,,,,,,,,,,,,,,,,126,001,2023-03-03_14h17.44.331,eb_01,2022.2.4,59.995979620633264,
,,,1,0,1,0,37,0,37,0,,,,,,,,,,,,,,,,,,,,,,,,,,,,,,,,,,,,,,,,,,,,,,,,,,,,,,,,,,,,126,001,2023-03-03_14h17.44.331,eb_01,2022.2.4,59.995979620633264,
1,stimuli/1.png,s,1,0,1,0,38,0,38,0,0,0,0,0,,,,,,,,,,,,,,,,,,,336.160215521144,336.160215521144,336.160215521144,336.160215521144,s,1,0.5573493308620527,336.7601817139075,336.7601817139075,336.7601817139075,,,,,,,,,,,,,,,,,,,,,,,,,,,,126,001,2023-03-03_14h17.44.331,eb_01,2022.2.4,59.995979620633264,
,,,1,0,1,0,38,0,38,0,,,,,,,,,,,,,,,,,,,,,,,,,,,,,,,,,,,,,,,,,,,,,,,,,,,,,,,,,,,,126,001,2023-03-03_14h17.44.331,eb_01,2022.2.4,59.995979620633264,
2,stimuli/2.png,s,1,0,1,0,39,0,39,0,0,0,0,0,,,,,,,,,,,,,,,,,,,337.76008904585615,337.76008904585615,337.76008904585615,337.76008904585615,s,1,0.5415302599722054,338.3267216034292,338.3267216034292,338.3267216034292,339.34335868875496,339.34335868875496,339.34335868875496,,,,,,,,,,,,,,,,,,,,,,,,,126,001,2023-03-03_14h17.44.331,eb_01,2022.2.4,59.995979620633264,
,,,1,0,1,0,39,0,39,0,,,,,,,,,,,,,,,,,,,,,,,,,,,,,,,,,,,,,,,,,,,,,,,,,,,,,,,,,,,,126,001,2023-03-03_14h17.44.331,eb_01,2022.2.4,59.995979620633264,
1,stimuli/1.png,s,1,0,1,0,40,0,40,0,0,0,0,0,,,,,,,,,,,,,,,,,,,339.34335868875496,339.34335868875496,339.34335868875496,339.34335868875496,s,1,0.7262590474274475,340.10994989285246,340.10994989285246,340.10994989285246,,,,,,,,,,,,,,,,,,,,,,,,,,,,126,001,2023-03-03_14h17.44.331,eb_01,2022.2.4,59.995979620633264,
,,,1,0,1,0,40,0,40,0,,,,,,,,,,,,,,,,,,,,,,,,,,,,,,,,,,,,,,,,,,,,,,,,,,,,,,,,,,,,126,001,2023-03-03_14h17.44.331,eb_01,2022.2.4,59.995979620633264,
4,stimuli/4.png,l,1,0,1,0,41,0,41,0,0,0,0,0,,,,,,,,,,,,,,,,,,,341.1265736967616,341.1265736967616,341.1265736967616,341.1265736967616,s,0,0.6781447065004613,341.82656675420003,341.82656675420003,341.82656675420003,342.8264589936298,342.8264589936298,342.8264589936298,,,,,,,,,,,,,,,,,,,,,,,,,126,001,2023-03-03_14h17.44.331,eb_01,2022.2.4,59.995979620633264,
,,,1,0,1,0,41,0,41,0,,,,,,,,,,,,,,,,,,,,,,,,,,,,,,,,,,,,,,,,,,,,,,,,,,,,,,,,,,,,126,001,2023-03-03_14h17.44.331,eb_01,2022.2.4,59.995979620633264,
3,stimuli/3.png,l,1,0,1,0,42,0,42,0,0,0,0,0,,,,,,,,,,,,,,,,,,,342.8264589936298,342.8264589936298,342.8264589936298,342.8264589936298,l,1,0.6102809013682418,343.4597802529461,343.4597802529461,343.4597802529461,344.4763980198768,344.4763980198768,344.4763980198768,,,,,,,,,,,,,,,,,,,,,,,,,126,001,2023-03-03_14h17.44.331,eb_01,2022.2.4,59.995979620633264,
,,,1,0,1,0,42,0,42,0,,,,,,,,,,,,,,,,,,,,,,,,,,,,,,,,,,,,,,,,,,,,,,,,,,,,,,,,,,,,126,001,2023-03-03_14h17.44.331,eb_01,2022.2.4,59.995979620633264,
4,stimuli/4.png,l,1,0,1,0,43,0,43,0,0,0,0,0,,,,,,,,,,,,,,,,,,,344.4763980198768,344.4763980198768,344.4763980198768,344.4763980198768,l,1,0.4883864886360243,344.9929982794565,344.9929982794565,344.9929982794565,346.0096323462785,346.0096323462785,346.0096323462785,,,,,,,,,,,,,,,,,,,,,,,,,126,001,2023-03-03_14h17.44.331,eb_01,2022.2.4,59.995979620633264,
,,,1,0,1,0,43,0,43,0,,,,,,,,,,,,,,,,,,,,,,,,,,,,,,,,,,,,,,,,,,,,,,,,,,,,,,,,,,,,126,001,2023-03-03_14h17.44.331,eb_01,2022.2.4,59.995979620633264,
1,stimuli/1.png,s,1,0,1,0,44,0,44,0,0,0,0,0,,,,,,,,,,,,,,,,,,,346.0096323462785,346.0096323462785,346.0096323462785,346.0096323462785,s,1,0.5152019675006159,346.55958072986687,346.55958072986687,346.55958072986687,,,,,,,,,,,,,,,,,,,,,,,,,,,,126,001,2023-03-03_14h17.44.331,eb_01,2022.2.4,59.995979620633264,
,,,1,0,1,0,44,0,44,0,,,,,,,,,,,,,,,,,,,,,,,,,,,,,,,,,,,,,,,,,,,,,,,,,,,,,,,,,,,,126,001,2023-03-03_14h17.44.331,eb_01,2022.2.4,59.995979620633264,
4,stimuli/4.png,l,1,0,1,0,45,0,45,0,0,0,0,0,,,,,,,,,,,,,,,,,,,347.57621570225456,347.57621570225456,347.57621570225456,347.57621570225456,l,1,0.6045689873280935,348.2094793081633,348.2094793081633,348.2094793081633,349.2091195025423,349.2091195025423,349.2091195025423,,,,,,,,,,,,,,,,,,,,,,,,,126,001,2023-03-03_14h17.44.331,eb_01,2022.2.4,59.995979620633264,
,,,1,0,1,0,45,0,45,0,,,,,,,,,,,,,,,,,,,,,,,,,,,,,,,,,,,,,,,,,,,,,,,,,,,,,,,,,,,,126,001,2023-03-03_14h17.44.331,eb_01,2022.2.4,59.995979620633264,
2,stimuli/2.png,s,1,0,1,0,46,0,46,0,0,0,0,0,,,,,,,,,,,,,,,,,,,349.2091195025423,349.2091195025423,349.2091195025423,349.2091195025423,s,1,0.5557902738510165,349.79273084003944,349.79273084003944,349.79273084003944,350.7926701681281,350.7926701681281,350.7926701681281,,,,,,,,,,,,,,,,,,,,,,,,,126,001,2023-03-03_14h17.44.331,eb_01,2022.2.4,59.995979620633264,
,,,1,0,1,0,46,0,46,0,,,,,,,,,,,,,,,,,,,,,,,,,,,,,,,,,,,,,,,,,,,,,,,,,,,,,,,,,,,,126,001,2023-03-03_14h17.44.331,eb_01,2022.2.4,59.995979620633264,
3,stimuli/3.png,l,1,0,1,0,47,0,47,0,0,0,0,0,,,,,,,,,,,,,,,,,,,350.7926701681281,350.7926701681281,350.7926701681281,350.7926701681281,l,1,0.436251501145307,351.2593105738342,351.2593105738342,351.2593105738342,352.27592381296563,352.27592381296563,352.27592381296563,,,,,,,,,,,,,,,,,,,,,,,,,126,001,2023-03-03_14h17.44.331,eb_01,2022.2.4,59.995979620633264,
,,,1,0,1,0,47,0,47,0,,,,,,,,,,,,,,,,,,,,,,,,,,,,,,,,,,,,,,,,,,,,,,,,,,,,,,,,,,,,126,001,2023-03-03_14h17.44.331,eb_01,2022.2.4,59.995979620633264,
4,stimuli/4.png,l,1,0,1,0,48,0,48,0,0,0,0,0,,,,,,,,,,,,,,,,,,,352.27592381296563,352.27592381296563,352.27592381296563,352.27592381296563,l,1,0.5450537589786109,352.8425494279945,352.8425494279945,352.8425494279945,353.8425340336398,353.8425340336398,353.8425340336398,,,,,,,,,,,,,,,,,,,,,,,,,126,001,2023-03-03_14h17.44.331,eb_01,2022.2.4,59.995979620633264,
,,,1,0,1,0,48,0,48,0,,,,,,,,,,,,,,,,,,,,,,,,,,,,,,,,,,,,,,,,,,,,,,,,,,,,,,,,,,,,126,001,2023-03-03_14h17.44.331,eb_01,2022.2.4,59.995979620633264,
2,stimuli/2.png,s,1,0,1,0,49,0,49,0,0,0,0,0,,,,,,,,,,,,,,,,,,,353.8425340336398,353.8425340336398,353.8425340336398,353.8425340336398,s,1,0.5304282043362036,354.39244528961717,354.39244528961717,354.39244528961717,355.4090989767283,355.4090989767283,355.4090989767283,,,,,,,,,,,,,,,,,,,,,,,,,126,001,2023-03-03_14h17.44.331,eb_01,2022.2.4,59.995979620633264,
,,,1,0,1,0,49,0,49,0,,,,,,,,,,,,,,,,,,,,,,,,,,,,,,,,,,,,,,,,,,,,,,,,,,,,,,,,,,,,126,001,2023-03-03_14h17.44.331,eb_01,2022.2.4,59.995979620633264,
1,stimuli/1.png,s,1,0,1,0,50,0,50,0,0,0,0,0,,,,,,,,,,,,,,,,,,,355.4090989767283,355.4090989767283,355.4090989767283,355.4090989767283,s,1,0.922953786153812,356.37566874944605,356.37566874944605,356.37566874944605,,,,,,,,,,,,,,,,,,,,,,,,,,,,126,001,2023-03-03_14h17.44.331,eb_01,2022.2.4,59.995979620633264,
,,,1,0,1,0,50,0,50,0,,,,,,,,,,,,,,,,,,,,,,,,,,,,,,,,,,,,,,,,,,,,,,,,,,,,,,,,,,,,126,001,2023-03-03_14h17.44.331,eb_01,2022.2.4,59.995979620633264,
4,stimuli/4.png,l,1,0,1,0,51,0,51,0,0,0,0,0,,,,,,,,,,,,,,,,,,,357.3922922514903,357.3922922514903,357.3922922514903,357.3922922514903,l,1,0.7077604510413948,358.1255688369856,358.1255688369856,358.1255688369856,359.1421675872989,359.1421675872989,359.1421675872989,,,,,,,,,,,,,,,,,,,,,,,,,126,001,2023-03-03_14h17.44.331,eb_01,2022.2.4,59.995979620633264,
,,,1,0,1,0,51,0,51,0,,,,,,,,,,,,,,,,,,,,,,,,,,,,,,,,,,,,,,,,,,,,,,,,,,,,,,,,,,,,126,001,2023-03-03_14h17.44.331,eb_01,2022.2.4,59.995979620633264,
1,stimuli/1.png,s,1,0,1,0,52,0,52,0,0,0,0,0,,,,,,,,,,,,,,,,,,,359.1421675872989,359.1421675872989,359.1421675872989,359.1421675872989,s,1,0.45392453685053624,359.64215158924344,359.64215158924344,359.64215158924344,,,,,,,,,,,,,,,,,,,,,,,,,,,,126,001,2023-03-03_14h17.44.331,eb_01,2022.2.4,59.995979620633264,
,,,1,0,1,0,52,0,52,0,,,,,,,,,,,,,,,,,,,,,,,,,,,,,,,,,,,,,,,,,,,,,,,,,,,,,,,,,,,,126,001,2023-03-03_14h17.44.331,eb_01,2022.2.4,59.995979620633264,
4,stimuli/4.png,l,1,0,1,0,53,0,53,0,0,0,0,0,,,,,,,,,,,,,,,,,,,360.6587479247828,360.6587479247828,360.6587479247828,360.6587479247828,l,1,0.7854063202103134,361.4753527121211,361.4753527121211,361.4753527121211,362.4753330918611,362.4753330918611,362.4753330918611,,,,,,,,,,,,,,,,,,,,,,,,,126,001,2023-03-03_14h17.44.331,eb_01,2022.2.4,59.995979620633264,
,,,1,0,1,0,53,0,53,0,,,,,,,,,,,,,,,,,,,,,,,,,,,,,,,,,,,,,,,,,,,,,,,,,,,,,,,,,,,,126,001,2023-03-03_14h17.44.331,eb_01,2022.2.4,59.995979620633264,
3,stimuli/3.png,l,1,0,1,0,54,0,54,0,0,0,0,0,,,,,,,,,,,,,,,,,,,362.4753330918611,362.4753330918611,362.4753330918611,362.4753330918611,l,1,0.5368561074137688,363.04192429594696,363.04192429594696,363.04192429594696,364.05854176098364,364.05854176098364,364.05854176098364,,,,,,,,,,,,,,,,,,,,,,,,,126,001,2023-03-03_14h17.44.331,eb_01,2022.2.4,59.995979620633264,
,,,1,0,1,0,54,0,54,0,,,,,,,,,,,,,,,,,,,,,,,,,,,,,,,,,,,,,,,,,,,,,,,,,,,,,,,,,,,,126,001,2023-03-03_14h17.44.331,eb_01,2022.2.4,59.995979620633264,
4,stimuli/4.png,l,1,0,1,0,55,0,55,0,0,0,0,0,,,,,,,,,,,,,,,,,,,364.05854176098364,364.05854176098364,364.05854176098364,364.05854176098364,l,1,1.1616679037106223,365.24182860937435,365.24182860937435,365.24182860937435,366.2584192097711,366.2584192097711,366.2584192097711,,,,,,,,,,,,,,,,,,,,,,,,,126,001,2023-03-03_14h17.44.331,eb_01,2022.2.4,59.995979620633264,
,,,1,0,1,0,55,0,55,0,,,,,,,,,,,,,,,,,,,,,,,,,,,,,,,,,,,,,,,,,,,,,,,,,,,,,,,,,,,,126,001,2023-03-03_14h17.44.331,eb_01,2022.2.4,59.995979620633264,
1,stimuli/1.png,s,1,0,1,0,56,0,56,0,0,0,0,0,,,,,,,,,,,,,,,,,,,366.2584192097711,366.2584192097711,366.2584192097711,366.2584192097711,s,1,0.5458645290054847,366.8417093784956,366.8417093784956,366.8417093784956,,,,,,,,,,,,,,,,,,,,,,,,,,,,126,001,2023-03-03_14h17.44.331,eb_01,2022.2.4,59.995979620633264,
,,,1,0,1,0,56,0,56,0,,,,,,,,,,,,,,,,,,,,,,,,,,,,,,,,,,,,,,,,,,,,,,,,,,,,,,,,,,,,126,001,2023-03-03_14h17.44.331,eb_01,2022.2.4,59.995979620633264,
4,stimuli/4.png,l,1,0,1,0,57,0,57,0,0,0,0,0,,,,,,,,,,,,,,,,,,,367.85832533429493,367.85832533429493,367.85832533429493,367.85832533429493,l,1,0.37799891279428266,368.258291225211,368.258291225211,368.258291225211,369.25792598631233,369.25792598631233,369.25792598631233,,,,,,,,,,,,,,,,,,,,,,,,,126,001,2023-03-03_14h17.44.331,eb_01,2022.2.4,59.995979620633264,
,,,1,0,1,0,57,0,57,0,,,,,,,,,,,,,,,,,,,,,,,,,,,,,,,,,,,,,,,,,,,,,,,,,,,,,,,,,,,,126,001,2023-03-03_14h17.44.331,eb_01,2022.2.4,59.995979620633264,
2,stimuli/2.png,s,1,0,1,0,58,0,58,0,0,0,0,0,,,,,,,,,,,,,,,,,,,369.25792598631233,369.25792598631233,369.25792598631233,369.25792598631233,s,1,0.7784157681162469,370.05817622022005,370.05817622022005,370.05817622022005,371.0747979111911,371.0747979111911,371.0747979111911,,,,,,,,,,,,,,,,,,,,,,,,,126,001,2023-03-03_14h17.44.331,eb_01,2022.2.4,59.995979620633264,
,,,1,0,1,0,58,0,58,0,,,,,,,,,,,,,,,,,,,,,,,,,,,,,,,,,,,,,,,,,,,,,,,,,,,,,,,,,,,,126,001,2023-03-03_14h17.44.331,eb_01,2022.2.4,59.995979620633264,
1,stimuli/1.png,s,1,0,1,0,59,0,59,0,0,0,0,0,,,,,,,,,,,,,,,,,,,371.0747979111911,371.0747979111911,371.0747979111911,371.0747979111911,l,0,0.44859144499059767,371.5580880799389,371.5580880799389,371.5580880799389,,,,,,,,,,,,,,,,,,,,,,,,,,,,126,001,2023-03-03_14h17.44.331,eb_01,2022.2.4,59.995979620633264,
,,,1,0,1,0,59,0,59,0,,,,,,,,,,,,,,,,,,,,,,,,,,,,,,,,,,,,,,,,,,,,,,,,,,,,,,,,,,,,126,001,2023-03-03_14h17.44.331,eb_01,2022.2.4,59.995979620633264,
4,stimuli/4.png,l,1,0,1,0,60,0,60,0,0,0,0,0,,,,,,,,,,,,,,,,,,,372.5746466841665,372.5746466841665,372.5746466841665,372.5746466841665,l,1,1.0527744870632887,373.65765945243766,373.65765945243766,373.65765945243766,374.67458027708926,374.67458027708926,374.67458027708926,,,,,,,,,,,,,,,,,,,,,,,,,126,001,2023-03-03_14h17.44.331,eb_01,2022.2.4,59.995979620633264,
,,,1,0,1,0,60,0,60,0,,,,,,,,,,,,,,,,,,,,,,,,,,,,,,,,,,,,,,,,,,,,,,,,,,,,,,,,,,,,126,001,2023-03-03_14h17.44.331,eb_01,2022.2.4,59.995979620633264,
1,stimuli/1.png,s,1,0,1,0,61,0,61,0,0,0,0,0,,,,,,,,,,,,,,,,,,,374.67458027708926,374.67458027708926,374.67458027708926,374.67458027708926,s,1,0.6408707169466652,375.3578707476845,375.3578707476845,375.3578707476845,,,,,,,,,,,,,,,,,,,,,,,,,,,,126,001,2023-03-03_14h17.44.331,eb_01,2022.2.4,59.995979620633264,
,,,1,0,1,0,61,0,61,0,,,,,,,,,,,,,,,,,,,,,,,,,,,,,,,,,,,,,,,,,,,,,,,,,,,,,,,,,,,,126,001,2023-03-03_14h17.44.331,eb_01,2022.2.4,59.995979620633264,
4,stimuli/4.png,l,1,0,1,0,62,0,62,0,0,0,0,0,,,,,,,,,,,,,,,,,,,376.3744960608601,376.3744960608601,376.3744960608601,376.3744960608601,l,1,0.9490086021833122,377.3411096018681,377.3411096018681,377.3411096018681,378.3410175375175,378.3410175375175,378.3410175375175,,,,,,,,,,,,,,,,,,,,,,,,,126,001,2023-03-03_14h17.44.331,eb_01,2022.2.4,59.995979620633264,
,,,1,0,1,0,62,0,62,0,,,,,,,,,,,,,,,,,,,,,,,,,,,,,,,,,,,,,,,,,,,,,,,,,,,,,,,,,,,,126,001,2023-03-03_14h17.44.331,eb_01,2022.2.4,59.995979620633264,
2,stimuli/2.png,s,1,0,1,0,63,0,63,0,0,0,0,0,,,,,,,,,,,,,,,,,,,378.3410175375175,378.3410175375175,378.3410175375175,378.3410175375175,s,1,0.5265307126974221,378.8909897672711,378.8909897672711,378.8909897672711,379.8909496211854,379.8909496211854,379.8909496211854,,,,,,,,,,,,,,,,,,,,,,,,,126,001,2023-03-03_14h17.44.331,eb_01,2022.2.4,59.995979620633264,
,,,1,0,1,0,63,0,63,0,,,,,,,,,,,,,,,,,,,,,,,,,,,,,,,,,,,,,,,,,,,,,,,,,,,,,,,,,,,,126,001,2023-03-03_14h17.44.331,eb_01,2022.2.4,59.995979620633264,
3,stimuli/3.png,l,1,0,1,0,64,0,64,0,0,0,0,0,,,,,,,,,,,,,,,,,,,379.8909496211854,379.8909496211854,379.8909496211854,379.8909496211854,l,1,0.5366242863237858,380.4575565214909,380.4575565214909,380.4575565214909,381.47418756980915,381.47418756980915,381.47418756980915,,,,,,,,,,,,,,,,,,,,,,,,,126,001,2023-03-03_14h17.44.331,eb_01,2022.2.4,59.995979620633264,
,,,1,0,1,0,64,0,64,0,,,,,,,,,,,,,,,,,,,,,,,,,,,,,,,,,,,,,,,,,,,,,,,,,,,,,,,,,,,,126,001,2023-03-03_14h17.44.331,eb_01,2022.2.4,59.995979620633264,
4,stimuli/4.png,l,1,0,1,0,65,0,65,0,0,0,0,0,,,,,,,,,,,,,,,,,,,381.47418756980915,381.47418756980915,381.47418756980915,381.47418756980915,l,1,0.6254419385222718,382.1241281052935,382.1241281052935,382.1241281052935,383.1240831296018,383.1240831296018,383.1240831296018,,,,,,,,,,,,,,,,,,,,,,,,,126,001,2023-03-03_14h17.44.331,eb_01,2022.2.4,59.995979620633264,
,,,1,0,1,0,65,0,65,0,,,,,,,,,,,,,,,,,,,,,,,,,,,,,,,,,,,,,,,,,,,,,,,,,,,,,,,,,,,,126,001,2023-03-03_14h17.44.331,eb_01,2022.2.4,59.995979620633264,
2,stimuli/2.png,s,1,0,1,0,66,0,66,0,0,0,0,0,,,,,,,,,,,,,,,,,,,383.1240831296018,383.1240831296018,383.1240831296018,383.1240831296018,s,1,0.5435369610204361,383.69071598901064,383.69071598901064,383.69071598901064,384.6906344894087,384.6906344894087,384.6906344894087,,,,,,,,,,,,,,,,,,,,,,,,,126,001,2023-03-03_14h17.44.331,eb_01,2022.2.4,59.995979620633264,
,,,1,0,1,0,66,0,66,0,,,,,,,,,,,,,,,,,,,,,,,,,,,,,,,,,,,,,,,,,,,,,,,,,,,,,,,,,,,,126,001,2023-03-03_14h17.44.331,eb_01,2022.2.4,59.995979620633264,
3,stimuli/3.png,l,1,0,1,0,67,0,67,0,0,0,0,0,,,,,,,,,,,,,,,,,,,384.6906344894087,384.6906344894087,384.6906344894087,384.6906344894087,l,1,0.4330292487575207,385.1406233209709,385.1406233209709,385.1406233209709,386.1572157324408,386.1572157324408,386.1572157324408,,,,,,,,,,,,,,,,,,,,,,,,,126,001,2023-03-03_14h17.44.331,eb_01,2022.2.4,59.995979620633264,
,,,1,0,1,0,67,0,67,0,,,,,,,,,,,,,,,,,,,,,,,,,,,,,,,,,,,,,,,,,,,,,,,,,,,,,,,,,,,,126,001,2023-03-03_14h17.44.331,eb_01,2022.2.4,59.995979620633264,
4,stimuli/4.png,l,1,0,1,0,68,0,68,0,0,0,0,0,,,,,,,,,,,,,,,,,,,386.1572157324408,386.1572157324408,386.1572157324408,386.1572157324408,l,1,0.5664884536818136,386.74052823809325,386.74052823809325,386.74052823809325,387.75716441788245,387.75716441788245,387.75716441788245,,,,,,,,,,,,,,,,,,,,,,,,,126,001,2023-03-03_14h17.44.331,eb_01,2022.2.4,59.995979620633264,
,,,1,0,1,0,68,0,68,0,,,,,,,,,,,,,,,,,,,,,,,,,,,,,,,,,,,,,,,,,,,,,,,,,,,,,,,,,,,,126,001,2023-03-03_14h17.44.331,eb_01,2022.2.4,59.995979620633264,
1,stimuli/1.png,s,1,0,1,0,69,0,69,0,0,0,0,0,,,,,,,,,,,,,,,,,,,387.75716441788245,387.75716441788245,387.75716441788245,387.75716441788245,s,1,0.5415746319340542,388.3404213830945,388.3404213830945,388.3404213830945,,,,,,,,,,,,,,,,,,,,,,,,,,,,126,001,2023-03-03_14h17.44.331,eb_01,2022.2.4,59.995979620633264,
,,,1,0,1,0,69,0,69,0,,,,,,,,,,,,,,,,,,,,,,,,,,,,,,,,,,,,,,,,,,,,,,,,,,,,,,,,,,,,126,001,2023-03-03_14h17.44.331,eb_01,2022.2.4,59.995979620633264,
2,stimuli/2.png,s,1,0,1,0,70,0,70,0,0,0,0,0,,,,,,,,,,,,,,,,,,,389.340410214616,389.340410214616,389.340410214616,389.340410214616,s,1,0.974396932637319,390.340301850345,390.340301850345,390.340301850345,391.3402125026332,391.3402125026332,391.3402125026332,,,,,,,,,,,,,,,,,,,,,,,,,126,001,2023-03-03_14h17.44.331,eb_01,2022.2.4,59.995979620633264,
,,,1,0,1,0,70,0,70,0,,,,,,,,,,,,,,,,,,,,,,,,,,,,,,,,,,,,,,,,,,,,,,,,,,,,,,,,,,,,126,001,2023-03-03_14h17.44.331,eb_01,2022.2.4,59.995979620633264,
3,stimuli/3.png,l,1,0,1,0,71,0,71,0,0,0,0,0,,,,,,,,,,,,,,,,,,,391.3402125026332,391.3402125026332,391.3402125026332,391.3402125026332,l,1,0.48670457853586413,391.8568942618149,391.8568942618149,391.8568942618149,392.85683057139977,392.85683057139977,392.85683057139977,,,,,,,,,,,,,,,,,,,,,,,,,126,001,2023-03-03_14h17.44.331,eb_01,2022.2.4,59.995979620633264,
,,,1,0,1,0,71,0,71,0,,,,,,,,,,,,,,,,,,,,,,,,,,,,,,,,,,,,,,,,,,,,,,,,,,,,,,,,,,,,126,001,2023-03-03_14h17.44.331,eb_01,2022.2.4,59.995979620633264,
2,stimuli/2.png,s,1,0,1,0,72,0,72,0,0,0,0,0,,,,,,,,,,,,,,,,,,,392.85683057139977,392.85683057139977,392.85683057139977,392.85683057139977,s,1,0.6020156352897175,393.49014398260624,393.49014398260624,393.49014398260624,394.506729451532,394.506729451532,394.506729451532,,,,,,,,,,,,,,,,,,,,,,,,,126,001,2023-03-03_14h17.44.331,eb_01,2022.2.4,59.995979620633264,
,,,1,0,1,0,72,0,72,0,,,,,,,,,,,,,,,,,,,,,,,,,,,,,,,,,,,,,,,,,,,,,,,,,,,,,,,,,,,,126,001,2023-03-03_14h17.44.331,eb_01,2022.2.4,59.995979620633264,
1,stimuli/1.png,s,1,0,1,0,73,0,73,0,0,0,0,0,,,,,,,,,,,,,,,,,,,394.506729451532,394.506729451532,394.506729451532,394.506729451532,l,0,0.5841820152127184,395.1400528238155,395.1400528238155,395.1400528238155,,,,,,,,,,,,,,,,,,,,,,,,,,,,126,001,2023-03-03_14h17.44.331,eb_01,2022.2.4,59.995979620633264,
,,,1,0,1,0,73,0,73,0,,,,,,,,,,,,,,,,,,,,,,,,,,,,,,,,,,,,,,,,,,,,,,,,,,,,,,,,,,,,126,001,2023-03-03_14h17.44.331,eb_01,2022.2.4,59.995979620633264,
4,stimuli/4.png,l,1,0,1,0,74,0,74,0,0,0,0,0,,,,,,,,,,,,,,,,,,,396.1566669685126,396.1566669685126,396.1566669685126,396.1566669685126,l,1,0.5342801165534183,396.723266624409,396.723266624409,396.723266624409,397.7228865948273,397.7228865948273,397.7228865948273,,,,,,,,,,,,,,,,,,,,,,,,,126,001,2023-03-03_14h17.44.331,eb_01,2022.2.4,59.995979620633264,
,,,1,0,1,0,74,0,74,0,,,,,,,,,,,,,,,,,,,,,,,,,,,,,,,,,,,,,,,,,,,,,,,,,,,,,,,,,,,,126,001,2023-03-03_14h17.44.331,eb_01,2022.2.4,59.995979620633264,
2,stimuli/2.png,s,1,0,1,0,75,0,75,0,0,0,0,0,,,,,,,,,,,,,,,,,,,397.7228865948273,397.7228865948273,397.7228865948273,397.7228865948273,s,1,0.5280982215481345,398.2731736545102,398.2731736545102,398.2731736545102,399.2897721029876,399.2897721029876,399.2897721029876,,,,,,,,,,,,,,,,,,,,,,,,,126,001,2023-03-03_14h17.44.331,eb_01,2022.2.4,59.995979620633264,
,,,1,0,1,0,75,0,75,0,,,,,,,,,,,,,,,,,,,,,,,,,,,,,,,,,,,,,,,,,,,,,,,,,,,,,,,,,,,,126,001,2023-03-03_14h17.44.331,eb_01,2022.2.4,59.995979620633264,
4,stimuli/4.png,l,1,0,1,0,76,0,76,0,0,0,0,0,,,,,,,,,,,,,,,,,,,399.2897721029876,399.2897721029876,399.2897721029876,399.2897721029876,l,1,0.7612573872320354,400.0730954752653,400.0730954752653,400.0730954752653,401.0730583476834,401.0730583476834,401.0730583476834,,,,,,,,,,,,,,,,,,,,,,,,,126,001,2023-03-03_14h17.44.331,eb_01,2022.2.4,59.995979620633264,
,,,1,0,1,0,76,0,76,0,,,,,,,,,,,,,,,,,,,,,,,,,,,,,,,,,,,,,,,,,,,,,,,,,,,,,,,,,,,,126,001,2023-03-03_14h17.44.331,eb_01,2022.2.4,59.995979620633264,
2,stimuli/2.png,s,1,0,1,0,77,0,77,0,0,0,0,0,,,,,,,,,,,,,,,,,,,401.0730583476834,401.0730583476834,401.0730583476834,401.0730583476834,s,1,0.5691006665292662,401.6729708110797,401.6729708110797,401.6729708110797,402.6729542092944,402.6729542092944,402.6729542092944,,,,,,,,,,,,,,,,,,,,,,,,,126,001,2023-03-03_14h17.44.331,eb_01,2022.2.4,59.995979620633264,
,,,1,0,1,0,77,0,77,0,,,,,,,,,,,,,,,,,,,,,,,,,,,,,,,,,,,,,,,,,,,,,,,,,,,,,,,,,,,,126,001,2023-03-03_14h17.44.331,eb_01,2022.2.4,59.995979620633264,
3,stimuli/3.png,l,1,0,1,0,78,0,78,0,0,0,0,0,,,,,,,,,,,,,,,,,,,402.6729542092944,402.6729542092944,402.6729542092944,402.6729542092944,l,1,0.5291239090147428,403.222958737053,403.222958737053,403.222958737053,404.23951794501045,404.23951794501045,404.23951794501045,,,,,,,,,,,,,,,,,,,,,,,,,126,001,2023-03-03_14h17.44.331,eb_01,2022.2.4,59.995979620633264,
,,,1,0,1,0,78,0,78,0,,,,,,,,,,,,,,,,,,,,,,,,,,,,,,,,,,,,,,,,,,,,,,,,,,,,,,,,,,,,126,001,2023-03-03_14h17.44.331,eb_01,2022.2.4,59.995979620633264,
8,stimuli/8.png,l,1,0,1,0,79,0,79,0,0,0,0,0,,,,,,,,,,,,,,,,,,,404.23951794501045,404.23951794501045,404.23951794501045,404.23951794501045,l,1,0.4426172230450902,404.70612635454745,404.70612635454745,404.70612635454745,405.706063569698,405.706063569698,405.706063569698,,,,,,,,,,,,,,,,,,,,,,,,,126,001,2023-03-03_14h17.44.331,eb_01,2022.2.4,59.995979620633264,
,,,1,0,1,0,79,0,79,0,,,,,,,,,,,,,,,,,,,,,,,,,,,,,,,,,,,,,,,,,,,,,,,,,,,,,,,,,,,,126,001,2023-03-03_14h17.44.331,eb_01,2022.2.4,59.995979620633264,
3,stimuli/3.png,l,1,0,1,0,80,0,80,0,0,0,0,0,,,,,,,,,,,,,,,,,,,405.706063569698,405.706063569698,405.706063569698,405.706063569698,l,1,0.49610993335954845,406.2227115216374,406.2227115216374,406.2227115216374,407.2226922032132,407.2226922032132,407.2226922032132,,,,,,,,,,,,,,,,,,,,,,,,,126,001,2023-03-03_14h17.44.331,eb_01,2022.2.4,59.995979620633264,
,,,1,0,1,0,80,0,80,0,,,,,,,,,,,,,,,,,,,,,,,,,,,,,,,,,,,,,,,,,,,,,,,,,,,,,,,,,,,,126,001,2023-03-03_14h17.44.331,eb_01,2022.2.4,59.995979620633264,
2,stimuli/2.png,s,1,0,1,0,81,0,81,0,0,0,0,0,,,,,,,,,,,,,,,,,,,407.2226922032132,407.2226922032132,407.2226922032132,407.2226922032132,s,1,0.4995422736101318,407.73927374806954,407.73927374806954,407.73927374806954,408.73922665943974,408.73922665943974,408.73922665943974,,,,,,,,,,,,,,,,,,,,,,,,,126,001,2023-03-03_14h17.44.331,eb_01,2022.2.4,59.995979620633264,
,,,1,0,1,0,81,0,81,0,,,,,,,,,,,,,,,,,,,,,,,,,,,,,,,,,,,,,,,,,,,,,,,,,,,,,,,,,,,,126,001,2023-03-03_14h17.44.331,eb_01,2022.2.4,59.995979620633264,
3,stimuli/3.png,l,1,0,1,0,82,0,82,0,0,0,0,0,,,,,,,,,,,,,,,,,,,408.73922665943974,408.73922665943974,408.73922665943974,408.73922665943974,l,1,0.9350528534559999,409.7058281264035,409.7058281264035,409.7058281264035,410.7057656433899,410.7057656433899,410.7057656433899,,,,,,,,,,,,,,,,,,,,,,,,,126,001,2023-03-03_14h17.44.331,eb_01,2022.2.4,59.995979620633264,
,,,1,0,1,0,82,0,82,0,,,,,,,,,,,,,,,,,,,,,,,,,,,,,,,,,,,,,,,,,,,,,,,,,,,,,,,,,,,,126,001,2023-03-03_14h17.44.331,eb_01,2022.2.4,59.995979620633264,
2,stimuli/2.png,s,1,0,1,0,83,0,83,0,0,0,0,0,,,,,,,,,,,,,,,,,,,410.7057656433899,410.7057656433899,410.7057656433899,410.7057656433899,s,1,0.5365485218935646,411.2724395544792,411.2724395544792,411.2724395544792,412.2890283437446,412.2890283437446,412.2890283437446,,,,,,,,,,,,,,,,,,,,,,,,,126,001,2023-03-03_14h17.44.331,eb_01,2022.2.4,59.995979620633264,
,,,1,0,1,0,83,0,83,0,,,,,,,,,,,,,,,,,,,,,,,,,,,,,,,,,,,,,,,,,,,,,,,,,,,,,,,,,,,,126,001,2023-03-03_14h17.44.331,eb_01,2022.2.4,59.995979620633264,
4,stimuli/4.png,l,1,0,1,0,84,0,84,0,0,0,0,0,,,,,,,,,,,,,,,,,,,412.2890283437446,412.2890283437446,412.2890283437446,412.2890283437446,l,1,0.857314014370786,413.172292855219,413.172292855219,413.172292855219,414.188892209233,414.188892209233,414.188892209233,,,,,,,,,,,,,,,,,,,,,,,,,126,001,2023-03-03_14h17.44.331,eb_01,2022.2.4,59.995979620633264,
,,,1,0,1,0,84,0,84,0,,,,,,,,,,,,,,,,,,,,,,,,,,,,,,,,,,,,,,,,,,,,,,,,,,,,,,,,,,,,126,001,2023-03-03_14h17.44.331,eb_01,2022.2.4,59.995979620633264,
1,stimuli/1.png,s,1,0,1,0,85,0,85,0,0,0,0,0,,,,,,,,,,,,,,,,,,,414.188892209233,414.188892209233,414.188892209233,414.188892209233,s,1,0.5174761079833843,414.7555670258589,414.7555670258589,414.7555670258589,,,,,,,,,,,,,,,,,,,,,,,,,,,,126,001,2023-03-03_14h17.44.331,eb_01,2022.2.4,59.995979620633264,
,,,1,0,1,0,85,0,85,0,,,,,,,,,,,,,,,,,,,,,,,,,,,,,,,,,,,,,,,,,,,,,,,,,,,,,,,,,,,,126,001,2023-03-03_14h17.44.331,eb_01,2022.2.4,59.995979620633264,
4,stimuli/4.png,l,1,0,1,0,86,0,86,0,0,0,0,0,,,,,,,,,,,,,,,,,,,415.77214464667486,415.77214464667486,415.77214464667486,415.77214464667486,l,1,0.6862581418827176,416.4887744876032,416.4887744876032,416.4887744876032,417.5054200247687,417.5054200247687,417.5054200247687,,,,,,,,,,,,,,,,,,,,,,,,,126,001,2023-03-03_14h17.44.331,eb_01,2022.2.4,59.995979620633264,
,,,1,0,1,0,86,0,86,0,,,,,,,,,,,,,,,,,,,,,,,,,,,,,,,,,,,,,,,,,,,,,,,,,,,,,,,,,,,,126,001,2023-03-03_14h17.44.331,eb_01,2022.2.4,59.995979620633264,
1,stimuli/1.png,s,1,0,1,0,87,0,87,0,0,0,0,0,,,,,,,,,,,,,,,,,,,417.5054200247687,417.5054200247687,417.5054200247687,417.5054200247687,s,1,0.5921034737548325,418.1386987231672,418.1386987231672,418.1386987231672,,,,,,,,,,,,,,,,,,,,,,,,,,,,126,001,2023-03-03_14h17.44.331,eb_01,2022.2.4,59.995979620633264,
,,,1,0,1,0,87,0,87,0,,,,,,,,,,,,,,,,,,,,,,,,,,,,,,,,,,,,,,,,,,,,,,,,,,,,,,,,,,,,126,001,2023-03-03_14h17.44.331,eb_01,2022.2.4,59.995979620633264,
2,stimuli/2.png,s,1,0,1,0,88,0,88,0,0,0,0,0,,,,,,,,,,,,,,,,,,,419.1386356364528,419.1386356364528,419.1386356364528,419.1386356364528,s,1,0.5028955290326849,419.6719375773391,419.6719375773391,419.6719375773391,420.6718440037512,420.6718440037512,420.6718440037512,,,,,,,,,,,,,,,,,,,,,,,,,126,001,2023-03-03_14h17.44.331,eb_01,2022.2.4,59.995979620633264,
,,,1,0,1,0,88,0,88,0,,,,,,,,,,,,,,,,,,,,,,,,,,,,,,,,,,,,,,,,,,,,,,,,,,,,,,,,,,,,126,001,2023-03-03_14h17.44.331,eb_01,2022.2.4,59.995979620633264,
3,stimuli/3.png,l,1,0,1,0,89,0,89,0,0,0,0,0,,,,,,,,,,,,,,,,,,,420.6718440037512,420.6718440037512,420.6718440037512,420.6718440037512,l,1,0.6096913876535837,421.3051571130927,421.3051571130927,421.3051571130927,422.3217612967419,422.3217612967419,422.3217612967419,,,,,,,,,,,,,,,,,,,,,,,,,126,001,2023-03-03_14h17.44.331,eb_01,2022.2.4,59.995979620633264,
,,,1,0,1,0,89,0,89,0,,,,,,,,,,,,,,,,,,,,,,,,,,,,,,,,,,,,,,,,,,,,,,,,,,,,,,,,,,,,126,001,2023-03-03_14h17.44.331,eb_01,2022.2.4,59.995979620633264,
8,stimuli/8.png,l,1,0,1,0,90,0,90,0,0,0,0,0,,,,,,,,,,,,,,,,,,,422.3217612967419,422.3217612967419,422.3217612967419,422.3217612967419,l,1,0.5197870742122177,422.87175797639065,422.87175797639065,422.87175797639065,423.8883168824832,423.8883168824832,423.8883168824832,,,,,,,,,,,,,,,,,,,,,,,,,126,001,2023-03-03_14h17.44.331,eb_01,2022.2.4,59.995979620633264,
,,,1,0,1,0,90,0,90,0,,,,,,,,,,,,,,,,,,,,,,,,,,,,,,,,,,,,,,,,,,,,,,,,,,,,,,,,,,,,126,001,2023-03-03_14h17.44.331,eb_01,2022.2.4,59.995979620633264,
6,stimuli/6.png,s,1,0,1,0,91,0,91,0,0,0,0,0,,,,,,,,,,,,,,,,,,,423.8883168824832,423.8883168824832,423.8883168824832,423.8883168824832,s,1,0.7052695819875225,424.63827281232807,424.63827281232807,424.63827281232807,,,,,,,,,,,,,,,,,,,,,,,,,,,,126,001,2023-03-03_14h17.44.331,eb_01,2022.2.4,59.995979620633264,
,,,1,0,1,0,91,0,91,0,,,,,,,,,,,,,,,,,,,,,,,,,,,,,,,,,,,,,,,,,,,,,,,,,,,,,,,,,,,,126,001,2023-03-03_14h17.44.331,eb_01,2022.2.4,59.995979620633264,
5,stimuli/5.png,s,1,0,1,0,92,0,92,0,0,0,0,0,,,,,,,,,,,,,,,,,,,425.6379066678637,425.6379066678637,425.6379066678637,425.6379066678637,s,1,0.5157531462609768,426.17156237736344,426.17156237736344,426.17156237736344,427.18819523681304,427.18819523681304,427.18819523681304,,,,,,,,,,,,,,,,,,,,,,,,,126,001,2023-03-03_14h17.44.331,eb_01,2022.2.4,59.995979620633264,
,,,1,0,1,0,92,0,92,0,,,,,,,,,,,,,,,,,,,,,,,,,,,,,,,,,,,,,,,,,,,,,,,,,,,,,,,,,,,,126,001,2023-03-03_14h17.44.331,eb_01,2022.2.4,59.995979620633264,
9,stimuli/9.png,l,1,0,1,0,93,0,93,0,0,0,0,0,,,,,,,,,,,,,,,,,,,427.18819523681304,427.18819523681304,427.18819523681304,427.18819523681304,l,1,0.6614729083958082,427.8880971354374,427.8880971354374,427.8880971354374,,,,,,,,,,,,,,,,,,,,,,,,,,,,126,001,2023-03-03_14h17.44.331,eb_01,2022.2.4,59.995979620633264,
,,,1,0,1,0,93,0,93,0,,,,,,,,,,,,,,,,,,,,,,,,,,,,,,,,,,,,,,,,,,,,,,,,,,,,,,,,,,,,126,001,2023-03-03_14h17.44.331,eb_01,2022.2.4,59.995979620633264,
6,stimuli/6.png,s,1,0,1,0,94,0,94,0,0,0,0,0,,,,,,,,,,,,,,,,,,,428.90470524315606,428.90470524315606,428.90470524315606,428.90470524315606,s,1,0.5130410209239926,429.45469709316967,429.45469709316967,429.45469709316967,,,,,,,,,,,,,,,,,,,,,,,,,,,,126,001,2023-03-03_14h17.44.331,eb_01,2022.2.4,59.995979620633264,
,,,1,0,1,0,94,0,94,0,,,,,,,,,,,,,,,,,,,,,,,,,,,,,,,,,,,,,,,,,,,,,,,,,,,,,,,,,,,,126,001,2023-03-03_14h17.44.331,eb_01,2022.2.4,59.995979620633264,
5,stimuli/5.png,s,1,0,1,0,95,0,95,0,0,0,0,0,,,,,,,,,,,,,,,,,,,430.4542868785793,430.4542868785793,430.4542868785793,430.4542868785793,s,1,0.5314771342673339,431.0045235292346,431.0045235292346,431.0045235292346,432.02120106251095,432.02120106251095,432.02120106251095,,,,,,,,,,,,,,,,,,,,,,,,,126,001,2023-03-03_14h17.44.331,eb_01,2022.2.4,59.995979620633264,
,,,1,0,1,0,95,0,95,0,,,,,,,,,,,,,,,,,,,,,,,,,,,,,,,,,,,,,,,,,,,,,,,,,,,,,,,,,,,,126,001,2023-03-03_14h17.44.331,eb_01,2022.2.4,59.995979620633264,
6,stimuli/6.png,s,1,0,1,0,96,0,96,0,0,0,0,0,,,,,,,,,,,,,,,,,,,432.02120106251095,432.02120106251095,432.02120106251095,432.02120106251095,s,1,0.5485552229802124,432.60448670349433,432.60448670349433,432.60448670349433,,,,,,,,,,,,,,,,,,,,,,,,,,,,126,001,2023-03-03_14h17.44.331,eb_01,2022.2.4,59.995979620633264,
,,,1,0,1,0,96,0,96,0,,,,,,,,,,,,,,,,,,,,,,,,,,,,,,,,,,,,,,,,,,,,,,,,,,,,,,,,,,,,126,001,2023-03-03_14h17.44.331,eb_01,2022.2.4,59.995979620633264,
9,stimuli/9.png,l,1,0,1,0,97,0,97,0,0,0,0,0,,,,,,,,,,,,,,,,,,,433.62109571674955,433.62109571674955,433.62109571674955,433.62109571674955,l,1,0.49972187454113737,434.1543753207079,434.1543753207079,434.1543753207079,,,,,,,,,,,,,,,,,,,,,,,,,,,,126,001,2023-03-03_14h17.44.331,eb_01,2022.2.4,59.995979620633264,
,,,1,0,1,0,97,0,97,0,,,,,,,,,,,,,,,,,,,,,,,,,,,,,,,,,,,,,,,,,,,,,,,,,,,,,,,,,,,,126,001,2023-03-03_14h17.44.331,eb_01,2022.2.4,59.995979620633264,
