index,stimulus,correct_answer,block.thisRepN,block.thisTrialN,block.thisN,block.thisIndex,trial.thisRepN,trial.thisTrialN,trial.thisN,trial.thisIndex,display_row.thisRepN,display_row.thisTrialN,display_row.thisN,display_row.thisIndex,pair_questions.thisRepN,pair_questions.thisTrialN,pair_questions.thisN,pair_questions.thisIndex,welcome_text.started,instructions_0_keypress.started,instructions_0_keypress.keys,instructions_0_keypress.rt,instructions_1_keypress.started,instructions_1_text.started,instructions_1_keypress.keys,instructions_1_keypress.rt,instructions_2_keypress.started,instructions_2_text.started,instructions_2_keypress.keys,instructions_2_keypress.rt,text_countdown.started,image.started,size_question.started,size_resp.started,keypress_options.started,size_resp.keys,size_resp.corr,size_resp.rt,fb_image.started,fb.started,fb_size_question.started,fb_image.stopped,fb.stopped,fb_size_question.stopped,block_break_text.started,block_break_keypress.started,block_break_keypress.keys,block_break_keypress.rt,seq_reveal.started,seq_reveal_adv.started,seq_reveal_adv.keys,seq_reveal_adv.rt,instruction_2afc_text.started,instruction_2afc_keypress.started,instruction_2afc_keypress.keys,instruction_2afc_keypress.rt,dist_2afc_test.started,dist_2afc_resp.started,text.started,stim_00.started,stim_01.started,stim_10.started,stim_11.started,dist_2afc_resp.keys,dist_2afc_resp.rt,graph.started,debrief_text.started,debriefing_title.started,participant,session,date,expName,psychopyVersion,frameRate,
,,,,,,,,,,,,,,,,,,,15.271602832741337,15.271602832741337,return,2.284952773770783,,,,,,,,,,,,,,,,,,,,,,,,,,,,,,,,,,,,,,,,,,,,,,,128,001,2023-03-03_14h10.46.808,eb_01,2022.2.4,119.98786660603132,
,,,,,,,,,,,,,,,,,,,,,,,17.571536032075528,17.571536032075528,return,17.408751350303646,,,,,,,,,,,,,,,,,,,,,,,,,,,,,,,,,,,,,,,,,,,128,001,2023-03-03_14h10.46.808,eb_01,2022.2.4,119.98786660603132,
,,,,,,,,,,,,,,,,,,,,,,,,,,,34.989947600872256,34.989947600872256,space,6.845607812778326,,,,,,,,,,,,,,,,,,,,,,,,,,,,,,,,,,,,,,,128,001,2023-03-03_14h10.46.808,eb_01,2022.2.4,119.98786660603132,
9,stimuli/9.png,l,0,0,0,0,0,0,0,0,0,0,0,0,,,,,,,,,,,,,,,,,41.857353854284156,46.87456113952794,46.87456113952794,46.87456113952794,46.87456113952794,l,1,0.8412321122887079,47.74131659202976,47.74131659202976,47.74131659202976,,,,,,,,,,,,,,,,,,,,,,,,,,,,128,001,2023-03-03_14h10.46.808,eb_01,2022.2.4,119.98786660603132,
,,,0,0,0,0,0,0,0,0,,,,,,,,,,,,,,,,,,,,,,,,,,,,,,,,,,,,,,,,,,,,,,,,,,,,,,,,,,,128,001,2023-03-03_14h10.46.808,eb_01,2022.2.4,119.98786660603132,
8,stimuli/8.png,l,0,0,0,0,1,0,1,0,0,0,0,0,,,,,,,,,,,,,,,,,,48.7414119784371,48.7414119784371,48.7414119784371,48.7414119784371,l,1,0.7184541099413764,49.483178033609875,49.483178033609875,49.483178033609875,,,,,,,,,,,,,,,,,,,,,,,,,,,,128,001,2023-03-03_14h10.46.808,eb_01,2022.2.4,119.98786660603132,
,,,0,0,0,0,1,0,1,0,,,,,,,,,,,,,,,,,,,,,,,,,,,,,,,,,,,,,,,,,,,,,,,,,,,,,,,,,,,128,001,2023-03-03_14h10.46.808,eb_01,2022.2.4,119.98786660603132,
3,stimuli/3.png,l,0,0,0,0,2,0,2,0,0,0,0,0,,,,,,,,,,,,,,,,,,50.49157052813098,50.49157052813098,50.49157052813098,50.49157052813098,l,1,0.600360002805246,51.10830492619425,51.10830492619425,51.10830492619425,52.11678978858981,52.11678978858981,52.11678978858981,,,,,,,,,,,,,,,,,,,,,,,,,128,001,2023-03-03_14h10.46.808,eb_01,2022.2.4,119.98786660603132,
,,,0,0,0,0,2,0,2,0,,,,,,,,,,,,,,,,,,,,,,,,,,,,,,,,,,,,,,,,,,,,,,,,,,,,,,,,,,,128,001,2023-03-03_14h10.46.808,eb_01,2022.2.4,119.98786660603132,
8,stimuli/8.png,l,0,0,0,0,3,0,3,0,0,0,0,0,,,,,,,,,,,,,,,,,,52.11678978858981,52.11678978858981,52.11678978858981,52.11678978858981,l,1,0.5591995607537683,52.700166111200815,52.700166111200815,52.700166111200815,,,,,,,,,,,,,,,,,,,,,,,,,,,,128,001,2023-03-03_14h10.46.808,eb_01,2022.2.4,119.98786660603132,
,,,0,0,0,0,3,0,3,0,,,,,,,,,,,,,,,,,,,,,,,,,,,,,,,,,,,,,,,,,,,,,,,,,,,,,,,,,,,128,001,2023-03-03_14h10.46.808,eb_01,2022.2.4,119.98786660603132,
6,stimuli/6.png,s,0,0,0,0,4,0,4,0,0,0,0,0,,,,,,,,,,,,,,,,,,53.72524700098438,53.72524700098438,53.72524700098438,53.72524700098438,s,1,0.5028062717465218,54.25863088510232,54.25863088510232,54.25863088510232,,,,,,,,,,,,,,,,,,,,,,,,,,,,128,001,2023-03-03_14h10.46.808,eb_01,2022.2.4,119.98786660603132,
,,,0,0,0,0,4,0,4,0,,,,,,,,,,,,,,,,,,,,,,,,,,,,,,,,,,,,,,,,,,,,,,,,,,,,,,,,,,,128,001,2023-03-03_14h10.46.808,eb_01,2022.2.4,119.98786660603132,
9,stimuli/9.png,l,0,0,0,0,5,0,5,0,0,0,0,0,,,,,,,,,,,,,,,,,,55.26710065471707,55.26710065471707,55.26710065471707,55.26710065471707,l,1,0.7120565798541065,56.00881297956221,56.00881297956221,56.00881297956221,,,,,,,,,,,,,,,,,,,,,,,,,,,,128,001,2023-03-03_14h10.46.808,eb_01,2022.2.4,119.98786660603132,
,,,0,0,0,0,5,0,5,0,,,,,,,,,,,,,,,,,,,,,,,,,,,,,,,,,,,,,,,,,,,,,,,,,,,,,,,,,,,128,001,2023-03-03_14h10.46.808,eb_01,2022.2.4,119.98786660603132,
5,stimuli/5.png,s,0,0,0,0,6,0,6,0,0,0,0,0,,,,,,,,,,,,,,,,,,57.0089388533961,57.0089388533961,57.0089388533961,57.0089388533961,s,1,0.5862497572379652,57.617323620419484,57.617323620419484,57.617323620419484,,,,,,,,,,,,,,,,,,,,,,,,,,,,128,001,2023-03-03_14h10.46.808,eb_01,2022.2.4,119.98786660603132,
,,,0,0,0,0,6,0,6,0,,,,,,,,,,,,,,,,,,,,,,,,,,,,,,,,,,,,,,,,,,,,,,,,,,,,,,,,,,,128,001,2023-03-03_14h10.46.808,eb_01,2022.2.4,119.98786660603132,
9,stimuli/9.png,l,0,0,0,0,7,0,7,0,0,0,0,0,,,,,,,,,,,,,,,,,,58.63410287426086,58.63410287426086,58.63410287426086,58.63410287426086,l,1,0.4011548492999282,59.06747622360126,59.06747622360126,59.06747622360126,,,,,,,,,,,,,,,,,,,,,,,,,,,,128,001,2023-03-03_14h10.46.808,eb_01,2022.2.4,119.98786660603132,
,,,0,0,0,0,7,0,7,0,,,,,,,,,,,,,,,,,,,,,,,,,,,,,,,,,,,,,,,,,,,,,,,,,,,,,,,,,,,128,001,2023-03-03_14h10.46.808,eb_01,2022.2.4,119.98786660603132,
6,stimuli/6.png,s,0,0,0,0,8,0,8,0,0,0,0,0,,,,,,,,,,,,,,,,,,60.08429652979248,60.08429652979248,60.08429652979248,60.08429652979248,s,1,0.4550231152388733,60.5676511489728,60.5676511489728,60.5676511489728,,,,,,,,,,,,,,,,,,,,,,,,,,,,128,001,2023-03-03_14h10.46.808,eb_01,2022.2.4,119.98786660603132,
,,,0,0,0,0,8,0,8,0,,,,,,,,,,,,,,,,,,,,,,,,,,,,,,,,,,,,,,,,,,,,,,,,,,,,,,,,,,,128,001,2023-03-03_14h10.46.808,eb_01,2022.2.4,119.98786660603132,
9,stimuli/9.png,l,0,0,0,0,9,0,9,0,0,0,0,0,,,,,,,,,,,,,,,,,,61.57610492021195,61.57610492021195,61.57610492021195,61.57610492021195,l,1,0.4592696214967873,62.06779800177901,62.06779800177901,62.06779800177901,,,,,,,,,,,,,,,,,,,,,,,,,,,,128,001,2023-03-03_14h10.46.808,eb_01,2022.2.4,119.98786660603132,
,,,0,0,0,0,9,0,9,0,,,,,,,,,,,,,,,,,,,,,,,,,,,,,,,,,,,,,,,,,,,,,,,,,,,,,,,,,,,128,001,2023-03-03_14h10.46.808,eb_01,2022.2.4,119.98786660603132,
6,stimuli/6.png,s,0,0,0,0,10,0,10,0,0,0,0,0,,,,,,,,,,,,,,,,,,63.08459355580271,63.08459355580271,63.08459355580271,63.08459355580271,s,1,0.42284559752442874,63.53463296307018,63.53463296307018,63.53463296307018,,,,,,,,,,,,,,,,,,,,,,,,,,,,128,001,2023-03-03_14h10.46.808,eb_01,2022.2.4,119.98786660603132,
,,,0,0,0,0,10,0,10,0,,,,,,,,,,,,,,,,,,,,,,,,,,,,,,,,,,,,,,,,,,,,,,,,,,,,,,,,,,,128,001,2023-03-03_14h10.46.808,eb_01,2022.2.4,119.98786660603132,
9,stimuli/9.png,l,0,0,0,0,11,0,11,0,0,0,0,0,,,,,,,,,,,,,,,,,,64.54308613060857,64.54308613060857,64.54308613060857,64.54308613060857,l,1,0.37239946983754635,64.9430778597598,64.9430778597598,64.9430778597598,,,,,,,,,,,,,,,,,,,,,,,,,,,,128,001,2023-03-03_14h10.46.808,eb_01,2022.2.4,119.98786660603132,
,,,0,0,0,0,11,0,11,0,,,,,,,,,,,,,,,,,,,,,,,,,,,,,,,,,,,,,,,,,,,,,,,,,,,,,,,,,,,128,001,2023-03-03_14h10.46.808,eb_01,2022.2.4,119.98786660603132,
6,stimuli/6.png,s,0,0,0,0,12,0,12,0,0,0,0,0,,,,,,,,,,,,,,,,,,65.95985469873995,65.95985469873995,65.95985469873995,65.95985469873995,s,1,0.38769117870833725,66.3766102870577,66.3766102870577,66.3766102870577,,,,,,,,,,,,,,,,,,,,,,,,,,,,128,001,2023-03-03_14h10.46.808,eb_01,2022.2.4,119.98786660603132,
,,,0,0,0,0,12,0,12,0,,,,,,,,,,,,,,,,,,,,,,,,,,,,,,,,,,,,,,,,,,,,,,,,,,,,,,,,,,,128,001,2023-03-03_14h10.46.808,eb_01,2022.2.4,119.98786660603132,
8,stimuli/8.png,l,0,0,0,0,13,0,13,0,0,0,0,0,,,,,,,,,,,,,,,,,,67.37668937325361,67.37668937325361,67.37668937325361,67.37668937325361,l,1,0.44296669599134475,67.84338185866363,67.84338185866363,67.84338185866363,,,,,,,,,,,,,,,,,,,,,,,,,,,,128,001,2023-03-03_14h10.46.808,eb_01,2022.2.4,119.98786660603132,
,,,0,0,0,0,13,0,13,0,,,,,,,,,,,,,,,,,,,,,,,,,,,,,,,,,,,,,,,,,,,,,,,,,,,,,,,,,,,128,001,2023-03-03_14h10.46.808,eb_01,2022.2.4,119.98786660603132,
9,stimuli/9.png,l,0,0,0,0,14,0,14,0,0,0,0,0,,,,,,,,,,,,,,,,,,68.86018586464343,68.86018586464343,68.86018586464343,68.86018586464343,l,1,0.3754811148683075,69.2685652586515,69.2685652586515,69.2685652586515,,,,,,,,,,,,,,,,,,,,,,,,,,,,128,001,2023-03-03_14h10.46.808,eb_01,2022.2.4,119.98786660603132,
,,,0,0,0,0,14,0,14,0,,,,,,,,,,,,,,,,,,,,,,,,,,,,,,,,,,,,,,,,,,,,,,,,,,,,,,,,,,,128,001,2023-03-03_14h10.46.808,eb_01,2022.2.4,119.98786660603132,
8,stimuli/8.png,l,0,0,0,0,15,0,15,0,0,0,0,0,,,,,,,,,,,,,,,,,,70.26865762649686,70.26865762649686,70.26865762649686,70.26865762649686,l,1,0.38211952583515085,70.66871546205948,70.66871546205948,70.66871546205948,,,,,,,,,,,,,,,,,,,,,,,,,,,,128,001,2023-03-03_14h10.46.808,eb_01,2022.2.4,119.98786660603132,
,,,0,0,0,0,15,0,15,0,,,,,,,,,,,,,,,,,,,,,,,,,,,,,,,,,,,,,,,,,,,,,,,,,,,,,,,,,,,128,001,2023-03-03_14h10.46.808,eb_01,2022.2.4,119.98786660603132,
9,stimuli/9.png,l,0,0,0,0,16,0,16,0,0,0,0,0,,,,,,,,,,,,,,,,,,71.68548475462012,71.68548475462012,71.68548475462012,71.68548475462012,l,1,0.34130078443558887,72.05217908133636,72.05217908133636,72.05217908133636,,,,,,,,,,,,,,,,,,,,,,,,,,,,128,001,2023-03-03_14h10.46.808,eb_01,2022.2.4,119.98786660603132,
,,,0,0,0,0,16,0,16,0,,,,,,,,,,,,,,,,,,,,,,,,,,,,,,,,,,,,,,,,,,,,,,,,,,,,,,,,,,,128,001,2023-03-03_14h10.46.808,eb_01,2022.2.4,119.98786660603132,
6,stimuli/6.png,s,0,0,0,0,17,0,17,0,0,0,0,0,,,,,,,,,,,,,,,,,,73.06896467413753,73.06896467413753,73.06896467413753,73.06896467413753,s,1,0.5658793259353843,73.66070753170061,73.66070753170061,73.66070753170061,,,,,,,,,,,,,,,,,,,,,,,,,,,,128,001,2023-03-03_14h10.46.808,eb_01,2022.2.4,119.98786660603132,
,,,0,0,0,0,17,0,17,0,,,,,,,,,,,,,,,,,,,,,,,,,,,,,,,,,,,,,,,,,,,,,,,,,,,,,,,,,,,128,001,2023-03-03_14h10.46.808,eb_01,2022.2.4,119.98786660603132,
8,stimuli/8.png,l,0,0,0,0,18,0,18,0,0,0,0,0,,,,,,,,,,,,,,,,,,74.66077937337104,74.66077937337104,74.66077937337104,74.66077937337104,l,1,0.4221480089472607,75.10249963702518,75.10249963702518,75.10249963702518,,,,,,,,,,,,,,,,,,,,,,,,,,,,128,001,2023-03-03_14h10.46.808,eb_01,2022.2.4,119.98786660603132,
,,,0,0,0,0,18,0,18,0,,,,,,,,,,,,,,,,,,,,,,,,,,,,,,,,,,,,,,,,,,,,,,,,,,,,,,,,,,,128,001,2023-03-03_14h10.46.808,eb_01,2022.2.4,119.98786660603132,
9,stimuli/9.png,l,0,0,0,0,19,0,19,0,0,0,0,0,,,,,,,,,,,,,,,,,,76.11925413866993,76.11925413866993,76.11925413866993,76.11925413866993,l,1,0.6437119173933752,76.79435505659785,76.79435505659785,76.79435505659785,,,,,,,,,,,,,,,,,,,,,,,,,,,,128,001,2023-03-03_14h10.46.808,eb_01,2022.2.4,119.98786660603132,
,,,0,0,0,0,19,0,19,0,,,,,,,,,,,,,,,,,,,,,,,,,,,,,,,,,,,,,,,,,,,,,,,,,,,,,,,,,,,128,001,2023-03-03_14h10.46.808,eb_01,2022.2.4,119.98786660603132,
8,stimuli/8.png,l,0,0,0,0,20,0,20,0,0,0,0,0,,,,,,,,,,,,,,,,,,77.79445346156717,77.79445346156717,77.79445346156717,77.79445346156717,l,1,0.48060599106247537,78.29447715723654,78.29447715723654,78.29447715723654,,,,,,,,,,,,,,,,,,,,,,,,,,,,128,001,2023-03-03_14h10.46.808,eb_01,2022.2.4,119.98786660603132,
,,,0,0,0,0,20,0,20,0,,,,,,,,,,,,,,,,,,,,,,,,,,,,,,,,,,,,,,,,,,,,,,,,,,,,,,,,,,,128,001,2023-03-03_14h10.46.808,eb_01,2022.2.4,119.98786660603132,
6,stimuli/6.png,s,0,0,0,0,21,0,21,0,0,0,0,0,,,,,,,,,,,,,,,,,,79.31963411465404,79.31963411465404,79.31963411465404,79.31963411465404,s,1,0.5074693388887681,79.85298237978714,79.85298237978714,79.85298237978714,,,,,,,,,,,,,,,,,,,,,,,,,,,,128,001,2023-03-03_14h10.46.808,eb_01,2022.2.4,119.98786660603132,
,,,0,0,0,0,21,0,21,0,,,,,,,,,,,,,,,,,,,,,,,,,,,,,,,,,,,,,,,,,,,,,,,,,,,,,,,,,,,128,001,2023-03-03_14h10.46.808,eb_01,2022.2.4,119.98786660603132,
8,stimuli/8.png,l,0,0,0,0,22,0,22,0,0,0,0,0,,,,,,,,,,,,,,,,,,80.85310553692398,80.85310553692398,80.85310553692398,80.85310553692398,l,1,0.3420874204603024,81.21978326156386,81.21978326156386,81.21978326156386,,,,,,,,,,,,,,,,,,,,,,,,,,,,128,001,2023-03-03_14h10.46.808,eb_01,2022.2.4,119.98786660603132,
,,,0,0,0,0,22,0,22,0,,,,,,,,,,,,,,,,,,,,,,,,,,,,,,,,,,,,,,,,,,,,,,,,,,,,,,,,,,,128,001,2023-03-03_14h10.46.808,eb_01,2022.2.4,119.98786660603132,
9,stimuli/9.png,l,0,0,0,0,23,0,23,0,0,0,0,0,,,,,,,,,,,,,,,,,,82.24501175878686,82.24501175878686,82.24501175878686,82.24501175878686,l,1,0.4781950694450643,82.75337089828099,82.75337089828099,82.75337089828099,,,,,,,,,,,,,,,,,,,,,,,,,,,,128,001,2023-03-03_14h10.46.808,eb_01,2022.2.4,119.98786660603132,
,,,0,0,0,0,23,0,23,0,,,,,,,,,,,,,,,,,,,,,,,,,,,,,,,,,,,,,,,,,,,,,,,,,,,,,,,,,,,128,001,2023-03-03_14h10.46.808,eb_01,2022.2.4,119.98786660603132,
5,stimuli/5.png,s,0,0,0,0,24,0,24,0,0,0,0,0,,,,,,,,,,,,,,,,,,83.75342704344075,83.75342704344075,83.75342704344075,83.75342704344075,s,1,0.5458741400798317,84.32014093041653,84.32014093041653,84.32014093041653,,,,,,,,,,,,,,,,,,,,,,,,,,,,128,001,2023-03-03_14h10.46.808,eb_01,2022.2.4,119.98786660603132,
,,,0,0,0,0,24,0,24,0,,,,,,,,,,,,,,,,,,,,,,,,,,,,,,,,,,,,,,,,,,,,,,,,,,,,,,,,,,,128,001,2023-03-03_14h10.46.808,eb_01,2022.2.4,119.98786660603132,
9,stimuli/9.png,l,0,0,0,0,25,0,25,0,0,0,0,0,,,,,,,,,,,,,,,,,,85.33692048609373,85.33692048609373,85.33692048609373,85.33692048609373,l,1,0.41842341123265214,85.78696985458373,85.78696985458373,85.78696985458373,,,,,,,,,,,,,,,,,,,,,,,,,,,,128,001,2023-03-03_14h10.46.808,eb_01,2022.2.4,119.98786660603132,
,,,0,0,0,0,25,0,25,0,,,,,,,,,,,,,,,,,,,,,,,,,,,,,,,,,,,,,,,,,,,,,,,,,,,,,,,,,,,128,001,2023-03-03_14h10.46.808,eb_01,2022.2.4,119.98786660603132,
8,stimuli/8.png,l,0,0,0,0,26,0,26,0,0,0,0,0,,,,,,,,,,,,,,,,,,86.78707007068442,86.78707007068442,86.78707007068442,86.78707007068442,l,1,0.35135016503045335,87.16212549892953,87.16212549892953,87.16212549892953,,,,,,,,,,,,,,,,,,,,,,,,,,,,128,001,2023-03-03_14h10.46.808,eb_01,2022.2.4,119.98786660603132,
,,,0,0,0,0,26,0,26,0,,,,,,,,,,,,,,,,,,,,,,,,,,,,,,,,,,,,,,,,,,,,,,,,,,,,,,,,,,,128,001,2023-03-03_14h10.46.808,eb_01,2022.2.4,119.98786660603132,
9,stimuli/9.png,l,0,0,0,0,27,0,27,0,0,0,0,0,,,,,,,,,,,,,,,,,,88.17886551152333,88.17886551152333,88.17886551152333,88.17886551152333,l,1,0.5436213908542413,88.75392902950989,88.75392902950989,88.75392902950989,,,,,,,,,,,,,,,,,,,,,,,,,,,,128,001,2023-03-03_14h10.46.808,eb_01,2022.2.4,119.98786660603132,
,,,0,0,0,0,27,0,27,0,,,,,,,,,,,,,,,,,,,,,,,,,,,,,,,,,,,,,,,,,,,,,,,,,,,,,,,,,,,128,001,2023-03-03_14h10.46.808,eb_01,2022.2.4,119.98786660603132,
5,stimuli/5.png,s,0,0,0,0,28,0,28,0,0,0,0,0,,,,,,,,,,,,,,,,,,89.75404856435489,89.75404856435489,89.75404856435489,89.75404856435489,s,1,0.4645155719772447,90.23743336912594,90.23743336912594,90.23743336912594,,,,,,,,,,,,,,,,,,,,,,,,,,,,128,001,2023-03-03_14h10.46.808,eb_01,2022.2.4,119.98786660603132,
,,,0,0,0,0,28,0,28,0,,,,,,,,,,,,,,,,,,,,,,,,,,,,,,,,,,,,,,,,,,,,,,,,,,,,,,,,,,,128,001,2023-03-03_14h10.46.808,eb_01,2022.2.4,119.98786660603132,
6,stimuli/6.png,s,0,0,0,0,29,0,29,0,0,0,0,0,,,,,,,,,,,,,,,,,,91.26256919666776,91.26256919666776,91.26256919666776,91.26256919666776,s,1,0.5480076562962495,91.83758683258202,91.83758683258202,91.83758683258202,,,,,,,,,,,,,,,,,,,,,,,,,,,,128,001,2023-03-03_14h10.46.808,eb_01,2022.2.4,119.98786660603132,
,,,0,0,0,0,29,0,29,0,,,,,,,,,,,,,,,,,,,,,,,,,,,,,,,,,,,,,,,,,,,,,,,,,,,,,,,,,,,128,001,2023-03-03_14h10.46.808,eb_01,2022.2.4,119.98786660603132,
9,stimuli/9.png,l,0,0,0,0,30,0,30,0,0,0,0,0,,,,,,,,,,,,,,,,,,92.84605509290122,92.84605509290122,92.84605509290122,92.84605509290122,l,1,0.4846227851230651,93.36276627826737,93.36276627826737,93.36276627826737,,,,,,,,,,,,,,,,,,,,,,,,,,,,128,001,2023-03-03_14h10.46.808,eb_01,2022.2.4,119.98786660603132,
,,,0,0,0,0,30,0,30,0,,,,,,,,,,,,,,,,,,,,,,,,,,,,,,,,,,,,,,,,,,,,,,,,,,,,,,,,,,,128,001,2023-03-03_14h10.46.808,eb_01,2022.2.4,119.98786660603132,
5,stimuli/5.png,s,0,0,0,0,31,0,31,0,0,0,0,0,,,,,,,,,,,,,,,,,,94.3628381199087,94.3628381199087,94.3628381199087,94.3628381199087,s,1,0.4958801922912244,94.87958854652243,94.87958854652243,94.87958854652243,,,,,,,,,,,,,,,,,,,,,,,,,,,,128,001,2023-03-03_14h10.46.808,eb_01,2022.2.4,119.98786660603132,
,,,0,0,0,0,31,0,31,0,,,,,,,,,,,,,,,,,,,,,,,,,,,,,,,,,,,,,,,,,,,,,,,,,,,,,,,,,,,128,001,2023-03-03_14h10.46.808,eb_01,2022.2.4,119.98786660603132,
9,stimuli/9.png,l,0,0,0,0,32,0,32,0,0,0,0,0,,,,,,,,,,,,,,,,,,95.89632976651774,95.89632976651774,95.89632976651774,95.89632976651774,l,1,0.4184484652651008,96.34639271852211,96.34639271852211,96.34639271852211,,,,,,,,,,,,,,,,,,,,,,,,,,,,128,001,2023-03-03_14h10.46.808,eb_01,2022.2.4,119.98786660603132,
,,,0,0,0,0,32,0,32,0,,,,,,,,,,,,,,,,,,,,,,,,,,,,,,,,,,,,,,,,,,,,,,,,,,,,,,,,,,,128,001,2023-03-03_14h10.46.808,eb_01,2022.2.4,119.98786660603132,
5,stimuli/5.png,s,0,0,0,0,33,0,33,0,0,0,0,0,,,,,,,,,,,,,,,,,,97.34652945917333,97.34652945917333,97.34652945917333,97.34652945917333,s,1,0.49635048347408883,97.86320049769711,97.86320049769711,97.86320049769711,,,,,,,,,,,,,,,,,,,,,,,,,,,,128,001,2023-03-03_14h10.46.808,eb_01,2022.2.4,119.98786660603132,
,,,0,0,0,0,33,0,33,0,,,,,,,,,,,,,,,,,,,,,,,,,,,,,,,,,,,,,,,,,,,,,,,,,,,,,,,,,,,128,001,2023-03-03_14h10.46.808,eb_01,2022.2.4,119.98786660603132,
9,stimuli/9.png,l,0,0,0,0,34,0,34,0,0,0,0,0,,,,,,,,,,,,,,,,,,98.87998729792889,98.87998729792889,98.87998729792889,98.87998729792889,l,1,0.3549141754920129,99.2633956776117,99.2633956776117,99.2633956776117,,,,,,,,,,,,,,,,,,,,,,,,,,,,128,001,2023-03-03_14h10.46.808,eb_01,2022.2.4,119.98786660603132,
,,,0,0,0,0,34,0,34,0,,,,,,,,,,,,,,,,,,,,,,,,,,,,,,,,,,,,,,,,,,,,,,,,,,,,,,,,,,,128,001,2023-03-03_14h10.46.808,eb_01,2022.2.4,119.98786660603132,
5,stimuli/5.png,s,0,0,0,0,35,0,35,0,0,0,0,0,,,,,,,,,,,,,,,,,,100.26350917536183,100.26350917536183,100.26350917536183,100.26350917536183,s,1,0.3714794135885313,100.65520953165833,100.65520953165833,100.65520953165833,,,,,,,,,,,,,,,,,,,,,,,,,,,,128,001,2023-03-03_14h10.46.808,eb_01,2022.2.4,119.98786660603132,
,,,0,0,0,0,35,0,35,0,,,,,,,,,,,,,,,,,,,,,,,,,,,,,,,,,,,,,,,,,,,,,,,,,,,,,,,,,,,128,001,2023-03-03_14h10.46.808,eb_01,2022.2.4,119.98786660603132,
6,stimuli/6.png,s,0,0,0,0,36,0,36,0,0,0,0,0,,,,,,,,,,,,,,,,,,101.68032211626996,101.68032211626996,101.68032211626996,101.68032211626996,s,1,0.5057620429142844,102.2137060003879,102.2137060003879,102.2137060003879,,,,,,,,,,,,,,,,,,,,,,,,,,,,128,001,2023-03-03_14h10.46.808,eb_01,2022.2.4,119.98786660603132,
,,,0,0,0,0,36,0,36,0,,,,,,,,,,,,,,,,,,,,,,,,,,,,,,,,,,,,,,,,,,,,,,,,,,,,,,,,,,,128,001,2023-03-03_14h10.46.808,eb_01,2022.2.4,119.98786660603132,
5,stimuli/5.png,s,0,0,0,0,37,0,37,0,0,0,0,0,,,,,,,,,,,,,,,,,,103.21376908823731,103.21376908823731,103.21376908823731,103.21376908823731,s,1,0.44430572795681655,103.68048330722377,103.68048330722377,103.68048330722377,,,,,,,,,,,,,,,,,,,,,,,,,,,,128,001,2023-03-03_14h10.46.808,eb_01,2022.2.4,119.98786660603132,
,,,0,0,0,0,37,0,37,0,,,,,,,,,,,,,,,,,,,,,,,,,,,,,,,,,,,,,,,,,,,,,,,,,,,,,,,,,,,128,001,2023-03-03_14h10.46.808,eb_01,2022.2.4,119.98786660603132,
6,stimuli/6.png,s,0,0,0,0,38,0,38,0,0,0,0,0,,,,,,,,,,,,,,,,,,104.70567618549103,104.70567618549103,104.70567618549103,104.70567618549103,s,1,0.46448116045212373,105.19731523486553,105.19731523486553,105.19731523486553,,,,,,,,,,,,,,,,,,,,,,,,,,,,128,001,2023-03-03_14h10.46.808,eb_01,2022.2.4,119.98786660603132,
,,,0,0,0,0,38,0,38,0,,,,,,,,,,,,,,,,,,,,,,,,,,,,,,,,,,,,,,,,,,,,,,,,,,,,,,,,,,,128,001,2023-03-03_14h10.46.808,eb_01,2022.2.4,119.98786660603132,
8,stimuli/8.png,l,0,0,0,0,39,0,39,0,0,0,0,0,,,,,,,,,,,,,,,,,,106.20577625065926,106.20577625065926,106.20577625065926,106.20577625065926,l,1,0.41246025150758214,106.63918129485683,106.63918129485683,106.63918129485683,,,,,,,,,,,,,,,,,,,,,,,,,,,,128,001,2023-03-03_14h10.46.808,eb_01,2022.2.4,119.98786660603132,
,,,0,0,0,0,39,0,39,0,,,,,,,,,,,,,,,,,,,,,,,,,,,,,,,,,,,,,,,,,,,,,,,,,,,,,,,,,,,128,001,2023-03-03_14h10.46.808,eb_01,2022.2.4,119.98786660603132,
9,stimuli/9.png,l,0,0,0,0,40,0,40,0,0,0,0,0,,,,,,,,,,,,,,,,,,107.65591708145803,107.65591708145803,107.65591708145803,107.65591708145803,l,1,0.3863473170204088,108.07263433409389,108.07263433409389,108.07263433409389,,,,,,,,,,,,,,,,,,,,,,,,,,,,128,001,2023-03-03_14h10.46.808,eb_01,2022.2.4,119.98786660603132,
,,,0,0,0,0,40,0,40,0,,,,,,,,,,,,,,,,,,,,,,,,,,,,,,,,,,,,,,,,,,,,,,,,,,,,,,,,,,,128,001,2023-03-03_14h10.46.808,eb_01,2022.2.4,119.98786660603132,
5,stimuli/5.png,s,0,0,0,0,41,0,41,0,0,0,0,0,,,,,,,,,,,,,,,,,,109.0727517559717,109.0727517559717,109.0727517559717,109.0727517559717,s,1,0.4175908931356389,109.51446598253096,109.51446598253096,109.51446598253096,,,,,,,,,,,,,,,,,,,,,,,,,,,,128,001,2023-03-03_14h10.46.808,eb_01,2022.2.4,119.98786660603132,
,,,0,0,0,0,41,0,41,0,,,,,,,,,,,,,,,,,,,,,,,,,,,,,,,,,,,,,,,,,,,,,,,,,,,,,,,,,,,128,001,2023-03-03_14h10.46.808,eb_01,2022.2.4,119.98786660603132,
9,stimuli/9.png,l,0,0,0,0,42,0,42,0,0,0,0,0,,,,,,,,,,,,,,,,,,110.53120720252628,110.53120720252628,110.53120720252628,110.53120720252628,l,1,0.3591775856621098,110.92292084047222,110.92292084047222,110.92292084047222,,,,,,,,,,,,,,,,,,,,,,,,,,,,128,001,2023-03-03_14h10.46.808,eb_01,2022.2.4,119.98786660603132,
,,,0,0,0,0,42,0,42,0,,,,,,,,,,,,,,,,,,,,,,,,,,,,,,,,,,,,,,,,,,,,,,,,,,,,,,,,,,,128,001,2023-03-03_14h10.46.808,eb_01,2022.2.4,119.98786660603132,
6,stimuli/6.png,s,0,0,0,0,43,0,43,0,0,0,0,0,,,,,,,,,,,,,,,,,,111.93973299654317,111.93973299654317,111.93973299654317,111.93973299654317,s,1,0.5026997166569345,112.47310903240577,112.47310903240577,112.47310903240577,,,,,,,,,,,,,,,,,,,,,,,,,,,,128,001,2023-03-03_14h10.46.808,eb_01,2022.2.4,119.98786660603132,
,,,0,0,0,0,43,0,43,0,,,,,,,,,,,,,,,,,,,,,,,,,,,,,,,,,,,,,,,,,,,,,,,,,,,,,,,,,,,128,001,2023-03-03_14h10.46.808,eb_01,2022.2.4,119.98786660603132,
8,stimuli/8.png,l,0,0,0,0,44,0,44,0,0,0,0,0,,,,,,,,,,,,,,,,,,113.47321981345885,113.47321981345885,113.47321981345885,113.47321981345885,l,1,0.40127921383827925,113.89826345423353,113.89826345423353,113.89826345423353,,,,,,,,,,,,,,,,,,,,,,,,,,,,128,001,2023-03-03_14h10.46.808,eb_01,2022.2.4,119.98786660603132,
,,,0,0,0,0,44,0,44,0,,,,,,,,,,,,,,,,,,,,,,,,,,,,,,,,,,,,,,,,,,,,,,,,,,,,,,,,,,,128,001,2023-03-03_14h10.46.808,eb_01,2022.2.4,119.98786660603132,
3,stimuli/3.png,l,0,0,0,0,45,0,45,0,0,0,0,0,,,,,,,,,,,,,,,,,,114.90667707868852,114.90667707868852,114.90667707868852,114.90667707868852,l,1,0.47188719050609507,115.42340909209452,115.42340909209452,115.42340909209452,,,,,,,,,,,,,,,,,,,,,,,,,,,,128,001,2023-03-03_14h10.46.808,eb_01,2022.2.4,119.98786660603132,
,,,0,0,0,0,45,0,45,0,,,,,,,,,,,,,,,,,,,,,,,,,,,,,,,,,,,,,,,,,,,,,,,,,,,,,,,,,,,128,001,2023-03-03_14h10.46.808,eb_01,2022.2.4,119.98786660603132,
4,stimuli/4.png,l,0,0,0,0,46,0,46,0,0,0,0,0,,,,,,,,,,,,,,,,,,116.44019770342857,116.44019770342857,116.44019770342857,116.44019770342857,l,1,0.5544480498938356,117.01526363627636,117.01526363627636,117.01526363627636,,,,,,,,,,,,,,,,,,,,,,,,,,,,128,001,2023-03-03_14h10.46.808,eb_01,2022.2.4,119.98786660603132,
,,,0,0,0,0,46,0,46,0,,,,,,,,,,,,,,,,,,,,,,,,,,,,,,,,,,,,,,,,,,,,,,,,,,,,,,,,,,,128,001,2023-03-03_14h10.46.808,eb_01,2022.2.4,119.98786660603132,
2,stimuli/2.png,s,0,0,0,0,47,0,47,0,0,0,0,0,,,,,,,,,,,,,,,,,,118.0236820903956,118.0236820903956,118.0236820903956,118.0236820903956,s,1,0.7300224284990691,118.76542550639715,118.76542550639715,118.76542550639715,119.77388380546472,119.77388380546472,119.77388380546472,,,,,,,,,,,,,,,,,,,,,,,,,128,001,2023-03-03_14h10.46.808,eb_01,2022.2.4,119.98786660603132,
,,,0,0,0,0,47,0,47,0,,,,,,,,,,,,,,,,,,,,,,,,,,,,,,,,,,,,,,,,,,,,,,,,,,,,,,,,,,,128,001,2023-03-03_14h10.46.808,eb_01,2022.2.4,119.98786660603132,
3,stimuli/3.png,l,0,0,0,0,48,0,48,0,0,0,0,0,,,,,,,,,,,,,,,,,,119.77388380546472,119.77388380546472,119.77388380546472,119.77388380546472,l,1,0.49193644733168185,120.28223720969982,120.28223720969982,120.28223720969982,121.29070939414669,121.29070939414669,121.29070939414669,,,,,,,,,,,,,,,,,,,,,,,,,128,001,2023-03-03_14h10.46.808,eb_01,2022.2.4,119.98786660603132,
,,,0,0,0,0,48,0,48,0,,,,,,,,,,,,,,,,,,,,,,,,,,,,,,,,,,,,,,,,,,,,,,,,,,,,,,,,,,,128,001,2023-03-03_14h10.46.808,eb_01,2022.2.4,119.98786660603132,
8,stimuli/8.png,l,0,0,0,0,49,0,49,0,0,0,0,0,,,,,,,,,,,,,,,,,,121.29070939414669,121.29070939414669,121.29070939414669,121.29070939414669,l,1,0.49509355626651086,121.80743687972426,121.80743687972426,121.80743687972426,,,,,,,,,,,,,,,,,,,,,,,,,,,,128,001,2023-03-03_14h10.46.808,eb_01,2022.2.4,119.98786660603132,
,,,0,0,0,0,49,0,49,0,,,,,,,,,,,,,,,,,,,,,,,,,,,,,,,,,,,,,,,,,,,,,,,,,,,,,,,,,,,128,001,2023-03-03_14h10.46.808,eb_01,2022.2.4,119.98786660603132,
3,stimuli/3.png,l,0,0,0,0,50,0,50,0,0,0,0,0,,,,,,,,,,,,,,,,,,122.8158873305365,122.8158873305365,122.8158873305365,122.8158873305365,l,1,0.41001280533964746,123.24092131195357,123.24092131195357,123.24092131195357,124.25765679668984,124.25765679668984,124.25765679668984,,,,,,,,,,,,,,,,,,,,,,,,,128,001,2023-03-03_14h10.46.808,eb_01,2022.2.4,119.98786660603132,
,,,0,0,0,0,50,0,50,0,,,,,,,,,,,,,,,,,,,,,,,,,,,,,,,,,,,,,,,,,,,,,,,,,,,,,,,,,,,128,001,2023-03-03_14h10.46.808,eb_01,2022.2.4,119.98786660603132,
8,stimuli/8.png,l,0,0,0,0,51,0,51,0,0,0,0,0,,,,,,,,,,,,,,,,,,124.25765679668984,124.25765679668984,124.25765679668984,124.25765679668984,l,1,0.3522813899326138,124.63270860267221,124.63270860267221,124.63270860267221,,,,,,,,,,,,,,,,,,,,,,,,,,,,128,001,2023-03-03_14h10.46.808,eb_01,2022.2.4,119.98786660603132,
,,,0,0,0,0,51,0,51,0,,,,,,,,,,,,,,,,,,,,,,,,,,,,,,,,,,,,,,,,,,,,,,,,,,,,,,,,,,,128,001,2023-03-03_14h10.46.808,eb_01,2022.2.4,119.98786660603132,
3,stimuli/3.png,l,0,0,0,0,52,0,52,0,0,0,0,0,,,,,,,,,,,,,,,,,,125.64119859662605,125.64119859662605,125.64119859662605,125.64119859662605,l,1,0.4088044769014232,126.0662259371893,126.0662259371893,126.0662259371893,127.07466884164023,127.07466884164023,127.07466884164023,,,,,,,,,,,,,,,,,,,,,,,,,128,001,2023-03-03_14h10.46.808,eb_01,2022.2.4,119.98786660603132,
,,,0,0,0,0,52,0,52,0,,,,,,,,,,,,,,,,,,,,,,,,,,,,,,,,,,,,,,,,,,,,,,,,,,,,,,,,,,,128,001,2023-03-03_14h10.46.808,eb_01,2022.2.4,119.98786660603132,
2,stimuli/2.png,s,0,0,0,0,53,0,53,0,0,0,0,0,,,,,,,,,,,,,,,,,,127.07466884164023,127.07466884164023,127.07466884164023,127.07466884164023,s,1,0.5674073195841629,127.6580330900324,127.6580330900324,127.6580330900324,128.66649320026045,128.66649320026045,128.66649320026045,,,,,,,,,,,,,,,,,,,,,,,,,128,001,2023-03-03_14h10.46.808,eb_01,2022.2.4,119.98786660603132,
,,,0,0,0,0,53,0,53,0,,,,,,,,,,,,,,,,,,,,,,,,,,,,,,,,,,,,,,,,,,,,,,,,,,,,,,,,,,,128,001,2023-03-03_14h10.46.808,eb_01,2022.2.4,119.98786660603132,
3,stimuli/3.png,l,0,0,0,0,54,0,54,0,0,0,0,0,,,,,,,,,,,,,,,,,,128.66649320026045,128.66649320026045,128.66649320026045,128.66649320026045,l,1,0.3756456262199208,129.05818812313373,129.05818812313373,129.05818812313373,130.06664038510644,130.06664038510644,130.06664038510644,,,,,,,,,,,,,,,,,,,,,,,,,128,001,2023-03-03_14h10.46.808,eb_01,2022.2.4,119.98786660603132,
,,,0,0,0,0,54,0,54,0,,,,,,,,,,,,,,,,,,,,,,,,,,,,,,,,,,,,,,,,,,,,,,,,,,,,,,,,,,,128,001,2023-03-03_14h10.46.808,eb_01,2022.2.4,119.98786660603132,
2,stimuli/2.png,s,0,0,0,0,55,0,55,0,0,0,0,0,,,,,,,,,,,,,,,,,,130.06664038510644,130.06664038510644,130.06664038510644,130.06664038510644,s,1,0.4795579480123706,130.5583271276846,130.5583271276846,130.5583271276846,131.58346718118992,131.58346718118992,131.58346718118992,,,,,,,,,,,,,,,,,,,,,,,,,128,001,2023-03-03_14h10.46.808,eb_01,2022.2.4,119.98786660603132,
,,,0,0,0,0,55,0,55,0,,,,,,,,,,,,,,,,,,,,,,,,,,,,,,,,,,,,,,,,,,,,,,,,,,,,,,,,,,,128,001,2023-03-03_14h10.46.808,eb_01,2022.2.4,119.98786660603132,
1,stimuli/1.png,s,0,0,0,0,56,0,56,0,0,0,0,0,,,,,,,,,,,,,,,,,,131.58346718118992,131.58346718118992,131.58346718118992,131.58346718118992,s,1,0.9708196777501144,132.5835716232832,132.5835716232832,132.5835716232832,,,,,,,,,,,,,,,,,,,,,,,,,,,,128,001,2023-03-03_14h10.46.808,eb_01,2022.2.4,119.98786660603132,
,,,0,0,0,0,56,0,56,0,,,,,,,,,,,,,,,,,,,,,,,,,,,,,,,,,,,,,,,,,,,,,,,,,,,,,,,,,,,128,001,2023-03-03_14h10.46.808,eb_01,2022.2.4,119.98786660603132,
2,stimuli/2.png,s,0,0,0,0,57,0,57,0,0,0,0,0,,,,,,,,,,,,,,,,,,133.58368934699683,133.58368934699683,133.58368934699683,133.58368934699683,s,1,0.5776420395995956,134.17540383012965,134.17540383012965,134.17540383012965,135.19217372642015,135.19217372642015,135.19217372642015,,,,,,,,,,,,,,,,,,,,,,,,,128,001,2023-03-03_14h10.46.808,eb_01,2022.2.4,119.98786660603132,
,,,0,0,0,0,57,0,57,0,,,,,,,,,,,,,,,,,,,,,,,,,,,,,,,,,,,,,,,,,,,,,,,,,,,,,,,,,,,128,001,2023-03-03_14h10.46.808,eb_01,2022.2.4,119.98786660603132,
4,stimuli/4.png,l,0,0,0,0,58,0,58,0,0,0,0,0,,,,,,,,,,,,,,,,,,135.19217372642015,135.19217372642015,135.19217372642015,135.19217372642015,l,1,0.737221687391866,135.95058863374288,135.95058863374288,135.95058863374288,,,,,,,,,,,,,,,,,,,,,,,,,,,,128,001,2023-03-03_14h10.46.808,eb_01,2022.2.4,119.98786660603132,
,,,0,0,0,0,58,0,58,0,,,,,,,,,,,,,,,,,,,,,,,,,,,,,,,,,,,,,,,,,,,,,,,,,,,,,,,,,,,128,001,2023-03-03_14h10.46.808,eb_01,2022.2.4,119.98786660603132,
1,stimuli/1.png,s,0,0,0,0,59,0,59,0,0,0,0,0,,,,,,,,,,,,,,,,,,136.96736909498577,136.96736909498577,136.96736909498577,136.96736909498577,s,1,0.7701360349310562,137.7674717862974,137.7674717862974,137.7674717862974,,,,,,,,,,,,,,,,,,,,,,,,,,,,128,001,2023-03-03_14h10.46.808,eb_01,2022.2.4,119.98786660603132,
,,,0,0,0,0,59,0,59,0,,,,,,,,,,,,,,,,,,,,,,,,,,,,,,,,,,,,,,,,,,,,,,,,,,,,,,,,,,,128,001,2023-03-03_14h10.46.808,eb_01,2022.2.4,119.98786660603132,
2,stimuli/2.png,s,0,0,0,0,60,0,60,0,0,0,0,0,,,,,,,,,,,,,,,,,,138.76757985065342,138.76757985065342,138.76757985065342,138.76757985065342,s,1,0.6900033029378392,139.4676430290565,139.4676430290565,139.4676430290565,140.49275048213894,140.49275048213894,140.49275048213894,,,,,,,,,,,,,,,,,,,,,,,,,128,001,2023-03-03_14h10.46.808,eb_01,2022.2.4,119.98786660603132,
,,,0,0,0,0,60,0,60,0,,,,,,,,,,,,,,,,,,,,,,,,,,,,,,,,,,,,,,,,,,,,,,,,,,,,,,,,,,,128,001,2023-03-03_14h10.46.808,eb_01,2022.2.4,119.98786660603132,
1,stimuli/1.png,s,0,0,0,0,61,0,61,0,0,0,0,0,,,,,,,,,,,,,,,,,,140.49275048213894,140.49275048213894,140.49275048213894,140.49275048213894,s,1,0.8688688144320622,141.39289479935542,141.39289479935542,141.39289479935542,,,,,,,,,,,,,,,,,,,,,,,,,,,,128,001,2023-03-03_14h10.46.808,eb_01,2022.2.4,119.98786660603132,
,,,0,0,0,0,61,0,61,0,,,,,,,,,,,,,,,,,,,,,,,,,,,,,,,,,,,,,,,,,,,,,,,,,,,,,,,,,,,128,001,2023-03-03_14h10.46.808,eb_01,2022.2.4,119.98786660603132,
2,stimuli/2.png,s,0,0,0,0,62,0,62,0,0,0,0,0,,,,,,,,,,,,,,,,,,142.39296875402215,142.39296875402215,142.39296875402215,142.39296875402215,s,1,0.536754475091584,142.94299001974287,142.94299001974287,142.94299001974287,143.9514084738912,143.9514084738912,143.9514084738912,,,,,,,,,,,,,,,,,,,,,,,,,128,001,2023-03-03_14h10.46.808,eb_01,2022.2.4,119.98786660603132,
,,,0,0,0,0,62,0,62,0,,,,,,,,,,,,,,,,,,,,,,,,,,,,,,,,,,,,,,,,,,,,,,,,,,,,,,,,,,,128,001,2023-03-03_14h10.46.808,eb_01,2022.2.4,119.98786660603132,
3,stimuli/3.png,l,0,0,0,0,63,0,63,0,0,0,0,0,,,,,,,,,,,,,,,,,,143.9514084738912,143.9514084738912,143.9514084738912,143.9514084738912,l,1,0.46638164404430427,144.42650552804116,144.42650552804116,144.42650552804116,145.44327995216008,145.44327995216008,145.44327995216008,,,,,,,,,,,,,,,,,,,,,,,,,128,001,2023-03-03_14h10.46.808,eb_01,2022.2.4,119.98786660603132,
,,,0,0,0,0,63,0,63,0,,,,,,,,,,,,,,,,,,,,,,,,,,,,,,,,,,,,,,,,,,,,,,,,,,,,,,,,,,,128,001,2023-03-03_14h10.46.808,eb_01,2022.2.4,119.98786660603132,
4,stimuli/4.png,l,0,0,0,0,64,0,64,0,0,0,0,0,,,,,,,,,,,,,,,,,,145.44327995216008,145.44327995216008,145.44327995216008,145.44327995216008,l,1,0.574589070834918,146.0350273375807,146.0350273375807,146.0350273375807,,,,,,,,,,,,,,,,,,,,,,,,,,,,128,001,2023-03-03_14h10.46.808,eb_01,2022.2.4,119.98786660603132,
,,,0,0,0,0,64,0,64,0,,,,,,,,,,,,,,,,,,,,,,,,,,,,,,,,,,,,,,,,,,,,,,,,,,,,,,,,,,,128,001,2023-03-03_14h10.46.808,eb_01,2022.2.4,119.98786660603132,
2,stimuli/2.png,s,0,0,0,0,65,0,65,0,0,0,0,0,,,,,,,,,,,,,,,,,,147.04343643417815,147.04343643417815,147.04343643417815,147.04343643417815,s,1,0.606446923367912,147.66013521325658,147.66013521325658,147.66013521325658,148.66860920883482,148.66860920883482,148.66860920883482,,,,,,,,,,,,,,,,,,,,,,,,,128,001,2023-03-03_14h10.46.808,eb_01,2022.2.4,119.98786660603132,
,,,0,0,0,0,65,0,65,0,,,,,,,,,,,,,,,,,,,,,,,,,,,,,,,,,,,,,,,,,,,,,,,,,,,,,,,,,,,128,001,2023-03-03_14h10.46.808,eb_01,2022.2.4,119.98786660603132,
3,stimuli/3.png,l,0,0,0,0,66,0,66,0,0,0,0,0,,,,,,,,,,,,,,,,,,148.66860920883482,148.66860920883482,148.66860920883482,148.66860920883482,l,1,0.6603423563065007,149.34364613334765,149.34364613334765,149.34364613334765,150.36046734510455,150.36046734510455,150.36046734510455,,,,,,,,,,,,,,,,,,,,,,,,,128,001,2023-03-03_14h10.46.808,eb_01,2022.2.4,119.98786660603132,
,,,0,0,0,0,66,0,66,0,,,,,,,,,,,,,,,,,,,,,,,,,,,,,,,,,,,,,,,,,,,,,,,,,,,,,,,,,,,128,001,2023-03-03_14h10.46.808,eb_01,2022.2.4,119.98786660603132,
4,stimuli/4.png,l,0,0,0,0,67,0,67,0,0,0,0,0,,,,,,,,,,,,,,,,,,150.36046734510455,150.36046734510455,150.36046734510455,150.36046734510455,l,1,0.5365422705363017,150.91885182537953,150.91885182537953,150.91885182537953,,,,,,,,,,,,,,,,,,,,,,,,,,,,128,001,2023-03-03_14h10.46.808,eb_01,2022.2.4,119.98786660603132,
,,,0,0,0,0,67,0,67,0,,,,,,,,,,,,,,,,,,,,,,,,,,,,,,,,,,,,,,,,,,,,,,,,,,,,,,,,,,,128,001,2023-03-03_14h10.46.808,eb_01,2022.2.4,119.98786660603132,
3,stimuli/3.png,l,0,0,0,0,68,0,68,0,0,0,0,0,,,,,,,,,,,,,,,,,,151.92727239249507,151.92727239249507,151.92727239249507,151.92727239249507,l,1,0.5458152781939134,152.48568917132798,152.48568917132798,152.48568917132798,153.49409766422468,153.49409766422468,153.49409766422468,,,,,,,,,,,,,,,,,,,,,,,,,128,001,2023-03-03_14h10.46.808,eb_01,2022.2.4,119.98786660603132,
,,,0,0,0,0,68,0,68,0,,,,,,,,,,,,,,,,,,,,,,,,,,,,,,,,,,,,,,,,,,,,,,,,,,,,,,,,,,,128,001,2023-03-03_14h10.46.808,eb_01,2022.2.4,119.98786660603132,
2,stimuli/2.png,s,0,0,0,0,69,0,69,0,0,0,0,0,,,,,,,,,,,,,,,,,,153.49409766422468,153.49409766422468,153.49409766422468,153.49409766422468,s,1,0.6350483564019669,154.14423390678712,154.14423390678712,154.14423390678712,155.15260828999453,155.15260828999453,155.15260828999453,,,,,,,,,,,,,,,,,,,,,,,,,128,001,2023-03-03_14h10.46.808,eb_01,2022.2.4,119.98786660603132,
,,,0,0,0,0,69,0,69,0,,,,,,,,,,,,,,,,,,,,,,,,,,,,,,,,,,,,,,,,,,,,,,,,,,,,,,,,,,,128,001,2023-03-03_14h10.46.808,eb_01,2022.2.4,119.98786660603132,
3,stimuli/3.png,l,0,0,0,0,70,0,70,0,0,0,0,0,,,,,,,,,,,,,,,,,,155.15260828999453,155.15260828999453,155.15260828999453,155.15260828999453,l,1,0.37657986968406476,155.54433520958992,155.54433520958992,155.54433520958992,156.56110842627822,156.56110842627822,156.56110842627822,,,,,,,,,,,,,,,,,,,,,,,,,128,001,2023-03-03_14h10.46.808,eb_01,2022.2.4,119.98786660603132,
,,,0,0,0,0,70,0,70,0,,,,,,,,,,,,,,,,,,,,,,,,,,,,,,,,,,,,,,,,,,,,,,,,,,,,,,,,,,,128,001,2023-03-03_14h10.46.808,eb_01,2022.2.4,119.98786660603132,
8,stimuli/8.png,l,0,0,0,0,71,0,71,0,0,0,0,0,,,,,,,,,,,,,,,,,,156.56110842627822,156.56110842627822,156.56110842627822,156.56110842627822,l,1,0.5441608070104849,157.12783106704592,157.12783106704592,157.12783106704592,,,,,,,,,,,,,,,,,,,,,,,,,,,,128,001,2023-03-03_14h10.46.808,eb_01,2022.2.4,119.98786660603132,
,,,0,0,0,0,71,0,71,0,,,,,,,,,,,,,,,,,,,,,,,,,,,,,,,,,,,,,,,,,,,,,,,,,,,,,,,,,,,128,001,2023-03-03_14h10.46.808,eb_01,2022.2.4,119.98786660603132,
3,stimuli/3.png,l,0,0,0,0,72,0,72,0,0,0,0,0,,,,,,,,,,,,,,,,,,158.13632317399606,158.13632317399606,158.13632317399606,158.13632317399606,l,1,0.4170188765565399,158.56963222805643,158.56963222805643,158.56963222805643,159.57811678858707,159.57811678858707,159.57811678858707,,,,,,,,,,,,,,,,,,,,,,,,,128,001,2023-03-03_14h10.46.808,eb_01,2022.2.4,119.98786660603132,
,,,0,0,0,0,72,0,72,0,,,,,,,,,,,,,,,,,,,,,,,,,,,,,,,,,,,,,,,,,,,,,,,,,,,,,,,,,,,128,001,2023-03-03_14h10.46.808,eb_01,2022.2.4,119.98786660603132,
2,stimuli/2.png,s,0,0,0,0,73,0,73,0,0,0,0,0,,,,,,,,,,,,,,,,,,159.57811678858707,159.57811678858707,159.57811678858707,159.57811678858707,s,1,0.6232992262812331,160.2115278095298,160.2115278095298,160.2115278095298,161.21993449126603,161.21993449126603,161.21993449126603,,,,,,,,,,,,,,,,,,,,,,,,,128,001,2023-03-03_14h10.46.808,eb_01,2022.2.4,119.98786660603132,
,,,0,0,0,0,73,0,73,0,,,,,,,,,,,,,,,,,,,,,,,,,,,,,,,,,,,,,,,,,,,,,,,,,,,,,,,,,,,128,001,2023-03-03_14h10.46.808,eb_01,2022.2.4,119.98786660603132,
3,stimuli/3.png,l,0,0,0,0,74,0,74,0,0,0,0,0,,,,,,,,,,,,,,,,,,161.21993449126603,161.21993449126603,161.21993449126603,161.21993449126603,l,1,0.4295612835267093,161.66162758792052,161.66162758792052,161.66162758792052,162.67009916866664,162.67009916866664,162.67009916866664,,,,,,,,,,,,,,,,,,,,,,,,,128,001,2023-03-03_14h10.46.808,eb_01,2022.2.4,119.98786660603132,
,,,0,0,0,0,74,0,74,0,,,,,,,,,,,,,,,,,,,,,,,,,,,,,,,,,,,,,,,,,,,,,,,,,,,,,,,,,,,128,001,2023-03-03_14h10.46.808,eb_01,2022.2.4,119.98786660603132,
8,stimuli/8.png,l,0,0,0,0,75,0,75,0,0,0,0,0,,,,,,,,,,,,,,,,,,162.67009916866664,162.67009916866664,162.67009916866664,162.67009916866664,l,1,0.47542010981123894,163.1701162235113,163.1701162235113,163.1701162235113,,,,,,,,,,,,,,,,,,,,,,,,,,,,128,001,2023-03-03_14h10.46.808,eb_01,2022.2.4,119.98786660603132,
,,,0,0,0,0,75,0,75,0,,,,,,,,,,,,,,,,,,,,,,,,,,,,,,,,,,,,,,,,,,,,,,,,,,,,,,,,,,,128,001,2023-03-03_14h10.46.808,eb_01,2022.2.4,119.98786660603132,
6,stimuli/6.png,s,0,0,0,0,76,0,76,0,0,0,0,0,,,,,,,,,,,,,,,,,,164.19525718258228,164.19525718258228,164.19525718258228,164.19525718258228,s,1,0.5493249546270818,164.7703191913024,164.7703191913024,164.7703191913024,,,,,,,,,,,,,,,,,,,,,,,,,,,,128,001,2023-03-03_14h10.46.808,eb_01,2022.2.4,119.98786660603132,
,,,0,0,0,0,76,0,76,0,,,,,,,,,,,,,,,,,,,,,,,,,,,,,,,,,,,,,,,,,,,,,,,,,,,,,,,,,,,128,001,2023-03-03_14h10.46.808,eb_01,2022.2.4,119.98786660603132,
8,stimuli/8.png,l,0,0,0,0,77,0,77,0,0,0,0,0,,,,,,,,,,,,,,,,,,165.7704387261765,165.7704387261765,165.7704387261765,165.7704387261765,l,1,0.5022137289633974,166.29548595903907,166.29548595903907,166.29548595903907,,,,,,,,,,,,,,,,,,,,,,,,,,,,128,001,2023-03-03_14h10.46.808,eb_01,2022.2.4,119.98786660603132,
,,,0,0,0,0,77,0,77,0,,,,,,,,,,,,,,,,,,,,,,,,,,,,,,,,,,,,,,,,,,,,,,,,,,,,,,,,,,,128,001,2023-03-03_14h10.46.808,eb_01,2022.2.4,119.98786660603132,
9,stimuli/9.png,l,0,0,0,0,78,0,78,0,0,0,0,0,,,,,,,,,,,,,,,,,,167.3122700425447,167.3122700425447,167.3122700425447,167.3122700425447,l,1,0.5684535515320022,167.91233476041816,167.91233476041816,167.91233476041816,,,,,,,,,,,,,,,,,,,,,,,,,,,,128,001,2023-03-03_14h10.46.808,eb_01,2022.2.4,119.98786660603132,
,,,0,0,0,0,78,0,78,0,,,,,,,,,,,,,,,,,,,,,,,,,,,,,,,,,,,,,,,,,,,,,,,,,,,,,,,,,,,128,001,2023-03-03_14h10.46.808,eb_01,2022.2.4,119.98786660603132,
8,stimuli/8.png,l,0,0,0,0,79,0,79,0,0,0,0,0,,,,,,,,,,,,,,,,,,168.9124099224864,168.9124099224864,168.9124099224864,168.9124099224864,l,1,0.5363943612610456,169.4708200604946,169.4708200604946,169.4708200604946,,,,,,,,,,,,,,,,,,,,,,,,,,,,128,001,2023-03-03_14h10.46.808,eb_01,2022.2.4,119.98786660603132,
,,,0,0,0,0,79,0,79,0,,,,,,,,,,,,,,,,,,,,,,,,,,,,,,,,,,,,,,,,,,,,,,,,,,,,,,,,,,,128,001,2023-03-03_14h10.46.808,eb_01,2022.2.4,119.98786660603132,
9,stimuli/9.png,l,0,0,0,0,80,0,80,0,0,0,0,0,,,,,,,,,,,,,,,,,,170.487593277212,170.487593277212,170.487593277212,170.487593277212,l,1,0.4572450751729775,170.97099226916907,170.97099226916907,170.97099226916907,,,,,,,,,,,,,,,,,,,,,,,,,,,,128,001,2023-03-03_14h10.46.808,eb_01,2022.2.4,119.98786660603132,
,,,0,0,0,0,80,0,80,0,,,,,,,,,,,,,,,,,,,,,,,,,,,,,,,,,,,,,,,,,,,,,,,,,,,,,,,,,,,128,001,2023-03-03_14h10.46.808,eb_01,2022.2.4,119.98786660603132,
5,stimuli/5.png,s,0,0,0,0,81,0,81,0,0,0,0,0,,,,,,,,,,,,,,,,,,171.9710843351786,171.9710843351786,171.9710843351786,171.9710843351786,s,1,0.5348401061492041,172.52946096719825,172.52946096719825,172.52946096719825,,,,,,,,,,,,,,,,,,,,,,,,,,,,128,001,2023-03-03_14h10.46.808,eb_01,2022.2.4,119.98786660603132,
,,,0,0,0,0,81,0,81,0,,,,,,,,,,,,,,,,,,,,,,,,,,,,,,,,,,,,,,,,,,,,,,,,,,,,,,,,,,,128,001,2023-03-03_14h10.46.808,eb_01,2022.2.4,119.98786660603132,
6,stimuli/6.png,s,0,0,0,0,82,0,82,0,0,0,0,0,,,,,,,,,,,,,,,,,,173.55459045575117,173.55459045575117,173.55459045575117,173.55459045575117,l,0,0.510373794590123,174.09630435027066,174.09630435027066,174.09630435027066,,,,,,,,,,,,,,,,,,,,,,,,,,,,128,001,2023-03-03_14h10.46.808,eb_01,2022.2.4,119.98786660603132,
,,,0,0,0,0,82,0,82,0,,,,,,,,,,,,,,,,,,,,,,,,,,,,,,,,,,,,,,,,,,,,,,,,,,,,,,,,,,,128,001,2023-03-03_14h10.46.808,eb_01,2022.2.4,119.98786660603132,
5,stimuli/5.png,s,0,0,0,0,83,0,83,0,0,0,0,0,,,,,,,,,,,,,,,,,,175.09643263893668,175.09643263893668,175.09643263893668,175.09643263893668,s,1,0.632605136197526,175.7464577986102,175.7464577986102,175.7464577986102,,,,,,,,,,,,,,,,,,,,,,,,,,,,128,001,2023-03-03_14h10.46.808,eb_01,2022.2.4,119.98786660603132,
,,,0,0,0,0,83,0,83,0,,,,,,,,,,,,,,,,,,,,,,,,,,,,,,,,,,,,,,,,,,,,,,,,,,,,,,,,,,,128,001,2023-03-03_14h10.46.808,eb_01,2022.2.4,119.98786660603132,
6,stimuli/6.png,s,0,0,0,0,84,0,84,0,0,0,0,0,,,,,,,,,,,,,,,,,,176.77159905954613,176.77159905954613,176.77159905954613,176.77159905954613,s,1,0.4215189416136127,177.22162729816046,177.22162729816046,177.22162729816046,,,,,,,,,,,,,,,,,,,,,,,,,,,,128,001,2023-03-03_14h10.46.808,eb_01,2022.2.4,119.98786660603132,
,,,0,0,0,0,84,0,84,0,,,,,,,,,,,,,,,,,,,,,,,,,,,,,,,,,,,,,,,,,,,,,,,,,,,,,,,,,,,128,001,2023-03-03_14h10.46.808,eb_01,2022.2.4,119.98786660603132,
5,stimuli/5.png,s,0,0,0,0,85,0,85,0,0,0,0,0,,,,,,,,,,,,,,,,,,178.22175347383018,178.22175347383018,178.22175347383018,178.22175347383018,s,1,0.515435613138834,178.7551328301197,178.7551328301197,178.7551328301197,,,,,,,,,,,,,,,,,,,,,,,,,,,,128,001,2023-03-03_14h10.46.808,eb_01,2022.2.4,119.98786660603132,
,,,0,0,0,0,85,0,85,0,,,,,,,,,,,,,,,,,,,,,,,,,,,,,,,,,,,,,,,,,,,,,,,,,,,,,,,,,,,128,001,2023-03-03_14h10.46.808,eb_01,2022.2.4,119.98786660603132,
9,stimuli/9.png,l,0,0,0,0,86,0,86,0,0,0,0,0,,,,,,,,,,,,,,,,,,179.77188823733013,179.77188823733013,179.77188823733013,179.77188823733013,l,1,0.5163526507967617,180.3136531454511,180.3136531454511,180.3136531454511,,,,,,,,,,,,,,,,,,,,,,,,,,,,128,001,2023-03-03_14h10.46.808,eb_01,2022.2.4,119.98786660603132,
,,,0,0,0,0,86,0,86,0,,,,,,,,,,,,,,,,,,,,,,,,,,,,,,,,,,,,,,,,,,,,,,,,,,,,,,,,,,,128,001,2023-03-03_14h10.46.808,eb_01,2022.2.4,119.98786660603132,
5,stimuli/5.png,s,0,0,0,0,87,0,87,0,0,0,0,0,,,,,,,,,,,,,,,,,,181.31375970051158,181.31375970051158,181.31375970051158,181.31375970051158,s,1,0.5586193940835074,181.89715473819524,181.89715473819524,181.89715473819524,,,,,,,,,,,,,,,,,,,,,,,,,,,,128,001,2023-03-03_14h10.46.808,eb_01,2022.2.4,119.98786660603132,
,,,0,0,0,0,87,0,87,0,,,,,,,,,,,,,,,,,,,,,,,,,,,,,,,,,,,,,,,,,,,,,,,,,,,,,,,,,,,128,001,2023-03-03_14h10.46.808,eb_01,2022.2.4,119.98786660603132,
9,stimuli/9.png,l,0,0,0,0,88,0,88,0,0,0,0,0,,,,,,,,,,,,,,,,,,182.91391648436547,182.91391648436547,182.91391648436547,182.91391648436547,l,1,0.4144313693686854,183.3556132033118,183.3556132033118,183.3556132033118,,,,,,,,,,,,,,,,,,,,,,,,,,,,128,001,2023-03-03_14h10.46.808,eb_01,2022.2.4,119.98786660603132,
,,,0,0,0,0,88,0,88,0,,,,,,,,,,,,,,,,,,,,,,,,,,,,,,,,,,,,,,,,,,,,,,,,,,,,,,,,,,,128,001,2023-03-03_14h10.46.808,eb_01,2022.2.4,119.98786660603132,
5,stimuli/5.png,s,0,0,0,0,89,0,89,0,0,0,0,0,,,,,,,,,,,,,,,,,,184.3557529624959,184.3557529624959,184.3557529624959,184.3557529624959,s,1,0.4606328018999193,184.8391042612784,184.8391042612784,184.8391042612784,,,,,,,,,,,,,,,,,,,,,,,,,,,,128,001,2023-03-03_14h10.46.808,eb_01,2022.2.4,119.98786660603132,
,,,0,0,0,0,89,0,89,0,,,,,,,,,,,,,,,,,,,,,,,,,,,,,,,,,,,,,,,,,,,,,,,,,,,,,,,,,,,128,001,2023-03-03_14h10.46.808,eb_01,2022.2.4,119.98786660603132,
9,stimuli/9.png,l,0,0,0,0,90,0,90,0,0,0,0,0,,,,,,,,,,,,,,,,,,185.85590253199916,185.85590253199916,185.85590253199916,185.85590253199916,l,1,0.36056099040433764,186.24760530312778,186.24760530312778,186.24760530312778,,,,,,,,,,,,,,,,,,,,,,,,,,,,128,001,2023-03-03_14h10.46.808,eb_01,2022.2.4,119.98786660603132,
,,,0,0,0,0,90,0,90,0,,,,,,,,,,,,,,,,,,,,,,,,,,,,,,,,,,,,,,,,,,,,,,,,,,,,,,,,,,,128,001,2023-03-03_14h10.46.808,eb_01,2022.2.4,119.98786660603132,
6,stimuli/6.png,s,0,0,0,0,91,0,91,0,0,0,0,0,,,,,,,,,,,,,,,,,,187.26439542375738,187.26439542375738,187.26439542375738,187.26439542375738,s,1,0.4641512321541086,187.7561017869739,187.7561017869739,187.7561017869739,,,,,,,,,,,,,,,,,,,,,,,,,,,,128,001,2023-03-03_14h10.46.808,eb_01,2022.2.4,119.98786660603132,
,,,0,0,0,0,91,0,91,0,,,,,,,,,,,,,,,,,,,,,,,,,,,,,,,,,,,,,,,,,,,,,,,,,,,,,,,,,,,128,001,2023-03-03_14h10.46.808,eb_01,2022.2.4,119.98786660603132,
5,stimuli/5.png,s,0,0,0,0,92,0,92,0,0,0,0,0,,,,,,,,,,,,,,,,,,188.75617362861522,188.75617362861522,188.75617362861522,188.75617362861522,s,1,0.47643042090930976,189.25622388761258,189.25622388761258,189.25622388761258,,,,,,,,,,,,,,,,,,,,,,,,,,,,128,001,2023-03-03_14h10.46.808,eb_01,2022.2.4,119.98786660603132,
,,,0,0,0,0,92,0,92,0,,,,,,,,,,,,,,,,,,,,,,,,,,,,,,,,,,,,,,,,,,,,,,,,,,,,,,,,,,,128,001,2023-03-03_14h10.46.808,eb_01,2022.2.4,119.98786660603132,
6,stimuli/6.png,s,0,0,0,0,93,0,93,0,0,0,0,0,,,,,,,,,,,,,,,,,,190.2813823542965,190.2813823542965,190.2813823542965,190.2813823542965,s,1,0.45526973134838045,190.7647901001037,190.7647901001037,190.7647901001037,,,,,,,,,,,,,,,,,,,,,,,,,,,,128,001,2023-03-03_14h10.46.808,eb_01,2022.2.4,119.98786660603132,
,,,0,0,0,0,93,0,93,0,,,,,,,,,,,,,,,,,,,,,,,,,,,,,,,,,,,,,,,,,,,,,,,,,,,,,,,,,,,128,001,2023-03-03_14h10.46.808,eb_01,2022.2.4,119.98786660603132,
5,stimuli/5.png,s,0,0,0,0,94,0,94,0,0,0,0,0,,,,,,,,,,,,,,,,,,191.7648314543476,191.7648314543476,191.7648314543476,191.7648314543476,s,1,0.5718904807581566,192.35659091395792,192.35659091395792,192.35659091395792,,,,,,,,,,,,,,,,,,,,,,,,,,,,128,001,2023-03-03_14h10.46.808,eb_01,2022.2.4,119.98786660603132,
,,,0,0,0,0,94,0,94,0,,,,,,,,,,,,,,,,,,,,,,,,,,,,,,,,,,,,,,,,,,,,,,,,,,,,,,,,,,,128,001,2023-03-03_14h10.46.808,eb_01,2022.2.4,119.98786660603132,
9,stimuli/9.png,l,0,0,0,0,95,0,95,0,0,0,0,0,,,,,,,,,,,,,,,,,,193.37336654550745,193.37336654550745,193.37336654550745,193.37336654550745,l,1,0.5954306989151519,193.99845842286595,193.99845842286595,193.99845842286595,,,,,,,,,,,,,,,,,,,,,,,,,,,,128,001,2023-03-03_14h10.46.808,eb_01,2022.2.4,119.98786660603132,
,,,0,0,0,0,95,0,95,0,,,,,,,,,,,,,,,,,,,,,,,,,,,,,,,,,,,,,,,,,,,,,,,,,,,,,,,,,,,128,001,2023-03-03_14h10.46.808,eb_01,2022.2.4,119.98786660603132,
8,stimuli/8.png,l,0,0,0,0,96,0,96,0,0,0,0,0,,,,,,,,,,,,,,,,,,194.9985378108977,194.9985378108977,194.9985378108977,194.9985378108977,l,1,0.5373551679949742,195.55692319673835,195.55692319673835,195.55692319673835,,,,,,,,,,,,,,,,,,,,,,,,,,,,128,001,2023-03-03_14h10.46.808,eb_01,2022.2.4,119.98786660603132,
,,,0,0,0,0,96,0,96,0,,,,,,,,,,,,,,,,,,,,,,,,,,,,,,,,,,,,,,,,,,,,,,,,,,,,,,,,,,,128,001,2023-03-03_14h10.46.808,eb_01,2022.2.4,119.98786660603132,
6,stimuli/6.png,s,0,0,0,0,97,0,97,0,0,0,0,0,,,,,,,,,,,,,,,,,,196.58202793312375,196.58202793312375,196.58202793312375,196.58202793312375,s,1,0.4899182399676647,197.09877473747474,197.09877473747474,197.09877473747474,,,,,,,,,,,,,,,,,,,,,,,,,,,,128,001,2023-03-03_14h10.46.808,eb_01,2022.2.4,119.98786660603132,
,,,0,0,0,0,97,0,97,0,,,,,,,,,,,,,,,,,,,,,,,,,,,,,,,,,,,,,,,,,,,,,,,,,,,,,,,,,,,128,001,2023-03-03_14h10.46.808,eb_01,2022.2.4,119.98786660603132,
8,stimuli/8.png,l,0,0,0,0,98,0,98,0,0,0,0,0,,,,,,,,,,,,,,,,,,198.09888461293303,198.09888461293303,198.09888461293303,198.09888461293303,l,1,0.43707839646958746,198.5572567472991,198.5572567472991,198.5572567472991,,,,,,,,,,,,,,,,,,,,,,,,,,,,128,001,2023-03-03_14h10.46.808,eb_01,2022.2.4,119.98786660603132,
,,,0,0,0,0,98,0,98,0,,,,,,,,,,,,,,,,,,,,,,,,,,,,,,,,,,,,,,,,,,,,,,,,,,,,,,,,,,,128,001,2023-03-03_14h10.46.808,eb_01,2022.2.4,119.98786660603132,
3,stimuli/3.png,l,0,0,0,0,99,0,99,0,0,0,0,0,,,,,,,,,,,,,,,,,,199.56565678823972,199.56565678823972,199.56565678823972,199.56565678823972,l,1,0.4263827427930664,200.01572245697025,200.01572245697025,200.01572245697025,,,,,,,,,,,,,,,,,,,,,,,,,,,,128,001,2023-03-03_14h10.46.808,eb_01,2022.2.4,119.98786660603132,
,,,0,0,0,0,99,0,99,0,,,,,,,,,,,,,,,,,,,,,,,,,,,,,,,,,,,,,,,,,,,,,,,,,,,,,,,,,,,128,001,2023-03-03_14h10.46.808,eb_01,2022.2.4,119.98786660603132,
,,,0,0,0,0,,,,,,,,,,,,,,,,,,,,,,,,,,,,,,,,,,,,,,,201.01585195306689,201.01585195306689,return,15.431873800174799,,,,,,,,,,,,,,,,,,,,,128,001,2023-03-03_14h10.46.808,eb_01,2022.2.4,119.98786660603132,
2,stimuli/2.png,s,1,0,1,0,0,0,0,0,0,0,0,0,,,,,,,,,,,,,,,,,,216.46750991069712,216.46750991069712,216.46750991069712,216.46750991069712,s,1,0.6602104453777429,217.14256072056014,217.14256072056014,217.14256072056014,218.1676745126024,218.1676745126024,218.1676745126024,,,,,,,,,,,,,,,,,,,,,,,,,128,001,2023-03-03_14h10.46.808,eb_01,2022.2.4,119.98786660603132,
,,,1,0,1,0,0,0,0,0,,,,,,,,,,,,,,,,,,,,,,,,,,,,,,,,,,,,,,,,,,,,,,,,,,,,,,,,,,,128,001,2023-03-03_14h10.46.808,eb_01,2022.2.4,119.98786660603132,
1,stimuli/1.png,s,1,0,1,0,1,0,1,0,0,0,0,0,,,,,,,,,,,,,,,,,,218.1676745126024,218.1676745126024,218.1676745126024,218.1676745126024,s,1,0.9761658443894703,219.1761267745751,219.1761267745751,219.1761267745751,,,,,,,,,,,,,,,,,,,,,,,,,,,,128,001,2023-03-03_14h10.46.808,eb_01,2022.2.4,119.98786660603132,
,,,1,0,1,0,1,0,1,0,,,,,,,,,,,,,,,,,,,,,,,,,,,,,,,,,,,,,,,,,,,,,,,,,,,,,,,,,,,128,001,2023-03-03_14h10.46.808,eb_01,2022.2.4,119.98786660603132,
4,stimuli/4.png,l,1,0,1,0,2,0,2,0,0,0,0,0,,,,,,,,,,,,,,,,,,220.18455820850795,220.18455820850795,220.18455820850795,220.18455820850795,l,1,0.5113204141380265,220.71797831528238,220.71797831528238,220.71797831528238,,,,,,,,,,,,,,,,,,,,,,,,,,,,128,001,2023-03-03_14h10.46.808,eb_01,2022.2.4,119.98786660603132,
,,,1,0,1,0,2,0,2,0,,,,,,,,,,,,,,,,,,,,,,,,,,,,,,,,,,,,,,,,,,,,,,,,,,,,,,,,,,,128,001,2023-03-03_14h10.46.808,eb_01,2022.2.4,119.98786660603132,
1,stimuli/1.png,s,1,0,1,0,3,0,3,0,0,0,0,0,,,,,,,,,,,,,,,,,,221.74303867889103,221.74303867889103,221.74303867889103,221.74303867889103,s,1,0.672925815655617,222.44311272411142,222.44311272411142,222.44311272411142,,,,,,,,,,,,,,,,,,,,,,,,,,,,128,001,2023-03-03_14h10.46.808,eb_01,2022.2.4,119.98786660603132,
,,,1,0,1,0,3,0,3,0,,,,,,,,,,,,,,,,,,,,,,,,,,,,,,,,,,,,,,,,,,,,,,,,,,,,,,,,,,,128,001,2023-03-03_14h10.46.808,eb_01,2022.2.4,119.98786660603132,
2,stimuli/2.png,s,1,0,1,0,4,0,4,0,0,0,0,0,,,,,,,,,,,,,,,,,,223.44325369072612,223.44325369072612,223.44325369072612,223.44325369072612,s,1,0.5647666857694276,224.01831539758132,224.01831539758132,224.01831539758132,225.04339447623352,225.04339447623352,225.04339447623352,,,,,,,,,,,,,,,,,,,,,,,,,128,001,2023-03-03_14h10.46.808,eb_01,2022.2.4,119.98786660603132,
,,,1,0,1,0,4,0,4,0,,,,,,,,,,,,,,,,,,,,,,,,,,,,,,,,,,,,,,,,,,,,,,,,,,,,,,,,,,,128,001,2023-03-03_14h10.46.808,eb_01,2022.2.4,119.98786660603132,
1,stimuli/1.png,s,1,0,1,0,5,0,5,0,0,0,0,0,,,,,,,,,,,,,,,,,,225.04339447623352,225.04339447623352,225.04339447623352,225.04339447623352,s,1,0.8126952763705049,225.88519491278566,225.88519491278566,225.88519491278566,,,,,,,,,,,,,,,,,,,,,,,,,,,,128,001,2023-03-03_14h10.46.808,eb_01,2022.2.4,119.98786660603132,
,,,1,0,1,0,5,0,5,0,,,,,,,,,,,,,,,,,,,,,,,,,,,,,,,,,,,,,,,,,,,,,,,,,,,,,,,,,,,128,001,2023-03-03_14h10.46.808,eb_01,2022.2.4,119.98786660603132,
4,stimuli/4.png,l,1,0,1,0,6,0,6,0,0,0,0,0,,,,,,,,,,,,,,,,,,226.89359133143444,226.89359133143444,226.89359133143444,226.89359133143444,l,1,0.5535575755347963,227.4686847331468,227.4686847331468,227.4686847331468,,,,,,,,,,,,,,,,,,,,,,,,,,,,128,001,2023-03-03_14h10.46.808,eb_01,2022.2.4,119.98786660603132,
,,,1,0,1,0,6,0,6,0,,,,,,,,,,,,,,,,,,,,,,,,,,,,,,,,,,,,,,,,,,,,,,,,,,,,,,,,,,,128,001,2023-03-03_14h10.46.808,eb_01,2022.2.4,119.98786660603132,
2,stimuli/2.png,s,1,0,1,0,7,0,7,0,0,0,0,0,,,,,,,,,,,,,,,,,,228.47712703386787,228.47712703386787,228.47712703386787,228.47712703386787,s,1,0.6340956997592002,229.12714977870928,229.12714977870928,229.12714977870928,230.15229224704672,230.15229224704672,230.15229224704672,,,,,,,,,,,,,,,,,,,,,,,,,128,001,2023-03-03_14h10.46.808,eb_01,2022.2.4,119.98786660603132,
,,,1,0,1,0,7,0,7,0,,,,,,,,,,,,,,,,,,,,,,,,,,,,,,,,,,,,,,,,,,,,,,,,,,,,,,,,,,,128,001,2023-03-03_14h10.46.808,eb_01,2022.2.4,119.98786660603132,
1,stimuli/1.png,s,1,0,1,0,8,0,8,0,0,0,0,0,,,,,,,,,,,,,,,,,,230.15229224704672,230.15229224704672,230.15229224704672,230.15229224704672,s,1,0.671022313501453,230.85238138504792,230.85238138504792,230.85238138504792,,,,,,,,,,,,,,,,,,,,,,,,,,,,128,001,2023-03-03_14h10.46.808,eb_01,2022.2.4,119.98786660603132,
,,,1,0,1,0,8,0,8,0,,,,,,,,,,,,,,,,,,,,,,,,,,,,,,,,,,,,,,,,,,,,,,,,,,,,,,,,,,,128,001,2023-03-03_14h10.46.808,eb_01,2022.2.4,119.98786660603132,
2,stimuli/2.png,s,1,0,1,0,9,0,9,0,0,0,0,0,,,,,,,,,,,,,,,,,,231.85244326546672,231.85244326546672,231.85244326546672,231.85244326546672,l,0,0.47494136667228304,232.34419158662786,232.34419158662786,232.34419158662786,,,,,,,,,,,,,,,,,,,,,,,,,,,,128,001,2023-03-03_14h10.46.808,eb_01,2022.2.4,119.98786660603132,
,,,1,0,1,0,9,0,9,0,,,,,,,,,,,,,,,,,,,,,,,,,,,,,,,,,,,,,,,,,,,,,,,,,,,,,,,,,,,128,001,2023-03-03_14h10.46.808,eb_01,2022.2.4,119.98786660603132,
1,stimuli/1.png,s,1,0,1,0,10,0,10,0,0,0,0,0,,,,,,,,,,,,,,,,,,233.3693011527066,233.3693011527066,233.3693011527066,233.3693011527066,s,1,0.694177363824565,234.09437941634678,234.09437941634678,234.09437941634678,,,,,,,,,,,,,,,,,,,,,,,,,,,,128,001,2023-03-03_14h10.46.808,eb_01,2022.2.4,119.98786660603132,
,,,1,0,1,0,10,0,10,0,,,,,,,,,,,,,,,,,,,,,,,,,,,,,,,,,,,,,,,,,,,,,,,,,,,,,,,,,,,128,001,2023-03-03_14h10.46.808,eb_01,2022.2.4,119.98786660603132,
4,stimuli/4.png,l,1,0,1,0,11,0,11,0,0,0,0,0,,,,,,,,,,,,,,,,,,235.10282020780141,235.10282020780141,235.10282020780141,235.10282020780141,l,1,0.5686542855692096,235.69455370784272,235.69455370784272,235.69455370784272,,,,,,,,,,,,,,,,,,,,,,,,,,,,128,001,2023-03-03_14h10.46.808,eb_01,2022.2.4,119.98786660603132,
,,,1,0,1,0,11,0,11,0,,,,,,,,,,,,,,,,,,,,,,,,,,,,,,,,,,,,,,,,,,,,,,,,,,,,,,,,,,,128,001,2023-03-03_14h10.46.808,eb_01,2022.2.4,119.98786660603132,
2,stimuli/2.png,s,1,0,1,0,12,0,12,0,0,0,0,0,,,,,,,,,,,,,,,,,,236.70295948404237,236.70295948404237,236.70295948404237,236.70295948404237,s,1,0.5285904853662942,237.24468183048884,237.24468183048884,237.24468183048884,238.26146893255645,238.26146893255645,238.26146893255645,,,,,,,,,,,,,,,,,,,,,,,,,128,001,2023-03-03_14h10.46.808,eb_01,2022.2.4,119.98786660603132,
,,,1,0,1,0,12,0,12,0,,,,,,,,,,,,,,,,,,,,,,,,,,,,,,,,,,,,,,,,,,,,,,,,,,,,,,,,,,,128,001,2023-03-03_14h10.46.808,eb_01,2022.2.4,119.98786660603132,
4,stimuli/4.png,l,1,0,1,0,13,0,13,0,0,0,0,0,,,,,,,,,,,,,,,,,,238.26146893255645,238.26146893255645,238.26146893255645,238.26146893255645,l,1,0.674161914823344,238.95322534345905,238.95322534345905,238.95322534345905,,,,,,,,,,,,,,,,,,,,,,,,,,,,128,001,2023-03-03_14h10.46.808,eb_01,2022.2.4,119.98786660603132,
,,,1,0,1,0,13,0,13,0,,,,,,,,,,,,,,,,,,,,,,,,,,,,,,,,,,,,,,,,,,,,,,,,,,,,,,,,,,,128,001,2023-03-03_14h10.46.808,eb_01,2022.2.4,119.98786660603132,
3,stimuli/3.png,l,1,0,1,0,14,0,14,0,0,0,0,0,,,,,,,,,,,,,,,,,,239.9616706627421,239.9616706627421,239.9616706627421,239.9616706627421,l,1,0.43002946174237877,240.4033809651737,240.4033809651737,240.4033809651737,241.4118395661062,241.4118395661062,241.4118395661062,,,,,,,,,,,,,,,,,,,,,,,,,128,001,2023-03-03_14h10.46.808,eb_01,2022.2.4,119.98786660603132,
,,,1,0,1,0,14,0,14,0,,,,,,,,,,,,,,,,,,,,,,,,,,,,,,,,,,,,,,,,,,,,,,,,,,,,,,,,,,,128,001,2023-03-03_14h10.46.808,eb_01,2022.2.4,119.98786660603132,
2,stimuli/2.png,s,1,0,1,0,15,0,15,0,0,0,0,0,,,,,,,,,,,,,,,,,,241.4118395661062,241.4118395661062,241.4118395661062,241.4118395661062,s,1,0.515903489489574,241.93687804517685,241.93687804517685,241.93687804517685,242.94533634424442,242.94533634424442,242.94533634424442,,,,,,,,,,,,,,,,,,,,,,,,,128,001,2023-03-03_14h10.46.808,eb_01,2022.2.4,119.98786660603132,
,,,1,0,1,0,15,0,15,0,,,,,,,,,,,,,,,,,,,,,,,,,,,,,,,,,,,,,,,,,,,,,,,,,,,,,,,,,,,128,001,2023-03-03_14h10.46.808,eb_01,2022.2.4,119.98786660603132,
3,stimuli/3.png,l,1,0,1,0,16,0,16,0,0,0,0,0,,,,,,,,,,,,,,,,,,242.94533634424442,242.94533634424442,242.94533634424442,242.94533634424442,l,1,0.4934734966373071,243.45372566930018,243.45372566930018,243.45372566930018,244.46216464962345,244.46216464962345,244.46216464962345,,,,,,,,,,,,,,,,,,,,,,,,,128,001,2023-03-03_14h10.46.808,eb_01,2022.2.4,119.98786660603132,
,,,1,0,1,0,16,0,16,0,,,,,,,,,,,,,,,,,,,,,,,,,,,,,,,,,,,,,,,,,,,,,,,,,,,,,,,,,,,128,001,2023-03-03_14h10.46.808,eb_01,2022.2.4,119.98786660603132,
2,stimuli/2.png,s,1,0,1,0,17,0,17,0,0,0,0,0,,,,,,,,,,,,,,,,,,244.46216464962345,244.46216464962345,244.46216464962345,244.46216464962345,s,1,0.5447068640205543,245.02051954803756,245.02051954803756,245.02051954803756,246.03733351526898,246.03733351526898,246.03733351526898,,,,,,,,,,,,,,,,,,,,,,,,,128,001,2023-03-03_14h10.46.808,eb_01,2022.2.4,119.98786660603132,
,,,1,0,1,0,17,0,17,0,,,,,,,,,,,,,,,,,,,,,,,,,,,,,,,,,,,,,,,,,,,,,,,,,,,,,,,,,,,128,001,2023-03-03_14h10.46.808,eb_01,2022.2.4,119.98786660603132,
4,stimuli/4.png,l,1,0,1,0,18,0,18,0,0,0,0,0,,,,,,,,,,,,,,,,,,246.03733351526898,246.03733351526898,246.03733351526898,246.03733351526898,l,1,0.4816057372081559,246.5373704925878,246.5373704925878,246.5373704925878,,,,,,,,,,,,,,,,,,,,,,,,,,,,128,001,2023-03-03_14h10.46.808,eb_01,2022.2.4,119.98786660603132,
,,,1,0,1,0,18,0,18,0,,,,,,,,,,,,,,,,,,,,,,,,,,,,,,,,,,,,,,,,,,,,,,,,,,,,,,,,,,,128,001,2023-03-03_14h10.46.808,eb_01,2022.2.4,119.98786660603132,
1,stimuli/1.png,s,1,0,1,0,19,0,19,0,0,0,0,0,,,,,,,,,,,,,,,,,,247.56248458649497,247.56248458649497,247.56248458649497,247.56248458649497,l,0,0.7005151264602318,248.29591157560935,248.29591157560935,248.29591157560935,,,,,,,,,,,,,,,,,,,,,,,,,,,,128,001,2023-03-03_14h10.46.808,eb_01,2022.2.4,119.98786660603132,
,,,1,0,1,0,19,0,19,0,,,,,,,,,,,,,,,,,,,,,,,,,,,,,,,,,,,,,,,,,,,,,,,,,,,,,,,,,,,128,001,2023-03-03_14h10.46.808,eb_01,2022.2.4,119.98786660603132,
2,stimuli/2.png,s,1,0,1,0,20,0,20,0,0,0,0,0,,,,,,,,,,,,,,,,,,249.29596953190048,249.29596953190048,249.29596953190048,249.29596953190048,s,1,0.6551235727965832,249.97107527949265,249.97107527949265,249.97107527949265,,,,,,,,,,,,,,,,,,,,,,,,,,,,128,001,2023-03-03_14h10.46.808,eb_01,2022.2.4,119.98786660603132,
,,,1,0,1,0,20,0,20,0,,,,,,,,,,,,,,,,,,,,,,,,,,,,,,,,,,,,,,,,,,,,,,,,,,,,,,,,,,,128,001,2023-03-03_14h10.46.808,eb_01,2022.2.4,119.98786660603132,
1,stimuli/1.png,s,1,0,1,0,21,0,21,0,0,0,0,0,,,,,,,,,,,,,,,,,,250.9961954105238,250.9961954105238,250.9961954105238,250.9961954105238,s,1,0.5789807697001379,251.60458500726963,251.60458500726963,251.60458500726963,,,,,,,,,,,,,,,,,,,,,,,,,,,,128,001,2023-03-03_14h10.46.808,eb_01,2022.2.4,119.98786660603132,
,,,1,0,1,0,21,0,21,0,,,,,,,,,,,,,,,,,,,,,,,,,,,,,,,,,,,,,,,,,,,,,,,,,,,,,,,,,,,128,001,2023-03-03_14h10.46.808,eb_01,2022.2.4,119.98786660603132,
2,stimuli/2.png,s,1,0,1,0,22,0,22,0,0,0,0,0,,,,,,,,,,,,,,,,,,252.60470363654895,252.60470363654895,252.60470363654895,252.60470363654895,s,1,0.8586008903221227,253.47975227306597,253.47975227306597,253.47975227306597,254.48820664800587,254.48820664800587,254.48820664800587,,,,,,,,,,,,,,,,,,,,,,,,,128,001,2023-03-03_14h10.46.808,eb_01,2022.2.4,119.98786660603132,
,,,1,0,1,0,22,0,22,0,,,,,,,,,,,,,,,,,,,,,,,,,,,,,,,,,,,,,,,,,,,,,,,,,,,,,,,,,,,128,001,2023-03-03_14h10.46.808,eb_01,2022.2.4,119.98786660603132,
3,stimuli/3.png,l,1,0,1,0,23,0,23,0,0,0,0,0,,,,,,,,,,,,,,,,,,254.48820664800587,254.48820664800587,254.48820664800587,254.48820664800587,l,1,0.4470586521201767,254.94657576383906,254.94657576383906,254.94657576383906,255.96339124033693,255.96339124033693,255.96339124033693,,,,,,,,,,,,,,,,,,,,,,,,,128,001,2023-03-03_14h10.46.808,eb_01,2022.2.4,119.98786660603132,
,,,1,0,1,0,23,0,23,0,,,,,,,,,,,,,,,,,,,,,,,,,,,,,,,,,,,,,,,,,,,,,,,,,,,,,,,,,,,128,001,2023-03-03_14h10.46.808,eb_01,2022.2.4,119.98786660603132,
4,stimuli/4.png,l,1,0,1,0,24,0,24,0,0,0,0,0,,,,,,,,,,,,,,,,,,255.96339124033693,255.96339124033693,255.96339124033693,255.96339124033693,l,1,0.6279456913471222,256.61343752991525,256.61343752991525,256.61343752991525,,,,,,,,,,,,,,,,,,,,,,,,,,,,128,001,2023-03-03_14h10.46.808,eb_01,2022.2.4,119.98786660603132,
,,,1,0,1,0,24,0,24,0,,,,,,,,,,,,,,,,,,,,,,,,,,,,,,,,,,,,,,,,,,,,,,,,,,,,,,,,,,,128,001,2023-03-03_14h10.46.808,eb_01,2022.2.4,119.98786660603132,
3,stimuli/3.png,l,1,0,1,0,25,0,25,0,0,0,0,0,,,,,,,,,,,,,,,,,,257.62188858445734,257.62188858445734,257.62188858445734,257.62188858445734,l,1,0.5045663924247492,258.1469475897029,258.1469475897029,258.1469475897029,,,,,,,,,,,,,,,,,,,,,,,,,,,,128,001,2023-03-03_14h10.46.808,eb_01,2022.2.4,119.98786660603132,
,,,1,0,1,0,25,0,25,0,,,,,,,,,,,,,,,,,,,,,,,,,,,,,,,,,,,,,,,,,,,,,,,,,,,,,,,,,,,128,001,2023-03-03_14h10.46.808,eb_01,2022.2.4,119.98786660603132,
4,stimuli/4.png,l,1,0,1,0,26,0,26,0,0,0,0,0,,,,,,,,,,,,,,,,,,259.16373831403325,259.16373831403325,259.16373831403325,259.16373831403325,l,1,0.8187541243678425,260.00548290729057,260.00548290729057,260.00548290729057,,,,,,,,,,,,,,,,,,,,,,,,,,,,128,001,2023-03-03_14h10.46.808,eb_01,2022.2.4,119.98786660603132,
,,,1,0,1,0,26,0,26,0,,,,,,,,,,,,,,,,,,,,,,,,,,,,,,,,,,,,,,,,,,,,,,,,,,,,,,,,,,,128,001,2023-03-03_14h10.46.808,eb_01,2022.2.4,119.98786660603132,
2,stimuli/2.png,s,1,0,1,0,27,0,27,0,0,0,0,0,,,,,,,,,,,,,,,,,,261.0139351692342,261.0139351692342,261.0139351692342,261.0139351692342,s,1,0.5606243197689764,261.58899808352,261.58899808352,261.58899808352,262.5974388749746,262.5974388749746,262.5974388749746,,,,,,,,,,,,,,,,,,,,,,,,,128,001,2023-03-03_14h10.46.808,eb_01,2022.2.4,119.98786660603132,
,,,1,0,1,0,27,0,27,0,,,,,,,,,,,,,,,,,,,,,,,,,,,,,,,,,,,,,,,,,,,,,,,,,,,,,,,,,,,128,001,2023-03-03_14h10.46.808,eb_01,2022.2.4,119.98786660603132,
3,stimuli/3.png,l,1,0,1,0,28,0,28,0,0,0,0,0,,,,,,,,,,,,,,,,,,262.5974388749746,262.5974388749746,262.5974388749746,262.5974388749746,l,1,0.48120336353895254,263.08911052477197,263.08911052477197,263.08911052477197,264.0976035372878,264.0976035372878,264.0976035372878,,,,,,,,,,,,,,,,,,,,,,,,,128,001,2023-03-03_14h10.46.808,eb_01,2022.2.4,119.98786660603132,
,,,1,0,1,0,28,0,28,0,,,,,,,,,,,,,,,,,,,,,,,,,,,,,,,,,,,,,,,,,,,,,,,,,,,,,,,,,,,128,001,2023-03-03_14h10.46.808,eb_01,2022.2.4,119.98786660603132,
8,stimuli/8.png,l,1,0,1,0,29,0,29,0,0,0,0,0,,,,,,,,,,,,,,,,,,264.0976035372878,264.0976035372878,264.0976035372878,264.0976035372878,l,1,0.5650661266408861,264.68099314154824,264.68099314154824,264.68099314154824,,,,,,,,,,,,,,,,,,,,,,,,,,,,128,001,2023-03-03_14h10.46.808,eb_01,2022.2.4,119.98786660603132,
,,,1,0,1,0,29,0,29,0,,,,,,,,,,,,,,,,,,,,,,,,,,,,,,,,,,,,,,,,,,,,,,,,,,,,,,,,,,,128,001,2023-03-03_14h10.46.808,eb_01,2022.2.4,119.98786660603132,
9,stimuli/9.png,l,1,0,1,0,30,0,30,0,0,0,0,0,,,,,,,,,,,,,,,,,,265.69775881184614,265.69775881184614,265.69775881184614,265.69775881184614,l,1,0.5329897305928171,266.256164120161,266.256164120161,266.256164120161,,,,,,,,,,,,,,,,,,,,,,,,,,,,128,001,2023-03-03_14h10.46.808,eb_01,2022.2.4,119.98786660603132,
,,,1,0,1,0,30,0,30,0,,,,,,,,,,,,,,,,,,,,,,,,,,,,,,,,,,,,,,,,,,,,,,,,,,,,,,,,,,,128,001,2023-03-03_14h10.46.808,eb_01,2022.2.4,119.98786660603132,
5,stimuli/5.png,s,1,0,1,0,31,0,31,0,0,0,0,0,,,,,,,,,,,,,,,,,,267.2562700715207,267.2562700715207,267.2562700715207,267.2562700715207,s,1,0.5345636062847916,267.8146192346758,267.8146192346758,267.8146192346758,,,,,,,,,,,,,,,,,,,,,,,,,,,,128,001,2023-03-03_14h10.46.808,eb_01,2022.2.4,119.98786660603132,
,,,1,0,1,0,31,0,31,0,,,,,,,,,,,,,,,,,,,,,,,,,,,,,,,,,,,,,,,,,,,,,,,,,,,,,,,,,,,128,001,2023-03-03_14h10.46.808,eb_01,2022.2.4,119.98786660603132,
9,stimuli/9.png,l,1,0,1,0,32,0,32,0,0,0,0,0,,,,,,,,,,,,,,,,,,268.8314404464327,268.8314404464327,268.8314404464327,268.8314404464327,l,1,0.8314504777372349,269.6898888295691,269.6898888295691,269.6898888295691,,,,,,,,,,,,,,,,,,,,,,,,,,,,128,001,2023-03-03_14h10.46.808,eb_01,2022.2.4,119.98786660603132,
,,,1,0,1,0,32,0,32,0,,,,,,,,,,,,,,,,,,,,,,,,,,,,,,,,,,,,,,,,,,,,,,,,,,,,,,,,,,,128,001,2023-03-03_14h10.46.808,eb_01,2022.2.4,119.98786660603132,
8,stimuli/8.png,l,1,0,1,0,33,0,33,0,0,0,0,0,,,,,,,,,,,,,,,,,,270.68999417719897,270.68999417719897,270.68999417719897,270.68999417719897,l,1,0.5169720587437041,271.2316787917225,271.2316787917225,271.2316787917225,,,,,,,,,,,,,,,,,,,,,,,,,,,,128,001,2023-03-03_14h10.46.808,eb_01,2022.2.4,119.98786660603132,
,,,1,0,1,0,33,0,33,0,,,,,,,,,,,,,,,,,,,,,,,,,,,,,,,,,,,,,,,,,,,,,,,,,,,,,,,,,,,128,001,2023-03-03_14h10.46.808,eb_01,2022.2.4,119.98786660603132,
9,stimuli/9.png,l,1,0,1,0,34,0,34,0,0,0,0,0,,,,,,,,,,,,,,,,,,272.2484698179178,272.2484698179178,272.2484698179178,272.2484698179178,l,1,0.49452667124569416,272.77352761573275,272.77352761573275,272.77352761573275,,,,,,,,,,,,,,,,,,,,,,,,,,,,128,001,2023-03-03_14h10.46.808,eb_01,2022.2.4,119.98786660603132,
,,,1,0,1,0,34,0,34,0,,,,,,,,,,,,,,,,,,,,,,,,,,,,,,,,,,,,,,,,,,,,,,,,,,,,,,,,,,,128,001,2023-03-03_14h10.46.808,eb_01,2022.2.4,119.98786660603132,
5,stimuli/5.png,s,1,0,1,0,35,0,35,0,0,0,0,0,,,,,,,,,,,,,,,,,,273.7736350763589,273.7736350763589,273.7736350763589,273.7736350763589,s,1,0.5604302265273873,274.3570207565208,274.3570207565208,274.3570207565208,,,,,,,,,,,,,,,,,,,,,,,,,,,,128,001,2023-03-03_14h10.46.808,eb_01,2022.2.4,119.98786660603132,
,,,1,0,1,0,35,0,35,0,,,,,,,,,,,,,,,,,,,,,,,,,,,,,,,,,,,,,,,,,,,,,,,,,,,,,,,,,,,128,001,2023-03-03_14h10.46.808,eb_01,2022.2.4,119.98786660603132,
9,stimuli/9.png,l,1,0,1,0,36,0,36,0,0,0,0,0,,,,,,,,,,,,,,,,,,275.37379427507403,275.37379427507403,275.37379427507403,275.37379427507403,l,1,0.5203480131167453,275.92386353586335,275.92386353586335,275.92386353586335,,,,,,,,,,,,,,,,,,,,,,,,,,,,128,001,2023-03-03_14h10.46.808,eb_01,2022.2.4,119.98786660603132,
,,,1,0,1,0,36,0,36,0,,,,,,,,,,,,,,,,,,,,,,,,,,,,,,,,,,,,,,,,,,,,,,,,,,,,,,,,,,,128,001,2023-03-03_14h10.46.808,eb_01,2022.2.4,119.98786660603132,
6,stimuli/6.png,s,1,0,1,0,37,0,37,0,0,0,0,0,,,,,,,,,,,,,,,,,,276.94062165979994,276.94062165979994,276.94062165979994,276.94062165979994,s,1,0.5615639965981245,277.532340972597,277.532340972597,277.532340972597,,,,,,,,,,,,,,,,,,,,,,,,,,,,128,001,2023-03-03_14h10.46.808,eb_01,2022.2.4,119.98786660603132,
,,,1,0,1,0,37,0,37,0,,,,,,,,,,,,,,,,,,,,,,,,,,,,,,,,,,,,,,,,,,,,,,,,,,,,,,,,,,,128,001,2023-03-03_14h10.46.808,eb_01,2022.2.4,119.98786660603132,
9,stimuli/9.png,l,1,0,1,0,38,0,38,0,0,0,0,0,,,,,,,,,,,,,,,,,,278.5408110440767,278.5408110440767,278.5408110440767,278.5408110440767,l,1,0.45750316182966344,279.0241813597677,279.0241813597677,279.0241813597677,,,,,,,,,,,,,,,,,,,,,,,,,,,,128,001,2023-03-03_14h10.46.808,eb_01,2022.2.4,119.98786660603132,
,,,1,0,1,0,38,0,38,0,,,,,,,,,,,,,,,,,,,,,,,,,,,,,,,,,,,,,,,,,,,,,,,,,,,,,,,,,,,128,001,2023-03-03_14h10.46.808,eb_01,2022.2.4,119.98786660603132,
6,stimuli/6.png,s,1,0,1,0,39,0,39,0,0,0,0,0,,,,,,,,,,,,,,,,,,280.04097148036817,280.04097148036817,280.04097148036817,280.04097148036817,s,1,0.5574050285213161,280.6243758755736,280.6243758755736,280.6243758755736,,,,,,,,,,,,,,,,,,,,,,,,,,,,128,001,2023-03-03_14h10.46.808,eb_01,2022.2.4,119.98786660603132,
,,,1,0,1,0,39,0,39,0,,,,,,,,,,,,,,,,,,,,,,,,,,,,,,,,,,,,,,,,,,,,,,,,,,,,,,,,,,,128,001,2023-03-03_14h10.46.808,eb_01,2022.2.4,119.98786660603132,
5,stimuli/5.png,s,1,0,1,0,40,0,40,0,0,0,0,0,,,,,,,,,,,,,,,,,,281.6245059754001,281.6245059754001,281.6245059754001,281.6245059754001,s,1,0.5418993039638735,282.1911827340955,282.1911827340955,282.1911827340955,,,,,,,,,,,,,,,,,,,,,,,,,,,,128,001,2023-03-03_14h10.46.808,eb_01,2022.2.4,119.98786660603132,
,,,1,0,1,0,40,0,40,0,,,,,,,,,,,,,,,,,,,,,,,,,,,,,,,,,,,,,,,,,,,,,,,,,,,,,,,,,,,128,001,2023-03-03_14h10.46.808,eb_01,2022.2.4,119.98786660603132,
6,stimuli/6.png,s,1,0,1,0,41,0,41,0,0,0,0,0,,,,,,,,,,,,,,,,,,283.2163119208126,283.2163119208126,283.2163119208126,283.2163119208126,s,1,0.43815239911782555,283.68302734722965,283.68302734722965,283.68302734722965,,,,,,,,,,,,,,,,,,,,,,,,,,,,128,001,2023-03-03_14h10.46.808,eb_01,2022.2.4,119.98786660603132,
,,,1,0,1,0,41,0,41,0,,,,,,,,,,,,,,,,,,,,,,,,,,,,,,,,,,,,,,,,,,,,,,,,,,,,,,,,,,,128,001,2023-03-03_14h10.46.808,eb_01,2022.2.4,119.98786660603132,
9,stimuli/9.png,l,1,0,1,0,42,0,42,0,0,0,0,0,,,,,,,,,,,,,,,,,,284.6914898722898,284.6914898722898,284.6914898722898,284.6914898722898,l,1,0.490990129619604,285.20823728034156,285.20823728034156,285.20823728034156,,,,,,,,,,,,,,,,,,,,,,,,,,,,128,001,2023-03-03_14h10.46.808,eb_01,2022.2.4,119.98786660603132,
,,,1,0,1,0,42,0,42,0,,,,,,,,,,,,,,,,,,,,,,,,,,,,,,,,,,,,,,,,,,,,,,,,,,,,,,,,,,,128,001,2023-03-03_14h10.46.808,eb_01,2022.2.4,119.98786660603132,
8,stimuli/8.png,l,1,0,1,0,43,0,43,0,0,0,0,0,,,,,,,,,,,,,,,,,,286.2082879921072,286.2082879921072,286.2082879921072,286.2082879921072,l,1,0.6143060388567392,286.8417210484913,286.8417210484913,286.8417210484913,,,,,,,,,,,,,,,,,,,,,,,,,,,,128,001,2023-03-03_14h10.46.808,eb_01,2022.2.4,119.98786660603132,
,,,1,0,1,0,43,0,43,0,,,,,,,,,,,,,,,,,,,,,,,,,,,,,,,,,,,,,,,,,,,,,,,,,,,,,,,,,,,128,001,2023-03-03_14h10.46.808,eb_01,2022.2.4,119.98786660603132,
6,stimuli/6.png,s,1,0,1,0,44,0,44,0,0,0,0,0,,,,,,,,,,,,,,,,,,287.86681552178925,287.86681552178925,287.86681552178925,287.86681552178925,s,1,0.5078400177008007,288.40019910404226,288.40019910404226,288.40019910404226,,,,,,,,,,,,,,,,,,,,,,,,,,,,128,001,2023-03-03_14h10.46.808,eb_01,2022.2.4,119.98786660603132,
,,,1,0,1,0,44,0,44,0,,,,,,,,,,,,,,,,,,,,,,,,,,,,,,,,,,,,,,,,,,,,,,,,,,,,,,,,,,,128,001,2023-03-03_14h10.46.808,eb_01,2022.2.4,119.98786660603132,
8,stimuli/8.png,l,1,0,1,0,45,0,45,0,0,0,0,0,,,,,,,,,,,,,,,,,,289.40029630158097,289.40029630158097,289.40029630158097,289.40029630158097,l,1,0.5094060451665428,289.9336949766148,289.9336949766148,289.9336949766148,,,,,,,,,,,,,,,,,,,,,,,,,,,,128,001,2023-03-03_14h10.46.808,eb_01,2022.2.4,119.98786660603132,
,,,1,0,1,0,45,0,45,0,,,,,,,,,,,,,,,,,,,,,,,,,,,,,,,,,,,,,,,,,,,,,,,,,,,,,,,,,,,128,001,2023-03-03_14h10.46.808,eb_01,2022.2.4,119.98786660603132,
9,stimuli/9.png,l,1,0,1,0,46,0,46,0,0,0,0,0,,,,,,,,,,,,,,,,,,290.95042593352264,290.95042593352264,290.95042593352264,290.95042593352264,l,1,0.5993653882178478,291.57550634033396,291.57550634033396,291.57550634033396,,,,,,,,,,,,,,,,,,,,,,,,,,,,128,001,2023-03-03_14h10.46.808,eb_01,2022.2.4,119.98786660603132,
,,,1,0,1,0,46,0,46,0,,,,,,,,,,,,,,,,,,,,,,,,,,,,,,,,,,,,,,,,,,,,,,,,,,,,,,,,,,,128,001,2023-03-03_14h10.46.808,eb_01,2022.2.4,119.98786660603132,
8,stimuli/8.png,l,1,0,1,0,47,0,47,0,0,0,0,0,,,,,,,,,,,,,,,,,,292.5756488162442,292.5756488162442,292.5756488162442,292.5756488162442,l,1,0.7342025265097618,293.33403716026805,293.33403716026805,293.33403716026805,,,,,,,,,,,,,,,,,,,,,,,,,,,,128,001,2023-03-03_14h10.46.808,eb_01,2022.2.4,119.98786660603132,
,,,1,0,1,0,47,0,47,0,,,,,,,,,,,,,,,,,,,,,,,,,,,,,,,,,,,,,,,,,,,,,,,,,,,,,,,,,,,128,001,2023-03-03_14h10.46.808,eb_01,2022.2.4,119.98786660603132,
9,stimuli/9.png,l,1,0,1,0,48,0,48,0,0,0,0,0,,,,,,,,,,,,,,,,,,294.35080615099287,294.35080615099287,294.35080615099287,294.35080615099287,l,1,0.45513027400011197,294.8342208394606,294.8342208394606,294.8342208394606,,,,,,,,,,,,,,,,,,,,,,,,,,,,128,001,2023-03-03_14h10.46.808,eb_01,2022.2.4,119.98786660603132,
,,,1,0,1,0,48,0,48,0,,,,,,,,,,,,,,,,,,,,,,,,,,,,,,,,,,,,,,,,,,,,,,,,,,,,,,,,,,,128,001,2023-03-03_14h10.46.808,eb_01,2022.2.4,119.98786660603132,
8,stimuli/8.png,l,1,0,1,0,49,0,49,0,0,0,0,0,,,,,,,,,,,,,,,,,,295.83431954629486,295.83431954629486,295.83431954629486,295.83431954629486,l,1,0.451666781475069,296.309342947643,296.309342947643,296.309342947643,,,,,,,,,,,,,,,,,,,,,,,,,,,,128,001,2023-03-03_14h10.46.808,eb_01,2022.2.4,119.98786660603132,
,,,1,0,1,0,49,0,49,0,,,,,,,,,,,,,,,,,,,,,,,,,,,,,,,,,,,,,,,,,,,,,,,,,,,,,,,,,,,128,001,2023-03-03_14h10.46.808,eb_01,2022.2.4,119.98786660603132,
3,stimuli/3.png,l,1,0,1,0,50,0,50,0,0,0,0,0,,,,,,,,,,,,,,,,,,297.31778887065593,297.31778887065593,297.31778887065593,297.31778887065593,l,1,0.5362660725659225,297.86786054627737,297.86786054627737,297.86786054627737,298.8846425168158,298.8846425168158,298.8846425168158,,,,,,,,,,,,,,,,,,,,,,,,,128,001,2023-03-03_14h10.46.808,eb_01,2022.2.4,119.98786660603132,
,,,1,0,1,0,50,0,50,0,,,,,,,,,,,,,,,,,,,,,,,,,,,,,,,,,,,,,,,,,,,,,,,,,,,,,,,,,,,128,001,2023-03-03_14h10.46.808,eb_01,2022.2.4,119.98786660603132,
4,stimuli/4.png,l,1,0,1,0,51,0,51,0,0,0,0,0,,,,,,,,,,,,,,,,,,298.8846425168158,298.8846425168158,298.8846425168158,298.8846425168158,l,1,0.6014910562080331,299.5097226217622,299.5097226217622,299.5097226217622,,,,,,,,,,,,,,,,,,,,,,,,,,,,128,001,2023-03-03_14h10.46.808,eb_01,2022.2.4,119.98786660603132,
,,,1,0,1,0,51,0,51,0,,,,,,,,,,,,,,,,,,,,,,,,,,,,,,,,,,,,,,,,,,,,,,,,,,,,,,,,,,,128,001,2023-03-03_14h10.46.808,eb_01,2022.2.4,119.98786660603132,
2,stimuli/2.png,s,1,0,1,0,52,0,52,0,0,0,0,0,,,,,,,,,,,,,,,,,,300.51815526312566,300.51815526312566,300.51815526312566,300.51815526312566,s,1,0.5040604822570458,301.0348736930173,301.0348736930173,301.0348736930173,302.059962732892,302.059962732892,302.059962732892,,,,,,,,,,,,,,,,,,,,,,,,,128,001,2023-03-03_14h10.46.808,eb_01,2022.2.4,119.98786660603132,
,,,1,0,1,0,52,0,52,0,,,,,,,,,,,,,,,,,,,,,,,,,,,,,,,,,,,,,,,,,,,,,,,,,,,,,,,,,,,128,001,2023-03-03_14h10.46.808,eb_01,2022.2.4,119.98786660603132,
1,stimuli/1.png,s,1,0,1,0,53,0,53,0,0,0,0,0,,,,,,,,,,,,,,,,,,302.059962732892,302.059962732892,302.059962732892,302.059962732892,s,1,0.6022740699409042,302.6933692260063,302.6933692260063,302.6933692260063,,,,,,,,,,,,,,,,,,,,,,,,,,,,128,001,2023-03-03_14h10.46.808,eb_01,2022.2.4,119.98786660603132,
,,,1,0,1,0,53,0,53,0,,,,,,,,,,,,,,,,,,,,,,,,,,,,,,,,,,,,,,,,,,,,,,,,,,,,,,,,,,,128,001,2023-03-03_14h10.46.808,eb_01,2022.2.4,119.98786660603132,
4,stimuli/4.png,l,1,0,1,0,54,0,54,0,0,0,0,0,,,,,,,,,,,,,,,,,,303.70183748632553,303.70183748632553,303.70183748632553,303.70183748632553,l,1,0.5754967510001734,304.30189012995106,304.30189012995106,304.30189012995106,,,,,,,,,,,,,,,,,,,,,,,,,,,,128,001,2023-03-03_14h10.46.808,eb_01,2022.2.4,119.98786660603132,
,,,1,0,1,0,54,0,54,0,,,,,,,,,,,,,,,,,,,,,,,,,,,,,,,,,,,,,,,,,,,,,,,,,,,,,,,,,,,128,001,2023-03-03_14h10.46.808,eb_01,2022.2.4,119.98786660603132,
3,stimuli/3.png,l,1,0,1,0,55,0,55,0,0,0,0,0,,,,,,,,,,,,,,,,,,305.31035839027027,305.31035839027027,305.31035839027027,305.31035839027027,l,1,0.4309812128194608,305.752047864662,305.752047864662,305.752047864662,306.7605007303355,306.7605007303355,306.7605007303355,,,,,,,,,,,,,,,,,,,,,,,,,128,001,2023-03-03_14h10.46.808,eb_01,2022.2.4,119.98786660603132,
,,,1,0,1,0,55,0,55,0,,,,,,,,,,,,,,,,,,,,,,,,,,,,,,,,,,,,,,,,,,,,,,,,,,,,,,,,,,,128,001,2023-03-03_14h10.46.808,eb_01,2022.2.4,119.98786660603132,
8,stimuli/8.png,l,1,0,1,0,56,0,56,0,0,0,0,0,,,,,,,,,,,,,,,,,,306.7605007303355,306.7605007303355,306.7605007303355,306.7605007303355,l,1,0.40493559214519337,307.1855223356688,307.1855223356688,307.1855223356688,,,,,,,,,,,,,,,,,,,,,,,,,,,,128,001,2023-03-03_14h10.46.808,eb_01,2022.2.4,119.98786660603132,
,,,1,0,1,0,56,0,56,0,,,,,,,,,,,,,,,,,,,,,,,,,,,,,,,,,,,,,,,,,,,,,,,,,,,,,,,,,,,128,001,2023-03-03_14h10.46.808,eb_01,2022.2.4,119.98786660603132,
9,stimuli/9.png,l,1,0,1,0,57,0,57,0,0,0,0,0,,,,,,,,,,,,,,,,,,308.20227381875156,308.20227381875156,308.20227381875156,308.20227381875156,l,1,0.42720379037200473,308.66070813540136,308.66070813540136,308.66070813540136,,,,,,,,,,,,,,,,,,,,,,,,,,,,128,001,2023-03-03_14h10.46.808,eb_01,2022.2.4,119.98786660603132,
,,,1,0,1,0,57,0,57,0,,,,,,,,,,,,,,,,,,,,,,,,,,,,,,,,,,,,,,,,,,,,,,,,,,,,,,,,,,,128,001,2023-03-03_14h10.46.808,eb_01,2022.2.4,119.98786660603132,
6,stimuli/6.png,s,1,0,1,0,58,0,58,0,0,0,0,0,,,,,,,,,,,,,,,,,,309.67746414634166,309.67746414634166,309.67746414634166,309.67746414634166,s,1,0.6002954056893941,310.3025285548065,310.3025285548065,310.3025285548065,,,,,,,,,,,,,,,,,,,,,,,,,,,,128,001,2023-03-03_14h10.46.808,eb_01,2022.2.4,119.98786660603132,
,,,1,0,1,0,58,0,58,0,,,,,,,,,,,,,,,,,,,,,,,,,,,,,,,,,,,,,,,,,,,,,,,,,,,,,,,,,,,128,001,2023-03-03_14h10.46.808,eb_01,2022.2.4,119.98786660603132,
5,stimuli/5.png,s,1,0,1,0,59,0,59,0,0,0,0,0,,,,,,,,,,,,,,,,,,311.3026746529795,311.3026746529795,311.3026746529795,311.3026746529795,s,1,0.5589396629948169,311.8859999619599,311.8859999619599,311.8859999619599,,,,,,,,,,,,,,,,,,,,,,,,,,,,128,001,2023-03-03_14h10.46.808,eb_01,2022.2.4,119.98786660603132,
,,,1,0,1,0,59,0,59,0,,,,,,,,,,,,,,,,,,,,,,,,,,,,,,,,,,,,,,,,,,,,,,,,,,,,,,,,,,,128,001,2023-03-03_14h10.46.808,eb_01,2022.2.4,119.98786660603132,
9,stimuli/9.png,l,1,0,1,0,60,0,60,0,0,0,0,0,,,,,,,,,,,,,,,,,,312.902782838064,312.902782838064,312.902782838064,312.902782838064,l,1,0.5028995451575611,313.43619871887495,313.43619871887495,313.43619871887495,,,,,,,,,,,,,,,,,,,,,,,,,,,,128,001,2023-03-03_14h10.46.808,eb_01,2022.2.4,119.98786660603132,
,,,1,0,1,0,60,0,60,0,,,,,,,,,,,,,,,,,,,,,,,,,,,,,,,,,,,,,,,,,,,,,,,,,,,,,,,,,,,128,001,2023-03-03_14h10.46.808,eb_01,2022.2.4,119.98786660603132,
8,stimuli/8.png,l,1,0,1,0,61,0,61,0,0,0,0,0,,,,,,,,,,,,,,,,,,314.4363227815775,314.4363227815775,314.4363227815775,314.4363227815775,l,1,0.44940648585907184,314.903028246772,314.903028246772,314.903028246772,,,,,,,,,,,,,,,,,,,,,,,,,,,,128,001,2023-03-03_14h10.46.808,eb_01,2022.2.4,119.98786660603132,
,,,1,0,1,0,61,0,61,0,,,,,,,,,,,,,,,,,,,,,,,,,,,,,,,,,,,,,,,,,,,,,,,,,,,,,,,,,,,128,001,2023-03-03_14h10.46.808,eb_01,2022.2.4,119.98786660603132,
9,stimuli/9.png,l,1,0,1,0,62,0,62,0,0,0,0,0,,,,,,,,,,,,,,,,,,315.9198014634603,315.9198014634603,315.9198014634603,315.9198014634603,l,1,0.47001447761431336,316.41986862636986,316.41986862636986,316.41986862636986,,,,,,,,,,,,,,,,,,,,,,,,,,,,128,001,2023-03-03_14h10.46.808,eb_01,2022.2.4,119.98786660603132,
,,,1,0,1,0,62,0,62,0,,,,,,,,,,,,,,,,,,,,,,,,,,,,,,,,,,,,,,,,,,,,,,,,,,,,,,,,,,,128,001,2023-03-03_14h10.46.808,eb_01,2022.2.4,119.98786660603132,
5,stimuli/5.png,s,1,0,1,0,63,0,63,0,0,0,0,0,,,,,,,,,,,,,,,,,,317.4199875575141,317.4199875575141,317.4199875575141,317.4199875575141,s,1,0.585880889557302,318.0283225183666,318.0283225183666,318.0283225183666,,,,,,,,,,,,,,,,,,,,,,,,,,,,128,001,2023-03-03_14h10.46.808,eb_01,2022.2.4,119.98786660603132,
,,,1,0,1,0,63,0,63,0,,,,,,,,,,,,,,,,,,,,,,,,,,,,,,,,,,,,,,,,,,,,,,,,,,,,,,,,,,,128,001,2023-03-03_14h10.46.808,eb_01,2022.2.4,119.98786660603132,
9,stimuli/9.png,l,1,0,1,0,64,0,64,0,0,0,0,0,,,,,,,,,,,,,,,,,,319.04513739113463,319.04513739113463,319.04513739113463,319.04513739113463,l,1,0.43983735772781074,319.5118175004609,319.5118175004609,319.5118175004609,,,,,,,,,,,,,,,,,,,,,,,,,,,,128,001,2023-03-03_14h10.46.808,eb_01,2022.2.4,119.98786660603132,
,,,1,0,1,0,64,0,64,0,,,,,,,,,,,,,,,,,,,,,,,,,,,,,,,,,,,,,,,,,,,,,,,,,,,,,,,,,,,128,001,2023-03-03_14h10.46.808,eb_01,2022.2.4,119.98786660603132,
8,stimuli/8.png,l,1,0,1,0,65,0,65,0,0,0,0,0,,,,,,,,,,,,,,,,,,320.51195242995163,320.51195242995163,320.51195242995163,320.51195242995163,l,1,0.48501097157713957,321.02034537727013,321.02034537727013,321.02034537727013,,,,,,,,,,,,,,,,,,,,,,,,,,,,128,001,2023-03-03_14h10.46.808,eb_01,2022.2.4,119.98786660603132,
,,,1,0,1,0,65,0,65,0,,,,,,,,,,,,,,,,,,,,,,,,,,,,,,,,,,,,,,,,,,,,,,,,,,,,,,,,,,,128,001,2023-03-03_14h10.46.808,eb_01,2022.2.4,119.98786660603132,
6,stimuli/6.png,s,1,0,1,0,66,0,66,0,0,0,0,0,,,,,,,,,,,,,,,,,,322.0454537359474,322.0454537359474,322.0454537359474,322.0454537359474,s,1,0.5036333563912194,322.57881679199636,322.57881679199636,322.57881679199636,,,,,,,,,,,,,,,,,,,,,,,,,,,,128,001,2023-03-03_14h10.46.808,eb_01,2022.2.4,119.98786660603132,
,,,1,0,1,0,66,0,66,0,,,,,,,,,,,,,,,,,,,,,,,,,,,,,,,,,,,,,,,,,,,,,,,,,,,,,,,,,,,128,001,2023-03-03_14h10.46.808,eb_01,2022.2.4,119.98786660603132,
5,stimuli/5.png,s,1,0,1,0,67,0,67,0,0,0,0,0,,,,,,,,,,,,,,,,,,323.578923045221,323.578923045221,323.578923045221,323.578923045221,s,1,0.4981954256363679,324.09568705532,324.09568705532,324.09568705532,,,,,,,,,,,,,,,,,,,,,,,,,,,,128,001,2023-03-03_14h10.46.808,eb_01,2022.2.4,119.98786660603132,
,,,1,0,1,0,67,0,67,0,,,,,,,,,,,,,,,,,,,,,,,,,,,,,,,,,,,,,,,,,,,,,,,,,,,,,,,,,,,128,001,2023-03-03_14h10.46.808,eb_01,2022.2.4,119.98786660603132,
9,stimuli/9.png,l,1,0,1,0,68,0,68,0,0,0,0,0,,,,,,,,,,,,,,,,,,325.11245182005223,325.11245182005223,325.11245182005223,325.11245182005223,l,1,0.3967100238369312,325.53746074743685,325.53746074743685,325.53746074743685,,,,,,,,,,,,,,,,,,,,,,,,,,,,128,001,2023-03-03_14h10.46.808,eb_01,2022.2.4,119.98786660603132,
,,,1,0,1,0,68,0,68,0,,,,,,,,,,,,,,,,,,,,,,,,,,,,,,,,,,,,,,,,,,,,,,,,,,,,,,,,,,,128,001,2023-03-03_14h10.46.808,eb_01,2022.2.4,119.98786660603132,
6,stimuli/6.png,s,1,0,1,0,69,0,69,0,0,0,0,0,,,,,,,,,,,,,,,,,,326.5542864870513,326.5542864870513,326.5542864870513,326.5542864870513,s,1,0.5069504489074461,327.08767489899765,327.08767489899765,327.08767489899765,,,,,,,,,,,,,,,,,,,,,,,,,,,,128,001,2023-03-03_14h10.46.808,eb_01,2022.2.4,119.98786660603132,
,,,1,0,1,0,69,0,69,0,,,,,,,,,,,,,,,,,,,,,,,,,,,,,,,,,,,,,,,,,,,,,,,,,,,,,,,,,,,128,001,2023-03-03_14h10.46.808,eb_01,2022.2.4,119.98786660603132,
9,stimuli/9.png,l,1,0,1,0,70,0,70,0,0,0,0,0,,,,,,,,,,,,,,,,,,328.0961051254999,328.0961051254999,328.0961051254999,328.0961051254999,l,1,0.46119787578936666,328.5878350334533,328.5878350334533,328.5878350334533,,,,,,,,,,,,,,,,,,,,,,,,,,,,128,001,2023-03-03_14h10.46.808,eb_01,2022.2.4,119.98786660603132,
,,,1,0,1,0,70,0,70,0,,,,,,,,,,,,,,,,,,,,,,,,,,,,,,,,,,,,,,,,,,,,,,,,,,,,,,,,,,,128,001,2023-03-03_14h10.46.808,eb_01,2022.2.4,119.98786660603132,
6,stimuli/6.png,s,1,0,1,0,71,0,71,0,0,0,0,0,,,,,,,,,,,,,,,,,,329.60456810332835,329.60456810332835,329.60456810332835,329.60456810332835,s,1,0.48879744971054606,330.12133754685055,330.12133754685055,330.12133754685055,,,,,,,,,,,,,,,,,,,,,,,,,,,,128,001,2023-03-03_14h10.46.808,eb_01,2022.2.4,119.98786660603132,
,,,1,0,1,0,71,0,71,0,,,,,,,,,,,,,,,,,,,,,,,,,,,,,,,,,,,,,,,,,,,,,,,,,,,,,,,,,,,128,001,2023-03-03_14h10.46.808,eb_01,2022.2.4,119.98786660603132,
9,stimuli/9.png,l,1,0,1,0,72,0,72,0,0,0,0,0,,,,,,,,,,,,,,,,,,331.12977562160813,331.12977562160813,331.12977562160813,331.12977562160813,l,1,0.4596729007025715,331.62149496460916,331.62149496460916,331.62149496460916,,,,,,,,,,,,,,,,,,,,,,,,,,,,128,001,2023-03-03_14h10.46.808,eb_01,2022.2.4,119.98786660603132,
,,,1,0,1,0,72,0,72,0,,,,,,,,,,,,,,,,,,,,,,,,,,,,,,,,,,,,,,,,,,,,,,,,,,,,,,,,,,,128,001,2023-03-03_14h10.46.808,eb_01,2022.2.4,119.98786660603132,
6,stimuli/6.png,s,1,0,1,0,73,0,73,0,0,0,0,0,,,,,,,,,,,,,,,,,,332.63825852191076,332.63825852191076,332.63825852191076,332.63825852191076,l,0,0.37524053585366346,333.04662855839706,333.04662855839706,333.04662855839706,,,,,,,,,,,,,,,,,,,,,,,,,,,,128,001,2023-03-03_14h10.46.808,eb_01,2022.2.4,119.98786660603132,
,,,1,0,1,0,73,0,73,0,,,,,,,,,,,,,,,,,,,,,,,,,,,,,,,,,,,,,,,,,,,,,,,,,,,,,,,,,,,128,001,2023-03-03_14h10.46.808,eb_01,2022.2.4,119.98786660603132,
9,stimuli/9.png,l,1,0,1,0,74,0,74,0,0,0,0,0,,,,,,,,,,,,,,,,,,334.0550898760266,334.0550898760266,334.0550898760266,334.0550898760266,l,1,0.8784768819459714,334.96352888655383,334.96352888655383,334.96352888655383,,,,,,,,,,,,,,,,,,,,,,,,,,,,128,001,2023-03-03_14h10.46.808,eb_01,2022.2.4,119.98786660603132,
,,,1,0,1,0,74,0,74,0,,,,,,,,,,,,,,,,,,,,,,,,,,,,,,,,,,,,,,,,,,,,,,,,,,,,,,,,,,,128,001,2023-03-03_14h10.46.808,eb_01,2022.2.4,119.98786660603132,
6,stimuli/6.png,s,1,0,1,0,75,0,75,0,0,0,0,0,,,,,,,,,,,,,,,,,,335.98029455685173,335.98029455685173,335.98029455685173,335.98029455685173,s,1,0.5283296820125543,336.5386690758751,336.5386690758751,336.5386690758751,,,,,,,,,,,,,,,,,,,,,,,,,,,,128,001,2023-03-03_14h10.46.808,eb_01,2022.2.4,119.98786660603132,
,,,1,0,1,0,75,0,75,0,,,,,,,,,,,,,,,,,,,,,,,,,,,,,,,,,,,,,,,,,,,,,,,,,,,,,,,,,,,128,001,2023-03-03_14h10.46.808,eb_01,2022.2.4,119.98786660603132,
8,stimuli/8.png,l,1,0,1,0,76,0,76,0,0,0,0,0,,,,,,,,,,,,,,,,,,337.5470977931109,337.5470977931109,337.5470977931109,337.5470977931109,l,1,0.513594595133327,338.08051850361517,338.08051850361517,338.08051850361517,,,,,,,,,,,,,,,,,,,,,,,,,,,,128,001,2023-03-03_14h10.46.808,eb_01,2022.2.4,119.98786660603132,
,,,1,0,1,0,76,0,76,0,,,,,,,,,,,,,,,,,,,,,,,,,,,,,,,,,,,,,,,,,,,,,,,,,,,,,,,,,,,128,001,2023-03-03_14h10.46.808,eb_01,2022.2.4,119.98786660603132,
9,stimuli/9.png,l,1,0,1,0,77,0,77,0,0,0,0,0,,,,,,,,,,,,,,,,,,339.09728296651156,339.09728296651156,339.09728296651156,339.09728296651156,l,1,0.5634687061829027,339.689024616644,339.689024616644,339.689024616644,,,,,,,,,,,,,,,,,,,,,,,,,,,,128,001,2023-03-03_14h10.46.808,eb_01,2022.2.4,119.98786660603132,
,,,1,0,1,0,77,0,77,0,,,,,,,,,,,,,,,,,,,,,,,,,,,,,,,,,,,,,,,,,,,,,,,,,,,,,,,,,,,128,001,2023-03-03_14h10.46.808,eb_01,2022.2.4,119.98786660603132,
6,stimuli/6.png,s,1,0,1,0,78,0,78,0,0,0,0,0,,,,,,,,,,,,,,,,,,340.7057504419936,340.7057504419936,340.7057504419936,340.7057504419936,s,1,0.6350954459048808,341.37254036642844,341.37254036642844,341.37254036642844,,,,,,,,,,,,,,,,,,,,,,,,,,,,128,001,2023-03-03_14h10.46.808,eb_01,2022.2.4,119.98786660603132,
,,,1,0,1,0,78,0,78,0,,,,,,,,,,,,,,,,,,,,,,,,,,,,,,,,,,,,,,,,,,,,,,,,,,,,,,,,,,,128,001,2023-03-03_14h10.46.808,eb_01,2022.2.4,119.98786660603132,
9,stimuli/9.png,l,1,0,1,0,79,0,79,0,0,0,0,0,,,,,,,,,,,,,,,,,,342.38094463333255,342.38094463333255,342.38094463333255,342.38094463333255,l,1,0.4559842238377314,342.86435358654126,342.86435358654126,342.86435358654126,,,,,,,,,,,,,,,,,,,,,,,,,,,,128,001,2023-03-03_14h10.46.808,eb_01,2022.2.4,119.98786660603132,
,,,1,0,1,0,79,0,79,0,,,,,,,,,,,,,,,,,,,,,,,,,,,,,,,,,,,,,,,,,,,,,,,,,,,,,,,,,,,128,001,2023-03-03_14h10.46.808,eb_01,2022.2.4,119.98786660603132,
6,stimuli/6.png,s,1,0,1,0,80,0,80,0,0,0,0,0,,,,,,,,,,,,,,,,,,343.88112438839744,343.88112438839744,343.88112438839744,343.88112438839744,s,1,0.6038277213228866,344.5145441631612,344.5145441631612,344.5145441631612,,,,,,,,,,,,,,,,,,,,,,,,,,,,128,001,2023-03-03_14h10.46.808,eb_01,2022.2.4,119.98786660603132,
,,,1,0,1,0,80,0,80,0,,,,,,,,,,,,,,,,,,,,,,,,,,,,,,,,,,,,,,,,,,,,,,,,,,,,,,,,,,,128,001,2023-03-03_14h10.46.808,eb_01,2022.2.4,119.98786660603132,
8,stimuli/8.png,l,1,0,1,0,81,0,81,0,0,0,0,0,,,,,,,,,,,,,,,,,,345.5229762007948,345.5229762007948,345.5229762007948,345.5229762007948,l,1,0.39406576775945723,345.93969013303285,345.93969013303285,345.93969013303285,,,,,,,,,,,,,,,,,,,,,,,,,,,,128,001,2023-03-03_14h10.46.808,eb_01,2022.2.4,119.98786660603132,
,,,1,0,1,0,81,0,81,0,,,,,,,,,,,,,,,,,,,,,,,,,,,,,,,,,,,,,,,,,,,,,,,,,,,,,,,,,,,128,001,2023-03-03_14h10.46.808,eb_01,2022.2.4,119.98786660603132,
6,stimuli/6.png,s,1,0,1,0,82,0,82,0,0,0,0,0,,,,,,,,,,,,,,,,,,346.96478611559724,346.96478611559724,346.96478611559724,346.96478611559724,s,1,0.520286434533773,347.5148635265068,347.5148635265068,347.5148635265068,,,,,,,,,,,,,,,,,,,,,,,,,,,,128,001,2023-03-03_14h10.46.808,eb_01,2022.2.4,119.98786660603132,
,,,1,0,1,0,82,0,82,0,,,,,,,,,,,,,,,,,,,,,,,,,,,,,,,,,,,,,,,,,,,,,,,,,,,,,,,,,,,128,001,2023-03-03_14h10.46.808,eb_01,2022.2.4,119.98786660603132,
9,stimuli/9.png,l,1,0,1,0,83,0,83,0,0,0,0,0,,,,,,,,,,,,,,,,,,348.52328318805667,348.52328318805667,348.52328318805667,348.52328318805667,l,1,0.43390830772113986,348.990015518415,348.990015518415,348.990015518415,,,,,,,,,,,,,,,,,,,,,,,,,,,,128,001,2023-03-03_14h10.46.808,eb_01,2022.2.4,119.98786660603132,
,,,1,0,1,0,83,0,83,0,,,,,,,,,,,,,,,,,,,,,,,,,,,,,,,,,,,,,,,,,,,,,,,,,,,,,,,,,,,128,001,2023-03-03_14h10.46.808,eb_01,2022.2.4,119.98786660603132,
5,stimuli/5.png,s,1,0,1,0,84,0,84,0,0,0,0,0,,,,,,,,,,,,,,,,,,349.9901317328622,349.9901317328622,349.9901317328622,349.9901317328622,s,1,0.591073109768331,350.5985131794878,350.5985131794878,350.5985131794878,,,,,,,,,,,,,,,,,,,,,,,,,,,,128,001,2023-03-03_14h10.46.808,eb_01,2022.2.4,119.98786660603132,
,,,1,0,1,0,84,0,84,0,,,,,,,,,,,,,,,,,,,,,,,,,,,,,,,,,,,,,,,,,,,,,,,,,,,,,,,,,,,128,001,2023-03-03_14h10.46.808,eb_01,2022.2.4,119.98786660603132,
9,stimuli/9.png,l,1,0,1,0,85,0,85,0,0,0,0,0,,,,,,,,,,,,,,,,,,351.61531597803696,351.61531597803696,351.61531597803696,351.61531597803696,l,1,0.7889772651542444,352.43205695654615,352.43205695654615,352.43205695654615,,,,,,,,,,,,,,,,,,,,,,,,,,,,128,001,2023-03-03_14h10.46.808,eb_01,2022.2.4,119.98786660603132,
,,,1,0,1,0,85,0,85,0,,,,,,,,,,,,,,,,,,,,,,,,,,,,,,,,,,,,,,,,,,,,,,,,,,,,,,,,,,,128,001,2023-03-03_14h10.46.808,eb_01,2022.2.4,119.98786660603132,
5,stimuli/5.png,s,1,0,1,0,86,0,86,0,0,0,0,0,,,,,,,,,,,,,,,,,,353.43215173925273,353.43215173925273,353.43215173925273,353.43215173925273,s,1,0.5482123144611251,353.9988804171444,353.9988804171444,353.9988804171444,,,,,,,,,,,,,,,,,,,,,,,,,,,,128,001,2023-03-03_14h10.46.808,eb_01,2022.2.4,119.98786660603132,
,,,1,0,1,0,86,0,86,0,,,,,,,,,,,,,,,,,,,,,,,,,,,,,,,,,,,,,,,,,,,,,,,,,,,,,,,,,,,128,001,2023-03-03_14h10.46.808,eb_01,2022.2.4,119.98786660603132,
9,stimuli/9.png,l,1,0,1,0,87,0,87,0,0,0,0,0,,,,,,,,,,,,,,,,,,355.01567868786515,355.01567868786515,355.01567868786515,355.01567868786515,l,1,0.5647283500875346,355.607413697202,355.607413697202,355.607413697202,,,,,,,,,,,,,,,,,,,,,,,,,,,,128,001,2023-03-03_14h10.46.808,eb_01,2022.2.4,119.98786660603132,
,,,1,0,1,0,87,0,87,0,,,,,,,,,,,,,,,,,,,,,,,,,,,,,,,,,,,,,,,,,,,,,,,,,,,,,,,,,,,128,001,2023-03-03_14h10.46.808,eb_01,2022.2.4,119.98786660603132,
8,stimuli/8.png,l,1,0,1,0,88,0,88,0,0,0,0,0,,,,,,,,,,,,,,,,,,356.6075320246455,356.6075320246455,356.6075320246455,356.6075320246455,l,1,0.9009590958594345,357.5326268299832,357.5326268299832,357.5326268299832,,,,,,,,,,,,,,,,,,,,,,,,,,,,128,001,2023-03-03_14h10.46.808,eb_01,2022.2.4,119.98786660603132,
,,,1,0,1,0,88,0,88,0,,,,,,,,,,,,,,,,,,,,,,,,,,,,,,,,,,,,,,,,,,,,,,,,,,,,,,,,,,,128,001,2023-03-03_14h10.46.808,eb_01,2022.2.4,119.98786660603132,
3,stimuli/3.png,l,1,0,1,0,89,0,89,0,0,0,0,0,,,,,,,,,,,,,,,,,,358.5410467933689,358.5410467933689,358.5410467933689,358.5410467933689,l,1,0.5754789415223058,359.13276489876444,359.13276489876444,359.13276489876444,360.14121625517146,360.14121625517146,360.14121625517146,,,,,,,,,,,,,,,,,,,,,,,,,128,001,2023-03-03_14h10.46.808,eb_01,2022.2.4,119.98786660603132,
,,,1,0,1,0,89,0,89,0,,,,,,,,,,,,,,,,,,,,,,,,,,,,,,,,,,,,,,,,,,,,,,,,,,,,,,,,,,,128,001,2023-03-03_14h10.46.808,eb_01,2022.2.4,119.98786660603132,
2,stimuli/2.png,s,1,0,1,0,90,0,90,0,0,0,0,0,,,,,,,,,,,,,,,,,,360.14121625517146,360.14121625517146,360.14121625517146,360.14121625517146,s,1,0.5754584153182805,360.73291443809285,360.73291443809285,360.73291443809285,361.74137817058363,361.74137817058363,361.74137817058363,,,,,,,,,,,,,,,,,,,,,,,,,128,001,2023-03-03_14h10.46.808,eb_01,2022.2.4,119.98786660603132,
,,,1,0,1,0,90,0,90,0,,,,,,,,,,,,,,,,,,,,,,,,,,,,,,,,,,,,,,,,,,,,,,,,,,,,,,,,,,,128,001,2023-03-03_14h10.46.808,eb_01,2022.2.4,119.98786660603132,
3,stimuli/3.png,l,1,0,1,0,91,0,91,0,0,0,0,0,,,,,,,,,,,,,,,,,,361.74137817058363,361.74137817058363,361.74137817058363,361.74137817058363,l,1,0.44735658369609155,362.20805978917633,362.20805978917633,362.20805978917633,,,,,,,,,,,,,,,,,,,,,,,,,,,,128,001,2023-03-03_14h10.46.808,eb_01,2022.2.4,119.98786660603132,
,,,1,0,1,0,91,0,91,0,,,,,,,,,,,,,,,,,,,,,,,,,,,,,,,,,,,,,,,,,,,,,,,,,,,,,,,,,,,128,001,2023-03-03_14h10.46.808,eb_01,2022.2.4,119.98786660603132,
2,stimuli/2.png,s,1,0,1,0,92,0,92,0,0,0,0,0,,,,,,,,,,,,,,,,,,363.2165060140251,363.2165060140251,363.2165060140251,363.2165060140251,s,1,0.6922479020431638,363.92497466676286,363.92497466676286,363.92497466676286,364.95006642336375,364.95006642336375,364.95006642336375,,,,,,,,,,,,,,,,,,,,,,,,,128,001,2023-03-03_14h10.46.808,eb_01,2022.2.4,119.98786660603132,
,,,1,0,1,0,92,0,92,0,,,,,,,,,,,,,,,,,,,,,,,,,,,,,,,,,,,,,,,,,,,,,,,,,,,,,,,,,,,128,001,2023-03-03_14h10.46.808,eb_01,2022.2.4,119.98786660603132,
1,stimuli/1.png,s,1,0,1,0,93,0,93,0,0,0,0,0,,,,,,,,,,,,,,,,,,364.95006642336375,364.95006642336375,364.95006642336375,364.95006642336375,l,0,0.6227579989645164,365.60009641273064,365.60009641273064,365.60009641273064,,,,,,,,,,,,,,,,,,,,,,,,,,,,128,001,2023-03-03_14h10.46.808,eb_01,2022.2.4,119.98786660603132,
,,,1,0,1,0,93,0,93,0,,,,,,,,,,,,,,,,,,,,,,,,,,,,,,,,,,,,,,,,,,,,,,,,,,,,,,,,,,,128,001,2023-03-03_14h10.46.808,eb_01,2022.2.4,119.98786660603132,
2,stimuli/2.png,s,1,0,1,0,94,0,94,0,0,0,0,0,,,,,,,,,,,,,,,,,,366.600244322035,366.600244322035,366.600244322035,366.600244322035,s,1,0.7156435313518159,367.3336163733911,367.3336163733911,367.3336163733911,,,,,,,,,,,,,,,,,,,,,,,,,,,,128,001,2023-03-03_14h10.46.808,eb_01,2022.2.4,119.98786660603132,
,,,1,0,1,0,94,0,94,0,,,,,,,,,,,,,,,,,,,,,,,,,,,,,,,,,,,,,,,,,,,,,,,,,,,,,,,,,,,128,001,2023-03-03_14h10.46.808,eb_01,2022.2.4,119.98786660603132,
1,stimuli/1.png,s,1,0,1,0,95,0,95,0,0,0,0,0,,,,,,,,,,,,,,,,,,368.35873197659384,368.35873197659384,368.35873197659384,368.35873197659384,s,1,0.8692455303680617,369.2588560694712,369.2588560694712,369.2588560694712,,,,,,,,,,,,,,,,,,,,,,,,,,,,128,001,2023-03-03_14h10.46.808,eb_01,2022.2.4,119.98786660603132,
,,,1,0,1,0,95,0,95,0,,,,,,,,,,,,,,,,,,,,,,,,,,,,,,,,,,,,,,,,,,,,,,,,,,,,,,,,,,,128,001,2023-03-03_14h10.46.808,eb_01,2022.2.4,119.98786660603132,
2,stimuli/2.png,s,1,0,1,0,96,0,96,0,0,0,0,0,,,,,,,,,,,,,,,,,,370.2589562855719,370.2589562855719,370.2589562855719,370.2589562855719,s,1,0.7050879387243185,370.97571238703676,370.97571238703676,370.97571238703676,371.9924871130206,371.9924871130206,371.9924871130206,,,,,,,,,,,,,,,,,,,,,,,,,128,001,2023-03-03_14h10.46.808,eb_01,2022.2.4,119.98786660603132,
,,,1,0,1,0,96,0,96,0,,,,,,,,,,,,,,,,,,,,,,,,,,,,,,,,,,,,,,,,,,,,,,,,,,,,,,,,,,,128,001,2023-03-03_14h10.46.808,eb_01,2022.2.4,119.98786660603132,
4,stimuli/4.png,l,1,0,1,0,97,0,97,0,0,0,0,0,,,,,,,,,,,,,,,,,,371.9924871130206,371.9924871130206,371.9924871130206,371.9924871130206,l,1,0.6996219353750348,372.70922178277397,372.70922178277397,372.70922178277397,,,,,,,,,,,,,,,,,,,,,,,,,,,,128,001,2023-03-03_14h10.46.808,eb_01,2022.2.4,119.98786660603132,
,,,1,0,1,0,97,0,97,0,,,,,,,,,,,,,,,,,,,,,,,,,,,,,,,,,,,,,,,,,,,,,,,,,,,,,,,,,,,128,001,2023-03-03_14h10.46.808,eb_01,2022.2.4,119.98786660603132,
2,stimuli/2.png,s,1,0,1,0,98,0,98,0,0,0,0,0,,,,,,,,,,,,,,,,,,373.7176414443238,373.7176414443238,373.7176414443238,373.7176414443238,s,1,0.5505646760866512,374.2844024207734,374.2844024207734,374.2844024207734,375.30118258015136,375.30118258015136,375.30118258015136,,,,,,,,,,,,,,,,,,,,,,,,,128,001,2023-03-03_14h10.46.808,eb_01,2022.2.4,119.98786660603132,
,,,1,0,1,0,98,0,98,0,,,,,,,,,,,,,,,,,,,,,,,,,,,,,,,,,,,,,,,,,,,,,,,,,,,,,,,,,,,128,001,2023-03-03_14h10.46.808,eb_01,2022.2.4,119.98786660603132,
4,stimuli/4.png,l,1,0,1,0,99,0,99,0,0,0,0,0,,,,,,,,,,,,,,,,,,375.30118258015136,375.30118258015136,375.30118258015136,375.30118258015136,l,1,0.5752124029386323,375.8928940447222,375.8928940447222,375.8928940447222,,,,,,,,,,,,,,,,,,,,,,,,,,,,128,001,2023-03-03_14h10.46.808,eb_01,2022.2.4,119.98786660603132,
,,,1,0,1,0,99,0,99,0,,,,,,,,,,,,,,,,,,,,,,,,,,,,,,,,,,,,,,,,,,,,,,,,,,,,,,,,,,,128,001,2023-03-03_14h10.46.808,eb_01,2022.2.4,119.98786660603132,
,,,1,0,1,0,,,,,,,,,,,,,,,,,,,,,,,,,,,,,,,,,,,,,,,376.8930060332059,376.8930060332059,return,13.246850733878091,,,,,,,,,,,,,,,,,,,,,128,001,2023-03-03_14h10.46.808,eb_01,2022.2.4,119.98786660603132,
1,stimuli/1.png,s,2,0,2,0,0,0,0,0,0,0,0,0,,,,,,,,,,,,,,,,,,390.1777818494884,390.1777818494884,390.1777818494884,390.1777818494884,s,1,1.1460918987868354,391.3528992185311,391.3528992185311,391.3528992185311,,,,,,,,,,,,,,,,,,,,,,,,,,,,128,001,2023-03-03_14h10.46.808,eb_01,2022.2.4,119.98786660603132,
,,,2,0,2,0,0,0,0,0,,,,,,,,,,,,,,,,,,,,,,,,,,,,,,,,,,,,,,,,,,,,,,,,,,,,,,,,,,,128,001,2023-03-03_14h10.46.808,eb_01,2022.2.4,119.98786660603132,
4,stimuli/4.png,l,2,0,2,0,1,0,1,0,0,0,0,0,,,,,,,,,,,,,,,,,,392.36133940628497,392.36133940628497,392.36133940628497,392.36133940628497,l,1,0.5946036142704543,392.97807380434824,392.97807380434824,392.97807380434824,,,,,,,,,,,,,,,,,,,,,,,,,,,,128,001,2023-03-03_14h10.46.808,eb_01,2022.2.4,119.98786660603132,
,,,2,0,2,0,1,0,1,0,,,,,,,,,,,,,,,,,,,,,,,,,,,,,,,,,,,,,,,,,,,,,,,,,,,,,,,,,,,128,001,2023-03-03_14h10.46.808,eb_01,2022.2.4,119.98786660603132,
3,stimuli/3.png,l,2,0,2,0,2,0,2,0,0,0,0,0,,,,,,,,,,,,,,,,,,393.9865145958029,393.9865145958029,393.9865145958029,393.9865145958029,l,1,0.6175011816376355,394.61989422372426,394.61989422372426,394.61989422372426,395.6283437689999,395.6283437689999,395.6283437689999,,,,,,,,,,,,,,,,,,,,,,,,,128,001,2023-03-03_14h10.46.808,eb_01,2022.2.4,119.98786660603132,
,,,2,0,2,0,2,0,2,0,,,,,,,,,,,,,,,,,,,,,,,,,,,,,,,,,,,,,,,,,,,,,,,,,,,,,,,,,,,128,001,2023-03-03_14h10.46.808,eb_01,2022.2.4,119.98786660603132,
2,stimuli/2.png,s,2,0,2,0,3,0,3,0,0,0,0,0,,,,,,,,,,,,,,,,,,395.6283437689999,395.6283437689999,395.6283437689999,395.6283437689999,s,1,0.671757634030655,396.3117526618589,396.3117526618589,396.3117526618589,397.33684079616796,397.33684079616796,397.33684079616796,,,,,,,,,,,,,,,,,,,,,,,,,128,001,2023-03-03_14h10.46.808,eb_01,2022.2.4,119.98786660603132,
,,,2,0,2,0,3,0,3,0,,,,,,,,,,,,,,,,,,,,,,,,,,,,,,,,,,,,,,,,,,,,,,,,,,,,,,,,,,,128,001,2023-03-03_14h10.46.808,eb_01,2022.2.4,119.98786660603132,
1,stimuli/1.png,s,2,0,2,0,4,0,4,0,0,0,0,0,,,,,,,,,,,,,,,,,,397.33684079616796,397.33684079616796,397.33684079616796,397.33684079616796,s,1,0.9303100366378203,398.2953271829174,398.2953271829174,398.2953271829174,,,,,,,,,,,,,,,,,,,,,,,,,,,,128,001,2023-03-03_14h10.46.808,eb_01,2022.2.4,119.98786660603132,
,,,2,0,2,0,4,0,4,0,,,,,,,,,,,,,,,,,,,,,,,,,,,,,,,,,,,,,,,,,,,,,,,,,,,,,,,,,,,128,001,2023-03-03_14h10.46.808,eb_01,2022.2.4,119.98786660603132,
4,stimuli/4.png,l,2,0,2,0,5,0,5,0,0,0,0,0,,,,,,,,,,,,,,,,,,399.30370398098603,399.30370398098603,399.30370398098603,399.30370398098603,l,1,0.5315302581875585,399.85376146939234,399.85376146939234,399.85376146939234,,,,,,,,,,,,,,,,,,,,,,,,,,,,128,001,2023-03-03_14h10.46.808,eb_01,2022.2.4,119.98786660603132,
,,,2,0,2,0,5,0,5,0,,,,,,,,,,,,,,,,,,,,,,,,,,,,,,,,,,,,,,,,,,,,,,,,,,,,,,,,,,,128,001,2023-03-03_14h10.46.808,eb_01,2022.2.4,119.98786660603132,
2,stimuli/2.png,s,2,0,2,0,6,0,6,0,0,0,0,0,,,,,,,,,,,,,,,,,,400.8622025627119,400.8622025627119,400.8622025627119,400.8622025627119,s,1,0.5010727143671829,401.3789738173364,401.3789738173364,401.3789738173364,402.3874218533456,402.3874218533456,402.3874218533456,,,,,,,,,,,,,,,,,,,,,,,,,128,001,2023-03-03_14h10.46.808,eb_01,2022.2.4,119.98786660603132,
,,,2,0,2,0,6,0,6,0,,,,,,,,,,,,,,,,,,,,,,,,,,,,,,,,,,,,,,,,,,,,,,,,,,,,,,,,,,,128,001,2023-03-03_14h10.46.808,eb_01,2022.2.4,119.98786660603132,
3,stimuli/3.png,l,2,0,2,0,7,0,7,0,0,0,0,0,,,,,,,,,,,,,,,,,,402.3874218533456,402.3874218533456,402.3874218533456,402.3874218533456,l,1,0.5039478900725953,402.90409259003354,402.90409259003354,402.90409259003354,403.9125871117867,403.9125871117867,403.9125871117867,,,,,,,,,,,,,,,,,,,,,,,,,128,001,2023-03-03_14h10.46.808,eb_01,2022.2.4,119.98786660603132,
,,,2,0,2,0,7,0,7,0,,,,,,,,,,,,,,,,,,,,,,,,,,,,,,,,,,,,,,,,,,,,,,,,,,,,,,,,,,,128,001,2023-03-03_14h10.46.808,eb_01,2022.2.4,119.98786660603132,
8,stimuli/8.png,l,2,0,2,0,8,0,8,0,0,0,0,0,,,,,,,,,,,,,,,,,,403.9125871117867,403.9125871117867,403.9125871117867,403.9125871117867,l,1,0.46689660992706195,404.4042771747918,404.4042771747918,404.4042771747918,,,,,,,,,,,,,,,,,,,,,,,,,,,,128,001,2023-03-03_14h10.46.808,eb_01,2022.2.4,119.98786660603132,
,,,2,0,2,0,8,0,8,0,,,,,,,,,,,,,,,,,,,,,,,,,,,,,,,,,,,,,,,,,,,,,,,,,,,,,,,,,,,128,001,2023-03-03_14h10.46.808,eb_01,2022.2.4,119.98786660603132,
9,stimuli/9.png,l,2,0,2,0,9,0,9,0,0,0,0,0,,,,,,,,,,,,,,,,,,405.4210730306804,405.4210730306804,405.4210730306804,405.4210730306804,l,1,0.5904156680335291,406.0377573206788,406.0377573206788,406.0377573206788,,,,,,,,,,,,,,,,,,,,,,,,,,,,128,001,2023-03-03_14h10.46.808,eb_01,2022.2.4,119.98786660603132,
,,,2,0,2,0,9,0,9,0,,,,,,,,,,,,,,,,,,,,,,,,,,,,,,,,,,,,,,,,,,,,,,,,,,,,,,,,,,,128,001,2023-03-03_14h10.46.808,eb_01,2022.2.4,119.98786660603132,
