index,stimulus,correct_answer,block.thisRepN,block.thisTrialN,block.thisN,block.thisIndex,trial.thisRepN,trial.thisTrialN,trial.thisN,trial.thisIndex,display_row.thisRepN,display_row.thisTrialN,display_row.thisN,display_row.thisIndex,pair_questions.thisRepN,pair_questions.thisTrialN,pair_questions.thisN,pair_questions.thisIndex,welcome_text.started,instructions_0_keypress.started,instructions_0_keypress.keys,instructions_0_keypress.rt,instructions_1_keypress.started,instructions_1_text.started,instructions_1_keypress.keys,instructions_1_keypress.rt,instructions_2_keypress.started,instructions_2_text.started,instructions_2_keypress.keys,instructions_2_keypress.rt,text_countdown.started,image.started,size_question.started,size_resp.started,keypress_options.started,size_resp.keys,size_resp.corr,size_resp.rt,fb_image.started,fb.started,fb_size_question.started,fb_image.stopped,fb.stopped,fb_size_question.stopped,block_break_text.started,block_break_keypress.started,block_break_keypress.keys,block_break_keypress.rt,seq_reveal.started,seq_reveal_adv.started,seq_reveal_adv.keys,seq_reveal_adv.rt,instruction_2afc_text.started,instruction_2afc_keypress.started,instruction_2afc_keypress.keys,instruction_2afc_keypress.rt,dist_2afc_test.started,dist_2afc_resp.started,text.started,stim_00.started,stim_01.started,stim_10.started,stim_11.started,dist_2afc_resp.keys,dist_2afc_resp.rt,graph.started,debrief_text.started,debriefing_title.started,participant,session,date,expName,psychopyVersion,frameRate,
,,,,,,,,,,,,,,,,,,,16.023101714497898,16.023101714497898,return,6.987490013794741,,,,,,,,,,,,,,,,,,,,,,,,,,,,,,,,,,,,,,,,,,,,,,,129,001,2023-03-03_14h11.17.573,eb_01,2022.2.4,99.91678804300675,
,,,,,,,,,,,,,,,,,,,,,,,23.028073535009753,23.028073535009753,return,14.565959262981778,,,,,,,,,,,,,,,,,,,,,,,,,,,,,,,,,,,,,,,,,,,129,001,2023-03-03_14h11.17.573,eb_01,2022.2.4,99.91678804300675,
,,,,,,,,,,,,,,,,,,,,,,,,,,,37.60782565939007,37.60782565939007,space,13.641641654481646,,,,,,,,,,,,,,,,,,,,,,,,,,,,,,,,,,,,,,,129,001,2023-03-03_14h11.17.573,eb_01,2022.2.4,99.91678804300675,
5,stimuli/5.png,s,0,0,0,0,0,0,0,0,0,0,0,0,,,,,,,,,,,,,,,,,51.2770122953807,56.290359932521824,56.290359932521824,56.290359932521824,56.290359932521824,s,1,0.8873059136676602,57.20097975441604,57.20097975441604,57.20097975441604,,,,,,,,,,,,,,,,,,,,,,,,,,,,129,001,2023-03-03_14h11.17.573,eb_01,2022.2.4,99.91678804300675,
,,,0,0,0,0,0,0,0,0,,,,,,,,,,,,,,,,,,,,,,,,,,,,,,,,,,,,,,,,,,,,,,,,,,,,,,,,,,,129,001,2023-03-03_14h11.17.573,eb_01,2022.2.4,99.91678804300675,
6,stimuli/6.png,s,0,0,0,0,1,0,1,0,0,0,0,0,,,,,,,,,,,,,,,,,,58.22169411365758,58.22169411365758,58.22169411365758,58.22169411365758,s,1,0.5960374036803842,58.85210622448358,58.85210622448358,58.85210622448358,,,,,,,,,,,,,,,,,,,,,,,,,,,,129,001,2023-03-03_14h11.17.573,eb_01,2022.2.4,99.91678804300675,
,,,0,0,0,0,1,0,1,0,,,,,,,,,,,,,,,,,,,,,,,,,,,,,,,,,,,,,,,,,,,,,,,,,,,,,,,,,,,129,001,2023-03-03_14h11.17.573,eb_01,2022.2.4,99.91678804300675,
9,stimuli/9.png,l,0,0,0,0,2,0,2,0,0,0,0,0,,,,,,,,,,,,,,,,,,59.892834644037066,59.892834644037066,59.892834644037066,59.892834644037066,s,0,0.6849165058229119,60.613237279700115,60.613237279700115,60.613237279700115,,,,,,,,,,,,,,,,,,,,,,,,,,,,129,001,2023-03-03_14h11.17.573,eb_01,2022.2.4,99.91678804300675,
,,,0,0,0,0,2,0,2,0,,,,,,,,,,,,,,,,,,,,,,,,,,,,,,,,,,,,,,,,,,,,,,,,,,,,,,,,,,,129,001,2023-03-03_14h11.17.573,eb_01,2022.2.4,99.91678804300675,
5,stimuli/5.png,s,0,0,0,0,3,0,3,0,0,0,0,0,,,,,,,,,,,,,,,,,,61.613918260030914,61.613918260030914,61.613918260030914,61.613918260030914,s,1,1.3789797518693376,63.01486837249831,63.01486837249831,63.01486837249831,,,,,,,,,,,,,,,,,,,,,,,,,,,,129,001,2023-03-03_14h11.17.573,eb_01,2022.2.4,99.91678804300675,
,,,0,0,0,0,3,0,3,0,,,,,,,,,,,,,,,,,,,,,,,,,,,,,,,,,,,,,,,,,,,,,,,,,,,,,,,,,,,129,001,2023-03-03_14h11.17.573,eb_01,2022.2.4,99.91678804300675,
9,stimuli/9.png,l,0,0,0,0,4,0,4,0,0,0,0,0,,,,,,,,,,,,,,,,,,64.03555224457523,64.03555224457523,64.03555224457523,64.03555224457523,l,1,0.7333557598467451,64.79574332959601,64.79574332959601,64.79574332959601,,,,,,,,,,,,,,,,,,,,,,,,,,,,129,001,2023-03-03_14h11.17.573,eb_01,2022.2.4,99.91678804300675,
,,,0,0,0,0,4,0,4,0,,,,,,,,,,,,,,,,,,,,,,,,,,,,,,,,,,,,,,,,,,,,,,,,,,,,,,,,,,,129,001,2023-03-03_14h11.17.573,eb_01,2022.2.4,99.91678804300675,
6,stimuli/6.png,s,0,0,0,0,5,0,5,0,0,0,0,0,,,,,,,,,,,,,,,,,,65.81675169363734,65.81675169363734,65.81675169363734,65.81675169363734,s,1,0.5682400641380809,66.4171599195979,66.4171599195979,66.4171599195979,,,,,,,,,,,,,,,,,,,,,,,,,,,,129,001,2023-03-03_14h11.17.573,eb_01,2022.2.4,99.91678804300675,
,,,0,0,0,0,5,0,5,0,,,,,,,,,,,,,,,,,,,,,,,,,,,,,,,,,,,,,,,,,,,,,,,,,,,,,,,,,,,129,001,2023-03-03_14h11.17.573,eb_01,2022.2.4,99.91678804300675,
8,stimuli/8.png,l,0,0,0,0,6,0,6,0,0,0,0,0,,,,,,,,,,,,,,,,,,67.43785254543764,67.43785254543764,67.43785254543764,67.43785254543764,l,1,0.8191616967669688,68.278415308072,68.278415308072,68.278415308072,,,,,,,,,,,,,,,,,,,,,,,,,,,,129,001,2023-03-03_14h11.17.573,eb_01,2022.2.4,99.91678804300675,
,,,0,0,0,0,6,0,6,0,,,,,,,,,,,,,,,,,,,,,,,,,,,,,,,,,,,,,,,,,,,,,,,,,,,,,,,,,,,129,001,2023-03-03_14h11.17.573,eb_01,2022.2.4,99.91678804300675,
3,stimuli/3.png,l,0,0,0,0,7,0,7,0,0,0,0,0,,,,,,,,,,,,,,,,,,69.30910590843996,69.30910590843996,69.30910590843996,69.30910590843996,l,1,0.7399901866156142,70.05927909660386,70.05927909660386,70.05927909660386,71.0702532637224,71.0702532637224,71.0702532637224,,,,,,,,,,,,,,,,,,,,,,,,,129,001,2023-03-03_14h11.17.573,eb_01,2022.2.4,99.91678804300675,
,,,0,0,0,0,7,0,7,0,,,,,,,,,,,,,,,,,,,,,,,,,,,,,,,,,,,,,,,,,,,,,,,,,,,,,,,,,,,129,001,2023-03-03_14h11.17.573,eb_01,2022.2.4,99.91678804300675,
2,stimuli/2.png,s,0,0,0,0,8,0,8,0,0,0,0,0,,,,,,,,,,,,,,,,,,71.0702532637224,71.0702532637224,71.0702532637224,71.0702532637224,l,0,2.1309166669961996,73.22170498035848,73.22170498035848,73.22170498035848,,,,,,,,,,,,,,,,,,,,,,,,,,,,129,001,2023-03-03_14h11.17.573,eb_01,2022.2.4,99.91678804300675,
,,,0,0,0,0,8,0,8,0,,,,,,,,,,,,,,,,,,,,,,,,,,,,,,,,,,,,,,,,,,,,,,,,,,,,,,,,,,,129,001,2023-03-03_14h11.17.573,eb_01,2022.2.4,99.91678804300675,
4,stimuli/4.png,l,0,0,0,0,9,0,9,0,0,0,0,0,,,,,,,,,,,,,,,,,,74.25209493518923,74.25209493518923,74.25209493518923,74.25209493518923,l,1,0.9251800113997888,75.20303929733927,75.20303929733927,75.20303929733927,,,,,,,,,,,,,,,,,,,,,,,,,,,,129,001,2023-03-03_14h11.17.573,eb_01,2022.2.4,99.91678804300675,
,,,0,0,0,0,9,0,9,0,,,,,,,,,,,,,,,,,,,,,,,,,,,,,,,,,,,,,,,,,,,,,,,,,,,,,,,,,,,129,001,2023-03-03_14h11.17.573,eb_01,2022.2.4,99.91678804300675,
3,stimuli/3.png,l,0,0,0,0,10,0,10,0,0,0,0,0,,,,,,,,,,,,,,,,,,76.21370768739143,76.21370768739143,76.21370768739143,76.21370768739143,l,1,0.6195988402469084,76.84381824708544,76.84381824708544,76.84381824708544,77.85450203163782,77.85450203163782,77.85450203163782,,,,,,,,,,,,,,,,,,,,,,,,,129,001,2023-03-03_14h11.17.573,eb_01,2022.2.4,99.91678804300675,
,,,0,0,0,0,10,0,10,0,,,,,,,,,,,,,,,,,,,,,,,,,,,,,,,,,,,,,,,,,,,,,,,,,,,,,,,,,,,129,001,2023-03-03_14h11.17.573,eb_01,2022.2.4,99.91678804300675,
4,stimuli/4.png,l,0,0,0,0,11,0,11,0,0,0,0,0,,,,,,,,,,,,,,,,,,77.85450203163782,77.85450203163782,77.85450203163782,77.85450203163782,l,1,0.5868544321856461,78.46524208158371,78.46524208158371,78.46524208158371,,,,,,,,,,,,,,,,,,,,,,,,,,,,129,001,2023-03-03_14h11.17.573,eb_01,2022.2.4,99.91678804300675,
,,,0,0,0,0,11,0,11,0,,,,,,,,,,,,,,,,,,,,,,,,,,,,,,,,,,,,,,,,,,,,,,,,,,,,,,,,,,,129,001,2023-03-03_14h11.17.573,eb_01,2022.2.4,99.91678804300675,
1,stimuli/1.png,s,0,0,0,0,12,0,12,0,0,0,0,0,,,,,,,,,,,,,,,,,,79.49591638191487,79.49591638191487,79.49591638191487,79.49591638191487,s,1,0.4564907687599771,79.98626085955766,79.98626085955766,79.98626085955766,,,,,,,,,,,,,,,,,,,,,,,,,,,,129,001,2023-03-03_14h11.17.573,eb_01,2022.2.4,99.91678804300675,
,,,0,0,0,0,12,0,12,0,,,,,,,,,,,,,,,,,,,,,,,,,,,,,,,,,,,,,,,,,,,,,,,,,,,,,,,,,,,129,001,2023-03-03_14h11.17.573,eb_01,2022.2.4,99.91678804300675,
4,stimuli/4.png,l,0,0,0,0,13,0,13,0,0,0,0,0,,,,,,,,,,,,,,,,,,80.98695723438868,80.98695723438868,80.98695723438868,80.98695723438868,l,1,0.49351997996564023,81.50728024123237,81.50728024123237,81.50728024123237,,,,,,,,,,,,,,,,,,,,,,,,,,,,129,001,2023-03-03_14h11.17.573,eb_01,2022.2.4,99.91678804300675,
,,,0,0,0,0,13,0,13,0,,,,,,,,,,,,,,,,,,,,,,,,,,,,,,,,,,,,,,,,,,,,,,,,,,,,,,,,,,,129,001,2023-03-03_14h11.17.573,eb_01,2022.2.4,99.91678804300675,
2,stimuli/2.png,s,0,0,0,0,14,0,14,0,0,0,0,0,,,,,,,,,,,,,,,,,,82.51794199051801,82.51794199051801,82.51794199051801,82.51794199051801,l,0,0.8986000449804123,83.43857367220335,83.43857367220335,83.43857367220335,,,,,,,,,,,,,,,,,,,,,,,,,,,,129,001,2023-03-03_14h11.17.573,eb_01,2022.2.4,99.91678804300675,
,,,0,0,0,0,14,0,14,0,,,,,,,,,,,,,,,,,,,,,,,,,,,,,,,,,,,,,,,,,,,,,,,,,,,,,,,,,,,129,001,2023-03-03_14h11.17.573,eb_01,2022.2.4,99.91678804300675,
4,stimuli/4.png,l,0,0,0,0,15,0,15,0,0,0,0,0,,,,,,,,,,,,,,,,,,84.44893296479131,84.44893296479131,84.44893296479131,84.44893296479131,l,1,0.7996366382867564,85.26980495167663,85.26980495167663,85.26980495167663,,,,,,,,,,,,,,,,,,,,,,,,,,,,129,001,2023-03-03_14h11.17.573,eb_01,2022.2.4,99.91678804300675,
,,,0,0,0,0,15,0,15,0,,,,,,,,,,,,,,,,,,,,,,,,,,,,,,,,,,,,,,,,,,,,,,,,,,,,,,,,,,,129,001,2023-03-03_14h11.17.573,eb_01,2022.2.4,99.91678804300675,
3,stimuli/3.png,l,0,0,0,0,16,0,16,0,0,0,0,0,,,,,,,,,,,,,,,,,,86.28048330286401,86.28048330286401,86.28048330286401,86.28048330286401,l,1,0.7441346281266306,87.04065023962175,87.04065023962175,87.04065023962175,,,,,,,,,,,,,,,,,,,,,,,,,,,,129,001,2023-03-03_14h11.17.573,eb_01,2022.2.4,99.91678804300675,
,,,0,0,0,0,16,0,16,0,,,,,,,,,,,,,,,,,,,,,,,,,,,,,,,,,,,,,,,,,,,,,,,,,,,,,,,,,,,129,001,2023-03-03_14h11.17.573,eb_01,2022.2.4,99.91678804300675,
4,stimuli/4.png,l,0,0,0,0,17,0,17,0,0,0,0,0,,,,,,,,,,,,,,,,,,88.05135002240422,88.05135002240422,88.05135002240422,88.05135002240422,l,1,0.7413364509120584,88.82217810474685,88.82217810474685,88.82217810474685,,,,,,,,,,,,,,,,,,,,,,,,,,,,129,001,2023-03-03_14h11.17.573,eb_01,2022.2.4,99.91678804300675,
,,,0,0,0,0,17,0,17,0,,,,,,,,,,,,,,,,,,,,,,,,,,,,,,,,,,,,,,,,,,,,,,,,,,,,,,,,,,,129,001,2023-03-03_14h11.17.573,eb_01,2022.2.4,99.91678804300675,
2,stimuli/2.png,s,0,0,0,0,18,0,18,0,0,0,0,0,,,,,,,,,,,,,,,,,,89.83286913376651,89.83286913376651,89.83286913376651,89.83286913376651,s,1,0.47187470612698235,90.32285199154285,90.32285199154285,90.32285199154285,91.34387695748592,91.34387695748592,91.34387695748592,,,,,,,,,,,,,,,,,,,,,,,,,129,001,2023-03-03_14h11.17.573,eb_01,2022.2.4,99.91678804300675,
,,,0,0,0,0,18,0,18,0,,,,,,,,,,,,,,,,,,,,,,,,,,,,,,,,,,,,,,,,,,,,,,,,,,,,,,,,,,,129,001,2023-03-03_14h11.17.573,eb_01,2022.2.4,99.91678804300675,
1,stimuli/1.png,s,0,0,0,0,19,0,19,0,0,0,0,0,,,,,,,,,,,,,,,,,,91.34387695748592,91.34387695748592,91.34387695748592,91.34387695748592,s,1,0.7289049375976902,92.10438710110611,92.10438710110611,92.10438710110611,,,,,,,,,,,,,,,,,,,,,,,,,,,,129,001,2023-03-03_14h11.17.573,eb_01,2022.2.4,99.91678804300675,
,,,0,0,0,0,19,0,19,0,,,,,,,,,,,,,,,,,,,,,,,,,,,,,,,,,,,,,,,,,,,,,,,,,,,,,,,,,,,129,001,2023-03-03_14h11.17.573,eb_01,2022.2.4,99.91678804300675,
4,stimuli/4.png,l,0,0,0,0,20,0,20,0,0,0,0,0,,,,,,,,,,,,,,,,,,93.10473906167317,93.10473906167317,93.10473906167317,93.10473906167317,l,1,0.6480816879193299,93.77550287952181,93.77550287952181,93.77550287952181,,,,,,,,,,,,,,,,,,,,,,,,,,,,129,001,2023-03-03_14h11.17.573,eb_01,2022.2.4,99.91678804300675,
,,,0,0,0,0,20,0,20,0,,,,,,,,,,,,,,,,,,,,,,,,,,,,,,,,,,,,,,,,,,,,,,,,,,,,,,,,,,,129,001,2023-03-03_14h11.17.573,eb_01,2022.2.4,99.91678804300675,
2,stimuli/2.png,s,0,0,0,0,21,0,21,0,0,0,0,0,,,,,,,,,,,,,,,,,,94.78619149373844,94.78619149373844,94.78619149373844,94.78619149373844,s,1,0.565695745346602,95.36625120628742,95.36625120628742,95.36625120628742,96.37694193344214,96.37694193344214,96.37694193344214,,,,,,,,,,,,,,,,,,,,,,,,,129,001,2023-03-03_14h11.17.573,eb_01,2022.2.4,99.91678804300675,
,,,0,0,0,0,21,0,21,0,,,,,,,,,,,,,,,,,,,,,,,,,,,,,,,,,,,,,,,,,,,,,,,,,,,,,,,,,,,129,001,2023-03-03_14h11.17.573,eb_01,2022.2.4,99.91678804300675,
4,stimuli/4.png,l,0,0,0,0,22,0,22,0,0,0,0,0,,,,,,,,,,,,,,,,,,96.37694193344214,96.37694193344214,96.37694193344214,96.37694193344214,l,1,0.5590281147451606,96.95763523541973,96.95763523541973,96.95763523541973,,,,,,,,,,,,,,,,,,,,,,,,,,,,129,001,2023-03-03_14h11.17.573,eb_01,2022.2.4,99.91678804300675,
,,,0,0,0,0,22,0,22,0,,,,,,,,,,,,,,,,,,,,,,,,,,,,,,,,,,,,,,,,,,,,,,,,,,,,,,,,,,,129,001,2023-03-03_14h11.17.573,eb_01,2022.2.4,99.91678804300675,
3,stimuli/3.png,l,0,0,0,0,23,0,23,0,0,0,0,0,,,,,,,,,,,,,,,,,,97.96832415147219,97.96832415147219,97.96832415147219,97.96832415147219,l,1,0.5196791633206885,98.49835927810636,98.49835927810636,98.49835927810636,99.50935849902453,99.50935849902453,99.50935849902453,,,,,,,,,,,,,,,,,,,,,,,,,129,001,2023-03-03_14h11.17.573,eb_01,2022.2.4,99.91678804300675,
,,,0,0,0,0,23,0,23,0,,,,,,,,,,,,,,,,,,,,,,,,,,,,,,,,,,,,,,,,,,,,,,,,,,,,,,,,,,,129,001,2023-03-03_14h11.17.573,eb_01,2022.2.4,99.91678804300675,
2,stimuli/2.png,s,0,0,0,0,24,0,24,0,0,0,0,0,,,,,,,,,,,,,,,,,,99.50935849902453,99.50935849902453,99.50935849902453,99.50935849902453,s,1,0.5706980529939756,100.09942705286085,100.09942705286085,100.09942705286085,101.11011747817975,101.11011747817975,101.11011747817975,,,,,,,,,,,,,,,,,,,,,,,,,129,001,2023-03-03_14h11.17.573,eb_01,2022.2.4,99.91678804300675,
,,,0,0,0,0,24,0,24,0,,,,,,,,,,,,,,,,,,,,,,,,,,,,,,,,,,,,,,,,,,,,,,,,,,,,,,,,,,,129,001,2023-03-03_14h11.17.573,eb_01,2022.2.4,99.91678804300675,
4,stimuli/4.png,l,0,0,0,0,25,0,25,0,0,0,0,0,,,,,,,,,,,,,,,,,,101.11011747817975,101.11011747817975,101.11011747817975,101.11011747817975,l,1,0.48998437594855204,101.62077002093429,101.62077002093429,101.62077002093429,,,,,,,,,,,,,,,,,,,,,,,,,,,,129,001,2023-03-03_14h11.17.573,eb_01,2022.2.4,99.91678804300675,
,,,0,0,0,0,25,0,25,0,,,,,,,,,,,,,,,,,,,,,,,,,,,,,,,,,,,,,,,,,,,,,,,,,,,,,,,,,,,129,001,2023-03-03_14h11.17.573,eb_01,2022.2.4,99.91678804300675,
2,stimuli/2.png,s,0,0,0,0,26,0,26,0,0,0,0,0,,,,,,,,,,,,,,,,,,102.63145048508886,102.63145048508886,102.63145048508886,102.63145048508886,s,1,0.49668430478777736,103.14145162911154,103.14145162911154,103.14145162911154,104.15247228159569,104.15247228159569,104.15247228159569,,,,,,,,,,,,,,,,,,,,,,,,,129,001,2023-03-03_14h11.17.573,eb_01,2022.2.4,99.91678804300675,
,,,0,0,0,0,26,0,26,0,,,,,,,,,,,,,,,,,,,,,,,,,,,,,,,,,,,,,,,,,,,,,,,,,,,,,,,,,,,129,001,2023-03-03_14h11.17.573,eb_01,2022.2.4,99.91678804300675,
3,stimuli/3.png,l,0,0,0,0,27,0,27,0,0,0,0,0,,,,,,,,,,,,,,,,,,104.15247228159569,104.15247228159569,104.15247228159569,104.15247228159569,l,1,0.4797083947923966,104.64245815790491,104.64245815790491,104.64245815790491,105.65347669742187,105.65347669742187,105.65347669742187,,,,,,,,,,,,,,,,,,,,,,,,,129,001,2023-03-03_14h11.17.573,eb_01,2022.2.4,99.91678804300675,
,,,0,0,0,0,27,0,27,0,,,,,,,,,,,,,,,,,,,,,,,,,,,,,,,,,,,,,,,,,,,,,,,,,,,,,,,,,,,129,001,2023-03-03_14h11.17.573,eb_01,2022.2.4,99.91678804300675,
8,stimuli/8.png,l,0,0,0,0,28,0,28,0,0,0,0,0,,,,,,,,,,,,,,,,,,105.65347669742187,105.65347669742187,105.65347669742187,105.65347669742187,l,1,0.6667669914022554,106.34393823365099,106.34393823365099,106.34393823365099,,,,,,,,,,,,,,,,,,,,,,,,,,,,129,001,2023-03-03_14h11.17.573,eb_01,2022.2.4,99.91678804300675,
,,,0,0,0,0,28,0,28,0,,,,,,,,,,,,,,,,,,,,,,,,,,,,,,,,,,,,,,,,,,,,,,,,,,,,,,,,,,,129,001,2023-03-03_14h11.17.573,eb_01,2022.2.4,99.91678804300675,
3,stimuli/3.png,l,0,0,0,0,29,0,29,0,0,0,0,0,,,,,,,,,,,,,,,,,,107.35462111263769,107.35462111263769,107.35462111263769,107.35462111263769,l,1,0.4936775472306181,107.86464399006218,107.86464399006218,107.86464399006218,108.87563898504595,108.87563898504595,108.87563898504595,,,,,,,,,,,,,,,,,,,,,,,,,129,001,2023-03-03_14h11.17.573,eb_01,2022.2.4,99.91678804300675,
,,,0,0,0,0,29,0,29,0,,,,,,,,,,,,,,,,,,,,,,,,,,,,,,,,,,,,,,,,,,,,,,,,,,,,,,,,,,,129,001,2023-03-03_14h11.17.573,eb_01,2022.2.4,99.91678804300675,
2,stimuli/2.png,s,0,0,0,0,30,0,30,0,0,0,0,0,,,,,,,,,,,,,,,,,,108.87563898504595,108.87563898504595,108.87563898504595,108.87563898504595,s,1,0.5007342663011514,109.39566376112634,109.39566376112634,109.39566376112634,110.40667022654088,110.40667022654088,110.40667022654088,,,,,,,,,,,,,,,,,,,,,,,,,129,001,2023-03-03_14h11.17.573,eb_01,2022.2.4,99.91678804300675,
,,,0,0,0,0,30,0,30,0,,,,,,,,,,,,,,,,,,,,,,,,,,,,,,,,,,,,,,,,,,,,,,,,,,,,,,,,,,,129,001,2023-03-03_14h11.17.573,eb_01,2022.2.4,99.91678804300675,
3,stimuli/3.png,l,0,0,0,0,31,0,31,0,0,0,0,0,,,,,,,,,,,,,,,,,,110.40667022654088,110.40667022654088,110.40667022654088,110.40667022654088,l,1,0.7527326085255481,111.17686321018846,111.17686321018846,111.17686321018846,112.18753341137199,112.18753341137199,112.18753341137199,,,,,,,,,,,,,,,,,,,,,,,,,129,001,2023-03-03_14h11.17.573,eb_01,2022.2.4,99.91678804300675,
,,,0,0,0,0,31,0,31,0,,,,,,,,,,,,,,,,,,,,,,,,,,,,,,,,,,,,,,,,,,,,,,,,,,,,,,,,,,,129,001,2023-03-03_14h11.17.573,eb_01,2022.2.4,99.91678804300675,
4,stimuli/4.png,l,0,0,0,0,32,0,32,0,0,0,0,0,,,,,,,,,,,,,,,,,,112.18753341137199,112.18753341137199,112.18753341137199,112.18753341137199,l,1,0.651944198703859,112.86832418167614,112.86832418167614,112.86832418167614,,,,,,,,,,,,,,,,,,,,,,,,,,,,129,001,2023-03-03_14h11.17.573,eb_01,2022.2.4,99.91678804300675,
,,,0,0,0,0,32,0,32,0,,,,,,,,,,,,,,,,,,,,,,,,,,,,,,,,,,,,,,,,,,,,,,,,,,,,,,,,,,,129,001,2023-03-03_14h11.17.573,eb_01,2022.2.4,99.91678804300675,
2,stimuli/2.png,s,0,0,0,0,33,0,33,0,0,0,0,0,,,,,,,,,,,,,,,,,,113.87902486996609,113.87902486996609,113.87902486996609,113.87902486996609,s,1,0.5284805926785339,114.41902567291982,114.41902567291982,114.41902567291982,115.44002256653039,115.44002256653039,115.44002256653039,,,,,,,,,,,,,,,,,,,,,,,,,129,001,2023-03-03_14h11.17.573,eb_01,2022.2.4,99.91678804300675,
,,,0,0,0,0,33,0,33,0,,,,,,,,,,,,,,,,,,,,,,,,,,,,,,,,,,,,,,,,,,,,,,,,,,,,,,,,,,,129,001,2023-03-03_14h11.17.573,eb_01,2022.2.4,99.91678804300675,
1,stimuli/1.png,s,0,0,0,0,34,0,34,0,0,0,0,0,,,,,,,,,,,,,,,,,,115.44002256653039,115.44002256653039,115.44002256653039,115.44002256653039,s,1,0.5035312360560056,115.97008123769774,115.97008123769774,115.97008123769774,,,,,,,,,,,,,,,,,,,,,,,,,,,,129,001,2023-03-03_14h11.17.573,eb_01,2022.2.4,99.91678804300675,
,,,0,0,0,0,34,0,34,0,,,,,,,,,,,,,,,,,,,,,,,,,,,,,,,,,,,,,,,,,,,,,,,,,,,,,,,,,,,129,001,2023-03-03_14h11.17.573,eb_01,2022.2.4,99.91678804300675,
2,stimuli/2.png,s,0,0,0,0,35,0,35,0,0,0,0,0,,,,,,,,,,,,,,,,,,116.981069591915,116.981069591915,116.981069591915,116.981069591915,s,1,0.4825394739455078,117.4810830243805,117.4810830243805,117.4810830243805,118.50207025869167,118.50207025869167,118.50207025869167,,,,,,,,,,,,,,,,,,,,,,,,,129,001,2023-03-03_14h11.17.573,eb_01,2022.2.4,99.91678804300675,
,,,0,0,0,0,35,0,35,0,,,,,,,,,,,,,,,,,,,,,,,,,,,,,,,,,,,,,,,,,,,,,,,,,,,,,,,,,,,129,001,2023-03-03_14h11.17.573,eb_01,2022.2.4,99.91678804300675,
1,stimuli/1.png,s,0,0,0,0,36,0,36,0,0,0,0,0,,,,,,,,,,,,,,,,,,118.50207025869167,118.50207025869167,118.50207025869167,118.50207025869167,s,1,0.5535832906025462,119.08216891030315,119.08216891030315,119.08216891030315,,,,,,,,,,,,,,,,,,,,,,,,,,,,129,001,2023-03-03_14h11.17.573,eb_01,2022.2.4,99.91678804300675,
,,,0,0,0,0,36,0,36,0,,,,,,,,,,,,,,,,,,,,,,,,,,,,,,,,,,,,,,,,,,,,,,,,,,,,,,,,,,,129,001,2023-03-03_14h11.17.573,eb_01,2022.2.4,99.91678804300675,
2,stimuli/2.png,s,0,0,0,0,37,0,37,0,0,0,0,0,,,,,,,,,,,,,,,,,,120.0931560570898,120.0931560570898,120.0931560570898,120.0931560570898,s,1,0.6425493264105171,120.7532723127515,120.7532723127515,120.7532723127515,121.76397692516912,121.76397692516912,121.76397692516912,,,,,,,,,,,,,,,,,,,,,,,,,129,001,2023-03-03_14h11.17.573,eb_01,2022.2.4,99.91678804300675,
,,,0,0,0,0,37,0,37,0,,,,,,,,,,,,,,,,,,,,,,,,,,,,,,,,,,,,,,,,,,,,,,,,,,,,,,,,,,,129,001,2023-03-03_14h11.17.573,eb_01,2022.2.4,99.91678804300675,
4,stimuli/4.png,l,0,0,0,0,38,0,38,0,0,0,0,0,,,,,,,,,,,,,,,,,,121.76397692516912,121.76397692516912,121.76397692516912,121.76397692516912,l,1,0.5477786576957442,122.33467195072444,122.33467195072444,122.33467195072444,,,,,,,,,,,,,,,,,,,,,,,,,,,,129,001,2023-03-03_14h11.17.573,eb_01,2022.2.4,99.91678804300675,
,,,0,0,0,0,38,0,38,0,,,,,,,,,,,,,,,,,,,,,,,,,,,,,,,,,,,,,,,,,,,,,,,,,,,,,,,,,,,129,001,2023-03-03_14h11.17.573,eb_01,2022.2.4,99.91678804300675,
3,stimuli/3.png,l,0,0,0,0,39,0,39,0,0,0,0,0,,,,,,,,,,,,,,,,,,123.3453382277803,123.3453382277803,123.3453382277803,123.3453382277803,l,1,0.5904739513061941,123.9454343377729,123.9454343377729,123.9454343377729,124.95643204942462,124.95643204942462,124.95643204942462,,,,,,,,,,,,,,,,,,,,,,,,,129,001,2023-03-03_14h11.17.573,eb_01,2022.2.4,99.91678804300675,
,,,0,0,0,0,39,0,39,0,,,,,,,,,,,,,,,,,,,,,,,,,,,,,,,,,,,,,,,,,,,,,,,,,,,,,,,,,,,129,001,2023-03-03_14h11.17.573,eb_01,2022.2.4,99.91678804300675,
8,stimuli/8.png,l,0,0,0,0,40,0,40,0,0,0,0,0,,,,,,,,,,,,,,,,,,124.95643204942462,124.95643204942462,124.95643204942462,124.95643204942462,l,1,0.7704631510132458,125.74696237794706,125.74696237794706,125.74696237794706,,,,,,,,,,,,,,,,,,,,,,,,,,,,129,001,2023-03-03_14h11.17.573,eb_01,2022.2.4,99.91678804300675,
,,,0,0,0,0,40,0,40,0,,,,,,,,,,,,,,,,,,,,,,,,,,,,,,,,,,,,,,,,,,,,,,,,,,,,,,,,,,,129,001,2023-03-03_14h11.17.573,eb_01,2022.2.4,99.91678804300675,
6,stimuli/6.png,s,0,0,0,0,41,0,41,0,0,0,0,0,,,,,,,,,,,,,,,,,,126.7676507778524,126.7676507778524,126.7676507778524,126.7676507778524,s,1,0.559256315609673,127.35804080509115,127.35804080509115,127.35804080509115,,,,,,,,,,,,,,,,,,,,,,,,,,,,129,001,2023-03-03_14h11.17.573,eb_01,2022.2.4,99.91678804300675,
,,,0,0,0,0,41,0,41,0,,,,,,,,,,,,,,,,,,,,,,,,,,,,,,,,,,,,,,,,,,,,,,,,,,,,,,,,,,,129,001,2023-03-03_14h11.17.573,eb_01,2022.2.4,99.91678804300675,
8,stimuli/8.png,l,0,0,0,0,42,0,42,0,0,0,0,0,,,,,,,,,,,,,,,,,,128.35871755948756,128.35871755948756,128.35871755948756,128.35871755948756,l,1,0.5362397236458492,128.91908921295544,128.91908921295544,128.91908921295544,,,,,,,,,,,,,,,,,,,,,,,,,,,,129,001,2023-03-03_14h11.17.573,eb_01,2022.2.4,99.91678804300675,
,,,0,0,0,0,42,0,42,0,,,,,,,,,,,,,,,,,,,,,,,,,,,,,,,,,,,,,,,,,,,,,,,,,,,,,,,,,,,129,001,2023-03-03_14h11.17.573,eb_01,2022.2.4,99.91678804300675,
6,stimuli/6.png,s,0,0,0,0,43,0,43,0,0,0,0,0,,,,,,,,,,,,,,,,,,129.93977761283168,129.93977761283168,129.93977761283168,129.93977761283168,s,1,0.4752464039775077,130.45010717291734,130.45010717291734,130.45010717291734,,,,,,,,,,,,,,,,,,,,,,,,,,,,129,001,2023-03-03_14h11.17.573,eb_01,2022.2.4,99.91678804300675,
,,,0,0,0,0,43,0,43,0,,,,,,,,,,,,,,,,,,,,,,,,,,,,,,,,,,,,,,,,,,,,,,,,,,,,,,,,,,,129,001,2023-03-03_14h11.17.573,eb_01,2022.2.4,99.91678804300675,
9,stimuli/9.png,l,0,0,0,0,44,0,44,0,0,0,0,0,,,,,,,,,,,,,,,,,,131.46079850377282,131.46079850377282,131.46079850377282,131.46079850377282,l,1,0.8822785522206686,132.37110047449823,132.37110047449823,132.37110047449823,,,,,,,,,,,,,,,,,,,,,,,,,,,,129,001,2023-03-03_14h11.17.573,eb_01,2022.2.4,99.91678804300675,
,,,0,0,0,0,44,0,44,0,,,,,,,,,,,,,,,,,,,,,,,,,,,,,,,,,,,,,,,,,,,,,,,,,,,,,,,,,,,129,001,2023-03-03_14h11.17.573,eb_01,2022.2.4,99.91678804300675,
6,stimuli/6.png,s,0,0,0,0,45,0,45,0,0,0,0,0,,,,,,,,,,,,,,,,,,133.3921079329739,133.3921079329739,133.3921079329739,133.3921079329739,s,1,0.711039466841612,134.14258146483917,134.14258146483917,134.14258146483917,,,,,,,,,,,,,,,,,,,,,,,,,,,,129,001,2023-03-03_14h11.17.573,eb_01,2022.2.4,99.91678804300675,
,,,0,0,0,0,45,0,45,0,,,,,,,,,,,,,,,,,,,,,,,,,,,,,,,,,,,,,,,,,,,,,,,,,,,,,,,,,,,129,001,2023-03-03_14h11.17.573,eb_01,2022.2.4,99.91678804300675,
8,stimuli/8.png,l,0,0,0,0,46,0,46,0,0,0,0,0,,,,,,,,,,,,,,,,,,135.14326335073565,135.14326335073565,135.14326335073565,135.14326335073565,l,1,0.5599599349370692,135.7236372922489,135.7236372922489,135.7236372922489,,,,,,,,,,,,,,,,,,,,,,,,,,,,129,001,2023-03-03_14h11.17.573,eb_01,2022.2.4,99.91678804300675,
,,,0,0,0,0,46,0,46,0,,,,,,,,,,,,,,,,,,,,,,,,,,,,,,,,,,,,,,,,,,,,,,,,,,,,,,,,,,,129,001,2023-03-03_14h11.17.573,eb_01,2022.2.4,99.91678804300675,
9,stimuli/9.png,l,0,0,0,0,47,0,47,0,0,0,0,0,,,,,,,,,,,,,,,,,,136.74430003462476,136.74430003462476,136.74430003462476,136.74430003462476,l,1,0.5429327099118382,137.31470709244604,137.31470709244604,137.31470709244604,,,,,,,,,,,,,,,,,,,,,,,,,,,,129,001,2023-03-03_14h11.17.573,eb_01,2022.2.4,99.91678804300675,
,,,0,0,0,0,47,0,47,0,,,,,,,,,,,,,,,,,,,,,,,,,,,,,,,,,,,,,,,,,,,,,,,,,,,,,,,,,,,129,001,2023-03-03_14h11.17.573,eb_01,2022.2.4,99.91678804300675,
5,stimuli/5.png,s,0,0,0,0,48,0,48,0,0,0,0,0,,,,,,,,,,,,,,,,,,138.3254077807651,138.3254077807651,138.3254077807651,138.3254077807651,s,1,0.5618697587342467,138.91581501363544,138.91581501363544,138.91581501363544,,,,,,,,,,,,,,,,,,,,,,,,,,,,129,001,2023-03-03_14h11.17.573,eb_01,2022.2.4,99.91678804300675,
,,,0,0,0,0,48,0,48,0,,,,,,,,,,,,,,,,,,,,,,,,,,,,,,,,,,,,,,,,,,,,,,,,,,,,,,,,,,,129,001,2023-03-03_14h11.17.573,eb_01,2022.2.4,99.91678804300675,
6,stimuli/6.png,s,0,0,0,0,49,0,49,0,0,0,0,0,,,,,,,,,,,,,,,,,,139.93648620788008,139.93648620788008,139.93648620788008,139.93648620788008,s,1,0.4788532452657819,140.44680731606786,140.44680731606786,140.44680731606786,,,,,,,,,,,,,,,,,,,,,,,,,,,,129,001,2023-03-03_14h11.17.573,eb_01,2022.2.4,99.91678804300675,
,,,0,0,0,0,49,0,49,0,,,,,,,,,,,,,,,,,,,,,,,,,,,,,,,,,,,,,,,,,,,,,,,,,,,,,,,,,,,129,001,2023-03-03_14h11.17.573,eb_01,2022.2.4,99.91678804300675,
9,stimuli/9.png,l,0,0,0,0,50,0,50,0,0,0,0,0,,,,,,,,,,,,,,,,,,141.45748325245222,141.45748325245222,141.45748325245222,141.45748325245222,l,1,0.8129091140581295,142.2980719744519,142.2980719744519,142.2980719744519,,,,,,,,,,,,,,,,,,,,,,,,,,,,129,001,2023-03-03_14h11.17.573,eb_01,2022.2.4,99.91678804300675,
,,,0,0,0,0,50,0,50,0,,,,,,,,,,,,,,,,,,,,,,,,,,,,,,,,,,,,,,,,,,,,,,,,,,,,,,,,,,,129,001,2023-03-03_14h11.17.573,eb_01,2022.2.4,99.91678804300675,
6,stimuli/6.png,s,0,0,0,0,51,0,51,0,0,0,0,0,,,,,,,,,,,,,,,,,,143.31875765763107,143.31875765763107,143.31875765763107,143.31875765763107,s,1,0.5997046155680437,143.94918335185503,143.94918335185503,143.94918335185503,,,,,,,,,,,,,,,,,,,,,,,,,,,,129,001,2023-03-03_14h11.17.573,eb_01,2022.2.4,99.91678804300675,
,,,0,0,0,0,51,0,51,0,,,,,,,,,,,,,,,,,,,,,,,,,,,,,,,,,,,,,,,,,,,,,,,,,,,,,,,,,,,129,001,2023-03-03_14h11.17.573,eb_01,2022.2.4,99.91678804300675,
8,stimuli/8.png,l,0,0,0,0,52,0,52,0,0,0,0,0,,,,,,,,,,,,,,,,,,144.9498770100181,144.9498770100181,144.9498770100181,144.9498770100181,l,1,0.4646148399624508,145.44017892639386,145.44017892639386,145.44017892639386,,,,,,,,,,,,,,,,,,,,,,,,,,,,129,001,2023-03-03_14h11.17.573,eb_01,2022.2.4,99.91678804300675,
,,,0,0,0,0,52,0,52,0,,,,,,,,,,,,,,,,,,,,,,,,,,,,,,,,,,,,,,,,,,,,,,,,,,,,,,,,,,,129,001,2023-03-03_14h11.17.573,eb_01,2022.2.4,99.91678804300675,
6,stimuli/6.png,s,0,0,0,0,53,0,53,0,0,0,0,0,,,,,,,,,,,,,,,,,,146.46086943923729,146.46086943923729,146.46086943923729,146.46086943923729,s,1,0.43365498672937974,146.93117993426858,146.93117993426858,146.93117993426858,,,,,,,,,,,,,,,,,,,,,,,,,,,,129,001,2023-03-03_14h11.17.573,eb_01,2022.2.4,99.91678804300675,
,,,0,0,0,0,53,0,53,0,,,,,,,,,,,,,,,,,,,,,,,,,,,,,,,,,,,,,,,,,,,,,,,,,,,,,,,,,,,129,001,2023-03-03_14h11.17.573,eb_01,2022.2.4,99.91678804300675,
8,stimuli/8.png,l,0,0,0,0,54,0,54,0,0,0,0,0,,,,,,,,,,,,,,,,,,147.9318503497634,147.9318503497634,147.9318503497634,147.9318503497634,l,1,0.43473863892722875,148.39215592760593,148.39215592760593,148.39215592760593,,,,,,,,,,,,,,,,,,,,,,,,,,,,129,001,2023-03-03_14h11.17.573,eb_01,2022.2.4,99.91678804300675,
,,,0,0,0,0,54,0,54,0,,,,,,,,,,,,,,,,,,,,,,,,,,,,,,,,,,,,,,,,,,,,,,,,,,,,,,,,,,,129,001,2023-03-03_14h11.17.573,eb_01,2022.2.4,99.91678804300675,
9,stimuli/9.png,l,0,0,0,0,55,0,55,0,0,0,0,0,,,,,,,,,,,,,,,,,,149.4128512701136,149.4128512701136,149.4128512701136,149.4128512701136,l,1,0.5457909558026586,149.98322210554034,149.98322210554034,149.98322210554034,,,,,,,,,,,,,,,,,,,,,,,,,,,,129,001,2023-03-03_14h11.17.573,eb_01,2022.2.4,99.91678804300675,
,,,0,0,0,0,55,0,55,0,,,,,,,,,,,,,,,,,,,,,,,,,,,,,,,,,,,,,,,,,,,,,,,,,,,,,,,,,,,129,001,2023-03-03_14h11.17.573,eb_01,2022.2.4,99.91678804300675,
5,stimuli/5.png,s,0,0,0,0,56,0,56,0,0,0,0,0,,,,,,,,,,,,,,,,,,150.9938904955925,150.9938904955925,150.9938904955925,150.9938904955925,s,1,0.43678308921516873,151.45421509016887,151.45421509016887,151.45421509016887,,,,,,,,,,,,,,,,,,,,,,,,,,,,129,001,2023-03-03_14h11.17.573,eb_01,2022.2.4,99.91678804300675,
,,,0,0,0,0,56,0,56,0,,,,,,,,,,,,,,,,,,,,,,,,,,,,,,,,,,,,,,,,,,,,,,,,,,,,,,,,,,,129,001,2023-03-03_14h11.17.573,eb_01,2022.2.4,99.91678804300675,
6,stimuli/6.png,s,0,0,0,0,57,0,57,0,0,0,0,0,,,,,,,,,,,,,,,,,,152.47490741414367,152.47490741414367,152.47490741414367,152.47490741414367,s,1,0.4838301972777117,152.9952427969547,152.9952427969547,152.9952427969547,,,,,,,,,,,,,,,,,,,,,,,,,,,,129,001,2023-03-03_14h11.17.573,eb_01,2022.2.4,99.91678804300675,
,,,0,0,0,0,57,0,57,0,,,,,,,,,,,,,,,,,,,,,,,,,,,,,,,,,,,,,,,,,,,,,,,,,,,,,,,,,,,129,001,2023-03-03_14h11.17.573,eb_01,2022.2.4,99.91678804300675,
5,stimuli/5.png,s,0,0,0,0,58,0,58,0,0,0,0,0,,,,,,,,,,,,,,,,,,153.99591321244952,153.99591321244952,153.99591321244952,153.99591321244952,s,1,0.5469053970300592,154.5663127239386,154.5663127239386,154.5663127239386,,,,,,,,,,,,,,,,,,,,,,,,,,,,129,001,2023-03-03_14h11.17.573,eb_01,2022.2.4,99.91678804300675,
,,,0,0,0,0,58,0,58,0,,,,,,,,,,,,,,,,,,,,,,,,,,,,,,,,,,,,,,,,,,,,,,,,,,,,,,,,,,,129,001,2023-03-03_14h11.17.573,eb_01,2022.2.4,99.91678804300675,
9,stimuli/9.png,l,0,0,0,0,59,0,59,0,0,0,0,0,,,,,,,,,,,,,,,,,,155.58699478488415,155.58699478488415,155.58699478488415,155.58699478488415,l,1,0.3878337036294397,155.99726672124234,155.99726672124234,155.99726672124234,,,,,,,,,,,,,,,,,,,,,,,,,,,,129,001,2023-03-03_14h11.17.573,eb_01,2022.2.4,99.91678804300675,
,,,0,0,0,0,59,0,59,0,,,,,,,,,,,,,,,,,,,,,,,,,,,,,,,,,,,,,,,,,,,,,,,,,,,,,,,,,,,129,001,2023-03-03_14h11.17.573,eb_01,2022.2.4,99.91678804300675,
5,stimuli/5.png,s,0,0,0,0,60,0,60,0,0,0,0,0,,,,,,,,,,,,,,,,,,157.0079502039298,157.0079502039298,157.0079502039298,157.0079502039298,s,1,0.477939536300255,157.508268507896,157.508268507896,157.508268507896,,,,,,,,,,,,,,,,,,,,,,,,,,,,129,001,2023-03-03_14h11.17.573,eb_01,2022.2.4,99.91678804300675,
,,,0,0,0,0,60,0,60,0,,,,,,,,,,,,,,,,,,,,,,,,,,,,,,,,,,,,,,,,,,,,,,,,,,,,,,,,,,,129,001,2023-03-03_14h11.17.573,eb_01,2022.2.4,99.91678804300675,
6,stimuli/6.png,s,0,0,0,0,61,0,61,0,0,0,0,0,,,,,,,,,,,,,,,,,,158.52896898190374,158.52896898190374,158.52896898190374,158.52896898190374,s,1,0.5649546962522436,159.12937207636423,159.12937207636423,159.12937207636423,,,,,,,,,,,,,,,,,,,,,,,,,,,,129,001,2023-03-03_14h11.17.573,eb_01,2022.2.4,99.91678804300675,
,,,0,0,0,0,61,0,61,0,,,,,,,,,,,,,,,,,,,,,,,,,,,,,,,,,,,,,,,,,,,,,,,,,,,,,,,,,,,129,001,2023-03-03_14h11.17.573,eb_01,2022.2.4,99.91678804300675,
8,stimuli/8.png,l,0,0,0,0,62,0,62,0,0,0,0,0,,,,,,,,,,,,,,,,,,160.130045208527,160.130045208527,160.130045208527,160.130045208527,l,1,0.619923030375503,160.77043144754134,160.77043144754134,160.77043144754134,,,,,,,,,,,,,,,,,,,,,,,,,,,,129,001,2023-03-03_14h11.17.573,eb_01,2022.2.4,99.91678804300675,
,,,0,0,0,0,62,0,62,0,,,,,,,,,,,,,,,,,,,,,,,,,,,,,,,,,,,,,,,,,,,,,,,,,,,,,,,,,,,129,001,2023-03-03_14h11.17.573,eb_01,2022.2.4,99.91678804300675,
6,stimuli/6.png,s,0,0,0,0,63,0,63,0,0,0,0,0,,,,,,,,,,,,,,,,,,161.7911621068488,161.7911621068488,161.7911621068488,161.7911621068488,s,1,0.49488888325868174,162.32150301054935,162.32150301054935,162.32150301054935,,,,,,,,,,,,,,,,,,,,,,,,,,,,129,001,2023-03-03_14h11.17.573,eb_01,2022.2.4,99.91678804300675,
,,,0,0,0,0,63,0,63,0,,,,,,,,,,,,,,,,,,,,,,,,,,,,,,,,,,,,,,,,,,,,,,,,,,,,,,,,,,,129,001,2023-03-03_14h11.17.573,eb_01,2022.2.4,99.91678804300675,
9,stimuli/9.png,l,0,0,0,0,64,0,64,0,0,0,0,0,,,,,,,,,,,,,,,,,,163.33219313400332,163.33219313400332,163.33219313400332,163.33219313400332,l,1,0.5858809562923852,163.94228087965166,163.94228087965166,163.94228087965166,,,,,,,,,,,,,,,,,,,,,,,,,,,,129,001,2023-03-03_14h11.17.573,eb_01,2022.2.4,99.91678804300675,
,,,0,0,0,0,64,0,64,0,,,,,,,,,,,,,,,,,,,,,,,,,,,,,,,,,,,,,,,,,,,,,,,,,,,,,,,,,,,129,001,2023-03-03_14h11.17.573,eb_01,2022.2.4,99.91678804300675,
5,stimuli/5.png,s,0,0,0,0,65,0,65,0,0,0,0,0,,,,,,,,,,,,,,,,,,164.95327496906975,164.95327496906975,164.95327496906975,164.95327496906975,s,1,0.4608537517779041,165.44360525961383,165.44360525961383,165.44360525961383,,,,,,,,,,,,,,,,,,,,,,,,,,,,129,001,2023-03-03_14h11.17.573,eb_01,2022.2.4,99.91678804300675,
,,,0,0,0,0,65,0,65,0,,,,,,,,,,,,,,,,,,,,,,,,,,,,,,,,,,,,,,,,,,,,,,,,,,,,,,,,,,,129,001,2023-03-03_14h11.17.573,eb_01,2022.2.4,99.91678804300675,
9,stimuli/9.png,l,0,0,0,0,66,0,66,0,0,0,0,0,,,,,,,,,,,,,,,,,,166.46430120582227,166.46430120582227,166.46430120582227,166.46430120582227,l,1,0.549878347053891,167.034317364014,167.034317364014,167.034317364014,,,,,,,,,,,,,,,,,,,,,,,,,,,,129,001,2023-03-03_14h11.17.573,eb_01,2022.2.4,99.91678804300675,
,,,0,0,0,0,66,0,66,0,,,,,,,,,,,,,,,,,,,,,,,,,,,,,,,,,,,,,,,,,,,,,,,,,,,,,,,,,,,129,001,2023-03-03_14h11.17.573,eb_01,2022.2.4,99.91678804300675,
8,stimuli/8.png,l,0,0,0,0,67,0,67,0,0,0,0,0,,,,,,,,,,,,,,,,,,168.04535884433426,168.04535884433426,168.04535884433426,168.04535884433426,l,1,0.5608826994721312,168.6357606438687,168.6357606438687,168.6357606438687,,,,,,,,,,,,,,,,,,,,,,,,,,,,129,001,2023-03-03_14h11.17.573,eb_01,2022.2.4,99.91678804300675,
,,,0,0,0,0,67,0,67,0,,,,,,,,,,,,,,,,,,,,,,,,,,,,,,,,,,,,,,,,,,,,,,,,,,,,,,,,,,,129,001,2023-03-03_14h11.17.573,eb_01,2022.2.4,99.91678804300675,
3,stimuli/3.png,l,0,0,0,0,68,0,68,0,0,0,0,0,,,,,,,,,,,,,,,,,,169.6461126919894,169.6461126919894,169.6461126919894,169.6461126919894,l,1,0.6081613287969958,170.26652109305724,170.26652109305724,170.26652109305724,,,,,,,,,,,,,,,,,,,,,,,,,,,,129,001,2023-03-03_14h11.17.573,eb_01,2022.2.4,99.91678804300675,
,,,0,0,0,0,68,0,68,0,,,,,,,,,,,,,,,,,,,,,,,,,,,,,,,,,,,,,,,,,,,,,,,,,,,,,,,,,,,129,001,2023-03-03_14h11.17.573,eb_01,2022.2.4,99.91678804300675,
2,stimuli/2.png,s,0,0,0,0,69,0,69,0,0,0,0,0,,,,,,,,,,,,,,,,,,171.27752876584418,171.27752876584418,171.27752876584418,171.27752876584418,s,1,0.7119130293722264,172.00769906223286,172.00769906223286,172.00769906223286,173.01838526161737,173.01838526161737,173.01838526161737,,,,,,,,,,,,,,,,,,,,,,,,,129,001,2023-03-03_14h11.17.573,eb_01,2022.2.4,99.91678804300675,
,,,0,0,0,0,69,0,69,0,,,,,,,,,,,,,,,,,,,,,,,,,,,,,,,,,,,,,,,,,,,,,,,,,,,,,,,,,,,129,001,2023-03-03_14h11.17.573,eb_01,2022.2.4,99.91678804300675,
4,stimuli/4.png,l,0,0,0,0,70,0,70,0,0,0,0,0,,,,,,,,,,,,,,,,,,173.01838526161737,173.01838526161737,173.01838526161737,173.01838526161737,l,1,0.4909847167436965,173.53904423082713,173.53904423082713,173.53904423082713,,,,,,,,,,,,,,,,,,,,,,,,,,,,129,001,2023-03-03_14h11.17.573,eb_01,2022.2.4,99.91678804300675,
,,,0,0,0,0,70,0,70,0,,,,,,,,,,,,,,,,,,,,,,,,,,,,,,,,,,,,,,,,,,,,,,,,,,,,,,,,,,,129,001,2023-03-03_14h11.17.573,eb_01,2022.2.4,99.91678804300675,
2,stimuli/2.png,s,0,0,0,0,71,0,71,0,0,0,0,0,,,,,,,,,,,,,,,,,,174.5497355617117,174.5497355617117,174.5497355617117,174.5497355617117,s,1,0.45569961206638254,175.02008620317793,175.02008620317793,175.02008620317793,176.04040724798688,176.04040724798688,176.04040724798688,,,,,,,,,,,,,,,,,,,,,,,,,129,001,2023-03-03_14h11.17.573,eb_01,2022.2.4,99.91678804300675,
,,,0,0,0,0,71,0,71,0,,,,,,,,,,,,,,,,,,,,,,,,,,,,,,,,,,,,,,,,,,,,,,,,,,,,,,,,,,,129,001,2023-03-03_14h11.17.573,eb_01,2022.2.4,99.91678804300675,
1,stimuli/1.png,s,0,0,0,0,72,0,72,0,0,0,0,0,,,,,,,,,,,,,,,,,,176.04040724798688,176.04040724798688,176.04040724798688,176.04040724798688,s,1,0.6050715616438538,176.68115812540054,176.68115812540054,176.68115812540054,,,,,,,,,,,,,,,,,,,,,,,,,,,,129,001,2023-03-03_14h11.17.573,eb_01,2022.2.4,99.91678804300675,
,,,0,0,0,0,72,0,72,0,,,,,,,,,,,,,,,,,,,,,,,,,,,,,,,,,,,,,,,,,,,,,,,,,,,,,,,,,,,129,001,2023-03-03_14h11.17.573,eb_01,2022.2.4,99.91678804300675,
4,stimuli/4.png,l,0,0,0,0,73,0,73,0,0,0,0,0,,,,,,,,,,,,,,,,,,177.6815230656648,177.6815230656648,177.6815230656648,177.6815230656648,l,1,0.5640186501550488,178.2722279255686,178.2722279255686,178.2722279255686,,,,,,,,,,,,,,,,,,,,,,,,,,,,129,001,2023-03-03_14h11.17.573,eb_01,2022.2.4,99.91678804300675,
,,,0,0,0,0,73,0,73,0,,,,,,,,,,,,,,,,,,,,,,,,,,,,,,,,,,,,,,,,,,,,,,,,,,,,,,,,,,,129,001,2023-03-03_14h11.17.573,eb_01,2022.2.4,99.91678804300675,
3,stimuli/3.png,l,0,0,0,0,74,0,74,0,0,0,0,0,,,,,,,,,,,,,,,,,,179.28289058041992,179.28289058041992,179.28289058041992,179.28289058041992,l,1,0.6027237491507549,179.90299954329384,179.90299954329384,179.90299954329384,180.91369328901055,180.91369328901055,180.91369328901055,,,,,,,,,,,,,,,,,,,,,,,,,129,001,2023-03-03_14h11.17.573,eb_01,2022.2.4,99.91678804300675,
,,,0,0,0,0,74,0,74,0,,,,,,,,,,,,,,,,,,,,,,,,,,,,,,,,,,,,,,,,,,,,,,,,,,,,,,,,,,,129,001,2023-03-03_14h11.17.573,eb_01,2022.2.4,99.91678804300675,
4,stimuli/4.png,l,0,0,0,0,75,0,75,0,0,0,0,0,,,,,,,,,,,,,,,,,,180.91369328901055,180.91369328901055,180.91369328901055,180.91369328901055,l,1,0.5159404122678097,181.45435454626568,181.45435454626568,181.45435454626568,,,,,,,,,,,,,,,,,,,,,,,,,,,,129,001,2023-03-03_14h11.17.573,eb_01,2022.2.4,99.91678804300675,
,,,0,0,0,0,75,0,75,0,,,,,,,,,,,,,,,,,,,,,,,,,,,,,,,,,,,,,,,,,,,,,,,,,,,,,,,,,,,129,001,2023-03-03_14h11.17.573,eb_01,2022.2.4,99.91678804300675,
2,stimuli/2.png,s,0,0,0,0,76,0,76,0,0,0,0,0,,,,,,,,,,,,,,,,,,182.4650280678179,182.4650280678179,182.4650280678179,182.4650280678179,s,1,0.5486461831897032,183.02542718988843,183.02542718988843,183.02542718988843,184.04607000996475,184.04607000996475,184.04607000996475,,,,,,,,,,,,,,,,,,,,,,,,,129,001,2023-03-03_14h11.17.573,eb_01,2022.2.4,99.91678804300675,
,,,0,0,0,0,76,0,76,0,,,,,,,,,,,,,,,,,,,,,,,,,,,,,,,,,,,,,,,,,,,,,,,,,,,,,,,,,,,129,001,2023-03-03_14h11.17.573,eb_01,2022.2.4,99.91678804300675,
1,stimuli/1.png,s,0,0,0,0,77,0,77,0,0,0,0,0,,,,,,,,,,,,,,,,,,184.04607000996475,184.04607000996475,184.04607000996475,184.04607000996475,s,1,0.7277050720003899,184.80661275371676,184.80661275371676,184.80661275371676,,,,,,,,,,,,,,,,,,,,,,,,,,,,129,001,2023-03-03_14h11.17.573,eb_01,2022.2.4,99.91678804300675,
,,,0,0,0,0,77,0,77,0,,,,,,,,,,,,,,,,,,,,,,,,,,,,,,,,,,,,,,,,,,,,,,,,,,,,,,,,,,,129,001,2023-03-03_14h11.17.573,eb_01,2022.2.4,99.91678804300675,
4,stimuli/4.png,l,0,0,0,0,78,0,78,0,0,0,0,0,,,,,,,,,,,,,,,,,,185.8069450938492,185.8069450938492,185.8069450938492,185.8069450938492,l,1,0.5188584250863642,186.34760303073563,186.34760303073563,186.34760303073563,,,,,,,,,,,,,,,,,,,,,,,,,,,,129,001,2023-03-03_14h11.17.573,eb_01,2022.2.4,99.91678804300675,
,,,0,0,0,0,78,0,78,0,,,,,,,,,,,,,,,,,,,,,,,,,,,,,,,,,,,,,,,,,,,,,,,,,,,,,,,,,,,129,001,2023-03-03_14h11.17.573,eb_01,2022.2.4,99.91678804300675,
1,stimuli/1.png,s,0,0,0,0,79,0,79,0,0,0,0,0,,,,,,,,,,,,,,,,,,187.36835361234262,187.36835361234262,187.36835361234262,187.36835361234262,s,1,0.5245193759619724,187.92871077684686,187.92871077684686,187.92871077684686,,,,,,,,,,,,,,,,,,,,,,,,,,,,129,001,2023-03-03_14h11.17.573,eb_01,2022.2.4,99.91678804300675,
,,,0,0,0,0,79,0,79,0,,,,,,,,,,,,,,,,,,,,,,,,,,,,,,,,,,,,,,,,,,,,,,,,,,,,,,,,,,,129,001,2023-03-03_14h11.17.573,eb_01,2022.2.4,99.91678804300675,
4,stimuli/4.png,l,0,0,0,0,80,0,80,0,0,0,0,0,,,,,,,,,,,,,,,,,,188.92906092631165,188.92906092631165,188.92906092631165,188.92906092631165,l,1,0.7318522301502526,189.68985964139574,189.68985964139574,189.68985964139574,,,,,,,,,,,,,,,,,,,,,,,,,,,,129,001,2023-03-03_14h11.17.573,eb_01,2022.2.4,99.91678804300675,
,,,0,0,0,0,80,0,80,0,,,,,,,,,,,,,,,,,,,,,,,,,,,,,,,,,,,,,,,,,,,,,,,,,,,,,,,,,,,129,001,2023-03-03_14h11.17.573,eb_01,2022.2.4,99.91678804300675,
2,stimuli/2.png,s,0,0,0,0,81,0,81,0,0,0,0,0,,,,,,,,,,,,,,,,,,190.70057512051426,190.70057512051426,190.70057512051426,190.70057512051426,s,1,0.4563836109591648,191.17053667348227,191.17053667348227,191.17053667348227,192.1812467192358,192.1812467192358,192.1812467192358,,,,,,,,,,,,,,,,,,,,,,,,,129,001,2023-03-03_14h11.17.573,eb_01,2022.2.4,99.91678804300675,
,,,0,0,0,0,81,0,81,0,,,,,,,,,,,,,,,,,,,,,,,,,,,,,,,,,,,,,,,,,,,,,,,,,,,,,,,,,,,129,001,2023-03-03_14h11.17.573,eb_01,2022.2.4,99.91678804300675,
4,stimuli/4.png,l,0,0,0,0,82,0,82,0,0,0,0,0,,,,,,,,,,,,,,,,,,192.1812467192358,192.1812467192358,192.1812467192358,192.1812467192358,l,1,0.5117697095847689,192.72193121918826,192.72193121918826,192.72193121918826,,,,,,,,,,,,,,,,,,,,,,,,,,,,129,001,2023-03-03_14h11.17.573,eb_01,2022.2.4,99.91678804300675,
,,,0,0,0,0,82,0,82,0,,,,,,,,,,,,,,,,,,,,,,,,,,,,,,,,,,,,,,,,,,,,,,,,,,,,,,,,,,,129,001,2023-03-03_14h11.17.573,eb_01,2022.2.4,99.91678804300675,
2,stimuli/2.png,s,0,0,0,0,83,0,83,0,0,0,0,0,,,,,,,,,,,,,,,,,,193.7326080611092,193.7326080611092,193.7326080611092,193.7326080611092,s,1,0.40844664024189115,194.15256887456053,194.15256887456053,194.15256887456053,195.16320557004656,195.16320557004656,195.16320557004656,,,,,,,,,,,,,,,,,,,,,,,,,129,001,2023-03-03_14h11.17.573,eb_01,2022.2.4,99.91678804300675,
,,,0,0,0,0,83,0,83,0,,,,,,,,,,,,,,,,,,,,,,,,,,,,,,,,,,,,,,,,,,,,,,,,,,,,,,,,,,,129,001,2023-03-03_14h11.17.573,eb_01,2022.2.4,99.91678804300675,
4,stimuli/4.png,l,0,0,0,0,84,0,84,0,0,0,0,0,,,,,,,,,,,,,,,,,,195.16320557004656,195.16320557004656,195.16320557004656,195.16320557004656,l,1,0.42590340206515975,195.61387026539887,195.61387026539887,195.61387026539887,,,,,,,,,,,,,,,,,,,,,,,,,,,,129,001,2023-03-03_14h11.17.573,eb_01,2022.2.4,99.91678804300675,
,,,0,0,0,0,84,0,84,0,,,,,,,,,,,,,,,,,,,,,,,,,,,,,,,,,,,,,,,,,,,,,,,,,,,,,,,,,,,129,001,2023-03-03_14h11.17.573,eb_01,2022.2.4,99.91678804300675,
2,stimuli/2.png,s,0,0,0,0,85,0,85,0,0,0,0,0,,,,,,,,,,,,,,,,,,196.6245425795496,196.6245425795496,196.6245425795496,196.6245425795496,s,1,0.49260174320079386,197.13457270144136,197.13457270144136,197.13457270144136,198.1555801599461,198.1555801599461,198.1555801599461,,,,,,,,,,,,,,,,,,,,,,,,,129,001,2023-03-03_14h11.17.573,eb_01,2022.2.4,99.91678804300675,
,,,0,0,0,0,85,0,85,0,,,,,,,,,,,,,,,,,,,,,,,,,,,,,,,,,,,,,,,,,,,,,,,,,,,,,,,,,,,129,001,2023-03-03_14h11.17.573,eb_01,2022.2.4,99.91678804300675,
1,stimuli/1.png,s,0,0,0,0,86,0,86,0,0,0,0,0,,,,,,,,,,,,,,,,,,198.1555801599461,198.1555801599461,198.1555801599461,198.1555801599461,s,1,0.5616011095989961,198.7456538452825,198.7456538452825,198.7456538452825,,,,,,,,,,,,,,,,,,,,,,,,,,,,129,001,2023-03-03_14h11.17.573,eb_01,2022.2.4,99.91678804300675,
,,,0,0,0,0,86,0,86,0,,,,,,,,,,,,,,,,,,,,,,,,,,,,,,,,,,,,,,,,,,,,,,,,,,,,,,,,,,,129,001,2023-03-03_14h11.17.573,eb_01,2022.2.4,99.91678804300675,
2,stimuli/2.png,s,0,0,0,0,87,0,87,0,0,0,0,0,,,,,,,,,,,,,,,,,,199.75663918093778,199.75663918093778,199.75663918093778,199.75663918093778,s,1,0.5366212658118457,200.30670195128187,200.30670195128187,200.30670195128187,201.31735977646895,201.31735977646895,201.31735977646895,,,,,,,,,,,,,,,,,,,,,,,,,129,001,2023-03-03_14h11.17.573,eb_01,2022.2.4,99.91678804300675,
,,,0,0,0,0,87,0,87,0,,,,,,,,,,,,,,,,,,,,,,,,,,,,,,,,,,,,,,,,,,,,,,,,,,,,,,,,,,,129,001,2023-03-03_14h11.17.573,eb_01,2022.2.4,99.91678804300675,
4,stimuli/4.png,l,0,0,0,0,88,0,88,0,0,0,0,0,,,,,,,,,,,,,,,,,,201.31735977646895,201.31735977646895,201.31735977646895,201.31735977646895,l,1,0.6079252797644585,201.94779663922964,201.94779663922964,201.94779663922964,,,,,,,,,,,,,,,,,,,,,,,,,,,,129,001,2023-03-03_14h11.17.573,eb_01,2022.2.4,99.91678804300675,
,,,0,0,0,0,88,0,88,0,,,,,,,,,,,,,,,,,,,,,,,,,,,,,,,,,,,,,,,,,,,,,,,,,,,,,,,,,,,129,001,2023-03-03_14h11.17.573,eb_01,2022.2.4,99.91678804300675,
3,stimuli/3.png,l,0,0,0,0,89,0,89,0,0,0,0,0,,,,,,,,,,,,,,,,,,202.94877494475804,202.94877494475804,202.94877494475804,202.94877494475804,l,1,0.47959157766308635,203.43880609900225,203.43880609900225,203.43880609900225,204.4497866050515,204.4497866050515,204.4497866050515,,,,,,,,,,,,,,,,,,,,,,,,,129,001,2023-03-03_14h11.17.573,eb_01,2022.2.4,99.91678804300675,
,,,0,0,0,0,89,0,89,0,,,,,,,,,,,,,,,,,,,,,,,,,,,,,,,,,,,,,,,,,,,,,,,,,,,,,,,,,,,129,001,2023-03-03_14h11.17.573,eb_01,2022.2.4,99.91678804300675,
2,stimuli/2.png,s,0,0,0,0,90,0,90,0,0,0,0,0,,,,,,,,,,,,,,,,,,204.4497866050515,204.4497866050515,204.4497866050515,204.4497866050515,s,1,0.45860947485198267,204.91978226741776,204.91978226741776,204.91978226741776,205.93081982366857,205.93081982366857,205.93081982366857,,,,,,,,,,,,,,,,,,,,,,,,,129,001,2023-03-03_14h11.17.573,eb_01,2022.2.4,99.91678804300675,
,,,0,0,0,0,90,0,90,0,,,,,,,,,,,,,,,,,,,,,,,,,,,,,,,,,,,,,,,,,,,,,,,,,,,,,,,,,,,129,001,2023-03-03_14h11.17.573,eb_01,2022.2.4,99.91678804300675,
3,stimuli/3.png,l,0,0,0,0,91,0,91,0,0,0,0,0,,,,,,,,,,,,,,,,,,205.93081982366857,205.93081982366857,205.93081982366857,205.93081982366857,l,1,0.5936557836248539,206.5408891562838,206.5408891562838,206.5408891562838,207.55191041246871,207.55191041246871,207.55191041246871,,,,,,,,,,,,,,,,,,,,,,,,,129,001,2023-03-03_14h11.17.573,eb_01,2022.2.4,99.91678804300675,
,,,0,0,0,0,91,0,91,0,,,,,,,,,,,,,,,,,,,,,,,,,,,,,,,,,,,,,,,,,,,,,,,,,,,,,,,,,,,129,001,2023-03-03_14h11.17.573,eb_01,2022.2.4,99.91678804300675,
2,stimuli/2.png,s,0,0,0,0,92,0,92,0,0,0,0,0,,,,,,,,,,,,,,,,,,207.55191041246871,207.55191041246871,207.55191041246871,207.55191041246871,s,1,0.4445862907450646,208.01187761311303,208.01187761311303,208.01187761311303,209.0225656235998,209.0225656235998,209.0225656235998,,,,,,,,,,,,,,,,,,,,,,,,,129,001,2023-03-03_14h11.17.573,eb_01,2022.2.4,99.91678804300675,
,,,0,0,0,0,92,0,92,0,,,,,,,,,,,,,,,,,,,,,,,,,,,,,,,,,,,,,,,,,,,,,,,,,,,,,,,,,,,129,001,2023-03-03_14h11.17.573,eb_01,2022.2.4,99.91678804300675,
4,stimuli/4.png,l,0,0,0,0,93,0,93,0,0,0,0,0,,,,,,,,,,,,,,,,,,209.0225656235998,209.0225656235998,209.0225656235998,209.0225656235998,l,1,0.509985758428229,209.55323403779767,209.55323403779767,209.55323403779767,,,,,,,,,,,,,,,,,,,,,,,,,,,,129,001,2023-03-03_14h11.17.573,eb_01,2022.2.4,99.91678804300675,
,,,0,0,0,0,93,0,93,0,,,,,,,,,,,,,,,,,,,,,,,,,,,,,,,,,,,,,,,,,,,,,,,,,,,,,,,,,,,129,001,2023-03-03_14h11.17.573,eb_01,2022.2.4,99.91678804300675,
2,stimuli/2.png,s,0,0,0,0,94,0,94,0,0,0,0,0,,,,,,,,,,,,,,,,,,210.56391148341936,210.56391148341936,210.56391148341936,210.56391148341936,s,1,0.4966939640871715,211.07393285160651,211.07393285160651,211.07393285160651,212.08459973239223,212.08459973239223,212.08459973239223,,,,,,,,,,,,,,,,,,,,,,,,,129,001,2023-03-03_14h11.17.573,eb_01,2022.2.4,99.91678804300675,
,,,0,0,0,0,94,0,94,0,,,,,,,,,,,,,,,,,,,,,,,,,,,,,,,,,,,,,,,,,,,,,,,,,,,,,,,,,,,129,001,2023-03-03_14h11.17.573,eb_01,2022.2.4,99.91678804300675,
4,stimuli/4.png,l,0,0,0,0,95,0,95,0,0,0,0,0,,,,,,,,,,,,,,,,,,212.08459973239223,212.08459973239223,212.08459973239223,212.08459973239223,l,1,0.4240153116406873,212.53523062021122,212.53523062021122,212.53523062021122,,,,,,,,,,,,,,,,,,,,,,,,,,,,129,001,2023-03-03_14h11.17.573,eb_01,2022.2.4,99.91678804300675,
,,,0,0,0,0,95,0,95,0,,,,,,,,,,,,,,,,,,,,,,,,,,,,,,,,,,,,,,,,,,,,,,,,,,,,,,,,,,,129,001,2023-03-03_14h11.17.573,eb_01,2022.2.4,99.91678804300675,
3,stimuli/3.png,l,0,0,0,0,96,0,96,0,0,0,0,0,,,,,,,,,,,,,,,,,,213.54591712143156,213.54591712143156,213.54591712143156,213.54591712143156,l,1,0.5387695535318926,214.09593250084436,214.09593250084436,214.09593250084436,215.1069649255951,215.1069649255951,215.1069649255951,,,,,,,,,,,,,,,,,,,,,,,,,129,001,2023-03-03_14h11.17.573,eb_01,2022.2.4,99.91678804300675,
,,,0,0,0,0,96,0,96,0,,,,,,,,,,,,,,,,,,,,,,,,,,,,,,,,,,,,,,,,,,,,,,,,,,,,,,,,,,,129,001,2023-03-03_14h11.17.573,eb_01,2022.2.4,99.91678804300675,
8,stimuli/8.png,l,0,0,0,0,97,0,97,0,0,0,0,0,,,,,,,,,,,,,,,,,,215.1069649255951,215.1069649255951,215.1069649255951,215.1069649255951,l,1,0.6977802726323716,215.82745932455873,215.82745932455873,215.82745932455873,,,,,,,,,,,,,,,,,,,,,,,,,,,,129,001,2023-03-03_14h11.17.573,eb_01,2022.2.4,99.91678804300675,
,,,0,0,0,0,97,0,97,0,,,,,,,,,,,,,,,,,,,,,,,,,,,,,,,,,,,,,,,,,,,,,,,,,,,,,,,,,,,129,001,2023-03-03_14h11.17.573,eb_01,2022.2.4,99.91678804300675,
6,stimuli/6.png,s,0,0,0,0,98,0,98,0,0,0,0,0,,,,,,,,,,,,,,,,,,216.84815376150073,216.84815376150073,216.84815376150073,216.84815376150073,s,1,0.5166364852339029,217.3985051032796,217.3985051032796,217.3985051032796,,,,,,,,,,,,,,,,,,,,,,,,,,,,129,001,2023-03-03_14h11.17.573,eb_01,2022.2.4,99.91678804300675,
,,,0,0,0,0,98,0,98,0,,,,,,,,,,,,,,,,,,,,,,,,,,,,,,,,,,,,,,,,,,,,,,,,,,,,,,,,,,,129,001,2023-03-03_14h11.17.573,eb_01,2022.2.4,99.91678804300675,
8,stimuli/8.png,l,0,0,0,0,99,0,99,0,0,0,0,0,,,,,,,,,,,,,,,,,,218.39919091327465,218.39919091327465,218.39919091327465,218.39919091327465,l,1,0.460688034479972,218.8895003759535,218.8895003759535,218.8895003759535,,,,,,,,,,,,,,,,,,,,,,,,,,,,129,001,2023-03-03_14h11.17.573,eb_01,2022.2.4,99.91678804300675,
,,,0,0,0,0,99,0,99,0,,,,,,,,,,,,,,,,,,,,,,,,,,,,,,,,,,,,,,,,,,,,,,,,,,,,,,,,,,,129,001,2023-03-03_14h11.17.573,eb_01,2022.2.4,99.91678804300675,
,,,0,0,0,0,,,,,,,,,,,,,,,,,,,,,,,,,,,,,,,,,,,,,,,219.89016052844818,219.89016052844818,return,8.866048822761513,,,,,,,,,,,,,,,,,,,,,129,001,2023-03-03_14h11.17.573,eb_01,2022.2.4,99.91678804300675,
9,stimuli/9.png,l,1,0,1,0,0,0,0,0,0,0,0,0,,,,,,,,,,,,,,,,,,228.7861175397411,228.7861175397411,228.7861175397411,228.7861175397411,l,1,2.2421027047384996,231.05767203131109,231.05767203131109,231.05767203131109,,,,,,,,,,,,,,,,,,,,,,,,,,,,129,001,2023-03-03_14h11.17.573,eb_01,2022.2.4,99.91678804300675,
,,,1,0,1,0,0,0,0,0,,,,,,,,,,,,,,,,,,,,,,,,,,,,,,,,,,,,,,,,,,,,,,,,,,,,,,,,,,,129,001,2023-03-03_14h11.17.573,eb_01,2022.2.4,99.91678804300675,
5,stimuli/5.png,s,1,0,1,0,1,0,1,0,0,0,0,0,,,,,,,,,,,,,,,,,,232.06835883439635,232.06835883439635,232.06835883439635,232.06835883439635,s,1,0.5279239757801406,232.618724061409,232.618724061409,232.618724061409,,,,,,,,,,,,,,,,,,,,,,,,,,,,129,001,2023-03-03_14h11.17.573,eb_01,2022.2.4,99.91678804300675,
,,,1,0,1,0,1,0,1,0,,,,,,,,,,,,,,,,,,,,,,,,,,,,,,,,,,,,,,,,,,,,,,,,,,,,,,,,,,,129,001,2023-03-03_14h11.17.573,eb_01,2022.2.4,99.91678804300675,
6,stimuli/6.png,s,1,0,1,0,2,0,2,0,0,0,0,0,,,,,,,,,,,,,,,,,,233.63941276315018,233.63941276315018,233.63941276315018,233.63941276315018,s,1,0.5169202270626556,234.18978553649504,234.18978553649504,234.18978553649504,,,,,,,,,,,,,,,,,,,,,,,,,,,,129,001,2023-03-03_14h11.17.573,eb_01,2022.2.4,99.91678804300675,
,,,1,0,1,0,2,0,2,0,,,,,,,,,,,,,,,,,,,,,,,,,,,,,,,,,,,,,,,,,,,,,,,,,,,,,,,,,,,129,001,2023-03-03_14h11.17.573,eb_01,2022.2.4,99.91678804300675,
8,stimuli/8.png,l,1,0,1,0,3,0,3,0,0,0,0,0,,,,,,,,,,,,,,,,,,235.1904565556615,235.1904565556615,235.1904565556615,235.1904565556615,l,1,0.6529394080280326,235.87091951363254,235.87091951363254,235.87091951363254,,,,,,,,,,,,,,,,,,,,,,,,,,,,129,001,2023-03-03_14h11.17.573,eb_01,2022.2.4,99.91678804300675,
,,,1,0,1,0,3,0,3,0,,,,,,,,,,,,,,,,,,,,,,,,,,,,,,,,,,,,,,,,,,,,,,,,,,,,,,,,,,,129,001,2023-03-03_14h11.17.573,eb_01,2022.2.4,99.91678804300675,
3,stimuli/3.png,l,1,0,1,0,4,0,4,0,0,0,0,0,,,,,,,,,,,,,,,,,,236.8815812629182,236.8815812629182,236.8815812629182,236.8815812629182,l,1,0.4818464194831904,237.38159439351875,237.38159439351875,237.38159439351875,238.39259723667055,238.39259723667055,238.39259723667055,,,,,,,,,,,,,,,,,,,,,,,,,129,001,2023-03-03_14h11.17.573,eb_01,2022.2.4,99.91678804300675,
,,,1,0,1,0,4,0,4,0,,,,,,,,,,,,,,,,,,,,,,,,,,,,,,,,,,,,,,,,,,,,,,,,,,,,,,,,,,,129,001,2023-03-03_14h11.17.573,eb_01,2022.2.4,99.91678804300675,
8,stimuli/8.png,l,1,0,1,0,5,0,5,0,0,0,0,0,,,,,,,,,,,,,,,,,,238.39259723667055,238.39259723667055,238.39259723667055,238.39259723667055,l,1,0.5148908694391139,238.93294003902702,238.93294003902702,238.93294003902702,,,,,,,,,,,,,,,,,,,,,,,,,,,,129,001,2023-03-03_14h11.17.573,eb_01,2022.2.4,99.91678804300675,
,,,1,0,1,0,5,0,5,0,,,,,,,,,,,,,,,,,,,,,,,,,,,,,,,,,,,,,,,,,,,,,,,,,,,,,,,,,,,129,001,2023-03-03_14h11.17.573,eb_01,2022.2.4,99.91678804300675,
3,stimuli/3.png,l,1,0,1,0,6,0,6,0,0,0,0,0,,,,,,,,,,,,,,,,,,239.94364736811258,239.94364736811258,239.94364736811258,239.94364736811258,l,1,0.5158939269022085,240.4736538187135,240.4736538187135,240.4736538187135,241.48431798280217,241.48431798280217,241.48431798280217,,,,,,,,,,,,,,,,,,,,,,,,,129,001,2023-03-03_14h11.17.573,eb_01,2022.2.4,99.91678804300675,
,,,1,0,1,0,6,0,6,0,,,,,,,,,,,,,,,,,,,,,,,,,,,,,,,,,,,,,,,,,,,,,,,,,,,,,,,,,,,129,001,2023-03-03_14h11.17.573,eb_01,2022.2.4,99.91678804300675,
4,stimuli/4.png,l,1,0,1,0,7,0,7,0,0,0,0,0,,,,,,,,,,,,,,,,,,241.48431798280217,241.48431798280217,241.48431798280217,241.48431798280217,l,1,0.4792450504610315,241.98502507343073,241.98502507343073,241.98502507343073,,,,,,,,,,,,,,,,,,,,,,,,,,,,129,001,2023-03-03_14h11.17.573,eb_01,2022.2.4,99.91678804300675,
,,,1,0,1,0,7,0,7,0,,,,,,,,,,,,,,,,,,,,,,,,,,,,,,,,,,,,,,,,,,,,,,,,,,,,,,,,,,,129,001,2023-03-03_14h11.17.573,eb_01,2022.2.4,99.91678804300675,
1,stimuli/1.png,s,1,0,1,0,8,0,8,0,0,0,0,0,,,,,,,,,,,,,,,,,,243.0057041158725,243.0057041158725,243.0057041158725,243.0057041158725,s,1,0.43793405464384705,243.46568882398424,243.46568882398424,243.46568882398424,,,,,,,,,,,,,,,,,,,,,,,,,,,,129,001,2023-03-03_14h11.17.573,eb_01,2022.2.4,99.91678804300675,
,,,1,0,1,0,8,0,8,0,,,,,,,,,,,,,,,,,,,,,,,,,,,,,,,,,,,,,,,,,,,,,,,,,,,,,,,,,,,129,001,2023-03-03_14h11.17.573,eb_01,2022.2.4,99.91678804300675,
2,stimuli/2.png,s,1,0,1,0,9,0,9,0,0,0,0,0,,,,,,,,,,,,,,,,,,244.47665031329961,244.47665031329961,244.47665031329961,244.47665031329961,s,1,0.5110540161549579,245.00711769339978,245.00711769339978,245.00711769339978,246.01739307085518,246.01739307085518,246.01739307085518,,,,,,,,,,,,,,,,,,,,,,,,,129,001,2023-03-03_14h11.17.573,eb_01,2022.2.4,99.91678804300675,
,,,1,0,1,0,9,0,9,0,,,,,,,,,,,,,,,,,,,,,,,,,,,,,,,,,,,,,,,,,,,,,,,,,,,,,,,,,,,129,001,2023-03-03_14h11.17.573,eb_01,2022.2.4,99.91678804300675,
4,stimuli/4.png,l,1,0,1,0,10,0,10,0,0,0,0,0,,,,,,,,,,,,,,,,,,246.01739307085518,246.01739307085518,246.01739307085518,246.01739307085518,l,1,0.35433315378031693,246.39798229391454,246.39798229391454,246.39798229391454,,,,,,,,,,,,,,,,,,,,,,,,,,,,129,001,2023-03-03_14h11.17.573,eb_01,2022.2.4,99.91678804300675,
,,,1,0,1,0,10,0,10,0,,,,,,,,,,,,,,,,,,,,,,,,,,,,,,,,,,,,,,,,,,,,,,,,,,,,,,,,,,,129,001,2023-03-03_14h11.17.573,eb_01,2022.2.4,99.91678804300675,
1,stimuli/1.png,s,1,0,1,0,11,0,11,0,0,0,0,0,,,,,,,,,,,,,,,,,,247.41866827895865,247.41866827895865,247.41866827895865,247.41866827895865,s,1,0.5450900531723164,247.99903527786955,247.99903527786955,247.99903527786955,,,,,,,,,,,,,,,,,,,,,,,,,,,,129,001,2023-03-03_14h11.17.573,eb_01,2022.2.4,99.91678804300675,
,,,1,0,1,0,11,0,11,0,,,,,,,,,,,,,,,,,,,,,,,,,,,,,,,,,,,,,,,,,,,,,,,,,,,,,,,,,,,129,001,2023-03-03_14h11.17.573,eb_01,2022.2.4,99.91678804300675,
4,stimuli/4.png,l,1,0,1,0,12,0,12,0,0,0,0,0,,,,,,,,,,,,,,,,,,248.99939538846957,248.99939538846957,248.99939538846957,248.99939538846957,l,1,0.508433932234766,249.5300828194013,249.5300828194013,249.5300828194013,,,,,,,,,,,,,,,,,,,,,,,,,,,,129,001,2023-03-03_14h11.17.573,eb_01,2022.2.4,99.91678804300675,
,,,1,0,1,0,12,0,12,0,,,,,,,,,,,,,,,,,,,,,,,,,,,,,,,,,,,,,,,,,,,,,,,,,,,,,,,,,,,129,001,2023-03-03_14h11.17.573,eb_01,2022.2.4,99.91678804300675,
1,stimuli/1.png,s,1,0,1,0,13,0,13,0,0,0,0,0,,,,,,,,,,,,,,,,,,250.55077121930663,250.55077121930663,250.55077121930663,250.55077121930663,s,1,0.34810743597336113,250.9310244799708,250.9310244799708,250.9310244799708,,,,,,,,,,,,,,,,,,,,,,,,,,,,129,001,2023-03-03_14h11.17.573,eb_01,2022.2.4,99.91678804300675,
,,,1,0,1,0,13,0,13,0,,,,,,,,,,,,,,,,,,,,,,,,,,,,,,,,,,,,,,,,,,,,,,,,,,,,,,,,,,,129,001,2023-03-03_14h11.17.573,eb_01,2022.2.4,99.91678804300675,
4,stimuli/4.png,l,1,0,1,0,14,0,14,0,0,0,0,0,,,,,,,,,,,,,,,,,,251.9313800628006,251.9313800628006,251.9313800628006,251.9313800628006,l,1,0.3435361743613612,252.30194565380225,252.30194565380225,252.30194565380225,,,,,,,,,,,,,,,,,,,,,,,,,,,,129,001,2023-03-03_14h11.17.573,eb_01,2022.2.4,99.91678804300675,
,,,1,0,1,0,14,0,14,0,,,,,,,,,,,,,,,,,,,,,,,,,,,,,,,,,,,,,,,,,,,,,,,,,,,,,,,,,,,129,001,2023-03-03_14h11.17.573,eb_01,2022.2.4,99.91678804300675,
3,stimuli/3.png,l,1,0,1,0,15,0,15,0,0,0,0,0,,,,,,,,,,,,,,,,,,253.3126312494569,253.3126312494569,253.3126312494569,253.3126312494569,l,1,0.5063381669751834,253.8326584403694,253.8326584403694,253.8326584403694,254.8433358860202,254.8433358860202,254.8433358860202,,,,,,,,,,,,,,,,,,,,,,,,,129,001,2023-03-03_14h11.17.573,eb_01,2022.2.4,99.91678804300675,
,,,1,0,1,0,15,0,15,0,,,,,,,,,,,,,,,,,,,,,,,,,,,,,,,,,,,,,,,,,,,,,,,,,,,,,,,,,,,129,001,2023-03-03_14h11.17.573,eb_01,2022.2.4,99.91678804300675,
4,stimuli/4.png,l,1,0,1,0,16,0,16,0,0,0,0,0,,,,,,,,,,,,,,,,,,254.8433358860202,254.8433358860202,254.8433358860202,254.8433358860202,l,1,0.5916813632647973,255.46405911972397,255.46405911972397,255.46405911972397,,,,,,,,,,,,,,,,,,,,,,,,,,,,129,001,2023-03-03_14h11.17.573,eb_01,2022.2.4,99.91678804300675,
,,,1,0,1,0,16,0,16,0,,,,,,,,,,,,,,,,,,,,,,,,,,,,,,,,,,,,,,,,,,,,,,,,,,,,,,,,,,,129,001,2023-03-03_14h11.17.573,eb_01,2022.2.4,99.91678804300675,
1,stimuli/1.png,s,1,0,1,0,17,0,17,0,0,0,0,0,,,,,,,,,,,,,,,,,,256.4847592918668,256.4847592918668,256.4847592918668,256.4847592918668,s,1,0.4943017791956663,257.004787388345,257.004787388345,257.004787388345,,,,,,,,,,,,,,,,,,,,,,,,,,,,129,001,2023-03-03_14h11.17.573,eb_01,2022.2.4,99.91678804300675,
,,,1,0,1,0,17,0,17,0,,,,,,,,,,,,,,,,,,,,,,,,,,,,,,,,,,,,,,,,,,,,,,,,,,,,,,,,,,,129,001,2023-03-03_14h11.17.573,eb_01,2022.2.4,99.91678804300675,
4,stimuli/4.png,l,1,0,1,0,18,0,18,0,0,0,0,0,,,,,,,,,,,,,,,,,,258.01546664509806,258.01546664509806,258.01546664509806,258.01546664509806,l,1,0.36366373143391684,258.40606229461264,258.40606229461264,258.40606229461264,,,,,,,,,,,,,,,,,,,,,,,,,,,,129,001,2023-03-03_14h11.17.573,eb_01,2022.2.4,99.91678804300675,
,,,1,0,1,0,18,0,18,0,,,,,,,,,,,,,,,,,,,,,,,,,,,,,,,,,,,,,,,,,,,,,,,,,,,,,,,,,,,129,001,2023-03-03_14h11.17.573,eb_01,2022.2.4,99.91678804300675,
2,stimuli/2.png,s,1,0,1,0,19,0,19,0,0,0,0,0,,,,,,,,,,,,,,,,,,259.41671740313177,259.41671740313177,259.41671740313177,259.41671740313177,s,1,0.4664283726888243,259.8967240197526,259.8967240197526,259.8967240197526,260.9073981450056,260.9073981450056,260.9073981450056,,,,,,,,,,,,,,,,,,,,,,,,,129,001,2023-03-03_14h11.17.573,eb_01,2022.2.4,99.91678804300675,
,,,1,0,1,0,19,0,19,0,,,,,,,,,,,,,,,,,,,,,,,,,,,,,,,,,,,,,,,,,,,,,,,,,,,,,,,,,,,129,001,2023-03-03_14h11.17.573,eb_01,2022.2.4,99.91678804300675,
4,stimuli/4.png,l,1,0,1,0,20,0,20,0,0,0,0,0,,,,,,,,,,,,,,,,,,260.9073981450056,260.9073981450056,260.9073981450056,260.9073981450056,l,1,0.37579037321847863,261.3079993154097,261.3079993154097,261.3079993154097,,,,,,,,,,,,,,,,,,,,,,,,,,,,129,001,2023-03-03_14h11.17.573,eb_01,2022.2.4,99.91678804300675,
,,,1,0,1,0,20,0,20,0,,,,,,,,,,,,,,,,,,,,,,,,,,,,,,,,,,,,,,,,,,,,,,,,,,,,,,,,,,,129,001,2023-03-03_14h11.17.573,eb_01,2022.2.4,99.91678804300675,
3,stimuli/3.png,l,1,0,1,0,21,0,21,0,0,0,0,0,,,,,,,,,,,,,,,,,,262.3186791758635,262.3186791758635,262.3186791758635,262.3186791758635,l,1,0.5965713816112839,262.928769336344,262.928769336344,262.928769336344,263.9394102577644,263.9394102577644,263.9394102577644,,,,,,,,,,,,,,,,,,,,,,,,,129,001,2023-03-03_14h11.17.573,eb_01,2022.2.4,99.91678804300675,
,,,1,0,1,0,21,0,21,0,,,,,,,,,,,,,,,,,,,,,,,,,,,,,,,,,,,,,,,,,,,,,,,,,,,,,,,,,,,129,001,2023-03-03_14h11.17.573,eb_01,2022.2.4,99.91678804300675,
4,stimuli/4.png,l,1,0,1,0,22,0,22,0,0,0,0,0,,,,,,,,,,,,,,,,,,263.9394102577644,263.9394102577644,263.9394102577644,263.9394102577644,l,1,0.639899359055562,264.60021141782636,264.60021141782636,264.60021141782636,,,,,,,,,,,,,,,,,,,,,,,,,,,,129,001,2023-03-03_14h11.17.573,eb_01,2022.2.4,99.91678804300675,
,,,1,0,1,0,22,0,22,0,,,,,,,,,,,,,,,,,,,,,,,,,,,,,,,,,,,,,,,,,,,,,,,,,,,,,,,,,,,129,001,2023-03-03_14h11.17.573,eb_01,2022.2.4,99.91678804300675,
3,stimuli/3.png,l,1,0,1,0,23,0,23,0,0,0,0,0,,,,,,,,,,,,,,,,,,265.6108927875757,265.6108927875757,265.6108927875757,265.6108927875757,l,1,0.43945509180775844,266.06087318219943,266.06087318219943,266.06087318219943,267.07185036785086,267.07185036785086,267.07185036785086,,,,,,,,,,,,,,,,,,,,,,,,,129,001,2023-03-03_14h11.17.573,eb_01,2022.2.4,99.91678804300675,
,,,1,0,1,0,23,0,23,0,,,,,,,,,,,,,,,,,,,,,,,,,,,,,,,,,,,,,,,,,,,,,,,,,,,,,,,,,,,129,001,2023-03-03_14h11.17.573,eb_01,2022.2.4,99.91678804300675,
2,stimuli/2.png,s,1,0,1,0,24,0,24,0,0,0,0,0,,,,,,,,,,,,,,,,,,267.07185036785086,267.07185036785086,267.07185036785086,267.07185036785086,s,1,0.5865474476886448,267.6723114181077,267.6723114181077,267.6723114181077,268.68259917153046,268.68259917153046,268.68259917153046,,,,,,,,,,,,,,,,,,,,,,,,,129,001,2023-03-03_14h11.17.573,eb_01,2022.2.4,99.91678804300675,
,,,1,0,1,0,24,0,24,0,,,,,,,,,,,,,,,,,,,,,,,,,,,,,,,,,,,,,,,,,,,,,,,,,,,,,,,,,,,129,001,2023-03-03_14h11.17.573,eb_01,2022.2.4,99.91678804300675,
4,stimuli/4.png,l,1,0,1,0,25,0,25,0,0,0,0,0,,,,,,,,,,,,,,,,,,268.68259917153046,268.68259917153046,268.68259917153046,268.68259917153046,l,1,0.3598739671870135,269.0632074113528,269.0632074113528,269.0632074113528,,,,,,,,,,,,,,,,,,,,,,,,,,,,129,001,2023-03-03_14h11.17.573,eb_01,2022.2.4,99.91678804300675,
,,,1,0,1,0,25,0,25,0,,,,,,,,,,,,,,,,,,,,,,,,,,,,,,,,,,,,,,,,,,,,,,,,,,,,,,,,,,,129,001,2023-03-03_14h11.17.573,eb_01,2022.2.4,99.91678804300675,
2,stimuli/2.png,s,1,0,1,0,26,0,26,0,0,0,0,0,,,,,,,,,,,,,,,,,,270.0738800273393,270.0738800273393,270.0738800273393,270.0738800273393,s,1,0.5366306232754141,270.623938269855,270.623938269855,270.623938269855,271.63460665990715,271.63460665990715,271.63460665990715,,,,,,,,,,,,,,,,,,,,,,,,,129,001,2023-03-03_14h11.17.573,eb_01,2022.2.4,99.91678804300675,
,,,1,0,1,0,26,0,26,0,,,,,,,,,,,,,,,,,,,,,,,,,,,,,,,,,,,,,,,,,,,,,,,,,,,,,,,,,,,129,001,2023-03-03_14h11.17.573,eb_01,2022.2.4,99.91678804300675,
4,stimuli/4.png,l,1,0,1,0,27,0,27,0,0,0,0,0,,,,,,,,,,,,,,,,,,271.63460665990715,271.63460665990715,271.63460665990715,271.63460665990715,l,1,0.33591770689236,271.9951733707858,271.9951733707858,271.9951733707858,,,,,,,,,,,,,,,,,,,,,,,,,,,,129,001,2023-03-03_14h11.17.573,eb_01,2022.2.4,99.91678804300675,
,,,1,0,1,0,27,0,27,0,,,,,,,,,,,,,,,,,,,,,,,,,,,,,,,,,,,,,,,,,,,,,,,,,,,,,,,,,,,129,001,2023-03-03_14h11.17.573,eb_01,2022.2.4,99.91678804300675,
1,stimuli/1.png,s,1,0,1,0,28,0,28,0,0,0,0,0,,,,,,,,,,,,,,,,,,273.0158678077278,273.0158678077278,273.0158678077278,273.0158678077278,s,1,0.32270560174947605,273.3761190822115,273.3761190822115,273.3761190822115,,,,,,,,,,,,,,,,,,,,,,,,,,,,129,001,2023-03-03_14h11.17.573,eb_01,2022.2.4,99.91678804300675,
,,,1,0,1,0,28,0,28,0,,,,,,,,,,,,,,,,,,,,,,,,,,,,,,,,,,,,,,,,,,,,,,,,,,,,,,,,,,,129,001,2023-03-03_14h11.17.573,eb_01,2022.2.4,99.91678804300675,
2,stimuli/2.png,s,1,0,1,0,29,0,29,0,0,0,0,0,,,,,,,,,,,,,,,,,,274.376784969907,274.376784969907,274.376784969907,274.376784969907,s,1,0.5058518818113953,274.89681427378673,274.89681427378673,274.89681427378673,275.9077932705695,275.9077932705695,275.9077932705695,,,,,,,,,,,,,,,,,,,,,,,,,129,001,2023-03-03_14h11.17.573,eb_01,2022.2.4,99.91678804300675,
,,,1,0,1,0,29,0,29,0,,,,,,,,,,,,,,,,,,,,,,,,,,,,,,,,,,,,,,,,,,,,,,,,,,,,,,,,,,,129,001,2023-03-03_14h11.17.573,eb_01,2022.2.4,99.91678804300675,
3,stimuli/3.png,l,1,0,1,0,30,0,30,0,0,0,0,0,,,,,,,,,,,,,,,,,,275.9077932705695,275.9077932705695,275.9077932705695,275.9077932705695,l,1,0.39888755994616076,276.3177549020329,276.3177549020329,276.3177549020329,277.32846343852,277.32846343852,277.32846343852,,,,,,,,,,,,,,,,,,,,,,,,,129,001,2023-03-03_14h11.17.573,eb_01,2022.2.4,99.91678804300675,
,,,1,0,1,0,30,0,30,0,,,,,,,,,,,,,,,,,,,,,,,,,,,,,,,,,,,,,,,,,,,,,,,,,,,,,,,,,,,129,001,2023-03-03_14h11.17.573,eb_01,2022.2.4,99.91678804300675,
4,stimuli/4.png,l,1,0,1,0,31,0,31,0,0,0,0,0,,,,,,,,,,,,,,,,,,277.32846343852,277.32846343852,277.32846343852,277.32846343852,l,1,0.5462334722978994,277.89916118074325,277.89916118074325,277.89916118074325,,,,,,,,,,,,,,,,,,,,,,,,,,,,129,001,2023-03-03_14h11.17.573,eb_01,2022.2.4,99.91678804300675,
,,,1,0,1,0,31,0,31,0,,,,,,,,,,,,,,,,,,,,,,,,,,,,,,,,,,,,,,,,,,,,,,,,,,,,,,,,,,,129,001,2023-03-03_14h11.17.573,eb_01,2022.2.4,99.91678804300675,
2,stimuli/2.png,s,1,0,1,0,32,0,32,0,0,0,0,0,,,,,,,,,,,,,,,,,,278.9098283633939,278.9098283633939,278.9098283633939,278.9098283633939,s,1,0.5409362542559393,279.4698815619631,279.4698815619631,279.4698815619631,280.4908775500371,280.4908775500371,280.4908775500371,,,,,,,,,,,,,,,,,,,,,,,,,129,001,2023-03-03_14h11.17.573,eb_01,2022.2.4,99.91678804300675,
,,,1,0,1,0,32,0,32,0,,,,,,,,,,,,,,,,,,,,,,,,,,,,,,,,,,,,,,,,,,,,,,,,,,,,,,,,,,,129,001,2023-03-03_14h11.17.573,eb_01,2022.2.4,99.91678804300675,
1,stimuli/1.png,s,1,0,1,0,33,0,33,0,0,0,0,0,,,,,,,,,,,,,,,,,,280.4908775500371,280.4908775500371,280.4908775500371,280.4908775500371,l,0,0.4229902189108543,280.9512229724787,280.9512229724787,280.9512229724787,,,,,,,,,,,,,,,,,,,,,,,,,,,,129,001,2023-03-03_14h11.17.573,eb_01,2022.2.4,99.91678804300675,
,,,1,0,1,0,33,0,33,0,,,,,,,,,,,,,,,,,,,,,,,,,,,,,,,,,,,,,,,,,,,,,,,,,,,,,,,,,,,129,001,2023-03-03_14h11.17.573,eb_01,2022.2.4,99.91678804300675,
2,stimuli/2.png,s,1,0,1,0,34,0,34,0,0,0,0,0,,,,,,,,,,,,,,,,,,281.9518779934442,281.9518779934442,281.9518779934442,281.9518779934442,s,1,0.7699979955796152,282.74240198306506,282.74240198306506,282.74240198306506,,,,,,,,,,,,,,,,,,,,,,,,,,,,129,001,2023-03-03_14h11.17.573,eb_01,2022.2.4,99.91678804300675,
,,,1,0,1,0,34,0,34,0,,,,,,,,,,,,,,,,,,,,,,,,,,,,,,,,,,,,,,,,,,,,,,,,,,,,,,,,,,,129,001,2023-03-03_14h11.17.573,eb_01,2022.2.4,99.91678804300675,
4,stimuli/4.png,l,1,0,1,0,35,0,35,0,0,0,0,0,,,,,,,,,,,,,,,,,,283.7527588608209,283.7527588608209,283.7527588608209,283.7527588608209,l,1,0.5612059840350412,284.34347609672113,284.34347609672113,284.34347609672113,,,,,,,,,,,,,,,,,,,,,,,,,,,,129,001,2023-03-03_14h11.17.573,eb_01,2022.2.4,99.91678804300675,
,,,1,0,1,0,35,0,35,0,,,,,,,,,,,,,,,,,,,,,,,,,,,,,,,,,,,,,,,,,,,,,,,,,,,,,,,,,,,129,001,2023-03-03_14h11.17.573,eb_01,2022.2.4,99.91678804300675,
3,stimuli/3.png,l,1,0,1,0,36,0,36,0,0,0,0,0,,,,,,,,,,,,,,,,,,285.35415052383905,285.35415052383905,285.35415052383905,285.35415052383905,l,1,0.48779775292496197,285.85415339143947,285.85415339143947,285.85415339143947,286.8651749494602,286.8651749494602,286.8651749494602,,,,,,,,,,,,,,,,,,,,,,,,,129,001,2023-03-03_14h11.17.573,eb_01,2022.2.4,99.91678804300675,
,,,1,0,1,0,36,0,36,0,,,,,,,,,,,,,,,,,,,,,,,,,,,,,,,,,,,,,,,,,,,,,,,,,,,,,,,,,,,129,001,2023-03-03_14h11.17.573,eb_01,2022.2.4,99.91678804300675,
2,stimuli/2.png,s,1,0,1,0,37,0,37,0,0,0,0,0,,,,,,,,,,,,,,,,,,286.8651749494602,286.8651749494602,286.8651749494602,286.8651749494602,s,1,0.560853419767227,287.445245830575,287.445245830575,287.445245830575,288.456242938526,288.456242938526,288.456242938526,,,,,,,,,,,,,,,,,,,,,,,,,129,001,2023-03-03_14h11.17.573,eb_01,2022.2.4,99.91678804300675,
,,,1,0,1,0,37,0,37,0,,,,,,,,,,,,,,,,,,,,,,,,,,,,,,,,,,,,,,,,,,,,,,,,,,,,,,,,,,,129,001,2023-03-03_14h11.17.573,eb_01,2022.2.4,99.91678804300675,
3,stimuli/3.png,l,1,0,1,0,38,0,38,0,0,0,0,0,,,,,,,,,,,,,,,,,,288.456242938526,288.456242938526,288.456242938526,288.456242938526,l,1,0.41782792916637845,288.8861842190672,288.8861842190672,288.8861842190672,289.89719491041615,289.89719491041615,289.89719491041615,,,,,,,,,,,,,,,,,,,,,,,,,129,001,2023-03-03_14h11.17.573,eb_01,2022.2.4,99.91678804300675,
,,,1,0,1,0,38,0,38,0,,,,,,,,,,,,,,,,,,,,,,,,,,,,,,,,,,,,,,,,,,,,,,,,,,,,,,,,,,,129,001,2023-03-03_14h11.17.573,eb_01,2022.2.4,99.91678804300675,
8,stimuli/8.png,l,1,0,1,0,39,0,39,0,0,0,0,0,,,,,,,,,,,,,,,,,,289.89719491041615,289.89719491041615,289.89719491041615,289.89719491041615,l,1,0.5369339855096769,290.4575306433835,290.4575306433835,290.4575306433835,,,,,,,,,,,,,,,,,,,,,,,,,,,,129,001,2023-03-03_14h11.17.573,eb_01,2022.2.4,99.91678804300675,
,,,1,0,1,0,39,0,39,0,,,,,,,,,,,,,,,,,,,,,,,,,,,,,,,,,,,,,,,,,,,,,,,,,,,,,,,,,,,129,001,2023-03-03_14h11.17.573,eb_01,2022.2.4,99.91678804300675,
3,stimuli/3.png,l,1,0,1,0,40,0,40,0,0,0,0,0,,,,,,,,,,,,,,,,,,291.46826362994034,291.46826362994034,291.46826362994034,291.46826362994034,l,1,0.5259196719562169,292.00830337192747,292.00830337192747,292.00830337192747,293.01898383608204,293.01898383608204,293.01898383608204,,,,,,,,,,,,,,,,,,,,,,,,,129,001,2023-03-03_14h11.17.573,eb_01,2022.2.4,99.91678804300675,
,,,1,0,1,0,40,0,40,0,,,,,,,,,,,,,,,,,,,,,,,,,,,,,,,,,,,,,,,,,,,,,,,,,,,,,,,,,,,129,001,2023-03-03_14h11.17.573,eb_01,2022.2.4,99.91678804300675,
4,stimuli/4.png,l,1,0,1,0,41,0,41,0,0,0,0,0,,,,,,,,,,,,,,,,,,293.01898383608204,293.01898383608204,293.01898383608204,293.01898383608204,l,1,0.9672362822457217,294.00996356332325,294.00996356332325,294.00996356332325,,,,,,,,,,,,,,,,,,,,,,,,,,,,129,001,2023-03-03_14h11.17.573,eb_01,2022.2.4,99.91678804300675,
,,,1,0,1,0,41,0,41,0,,,,,,,,,,,,,,,,,,,,,,,,,,,,,,,,,,,,,,,,,,,,,,,,,,,,,,,,,,,129,001,2023-03-03_14h11.17.573,eb_01,2022.2.4,99.91678804300675,
1,stimuli/1.png,s,1,0,1,0,42,0,42,0,0,0,0,0,,,,,,,,,,,,,,,,,,295.0306583021302,295.0306583021302,295.0306583021302,295.0306583021302,s,1,0.779653668840183,295.84120057799737,295.84120057799737,295.84120057799737,,,,,,,,,,,,,,,,,,,,,,,,,,,,129,001,2023-03-03_14h11.17.573,eb_01,2022.2.4,99.91678804300675,
,,,1,0,1,0,42,0,42,0,,,,,,,,,,,,,,,,,,,,,,,,,,,,,,,,,,,,,,,,,,,,,,,,,,,,,,,,,,,129,001,2023-03-03_14h11.17.573,eb_01,2022.2.4,99.91678804300675,
4,stimuli/4.png,l,1,0,1,0,43,0,43,0,0,0,0,0,,,,,,,,,,,,,,,,,,296.84158091276186,296.84158091276186,296.84158091276186,296.84158091276186,l,1,0.5677592123392969,297.4322691707639,297.4322691707639,297.4322691707639,,,,,,,,,,,,,,,,,,,,,,,,,,,,129,001,2023-03-03_14h11.17.573,eb_01,2022.2.4,99.91678804300675,
,,,1,0,1,0,43,0,43,0,,,,,,,,,,,,,,,,,,,,,,,,,,,,,,,,,,,,,,,,,,,,,,,,,,,,,,,,,,,129,001,2023-03-03_14h11.17.573,eb_01,2022.2.4,99.91678804300675,
2,stimuli/2.png,s,1,0,1,0,44,0,44,0,0,0,0,0,,,,,,,,,,,,,,,,,,298.4429478238162,298.4429478238162,298.4429478238162,298.4429478238162,s,1,0.4544611093006097,298.9129449954489,298.9129449954489,298.9129449954489,299.9239496497321,299.9239496497321,299.9239496497321,,,,,,,,,,,,,,,,,,,,,,,,,129,001,2023-03-03_14h11.17.573,eb_01,2022.2.4,99.91678804300675,
,,,1,0,1,0,44,0,44,0,,,,,,,,,,,,,,,,,,,,,,,,,,,,,,,,,,,,,,,,,,,,,,,,,,,,,,,,,,,129,001,2023-03-03_14h11.17.573,eb_01,2022.2.4,99.91678804300675,
3,stimuli/3.png,l,1,0,1,0,45,0,45,0,0,0,0,0,,,,,,,,,,,,,,,,,,299.9239496497321,299.9239496497321,299.9239496497321,299.9239496497321,l,1,0.3734688219265081,300.31387035595253,300.31387035595253,300.31387035595253,301.3249021770025,301.3249021770025,301.3249021770025,,,,,,,,,,,,,,,,,,,,,,,,,129,001,2023-03-03_14h11.17.573,eb_01,2022.2.4,99.91678804300675,
,,,1,0,1,0,45,0,45,0,,,,,,,,,,,,,,,,,,,,,,,,,,,,,,,,,,,,,,,,,,,,,,,,,,,,,,,,,,,129,001,2023-03-03_14h11.17.573,eb_01,2022.2.4,99.91678804300675,
8,stimuli/8.png,l,1,0,1,0,46,0,46,0,0,0,0,0,,,,,,,,,,,,,,,,,,301.3249021770025,301.3249021770025,301.3249021770025,301.3249021770025,l,1,0.4765990071755368,301.8251954271691,301.8251954271691,301.8251954271691,,,,,,,,,,,,,,,,,,,,,,,,,,,,129,001,2023-03-03_14h11.17.573,eb_01,2022.2.4,99.91678804300675,
,,,1,0,1,0,46,0,46,0,,,,,,,,,,,,,,,,,,,,,,,,,,,,,,,,,,,,,,,,,,,,,,,,,,,,,,,,,,,129,001,2023-03-03_14h11.17.573,eb_01,2022.2.4,99.91678804300675,
9,stimuli/9.png,l,1,0,1,0,47,0,47,0,0,0,0,0,,,,,,,,,,,,,,,,,,302.84590254194336,302.84590254194336,302.84590254194336,302.84590254194336,l,1,0.8997362196096219,303.76620399649255,303.76620399649255,303.76620399649255,,,,,,,,,,,,,,,,,,,,,,,,,,,,129,001,2023-03-03_14h11.17.573,eb_01,2022.2.4,99.91678804300675,
,,,1,0,1,0,47,0,47,0,,,,,,,,,,,,,,,,,,,,,,,,,,,,,,,,,,,,,,,,,,,,,,,,,,,,,,,,,,,129,001,2023-03-03_14h11.17.573,eb_01,2022.2.4,99.91678804300675,
6,stimuli/6.png,s,1,0,1,0,48,0,48,0,0,0,0,0,,,,,,,,,,,,,,,,,,304.78721296423464,304.78721296423464,304.78721296423464,304.78721296423464,s,1,0.5183902510907501,305.3375963024446,305.3375963024446,305.3375963024446,,,,,,,,,,,,,,,,,,,,,,,,,,,,129,001,2023-03-03_14h11.17.573,eb_01,2022.2.4,99.91678804300675,
,,,1,0,1,0,48,0,48,0,,,,,,,,,,,,,,,,,,,,,,,,,,,,,,,,,,,,,,,,,,,,,,,,,,,,,,,,,,,129,001,2023-03-03_14h11.17.573,eb_01,2022.2.4,99.91678804300675,
9,stimuli/9.png,l,1,0,1,0,49,0,49,0,0,0,0,0,,,,,,,,,,,,,,,,,,306.3482634850661,306.3482634850661,306.3482634850661,306.3482634850661,l,1,0.5733812241815031,306.9483429931279,306.9483429931279,306.9483429931279,,,,,,,,,,,,,,,,,,,,,,,,,,,,129,001,2023-03-03_14h11.17.573,eb_01,2022.2.4,99.91678804300675,
,,,1,0,1,0,49,0,49,0,,,,,,,,,,,,,,,,,,,,,,,,,,,,,,,,,,,,,,,,,,,,,,,,,,,,,,,,,,,129,001,2023-03-03_14h11.17.573,eb_01,2022.2.4,99.91678804300675,
8,stimuli/8.png,l,1,0,1,0,50,0,50,0,0,0,0,0,,,,,,,,,,,,,,,,,,307.9593416103453,307.9593416103453,307.9593416103453,307.9593416103453,l,1,0.522354486369295,308.5097234392888,308.5097234392888,308.5097234392888,,,,,,,,,,,,,,,,,,,,,,,,,,,,129,001,2023-03-03_14h11.17.573,eb_01,2022.2.4,99.91678804300675,
,,,1,0,1,0,50,0,50,0,,,,,,,,,,,,,,,,,,,,,,,,,,,,,,,,,,,,,,,,,,,,,,,,,,,,,,,,,,,129,001,2023-03-03_14h11.17.573,eb_01,2022.2.4,99.91678804300675,
9,stimuli/9.png,l,1,0,1,0,51,0,51,0,0,0,0,0,,,,,,,,,,,,,,,,,,309.5303982557962,309.5303982557962,309.5303982557962,309.5303982557962,l,1,0.6713578734197654,310.2305362931511,310.2305362931511,310.2305362931511,,,,,,,,,,,,,,,,,,,,,,,,,,,,129,001,2023-03-03_14h11.17.573,eb_01,2022.2.4,99.91678804300675,
,,,1,0,1,0,51,0,51,0,,,,,,,,,,,,,,,,,,,,,,,,,,,,,,,,,,,,,,,,,,,,,,,,,,,,,,,,,,,129,001,2023-03-03_14h11.17.573,eb_01,2022.2.4,99.91678804300675,
8,stimuli/8.png,l,1,0,1,0,52,0,52,0,0,0,0,0,,,,,,,,,,,,,,,,,,311.2415500030038,311.2415500030038,311.2415500030038,311.2415500030038,l,1,0.5432922167819925,311.81191027359455,311.81191027359455,311.81191027359455,,,,,,,,,,,,,,,,,,,,,,,,,,,,129,001,2023-03-03_14h11.17.573,eb_01,2022.2.4,99.91678804300675,
,,,1,0,1,0,52,0,52,0,,,,,,,,,,,,,,,,,,,,,,,,,,,,,,,,,,,,,,,,,,,,,,,,,,,,,,,,,,,129,001,2023-03-03_14h11.17.573,eb_01,2022.2.4,99.91678804300675,
6,stimuli/6.png,s,1,0,1,0,53,0,53,0,0,0,0,0,,,,,,,,,,,,,,,,,,312.8326207087666,312.8326207087666,312.8326207087666,312.8326207087666,s,1,0.5122650503471959,313.3829874450457,313.3829874450457,313.3829874450457,,,,,,,,,,,,,,,,,,,,,,,,,,,,129,001,2023-03-03_14h11.17.573,eb_01,2022.2.4,99.91678804300675,
,,,1,0,1,0,53,0,53,0,,,,,,,,,,,,,,,,,,,,,,,,,,,,,,,,,,,,,,,,,,,,,,,,,,,,,,,,,,,129,001,2023-03-03_14h11.17.573,eb_01,2022.2.4,99.91678804300675,
9,stimuli/9.png,l,1,0,1,0,54,0,54,0,0,0,0,0,,,,,,,,,,,,,,,,,,314.3936676073645,314.3936676073645,314.3936676073645,314.3936676073645,l,1,0.3672470281890128,314.7835937469499,314.7835937469499,314.7835937469499,,,,,,,,,,,,,,,,,,,,,,,,,,,,129,001,2023-03-03_14h11.17.573,eb_01,2022.2.4,99.91678804300675,
,,,1,0,1,0,54,0,54,0,,,,,,,,,,,,,,,,,,,,,,,,,,,,,,,,,,,,,,,,,,,,,,,,,,,,,,,,,,,129,001,2023-03-03_14h11.17.573,eb_01,2022.2.4,99.91678804300675,
8,stimuli/8.png,l,1,0,1,0,55,0,55,0,0,0,0,0,,,,,,,,,,,,,,,,,,315.79460987163475,315.79460987163475,315.79460987163475,315.79460987163475,l,1,0.7183470257441513,316.5351020308444,316.5351020308444,316.5351020308444,,,,,,,,,,,,,,,,,,,,,,,,,,,,129,001,2023-03-03_14h11.17.573,eb_01,2022.2.4,99.91678804300675,
,,,1,0,1,0,55,0,55,0,,,,,,,,,,,,,,,,,,,,,,,,,,,,,,,,,,,,,,,,,,,,,,,,,,,,,,,,,,,129,001,2023-03-03_14h11.17.573,eb_01,2022.2.4,99.91678804300675,
6,stimuli/6.png,s,1,0,1,0,56,0,56,0,0,0,0,0,,,,,,,,,,,,,,,,,,317.55577835661825,317.55577835661825,317.55577835661825,317.55577835661825,s,1,0.5012256829650141,318.09614621277433,318.09614621277433,318.09614621277433,,,,,,,,,,,,,,,,,,,,,,,,,,,,129,001,2023-03-03_14h11.17.573,eb_01,2022.2.4,99.91678804300675,
,,,1,0,1,0,56,0,56,0,,,,,,,,,,,,,,,,,,,,,,,,,,,,,,,,,,,,,,,,,,,,,,,,,,,,,,,,,,,129,001,2023-03-03_14h11.17.573,eb_01,2022.2.4,99.91678804300675,
5,stimuli/5.png,s,1,0,1,0,57,0,57,0,0,0,0,0,,,,,,,,,,,,,,,,,,319.09682749494095,319.09682749494095,319.09682749494095,319.09682749494095,s,1,0.5362421384779736,319.65721424107323,319.65721424107323,319.65721424107323,,,,,,,,,,,,,,,,,,,,,,,,,,,,129,001,2023-03-03_14h11.17.573,eb_01,2022.2.4,99.91678804300675,
,,,1,0,1,0,57,0,57,0,,,,,,,,,,,,,,,,,,,,,,,,,,,,,,,,,,,,,,,,,,,,,,,,,,,,,,,,,,,129,001,2023-03-03_14h11.17.573,eb_01,2022.2.4,99.91678804300675,
9,stimuli/9.png,l,1,0,1,0,58,0,58,0,0,0,0,0,,,,,,,,,,,,,,,,,,320.67787970011705,320.67787970011705,320.67787970011705,320.67787970011705,l,1,0.571230823523365,321.2779709804745,321.2779709804745,321.2779709804745,,,,,,,,,,,,,,,,,,,,,,,,,,,,129,001,2023-03-03_14h11.17.573,eb_01,2022.2.4,99.91678804300675,
,,,1,0,1,0,58,0,58,0,,,,,,,,,,,,,,,,,,,,,,,,,,,,,,,,,,,,,,,,,,,,,,,,,,,,,,,,,,,129,001,2023-03-03_14h11.17.573,eb_01,2022.2.4,99.91678804300675,
5,stimuli/5.png,s,1,0,1,0,59,0,59,0,0,0,0,0,,,,,,,,,,,,,,,,,,322.2889695976919,322.2889695976919,322.2889695976919,322.2889695976919,s,1,0.5041811255505309,322.81932740515913,322.81932740515913,322.81932740515913,,,,,,,,,,,,,,,,,,,,,,,,,,,,129,001,2023-03-03_14h11.17.573,eb_01,2022.2.4,99.91678804300675,
,,,1,0,1,0,59,0,59,0,,,,,,,,,,,,,,,,,,,,,,,,,,,,,,,,,,,,,,,,,,,,,,,,,,,,,,,,,,,129,001,2023-03-03_14h11.17.573,eb_01,2022.2.4,99.91678804300675,
9,stimuli/9.png,l,1,0,1,0,60,0,60,0,0,0,0,0,,,,,,,,,,,,,,,,,,323.84001459763385,323.84001459763385,323.84001459763385,323.84001459763385,l,1,0.5531908817356452,324.4200815546501,324.4200815546501,324.4200815546501,,,,,,,,,,,,,,,,,,,,,,,,,,,,129,001,2023-03-03_14h11.17.573,eb_01,2022.2.4,99.91678804300675,
,,,1,0,1,0,60,0,60,0,,,,,,,,,,,,,,,,,,,,,,,,,,,,,,,,,,,,,,,,,,,,,,,,,,,,,,,,,,,129,001,2023-03-03_14h11.17.573,eb_01,2022.2.4,99.91678804300675,
6,stimuli/6.png,s,1,0,1,0,61,0,61,0,0,0,0,0,,,,,,,,,,,,,,,,,,325.4410872020235,325.4410872020235,325.4410872020235,325.4410872020235,s,1,0.4481635504635051,325.9214032179443,325.9214032179443,325.9214032179443,,,,,,,,,,,,,,,,,,,,,,,,,,,,129,001,2023-03-03_14h11.17.573,eb_01,2022.2.4,99.91678804300675,
,,,1,0,1,0,61,0,61,0,,,,,,,,,,,,,,,,,,,,,,,,,,,,,,,,,,,,,,,,,,,,,,,,,,,,,,,,,,,129,001,2023-03-03_14h11.17.573,eb_01,2022.2.4,99.91678804300675,
8,stimuli/8.png,l,1,0,1,0,62,0,62,0,0,0,0,0,,,,,,,,,,,,,,,,,,326.9220896316401,326.9220896316401,326.9220896316401,326.9220896316401,l,1,0.4232238531403709,327.37239451822825,327.37239451822825,327.37239451822825,,,,,,,,,,,,,,,,,,,,,,,,,,,,129,001,2023-03-03_14h11.17.573,eb_01,2022.2.4,99.91678804300675,
,,,1,0,1,0,62,0,62,0,,,,,,,,,,,,,,,,,,,,,,,,,,,,,,,,,,,,,,,,,,,,,,,,,,,,,,,,,,,129,001,2023-03-03_14h11.17.573,eb_01,2022.2.4,99.91678804300675,
9,stimuli/9.png,l,1,0,1,0,63,0,63,0,0,0,0,0,,,,,,,,,,,,,,,,,,328.39307295696926,328.39307295696926,328.39307295696926,328.39307295696926,l,1,0.5432686722488143,328.96313499682583,328.96313499682583,328.96313499682583,,,,,,,,,,,,,,,,,,,,,,,,,,,,129,001,2023-03-03_14h11.17.573,eb_01,2022.2.4,99.91678804300675,
,,,1,0,1,0,63,0,63,0,,,,,,,,,,,,,,,,,,,,,,,,,,,,,,,,,,,,,,,,,,,,,,,,,,,,,,,,,,,129,001,2023-03-03_14h11.17.573,eb_01,2022.2.4,99.91678804300675,
6,stimuli/6.png,s,1,0,1,0,64,0,64,0,0,0,0,0,,,,,,,,,,,,,,,,,,329.98414094603504,329.98414094603504,329.98414094603504,329.98414094603504,s,1,0.46427404796122573,330.48448400196503,330.48448400196503,330.48448400196503,,,,,,,,,,,,,,,,,,,,,,,,,,,,129,001,2023-03-03_14h11.17.573,eb_01,2022.2.4,99.91678804300675,
,,,1,0,1,0,64,0,64,0,,,,,,,,,,,,,,,,,,,,,,,,,,,,,,,,,,,,,,,,,,,,,,,,,,,,,,,,,,,129,001,2023-03-03_14h11.17.573,eb_01,2022.2.4,99.91678804300675,
8,stimuli/8.png,l,1,0,1,0,65,0,65,0,0,0,0,0,,,,,,,,,,,,,,,,,,331.4851526062994,331.4851526062994,331.4851526062994,331.4851526062994,l,1,0.3872958015999757,331.895442050125,331.895442050125,331.895442050125,,,,,,,,,,,,,,,,,,,,,,,,,,,,129,001,2023-03-03_14h11.17.573,eb_01,2022.2.4,99.91678804300675,
,,,1,0,1,0,65,0,65,0,,,,,,,,,,,,,,,,,,,,,,,,,,,,,,,,,,,,,,,,,,,,,,,,,,,,,,,,,,,129,001,2023-03-03_14h11.17.573,eb_01,2022.2.4,99.91678804300675,
3,stimuli/3.png,l,1,0,1,0,66,0,66,0,0,0,0,0,,,,,,,,,,,,,,,,,,332.90609112157836,332.90609112157836,332.90609112157836,332.90609112157836,l,1,0.646425118757179,333.5662285069411,333.5662285069411,333.5662285069411,334.57690655629267,334.57690655629267,334.57690655629267,,,,,,,,,,,,,,,,,,,,,,,,,129,001,2023-03-03_14h11.17.573,eb_01,2022.2.4,99.91678804300675,
,,,1,0,1,0,66,0,66,0,,,,,,,,,,,,,,,,,,,,,,,,,,,,,,,,,,,,,,,,,,,,,,,,,,,,,,,,,,,129,001,2023-03-03_14h11.17.573,eb_01,2022.2.4,99.91678804300675,
4,stimuli/4.png,l,1,0,1,0,67,0,67,0,0,0,0,0,,,,,,,,,,,,,,,,,,334.57690655629267,334.57690655629267,334.57690655629267,334.57690655629267,l,1,0.5196447521157097,335.11760614888044,335.11760614888044,335.11760614888044,,,,,,,,,,,,,,,,,,,,,,,,,,,,129,001,2023-03-03_14h11.17.573,eb_01,2022.2.4,99.91678804300675,
,,,1,0,1,0,67,0,67,0,,,,,,,,,,,,,,,,,,,,,,,,,,,,,,,,,,,,,,,,,,,,,,,,,,,,,,,,,,,129,001,2023-03-03_14h11.17.573,eb_01,2022.2.4,99.91678804300675,
1,stimuli/1.png,s,1,0,1,0,68,0,68,0,0,0,0,0,,,,,,,,,,,,,,,,,,336.13825198748964,336.13825198748964,336.13825198748964,336.13825198748964,s,1,0.5503585951519199,336.718657623569,336.718657623569,336.718657623569,,,,,,,,,,,,,,,,,,,,,,,,,,,,129,001,2023-03-03_14h11.17.573,eb_01,2022.2.4,99.91678804300675,
,,,1,0,1,0,68,0,68,0,,,,,,,,,,,,,,,,,,,,,,,,,,,,,,,,,,,,,,,,,,,,,,,,,,,,,,,,,,,129,001,2023-03-03_14h11.17.573,eb_01,2022.2.4,99.91678804300675,
4,stimuli/4.png,l,1,0,1,0,69,0,69,0,0,0,0,0,,,,,,,,,,,,,,,,,,337.71901924343547,337.71901924343547,337.71901924343547,337.71901924343547,l,1,0.44164171486045234,338.18962012103293,338.18962012103293,338.18962012103293,,,,,,,,,,,,,,,,,,,,,,,,,,,,129,001,2023-03-03_14h11.17.573,eb_01,2022.2.4,99.91678804300675,
,,,1,0,1,0,69,0,69,0,,,,,,,,,,,,,,,,,,,,,,,,,,,,,,,,,,,,,,,,,,,,,,,,,,,,,,,,,,,129,001,2023-03-03_14h11.17.573,eb_01,2022.2.4,99.91678804300675,
3,stimuli/3.png,l,1,0,1,0,70,0,70,0,0,0,0,0,,,,,,,,,,,,,,,,,,339.2003331853193,339.2003331853193,339.2003331853193,339.2003331853193,l,1,0.6163705225917511,339.8304389153782,339.8304389153782,339.8304389153782,340.8411157572991,340.8411157572991,340.8411157572991,,,,,,,,,,,,,,,,,,,,,,,,,129,001,2023-03-03_14h11.17.573,eb_01,2022.2.4,99.91678804300675,
,,,1,0,1,0,70,0,70,0,,,,,,,,,,,,,,,,,,,,,,,,,,,,,,,,,,,,,,,,,,,,,,,,,,,,,,,,,,,129,001,2023-03-03_14h11.17.573,eb_01,2022.2.4,99.91678804300675,
8,stimuli/8.png,l,1,0,1,0,71,0,71,0,0,0,0,0,,,,,,,,,,,,,,,,,,340.8411157572991,340.8411157572991,340.8411157572991,340.8411157572991,l,1,0.5356308861810248,341.4017750766652,341.4017750766652,341.4017750766652,,,,,,,,,,,,,,,,,,,,,,,,,,,,129,001,2023-03-03_14h11.17.573,eb_01,2022.2.4,99.91678804300675,
,,,1,0,1,0,71,0,71,0,,,,,,,,,,,,,,,,,,,,,,,,,,,,,,,,,,,,,,,,,,,,,,,,,,,,,,,,,,,129,001,2023-03-03_14h11.17.573,eb_01,2022.2.4,99.91678804300675,
3,stimuli/3.png,l,1,0,1,0,72,0,72,0,0,0,0,0,,,,,,,,,,,,,,,,,,342.41249598914874,342.41249598914874,342.41249598914874,342.41249598914874,l,1,0.4033607192977797,342.83245559516945,342.83245559516945,342.83245559516945,343.84345391052193,343.84345391052193,343.84345391052193,,,,,,,,,,,,,,,,,,,,,,,,,129,001,2023-03-03_14h11.17.573,eb_01,2022.2.4,99.91678804300675,
,,,1,0,1,0,72,0,72,0,,,,,,,,,,,,,,,,,,,,,,,,,,,,,,,,,,,,,,,,,,,,,,,,,,,,,,,,,,,129,001,2023-03-03_14h11.17.573,eb_01,2022.2.4,99.91678804300675,
8,stimuli/8.png,l,1,0,1,0,73,0,73,0,0,0,0,0,,,,,,,,,,,,,,,,,,343.84345391052193,343.84345391052193,343.84345391052193,343.84345391052193,l,1,0.5083723542338703,344.37381503838697,344.37381503838697,344.37381503838697,,,,,,,,,,,,,,,,,,,,,,,,,,,,129,001,2023-03-03_14h11.17.573,eb_01,2022.2.4,99.91678804300675,
,,,1,0,1,0,73,0,73,0,,,,,,,,,,,,,,,,,,,,,,,,,,,,,,,,,,,,,,,,,,,,,,,,,,,,,,,,,,,129,001,2023-03-03_14h11.17.573,eb_01,2022.2.4,99.91678804300675,
6,stimuli/6.png,s,1,0,1,0,74,0,74,0,0,0,0,0,,,,,,,,,,,,,,,,,,345.39449196786154,345.39449196786154,345.39449196786154,345.39449196786154,s,1,0.4774164250702597,345.9048390353855,345.9048390353855,345.9048390353855,,,,,,,,,,,,,,,,,,,,,,,,,,,,129,001,2023-03-03_14h11.17.573,eb_01,2022.2.4,99.91678804300675,
,,,1,0,1,0,74,0,74,0,,,,,,,,,,,,,,,,,,,,,,,,,,,,,,,,,,,,,,,,,,,,,,,,,,,,,,,,,,,129,001,2023-03-03_14h11.17.573,eb_01,2022.2.4,99.91678804300675,
5,stimuli/5.png,s,1,0,1,0,75,0,75,0,0,0,0,0,,,,,,,,,,,,,,,,,,346.9055000934459,346.9055000934459,346.9055000934459,346.9055000934459,s,1,0.5424440098868217,347.4759011141723,347.4759011141723,347.4759011141723,,,,,,,,,,,,,,,,,,,,,,,,,,,,129,001,2023-03-03_14h11.17.573,eb_01,2022.2.4,99.91678804300675,
,,,1,0,1,0,75,0,75,0,,,,,,,,,,,,,,,,,,,,,,,,,,,,,,,,,,,,,,,,,,,,,,,,,,,,,,,,,,,129,001,2023-03-03_14h11.17.573,eb_01,2022.2.4,99.91678804300675,
6,stimuli/6.png,s,1,0,1,0,76,0,76,0,0,0,0,0,,,,,,,,,,,,,,,,,,348.49625868318253,348.49625868318253,348.49625868318253,348.49625868318253,s,1,0.47176785016199574,349.00692511119996,349.00692511119996,349.00692511119996,,,,,,,,,,,,,,,,,,,,,,,,,,,,129,001,2023-03-03_14h11.17.573,eb_01,2022.2.4,99.91678804300675,
,,,1,0,1,0,76,0,76,0,,,,,,,,,,,,,,,,,,,,,,,,,,,,,,,,,,,,,,,,,,,,,,,,,,,,,,,,,,,129,001,2023-03-03_14h11.17.573,eb_01,2022.2.4,99.91678804300675,
5,stimuli/5.png,s,1,0,1,0,77,0,77,0,0,0,0,0,,,,,,,,,,,,,,,,,,350.00759733779705,350.00759733779705,350.00759733779705,350.00759733779705,s,1,0.5605035721382592,350.5879758071096,350.5879758071096,350.5879758071096,,,,,,,,,,,,,,,,,,,,,,,,,,,,129,001,2023-03-03_14h11.17.573,eb_01,2022.2.4,99.91678804300675,
,,,1,0,1,0,77,0,77,0,,,,,,,,,,,,,,,,,,,,,,,,,,,,,,,,,,,,,,,,,,,,,,,,,,,,,,,,,,,129,001,2023-03-03_14h11.17.573,eb_01,2022.2.4,99.91678804300675,
9,stimuli/9.png,l,1,0,1,0,78,0,78,0,0,0,0,0,,,,,,,,,,,,,,,,,,351.60867718665395,351.60867718665395,351.60867718665395,351.60867718665395,l,1,0.4954304075217806,352.12897876193165,352.12897876193165,352.12897876193165,,,,,,,,,,,,,,,,,,,,,,,,,,,,129,001,2023-03-03_14h11.17.573,eb_01,2022.2.4,99.91678804300675,
,,,1,0,1,0,78,0,78,0,,,,,,,,,,,,,,,,,,,,,,,,,,,,,,,,,,,,,,,,,,,,,,,,,,,,,,,,,,,129,001,2023-03-03_14h11.17.573,eb_01,2022.2.4,99.91678804300675,
8,stimuli/8.png,l,1,0,1,0,79,0,79,0,0,0,0,0,,,,,,,,,,,,,,,,,,353.1396894113859,353.1396894113859,353.1396894113859,353.1396894113859,l,1,0.5884937957453076,353.7501405880321,353.7501405880321,353.7501405880321,,,,,,,,,,,,,,,,,,,,,,,,,,,,129,001,2023-03-03_14h11.17.573,eb_01,2022.2.4,99.91678804300675,
,,,1,0,1,0,79,0,79,0,,,,,,,,,,,,,,,,,,,,,,,,,,,,,,,,,,,,,,,,,,,,,,,,,,,,,,,,,,,129,001,2023-03-03_14h11.17.573,eb_01,2022.2.4,99.91678804300675,
6,stimuli/6.png,s,1,0,1,0,80,0,80,0,0,0,0,0,,,,,,,,,,,,,,,,,,354.77079819890787,354.77079819890787,354.77079819890787,354.77079819890787,s,1,0.4853934939019382,355.2911571262521,355.2911571262521,355.2911571262521,,,,,,,,,,,,,,,,,,,,,,,,,,,,129,001,2023-03-03_14h11.17.573,eb_01,2022.2.4,99.91678804300675,
,,,1,0,1,0,80,0,80,0,,,,,,,,,,,,,,,,,,,,,,,,,,,,,,,,,,,,,,,,,,,,,,,,,,,,,,,,,,,129,001,2023-03-03_14h11.17.573,eb_01,2022.2.4,99.91678804300675,
5,stimuli/5.png,s,1,0,1,0,81,0,81,0,0,0,0,0,,,,,,,,,,,,,,,,,,356.2918178824475,356.2918178824475,356.2918178824475,356.2918178824475,s,1,0.8924365088460036,357.2124347733625,357.2124347733625,357.2124347733625,,,,,,,,,,,,,,,,,,,,,,,,,,,,129,001,2023-03-03_14h11.17.573,eb_01,2022.2.4,99.91678804300675,
,,,1,0,1,0,81,0,81,0,,,,,,,,,,,,,,,,,,,,,,,,,,,,,,,,,,,,,,,,,,,,,,,,,,,,,,,,,,,129,001,2023-03-03_14h11.17.573,eb_01,2022.2.4,99.91678804300675,
9,stimuli/9.png,l,1,0,1,0,82,0,82,0,0,0,0,0,,,,,,,,,,,,,,,,,,358.23312256953795,358.23312256953795,358.23312256953795,358.23312256953795,l,1,0.5502562670153566,358.80318491123035,358.80318491123035,358.80318491123035,,,,,,,,,,,,,,,,,,,,,,,,,,,,129,001,2023-03-03_14h11.17.573,eb_01,2022.2.4,99.91678804300675,
,,,1,0,1,0,82,0,82,0,,,,,,,,,,,,,,,,,,,,,,,,,,,,,,,,,,,,,,,,,,,,,,,,,,,,,,,,,,,129,001,2023-03-03_14h11.17.573,eb_01,2022.2.4,99.91678804300675,
8,stimuli/8.png,l,1,0,1,0,83,0,83,0,0,0,0,0,,,,,,,,,,,,,,,,,,359.8141841321485,359.8141841321485,359.8141841321485,359.8141841321485,l,1,0.48917540995171294,360.3245269737381,360.3245269737381,360.3245269737381,,,,,,,,,,,,,,,,,,,,,,,,,,,,129,001,2023-03-03_14h11.17.573,eb_01,2022.2.4,99.91678804300675,
,,,1,0,1,0,83,0,83,0,,,,,,,,,,,,,,,,,,,,,,,,,,,,,,,,,,,,,,,,,,,,,,,,,,,,,,,,,,,129,001,2023-03-03_14h11.17.573,eb_01,2022.2.4,99.91678804300675,
6,stimuli/6.png,s,1,0,1,0,84,0,84,0,0,0,0,0,,,,,,,,,,,,,,,,,,361.3452141662128,361.3452141662128,361.3452141662128,361.3452141662128,s,1,0.41417007471318357,361.79551693983376,361.79551693983376,361.79551693983376,,,,,,,,,,,,,,,,,,,,,,,,,,,,129,001,2023-03-03_14h11.17.573,eb_01,2022.2.4,99.91678804300675,
,,,1,0,1,0,84,0,84,0,,,,,,,,,,,,,,,,,,,,,,,,,,,,,,,,,,,,,,,,,,,,,,,,,,,,,,,,,,,129,001,2023-03-03_14h11.17.573,eb_01,2022.2.4,99.91678804300675,
5,stimuli/5.png,s,1,0,1,0,85,0,85,0,0,0,0,0,,,,,,,,,,,,,,,,,,362.79619369423017,362.79619369423017,362.79619369423017,362.79619369423017,s,1,0.5472715446958318,363.3665690574853,363.3665690574853,363.3665690574853,,,,,,,,,,,,,,,,,,,,,,,,,,,,129,001,2023-03-03_14h11.17.573,eb_01,2022.2.4,99.91678804300675,
,,,1,0,1,0,85,0,85,0,,,,,,,,,,,,,,,,,,,,,,,,,,,,,,,,,,,,,,,,,,,,,,,,,,,,,,,,,,,129,001,2023-03-03_14h11.17.573,eb_01,2022.2.4,99.91678804300675,
9,stimuli/9.png,l,1,0,1,0,86,0,86,0,0,0,0,0,,,,,,,,,,,,,,,,,,364.38725836292724,364.38725836292724,364.38725836292724,364.38725836292724,l,1,0.5722314661543351,364.987335456186,364.987335456186,364.987335456186,,,,,,,,,,,,,,,,,,,,,,,,,,,,129,001,2023-03-03_14h11.17.573,eb_01,2022.2.4,99.91678804300675,
,,,1,0,1,0,86,0,86,0,,,,,,,,,,,,,,,,,,,,,,,,,,,,,,,,,,,,,,,,,,,,,,,,,,,,,,,,,,,129,001,2023-03-03_14h11.17.573,eb_01,2022.2.4,99.91678804300675,
5,stimuli/5.png,s,1,0,1,0,87,0,87,0,0,0,0,0,,,,,,,,,,,,,,,,,,365.9983289418742,365.9983289418742,365.9983289418742,365.9983289418742,s,1,0.48124060055124573,366.5086817446281,366.5086817446281,366.5086817446281,,,,,,,,,,,,,,,,,,,,,,,,,,,,129,001,2023-03-03_14h11.17.573,eb_01,2022.2.4,99.91678804300675,
,,,1,0,1,0,87,0,87,0,,,,,,,,,,,,,,,,,,,,,,,,,,,,,,,,,,,,,,,,,,,,,,,,,,,,,,,,,,,129,001,2023-03-03_14h11.17.573,eb_01,2022.2.4,99.91678804300675,
9,stimuli/9.png,l,1,0,1,0,88,0,88,0,0,0,0,0,,,,,,,,,,,,,,,,,,367.5293233573029,367.5293233573029,367.5293233573029,367.5293233573029,l,1,0.43033309464226477,367.9793517465878,367.9793517465878,367.9793517465878,,,,,,,,,,,,,,,,,,,,,,,,,,,,129,001,2023-03-03_14h11.17.573,eb_01,2022.2.4,99.91678804300675,
,,,1,0,1,0,88,0,88,0,,,,,,,,,,,,,,,,,,,,,,,,,,,,,,,,,,,,,,,,,,,,,,,,,,,,,,,,,,,129,001,2023-03-03_14h11.17.573,eb_01,2022.2.4,99.91678804300675,
8,stimuli/8.png,l,1,0,1,0,89,0,89,0,0,0,0,0,,,,,,,,,,,,,,,,,,368.9900186273444,368.9900186273444,368.9900186273444,368.9900186273444,l,1,0.4656175955897197,369.48068367288215,369.48068367288215,369.48068367288215,,,,,,,,,,,,,,,,,,,,,,,,,,,,129,001,2023-03-03_14h11.17.573,eb_01,2022.2.4,99.91678804300675,
,,,1,0,1,0,89,0,89,0,,,,,,,,,,,,,,,,,,,,,,,,,,,,,,,,,,,,,,,,,,,,,,,,,,,,,,,,,,,129,001,2023-03-03_14h11.17.573,eb_01,2022.2.4,99.91678804300675,
6,stimuli/6.png,s,1,0,1,0,90,0,90,0,0,0,0,0,,,,,,,,,,,,,,,,,,370.50137146905763,370.50137146905763,370.50137146905763,370.50137146905763,s,1,0.4823236490483396,371.0217071537045,371.0217071537045,371.0217071537045,,,,,,,,,,,,,,,,,,,,,,,,,,,,129,001,2023-03-03_14h11.17.573,eb_01,2022.2.4,99.91678804300675,
,,,1,0,1,0,90,0,90,0,,,,,,,,,,,,,,,,,,,,,,,,,,,,,,,,,,,,,,,,,,,,,,,,,,,,,,,,,,,129,001,2023-03-03_14h11.17.573,eb_01,2022.2.4,99.91678804300675,
5,stimuli/5.png,s,1,0,1,0,91,0,91,0,0,0,0,0,,,,,,,,,,,,,,,,,,372.02233349866583,372.02233349866583,372.02233349866583,372.02233349866583,s,1,0.48941236454993486,372.53275029425276,372.53275029425276,372.53275029425276,,,,,,,,,,,,,,,,,,,,,,,,,,,,129,001,2023-03-03_14h11.17.573,eb_01,2022.2.4,99.91678804300675,
,,,1,0,1,0,91,0,91,0,,,,,,,,,,,,,,,,,,,,,,,,,,,,,,,,,,,,,,,,,,,,,,,,,,,,,,,,,,,129,001,2023-03-03_14h11.17.573,eb_01,2022.2.4,99.91678804300675,
6,stimuli/6.png,s,1,0,1,0,92,0,92,0,0,0,0,0,,,,,,,,,,,,,,,,,,373.5534184699645,373.5534184699645,373.5534184699645,373.5534184699645,s,1,0.4303702225442976,374.0137279719056,374.0137279719056,374.0137279719056,,,,,,,,,,,,,,,,,,,,,,,,,,,,129,001,2023-03-03_14h11.17.573,eb_01,2022.2.4,99.91678804300675,
,,,1,0,1,0,92,0,92,0,,,,,,,,,,,,,,,,,,,,,,,,,,,,,,,,,,,,,,,,,,,,,,,,,,,,,,,,,,,129,001,2023-03-03_14h11.17.573,eb_01,2022.2.4,99.91678804300675,
5,stimuli/5.png,s,1,0,1,0,93,0,93,0,0,0,0,0,,,,,,,,,,,,,,,,,,375.01440291517065,375.01440291517065,375.01440291517065,375.01440291517065,s,1,0.5444543508056086,375.58479276736034,375.58479276736034,375.58479276736034,,,,,,,,,,,,,,,,,,,,,,,,,,,,129,001,2023-03-03_14h11.17.573,eb_01,2022.2.4,99.91678804300675,
,,,1,0,1,0,93,0,93,0,,,,,,,,,,,,,,,,,,,,,,,,,,,,,,,,,,,,,,,,,,,,,,,,,,,,,,,,,,,129,001,2023-03-03_14h11.17.573,eb_01,2022.2.4,99.91678804300675,
9,stimuli/9.png,l,1,0,1,0,94,0,94,0,0,0,0,0,,,,,,,,,,,,,,,,,,376.60547211166704,376.60547211166704,376.60547211166704,376.60547211166704,l,1,0.5134202417102642,377.1455103443586,377.1455103443586,377.1455103443586,,,,,,,,,,,,,,,,,,,,,,,,,,,,129,001,2023-03-03_14h11.17.573,eb_01,2022.2.4,99.91678804300675,
,,,1,0,1,0,94,0,94,0,,,,,,,,,,,,,,,,,,,,,,,,,,,,,,,,,,,,,,,,,,,,,,,,,,,,,,,,,,,129,001,2023-03-03_14h11.17.573,eb_01,2022.2.4,99.91678804300675,
6,stimuli/6.png,s,1,0,1,0,95,0,95,0,0,0,0,0,,,,,,,,,,,,,,,,,,378.16651538803126,378.16651538803126,378.16651538803126,378.16651538803126,s,1,0.49642229641904123,378.6968647436006,378.6968647436006,378.6968647436006,,,,,,,,,,,,,,,,,,,,,,,,,,,,129,001,2023-03-03_14h11.17.573,eb_01,2022.2.4,99.91678804300675,
,,,1,0,1,0,95,0,95,0,,,,,,,,,,,,,,,,,,,,,,,,,,,,,,,,,,,,,,,,,,,,,,,,,,,,,,,,,,,129,001,2023-03-03_14h11.17.573,eb_01,2022.2.4,99.91678804300675,
9,stimuli/9.png,l,1,0,1,0,96,0,96,0,0,0,0,0,,,,,,,,,,,,,,,,,,379.7075572818867,379.7075572818867,379.7075572818867,379.7075572818867,l,1,0.3074288221541792,380.03745271096705,380.03745271096705,380.03745271096705,,,,,,,,,,,,,,,,,,,,,,,,,,,,129,001,2023-03-03_14h11.17.573,eb_01,2022.2.4,99.91678804300675,
,,,1,0,1,0,96,0,96,0,,,,,,,,,,,,,,,,,,,,,,,,,,,,,,,,,,,,,,,,,,,,,,,,,,,,,,,,,,,129,001,2023-03-03_14h11.17.573,eb_01,2022.2.4,99.91678804300675,
8,stimuli/8.png,l,1,0,1,0,97,0,97,0,0,0,0,0,,,,,,,,,,,,,,,,,,381.04846521341824,381.04846521341824,381.04846521341824,381.04846521341824,l,1,0.4065682091168128,381.4787382303912,381.4787382303912,381.4787382303912,,,,,,,,,,,,,,,,,,,,,,,,,,,,129,001,2023-03-03_14h11.17.573,eb_01,2022.2.4,99.91678804300675,
,,,1,0,1,0,97,0,97,0,,,,,,,,,,,,,,,,,,,,,,,,,,,,,,,,,,,,,,,,,,,,,,,,,,,,,,,,,,,129,001,2023-03-03_14h11.17.573,eb_01,2022.2.4,99.91678804300675,
3,stimuli/3.png,l,1,0,1,0,98,0,98,0,0,0,0,0,,,,,,,,,,,,,,,,,,382.489388811111,382.489388811111,382.489388811111,382.489388811111,l,1,0.47768899833317846,382.9794266061217,382.9794266061217,382.9794266061217,383.9900986184075,383.9900986184075,383.9900986184075,,,,,,,,,,,,,,,,,,,,,,,,,129,001,2023-03-03_14h11.17.573,eb_01,2022.2.4,99.91678804300675,
,,,1,0,1,0,98,0,98,0,,,,,,,,,,,,,,,,,,,,,,,,,,,,,,,,,,,,,,,,,,,,,,,,,,,,,,,,,,,129,001,2023-03-03_14h11.17.573,eb_01,2022.2.4,99.91678804300675,
4,stimuli/4.png,l,1,0,1,0,99,0,99,0,0,0,0,0,,,,,,,,,,,,,,,,,,383.9900986184075,383.9900986184075,383.9900986184075,383.9900986184075,l,1,0.5530339181714226,384.5708215019549,384.5708215019549,384.5708215019549,,,,,,,,,,,,,,,,,,,,,,,,,,,,129,001,2023-03-03_14h11.17.573,eb_01,2022.2.4,99.91678804300675,
,,,1,0,1,0,99,0,99,0,,,,,,,,,,,,,,,,,,,,,,,,,,,,,,,,,,,,,,,,,,,,,,,,,,,,,,,,,,,129,001,2023-03-03_14h11.17.573,eb_01,2022.2.4,99.91678804300675,
,,,1,0,1,0,,,,,,,,,,,,,,,,,,,,,,,,,,,,,,,,,,,,,,,385.57148014518316,385.57148014518316,return,23.170447937620338,,,,,,,,,,,,,,,,,,,,,129,001,2023-03-03_14h11.17.573,eb_01,2022.2.4,99.91678804300675,
2,stimuli/2.png,s,2,0,2,0,0,0,0,0,0,0,0,0,,,,,,,,,,,,,,,,,,408.7670866146218,408.7670866146218,408.7670866146218,408.7670866146218,s,1,0.6388280827959534,409.41719704752904,409.41719704752904,409.41719704752904,410.4278775116836,410.4278775116836,410.4278775116836,,,,,,,,,,,,,,,,,,,,,,,,,129,001,2023-03-03_14h11.17.573,eb_01,2022.2.4,99.91678804300675,
,,,2,0,2,0,0,0,0,0,,,,,,,,,,,,,,,,,,,,,,,,,,,,,,,,,,,,,,,,,,,,,,,,,,,,,,,,,,,129,001,2023-03-03_14h11.17.573,eb_01,2022.2.4,99.91678804300675,
4,stimuli/4.png,l,2,0,2,0,1,0,1,0,0,0,0,0,,,,,,,,,,,,,,,,,,410.4278775116836,410.4278775116836,410.4278775116836,410.4278775116836,l,1,0.5140809978765901,410.96856050236966,410.96856050236966,410.96856050236966,,,,,,,,,,,,,,,,,,,,,,,,,,,,129,001,2023-03-03_14h11.17.573,eb_01,2022.2.4,99.91678804300675,
,,,2,0,2,0,1,0,1,0,,,,,,,,,,,,,,,,,,,,,,,,,,,,,,,,,,,,,,,,,,,,,,,,,,,,,,,,,,,129,001,2023-03-03_14h11.17.573,eb_01,2022.2.4,99.91678804300675,
1,stimuli/1.png,s,2,0,2,0,2,0,2,0,0,0,0,0,,,,,,,,,,,,,,,,,,411.9892492041108,411.9892492041108,411.9892492041108,411.9892492041108,s,1,0.48073167639086023,412.5095960573235,412.5095960573235,412.5095960573235,,,,,,,,,,,,,,,,,,,,,,,,,,,,129,001,2023-03-03_14h11.17.573,eb_01,2022.2.4,99.91678804300675,
,,,2,0,2,0,2,0,2,0,,,,,,,,,,,,,,,,,,,,,,,,,,,,,,,,,,,,,,,,,,,,,,,,,,,,,,,,,,,129,001,2023-03-03_14h11.17.573,eb_01,2022.2.4,99.91678804300675,
4,stimuli/4.png,l,2,0,2,0,3,0,3,0,0,0,0,0,,,,,,,,,,,,,,,,,,413.50994771605474,413.50994771605474,413.50994771605474,413.50994771605474,l,1,0.3281247683917172,413.8605028689781,413.8605028689781,413.8605028689781,,,,,,,,,,,,,,,,,,,,,,,,,,,,129,001,2023-03-03_14h11.17.573,eb_01,2022.2.4,99.91678804300675,
,,,2,0,2,0,3,0,3,0,,,,,,,,,,,,,,,,,,,,,,,,,,,,,,,,,,,,,,,,,,,,,,,,,,,,,,,,,,,129,001,2023-03-03_14h11.17.573,eb_01,2022.2.4,99.91678804300675,
2,stimuli/2.png,s,2,0,2,0,4,0,4,0,0,0,0,0,,,,,,,,,,,,,,,,,,414.87118454053416,414.87118454053416,414.87118454053416,414.87118454053416,s,1,0.4789302177960053,415.3611707187083,415.3611707187083,415.3611707187083,416.3718708032975,416.3718708032975,416.3718708032975,,,,,,,,,,,,,,,,,,,,,,,,,129,001,2023-03-03_14h11.17.573,eb_01,2022.2.4,99.91678804300675,
,,,2,0,2,0,4,0,4,0,,,,,,,,,,,,,,,,,,,,,,,,,,,,,,,,,,,,,,,,,,,,,,,,,,,,,,,,,,,129,001,2023-03-03_14h11.17.573,eb_01,2022.2.4,99.91678804300675,
3,stimuli/3.png,l,2,0,2,0,5,0,5,0,0,0,0,0,,,,,,,,,,,,,,,,,,416.3718708032975,416.3718708032975,416.3718708032975,416.3718708032975,l,1,0.41828523646108806,416.80216796850436,416.80216796850436,416.80216796850436,,,,,,,,,,,,,,,,,,,,,,,,,,,,129,001,2023-03-03_14h11.17.573,eb_01,2022.2.4,99.91678804300675,
,,,2,0,2,0,5,0,5,0,,,,,,,,,,,,,,,,,,,,,,,,,,,,,,,,,,,,,,,,,,,,,,,,,,,,,,,,,,,129,001,2023-03-03_14h11.17.573,eb_01,2022.2.4,99.91678804300675,
8,stimuli/8.png,l,2,0,2,0,6,0,6,0,0,0,0,0,,,,,,,,,,,,,,,,,,417.8131862061855,417.8131862061855,417.8131862061855,417.8131862061855,l,1,0.48905044281855226,418.32346837531077,418.32346837531077,418.32346837531077,,,,,,,,,,,,,,,,,,,,,,,,,,,,129,001,2023-03-03_14h11.17.573,eb_01,2022.2.4,99.91678804300675,
,,,2,0,2,0,6,0,6,0,,,,,,,,,,,,,,,,,,,,,,,,,,,,,,,,,,,,,,,,,,,,,,,,,,,,,,,,,,,129,001,2023-03-03_14h11.17.573,eb_01,2022.2.4,99.91678804300675,
6,stimuli/6.png,s,2,0,2,0,7,0,7,0,0,0,0,0,,,,,,,,,,,,,,,,,,419.34421774951625,419.34421774951625,419.34421774951625,419.34421774951625,s,1,0.43803728837519884,419.81449353144853,419.81449353144853,419.81449353144853,,,,,,,,,,,,,,,,,,,,,,,,,,,,129,001,2023-03-03_14h11.17.573,eb_01,2022.2.4,99.91678804300675,
,,,2,0,2,0,7,0,7,0,,,,,,,,,,,,,,,,,,,,,,,,,,,,,,,,,,,,,,,,,,,,,,,,,,,,,,,,,,,129,001,2023-03-03_14h11.17.573,eb_01,2022.2.4,99.91678804300675,
9,stimuli/9.png,l,2,0,2,0,8,0,8,0,0,0,0,0,,,,,,,,,,,,,,,,,,420.82518305120175,420.82518305120175,420.82518305120175,420.82518305120175,l,1,0.3161578067811206,421.16508732154034,421.16508732154034,421.16508732154034,,,,,,,,,,,,,,,,,,,,,,,,,,,,129,001,2023-03-03_14h11.17.573,eb_01,2022.2.4,99.91678804300675,
,,,2,0,2,0,8,0,8,0,,,,,,,,,,,,,,,,,,,,,,,,,,,,,,,,,,,,,,,,,,,,,,,,,,,,,,,,,,,129,001,2023-03-03_14h11.17.573,eb_01,2022.2.4,99.91678804300675,
6,stimuli/6.png,s,2,0,2,0,9,0,9,0,0,0,0,0,,,,,,,,,,,,,,,,,,422.1860993078444,422.1860993078444,422.1860993078444,422.1860993078444,s,1,0.44323006525519304,422.6664171348675,422.6664171348675,422.6664171348675,,,,,,,,,,,,,,,,,,,,,,,,,,,,129,001,2023-03-03_14h11.17.573,eb_01,2022.2.4,99.91678804300675,
,,,2,0,2,0,9,0,9,0,,,,,,,,,,,,,,,,,,,,,,,,,,,,,,,,,,,,,,,,,,,,,,,,,,,,,,,,,,,129,001,2023-03-03_14h11.17.573,eb_01,2022.2.4,99.91678804300675,
