index,stimulus,correct_answer,block.thisRepN,block.thisTrialN,block.thisN,block.thisIndex,trial.thisRepN,trial.thisTrialN,trial.thisN,trial.thisIndex,display_row.thisRepN,display_row.thisTrialN,display_row.thisN,display_row.thisIndex,pair_questions.thisRepN,pair_questions.thisTrialN,pair_questions.thisN,pair_questions.thisIndex,welcome_text.started,instructions_0_keypress.started,instructions_0_keypress.keys,instructions_0_keypress.rt,instructions_1_keypress.started,instructions_1_text.started,instructions_1_keypress.keys,instructions_1_keypress.rt,instructions_2_keypress.started,instructions_2_text.started,instructions_2_keypress.keys,instructions_2_keypress.rt,text_countdown.started,text_countdown.stopped,image.started,size_question.started,size_resp.started,keypress_options.started,size_resp.keys,size_resp.corr,size_resp.rt,fb_image.started,fb.started,fb_size_question.started,fb_image.stopped,fb.stopped,fb_size_question.stopped,block_break_text.started,block_break_keypress.started,block_break_keypress.keys,block_break_keypress.rt,seq_reveal.started,seq_reveal_adv.started,seq_reveal_adv.keys,seq_reveal_adv.rt,instruction_2afc_text.started,instruction_2afc_keypress.started,instruction_2afc_keypress.keys,instruction_2afc_keypress.rt,dist_2afc_test.started,dist_2afc_resp.started,text.started,stim_00.started,stim_01.started,stim_10.started,stim_11.started,dist_2afc_resp.keys,dist_2afc_resp.rt,graph.started,debrief_text.started,debriefing_title.started,participant,session,date,expName,psychopyVersion,frameRate,
,,,,,,,,,,,,,,,,,,,12.478407399496064,12.478407399496064,return,24.579626266640844,,,,,,,,,,,,,,,,,,,,,,,,,,,,,,,,,,,,,,,,,,,,,,,,130,001,2023-03-03_14h20.13.412,eb_01,2022.2.4,60.01316972139898,
,,,,,,,,,,,,,,,,,,,,,,,37.077238745463546,37.077238745463546,return,12.14816787300515,,,,,,,,,,,,,,,,,,,,,,,,,,,,,,,,,,,,,,,,,,,,130,001,2023-03-03_14h20.13.412,eb_01,2022.2.4,60.01316972139898,
,,,,,,,,,,,,,,,,,,,,,,,,,,,49.243328822631156,49.243328822631156,space,10.678396789269755,,,,,,,,,,,,,,,,,,,,,,,,,,,,,,,,,,,,,,,,130,001,2023-03-03_14h20.13.412,eb_01,2022.2.4,60.01316972139898,
4,stimuli/4.png,l,0,0,0,0,0,0,0,0,0,0,0,0,,,,,,,,,,,,,,,,,59.94250364712207,64.9592930120125,64.9592930120125,64.9592930120125,64.9592930120125,64.9592930120125,l,1,1.4816324117709883,66.47583742317511,66.47583742317511,66.47583742317511,,,,,,,,,,,,,,,,,,,,,,,,,,,,130,001,2023-03-03_14h20.13.412,eb_01,2022.2.4,60.01316972139898,
,,,0,0,0,0,0,0,0,0,,,,,,,,,,,,,,,,,,,,,,,,,,,,,,,,,,,,,,,,,,,,,,,,,,,,,,,,,,,,130,001,2023-03-03_14h20.13.412,eb_01,2022.2.4,60.01316972139898,
3,stimuli/3.png,l,0,0,0,0,1,0,1,0,0,0,0,0,,,,,,,,,,,,,,,,,,,67.47583561207284,67.47583561207284,67.47583561207284,67.47583561207284,l,1,0.7891605346521828,68.29244784961338,68.29244784961338,68.29244784961338,69.3090642527095,69.3090642527095,69.3090642527095,,,,,,,,,,,,,,,,,,,,,,,,,130,001,2023-03-03_14h20.13.412,eb_01,2022.2.4,60.01316972139898,
,,,0,0,0,0,1,0,1,0,,,,,,,,,,,,,,,,,,,,,,,,,,,,,,,,,,,,,,,,,,,,,,,,,,,,,,,,,,,,130,001,2023-03-03_14h20.13.412,eb_01,2022.2.4,60.01316972139898,
4,stimuli/4.png,l,0,0,0,0,2,0,2,0,0,0,0,0,,,,,,,,,,,,,,,,,,,69.3090642527095,69.3090642527095,69.3090642527095,69.3090642527095,l,1,3.5320756677829195,72.85889308698825,72.85889308698825,72.85889308698825,73.85887648505741,73.85887648505741,73.85887648505741,,,,,,,,,,,,,,,,,,,,,,,,,130,001,2023-03-03_14h20.13.412,eb_01,2022.2.4,60.01316972139898,
,,,0,0,0,0,2,0,2,0,,,,,,,,,,,,,,,,,,,,,,,,,,,,,,,,,,,,,,,,,,,,,,,,,,,,,,,,,,,,130,001,2023-03-03_14h20.13.412,eb_01,2022.2.4,60.01316972139898,
2,stimuli/2.png,s,0,0,0,0,3,0,3,0,0,0,0,0,,,,,,,,,,,,,,,,,,,73.85887648505741,73.85887648505741,73.85887648505741,73.85887648505741,s,1,5.5335061491059605,79.42527855746448,79.42527855746448,79.42527855746448,80.4418970735569,80.4418970735569,80.4418970735569,,,,,,,,,,,,,,,,,,,,,,,,,130,001,2023-03-03_14h20.13.412,eb_01,2022.2.4,60.01316972139898,
,,,0,0,0,0,3,0,3,0,,,,,,,,,,,,,,,,,,,,,,,,,,,,,,,,,,,,,,,,,,,,,,,,,,,,,,,,,,,,130,001,2023-03-03_14h20.13.412,eb_01,2022.2.4,60.01316972139898,
1,stimuli/1.png,s,0,0,0,0,4,0,4,0,0,0,0,0,,,,,,,,,,,,,,,,,,,80.4418970735569,80.4418970735569,80.4418970735569,80.4418970735569,s,1,0.9345187451108359,81.42517200336442,81.42517200336442,81.42517200336442,,,,,,,,,,,,,,,,,,,,,,,,,,,,130,001,2023-03-03_14h20.13.412,eb_01,2022.2.4,60.01316972139898,
,,,0,0,0,0,4,0,4,0,,,,,,,,,,,,,,,,,,,,,,,,,,,,,,,,,,,,,,,,,,,,,,,,,,,,,,,,,,,,130,001,2023-03-03_14h20.13.412,eb_01,2022.2.4,60.01316972139898,
2,stimuli/2.png,s,0,0,0,0,5,0,5,0,0,0,0,0,,,,,,,,,,,,,,,,,,,82.42511616056436,82.42511616056436,82.42511616056436,82.42511616056436,s,1,2.031426532950718,84.47505864247796,84.47505864247796,84.47505864247796,85.4916632733366,85.4916632733366,85.4916632733366,,,,,,,,,,,,,,,,,,,,,,,,,130,001,2023-03-03_14h20.13.412,eb_01,2022.2.4,60.01316972139898,
,,,0,0,0,0,5,0,5,0,,,,,,,,,,,,,,,,,,,,,,,,,,,,,,,,,,,,,,,,,,,,,,,,,,,,,,,,,,,,130,001,2023-03-03_14h20.13.412,eb_01,2022.2.4,60.01316972139898,
1,stimuli/1.png,s,0,0,0,0,6,0,6,0,0,0,0,0,,,,,,,,,,,,,,,,,,,85.4916632733366,85.4916632733366,85.4916632733366,85.4916632733366,s,1,0.8769294215308037,86.4082929881697,86.4082929881697,86.4082929881697,,,,,,,,,,,,,,,,,,,,,,,,,,,,130,001,2023-03-03_14h20.13.412,eb_01,2022.2.4,60.01316972139898,
,,,0,0,0,0,6,0,6,0,,,,,,,,,,,,,,,,,,,,,,,,,,,,,,,,,,,,,,,,,,,,,,,,,,,,,,,,,,,,130,001,2023-03-03_14h20.13.412,eb_01,2022.2.4,60.01316972139898,
4,stimuli/4.png,l,0,0,0,0,7,0,7,0,0,0,0,0,,,,,,,,,,,,,,,,,,,87.42491482463083,87.42491482463083,87.42491482463083,87.42491482463083,l,1,1.3437746442796197,88.79149384325137,88.79149384325137,88.79149384325137,89.80812775384402,89.80812775384402,89.80812775384402,,,,,,,,,,,,,,,,,,,,,,,,,130,001,2023-03-03_14h20.13.412,eb_01,2022.2.4,60.01316972139898,
,,,0,0,0,0,7,0,7,0,,,,,,,,,,,,,,,,,,,,,,,,,,,,,,,,,,,,,,,,,,,,,,,,,,,,,,,,,,,,130,001,2023-03-03_14h20.13.412,eb_01,2022.2.4,60.01316972139898,
1,stimuli/1.png,s,0,0,0,0,8,0,8,0,0,0,0,0,,,,,,,,,,,,,,,,,,,89.80812775384402,89.80812775384402,89.80812775384402,89.80812775384402,s,1,1.0005868171574548,90.85808653579443,90.85808653579443,90.85808653579443,,,,,,,,,,,,,,,,,,,,,,,,,,,,130,001,2023-03-03_14h20.13.412,eb_01,2022.2.4,60.01316972139898,
,,,0,0,0,0,8,0,8,0,,,,,,,,,,,,,,,,,,,,,,,,,,,,,,,,,,,,,,,,,,,,,,,,,,,,,,,,,,,,130,001,2023-03-03_14h20.13.412,eb_01,2022.2.4,60.01316972139898,
4,stimuli/4.png,l,0,0,0,0,9,0,9,0,0,0,0,0,,,,,,,,,,,,,,,,,,,91.87469750555465,91.87469750555465,91.87469750555465,91.87469750555465,l,1,3.7981436795089394,95.69119896306074,95.69119896306074,95.69119896306074,96.69114613879356,96.69114613879356,96.69114613879356,,,,,,,,,,,,,,,,,,,,,,,,,130,001,2023-03-03_14h20.13.412,eb_01,2022.2.4,60.01316972139898,
,,,0,0,0,0,9,0,9,0,,,,,,,,,,,,,,,,,,,,,,,,,,,,,,,,,,,,,,,,,,,,,,,,,,,,,,,,,,,,130,001,2023-03-03_14h20.13.412,eb_01,2022.2.4,60.01316972139898,
2,stimuli/2.png,s,0,0,0,0,10,0,10,0,0,0,0,0,,,,,,,,,,,,,,,,,,,96.69114613879356,96.69114613879356,96.69114613879356,96.69114613879356,s,1,1.1328050653391983,97.84109311830252,97.84109311830252,97.84109311830252,98.85772219926002,98.85772219926002,98.85772219926002,,,,,,,,,,,,,,,,,,,,,,,,,130,001,2023-03-03_14h20.13.412,eb_01,2022.2.4,60.01316972139898,
,,,0,0,0,0,10,0,10,0,,,,,,,,,,,,,,,,,,,,,,,,,,,,,,,,,,,,,,,,,,,,,,,,,,,,,,,,,,,,130,001,2023-03-03_14h20.13.412,eb_01,2022.2.4,60.01316972139898,
4,stimuli/4.png,l,0,0,0,0,11,0,11,0,0,0,0,0,,,,,,,,,,,,,,,,,,,98.85772219926002,98.85772219926002,98.85772219926002,98.85772219926002,l,1,0.638308298017364,99.5243518386269,99.5243518386269,99.5243518386269,100.5243032402941,100.5243032402941,100.5243032402941,,,,,,,,,,,,,,,,,,,,,,,,,130,001,2023-03-03_14h20.13.412,eb_01,2022.2.4,60.01316972139898,
,,,0,0,0,0,11,0,11,0,,,,,,,,,,,,,,,,,,,,,,,,,,,,,,,,,,,,,,,,,,,,,,,,,,,,,,,,,,,,130,001,2023-03-03_14h20.13.412,eb_01,2022.2.4,60.01316972139898,
3,stimuli/3.png,l,0,0,0,0,12,0,12,0,0,0,0,0,,,,,,,,,,,,,,,,,,,100.5243032402941,100.5243032402941,100.5243032402941,100.5243032402941,l,1,1.0997621246206108,101.6409069353831,101.6409069353831,101.6409069353831,102.64054078771733,102.64054078771733,102.64054078771733,,,,,,,,,,,,,,,,,,,,,,,,,130,001,2023-03-03_14h20.13.412,eb_01,2022.2.4,60.01316972139898,
,,,0,0,0,0,12,0,12,0,,,,,,,,,,,,,,,,,,,,,,,,,,,,,,,,,,,,,,,,,,,,,,,,,,,,,,,,,,,,130,001,2023-03-03_14h20.13.412,eb_01,2022.2.4,60.01316972139898,
8,stimuli/8.png,l,0,0,0,0,13,0,13,0,0,0,0,0,,,,,,,,,,,,,,,,,,,102.64054078771733,102.64054078771733,102.64054078771733,102.64054078771733,l,1,3.951688746601576,106.62401162012247,106.62401162012247,106.62401162012247,107.62399230152369,107.62399230152369,107.62399230152369,,,,,,,,,,,,,,,,,,,,,,,,,130,001,2023-03-03_14h20.13.412,eb_01,2022.2.4,60.01316972139898,
,,,0,0,0,0,13,0,13,0,,,,,,,,,,,,,,,,,,,,,,,,,,,,,,,,,,,,,,,,,,,,,,,,,,,,,,,,,,,,130,001,2023-03-03_14h20.13.412,eb_01,2022.2.4,60.01316972139898,
3,stimuli/3.png,l,0,0,0,0,14,0,14,0,0,0,0,0,,,,,,,,,,,,,,,,,,,107.62399230152369,107.62399230152369,107.62399230152369,107.62399230152369,l,1,0.616267294913996,108.25729435283574,108.25729435283574,108.25729435283574,109.27388721142779,109.27388721142779,109.27388721142779,,,,,,,,,,,,,,,,,,,,,,,,,130,001,2023-03-03_14h20.13.412,eb_01,2022.2.4,60.01316972139898,
,,,0,0,0,0,14,0,14,0,,,,,,,,,,,,,,,,,,,,,,,,,,,,,,,,,,,,,,,,,,,,,,,,,,,,,,,,,,,,130,001,2023-03-03_14h20.13.412,eb_01,2022.2.4,60.01316972139898,
4,stimuli/4.png,l,0,0,0,0,15,0,15,0,0,0,0,0,,,,,,,,,,,,,,,,,,,109.27388721142779,109.27388721142779,109.27388721142779,109.27388721142779,l,1,0.5184358369442634,109.82389534634422,109.82389534634422,109.82389534634422,110.84051295687095,110.84051295687095,110.84051295687095,,,,,,,,,,,,,,,,,,,,,,,,,130,001,2023-03-03_14h20.13.412,eb_01,2022.2.4,60.01316972139898,
,,,0,0,0,0,15,0,15,0,,,,,,,,,,,,,,,,,,,,,,,,,,,,,,,,,,,,,,,,,,,,,,,,,,,,,,,,,,,,130,001,2023-03-03_14h20.13.412,eb_01,2022.2.4,60.01316972139898,
1,stimuli/1.png,s,0,0,0,0,16,0,16,0,0,0,0,0,,,,,,,,,,,,,,,,,,,110.84051295687095,110.84051295687095,110.84051295687095,110.84051295687095,s,1,0.5749173600925133,111.45715211972129,111.45715211972129,111.45715211972129,,,,,,,,,,,,,,,,,,,,,,,,,,,,130,001,2023-03-03_14h20.13.412,eb_01,2022.2.4,60.01316972139898,
,,,0,0,0,0,16,0,16,0,,,,,,,,,,,,,,,,,,,,,,,,,,,,,,,,,,,,,,,,,,,,,,,,,,,,,,,,,,,,130,001,2023-03-03_14h20.13.412,eb_01,2022.2.4,60.01316972139898,
2,stimuli/2.png,s,0,0,0,0,17,0,17,0,0,0,0,0,,,,,,,,,,,,,,,,,,,112.45710774732288,112.45710774732288,112.45710774732288,112.45710774732288,s,1,0.8703777024929877,113.35703533279593,113.35703533279593,113.35703533279593,114.37368554342538,114.37368554342538,114.37368554342538,,,,,,,,,,,,,,,,,,,,,,,,,130,001,2023-03-03_14h20.13.412,eb_01,2022.2.4,60.01316972139898,
,,,0,0,0,0,17,0,17,0,,,,,,,,,,,,,,,,,,,,,,,,,,,,,,,,,,,,,,,,,,,,,,,,,,,,,,,,,,,,130,001,2023-03-03_14h20.13.412,eb_01,2022.2.4,60.01316972139898,
4,stimuli/4.png,l,0,0,0,0,18,0,18,0,0,0,0,0,,,,,,,,,,,,,,,,,,,114.37368554342538,114.37368554342538,114.37368554342538,114.37368554342538,l,1,0.8258097129873931,115.22365012098453,115.22365012098453,115.22365012098453,116.22357586515136,116.22357586515136,116.22357586515136,,,,,,,,,,,,,,,,,,,,,,,,,130,001,2023-03-03_14h20.13.412,eb_01,2022.2.4,60.01316972139898,
,,,0,0,0,0,18,0,18,0,,,,,,,,,,,,,,,,,,,,,,,,,,,,,,,,,,,,,,,,,,,,,,,,,,,,,,,,,,,,130,001,2023-03-03_14h20.13.412,eb_01,2022.2.4,60.01316972139898,
2,stimuli/2.png,s,0,0,0,0,19,0,19,0,0,0,0,0,,,,,,,,,,,,,,,,,,,116.22357586515136,116.22357586515136,116.22357586515136,116.22357586515136,s,1,0.6559848088363651,116.90688107081223,116.90688107081223,116.90688107081223,117.92351347213844,117.92351347213844,117.92351347213844,,,,,,,,,,,,,,,,,,,,,,,,,130,001,2023-03-03_14h20.13.412,eb_01,2022.2.4,60.01316972139898,
,,,0,0,0,0,19,0,19,0,,,,,,,,,,,,,,,,,,,,,,,,,,,,,,,,,,,,,,,,,,,,,,,,,,,,,,,,,,,,130,001,2023-03-03_14h20.13.412,eb_01,2022.2.4,60.01316972139898,
4,stimuli/4.png,l,0,0,0,0,20,0,20,0,0,0,0,0,,,,,,,,,,,,,,,,,,,117.92351347213844,117.92351347213844,117.92351347213844,117.92351347213844,l,1,0.4440843152697198,118.39017305531888,118.39017305531888,118.39017305531888,119.39010091245291,119.39010091245291,119.39010091245291,,,,,,,,,,,,,,,,,,,,,,,,,130,001,2023-03-03_14h20.13.412,eb_01,2022.2.4,60.01316972139898,
,,,0,0,0,0,20,0,20,0,,,,,,,,,,,,,,,,,,,,,,,,,,,,,,,,,,,,,,,,,,,,,,,,,,,,,,,,,,,,130,001,2023-03-03_14h20.13.412,eb_01,2022.2.4,60.01316972139898,
2,stimuli/2.png,s,0,0,0,0,21,0,21,0,0,0,0,0,,,,,,,,,,,,,,,,,,,119.39010091245291,119.39010091245291,119.39010091245291,119.39010091245291,s,1,0.3935514089243952,119.80677243391983,119.80677243391983,119.80677243391983,120.82336468881113,120.82336468881113,120.82336468881113,,,,,,,,,,,,,,,,,,,,,,,,,130,001,2023-03-03_14h20.13.412,eb_01,2022.2.4,60.01316972139898,
,,,0,0,0,0,21,0,21,0,,,,,,,,,,,,,,,,,,,,,,,,,,,,,,,,,,,,,,,,,,,,,,,,,,,,,,,,,,,,130,001,2023-03-03_14h20.13.412,eb_01,2022.2.4,60.01316972139898,
4,stimuli/4.png,l,0,0,0,0,22,0,22,0,0,0,0,0,,,,,,,,,,,,,,,,,,,120.82336468881113,120.82336468881113,120.82336468881113,120.82336468881113,l,1,0.3603216212068219,121.20672733709216,121.20672733709216,121.20672733709216,122.20665579792694,122.20665579792694,122.20665579792694,,,,,,,,,,,,,,,,,,,,,,,,,130,001,2023-03-03_14h20.13.412,eb_01,2022.2.4,60.01316972139898,
,,,0,0,0,0,22,0,22,0,,,,,,,,,,,,,,,,,,,,,,,,,,,,,,,,,,,,,,,,,,,,,,,,,,,,,,,,,,,,130,001,2023-03-03_14h20.13.412,eb_01,2022.2.4,60.01316972139898,
2,stimuli/2.png,s,0,0,0,0,23,0,23,0,0,0,0,0,,,,,,,,,,,,,,,,,,,122.20665579792694,122.20665579792694,122.20665579792694,122.20665579792694,s,1,0.457060673244996,122.68997072326601,122.68997072326601,122.68997072326601,123.68990914526512,123.68990914526512,123.68990914526512,,,,,,,,,,,,,,,,,,,,,,,,,130,001,2023-03-03_14h20.13.412,eb_01,2022.2.4,60.01316972139898,
,,,0,0,0,0,23,0,23,0,,,,,,,,,,,,,,,,,,,,,,,,,,,,,,,,,,,,,,,,,,,,,,,,,,,,,,,,,,,,130,001,2023-03-03_14h20.13.412,eb_01,2022.2.4,60.01316972139898,
3,stimuli/3.png,l,0,0,0,0,24,0,24,0,0,0,0,0,,,,,,,,,,,,,,,,,,,123.68990914526512,123.68990914526512,123.68990914526512,123.68990914526512,l,1,0.4938659095496405,124.20652358632651,124.20652358632651,124.20652358632651,125.2232130378543,125.2232130378543,125.2232130378543,,,,,,,,,,,,,,,,,,,,,,,,,130,001,2023-03-03_14h20.13.412,eb_01,2022.2.4,60.01316972139898,
,,,0,0,0,0,24,0,24,0,,,,,,,,,,,,,,,,,,,,,,,,,,,,,,,,,,,,,,,,,,,,,,,,,,,,,,,,,,,,130,001,2023-03-03_14h20.13.412,eb_01,2022.2.4,60.01316972139898,
4,stimuli/4.png,l,0,0,0,0,25,0,25,0,0,0,0,0,,,,,,,,,,,,,,,,,,,125.2232130378543,125.2232130378543,125.2232130378543,125.2232130378543,l,1,0.42459095135563985,125.67315539903939,125.67315539903939,125.67315539903939,126.67313306190772,126.67313306190772,126.67313306190772,,,,,,,,,,,,,,,,,,,,,,,,,130,001,2023-03-03_14h20.13.412,eb_01,2022.2.4,60.01316972139898,
,,,0,0,0,0,25,0,25,0,,,,,,,,,,,,,,,,,,,,,,,,,,,,,,,,,,,,,,,,,,,,,,,,,,,,,,,,,,,,130,001,2023-03-03_14h20.13.412,eb_01,2022.2.4,60.01316972139898,
2,stimuli/2.png,s,0,0,0,0,26,0,26,0,0,0,0,0,,,,,,,,,,,,,,,,,,,126.67313306190772,126.67313306190772,126.67313306190772,126.67313306190772,s,1,0.5737947688321583,127.27309575289837,127.27309575289837,127.27309575289837,128.28969947819132,128.28969947819132,128.28969947819132,,,,,,,,,,,,,,,,,,,,,,,,,130,001,2023-03-03_14h20.13.412,eb_01,2022.2.4,60.01316972139898,
,,,0,0,0,0,26,0,26,0,,,,,,,,,,,,,,,,,,,,,,,,,,,,,,,,,,,,,,,,,,,,,,,,,,,,,,,,,,,,130,001,2023-03-03_14h20.13.412,eb_01,2022.2.4,60.01316972139898,
1,stimuli/1.png,s,0,0,0,0,27,0,27,0,0,0,0,0,,,,,,,,,,,,,,,,,,,128.28969947819132,128.28969947819132,128.28969947819132,128.28969947819132,l,0,0.4212126127386,128.7563497039082,128.7563497039082,128.7563497039082,,,,,,,,,,,,,,,,,,,,,,,,,,,,130,001,2023-03-03_14h20.13.412,eb_01,2022.2.4,60.01316972139898,
,,,0,0,0,0,27,0,27,0,,,,,,,,,,,,,,,,,,,,,,,,,,,,,,,,,,,,,,,,,,,,,,,,,,,,,,,,,,,,130,001,2023-03-03_14h20.13.412,eb_01,2022.2.4,60.01316972139898,
4,stimuli/4.png,l,0,0,0,0,28,0,28,0,0,0,0,0,,,,,,,,,,,,,,,,,,,129.7729842182016,129.7729842182016,129.7729842182016,129.7729842182016,l,1,1.9060485752706882,131.7059251627943,131.7059251627943,131.7059251627943,132.70619049156085,132.70619049156085,132.70619049156085,,,,,,,,,,,,,,,,,,,,,,,,,130,001,2023-03-03_14h20.13.412,eb_01,2022.2.4,60.01316972139898,
,,,0,0,0,0,28,0,28,0,,,,,,,,,,,,,,,,,,,,,,,,,,,,,,,,,,,,,,,,,,,,,,,,,,,,,,,,,,,,130,001,2023-03-03_14h20.13.412,eb_01,2022.2.4,60.01316972139898,
2,stimuli/2.png,s,0,0,0,0,29,0,29,0,0,0,0,0,,,,,,,,,,,,,,,,,,,132.70619049156085,132.70619049156085,132.70619049156085,132.70619049156085,s,1,0.6688860053836834,133.40616190608125,133.40616190608125,133.40616190608125,134.40613141894573,134.40613141894573,134.40613141894573,,,,,,,,,,,,,,,,,,,,,,,,,130,001,2023-03-03_14h20.13.412,eb_01,2022.2.4,60.01316972139898,
,,,0,0,0,0,29,0,29,0,,,,,,,,,,,,,,,,,,,,,,,,,,,,,,,,,,,,,,,,,,,,,,,,,,,,,,,,,,,,130,001,2023-03-03_14h20.13.412,eb_01,2022.2.4,60.01316972139898,
3,stimuli/3.png,l,0,0,0,0,30,0,30,0,0,0,0,0,,,,,,,,,,,,,,,,,,,134.40613141894573,134.40613141894573,134.40613141894573,134.40613141894573,l,1,0.5449998051917646,134.97274267545436,134.97274267545436,134.97274267545436,135.97270554752322,135.97270554752322,135.97270554752322,,,,,,,,,,,,,,,,,,,,,,,,,130,001,2023-03-03_14h20.13.412,eb_01,2022.2.4,60.01316972139898,
,,,0,0,0,0,30,0,30,0,,,,,,,,,,,,,,,,,,,,,,,,,,,,,,,,,,,,,,,,,,,,,,,,,,,,,,,,,,,,130,001,2023-03-03_14h20.13.412,eb_01,2022.2.4,60.01316972139898,
2,stimuli/2.png,s,0,0,0,0,31,0,31,0,0,0,0,0,,,,,,,,,,,,,,,,,,,135.97270554752322,135.97270554752322,135.97270554752322,135.97270554752322,s,1,0.986504168016836,136.98932074324694,136.98932074324694,136.98932074324694,138.0059549556754,138.0059549556754,138.0059549556754,,,,,,,,,,,,,,,,,,,,,,,,,130,001,2023-03-03_14h20.13.412,eb_01,2022.2.4,60.01316972139898,
,,,0,0,0,0,31,0,31,0,,,,,,,,,,,,,,,,,,,,,,,,,,,,,,,,,,,,,,,,,,,,,,,,,,,,,,,,,,,,130,001,2023-03-03_14h20.13.412,eb_01,2022.2.4,60.01316972139898,
1,stimuli/1.png,s,0,0,0,0,32,0,32,0,0,0,0,0,,,,,,,,,,,,,,,,,,,138.0059549556754,138.0059549556754,138.0059549556754,138.0059549556754,s,1,1.7773173328023404,139.82247029841528,139.82247029841528,139.82247029841528,,,,,,,,,,,,,,,,,,,,,,,,,,,,130,001,2023-03-03_14h20.13.412,eb_01,2022.2.4,60.01316972139898,
,,,0,0,0,0,32,0,32,0,,,,,,,,,,,,,,,,,,,,,,,,,,,,,,,,,,,,,,,,,,,,,,,,,,,,,,,,,,,,130,001,2023-03-03_14h20.13.412,eb_01,2022.2.4,60.01316972139898,
2,stimuli/2.png,s,0,0,0,0,33,0,33,0,0,0,0,0,,,,,,,,,,,,,,,,,,,140.82248961701407,140.82248961701407,140.82248961701407,140.82248961701407,s,1,0.5928422958822921,141.43912727056886,141.43912727056886,141.43912727056886,142.43909587786766,142.43909587786766,142.43909587786766,,,,,,,,,,,,,,,,,,,,,,,,,130,001,2023-03-03_14h20.13.412,eb_01,2022.2.4,60.01316972139898,
,,,0,0,0,0,33,0,33,0,,,,,,,,,,,,,,,,,,,,,,,,,,,,,,,,,,,,,,,,,,,,,,,,,,,,,,,,,,,,130,001,2023-03-03_14h20.13.412,eb_01,2022.2.4,60.01316972139898,
3,stimuli/3.png,l,0,0,0,0,34,0,34,0,0,0,0,0,,,,,,,,,,,,,,,,,,,142.43909587786766,142.43909587786766,142.43909587786766,142.43909587786766,l,1,0.4792876177816652,142.9723873944895,142.9723873944895,142.9723873944895,,,,,,,,,,,,,,,,,,,,,,,,,,,,130,001,2023-03-03_14h20.13.412,eb_01,2022.2.4,60.01316972139898,
,,,0,0,0,0,34,0,34,0,,,,,,,,,,,,,,,,,,,,,,,,,,,,,,,,,,,,,,,,,,,,,,,,,,,,,,,,,,,,130,001,2023-03-03_14h20.13.412,eb_01,2022.2.4,60.01316972139898,
2,stimuli/2.png,s,0,0,0,0,35,0,35,0,0,0,0,0,,,,,,,,,,,,,,,,,,,143.97236777405487,143.97236777405487,143.97236777405487,143.97236777405487,s,1,0.40203227038728073,144.40566898015095,144.40566898015095,144.40566898015095,145.422261838743,145.422261838743,145.422261838743,,,,,,,,,,,,,,,,,,,,,,,,,130,001,2023-03-03_14h20.13.412,eb_01,2022.2.4,60.01316972139898,
,,,0,0,0,0,35,0,35,0,,,,,,,,,,,,,,,,,,,,,,,,,,,,,,,,,,,,,,,,,,,,,,,,,,,,,,,,,,,,130,001,2023-03-03_14h20.13.412,eb_01,2022.2.4,60.01316972139898,
1,stimuli/1.png,s,0,0,0,0,36,0,36,0,0,0,0,0,,,,,,,,,,,,,,,,,,,145.422261838743,145.422261838743,145.422261838743,145.422261838743,s,1,0.40819067499251105,145.8722690982977,145.8722690982977,145.8722690982977,,,,,,,,,,,,,,,,,,,,,,,,,,,,130,001,2023-03-03_14h20.13.412,eb_01,2022.2.4,60.01316972139898,
,,,0,0,0,0,36,0,36,0,,,,,,,,,,,,,,,,,,,,,,,,,,,,,,,,,,,,,,,,,,,,,,,,,,,,,,,,,,,,130,001,2023-03-03_14h20.13.412,eb_01,2022.2.4,60.01316972139898,
2,stimuli/2.png,s,0,0,0,0,37,0,37,0,0,0,0,0,,,,,,,,,,,,,,,,,,,146.87222895186278,146.87222895186278,146.87222895186278,146.87222895186278,s,1,0.9022977500862908,147.805525781092,147.805525781092,147.805525781092,148.82213463788503,148.82213463788503,148.82213463788503,,,,,,,,,,,,,,,,,,,,,,,,,130,001,2023-03-03_14h20.13.412,eb_01,2022.2.4,60.01316972139898,
,,,0,0,0,0,37,0,37,0,,,,,,,,,,,,,,,,,,,,,,,,,,,,,,,,,,,,,,,,,,,,,,,,,,,,,,,,,,,,130,001,2023-03-03_14h20.13.412,eb_01,2022.2.4,60.01316972139898,
4,stimuli/4.png,l,0,0,0,0,38,0,38,0,0,0,0,0,,,,,,,,,,,,,,,,,,,148.82213463788503,148.82213463788503,148.82213463788503,148.82213463788503,s,0,0.38445869146380574,149.23844906728482,149.23844906728482,149.23844906728482,150.25538966050954,150.25538966050954,150.25538966050954,,,,,,,,,,,,,,,,,,,,,,,,,130,001,2023-03-03_14h20.13.412,eb_01,2022.2.4,60.01316972139898,
,,,0,0,0,0,38,0,38,0,,,,,,,,,,,,,,,,,,,,,,,,,,,,,,,,,,,,,,,,,,,,,,,,,,,,,,,,,,,,130,001,2023-03-03_14h20.13.412,eb_01,2022.2.4,60.01316972139898,
1,stimuli/1.png,s,0,0,0,0,39,0,39,0,0,0,0,0,,,,,,,,,,,,,,,,,,,150.25538966050954,150.25538966050954,150.25538966050954,150.25538966050954,s,1,0.5672318812285084,150.8720701771963,150.8720701771963,150.8720701771963,,,,,,,,,,,,,,,,,,,,,,,,,,,,130,001,2023-03-03_14h20.13.412,eb_01,2022.2.4,60.01316972139898,
,,,0,0,0,0,39,0,39,0,,,,,,,,,,,,,,,,,,,,,,,,,,,,,,,,,,,,,,,,,,,,,,,,,,,,,,,,,,,,130,001,2023-03-03_14h20.13.412,eb_01,2022.2.4,60.01316972139898,
4,stimuli/4.png,l,0,0,0,0,40,0,40,0,0,0,0,0,,,,,,,,,,,,,,,,,,,151.8886778265587,151.8886778265587,151.8886778265587,151.8886778265587,l,1,0.8940064522903413,152.80527977092424,152.80527977092424,152.80527977092424,153.80525833935826,153.80525833935826,153.80525833935826,,,,,,,,,,,,,,,,,,,,,,,,,130,001,2023-03-03_14h20.13.412,eb_01,2022.2.4,60.01316972139898,
,,,0,0,0,0,40,0,40,0,,,,,,,,,,,,,,,,,,,,,,,,,,,,,,,,,,,,,,,,,,,,,,,,,,,,,,,,,,,,130,001,2023-03-03_14h20.13.412,eb_01,2022.2.4,60.01316972139898,
3,stimuli/3.png,l,0,0,0,0,41,0,41,0,0,0,0,0,,,,,,,,,,,,,,,,,,,153.80525833935826,153.80525833935826,153.80525833935826,153.80525833935826,l,1,0.5294833543593995,154.3552429297706,154.3552429297706,154.3552429297706,155.37184756060014,155.37184756060014,155.37184756060014,,,,,,,,,,,,,,,,,,,,,,,,,130,001,2023-03-03_14h20.13.412,eb_01,2022.2.4,60.01316972139898,
,,,0,0,0,0,41,0,41,0,,,,,,,,,,,,,,,,,,,,,,,,,,,,,,,,,,,,,,,,,,,,,,,,,,,,,,,,,,,,130,001,2023-03-03_14h20.13.412,eb_01,2022.2.4,60.01316972139898,
8,stimuli/8.png,l,0,0,0,0,42,0,42,0,0,0,0,0,,,,,,,,,,,,,,,,,,,155.37184756060014,155.37184756060014,155.37184756060014,155.37184756060014,l,1,1.6750103006197605,157.07175830268534,157.07175830268534,157.07175830268534,158.07169763022102,158.07169763022102,158.07169763022102,,,,,,,,,,,,,,,,,,,,,,,,,130,001,2023-03-03_14h20.13.412,eb_01,2022.2.4,60.01316972139898,
,,,0,0,0,0,42,0,42,0,,,,,,,,,,,,,,,,,,,,,,,,,,,,,,,,,,,,,,,,,,,,,,,,,,,,,,,,,,,,130,001,2023-03-03_14h20.13.412,eb_01,2022.2.4,60.01316972139898,
3,stimuli/3.png,l,0,0,0,0,43,0,43,0,0,0,0,0,,,,,,,,,,,,,,,,,,,158.07169763022102,158.07169763022102,158.07169763022102,158.07169763022102,l,1,0.4301924371975474,158.5217057953705,158.5217057953705,158.5217057953705,159.5216342562053,159.5216342562053,159.5216342562053,,,,,,,,,,,,,,,,,,,,,,,,,130,001,2023-03-03_14h20.13.412,eb_01,2022.2.4,60.01316972139898,
,,,0,0,0,0,43,0,43,0,,,,,,,,,,,,,,,,,,,,,,,,,,,,,,,,,,,,,,,,,,,,,,,,,,,,,,,,,,,,130,001,2023-03-03_14h20.13.412,eb_01,2022.2.4,60.01316972139898,
2,stimuli/2.png,s,0,0,0,0,44,0,44,0,0,0,0,0,,,,,,,,,,,,,,,,,,,159.5216342562053,159.5216342562053,159.5216342562053,159.5216342562053,s,1,0.5962982107303105,160.13830420802697,160.13830420802697,160.13830420802697,161.1382504781941,161.1382504781941,161.1382504781941,,,,,,,,,,,,,,,,,,,,,,,,,130,001,2023-03-03_14h20.13.412,eb_01,2022.2.4,60.01316972139898,
,,,0,0,0,0,44,0,44,0,,,,,,,,,,,,,,,,,,,,,,,,,,,,,,,,,,,,,,,,,,,,,,,,,,,,,,,,,,,,130,001,2023-03-03_14h20.13.412,eb_01,2022.2.4,60.01316972139898,
3,stimuli/3.png,l,0,0,0,0,45,0,45,0,0,0,0,0,,,,,,,,,,,,,,,,,,,161.1382504781941,161.1382504781941,161.1382504781941,161.1382504781941,l,1,0.4597685963381082,161.62155574423377,161.62155574423377,161.62155574423377,162.62121706519974,162.62121706519974,162.62121706519974,,,,,,,,,,,,,,,,,,,,,,,,,130,001,2023-03-03_14h20.13.412,eb_01,2022.2.4,60.01316972139898,
,,,0,0,0,0,45,0,45,0,,,,,,,,,,,,,,,,,,,,,,,,,,,,,,,,,,,,,,,,,,,,,,,,,,,,,,,,,,,,130,001,2023-03-03_14h20.13.412,eb_01,2022.2.4,60.01316972139898,
8,stimuli/8.png,l,0,0,0,0,46,0,46,0,0,0,0,0,,,,,,,,,,,,,,,,,,,162.62121706519974,162.62121706519974,162.62121706519974,162.62121706519974,l,1,0.7608237838430796,163.4048111139855,163.4048111139855,163.4048111139855,164.4214694746479,164.4214694746479,164.4214694746479,,,,,,,,,,,,,,,,,,,,,,,,,130,001,2023-03-03_14h20.13.412,eb_01,2022.2.4,60.01316972139898,
,,,0,0,0,0,46,0,46,0,,,,,,,,,,,,,,,,,,,,,,,,,,,,,,,,,,,,,,,,,,,,,,,,,,,,,,,,,,,,130,001,2023-03-03_14h20.13.412,eb_01,2022.2.4,60.01316972139898,
9,stimuli/9.png,l,0,0,0,0,47,0,47,0,0,0,0,0,,,,,,,,,,,,,,,,,,,164.4214694746479,164.4214694746479,164.4214694746479,164.4214694746479,l,1,1.104630711459322,165.57138928741915,165.57138928741915,165.57138928741915,,,,,,,,,,,,,,,,,,,,,,,,,,,,130,001,2023-03-03_14h20.13.412,eb_01,2022.2.4,60.01316972139898,
,,,0,0,0,0,47,0,47,0,,,,,,,,,,,,,,,,,,,,,,,,,,,,,,,,,,,,,,,,,,,,,,,,,,,,,,,,,,,,130,001,2023-03-03_14h20.13.412,eb_01,2022.2.4,60.01316972139898,
6,stimuli/6.png,s,0,0,0,0,48,0,48,0,0,0,0,0,,,,,,,,,,,,,,,,,,,166.58799904974876,166.58799904974876,166.58799904974876,166.58799904974876,s,1,0.8261314882547595,167.45463194913464,167.45463194913464,167.45463194913464,,,,,,,,,,,,,,,,,,,,,,,,,,,,130,001,2023-03-03_14h20.13.412,eb_01,2022.2.4,60.01316972139898,
,,,0,0,0,0,48,0,48,0,,,,,,,,,,,,,,,,,,,,,,,,,,,,,,,,,,,,,,,,,,,,,,,,,,,,,,,,,,,,130,001,2023-03-03_14h20.13.412,eb_01,2022.2.4,60.01316972139898,
9,stimuli/9.png,l,0,0,0,0,49,0,49,0,0,0,0,0,,,,,,,,,,,,,,,,,,,168.47123295775964,168.47123295775964,168.47123295775964,168.47123295775964,l,1,0.7029778852302115,169.22121205442818,169.22121205442818,169.22121205442818,,,,,,,,,,,,,,,,,,,,,,,,,,,,130,001,2023-03-03_14h20.13.412,eb_01,2022.2.4,60.01316972139898,
,,,0,0,0,0,49,0,49,0,,,,,,,,,,,,,,,,,,,,,,,,,,,,,,,,,,,,,,,,,,,,,,,,,,,,,,,,,,,,130,001,2023-03-03_14h20.13.412,eb_01,2022.2.4,60.01316972139898,
6,stimuli/6.png,s,0,0,0,0,50,0,50,0,0,0,0,0,,,,,,,,,,,,,,,,,,,170.23785170022165,170.23785170022165,170.23785170022165,170.23785170022165,s,1,0.5124277551367413,170.78782512206817,170.78782512206817,170.78782512206817,,,,,,,,,,,,,,,,,,,,,,,,,,,,130,001,2023-03-03_14h20.13.412,eb_01,2022.2.4,60.01316972139898,
,,,0,0,0,0,50,0,50,0,,,,,,,,,,,,,,,,,,,,,,,,,,,,,,,,,,,,,,,,,,,,,,,,,,,,,,,,,,,,130,001,2023-03-03_14h20.13.412,eb_01,2022.2.4,60.01316972139898,
9,stimuli/9.png,l,0,0,0,0,51,0,51,0,0,0,0,0,,,,,,,,,,,,,,,,,,,171.8044330732955,171.8044330732955,171.8044330732955,171.8044330732955,l,1,0.7379077089135535,172.5877593784826,172.5877593784826,172.5877593784826,,,,,,,,,,,,,,,,,,,,,,,,,,,,130,001,2023-03-03_14h20.13.412,eb_01,2022.2.4,60.01316972139898,
,,,0,0,0,0,51,0,51,0,,,,,,,,,,,,,,,,,,,,,,,,,,,,,,,,,,,,,,,,,,,,,,,,,,,,,,,,,,,,130,001,2023-03-03_14h20.13.412,eb_01,2022.2.4,60.01316972139898,
6,stimuli/6.png,s,0,0,0,0,52,0,52,0,0,0,0,0,,,,,,,,,,,,,,,,,,,173.6043549537426,173.6043549537426,173.6043549537426,173.6043549537426,s,1,0.7850311858346686,174.43764879464288,174.43764879464288,174.43764879464288,,,,,,,,,,,,,,,,,,,,,,,,,,,,130,001,2023-03-03_14h20.13.412,eb_01,2022.2.4,60.01316972139898,
,,,0,0,0,0,52,0,52,0,,,,,,,,,,,,,,,,,,,,,,,,,,,,,,,,,,,,,,,,,,,,,,,,,,,,,,,,,,,,130,001,2023-03-03_14h20.13.412,eb_01,2022.2.4,60.01316972139898,
8,stimuli/8.png,l,0,0,0,0,53,0,53,0,0,0,0,0,,,,,,,,,,,,,,,,,,,175.43727660991135,175.43727660991135,175.43727660991135,175.43727660991135,l,1,0.856164049153449,176.32090443605557,176.32090443605557,176.32090443605557,177.3375304984511,177.3375304984511,177.3375304984511,,,,,,,,,,,,,,,,,,,,,,,,,130,001,2023-03-03_14h20.13.412,eb_01,2022.2.4,60.01316972139898,
,,,0,0,0,0,53,0,53,0,,,,,,,,,,,,,,,,,,,,,,,,,,,,,,,,,,,,,,,,,,,,,,,,,,,,,,,,,,,,130,001,2023-03-03_14h20.13.412,eb_01,2022.2.4,60.01316972139898,
6,stimuli/6.png,s,0,0,0,0,54,0,54,0,0,0,0,0,,,,,,,,,,,,,,,,,,,177.3375304984511,177.3375304984511,177.3375304984511,177.3375304984511,s,1,0.7079801929066889,178.08751955628395,178.08751955628395,178.08751955628395,,,,,,,,,,,,,,,,,,,,,,,,,,,,130,001,2023-03-03_14h20.13.412,eb_01,2022.2.4,60.01316972139898,
,,,0,0,0,0,54,0,54,0,,,,,,,,,,,,,,,,,,,,,,,,,,,,,,,,,,,,,,,,,,,,,,,,,,,,,,,,,,,,130,001,2023-03-03_14h20.13.412,eb_01,2022.2.4,60.01316972139898,
5,stimuli/5.png,s,0,0,0,0,55,0,55,0,0,0,0,0,,,,,,,,,,,,,,,,,,,179.0871310714865,179.0871310714865,179.0871310714865,179.0871310714865,s,1,0.8064201864763163,179.9207273690845,179.9207273690845,179.9207273690845,180.93737335380865,180.93737335380865,180.93737335380865,,,,,,,,,,,,,,,,,,,,,,,,,130,001,2023-03-03_14h20.13.412,eb_01,2022.2.4,60.01316972139898,
,,,0,0,0,0,55,0,55,0,,,,,,,,,,,,,,,,,,,,,,,,,,,,,,,,,,,,,,,,,,,,,,,,,,,,,,,,,,,,130,001,2023-03-03_14h20.13.412,eb_01,2022.2.4,60.01316972139898,
6,stimuli/6.png,s,0,0,0,0,56,0,56,0,0,0,0,0,,,,,,,,,,,,,,,,,,,180.93737335380865,180.93737335380865,180.93737335380865,180.93737335380865,l,0,0.70021532670944,181.68732950964477,181.68732950964477,181.68732950964477,,,,,,,,,,,,,,,,,,,,,,,,,,,,130,001,2023-03-03_14h20.13.412,eb_01,2022.2.4,60.01316972139898,
,,,0,0,0,0,56,0,56,0,,,,,,,,,,,,,,,,,,,,,,,,,,,,,,,,,,,,,,,,,,,,,,,,,,,,,,,,,,,,130,001,2023-03-03_14h20.13.412,eb_01,2022.2.4,60.01316972139898,
9,stimuli/9.png,l,0,0,0,0,57,0,57,0,0,0,0,0,,,,,,,,,,,,,,,,,,,182.7039471201715,182.7039471201715,182.7039471201715,182.7039471201715,s,0,0.3177060168236494,183.07058258529287,183.07058258529287,183.07058258529287,,,,,,,,,,,,,,,,,,,,,,,,,,,,130,001,2023-03-03_14h20.13.412,eb_01,2022.2.4,60.01316972139898,
,,,0,0,0,0,57,0,57,0,,,,,,,,,,,,,,,,,,,,,,,,,,,,,,,,,,,,,,,,,,,,,,,,,,,,,,,,,,,,130,001,2023-03-03_14h20.13.412,eb_01,2022.2.4,60.01316972139898,
6,stimuli/6.png,s,0,0,0,0,58,0,58,0,0,0,0,0,,,,,,,,,,,,,,,,,,,184.08720713845105,184.08720713845105,184.08720713845105,184.08720713845105,s,1,1.6705374431039672,185.80382574509713,185.80382574509713,185.80382574509713,,,,,,,,,,,,,,,,,,,,,,,,,,,,130,001,2023-03-03_14h20.13.412,eb_01,2022.2.4,60.01316972139898,
,,,0,0,0,0,58,0,58,0,,,,,,,,,,,,,,,,,,,,,,,,,,,,,,,,,,,,,,,,,,,,,,,,,,,,,,,,,,,,130,001,2023-03-03_14h20.13.412,eb_01,2022.2.4,60.01316972139898,
8,stimuli/8.png,l,0,0,0,0,59,0,59,0,0,0,0,0,,,,,,,,,,,,,,,,,,,186.82043671485735,186.82043671485735,186.82043671485735,186.82043671485735,l,1,0.7293996807129588,187.57041128372657,187.57041128372657,187.57041128372657,188.58700474601937,188.58700474601937,188.58700474601937,,,,,,,,,,,,,,,,,,,,,,,,,130,001,2023-03-03_14h20.13.412,eb_01,2022.2.4,60.01316972139898,
,,,0,0,0,0,59,0,59,0,,,,,,,,,,,,,,,,,,,,,,,,,,,,,,,,,,,,,,,,,,,,,,,,,,,,,,,,,,,,130,001,2023-03-03_14h20.13.412,eb_01,2022.2.4,60.01316972139898,
9,stimuli/9.png,l,0,0,0,0,60,0,60,0,0,0,0,0,,,,,,,,,,,,,,,,,,,188.58700474601937,188.58700474601937,188.58700474601937,188.58700474601937,l,1,0.8658646985131782,189.48699119282537,189.48699119282537,189.48699119282537,,,,,,,,,,,,,,,,,,,,,,,,,,,,130,001,2023-03-03_14h20.13.412,eb_01,2022.2.4,60.01316972139898,
,,,0,0,0,0,60,0,60,0,,,,,,,,,,,,,,,,,,,,,,,,,,,,,,,,,,,,,,,,,,,,,,,,,,,,,,,,,,,,130,001,2023-03-03_14h20.13.412,eb_01,2022.2.4,60.01316972139898,
5,stimuli/5.png,s,0,0,0,0,61,0,61,0,0,0,0,0,,,,,,,,,,,,,,,,,,,190.4866250451596,190.4866250451596,190.4866250451596,190.4866250451596,s,1,1.4703331489872653,191.98685732102604,191.98685732102604,191.98685732102604,193.00347553525353,193.00347553525353,193.00347553525353,,,,,,,,,,,,,,,,,,,,,,,,,130,001,2023-03-03_14h20.13.412,eb_01,2022.2.4,60.01316972139898,
,,,0,0,0,0,61,0,61,0,,,,,,,,,,,,,,,,,,,,,,,,,,,,,,,,,,,,,,,,,,,,,,,,,,,,,,,,,,,,130,001,2023-03-03_14h20.13.412,eb_01,2022.2.4,60.01316972139898,
9,stimuli/9.png,l,0,0,0,0,62,0,62,0,0,0,0,0,,,,,,,,,,,,,,,,,,,193.00347553525353,193.00347553525353,193.00347553525353,193.00347553525353,l,1,0.5855356425454374,193.63679630143452,193.63679630143452,193.63679630143452,,,,,,,,,,,,,,,,,,,,,,,,,,,,130,001,2023-03-03_14h20.13.412,eb_01,2022.2.4,60.01316972139898,
,,,0,0,0,0,62,0,62,0,,,,,,,,,,,,,,,,,,,,,,,,,,,,,,,,,,,,,,,,,,,,,,,,,,,,,,,,,,,,130,001,2023-03-03_14h20.13.412,eb_01,2022.2.4,60.01316972139898,
5,stimuli/5.png,s,0,0,0,0,63,0,63,0,0,0,0,0,,,,,,,,,,,,,,,,,,,194.63642230560072,194.63642230560072,194.63642230560072,194.63642230560072,s,1,0.67263169909711,195.33673632325372,195.33673632325372,195.33673632325372,196.35335604674765,196.35335604674765,196.35335604674765,,,,,,,,,,,,,,,,,,,,,,,,,130,001,2023-03-03_14h20.13.412,eb_01,2022.2.4,60.01316972139898,
,,,0,0,0,0,63,0,63,0,,,,,,,,,,,,,,,,,,,,,,,,,,,,,,,,,,,,,,,,,,,,,,,,,,,,,,,,,,,,130,001,2023-03-03_14h20.13.412,eb_01,2022.2.4,60.01316972139898,
6,stimuli/6.png,s,0,0,0,0,64,0,64,0,0,0,0,0,,,,,,,,,,,,,,,,,,,196.35335604674765,196.35335604674765,196.35335604674765,196.35335604674765,s,1,0.6197636580327526,197.01999262874597,197.01999262874597,197.01999262874597,,,,,,,,,,,,,,,,,,,,,,,,,,,,130,001,2023-03-03_14h20.13.412,eb_01,2022.2.4,60.01316972139898,
,,,0,0,0,0,64,0,64,0,,,,,,,,,,,,,,,,,,,,,,,,,,,,,,,,,,,,,,,,,,,,,,,,,,,,,,,,,,,,130,001,2023-03-03_14h20.13.412,eb_01,2022.2.4,60.01316972139898,
8,stimuli/8.png,l,0,0,0,0,65,0,65,0,0,0,0,0,,,,,,,,,,,,,,,,,,,198.01963795148185,198.01963795148185,198.01963795148185,198.01963795148185,l,1,0.6335115522379056,198.66991229055566,198.66991229055566,198.66991229055566,199.68651661954937,199.68651661954937,199.68651661954937,,,,,,,,,,,,,,,,,,,,,,,,,130,001,2023-03-03_14h20.13.412,eb_01,2022.2.4,60.01316972139898,
,,,0,0,0,0,65,0,65,0,,,,,,,,,,,,,,,,,,,,,,,,,,,,,,,,,,,,,,,,,,,,,,,,,,,,,,,,,,,,130,001,2023-03-03_14h20.13.412,eb_01,2022.2.4,60.01316972139898,
9,stimuli/9.png,l,0,0,0,0,66,0,66,0,0,0,0,0,,,,,,,,,,,,,,,,,,,199.68651661954937,199.68651661954937,199.68651661954937,199.68651661954937,l,1,0.6386928587162402,200.36984567160835,200.36984567160835,200.36984567160835,,,,,,,,,,,,,,,,,,,,,,,,,,,,130,001,2023-03-03_14h20.13.412,eb_01,2022.2.4,60.01316972139898,
,,,0,0,0,0,66,0,66,0,,,,,,,,,,,,,,,,,,,,,,,,,,,,,,,,,,,,,,,,,,,,,,,,,,,,,,,,,,,,130,001,2023-03-03_14h20.13.412,eb_01,2022.2.4,60.01316972139898,
8,stimuli/8.png,l,0,0,0,0,67,0,67,0,0,0,0,0,,,,,,,,,,,,,,,,,,,201.3864536228357,201.3864536228357,201.3864536228357,201.3864536228357,l,1,4.257932485023048,205.66958266712027,205.66958266712027,205.66958266712027,206.66957029112382,206.66957029112382,206.66957029112382,,,,,,,,,,,,,,,,,,,,,,,,,130,001,2023-03-03_14h20.13.412,eb_01,2022.2.4,60.01316972139898,
,,,0,0,0,0,67,0,67,0,,,,,,,,,,,,,,,,,,,,,,,,,,,,,,,,,,,,,,,,,,,,,,,,,,,,,,,,,,,,130,001,2023-03-03_14h20.13.412,eb_01,2022.2.4,60.01316972139898,
3,stimuli/3.png,l,0,0,0,0,68,0,68,0,0,0,0,0,,,,,,,,,,,,,,,,,,,206.66957029112382,206.66957029112382,206.66957029112382,206.66957029112382,l,1,0.5748633283947129,207.26952664318378,207.26952664318378,207.26952664318378,208.28613700924325,208.28613700924325,208.28613700924325,,,,,,,,,,,,,,,,,,,,,,,,,130,001,2023-03-03_14h20.13.412,eb_01,2022.2.4,60.01316972139898,
,,,0,0,0,0,68,0,68,0,,,,,,,,,,,,,,,,,,,,,,,,,,,,,,,,,,,,,,,,,,,,,,,,,,,,,,,,,,,,130,001,2023-03-03_14h20.13.412,eb_01,2022.2.4,60.01316972139898,
4,stimuli/4.png,l,0,0,0,0,69,0,69,0,0,0,0,0,,,,,,,,,,,,,,,,,,,208.28613700924325,208.28613700924325,208.28613700924325,208.28613700924325,l,1,0.7823588813771494,209.0860911879572,209.0860911879572,209.0860911879572,210.08603745812434,210.08603745812434,210.08603745812434,,,,,,,,,,,,,,,,,,,,,,,,,130,001,2023-03-03_14h20.13.412,eb_01,2022.2.4,60.01316972139898,
,,,0,0,0,0,69,0,69,0,,,,,,,,,,,,,,,,,,,,,,,,,,,,,,,,,,,,,,,,,,,,,,,,,,,,,,,,,,,,130,001,2023-03-03_14h20.13.412,eb_01,2022.2.4,60.01316972139898,
2,stimuli/2.png,s,0,0,0,0,70,0,70,0,0,0,0,0,,,,,,,,,,,,,,,,,,,210.08603745812434,210.08603745812434,210.08603745812434,210.08603745812434,s,1,0.5745469864923507,210.6860445214843,210.6860445214843,210.6860445214843,211.68572093508556,211.68572093508556,211.68572093508556,,,,,,,,,,,,,,,,,,,,,,,,,130,001,2023-03-03_14h20.13.412,eb_01,2022.2.4,60.01316972139898,
,,,0,0,0,0,70,0,70,0,,,,,,,,,,,,,,,,,,,,,,,,,,,,,,,,,,,,,,,,,,,,,,,,,,,,,,,,,,,,130,001,2023-03-03_14h20.13.412,eb_01,2022.2.4,60.01316972139898,
3,stimuli/3.png,l,0,0,0,0,71,0,71,0,0,0,0,0,,,,,,,,,,,,,,,,,,,211.68572093508556,211.68572093508556,211.68572093508556,211.68572093508556,l,1,0.478871060651727,212.18598279255093,212.18598279255093,212.18598279255093,213.18592121455004,213.18592121455004,213.18592121455004,,,,,,,,,,,,,,,,,,,,,,,,,130,001,2023-03-03_14h20.13.412,eb_01,2022.2.4,60.01316972139898,
,,,0,0,0,0,71,0,71,0,,,,,,,,,,,,,,,,,,,,,,,,,,,,,,,,,,,,,,,,,,,,,,,,,,,,,,,,,,,,130,001,2023-03-03_14h20.13.412,eb_01,2022.2.4,60.01316972139898,
2,stimuli/2.png,s,0,0,0,0,72,0,72,0,0,0,0,0,,,,,,,,,,,,,,,,,,,213.18592121455004,213.18592121455004,213.18592121455004,213.18592121455004,s,1,0.6507446409959812,213.8692511721747,213.8692511721747,213.8692511721747,214.88584403073764,214.88584403073764,214.88584403073764,,,,,,,,,,,,,,,,,,,,,,,,,130,001,2023-03-03_14h20.13.412,eb_01,2022.2.4,60.01316972139898,
,,,0,0,0,0,72,0,72,0,,,,,,,,,,,,,,,,,,,,,,,,,,,,,,,,,,,,,,,,,,,,,,,,,,,,,,,,,,,,130,001,2023-03-03_14h20.13.412,eb_01,2022.2.4,60.01316972139898,
4,stimuli/4.png,l,0,0,0,0,73,0,73,0,0,0,0,0,,,,,,,,,,,,,,,,,,,214.88584403073764,214.88584403073764,214.88584403073764,214.88584403073764,l,1,0.5348750523698982,215.4525008670753,215.4525008670753,215.4525008670753,216.45247128547635,216.45247128547635,216.45247128547635,,,,,,,,,,,,,,,,,,,,,,,,,130,001,2023-03-03_14h20.13.412,eb_01,2022.2.4,60.01316972139898,
,,,0,0,0,0,73,0,73,0,,,,,,,,,,,,,,,,,,,,,,,,,,,,,,,,,,,,,,,,,,,,,,,,,,,,,,,,,,,,130,001,2023-03-03_14h20.13.412,eb_01,2022.2.4,60.01316972139898,
3,stimuli/3.png,l,0,0,0,0,74,0,74,0,0,0,0,0,,,,,,,,,,,,,,,,,,,216.45247128547635,216.45247128547635,216.45247128547635,216.45247128547635,l,1,0.45626981841633096,216.9357502902858,216.9357502902858,216.9357502902858,217.9524053305795,217.9524053305795,217.9524053305795,,,,,,,,,,,,,,,,,,,,,,,,,130,001,2023-03-03_14h20.13.412,eb_01,2022.2.4,60.01316972139898,
,,,0,0,0,0,74,0,74,0,,,,,,,,,,,,,,,,,,,,,,,,,,,,,,,,,,,,,,,,,,,,,,,,,,,,,,,,,,,,130,001,2023-03-03_14h20.13.412,eb_01,2022.2.4,60.01316972139898,
4,stimuli/4.png,l,0,0,0,0,75,0,75,0,0,0,0,0,,,,,,,,,,,,,,,,,,,217.9524053305795,217.9524053305795,217.9524053305795,217.9524053305795,l,1,0.4043834032781888,218.38572344047134,218.38572344047134,218.38572344047134,219.38566488100332,219.38566488100332,219.38566488100332,,,,,,,,,,,,,,,,,,,,,,,,,130,001,2023-03-03_14h20.13.412,eb_01,2022.2.4,60.01316972139898,
,,,0,0,0,0,75,0,75,0,,,,,,,,,,,,,,,,,,,,,,,,,,,,,,,,,,,,,,,,,,,,,,,,,,,,,,,,,,,,130,001,2023-03-03_14h20.13.412,eb_01,2022.2.4,60.01316972139898,
3,stimuli/3.png,l,0,0,0,0,76,0,76,0,0,0,0,0,,,,,,,,,,,,,,,,,,,219.38566488100332,219.38566488100332,219.38566488100332,219.38566488100332,l,1,0.5152211026870646,219.9189871866256,219.9189871866256,219.9189871866256,220.91859628702514,220.91859628702514,220.91859628702514,,,,,,,,,,,,,,,,,,,,,,,,,130,001,2023-03-03_14h20.13.412,eb_01,2022.2.4,60.01316972139898,
,,,0,0,0,0,76,0,76,0,,,,,,,,,,,,,,,,,,,,,,,,,,,,,,,,,,,,,,,,,,,,,,,,,,,,,,,,,,,,130,001,2023-03-03_14h20.13.412,eb_01,2022.2.4,60.01316972139898,
8,stimuli/8.png,l,0,0,0,0,77,0,77,0,0,0,0,0,,,,,,,,,,,,,,,,,,,220.91859628702514,220.91859628702514,220.91859628702514,220.91859628702514,l,1,0.5253051053441595,221.46889601193834,221.46889601193834,221.46889601193834,222.4855311299325,222.4855311299325,222.4855311299325,,,,,,,,,,,,,,,,,,,,,,,,,130,001,2023-03-03_14h20.13.412,eb_01,2022.2.4,60.01316972139898,
,,,0,0,0,0,77,0,77,0,,,,,,,,,,,,,,,,,,,,,,,,,,,,,,,,,,,,,,,,,,,,,,,,,,,,,,,,,,,,130,001,2023-03-03_14h20.13.412,eb_01,2022.2.4,60.01316972139898,
6,stimuli/6.png,s,0,0,0,0,78,0,78,0,0,0,0,0,,,,,,,,,,,,,,,,,,,222.4855311299325,222.4855311299325,222.4855311299325,222.4855311299325,s,1,0.5104017179110087,223.03549730731174,223.03549730731174,223.03549730731174,,,,,,,,,,,,,,,,,,,,,,,,,,,,130,001,2023-03-03_14h20.13.412,eb_01,2022.2.4,60.01316972139898,
,,,0,0,0,0,78,0,78,0,,,,,,,,,,,,,,,,,,,,,,,,,,,,,,,,,,,,,,,,,,,,,,,,,,,,,,,,,,,,130,001,2023-03-03_14h20.13.412,eb_01,2022.2.4,60.01316972139898,
8,stimuli/8.png,l,0,0,0,0,79,0,79,0,0,0,0,0,,,,,,,,,,,,,,,,,,,224.05212095490424,224.05212095490424,224.05212095490424,224.05212095490424,l,1,0.5758669895876665,224.65210930336616,224.65210930336616,224.65210930336616,225.66871906572487,225.66871906572487,225.66871906572487,,,,,,,,,,,,,,,,,,,,,,,,,130,001,2023-03-03_14h20.13.412,eb_01,2022.2.4,60.01316972139898,
,,,0,0,0,0,79,0,79,0,,,,,,,,,,,,,,,,,,,,,,,,,,,,,,,,,,,,,,,,,,,,,,,,,,,,,,,,,,,,130,001,2023-03-03_14h20.13.412,eb_01,2022.2.4,60.01316972139898,
9,stimuli/9.png,l,0,0,0,0,80,0,80,0,0,0,0,0,,,,,,,,,,,,,,,,,,,225.66871906572487,225.66871906572487,225.66871906572487,225.66871906572487,l,1,0.5193335477379151,226.2353713742341,226.2353713742341,226.2353713742341,,,,,,,,,,,,,,,,,,,,,,,,,,,,130,001,2023-03-03_14h20.13.412,eb_01,2022.2.4,60.01316972139898,
,,,0,0,0,0,80,0,80,0,,,,,,,,,,,,,,,,,,,,,,,,,,,,,,,,,,,,,,,,,,,,,,,,,,,,,,,,,,,,130,001,2023-03-03_14h20.13.412,eb_01,2022.2.4,60.01316972139898,
5,stimuli/5.png,s,0,0,0,0,81,0,81,0,0,0,0,0,,,,,,,,,,,,,,,,,,,227.2350028117653,227.2350028117653,227.2350028117653,227.2350028117653,l,0,0.46508815154084004,227.7186271364044,227.7186271364044,227.7186271364044,228.7352293524309,228.7352293524309,228.7352293524309,,,,,,,,,,,,,,,,,,,,,,,,,130,001,2023-03-03_14h20.13.412,eb_01,2022.2.4,60.01316972139898,
,,,0,0,0,0,81,0,81,0,,,,,,,,,,,,,,,,,,,,,,,,,,,,,,,,,,,,,,,,,,,,,,,,,,,,,,,,,,,,130,001,2023-03-03_14h20.13.412,eb_01,2022.2.4,60.01316972139898,
9,stimuli/9.png,l,0,0,0,0,82,0,82,0,0,0,0,0,,,,,,,,,,,,,,,,,,,228.7352293524309,228.7352293524309,228.7352293524309,228.7352293524309,s,0,0.3408916464250069,229.11853917644476,229.11853917644476,229.11853917644476,,,,,,,,,,,,,,,,,,,,,,,,,,,,130,001,2023-03-03_14h20.13.412,eb_01,2022.2.4,60.01316972139898,
,,,0,0,0,0,82,0,82,0,,,,,,,,,,,,,,,,,,,,,,,,,,,,,,,,,,,,,,,,,,,,,,,,,,,,,,,,,,,,130,001,2023-03-03_14h20.13.412,eb_01,2022.2.4,60.01316972139898,
6,stimuli/6.png,s,0,0,0,0,83,0,83,0,0,0,0,0,,,,,,,,,,,,,,,,,,,230.13519059450482,230.13519059450482,230.13519059450482,230.13519059450482,s,1,1.6610236407141201,231.8351034495281,231.8351034495281,231.8351034495281,,,,,,,,,,,,,,,,,,,,,,,,,,,,130,001,2023-03-03_14h20.13.412,eb_01,2022.2.4,60.01316972139898,
,,,0,0,0,0,83,0,83,0,,,,,,,,,,,,,,,,,,,,,,,,,,,,,,,,,,,,,,,,,,,,,,,,,,,,,,,,,,,,130,001,2023-03-03_14h20.13.412,eb_01,2022.2.4,60.01316972139898,
9,stimuli/9.png,l,0,0,0,0,84,0,84,0,0,0,0,0,,,,,,,,,,,,,,,,,,,232.85174822682166,232.85174822682166,232.85174822682166,232.85174822682166,l,1,0.5445243867579848,233.4350579904858,233.4350579904858,233.4350579904858,,,,,,,,,,,,,,,,,,,,,,,,,,,,130,001,2023-03-03_14h20.13.412,eb_01,2022.2.4,60.01316972139898,
,,,0,0,0,0,84,0,84,0,,,,,,,,,,,,,,,,,,,,,,,,,,,,,,,,,,,,,,,,,,,,,,,,,,,,,,,,,,,,130,001,2023-03-03_14h20.13.412,eb_01,2022.2.4,60.01316972139898,
6,stimuli/6.png,s,0,0,0,0,85,0,85,0,0,0,0,0,,,,,,,,,,,,,,,,,,,234.4516577916802,234.4516577916802,234.4516577916802,234.4516577916802,s,1,0.5446553909278009,235.03495276451577,235.03495276451577,235.03495276451577,,,,,,,,,,,,,,,,,,,,,,,,,,,,130,001,2023-03-03_14h20.13.412,eb_01,2022.2.4,60.01316972139898,
,,,0,0,0,0,85,0,85,0,,,,,,,,,,,,,,,,,,,,,,,,,,,,,,,,,,,,,,,,,,,,,,,,,,,,,,,,,,,,130,001,2023-03-03_14h20.13.412,eb_01,2022.2.4,60.01316972139898,
9,stimuli/9.png,l,0,0,0,0,86,0,86,0,0,0,0,0,,,,,,,,,,,,,,,,,,,236.0516050881415,236.0516050881415,236.0516050881415,236.0516050881415,l,1,1.0317718527512625,237.11821076038177,237.11821076038177,237.11821076038177,,,,,,,,,,,,,,,,,,,,,,,,,,,,130,001,2023-03-03_14h20.13.412,eb_01,2022.2.4,60.01316972139898,
,,,0,0,0,0,86,0,86,0,,,,,,,,,,,,,,,,,,,,,,,,,,,,,,,,,,,,,,,,,,,,,,,,,,,,,,,,,,,,130,001,2023-03-03_14h20.13.412,eb_01,2022.2.4,60.01316972139898,
8,stimuli/8.png,l,0,0,0,0,87,0,87,0,0,0,0,0,,,,,,,,,,,,,,,,,,,238.13489236374153,238.13489236374153,238.13489236374153,238.13489236374153,l,1,0.9565790668129921,239.11812412858126,239.11812412858126,239.11812412858126,240.13474475764087,240.13474475764087,240.13474475764087,,,,,,,,,,,,,,,,,,,,,,,,,130,001,2023-03-03_14h20.13.412,eb_01,2022.2.4,60.01316972139898,
,,,0,0,0,0,87,0,87,0,,,,,,,,,,,,,,,,,,,,,,,,,,,,,,,,,,,,,,,,,,,,,,,,,,,,,,,,,,,,130,001,2023-03-03_14h20.13.412,eb_01,2022.2.4,60.01316972139898,
9,stimuli/9.png,l,0,0,0,0,88,0,88,0,0,0,0,0,,,,,,,,,,,,,,,,,,,240.13474475764087,240.13474475764087,240.13474475764087,240.13474475764087,l,1,0.5327608740481082,240.7013982735807,240.7013982735807,240.7013982735807,,,,,,,,,,,,,,,,,,,,,,,,,,,,130,001,2023-03-03_14h20.13.412,eb_01,2022.2.4,60.01316972139898,
,,,0,0,0,0,88,0,88,0,,,,,,,,,,,,,,,,,,,,,,,,,,,,,,,,,,,,,,,,,,,,,,,,,,,,,,,,,,,,130,001,2023-03-03_14h20.13.412,eb_01,2022.2.4,60.01316972139898,
6,stimuli/6.png,s,0,0,0,0,89,0,89,0,0,0,0,0,,,,,,,,,,,,,,,,,,,241.71802795820986,241.71802795820986,241.71802795820986,241.71802795820986,s,1,0.517528768745251,242.28466487224796,242.28466487224796,242.28466487224796,,,,,,,,,,,,,,,,,,,,,,,,,,,,130,001,2023-03-03_14h20.13.412,eb_01,2022.2.4,60.01316972139898,
,,,0,0,0,0,89,0,89,0,,,,,,,,,,,,,,,,,,,,,,,,,,,,,,,,,,,,,,,,,,,,,,,,,,,,,,,,,,,,130,001,2023-03-03_14h20.13.412,eb_01,2022.2.4,60.01316972139898,
9,stimuli/9.png,l,0,0,0,0,90,0,90,0,0,0,0,0,,,,,,,,,,,,,,,,,,,243.3012577308109,243.3012577308109,243.3012577308109,243.3012577308109,l,1,0.7423669830604922,244.0845562655304,244.0845562655304,244.0845562655304,,,,,,,,,,,,,,,,,,,,,,,,,,,,130,001,2023-03-03_14h20.13.412,eb_01,2022.2.4,60.01316972139898,
,,,0,0,0,0,90,0,90,0,,,,,,,,,,,,,,,,,,,,,,,,,,,,,,,,,,,,,,,,,,,,,,,,,,,,,,,,,,,,130,001,2023-03-03_14h20.13.412,eb_01,2022.2.4,60.01316972139898,
6,stimuli/6.png,s,0,0,0,0,91,0,91,0,0,0,0,0,,,,,,,,,,,,,,,,,,,245.10120949472184,245.10120949472184,245.10120949472184,245.10120949472184,s,1,0.566417481895769,245.70115558378166,245.70115558378166,245.70115558378166,,,,,,,,,,,,,,,,,,,,,,,,,,,,130,001,2023-03-03_14h20.13.412,eb_01,2022.2.4,60.01316972139898,
,,,0,0,0,0,91,0,91,0,,,,,,,,,,,,,,,,,,,,,,,,,,,,,,,,,,,,,,,,,,,,,,,,,,,,,,,,,,,,130,001,2023-03-03_14h20.13.412,eb_01,2022.2.4,60.01316972139898,
8,stimuli/8.png,l,0,0,0,0,92,0,92,0,0,0,0,0,,,,,,,,,,,,,,,,,,,246.71780428514467,246.71780428514467,246.71780428514467,246.71780428514467,l,1,0.4298996397992596,247.16777713349438,247.16777713349438,247.16777713349438,248.1677309499646,248.1677309499646,248.1677309499646,,,,,,,,,,,,,,,,,,,,,,,,,130,001,2023-03-03_14h20.13.412,eb_01,2022.2.4,60.01316972139898,
,,,0,0,0,0,92,0,92,0,,,,,,,,,,,,,,,,,,,,,,,,,,,,,,,,,,,,,,,,,,,,,,,,,,,,,,,,,,,,130,001,2023-03-03_14h20.13.412,eb_01,2022.2.4,60.01316972139898,
3,stimuli/3.png,l,0,0,0,0,93,0,93,0,0,0,0,0,,,,,,,,,,,,,,,,,,,248.1677309499646,248.1677309499646,248.1677309499646,248.1677309499646,l,1,0.38801874555065297,248.58437802136177,248.58437802136177,248.58437802136177,249.58401821259758,249.58401821259758,249.58401821259758,,,,,,,,,,,,,,,,,,,,,,,,,130,001,2023-03-03_14h20.13.412,eb_01,2022.2.4,60.01316972139898,
,,,0,0,0,0,93,0,93,0,,,,,,,,,,,,,,,,,,,,,,,,,,,,,,,,,,,,,,,,,,,,,,,,,,,,,,,,,,,,130,001,2023-03-03_14h20.13.412,eb_01,2022.2.4,60.01316972139898,
8,stimuli/8.png,l,0,0,0,0,94,0,94,0,0,0,0,0,,,,,,,,,,,,,,,,,,,249.58401821259758,249.58401821259758,249.58401821259758,249.58401821259758,l,1,0.3717935438908171,249.98433805600507,249.98433805600507,249.98433805600507,251.0009058607975,251.0009058607975,251.0009058607975,,,,,,,,,,,,,,,,,,,,,,,,,130,001,2023-03-03_14h20.13.412,eb_01,2022.2.4,60.01316972139898,
,,,0,0,0,0,94,0,94,0,,,,,,,,,,,,,,,,,,,,,,,,,,,,,,,,,,,,,,,,,,,,,,,,,,,,,,,,,,,,130,001,2023-03-03_14h20.13.412,eb_01,2022.2.4,60.01316972139898,
9,stimuli/9.png,l,0,0,0,0,95,0,95,0,0,0,0,0,,,,,,,,,,,,,,,,,,,251.0009058607975,251.0009058607975,251.0009058607975,251.0009058607975,l,1,0.5299977118556853,251.56755122670438,251.56755122670438,251.56755122670438,,,,,,,,,,,,,,,,,,,,,,,,,,,,130,001,2023-03-03_14h20.13.412,eb_01,2022.2.4,60.01316972139898,
,,,0,0,0,0,95,0,95,0,,,,,,,,,,,,,,,,,,,,,,,,,,,,,,,,,,,,,,,,,,,,,,,,,,,,,,,,,,,,130,001,2023-03-03_14h20.13.412,eb_01,2022.2.4,60.01316972139898,
5,stimuli/5.png,s,0,0,0,0,96,0,96,0,0,0,0,0,,,,,,,,,,,,,,,,,,,252.56722250880557,252.56722250880557,252.56722250880557,252.56722250880557,s,1,0.4276743796071969,253.01752135835704,253.01752135835704,253.01752135835704,254.03415043928544,254.03415043928544,254.03415043928544,,,,,,,,,,,,,,,,,,,,,,,,,130,001,2023-03-03_14h20.13.412,eb_01,2022.2.4,60.01316972139898,
,,,0,0,0,0,96,0,96,0,,,,,,,,,,,,,,,,,,,,,,,,,,,,,,,,,,,,,,,,,,,,,,,,,,,,,,,,,,,,130,001,2023-03-03_14h20.13.412,eb_01,2022.2.4,60.01316972139898,
9,stimuli/9.png,l,0,0,0,0,97,0,97,0,0,0,0,0,,,,,,,,,,,,,,,,,,,254.03415043928544,254.03415043928544,254.03415043928544,254.03415043928544,l,1,0.5047923839010764,254.58411329629598,254.58411329629598,254.58411329629598,,,,,,,,,,,,,,,,,,,,,,,,,,,,130,001,2023-03-03_14h20.13.412,eb_01,2022.2.4,60.01316972139898,
,,,0,0,0,0,97,0,97,0,,,,,,,,,,,,,,,,,,,,,,,,,,,,,,,,,,,,,,,,,,,,,,,,,,,,,,,,,,,,130,001,2023-03-03_14h20.13.412,eb_01,2022.2.4,60.01316972139898,
5,stimuli/5.png,s,0,0,0,0,98,0,98,0,0,0,0,0,,,,,,,,,,,,,,,,,,,255.58375861903187,255.58375861903187,255.58375861903187,255.58375861903187,s,1,0.763226835464593,256.3673900975846,256.3673900975846,256.3673900975846,257.38398537097964,257.38398537097964,257.38398537097964,,,,,,,,,,,,,,,,,,,,,,,,,130,001,2023-03-03_14h20.13.412,eb_01,2022.2.4,60.01316972139898,
,,,0,0,0,0,98,0,98,0,,,,,,,,,,,,,,,,,,,,,,,,,,,,,,,,,,,,,,,,,,,,,,,,,,,,,,,,,,,,130,001,2023-03-03_14h20.13.412,eb_01,2022.2.4,60.01316972139898,
6,stimuli/6.png,s,0,0,0,0,99,0,99,0,0,0,0,0,,,,,,,,,,,,,,,,,,,257.38398537097964,257.38398537097964,257.38398537097964,257.38398537097964,s,1,0.6110651605995372,258.03396993121714,258.03396993121714,258.03396993121714,,,,,,,,,,,,,,,,,,,,,,,,,,,,130,001,2023-03-03_14h20.13.412,eb_01,2022.2.4,60.01316972139898,
,,,0,0,0,0,99,0,99,0,,,,,,,,,,,,,,,,,,,,,,,,,,,,,,,,,,,,,,,,,,,,,,,,,,,,,,,,,,,,130,001,2023-03-03_14h20.13.412,eb_01,2022.2.4,60.01316972139898,
,,,0,0,0,0,,,,,,,,,,,,,,,,,,,,,,,,,,,,,,,,,,,,,,,,259.033908956917,259.033908956917,return,24.775978011079133,,,,,,,,,,,,,,,,,,,,,130,001,2023-03-03_14h20.13.412,eb_01,2022.2.4,60.01316972139898,
9,stimuli/9.png,l,1,0,1,0,0,0,0,0,0,0,0,0,,,,,,,,,,,,,,,,,,,283.84948131092824,283.84948131092824,283.84948131092824,283.84948131092824,l,1,3.888537178048864,287.7826682656596,287.7826682656596,287.7826682656596,,,,,,,,,,,,,,,,,,,,,,,,,,,,130,001,2023-03-03_14h20.13.412,eb_01,2022.2.4,60.01316972139898,
,,,1,0,1,0,0,0,0,0,,,,,,,,,,,,,,,,,,,,,,,,,,,,,,,,,,,,,,,,,,,,,,,,,,,,,,,,,,,,130,001,2023-03-03_14h20.13.412,eb_01,2022.2.4,60.01316972139898,
8,stimuli/8.png,l,1,0,1,0,1,0,1,0,0,0,0,0,,,,,,,,,,,,,,,,,,,288.7992641427845,288.7992641427845,288.7992641427845,288.7992641427845,l,1,0.5868088584393263,289.4159244353359,289.4159244353359,289.4159244353359,290.43254627179704,290.43254627179704,290.43254627179704,,,,,,,,,,,,,,,,,,,,,,,,,130,001,2023-03-03_14h20.13.412,eb_01,2022.2.4,60.01316972139898,
,,,1,0,1,0,1,0,1,0,,,,,,,,,,,,,,,,,,,,,,,,,,,,,,,,,,,,,,,,,,,,,,,,,,,,,,,,,,,,130,001,2023-03-03_14h20.13.412,eb_01,2022.2.4,60.01316972139898,
9,stimuli/9.png,l,1,0,1,0,2,0,2,0,0,0,0,0,,,,,,,,,,,,,,,,,,,290.43254627179704,290.43254627179704,290.43254627179704,290.43254627179704,l,1,0.5615805896522943,291.0325385443575,291.0325385443575,291.0325385443575,,,,,,,,,,,,,,,,,,,,,,,,,,,,130,001,2023-03-03_14h20.13.412,eb_01,2022.2.4,60.01316972139898,
,,,1,0,1,0,2,0,2,0,,,,,,,,,,,,,,,,,,,,,,,,,,,,,,,,,,,,,,,,,,,,,,,,,,,,,,,,,,,,130,001,2023-03-03_14h20.13.412,eb_01,2022.2.4,60.01316972139898,
6,stimuli/6.png,s,1,0,1,0,3,0,3,0,0,0,0,0,,,,,,,,,,,,,,,,,,,292.0491564567201,292.0491564567201,292.0491564567201,292.0491564567201,s,1,0.4009884627594147,292.4991208531719,292.4991208531719,292.4991208531719,,,,,,,,,,,,,,,,,,,,,,,,,,,,130,001,2023-03-03_14h20.13.412,eb_01,2022.2.4,60.01316972139898,
,,,1,0,1,0,3,0,3,0,,,,,,,,,,,,,,,,,,,,,,,,,,,,,,,,,,,,,,,,,,,,,,,,,,,,,,,,,,,,130,001,2023-03-03_14h20.13.412,eb_01,2022.2.4,60.01316972139898,
5,stimuli/5.png,s,1,0,1,0,4,0,4,0,0,0,0,0,,,,,,,,,,,,,,,,,,,293.4987728166743,293.4987728166743,293.4987728166743,293.4987728166743,s,1,0.6554770921065938,294.1823816864635,294.1823816864635,294.1823816864635,295.19900261735893,295.19900261735893,295.19900261735893,,,,,,,,,,,,,,,,,,,,,,,,,130,001,2023-03-03_14h20.13.412,eb_01,2022.2.4,60.01316972139898,
,,,1,0,1,0,4,0,4,0,,,,,,,,,,,,,,,,,,,,,,,,,,,,,,,,,,,,,,,,,,,,,,,,,,,,,,,,,,,,130,001,2023-03-03_14h20.13.412,eb_01,2022.2.4,60.01316972139898,
6,stimuli/6.png,s,1,0,1,0,5,0,5,0,0,0,0,0,,,,,,,,,,,,,,,,,,,295.19900261735893,295.19900261735893,295.19900261735893,295.19900261735893,s,1,0.4272608410101384,295.6656428819406,295.6656428819406,295.6656428819406,,,,,,,,,,,,,,,,,,,,,,,,,,,,130,001,2023-03-03_14h20.13.412,eb_01,2022.2.4,60.01316972139898,
,,,1,0,1,0,5,0,5,0,,,,,,,,,,,,,,,,,,,,,,,,,,,,,,,,,,,,,,,,,,,,,,,,,,,,,,,,,,,,130,001,2023-03-03_14h20.13.412,eb_01,2022.2.4,60.01316972139898,
9,stimuli/9.png,l,1,0,1,0,6,0,6,0,0,0,0,0,,,,,,,,,,,,,,,,,,,296.6822927907342,296.6822927907342,296.6822927907342,296.6822927907342,l,1,0.4559972451534122,297.18226456749835,297.18226456749835,297.18226456749835,,,,,,,,,,,,,,,,,,,,,,,,,,,,130,001,2023-03-03_14h20.13.412,eb_01,2022.2.4,60.01316972139898,
,,,1,0,1,0,6,0,6,0,,,,,,,,,,,,,,,,,,,,,,,,,,,,,,,,,,,,,,,,,,,,,,,,,,,,,,,,,,,,130,001,2023-03-03_14h20.13.412,eb_01,2022.2.4,60.01316972139898,
5,stimuli/5.png,s,1,0,1,0,7,0,7,0,0,0,0,0,,,,,,,,,,,,,,,,,,,298.18187125306576,298.18187125306576,298.18187125306576,298.18187125306576,s,1,0.42750896414509043,298.63217342298594,298.63217342298594,298.63217342298594,299.6488483855792,299.6488483855792,299.6488483855792,,,,,,,,,,,,,,,,,,,,,,,,,130,001,2023-03-03_14h20.13.412,eb_01,2022.2.4,60.01316972139898,
,,,1,0,1,0,7,0,7,0,,,,,,,,,,,,,,,,,,,,,,,,,,,,,,,,,,,,,,,,,,,,,,,,,,,,,,,,,,,,130,001,2023-03-03_14h20.13.412,eb_01,2022.2.4,60.01316972139898,
6,stimuli/6.png,s,1,0,1,0,8,0,8,0,0,0,0,0,,,,,,,,,,,,,,,,,,,299.6488483855792,299.6488483855792,299.6488483855792,299.6488483855792,s,1,0.6325501505052671,300.31545749894576,300.31545749894576,300.31545749894576,,,,,,,,,,,,,,,,,,,,,,,,,,,,130,001,2023-03-03_14h20.13.412,eb_01,2022.2.4,60.01316972139898,
,,,1,0,1,0,8,0,8,0,,,,,,,,,,,,,,,,,,,,,,,,,,,,,,,,,,,,,,,,,,,,,,,,,,,,,,,,,,,,130,001,2023-03-03_14h20.13.412,eb_01,2022.2.4,60.01316972139898,
5,stimuli/5.png,s,1,0,1,0,9,0,9,0,0,0,0,0,,,,,,,,,,,,,,,,,,,301.31508350308286,301.31508350308286,301.31508350308286,301.31508350308286,s,1,0.43837989756138995,301.7820434299938,301.7820434299938,301.7820434299938,302.79867764242226,302.79867764242226,302.79867764242226,,,,,,,,,,,,,,,,,,,,,,,,,130,001,2023-03-03_14h20.13.412,eb_01,2022.2.4,60.01316972139898,
,,,1,0,1,0,9,0,9,0,,,,,,,,,,,,,,,,,,,,,,,,,,,,,,,,,,,,,,,,,,,,,,,,,,,,,,,,,,,,130,001,2023-03-03_14h20.13.412,eb_01,2022.2.4,60.01316972139898,
6,stimuli/6.png,s,1,0,1,0,10,0,10,0,0,0,0,0,,,,,,,,,,,,,,,,,,,302.79867764242226,302.79867764242226,302.79867764242226,302.79867764242226,s,1,0.5148386549262796,303.34864412166644,303.34864412166644,303.34864412166644,,,,,,,,,,,,,,,,,,,,,,,,,,,,130,001,2023-03-03_14h20.13.412,eb_01,2022.2.4,60.01316972139898,
,,,1,0,1,0,10,0,10,0,,,,,,,,,,,,,,,,,,,,,,,,,,,,,,,,,,,,,,,,,,,,,,,,,,,,,,,,,,,,130,001,2023-03-03_14h20.13.412,eb_01,2022.2.4,60.01316972139898,
5,stimuli/5.png,s,1,0,1,0,11,0,11,0,0,0,0,0,,,,,,,,,,,,,,,,,,,304.3482867277344,304.3482867277344,304.3482867277344,304.3482867277344,s,1,0.6132831763243303,304.9819084413466,304.9819084413466,304.9819084413466,305.99854657787364,305.99854657787364,305.99854657787364,,,,,,,,,,,,,,,,,,,,,,,,,130,001,2023-03-03_14h20.13.412,eb_01,2022.2.4,60.01316972139898,
,,,1,0,1,0,11,0,11,0,,,,,,,,,,,,,,,,,,,,,,,,,,,,,,,,,,,,,,,,,,,,,,,,,,,,,,,,,,,,130,001,2023-03-03_14h20.13.412,eb_01,2022.2.4,60.01316972139898,
6,stimuli/6.png,s,1,0,1,0,12,0,12,0,0,0,0,0,,,,,,,,,,,,,,,,,,,305.99854657787364,305.99854657787364,305.99854657787364,305.99854657787364,s,1,0.4350555906421505,306.48184701424907,306.48184701424907,306.48184701424907,,,,,,,,,,,,,,,,,,,,,,,,,,,,130,001,2023-03-03_14h20.13.412,eb_01,2022.2.4,60.01316972139898,
,,,1,0,1,0,12,0,12,0,,,,,,,,,,,,,,,,,,,,,,,,,,,,,,,,,,,,,,,,,,,,,,,,,,,,,,,,,,,,130,001,2023-03-03_14h20.13.412,eb_01,2022.2.4,60.01316972139898,
8,stimuli/8.png,l,1,0,1,0,13,0,13,0,0,0,0,0,,,,,,,,,,,,,,,,,,,307.48149444998126,307.48149444998126,307.48149444998126,307.48149444998126,l,1,0.4801678210787941,307.981776531582,307.981776531582,307.981776531582,308.99840832920745,308.99840832920745,308.99840832920745,,,,,,,,,,,,,,,,,,,,,,,,,130,001,2023-03-03_14h20.13.412,eb_01,2022.2.4,60.01316972139898,
,,,1,0,1,0,13,0,13,0,,,,,,,,,,,,,,,,,,,,,,,,,,,,,,,,,,,,,,,,,,,,,,,,,,,,,,,,,,,,130,001,2023-03-03_14h20.13.412,eb_01,2022.2.4,60.01316972139898,
9,stimuli/9.png,l,1,0,1,0,14,0,14,0,0,0,0,0,,,,,,,,,,,,,,,,,,,308.99840832920745,308.99840832920745,308.99840832920745,308.99840832920745,l,1,0.5552703530120198,309.5983526071359,309.5983526071359,309.5983526071359,,,,,,,,,,,,,,,,,,,,,,,,,,,,130,001,2023-03-03_14h20.13.412,eb_01,2022.2.4,60.01316972139898,
,,,1,0,1,0,14,0,14,0,,,,,,,,,,,,,,,,,,,,,,,,,,,,,,,,,,,,,,,,,,,,,,,,,,,,,,,,,,,,130,001,2023-03-03_14h20.13.412,eb_01,2022.2.4,60.01316972139898,
6,stimuli/6.png,s,1,0,1,0,15,0,15,0,0,0,0,0,,,,,,,,,,,,,,,,,,,310.61497806583066,310.61497806583066,310.61497806583066,310.61497806583066,s,1,0.594775362405926,311.24825657260953,311.24825657260953,311.24825657260953,,,,,,,,,,,,,,,,,,,,,,,,,,,,130,001,2023-03-03_14h20.13.412,eb_01,2022.2.4,60.01316972139898,
,,,1,0,1,0,15,0,15,0,,,,,,,,,,,,,,,,,,,,,,,,,,,,,,,,,,,,,,,,,,,,,,,,,,,,,,,,,,,,130,001,2023-03-03_14h20.13.412,eb_01,2022.2.4,60.01316972139898,
9,stimuli/9.png,l,1,0,1,0,16,0,16,0,0,0,0,0,,,,,,,,,,,,,,,,,,,312.2649330444692,312.2649330444692,312.2649330444692,312.2649330444692,l,1,0.5199291036697105,312.8315750900074,312.8315750900074,312.8315750900074,,,,,,,,,,,,,,,,,,,,,,,,,,,,130,001,2023-03-03_14h20.13.412,eb_01,2022.2.4,60.01316972139898,
,,,1,0,1,0,16,0,16,0,,,,,,,,,,,,,,,,,,,,,,,,,,,,,,,,,,,,,,,,,,,,,,,,,,,,,,,,,,,,130,001,2023-03-03_14h20.13.412,eb_01,2022.2.4,60.01316972139898,
6,stimuli/6.png,s,1,0,1,0,17,0,17,0,0,0,0,0,,,,,,,,,,,,,,,,,,,313.84818424863624,313.84818424863624,313.84818424863624,313.84818424863624,s,1,0.5846756633545738,314.4815022981493,314.4815022981493,314.4815022981493,,,,,,,,,,,,,,,,,,,,,,,,,,,,130,001,2023-03-03_14h20.13.412,eb_01,2022.2.4,60.01316972139898,
,,,1,0,1,0,17,0,17,0,,,,,,,,,,,,,,,,,,,,,,,,,,,,,,,,,,,,,,,,,,,,,,,,,,,,,,,,,,,,130,001,2023-03-03_14h20.13.412,eb_01,2022.2.4,60.01316972139898,
8,stimuli/8.png,l,1,0,1,0,18,0,18,0,0,0,0,0,,,,,,,,,,,,,,,,,,,315.48114430051646,315.48114430051646,315.48114430051646,315.48114430051646,l,1,0.47177027104771696,315.98144720998243,315.98144720998243,315.98144720998243,316.99803222037735,316.99803222037735,316.99803222037735,,,,,,,,,,,,,,,,,,,,,,,,,130,001,2023-03-03_14h20.13.412,eb_01,2022.2.4,60.01316972139898,
,,,1,0,1,0,18,0,18,0,,,,,,,,,,,,,,,,,,,,,,,,,,,,,,,,,,,,,,,,,,,,,,,,,,,,,,,,,,,,130,001,2023-03-03_14h20.13.412,eb_01,2022.2.4,60.01316972139898,
9,stimuli/9.png,l,1,0,1,0,19,0,19,0,0,0,0,0,,,,,,,,,,,,,,,,,,,316.99803222037735,316.99803222037735,316.99803222037735,316.99803222037735,s,0,0.530924098653486,317.5646923770837,317.5646923770837,317.5646923770837,,,,,,,,,,,,,,,,,,,,,,,,,,,,130,001,2023-03-03_14h20.13.412,eb_01,2022.2.4,60.01316972139898,
,,,1,0,1,0,19,0,19,0,,,,,,,,,,,,,,,,,,,,,,,,,,,,,,,,,,,,,,,,,,,,,,,,,,,,,,,,,,,,130,001,2023-03-03_14h20.13.412,eb_01,2022.2.4,60.01316972139898,
6,stimuli/6.png,s,1,0,1,0,20,0,20,0,0,0,0,0,,,,,,,,,,,,,,,,,,,318.5813105913112,318.5813105913112,318.5813105913112,318.5813105913112,s,1,0.6197029855975416,319.24793026954285,319.24793026954285,319.24793026954285,,,,,,,,,,,,,,,,,,,,,,,,,,,,130,001,2023-03-03_14h20.13.412,eb_01,2022.2.4,60.01316972139898,
,,,1,0,1,0,20,0,20,0,,,,,,,,,,,,,,,,,,,,,,,,,,,,,,,,,,,,,,,,,,,,,,,,,,,,,,,,,,,,130,001,2023-03-03_14h20.13.412,eb_01,2022.2.4,60.01316972139898,
8,stimuli/8.png,l,1,0,1,0,21,0,21,0,0,0,0,0,,,,,,,,,,,,,,,,,,,320.2645499930368,320.2645499930368,320.2645499930368,320.2645499930368,l,1,0.5044989828020334,320.79788075055694,320.79788075055694,320.79788075055694,321.81450771851814,321.81450771851814,321.81450771851814,,,,,,,,,,,,,,,,,,,,,,,,,130,001,2023-03-03_14h20.13.412,eb_01,2022.2.4,60.01316972139898,
,,,1,0,1,0,21,0,21,0,,,,,,,,,,,,,,,,,,,,,,,,,,,,,,,,,,,,,,,,,,,,,,,,,,,,,,,,,,,,130,001,2023-03-03_14h20.13.412,eb_01,2022.2.4,60.01316972139898,
9,stimuli/9.png,l,1,0,1,0,22,0,22,0,0,0,0,0,,,,,,,,,,,,,,,,,,,321.81450771851814,321.81450771851814,321.81450771851814,321.81450771851814,l,1,0.6026138807064854,322.4644648101239,322.4644648101239,322.4644648101239,,,,,,,,,,,,,,,,,,,,,,,,,,,,130,001,2023-03-03_14h20.13.412,eb_01,2022.2.4,60.01316972139898,
,,,1,0,1,0,22,0,22,0,,,,,,,,,,,,,,,,,,,,,,,,,,,,,,,,,,,,,,,,,,,,,,,,,,,,,,,,,,,,130,001,2023-03-03_14h20.13.412,eb_01,2022.2.4,60.01316972139898,
6,stimuli/6.png,s,1,0,1,0,23,0,23,0,0,0,0,0,,,,,,,,,,,,,,,,,,,323.4811123040854,323.4811123040854,323.4811123040854,323.4811123040854,s,1,0.47203771278145723,323.9976986728434,323.9976986728434,323.9976986728434,,,,,,,,,,,,,,,,,,,,,,,,,,,,130,001,2023-03-03_14h20.13.412,eb_01,2022.2.4,60.01316972139898,
,,,1,0,1,0,23,0,23,0,,,,,,,,,,,,,,,,,,,,,,,,,,,,,,,,,,,,,,,,,,,,,,,,,,,,,,,,,,,,130,001,2023-03-03_14h20.13.412,eb_01,2022.2.4,60.01316972139898,
5,stimuli/5.png,s,1,0,1,0,24,0,24,0,0,0,0,0,,,,,,,,,,,,,,,,,,,324.99740406431374,324.99740406431374,324.99740406431374,324.99740406431374,s,1,0.7638121283962391,325.7810002260667,325.7810002260667,325.7810002260667,326.79762055329047,326.79762055329047,326.79762055329047,,,,,,,,,,,,,,,,,,,,,,,,,130,001,2023-03-03_14h20.13.412,eb_01,2022.2.4,60.01316972139898,
,,,1,0,1,0,24,0,24,0,,,,,,,,,,,,,,,,,,,,,,,,,,,,,,,,,,,,,,,,,,,,,,,,,,,,,,,,,,,,130,001,2023-03-03_14h20.13.412,eb_01,2022.2.4,60.01316972139898,
9,stimuli/9.png,l,1,0,1,0,25,0,25,0,0,0,0,0,,,,,,,,,,,,,,,,,,,326.79762055329047,326.79762055329047,326.79762055329047,326.79762055329047,l,1,0.45965479777078144,327.2976119504601,327.2976119504601,327.2976119504601,,,,,,,,,,,,,,,,,,,,,,,,,,,,130,001,2023-03-03_14h20.13.412,eb_01,2022.2.4,60.01316972139898,
,,,1,0,1,0,25,0,25,0,,,,,,,,,,,,,,,,,,,,,,,,,,,,,,,,,,,,,,,,,,,,,,,,,,,,,,,,,,,,130,001,2023-03-03_14h20.13.412,eb_01,2022.2.4,60.01316972139898,
6,stimuli/6.png,s,1,0,1,0,26,0,26,0,0,0,0,0,,,,,,,,,,,,,,,,,,,328.3142020923842,328.3142020923842,328.3142020923842,328.3142020923842,s,1,0.5511419097019825,328.9141756500467,328.9141756500467,328.9141756500467,,,,,,,,,,,,,,,,,,,,,,,,,,,,130,001,2023-03-03_14h20.13.412,eb_01,2022.2.4,60.01316972139898,
,,,1,0,1,0,26,0,26,0,,,,,,,,,,,,,,,,,,,,,,,,,,,,,,,,,,,,,,,,,,,,,,,,,,,,,,,,,,,,130,001,2023-03-03_14h20.13.412,eb_01,2022.2.4,60.01316972139898,
8,stimuli/8.png,l,1,0,1,0,27,0,27,0,0,0,0,0,,,,,,,,,,,,,,,,,,,329.91383485804545,329.91383485804545,329.91383485804545,329.91383485804545,l,1,0.5745237437949982,330.5141326058074,330.5141326058074,330.5141326058074,331.51408249823726,331.51408249823726,331.51408249823726,,,,,,,,,,,,,,,,,,,,,,,,,130,001,2023-03-03_14h20.13.412,eb_01,2022.2.4,60.01316972139898,
,,,1,0,1,0,27,0,27,0,,,,,,,,,,,,,,,,,,,,,,,,,,,,,,,,,,,,,,,,,,,,,,,,,,,,,,,,,,,,130,001,2023-03-03_14h20.13.412,eb_01,2022.2.4,60.01316972139898,
3,stimuli/3.png,l,1,0,1,0,28,0,28,0,0,0,0,0,,,,,,,,,,,,,,,,,,,331.51408249823726,331.51408249823726,331.51408249823726,331.51408249823726,l,1,0.6063456891861279,332.1473522512533,332.1473522512533,332.1473522512533,333.1640051785798,333.1640051785798,333.1640051785798,,,,,,,,,,,,,,,,,,,,,,,,,130,001,2023-03-03_14h20.13.412,eb_01,2022.2.4,60.01316972139898,
,,,1,0,1,0,28,0,28,0,,,,,,,,,,,,,,,,,,,,,,,,,,,,,,,,,,,,,,,,,,,,,,,,,,,,,,,,,,,,130,001,2023-03-03_14h20.13.412,eb_01,2022.2.4,60.01316972139898,
4,stimuli/4.png,l,1,0,1,0,29,0,29,0,0,0,0,0,,,,,,,,,,,,,,,,,,,333.1640051785798,333.1640051785798,333.1640051785798,333.1640051785798,l,1,0.6844715805782471,333.8805881665612,333.8805881665612,333.8805881665612,334.89727490142104,334.89727490142104,334.89727490142104,,,,,,,,,,,,,,,,,,,,,,,,,130,001,2023-03-03_14h20.13.412,eb_01,2022.2.4,60.01316972139898,
,,,1,0,1,0,29,0,29,0,,,,,,,,,,,,,,,,,,,,,,,,,,,,,,,,,,,,,,,,,,,,,,,,,,,,,,,,,,,,130,001,2023-03-03_14h20.13.412,eb_01,2022.2.4,60.01316972139898,
1,stimuli/1.png,s,1,0,1,0,30,0,30,0,0,0,0,0,,,,,,,,,,,,,,,,,,,334.89727490142104,334.89727490142104,334.89727490142104,334.89727490142104,s,1,1.1032657322357409,336.04719652529457,336.04719652529457,336.04719652529457,,,,,,,,,,,,,,,,,,,,,,,,,,,,130,001,2023-03-03_14h20.13.412,eb_01,2022.2.4,60.01316972139898,
,,,1,0,1,0,30,0,30,0,,,,,,,,,,,,,,,,,,,,,,,,,,,,,,,,,,,,,,,,,,,,,,,,,,,,,,,,,,,,130,001,2023-03-03_14h20.13.412,eb_01,2022.2.4,60.01316972139898,
4,stimuli/4.png,l,1,0,1,0,31,0,31,0,0,0,0,0,,,,,,,,,,,,,,,,,,,337.06384401928517,337.06384401928517,337.06384401928517,337.06384401928517,l,1,0.6087538722786121,337.6971590502653,337.6971590502653,337.6971590502653,338.6970872092352,338.6970872092352,338.6970872092352,,,,,,,,,,,,,,,,,,,,,,,,,130,001,2023-03-03_14h20.13.412,eb_01,2022.2.4,60.01316972139898,
,,,1,0,1,0,31,0,31,0,,,,,,,,,,,,,,,,,,,,,,,,,,,,,,,,,,,,,,,,,,,,,,,,,,,,,,,,,,,,130,001,2023-03-03_14h20.13.412,eb_01,2022.2.4,60.01316972139898,
3,stimuli/3.png,l,1,0,1,0,32,0,32,0,0,0,0,0,,,,,,,,,,,,,,,,,,,338.6970872092352,338.6970872092352,338.6970872092352,338.6970872092352,l,1,0.8875697392504662,339.61371209443314,339.61371209443314,339.61371209443314,340.61369066286716,340.61369066286716,340.61369066286716,,,,,,,,,,,,,,,,,,,,,,,,,130,001,2023-03-03_14h20.13.412,eb_01,2022.2.4,60.01316972139898,
,,,1,0,1,0,32,0,32,0,,,,,,,,,,,,,,,,,,,,,,,,,,,,,,,,,,,,,,,,,,,,,,,,,,,,,,,,,,,,130,001,2023-03-03_14h20.13.412,eb_01,2022.2.4,60.01316972139898,
2,stimuli/2.png,s,1,0,1,0,33,0,33,0,0,0,0,0,,,,,,,,,,,,,,,,,,,340.61369066286716,340.61369066286716,340.61369066286716,340.61369066286716,s,1,1.0670466943993233,341.7136462602939,341.7136462602939,341.7136462602939,342.71357653226005,342.71357653226005,342.71357653226005,,,,,,,,,,,,,,,,,,,,,,,,,130,001,2023-03-03_14h20.13.412,eb_01,2022.2.4,60.01316972139898,
,,,1,0,1,0,33,0,33,0,,,,,,,,,,,,,,,,,,,,,,,,,,,,,,,,,,,,,,,,,,,,,,,,,,,,,,,,,,,,130,001,2023-03-03_14h20.13.412,eb_01,2022.2.4,60.01316972139898,
3,stimuli/3.png,l,1,0,1,0,34,0,34,0,0,0,0,0,,,,,,,,,,,,,,,,,,,342.71357653226005,342.71357653226005,342.71357653226005,342.71357653226005,l,1,0.511217626510188,343.24689702678006,343.24689702678006,343.24689702678006,344.2635188632412,344.2635188632412,344.2635188632412,,,,,,,,,,,,,,,,,,,,,,,,,130,001,2023-03-03_14h20.13.412,eb_01,2022.2.4,60.01316972139898,
,,,1,0,1,0,34,0,34,0,,,,,,,,,,,,,,,,,,,,,,,,,,,,,,,,,,,,,,,,,,,,,,,,,,,,,,,,,,,,130,001,2023-03-03_14h20.13.412,eb_01,2022.2.4,60.01316972139898,
4,stimuli/4.png,l,1,0,1,0,35,0,35,0,0,0,0,0,,,,,,,,,,,,,,,,,,,344.2635188632412,344.2635188632412,344.2635188632412,344.2635188632412,l,1,0.8403212952252943,345.1300962216628,345.1300962216628,345.1300962216628,346.1301227847289,346.1301227847289,346.1301227847289,,,,,,,,,,,,,,,,,,,,,,,,,130,001,2023-03-03_14h20.13.412,eb_01,2022.2.4,60.01316972139898,
,,,1,0,1,0,35,0,35,0,,,,,,,,,,,,,,,,,,,,,,,,,,,,,,,,,,,,,,,,,,,,,,,,,,,,,,,,,,,,130,001,2023-03-03_14h20.13.412,eb_01,2022.2.4,60.01316972139898,
2,stimuli/2.png,s,1,0,1,0,36,0,36,0,0,0,0,0,,,,,,,,,,,,,,,,,,,346.1301227847289,346.1301227847289,346.1301227847289,346.1301227847289,s,1,0.6858112041081768,346.84672931724344,346.84672931724344,346.84672931724344,347.8633807353035,347.8633807353035,347.8633807353035,,,,,,,,,,,,,,,,,,,,,,,,,130,001,2023-03-03_14h20.13.412,eb_01,2022.2.4,60.01316972139898,
,,,1,0,1,0,36,0,36,0,,,,,,,,,,,,,,,,,,,,,,,,,,,,,,,,,,,,,,,,,,,,,,,,,,,,,,,,,,,,130,001,2023-03-03_14h20.13.412,eb_01,2022.2.4,60.01316972139898,
4,stimuli/4.png,l,1,0,1,0,37,0,37,0,0,0,0,0,,,,,,,,,,,,,,,,,,,347.8633807353035,347.8633807353035,347.8633807353035,347.8633807353035,l,1,0.47265077620977536,348.363388734404,348.363388734404,348.363388734404,349.3633002915012,349.3633002915012,349.3633002915012,,,,,,,,,,,,,,,,,,,,,,,,,130,001,2023-03-03_14h20.13.412,eb_01,2022.2.4,60.01316972139898,
,,,1,0,1,0,37,0,37,0,,,,,,,,,,,,,,,,,,,,,,,,,,,,,,,,,,,,,,,,,,,,,,,,,,,,,,,,,,,,130,001,2023-03-03_14h20.13.412,eb_01,2022.2.4,60.01316972139898,
2,stimuli/2.png,s,1,0,1,0,38,0,38,0,0,0,0,0,,,,,,,,,,,,,,,,,,,349.3633002915012,349.3633002915012,349.3633002915012,349.3633002915012,s,1,0.6127223334624432,349.99659902241547,349.99659902241547,349.99659902241547,350.99658272234956,350.99658272234956,350.99658272234956,,,,,,,,,,,,,,,,,,,,,,,,,130,001,2023-03-03_14h20.13.412,eb_01,2022.2.4,60.01316972139898,
,,,1,0,1,0,38,0,38,0,,,,,,,,,,,,,,,,,,,,,,,,,,,,,,,,,,,,,,,,,,,,,,,,,,,,,,,,,,,,130,001,2023-03-03_14h20.13.412,eb_01,2022.2.4,60.01316972139898,
3,stimuli/3.png,l,1,0,1,0,39,0,39,0,0,0,0,0,,,,,,,,,,,,,,,,,,,350.99658272234956,350.99658272234956,350.99658272234956,350.99658272234956,l,1,0.8594949968100991,351.87985345639754,351.87985345639754,351.87985345639754,352.8798268933315,352.8798268933315,352.8798268933315,,,,,,,,,,,,,,,,,,,,,,,,,130,001,2023-03-03_14h20.13.412,eb_01,2022.2.4,60.01316972139898,
,,,1,0,1,0,39,0,39,0,,,,,,,,,,,,,,,,,,,,,,,,,,,,,,,,,,,,,,,,,,,,,,,,,,,,,,,,,,,,130,001,2023-03-03_14h20.13.412,eb_01,2022.2.4,60.01316972139898,
2,stimuli/2.png,s,1,0,1,0,40,0,40,0,0,0,0,0,,,,,,,,,,,,,,,,,,,352.8798268933315,352.8798268933315,352.8798268933315,352.8798268933315,s,1,0.9363014888367616,353.846447688411,353.846447688411,353.846447688411,354.86307224156917,354.86307224156917,354.86307224156917,,,,,,,,,,,,,,,,,,,,,,,,,130,001,2023-03-03_14h20.13.412,eb_01,2022.2.4,60.01316972139898,
,,,1,0,1,0,40,0,40,0,,,,,,,,,,,,,,,,,,,,,,,,,,,,,,,,,,,,,,,,,,,,,,,,,,,,,,,,,,,,130,001,2023-03-03_14h20.13.412,eb_01,2022.2.4,60.01316972139898,
1,stimuli/1.png,s,1,0,1,0,41,0,41,0,0,0,0,0,,,,,,,,,,,,,,,,,,,354.86307224156917,354.86307224156917,354.86307224156917,354.86307224156917,s,1,0.5770804385829251,355.4797156303248,355.4797156303248,355.4797156303248,,,,,,,,,,,,,,,,,,,,,,,,,,,,130,001,2023-03-03_14h20.13.412,eb_01,2022.2.4,60.01316972139898,
,,,1,0,1,0,41,0,41,0,,,,,,,,,,,,,,,,,,,,,,,,,,,,,,,,,,,,,,,,,,,,,,,,,,,,,,,,,,,,130,001,2023-03-03_14h20.13.412,eb_01,2022.2.4,60.01316972139898,
2,stimuli/2.png,s,1,0,1,0,42,0,42,0,0,0,0,0,,,,,,,,,,,,,,,,,,,356.47968906725873,356.47968906725873,356.47968906725873,356.47968906725873,s,1,0.5925217280164361,357.0962898947764,357.0962898947764,357.0962898947764,358.11293316280353,358.11293316280353,358.11293316280353,,,,,,,,,,,,,,,,,,,,,,,,,130,001,2023-03-03_14h20.13.412,eb_01,2022.2.4,60.01316972139898,
,,,1,0,1,0,42,0,42,0,,,,,,,,,,,,,,,,,,,,,,,,,,,,,,,,,,,,,,,,,,,,,,,,,,,,,,,,,,,,130,001,2023-03-03_14h20.13.412,eb_01,2022.2.4,60.01316972139898,
1,stimuli/1.png,s,1,0,1,0,43,0,43,0,0,0,0,0,,,,,,,,,,,,,,,,,,,358.11293316280353,358.11293316280353,358.11293316280353,358.11293316280353,s,1,0.47131960454862565,358.62954126496334,358.62954126496334,358.62954126496334,,,,,,,,,,,,,,,,,,,,,,,,,,,,130,001,2023-03-03_14h20.13.412,eb_01,2022.2.4,60.01316972139898,
,,,1,0,1,0,43,0,43,0,,,,,,,,,,,,,,,,,,,,,,,,,,,,,,,,,,,,,,,,,,,,,,,,,,,,,,,,,,,,130,001,2023-03-03_14h20.13.412,eb_01,2022.2.4,60.01316972139898,
4,stimuli/4.png,l,1,0,1,0,44,0,44,0,0,0,0,0,,,,,,,,,,,,,,,,,,,359.64617487369105,359.64617487369105,359.64617487369105,359.64617487369105,l,1,0.4981766720302403,360.1628288574866,360.1628288574866,360.1628288574866,361.162793238851,361.162793238851,361.162793238851,,,,,,,,,,,,,,,,,,,,,,,,,130,001,2023-03-03_14h20.13.412,eb_01,2022.2.4,60.01316972139898,
,,,1,0,1,0,44,0,44,0,,,,,,,,,,,,,,,,,,,,,,,,,,,,,,,,,,,,,,,,,,,,,,,,,,,,,,,,,,,,130,001,2023-03-03_14h20.13.412,eb_01,2022.2.4,60.01316972139898,
2,stimuli/2.png,s,1,0,1,0,45,0,45,0,0,0,0,0,,,,,,,,,,,,,,,,,,,361.162793238851,361.162793238851,361.162793238851,361.162793238851,s,1,0.4765766761265695,361.66275746925385,361.66275746925385,361.66275746925385,362.6793943983794,362.6793943983794,362.6793943983794,,,,,,,,,,,,,,,,,,,,,,,,,130,001,2023-03-03_14h20.13.412,eb_01,2022.2.4,60.01316972139898,
,,,1,0,1,0,45,0,45,0,,,,,,,,,,,,,,,,,,,,,,,,,,,,,,,,,,,,,,,,,,,,,,,,,,,,,,,,,,,,130,001,2023-03-03_14h20.13.412,eb_01,2022.2.4,60.01316972139898,
1,stimuli/1.png,s,1,0,1,0,46,0,46,0,0,0,0,0,,,,,,,,,,,,,,,,,,,362.6793943983794,362.6793943983794,362.6793943983794,362.6793943983794,s,1,0.5360208862985019,363.26270114351064,363.26270114351064,363.26270114351064,,,,,,,,,,,,,,,,,,,,,,,,,,,,130,001,2023-03-03_14h20.13.412,eb_01,2022.2.4,60.01316972139898,
,,,1,0,1,0,46,0,46,0,,,,,,,,,,,,,,,,,,,,,,,,,,,,,,,,,,,,,,,,,,,,,,,,,,,,,,,,,,,,130,001,2023-03-03_14h20.13.412,eb_01,2022.2.4,60.01316972139898,
4,stimuli/4.png,l,1,0,1,0,47,0,47,0,0,0,0,0,,,,,,,,,,,,,,,,,,,364.27928585204063,364.27928585204063,364.27928585204063,364.27928585204063,l,1,0.4881892623088788,364.79597092673066,364.79597092673066,364.79597092673066,365.7959344025003,365.7959344025003,365.7959344025003,,,,,,,,,,,,,,,,,,,,,,,,,130,001,2023-03-03_14h20.13.412,eb_01,2022.2.4,60.01316972139898,
,,,1,0,1,0,47,0,47,0,,,,,,,,,,,,,,,,,,,,,,,,,,,,,,,,,,,,,,,,,,,,,,,,,,,,,,,,,,,,130,001,2023-03-03_14h20.13.412,eb_01,2022.2.4,60.01316972139898,
2,stimuli/2.png,s,1,0,1,0,48,0,48,0,0,0,0,0,,,,,,,,,,,,,,,,,,,365.7959344025003,365.7959344025003,365.7959344025003,365.7959344025003,s,1,0.45952469916664995,366.27923544260557,366.27923544260557,366.27923544260557,367.2791980128386,367.2791980128386,367.2791980128386,,,,,,,,,,,,,,,,,,,,,,,,,130,001,2023-03-03_14h20.13.412,eb_01,2022.2.4,60.01316972139898,
,,,1,0,1,0,48,0,48,0,,,,,,,,,,,,,,,,,,,,,,,,,,,,,,,,,,,,,,,,,,,,,,,,,,,,,,,,,,,,130,001,2023-03-03_14h20.13.412,eb_01,2022.2.4,60.01316972139898,
3,stimuli/3.png,l,1,0,1,0,49,0,49,0,0,0,0,0,,,,,,,,,,,,,,,,,,,367.2791980128386,367.2791980128386,367.2791980128386,367.2791980128386,s,0,0.1523382738523651,367.4625232917315,367.4625232917315,367.4625232917315,368.479114641028,368.479114641028,368.479114641028,,,,,,,,,,,,,,,,,,,,,,,,,130,001,2023-03-03_14h20.13.412,eb_01,2022.2.4,60.01316972139898,
,,,1,0,1,0,49,0,49,0,,,,,,,,,,,,,,,,,,,,,,,,,,,,,,,,,,,,,,,,,,,,,,,,,,,,,,,,,,,,130,001,2023-03-03_14h20.13.412,eb_01,2022.2.4,60.01316972139898,
4,stimuli/4.png,l,1,0,1,0,50,0,50,0,0,0,0,0,,,,,,,,,,,,,,,,,,,368.479114641028,368.479114641028,368.479114641028,368.479114641028,l,1,0.9604871573974378,369.4624110024015,369.4624110024015,369.4624110024015,370.4624001357006,370.4624001357006,370.4624001357006,,,,,,,,,,,,,,,,,,,,,,,,,130,001,2023-03-03_14h20.13.412,eb_01,2022.2.4,60.01316972139898,
,,,1,0,1,0,50,0,50,0,,,,,,,,,,,,,,,,,,,,,,,,,,,,,,,,,,,,,,,,,,,,,,,,,,,,,,,,,,,,130,001,2023-03-03_14h20.13.412,eb_01,2022.2.4,60.01316972139898,
2,stimuli/2.png,s,1,0,1,0,51,0,51,0,0,0,0,0,,,,,,,,,,,,,,,,,,,370.4624001357006,370.4624001357006,370.4624001357006,370.4624001357006,s,1,0.6012790868117008,371.0957136574143,371.0957136574143,371.0957136574143,372.09567532208166,372.09567532208166,372.09567532208166,,,,,,,,,,,,,,,,,,,,,,,,,130,001,2023-03-03_14h20.13.412,eb_01,2022.2.4,60.01316972139898,
,,,1,0,1,0,51,0,51,0,,,,,,,,,,,,,,,,,,,,,,,,,,,,,,,,,,,,,,,,,,,,,,,,,,,,,,,,,,,,130,001,2023-03-03_14h20.13.412,eb_01,2022.2.4,60.01316972139898,
3,stimuli/3.png,l,1,0,1,0,52,0,52,0,0,0,0,0,,,,,,,,,,,,,,,,,,,372.09567532208166,372.09567532208166,372.09567532208166,372.09567532208166,l,1,0.4160678304906469,372.5289394002757,372.5289394002757,372.5289394002757,373.545590214635,373.545590214635,373.545590214635,,,,,,,,,,,,,,,,,,,,,,,,,130,001,2023-03-03_14h20.13.412,eb_01,2022.2.4,60.01316972139898,
,,,1,0,1,0,52,0,52,0,,,,,,,,,,,,,,,,,,,,,,,,,,,,,,,,,,,,,,,,,,,,,,,,,,,,,,,,,,,,130,001,2023-03-03_14h20.13.412,eb_01,2022.2.4,60.01316972139898,
4,stimuli/4.png,l,1,0,1,0,53,0,53,0,0,0,0,0,,,,,,,,,,,,,,,,,,,373.545590214635,373.545590214635,373.545590214635,373.545590214635,s,0,0.34215671228594147,373.91223413165426,373.91223413165426,373.91223413165426,374.91220273895306,374.91220273895306,374.91220273895306,,,,,,,,,,,,,,,,,,,,,,,,,130,001,2023-03-03_14h20.13.412,eb_01,2022.2.4,60.01316972139898,
,,,1,0,1,0,53,0,53,0,,,,,,,,,,,,,,,,,,,,,,,,,,,,,,,,,,,,,,,,,,,,,,,,,,,,,,,,,,,,130,001,2023-03-03_14h20.13.412,eb_01,2022.2.4,60.01316972139898,
3,stimuli/3.png,l,1,0,1,0,54,0,54,0,0,0,0,0,,,,,,,,,,,,,,,,,,,374.91220273895306,374.91220273895306,374.91220273895306,374.91220273895306,l,1,0.4946371439436916,375.4287734113168,375.4287734113168,375.4287734113168,376.4287722039153,376.4287722039153,376.4287722039153,,,,,,,,,,,,,,,,,,,,,,,,,130,001,2023-03-03_14h20.13.412,eb_01,2022.2.4,60.01316972139898,
,,,1,0,1,0,54,0,54,0,,,,,,,,,,,,,,,,,,,,,,,,,,,,,,,,,,,,,,,,,,,,,,,,,,,,,,,,,,,,130,001,2023-03-03_14h20.13.412,eb_01,2022.2.4,60.01316972139898,
2,stimuli/2.png,s,1,0,1,0,55,0,55,0,0,0,0,0,,,,,,,,,,,,,,,,,,,376.4287722039153,376.4287722039153,376.4287722039153,376.4287722039153,s,1,0.6420594250666909,377.0954151248152,377.0954151248152,377.0954151248152,378.09538644878194,378.09538644878194,378.09538644878194,,,,,,,,,,,,,,,,,,,,,,,,,130,001,2023-03-03_14h20.13.412,eb_01,2022.2.4,60.01316972139898,
,,,1,0,1,0,55,0,55,0,,,,,,,,,,,,,,,,,,,,,,,,,,,,,,,,,,,,,,,,,,,,,,,,,,,,,,,,,,,,130,001,2023-03-03_14h20.13.412,eb_01,2022.2.4,60.01316972139898,
3,stimuli/3.png,l,1,0,1,0,56,0,56,0,0,0,0,0,,,,,,,,,,,,,,,,,,,378.09538644878194,378.09538644878194,378.09538644878194,378.09538644878194,l,1,0.5915247076191008,378.71201776343514,378.71201776343514,378.71201776343514,379.7116455787036,379.7116455787036,379.7116455787036,,,,,,,,,,,,,,,,,,,,,,,,,130,001,2023-03-03_14h20.13.412,eb_01,2022.2.4,60.01316972139898,
,,,1,0,1,0,56,0,56,0,,,,,,,,,,,,,,,,,,,,,,,,,,,,,,,,,,,,,,,,,,,,,,,,,,,,,,,,,,,,130,001,2023-03-03_14h20.13.412,eb_01,2022.2.4,60.01316972139898,
8,stimuli/8.png,l,1,0,1,0,57,0,57,0,0,0,0,0,,,,,,,,,,,,,,,,,,,379.7116455787036,379.7116455787036,379.7116455787036,379.7116455787036,l,1,0.49533804654492997,380.22860654699616,380.22860654699616,380.22860654699616,381.2452135926578,381.2452135926578,381.2452135926578,,,,,,,,,,,,,,,,,,,,,,,,,130,001,2023-03-03_14h20.13.412,eb_01,2022.2.4,60.01316972139898,
,,,1,0,1,0,57,0,57,0,,,,,,,,,,,,,,,,,,,,,,,,,,,,,,,,,,,,,,,,,,,,,,,,,,,,,,,,,,,,130,001,2023-03-03_14h20.13.412,eb_01,2022.2.4,60.01316972139898,
6,stimuli/6.png,s,1,0,1,0,58,0,58,0,0,0,0,0,,,,,,,,,,,,,,,,,,,381.2452135926578,381.2452135926578,381.2452135926578,381.2452135926578,s,1,0.5778103190823458,381.8618811296765,381.8618811296765,381.8618811296765,,,,,,,,,,,,,,,,,,,,,,,,,,,,130,001,2023-03-03_14h20.13.412,eb_01,2022.2.4,60.01316972139898,
,,,1,0,1,0,58,0,58,0,,,,,,,,,,,,,,,,,,,,,,,,,,,,,,,,,,,,,,,,,,,,,,,,,,,,,,,,,,,,130,001,2023-03-03_14h20.13.412,eb_01,2022.2.4,60.01316972139898,
9,stimuli/9.png,l,1,0,1,0,59,0,59,0,0,0,0,0,,,,,,,,,,,,,,,,,,,382.87853164217086,382.87853164217086,382.87853164217086,382.87853164217086,l,1,0.5525168500898872,383.47848708869424,383.47848708869424,383.47848708869424,,,,,,,,,,,,,,,,,,,,,,,,,,,,130,001,2023-03-03_14h20.13.412,eb_01,2022.2.4,60.01316972139898,
,,,1,0,1,0,59,0,59,0,,,,,,,,,,,,,,,,,,,,,,,,,,,,,,,,,,,,,,,,,,,,,,,,,,,,,,,,,,,,130,001,2023-03-03_14h20.13.412,eb_01,2022.2.4,60.01316972139898,
8,stimuli/8.png,l,1,0,1,0,60,0,60,0,0,0,0,0,,,,,,,,,,,,,,,,,,,384.4950923232245,384.4950923232245,384.4950923232245,384.4950923232245,l,1,0.4000167979975231,384.9117188686214,384.9117188686214,384.9117188686214,385.9283805496816,385.9283805496816,385.9283805496816,,,,,,,,,,,,,,,,,,,,,,,,,130,001,2023-03-03_14h20.13.412,eb_01,2022.2.4,60.01316972139898,
,,,1,0,1,0,60,0,60,0,,,,,,,,,,,,,,,,,,,,,,,,,,,,,,,,,,,,,,,,,,,,,,,,,,,,,,,,,,,,130,001,2023-03-03_14h20.13.412,eb_01,2022.2.4,60.01316972139898,
6,stimuli/6.png,s,1,0,1,0,61,0,61,0,0,0,0,0,,,,,,,,,,,,,,,,,,,385.9283805496816,385.9283805496816,385.9283805496816,385.9283805496816,s,1,0.5588141070329584,386.52833659987664,386.52833659987664,386.52833659987664,,,,,,,,,,,,,,,,,,,,,,,,,,,,130,001,2023-03-03_14h20.13.412,eb_01,2022.2.4,60.01316972139898,
,,,1,0,1,0,61,0,61,0,,,,,,,,,,,,,,,,,,,,,,,,,,,,,,,,,,,,,,,,,,,,,,,,,,,,,,,,,,,,130,001,2023-03-03_14h20.13.412,eb_01,2022.2.4,60.01316972139898,
9,stimuli/9.png,l,1,0,1,0,62,0,62,0,0,0,0,0,,,,,,,,,,,,,,,,,,,387.54497654753504,387.54497654753504,387.54497654753504,387.54497654753504,l,1,0.41422260316903703,387.9949454717571,387.9949454717571,387.9949454717571,,,,,,,,,,,,,,,,,,,,,,,,,,,,130,001,2023-03-03_14h20.13.412,eb_01,2022.2.4,60.01316972139898,
,,,1,0,1,0,62,0,62,0,,,,,,,,,,,,,,,,,,,,,,,,,,,,,,,,,,,,,,,,,,,,,,,,,,,,,,,,,,,,130,001,2023-03-03_14h20.13.412,eb_01,2022.2.4,60.01316972139898,
5,stimuli/5.png,s,1,0,1,0,63,0,63,0,0,0,0,0,,,,,,,,,,,,,,,,,,,388.9946007556573,388.9946007556573,388.9946007556573,388.9946007556573,s,1,0.5166503765503876,389.52824483657605,389.52824483657605,389.52824483657605,390.5448401099711,390.5448401099711,390.5448401099711,,,,,,,,,,,,,,,,,,,,,,,,,130,001,2023-03-03_14h20.13.412,eb_01,2022.2.4,60.01316972139898,
,,,1,0,1,0,63,0,63,0,,,,,,,,,,,,,,,,,,,,,,,,,,,,,,,,,,,,,,,,,,,,,,,,,,,,,,,,,,,,130,001,2023-03-03_14h20.13.412,eb_01,2022.2.4,60.01316972139898,
9,stimuli/9.png,l,1,0,1,0,64,0,64,0,0,0,0,0,,,,,,,,,,,,,,,,,,,390.5448401099711,390.5448401099711,390.5448401099711,390.5448401099711,l,1,0.38946884727920406,390.97814946612925,390.97814946612925,390.97814946612925,,,,,,,,,,,,,,,,,,,,,,,,,,,,130,001,2023-03-03_14h20.13.412,eb_01,2022.2.4,60.01316972139898,
,,,1,0,1,0,64,0,64,0,,,,,,,,,,,,,,,,,,,,,,,,,,,,,,,,,,,,,,,,,,,,,,,,,,,,,,,,,,,,130,001,2023-03-03_14h20.13.412,eb_01,2022.2.4,60.01316972139898,
8,stimuli/8.png,l,1,0,1,0,65,0,65,0,0,0,0,0,,,,,,,,,,,,,,,,,,,391.97780686296755,391.97780686296755,391.97780686296755,391.97780686296755,l,1,0.5565544356068131,392.5614103295957,392.5614103295957,392.5614103295957,393.5613955387962,393.5613955387962,393.5613955387962,,,,,,,,,,,,,,,,,,,,,,,,,130,001,2023-03-03_14h20.13.412,eb_01,2022.2.4,60.01316972139898,
,,,1,0,1,0,65,0,65,0,,,,,,,,,,,,,,,,,,,,,,,,,,,,,,,,,,,,,,,,,,,,,,,,,,,,,,,,,,,,130,001,2023-03-03_14h20.13.412,eb_01,2022.2.4,60.01316972139898,
3,stimuli/3.png,l,1,0,1,0,66,0,66,0,0,0,0,0,,,,,,,,,,,,,,,,,,,393.5613955387962,393.5613955387962,393.5613955387962,393.5613955387962,l,1,0.5089923663181253,394.09466562385205,394.09466562385205,394.09466562385205,395.09462547741714,395.09462547741714,395.09462547741714,,,,,,,,,,,,,,,,,,,,,,,,,130,001,2023-03-03_14h20.13.412,eb_01,2022.2.4,60.01316972139898,
,,,1,0,1,0,66,0,66,0,,,,,,,,,,,,,,,,,,,,,,,,,,,,,,,,,,,,,,,,,,,,,,,,,,,,,,,,,,,,130,001,2023-03-03_14h20.13.412,eb_01,2022.2.4,60.01316972139898,
2,stimuli/2.png,s,1,0,1,0,67,0,67,0,0,0,0,0,,,,,,,,,,,,,,,,,,,395.09462547741714,395.09462547741714,395.09462547741714,395.09462547741714,s,1,0.5118011083395686,395.62794506637147,395.62794506637147,395.62794506637147,396.6279130699404,396.6279130699404,396.6279130699404,,,,,,,,,,,,,,,,,,,,,,,,,130,001,2023-03-03_14h20.13.412,eb_01,2022.2.4,60.01316972139898,
,,,1,0,1,0,67,0,67,0,,,,,,,,,,,,,,,,,,,,,,,,,,,,,,,,,,,,,,,,,,,,,,,,,,,,,,,,,,,,130,001,2023-03-03_14h20.13.412,eb_01,2022.2.4,60.01316972139898,
3,stimuli/3.png,l,1,0,1,0,68,0,68,0,0,0,0,0,,,,,,,,,,,,,,,,,,,396.6279130699404,396.6279130699404,396.6279130699404,396.6279130699404,l,1,0.5065938424959313,397.1612260181573,397.1612260181573,397.1612260181573,398.16083813706064,398.16083813706064,398.16083813706064,,,,,,,,,,,,,,,,,,,,,,,,,130,001,2023-03-03_14h20.13.412,eb_01,2022.2.4,60.01316972139898,
,,,1,0,1,0,68,0,68,0,,,,,,,,,,,,,,,,,,,,,,,,,,,,,,,,,,,,,,,,,,,,,,,,,,,,,,,,,,,,130,001,2023-03-03_14h20.13.412,eb_01,2022.2.4,60.01316972139898,
8,stimuli/8.png,l,1,0,1,0,69,0,69,0,0,0,0,0,,,,,,,,,,,,,,,,,,,398.16083813706064,398.16083813706064,398.16083813706064,398.16083813706064,l,1,0.5657162774004973,398.74451163355843,398.74451163355843,398.74451163355843,399.74445126295905,399.74445126295905,399.74445126295905,,,,,,,,,,,,,,,,,,,,,,,,,130,001,2023-03-03_14h20.13.412,eb_01,2022.2.4,60.01316972139898,
,,,1,0,1,0,69,0,69,0,,,,,,,,,,,,,,,,,,,,,,,,,,,,,,,,,,,,,,,,,,,,,,,,,,,,,,,,,,,,130,001,2023-03-03_14h20.13.412,eb_01,2022.2.4,60.01316972139898,
3,stimuli/3.png,l,1,0,1,0,70,0,70,0,0,0,0,0,,,,,,,,,,,,,,,,,,,399.74445126295905,399.74445126295905,399.74445126295905,399.74445126295905,l,1,0.7501553937909193,400.52771538644447,400.52771538644447,400.52771538644447,401.54436891747173,401.54436891747173,401.54436891747173,,,,,,,,,,,,,,,,,,,,,,,,,130,001,2023-03-03_14h20.13.412,eb_01,2022.2.4,60.01316972139898,
,,,1,0,1,0,70,0,70,0,,,,,,,,,,,,,,,,,,,,,,,,,,,,,,,,,,,,,,,,,,,,,,,,,,,,,,,,,,,,130,001,2023-03-03_14h20.13.412,eb_01,2022.2.4,60.01316972139898,
8,stimuli/8.png,l,1,0,1,0,71,0,71,0,0,0,0,0,,,,,,,,,,,,,,,,,,,401.54436891747173,401.54436891747173,401.54436891747173,401.54436891747173,l,1,0.566283760999795,402.1276844163076,402.1276844163076,402.1276844163076,403.1442996120313,403.1442996120313,403.1442996120313,,,,,,,,,,,,,,,,,,,,,,,,,130,001,2023-03-03_14h20.13.412,eb_01,2022.2.4,60.01316972139898,
,,,1,0,1,0,71,0,71,0,,,,,,,,,,,,,,,,,,,,,,,,,,,,,,,,,,,,,,,,,,,,,,,,,,,,,,,,,,,,130,001,2023-03-03_14h20.13.412,eb_01,2022.2.4,60.01316972139898,
9,stimuli/9.png,l,1,0,1,0,72,0,72,0,0,0,0,0,,,,,,,,,,,,,,,,,,,403.1442996120313,403.1442996120313,403.1442996120313,403.1442996120313,l,1,1.1504148666281253,404.34425125518464,404.34425125518464,404.34425125518464,,,,,,,,,,,,,,,,,,,,,,,,,,,,130,001,2023-03-03_14h20.13.412,eb_01,2022.2.4,60.01316972139898,
,,,1,0,1,0,72,0,72,0,,,,,,,,,,,,,,,,,,,,,,,,,,,,,,,,,,,,,,,,,,,,,,,,,,,,,,,,,,,,130,001,2023-03-03_14h20.13.412,eb_01,2022.2.4,60.01316972139898,
5,stimuli/5.png,s,1,0,1,0,73,0,73,0,0,0,0,0,,,,,,,,,,,,,,,,,,,405.34391076499014,405.34391076499014,405.34391076499014,405.34391076499014,s,1,0.5188249254424591,405.8942053584324,405.8942053584324,405.8942053584324,406.9108024429588,406.9108024429588,406.9108024429588,,,,,,,,,,,,,,,,,,,,,,,,,130,001,2023-03-03_14h20.13.412,eb_01,2022.2.4,60.01316972139898,
,,,1,0,1,0,73,0,73,0,,,,,,,,,,,,,,,,,,,,,,,,,,,,,,,,,,,,,,,,,,,,,,,,,,,,,,,,,,,,130,001,2023-03-03_14h20.13.412,eb_01,2022.2.4,60.01316972139898,
6,stimuli/6.png,s,1,0,1,0,74,0,74,0,0,0,0,0,,,,,,,,,,,,,,,,,,,406.9108024429588,406.9108024429588,406.9108024429588,406.9108024429588,s,1,0.7270349644240923,407.6774229965522,407.6774229965522,407.6774229965522,,,,,,,,,,,,,,,,,,,,,,,,,,,,130,001,2023-03-03_14h20.13.412,eb_01,2022.2.4,60.01316972139898,
,,,1,0,1,0,74,0,74,0,,,,,,,,,,,,,,,,,,,,,,,,,,,,,,,,,,,,,,,,,,,,,,,,,,,,,,,,,,,,130,001,2023-03-03_14h20.13.412,eb_01,2022.2.4,60.01316972139898,
5,stimuli/5.png,s,1,0,1,0,75,0,75,0,0,0,0,0,,,,,,,,,,,,,,,,,,,408.6770640933537,408.6770640933537,408.6770640933537,408.6770640933537,s,1,2.104879438295029,410.8106298132334,410.8106298132334,410.8106298132334,411.82724229226005,411.82724229226005,411.82724229226005,,,,,,,,,,,,,,,,,,,,,,,,,130,001,2023-03-03_14h20.13.412,eb_01,2022.2.4,60.01316972139898,
,,,1,0,1,0,75,0,75,0,,,,,,,,,,,,,,,,,,,,,,,,,,,,,,,,,,,,,,,,,,,,,,,,,,,,,,,,,,,,130,001,2023-03-03_14h20.13.412,eb_01,2022.2.4,60.01316972139898,
6,stimuli/6.png,s,1,0,1,0,76,0,76,0,0,0,0,0,,,,,,,,,,,,,,,,,,,411.82724229226005,411.82724229226005,411.82724229226005,411.82724229226005,l,0,1.7947906965273432,413.6604784792289,413.6604784792289,413.6604784792289,,,,,,,,,,,,,,,,,,,,,,,,,,,,130,001,2023-03-03_14h20.13.412,eb_01,2022.2.4,60.01316972139898,
,,,1,0,1,0,76,0,76,0,,,,,,,,,,,,,,,,,,,,,,,,,,,,,,,,,,,,,,,,,,,,,,,,,,,,,,,,,,,,130,001,2023-03-03_14h20.13.412,eb_01,2022.2.4,60.01316972139898,
8,stimuli/8.png,l,1,0,1,0,77,0,77,0,0,0,0,0,,,,,,,,,,,,,,,,,,,414.66016847622814,414.66016847622814,414.66016847622814,414.66016847622814,l,1,0.5699370876827743,415.2604644128878,415.2604644128878,415.2604644128878,416.27702919914736,416.27702919914736,416.27702919914736,,,,,,,,,,,,,,,,,,,,,,,,,130,001,2023-03-03_14h20.13.412,eb_01,2022.2.4,60.01316972139898,
,,,1,0,1,0,77,0,77,0,,,,,,,,,,,,,,,,,,,,,,,,,,,,,,,,,,,,,,,,,,,,,,,,,,,,,,,,,,,,130,001,2023-03-03_14h20.13.412,eb_01,2022.2.4,60.01316972139898,
6,stimuli/6.png,s,1,0,1,0,78,0,78,0,0,0,0,0,,,,,,,,,,,,,,,,,,,416.27702919914736,416.27702919914736,416.27702919914736,416.27702919914736,s,1,0.5771003608824685,416.8936759083008,416.8936759083008,416.8936759083008,,,,,,,,,,,,,,,,,,,,,,,,,,,,130,001,2023-03-03_14h20.13.412,eb_01,2022.2.4,60.01316972139898,
,,,1,0,1,0,78,0,78,0,,,,,,,,,,,,,,,,,,,,,,,,,,,,,,,,,,,,,,,,,,,,,,,,,,,,,,,,,,,,130,001,2023-03-03_14h20.13.412,eb_01,2022.2.4,60.01316972139898,
9,stimuli/9.png,l,1,0,1,0,79,0,79,0,0,0,0,0,,,,,,,,,,,,,,,,,,,417.91032400596305,417.91032400596305,417.91032400596305,417.91032400596305,l,1,0.5518663568946067,418.5102975636546,418.5102975636546,418.5102975636546,,,,,,,,,,,,,,,,,,,,,,,,,,,,130,001,2023-03-03_14h20.13.412,eb_01,2022.2.4,60.01316972139898,
,,,1,0,1,0,79,0,79,0,,,,,,,,,,,,,,,,,,,,,,,,,,,,,,,,,,,,,,,,,,,,,,,,,,,,,,,,,,,,130,001,2023-03-03_14h20.13.412,eb_01,2022.2.4,60.01316972139898,
6,stimuli/6.png,s,1,0,1,0,80,0,80,0,0,0,0,0,,,,,,,,,,,,,,,,,,,419.52691638158285,419.52691638158285,419.52691638158285,419.52691638158285,s,1,0.6233104306156747,420.1935423987161,420.1935423987161,420.1935423987161,,,,,,,,,,,,,,,,,,,,,,,,,,,,130,001,2023-03-03_14h20.13.412,eb_01,2022.2.4,60.01316972139898,
,,,1,0,1,0,80,0,80,0,,,,,,,,,,,,,,,,,,,,,,,,,,,,,,,,,,,,,,,,,,,,,,,,,,,,,,,,,,,,130,001,2023-03-03_14h20.13.412,eb_01,2022.2.4,60.01316972139898,
5,stimuli/5.png,s,1,0,1,0,81,0,81,0,0,0,0,0,,,,,,,,,,,,,,,,,,,421.19316779915243,421.19316779915243,421.19316779915243,421.19316779915243,s,1,0.6121171182312537,421.8268030961626,421.8268030961626,421.8268030961626,422.8434415345255,422.8434415345255,422.8434415345255,,,,,,,,,,,,,,,,,,,,,,,,,130,001,2023-03-03_14h20.13.412,eb_01,2022.2.4,60.01316972139898,
,,,1,0,1,0,81,0,81,0,,,,,,,,,,,,,,,,,,,,,,,,,,,,,,,,,,,,,,,,,,,,,,,,,,,,,,,,,,,,130,001,2023-03-03_14h20.13.412,eb_01,2022.2.4,60.01316972139898,
6,stimuli/6.png,s,1,0,1,0,82,0,82,0,0,0,0,0,,,,,,,,,,,,,,,,,,,422.8434415345255,422.8434415345255,422.8434415345255,422.8434415345255,s,1,0.4658777989388909,423.3433894648915,423.3433894648915,423.3433894648915,,,,,,,,,,,,,,,,,,,,,,,,,,,,130,001,2023-03-03_14h20.13.412,eb_01,2022.2.4,60.01316972139898,
,,,1,0,1,0,82,0,82,0,,,,,,,,,,,,,,,,,,,,,,,,,,,,,,,,,,,,,,,,,,,,,,,,,,,,,,,,,,,,130,001,2023-03-03_14h20.13.412,eb_01,2022.2.4,60.01316972139898,
9,stimuli/9.png,l,1,0,1,0,83,0,83,0,0,0,0,0,,,,,,,,,,,,,,,,,,,424.3600109995168,424.3600109995168,424.3600109995168,424.3600109995168,l,1,0.5173769367102068,424.9266542524565,424.9266542524565,424.9266542524565,,,,,,,,,,,,,,,,,,,,,,,,,,,,130,001,2023-03-03_14h20.13.412,eb_01,2022.2.4,60.01316972139898,
,,,1,0,1,0,83,0,83,0,,,,,,,,,,,,,,,,,,,,,,,,,,,,,,,,,,,,,,,,,,,,,,,,,,,,,,,,,,,,130,001,2023-03-03_14h20.13.412,eb_01,2022.2.4,60.01316972139898,
8,stimuli/8.png,l,1,0,1,0,84,0,84,0,0,0,0,0,,,,,,,,,,,,,,,,,,,425.94330355754937,425.94330355754937,425.94330355754937,425.94330355754937,l,1,0.5501137984683737,426.5099395659927,426.5099395659927,426.5099395659927,427.5265438949864,427.5265438949864,427.5265438949864,,,,,,,,,,,,,,,,,,,,,,,,,130,001,2023-03-03_14h20.13.412,eb_01,2022.2.4,60.01316972139898,
,,,1,0,1,0,84,0,84,0,,,,,,,,,,,,,,,,,,,,,,,,,,,,,,,,,,,,,,,,,,,,,,,,,,,,,,,,,,,,130,001,2023-03-03_14h20.13.412,eb_01,2022.2.4,60.01316972139898,
6,stimuli/6.png,s,1,0,1,0,85,0,85,0,0,0,0,0,,,,,,,,,,,,,,,,,,,427.5265438949864,427.5265438949864,427.5265438949864,427.5265438949864,s,1,0.6229578663187567,428.19320794561645,428.19320794561645,428.19320794561645,,,,,,,,,,,,,,,,,,,,,,,,,,,,130,001,2023-03-03_14h20.13.412,eb_01,2022.2.4,60.01316972139898,
,,,1,0,1,0,85,0,85,0,,,,,,,,,,,,,,,,,,,,,,,,,,,,,,,,,,,,,,,,,,,,,,,,,,,,,,,,,,,,130,001,2023-03-03_14h20.13.412,eb_01,2022.2.4,60.01316972139898,
9,stimuli/9.png,l,1,0,1,0,86,0,86,0,0,0,0,0,,,,,,,,,,,,,,,,,,,429.2098201227782,429.2098201227782,429.2098201227782,429.2098201227782,l,1,0.5157273101212922,429.75980260022334,429.75980260022334,429.75980260022334,,,,,,,,,,,,,,,,,,,,,,,,,,,,130,001,2023-03-03_14h20.13.412,eb_01,2022.2.4,60.01316972139898,
,,,1,0,1,0,86,0,86,0,,,,,,,,,,,,,,,,,,,,,,,,,,,,,,,,,,,,,,,,,,,,,,,,,,,,,,,,,,,,130,001,2023-03-03_14h20.13.412,eb_01,2022.2.4,60.01316972139898,
8,stimuli/8.png,l,1,0,1,0,87,0,87,0,0,0,0,0,,,,,,,,,,,,,,,,,,,430.776417494053,430.776417494053,430.776417494053,430.776417494053,l,1,0.6051850644580554,431.40973856209894,431.40973856209894,431.40973856209894,432.42634500405984,432.42634500405984,432.42634500405984,,,,,,,,,,,,,,,,,,,,,,,,,130,001,2023-03-03_14h20.13.412,eb_01,2022.2.4,60.01316972139898,
,,,1,0,1,0,87,0,87,0,,,,,,,,,,,,,,,,,,,,,,,,,,,,,,,,,,,,,,,,,,,,,,,,,,,,,,,,,,,,130,001,2023-03-03_14h20.13.412,eb_01,2022.2.4,60.01316972139898,
9,stimuli/9.png,l,1,0,1,0,88,0,88,0,0,0,0,0,,,,,,,,,,,,,,,,,,,432.42634500405984,432.42634500405984,432.42634500405984,432.42634500405984,l,1,0.7633041098306421,433.2263185013726,433.2263185013726,433.2263185013726,,,,,,,,,,,,,,,,,,,,,,,,,,,,130,001,2023-03-03_14h20.13.412,eb_01,2022.2.4,60.01316972139898,
,,,1,0,1,0,88,0,88,0,,,,,,,,,,,,,,,,,,,,,,,,,,,,,,,,,,,,,,,,,,,,,,,,,,,,,,,,,,,,130,001,2023-03-03_14h20.13.412,eb_01,2022.2.4,60.01316972139898,
8,stimuli/8.png,l,1,0,1,0,89,0,89,0,0,0,0,0,,,,,,,,,,,,,,,,,,,434.2429466767644,434.2429466767644,434.2429466767644,434.2429466767644,l,1,1.1467829715111293,435.4095486965671,435.4095486965671,435.4095486965671,436.40951730386587,436.40951730386587,436.40951730386587,,,,,,,,,,,,,,,,,,,,,,,,,130,001,2023-03-03_14h20.13.412,eb_01,2022.2.4,60.01316972139898,
,,,1,0,1,0,89,0,89,0,,,,,,,,,,,,,,,,,,,,,,,,,,,,,,,,,,,,,,,,,,,,,,,,,,,,,,,,,,,,130,001,2023-03-03_14h20.13.412,eb_01,2022.2.4,60.01316972139898,
3,stimuli/3.png,l,1,0,1,0,90,0,90,0,0,0,0,0,,,,,,,,,,,,,,,,,,,436.40951730386587,436.40951730386587,436.40951730386587,436.40951730386587,l,1,0.4682358744321391,436.9094966269331,436.9094966269331,436.9094966269331,437.9091181033,437.9091181033,437.9091181033,,,,,,,,,,,,,,,,,,,,,,,,,130,001,2023-03-03_14h20.13.412,eb_01,2022.2.4,60.01316972139898,
,,,1,0,1,0,90,0,90,0,,,,,,,,,,,,,,,,,,,,,,,,,,,,,,,,,,,,,,,,,,,,,,,,,,,,,,,,,,,,130,001,2023-03-03_14h20.13.412,eb_01,2022.2.4,60.01316972139898,
8,stimuli/8.png,l,1,0,1,0,91,0,91,0,0,0,0,0,,,,,,,,,,,,,,,,,,,437.9091181033,437.9091181033,437.9091181033,437.9091181033,l,1,0.44769658995210193,438.37608074687887,438.37608074687887,438.37608074687887,439.3926959425735,439.3926959425735,439.3926959425735,,,,,,,,,,,,,,,,,,,,,,,,,130,001,2023-03-03_14h20.13.412,eb_01,2022.2.4,60.01316972139898,
,,,1,0,1,0,91,0,91,0,,,,,,,,,,,,,,,,,,,,,,,,,,,,,,,,,,,,,,,,,,,,,,,,,,,,,,,,,,,,130,001,2023-03-03_14h20.13.412,eb_01,2022.2.4,60.01316972139898,
9,stimuli/9.png,l,1,0,1,0,92,0,92,0,0,0,0,0,,,,,,,,,,,,,,,,,,,439.3926959425735,439.3926959425735,439.3926959425735,439.3926959425735,l,1,0.4281473832379561,439.85934375348734,439.85934375348734,439.85934375348734,,,,,,,,,,,,,,,,,,,,,,,,,,,,130,001,2023-03-03_14h20.13.412,eb_01,2022.2.4,60.01316972139898,
,,,1,0,1,0,92,0,92,0,,,,,,,,,,,,,,,,,,,,,,,,,,,,,,,,,,,,,,,,,,,,,,,,,,,,,,,,,,,,130,001,2023-03-03_14h20.13.412,eb_01,2022.2.4,60.01316972139898,
8,stimuli/8.png,l,1,0,1,0,93,0,93,0,0,0,0,0,,,,,,,,,,,,,,,,,,,440.87596770291566,440.87596770291566,440.87596770291566,440.87596770291566,l,1,0.5209312555671204,441.42595380259445,441.42595380259445,441.42595380259445,442.4425702057197,442.4425702057197,442.4425702057197,,,,,,,,,,,,,,,,,,,,,,,,,130,001,2023-03-03_14h20.13.412,eb_01,2022.2.4,60.01316972139898,
,,,1,0,1,0,93,0,93,0,,,,,,,,,,,,,,,,,,,,,,,,,,,,,,,,,,,,,,,,,,,,,,,,,,,,,,,,,,,,130,001,2023-03-03_14h20.13.412,eb_01,2022.2.4,60.01316972139898,
6,stimuli/6.png,s,1,0,1,0,94,0,94,0,0,0,0,0,,,,,,,,,,,,,,,,,,,442.4425702057197,442.4425702057197,442.4425702057197,442.4425702057197,s,1,0.4504606577393133,442.94254439728684,442.94254439728684,442.94254439728684,,,,,,,,,,,,,,,,,,,,,,,,,,,,130,001,2023-03-03_14h20.13.412,eb_01,2022.2.4,60.01316972139898,
,,,1,0,1,0,94,0,94,0,,,,,,,,,,,,,,,,,,,,,,,,,,,,,,,,,,,,,,,,,,,,,,,,,,,,,,,,,,,,130,001,2023-03-03_14h20.13.412,eb_01,2022.2.4,60.01316972139898,
9,stimuli/9.png,l,1,0,1,0,95,0,95,0,0,0,0,0,,,,,,,,,,,,,,,,,,,443.9591149187472,443.9591149187472,443.9591149187472,443.9591149187472,l,1,0.4218833300692495,444.4258071020595,444.4258071020595,444.4258071020595,,,,,,,,,,,,,,,,,,,,,,,,,,,,130,001,2023-03-03_14h20.13.412,eb_01,2022.2.4,60.01316972139898,
,,,1,0,1,0,95,0,95,0,,,,,,,,,,,,,,,,,,,,,,,,,,,,,,,,,,,,,,,,,,,,,,,,,,,,,,,,,,,,130,001,2023-03-03_14h20.13.412,eb_01,2022.2.4,60.01316972139898,
5,stimuli/5.png,s,1,0,1,0,96,0,96,0,0,0,0,0,,,,,,,,,,,,,,,,,,,445.4254557451641,445.4254557451641,445.4254557451641,445.4254557451641,s,1,0.37956384345307015,445.82575144036673,445.82575144036673,445.82575144036673,446.8423907842953,446.8423907842953,446.8423907842953,,,,,,,,,,,,,,,,,,,,,,,,,130,001,2023-03-03_14h20.13.412,eb_01,2022.2.4,60.01316972139898,
,,,1,0,1,0,96,0,96,0,,,,,,,,,,,,,,,,,,,,,,,,,,,,,,,,,,,,,,,,,,,,,,,,,,,,,,,,,,,,130,001,2023-03-03_14h20.13.412,eb_01,2022.2.4,60.01316972139898,
9,stimuli/9.png,l,1,0,1,0,97,0,97,0,0,0,0,0,,,,,,,,,,,,,,,,,,,446.8423907842953,446.8423907842953,446.8423907842953,446.8423907842953,l,1,0.43469608371378854,447.3256924281013,447.3256924281013,447.3256924281013,,,,,,,,,,,,,,,,,,,,,,,,,,,,130,001,2023-03-03_14h20.13.412,eb_01,2022.2.4,60.01316972139898,
,,,1,0,1,0,97,0,97,0,,,,,,,,,,,,,,,,,,,,,,,,,,,,,,,,,,,,,,,,,,,,,,,,,,,,,,,,,,,,130,001,2023-03-03_14h20.13.412,eb_01,2022.2.4,60.01316972139898,
8,stimuli/8.png,l,1,0,1,0,98,0,98,0,0,0,0,0,,,,,,,,,,,,,,,,,,,448.34226476066397,448.34226476066397,448.34226476066397,448.34226476066397,l,1,0.5428696286689956,448.90895902676857,448.90895902676857,448.90895902676857,449.9089131451037,449.9089131451037,449.9089131451037,,,,,,,,,,,,,,,,,,,,,,,,,130,001,2023-03-03_14h20.13.412,eb_01,2022.2.4,60.01316972139898,
,,,1,0,1,0,98,0,98,0,,,,,,,,,,,,,,,,,,,,,,,,,,,,,,,,,,,,,,,,,,,,,,,,,,,,,,,,,,,,130,001,2023-03-03_14h20.13.412,eb_01,2022.2.4,60.01316972139898,
3,stimuli/3.png,l,1,0,1,0,99,0,99,0,0,0,0,0,,,,,,,,,,,,,,,,,,,449.9089131451037,449.9089131451037,449.9089131451037,449.9089131451037,l,1,0.5442973932949826,450.47556998144137,450.47556998144137,450.47556998144137,451.47549753671046,451.47549753671046,451.47549753671046,,,,,,,,,,,,,,,,,,,,,,,,,130,001,2023-03-03_14h20.13.412,eb_01,2022.2.4,60.01316972139898,
,,,1,0,1,0,99,0,99,0,,,,,,,,,,,,,,,,,,,,,,,,,,,,,,,,,,,,,,,,,,,,,,,,,,,,,,,,,,,,130,001,2023-03-03_14h20.13.412,eb_01,2022.2.4,60.01316972139898,
,,,1,0,1,0,,,,,,,,,,,,,,,,,,,,,,,,,,,,,,,,,,,,,,,,451.47549753671046,451.47549753671046,return,72.95908535213675,,,,,,,,,,,,,,,,,,,,,130,001,2023-03-03_14h20.13.412,eb_01,2022.2.4,60.01316972139898,
4,stimuli/4.png,l,2,0,2,0,0,0,0,0,0,0,0,0,,,,,,,,,,,,,,,,,,,524.4723304951913,524.4723304951913,524.4723304951913,524.4723304951913,l,1,1.402291260252241,525.9056105716154,525.9056105716154,525.9056105716154,526.9055652936513,526.9055652936513,526.9055652936513,,,,,,,,,,,,,,,,,,,,,,,,,130,001,2023-03-03_14h20.13.412,eb_01,2022.2.4,60.01316972139898,
,,,2,0,2,0,0,0,0,0,,,,,,,,,,,,,,,,,,,,,,,,,,,,,,,,,,,,,,,,,,,,,,,,,,,,,,,,,,,,130,001,2023-03-03_14h20.13.412,eb_01,2022.2.4,60.01316972139898,
