index,stimulus,correct_answer,block.thisRepN,block.thisTrialN,block.thisN,block.thisIndex,trial.thisRepN,trial.thisTrialN,trial.thisN,trial.thisIndex,display_row.thisRepN,display_row.thisTrialN,display_row.thisN,display_row.thisIndex,pair_questions.thisRepN,pair_questions.thisTrialN,pair_questions.thisN,pair_questions.thisIndex,welcome_text.started,instructions_0_keypress.started,instructions_0_keypress.keys,instructions_0_keypress.rt,instructions_1_keypress.started,instructions_1_text.started,instructions_1_keypress.keys,instructions_1_keypress.rt,instructions_2_keypress.started,instructions_2_text.started,instructions_2_keypress.keys,instructions_2_keypress.rt,text_countdown.started,image.started,size_question.started,size_resp.started,keypress_options.started,size_resp.keys,size_resp.corr,size_resp.rt,fb_image.started,fb.started,fb_size_question.started,fb_image.stopped,fb.stopped,fb_size_question.stopped,block_break_text.started,block_break_keypress.started,block_break_keypress.keys,block_break_keypress.rt,seq_reveal.started,seq_reveal_adv.started,seq_reveal_adv.keys,seq_reveal_adv.rt,instruction_2afc_text.started,instruction_2afc_keypress.started,instruction_2afc_keypress.keys,instruction_2afc_keypress.rt,dist_2afc_test.started,dist_2afc_resp.started,text.started,stim_00.started,stim_01.started,stim_10.started,stim_11.started,dist_2afc_resp.keys,dist_2afc_resp.rt,graph.started,debrief_text.started,debriefing_title.started,participant,session,date,expName,psychopyVersion,frameRate,
,,,,,,,,,,,,,,,,,,,29.29989425992244,29.29989425992244,return,1.672223228844814,,,,,,,,,,,,,,,,,,,,,,,,,,,,,,,,,,,,,,,,,,,,,,,131,001,2023-03-03_15h01.00.629,eb_01,2022.2.4,120.0000362377723,
,,,,,,,,,,,,,,,,,,,,,,,30.983088533364935,30.983088533364935,return,52.54819343084819,,,,,,,,,,,,,,,,,,,,,,,,,,,,,,,,,,,,,,,,,,,131,001,2023-03-03_15h01.00.629,eb_01,2022.2.4,120.0000362377723,
,,,,,,,,,,,,,,,,,,,,,,,,,,,83.54673616992659,83.54673616992659,space,7.495815728441812,,,,,,,,,,,,,,,,,,,,,,,,,,,,,,,,,,,,,,,131,001,2023-03-03_15h01.00.629,eb_01,2022.2.4,120.0000362377723,
5,stimuli/5.png,s,0,0,0,0,0,0,0,0,0,0,0,0,,,,,,,,,,,,,,,,,91.06419776860275,96.07306961002178,96.07306961002178,96.07306961002178,96.07306961002178,s,1,1.3617410777078476,97.45651209942298,97.45651209942298,97.45651209942298,,,,,,,,,,,,,,,,,,,,,,,,,,,,131,001,2023-03-03_15h01.00.629,eb_01,2022.2.4,120.0000362377723,
,,,0,0,0,0,0,0,0,0,,,,,,,,,,,,,,,,,,,,,,,,,,,,,,,,,,,,,,,,,,,,,,,,,,,,,,,,,,,131,001,2023-03-03_15h01.00.629,eb_01,2022.2.4,120.0000362377723,
6,stimuli/6.png,s,0,0,0,0,1,0,1,0,0,0,0,0,,,,,,,,,,,,,,,,,,98.48161683580838,98.48161683580838,98.48161683580838,98.48161683580838,s,1,1.8893284264486283,100.39848969507148,100.39848969507148,100.39848969507148,,,,,,,,,,,,,,,,,,,,,,,,,,,,131,001,2023-03-03_15h01.00.629,eb_01,2022.2.4,120.0000362377723,
,,,0,0,0,0,1,0,1,0,,,,,,,,,,,,,,,,,,,,,,,,,,,,,,,,,,,,,,,,,,,,,,,,,,,,,,,,,,,131,001,2023-03-03_15h01.00.629,eb_01,2022.2.4,120.0000362377723,
8,stimuli/8.png,l,0,0,0,0,2,0,2,0,0,0,0,0,,,,,,,,,,,,,,,,,,101.39858327034744,101.39858327034744,101.39858327034744,101.39858327034744,l,1,0.9794441307603847,102.39866960109794,102.39866960109794,102.39866960109794,,,,,,,,,,,,,,,,,,,,,,,,,,,,131,001,2023-03-03_15h01.00.629,eb_01,2022.2.4,120.0000362377723,
,,,0,0,0,0,2,0,2,0,,,,,,,,,,,,,,,,,,,,,,,,,,,,,,,,,,,,,,,,,,,,,,,,,,,,,,,,,,,131,001,2023-03-03_15h01.00.629,eb_01,2022.2.4,120.0000362377723,
6,stimuli/6.png,s,0,0,0,0,3,0,3,0,0,0,0,0,,,,,,,,,,,,,,,,,,103.4238005989173,103.4238005989173,103.4238005989173,103.4238005989173,s,1,1.5463180012593511,104.99895346621634,104.99895346621634,104.99895346621634,,,,,,,,,,,,,,,,,,,,,,,,,,,,131,001,2023-03-03_15h01.00.629,eb_01,2022.2.4,120.0000362377723,
,,,0,0,0,0,3,0,3,0,,,,,,,,,,,,,,,,,,,,,,,,,,,,,,,,,,,,,,,,,,,,,,,,,,,,,,,,,,,131,001,2023-03-03_15h01.00.629,eb_01,2022.2.4,120.0000362377723,
8,stimuli/8.png,l,0,0,0,0,4,0,4,0,0,0,0,0,,,,,,,,,,,,,,,,,,105.99906907696277,105.99906907696277,105.99906907696277,105.99906907696277,l,1,0.9791609901294578,106.99917925428599,106.99917925428599,106.99917925428599,,,,,,,,,,,,,,,,,,,,,,,,,,,,131,001,2023-03-03_15h01.00.629,eb_01,2022.2.4,120.0000362377723,
,,,0,0,0,0,4,0,4,0,,,,,,,,,,,,,,,,,,,,,,,,,,,,,,,,,,,,,,,,,,,,,,,,,,,,,,,,,,,131,001,2023-03-03_15h01.00.629,eb_01,2022.2.4,120.0000362377723,
6,stimuli/6.png,s,0,0,0,0,5,0,5,0,0,0,0,0,,,,,,,,,,,,,,,,,,108.02428821666399,108.02428821666399,108.02428821666399,108.02428821666399,s,1,1.122037451743381,109.17440348025411,109.17440348025411,109.17440348025411,,,,,,,,,,,,,,,,,,,,,,,,,,,,131,001,2023-03-03_15h01.00.629,eb_01,2022.2.4,120.0000362377723,
,,,0,0,0,0,5,0,5,0,,,,,,,,,,,,,,,,,,,,,,,,,,,,,,,,,,,,,,,,,,,,,,,,,,,,,,,,,,,131,001,2023-03-03_15h01.00.629,eb_01,2022.2.4,120.0000362377723,
8,stimuli/8.png,l,0,0,0,0,6,0,6,0,0,0,0,0,,,,,,,,,,,,,,,,,,110.17452512812451,110.17452512812451,110.17452512812451,110.17452512812451,l,1,1.0038775400316808,111.19960481047747,111.19960481047747,111.19960481047747,,,,,,,,,,,,,,,,,,,,,,,,,,,,131,001,2023-03-03_15h01.00.629,eb_01,2022.2.4,120.0000362377723,
,,,0,0,0,0,6,0,6,0,,,,,,,,,,,,,,,,,,,,,,,,,,,,,,,,,,,,,,,,,,,,,,,,,,,,,,,,,,,131,001,2023-03-03_15h01.00.629,eb_01,2022.2.4,120.0000362377723,
6,stimuli/6.png,s,0,0,0,0,7,0,7,0,0,0,0,0,,,,,,,,,,,,,,,,,,112.22471015059273,112.22471015059273,112.22471015059273,112.22471015059273,s,1,0.9537740186206065,113.20814642173355,113.20814642173355,113.20814642173355,,,,,,,,,,,,,,,,,,,,,,,,,,,,131,001,2023-03-03_15h01.00.629,eb_01,2022.2.4,120.0000362377723,
,,,0,0,0,0,7,0,7,0,,,,,,,,,,,,,,,,,,,,,,,,,,,,,,,,,,,,,,,,,,,,,,,,,,,,,,,,,,,131,001,2023-03-03_15h01.00.629,eb_01,2022.2.4,120.0000362377723,
5,stimuli/5.png,s,0,0,0,0,8,0,8,0,0,0,0,0,,,,,,,,,,,,,,,,,,114.2082526749582,114.2082526749582,114.2082526749582,114.2082526749582,s,1,0.8982914283114951,115.12500539564644,115.12500539564644,115.12500539564644,,,,,,,,,,,,,,,,,,,,,,,,,,,,131,001,2023-03-03_15h01.00.629,eb_01,2022.2.4,120.0000362377723,
,,,0,0,0,0,8,0,8,0,,,,,,,,,,,,,,,,,,,,,,,,,,,,,,,,,,,,,,,,,,,,,,,,,,,,,,,,,,,131,001,2023-03-03_15h01.00.629,eb_01,2022.2.4,120.0000362377723,
6,stimuli/6.png,s,0,0,0,0,9,0,9,0,0,0,0,0,,,,,,,,,,,,,,,,,,116.150112848758,116.150112848758,116.150112848758,116.150112848758,s,1,0.8605286742094904,117.04187825493864,117.04187825493864,117.04187825493864,,,,,,,,,,,,,,,,,,,,,,,,,,,,131,001,2023-03-03_15h01.00.629,eb_01,2022.2.4,120.0000362377723,
,,,0,0,0,0,9,0,9,0,,,,,,,,,,,,,,,,,,,,,,,,,,,,,,,,,,,,,,,,,,,,,,,,,,,,,,,,,,,131,001,2023-03-03_15h01.00.629,eb_01,2022.2.4,120.0000362377723,
9,stimuli/9.png,l,0,0,0,0,10,0,10,0,0,0,0,0,,,,,,,,,,,,,,,,,,118.05031482040067,118.05031482040067,118.05031482040067,118.05031482040067,l,1,0.9354060981713701,119.01707869468373,119.01707869468373,119.01707869468373,,,,,,,,,,,,,,,,,,,,,,,,,,,,131,001,2023-03-03_15h01.00.629,eb_01,2022.2.4,120.0000362377723,
,,,0,0,0,0,10,0,10,0,,,,,,,,,,,,,,,,,,,,,,,,,,,,,,,,,,,,,,,,,,,,,,,,,,,,,,,,,,,131,001,2023-03-03_15h01.00.629,eb_01,2022.2.4,120.0000362377723,
5,stimuli/5.png,s,0,0,0,0,11,0,11,0,0,0,0,0,,,,,,,,,,,,,,,,,,120.01719339986448,120.01719339986448,120.01719339986448,120.01719339986448,s,1,0.9446081697533373,120.98395968897967,120.98395968897967,120.98395968897967,,,,,,,,,,,,,,,,,,,,,,,,,,,,131,001,2023-03-03_15h01.00.629,eb_01,2022.2.4,120.0000362377723,
,,,0,0,0,0,11,0,11,0,,,,,,,,,,,,,,,,,,,,,,,,,,,,,,,,,,,,,,,,,,,,,,,,,,,,,,,,,,,131,001,2023-03-03_15h01.00.629,eb_01,2022.2.4,120.0000362377723,
6,stimuli/6.png,s,0,0,0,0,12,0,12,0,0,0,0,0,,,,,,,,,,,,,,,,,,122.00905778454035,122.00905778454035,122.00905778454035,122.00905778454035,s,1,0.8407858009741176,122.87582893352374,122.87582893352374,122.87582893352374,,,,,,,,,,,,,,,,,,,,,,,,,,,,131,001,2023-03-03_15h01.00.629,eb_01,2022.2.4,120.0000362377723,
,,,0,0,0,0,12,0,12,0,,,,,,,,,,,,,,,,,,,,,,,,,,,,,,,,,,,,,,,,,,,,,,,,,,,,,,,,,,,131,001,2023-03-03_15h01.00.629,eb_01,2022.2.4,120.0000362377723,
8,stimuli/8.png,l,0,0,0,0,13,0,13,0,0,0,0,0,,,,,,,,,,,,,,,,,,123.87592794219381,123.87592794219381,123.87592794219381,123.87592794219381,l,1,0.8140317249344662,124.70934041202418,124.70934041202418,124.70934041202418,,,,,,,,,,,,,,,,,,,,,,,,,,,,131,001,2023-03-03_15h01.00.629,eb_01,2022.2.4,120.0000362377723,
,,,0,0,0,0,13,0,13,0,,,,,,,,,,,,,,,,,,,,,,,,,,,,,,,,,,,,,,,,,,,,,,,,,,,,,,,,,,,131,001,2023-03-03_15h01.00.629,eb_01,2022.2.4,120.0000362377723,
6,stimuli/6.png,s,0,0,0,0,14,0,14,0,0,0,0,0,,,,,,,,,,,,,,,,,,125.73445541152614,125.73445541152614,125.73445541152614,125.73445541152614,s,1,0.8836318053363357,126.6512126600719,126.6512126600719,126.6512126600719,,,,,,,,,,,,,,,,,,,,,,,,,,,,131,001,2023-03-03_15h01.00.629,eb_01,2022.2.4,120.0000362377723,
,,,0,0,0,0,14,0,14,0,,,,,,,,,,,,,,,,,,,,,,,,,,,,,,,,,,,,,,,,,,,,,,,,,,,,,,,,,,,131,001,2023-03-03_15h01.00.629,eb_01,2022.2.4,120.0000362377723,
5,stimuli/5.png,s,0,0,0,0,15,0,15,0,0,0,0,0,,,,,,,,,,,,,,,,,,127.65130985761061,127.65130985761061,127.65130985761061,127.65130985761061,s,1,0.7588244270300493,128.4347244555247,128.4347244555247,128.4347244555247,,,,,,,,,,,,,,,,,,,,,,,,,,,,131,001,2023-03-03_15h01.00.629,eb_01,2022.2.4,120.0000362377723,
,,,0,0,0,0,15,0,15,0,,,,,,,,,,,,,,,,,,,,,,,,,,,,,,,,,,,,,,,,,,,,,,,,,,,,,,,,,,,131,001,2023-03-03_15h01.00.629,eb_01,2022.2.4,120.0000362377723,
6,stimuli/6.png,s,0,0,0,0,16,0,16,0,0,0,0,0,,,,,,,,,,,,,,,,,,129.45983281417284,129.45983281417284,129.45983281417284,129.45983281417284,s,1,0.8063570433005225,130.29327365846257,130.29327365846257,130.29327365846257,,,,,,,,,,,,,,,,,,,,,,,,,,,,131,001,2023-03-03_15h01.00.629,eb_01,2022.2.4,120.0000362377723,
,,,0,0,0,0,16,0,16,0,,,,,,,,,,,,,,,,,,,,,,,,,,,,,,,,,,,,,,,,,,,,,,,,,,,,,,,,,,,131,001,2023-03-03_15h01.00.629,eb_01,2022.2.4,120.0000362377723,
5,stimuli/5.png,s,0,0,0,0,17,0,17,0,0,0,0,0,,,,,,,,,,,,,,,,,,131.29335878178244,131.29335878178244,131.29335878178244,131.29335878178244,s,1,1.052878684393363,132.36846048451844,132.36846048451844,132.36846048451844,,,,,,,,,,,,,,,,,,,,,,,,,,,,131,001,2023-03-03_15h01.00.629,eb_01,2022.2.4,120.0000362377723,
,,,0,0,0,0,17,0,17,0,,,,,,,,,,,,,,,,,,,,,,,,,,,,,,,,,,,,,,,,,,,,,,,,,,,,,,,,,,,131,001,2023-03-03_15h01.00.629,eb_01,2022.2.4,120.0000362377723,
9,stimuli/9.png,l,0,0,0,0,18,0,18,0,0,0,0,0,,,,,,,,,,,,,,,,,,133.38524547358975,133.38524547358975,133.38524547358975,133.38524547358975,l,1,0.8480904074967839,134.26034633113886,134.26034633113886,134.26034633113886,,,,,,,,,,,,,,,,,,,,,,,,,,,,131,001,2023-03-03_15h01.00.629,eb_01,2022.2.4,120.0000362377723,
,,,0,0,0,0,18,0,18,0,,,,,,,,,,,,,,,,,,,,,,,,,,,,,,,,,,,,,,,,,,,,,,,,,,,,,,,,,,,131,001,2023-03-03_15h01.00.629,eb_01,2022.2.4,120.0000362377723,
6,stimuli/6.png,s,0,0,0,0,19,0,19,0,0,0,0,0,,,,,,,,,,,,,,,,,,135.27710566247697,135.27710566247697,135.27710566247697,135.27710566247697,s,1,1.076319592044456,136.38556785549736,136.38556785549736,136.38556785549736,,,,,,,,,,,,,,,,,,,,,,,,,,,,131,001,2023-03-03_15h01.00.629,eb_01,2022.2.4,120.0000362377723,
,,,0,0,0,0,19,0,19,0,,,,,,,,,,,,,,,,,,,,,,,,,,,,,,,,,,,,,,,,,,,,,,,,,,,,,,,,,,,131,001,2023-03-03_15h01.00.629,eb_01,2022.2.4,120.0000362377723,
9,stimuli/9.png,l,0,0,0,0,20,0,20,0,0,0,0,0,,,,,,,,,,,,,,,,,,137.3939926486055,137.3939926486055,137.3939926486055,137.3939926486055,l,1,0.8715258817537688,138.29409108374966,138.29409108374966,138.29409108374966,,,,,,,,,,,,,,,,,,,,,,,,,,,,131,001,2023-03-03_15h01.00.629,eb_01,2022.2.4,120.0000362377723,
,,,0,0,0,0,20,0,20,0,,,,,,,,,,,,,,,,,,,,,,,,,,,,,,,,,,,,,,,,,,,,,,,,,,,,,,,,,,,131,001,2023-03-03_15h01.00.629,eb_01,2022.2.4,120.0000362377723,
5,stimuli/5.png,s,0,0,0,0,21,0,21,0,0,0,0,0,,,,,,,,,,,,,,,,,,139.2941897905548,139.2941897905548,139.2941897905548,139.2941897905548,s,1,0.8994013517803978,140.2109527743596,140.2109527743596,140.2109527743596,,,,,,,,,,,,,,,,,,,,,,,,,,,,131,001,2023-03-03_15h01.00.629,eb_01,2022.2.4,120.0000362377723,
,,,0,0,0,0,21,0,21,0,,,,,,,,,,,,,,,,,,,,,,,,,,,,,,,,,,,,,,,,,,,,,,,,,,,,,,,,,,,131,001,2023-03-03_15h01.00.629,eb_01,2022.2.4,120.0000362377723,
6,stimuli/6.png,s,0,0,0,0,22,0,22,0,0,0,0,0,,,,,,,,,,,,,,,,,,141.2360647552705,141.2360647552705,141.2360647552705,141.2360647552705,s,1,0.7735836623760406,142.03614329814445,142.03614329814445,142.03614329814445,,,,,,,,,,,,,,,,,,,,,,,,,,,,131,001,2023-03-03_15h01.00.629,eb_01,2022.2.4,120.0000362377723,
,,,0,0,0,0,22,0,22,0,,,,,,,,,,,,,,,,,,,,,,,,,,,,,,,,,,,,,,,,,,,,,,,,,,,,,,,,,,,131,001,2023-03-03_15h01.00.629,eb_01,2022.2.4,120.0000362377723,
9,stimuli/9.png,l,0,0,0,0,23,0,23,0,0,0,0,0,,,,,,,,,,,,,,,,,,143.04458831556258,143.04458831556258,143.04458831556258,143.04458831556258,l,1,0.7171342282090336,143.79466657165904,143.79466657165904,143.79466657165904,,,,,,,,,,,,,,,,,,,,,,,,,,,,131,001,2023-03-03_15h01.00.629,eb_01,2022.2.4,120.0000362377723,
,,,0,0,0,0,23,0,23,0,,,,,,,,,,,,,,,,,,,,,,,,,,,,,,,,,,,,,,,,,,,,,,,,,,,,,,,,,,,131,001,2023-03-03_15h01.00.629,eb_01,2022.2.4,120.0000362377723,
6,stimuli/6.png,s,0,0,0,0,24,0,24,0,0,0,0,0,,,,,,,,,,,,,,,,,,144.8114370716794,144.8114370716794,144.8114370716794,144.8114370716794,s,1,0.5503583400568459,145.39482577037415,145.39482577037415,145.39482577037415,,,,,,,,,,,,,,,,,,,,,,,,,,,,131,001,2023-03-03_15h01.00.629,eb_01,2022.2.4,120.0000362377723,
,,,0,0,0,0,24,0,24,0,,,,,,,,,,,,,,,,,,,,,,,,,,,,,,,,,,,,,,,,,,,,,,,,,,,,,,,,,,,131,001,2023-03-03_15h01.00.629,eb_01,2022.2.4,120.0000362377723,
5,stimuli/5.png,s,0,0,0,0,25,0,25,0,0,0,0,0,,,,,,,,,,,,,,,,,,146.3949437959527,146.3949437959527,146.3949437959527,146.3949437959527,s,1,0.5509164713148493,146.96999282488832,146.96999282488832,146.96999282488832,,,,,,,,,,,,,,,,,,,,,,,,,,,,131,001,2023-03-03_15h01.00.629,eb_01,2022.2.4,120.0000362377723,
,,,0,0,0,0,25,0,25,0,,,,,,,,,,,,,,,,,,,,,,,,,,,,,,,,,,,,,,,,,,,,,,,,,,,,,,,,,,,131,001,2023-03-03_15h01.00.629,eb_01,2022.2.4,120.0000362377723,
9,stimuli/9.png,l,0,0,0,0,26,0,26,0,0,0,0,0,,,,,,,,,,,,,,,,,,147.9867699657043,147.9867699657043,147.9867699657043,147.9867699657043,l,1,0.7022068591904826,148.72018065460725,148.72018065460725,148.72018065460725,,,,,,,,,,,,,,,,,,,,,,,,,,,,131,001,2023-03-03_15h01.00.629,eb_01,2022.2.4,120.0000362377723,
,,,0,0,0,0,26,0,26,0,,,,,,,,,,,,,,,,,,,,,,,,,,,,,,,,,,,,,,,,,,,,,,,,,,,,,,,,,,,131,001,2023-03-03_15h01.00.629,eb_01,2022.2.4,120.0000362377723,
5,stimuli/5.png,s,0,0,0,0,27,0,27,0,0,0,0,0,,,,,,,,,,,,,,,,,,149.72028871893417,149.72028871893417,149.72028871893417,149.72028871893417,s,1,0.7607279291842133,150.50369456305634,150.50369456305634,150.50369456305634,,,,,,,,,,,,,,,,,,,,,,,,,,,,131,001,2023-03-03_15h01.00.629,eb_01,2022.2.4,120.0000362377723,
,,,0,0,0,0,27,0,27,0,,,,,,,,,,,,,,,,,,,,,,,,,,,,,,,,,,,,,,,,,,,,,,,,,,,,,,,,,,,131,001,2023-03-03_15h01.00.629,eb_01,2022.2.4,120.0000362377723,
6,stimuli/6.png,s,0,0,0,0,28,0,28,0,0,0,0,0,,,,,,,,,,,,,,,,,,151.52880503470078,151.52880503470078,151.52880503470078,151.52880503470078,s,1,0.8722907841438428,152.42890437541064,152.42890437541064,152.42890437541064,,,,,,,,,,,,,,,,,,,,,,,,,,,,131,001,2023-03-03_15h01.00.629,eb_01,2022.2.4,120.0000362377723,
,,,0,0,0,0,28,0,28,0,,,,,,,,,,,,,,,,,,,,,,,,,,,,,,,,,,,,,,,,,,,,,,,,,,,,,,,,,,,131,001,2023-03-03_15h01.00.629,eb_01,2022.2.4,120.0000362377723,
9,stimuli/9.png,l,0,0,0,0,29,0,29,0,0,0,0,0,,,,,,,,,,,,,,,,,,153.4373421483033,153.4373421483033,153.4373421483033,153.4373421483033,l,1,0.8038250775425695,154.27076065525762,154.27076065525762,154.27076065525762,,,,,,,,,,,,,,,,,,,,,,,,,,,,131,001,2023-03-03_15h01.00.629,eb_01,2022.2.4,120.0000362377723,
,,,0,0,0,0,29,0,29,0,,,,,,,,,,,,,,,,,,,,,,,,,,,,,,,,,,,,,,,,,,,,,,,,,,,,,,,,,,,131,001,2023-03-03_15h01.00.629,eb_01,2022.2.4,120.0000362377723,
5,stimuli/5.png,s,0,0,0,0,30,0,30,0,0,0,0,0,,,,,,,,,,,,,,,,,,155.27086902147857,155.27086902147857,155.27086902147857,155.27086902147857,s,1,0.6903717001841869,155.97927337893634,155.97927337893634,155.97927337893634,,,,,,,,,,,,,,,,,,,,,,,,,,,,131,001,2023-03-03_15h01.00.629,eb_01,2022.2.4,120.0000362377723,
,,,0,0,0,0,30,0,30,0,,,,,,,,,,,,,,,,,,,,,,,,,,,,,,,,,,,,,,,,,,,,,,,,,,,,,,,,,,,131,001,2023-03-03_15h01.00.629,eb_01,2022.2.4,120.0000362377723,
9,stimuli/9.png,l,0,0,0,0,31,0,31,0,0,0,0,0,,,,,,,,,,,,,,,,,,156.9960493123508,156.9960493123508,156.9960493123508,156.9960493123508,l,1,0.845247228484368,157.87113749195123,157.87113749195123,157.87113749195123,,,,,,,,,,,,,,,,,,,,,,,,,,,,131,001,2023-03-03_15h01.00.629,eb_01,2022.2.4,120.0000362377723,
,,,0,0,0,0,31,0,31,0,,,,,,,,,,,,,,,,,,,,,,,,,,,,,,,,,,,,,,,,,,,,,,,,,,,,,,,,,,,131,001,2023-03-03_15h01.00.629,eb_01,2022.2.4,120.0000362377723,
5,stimuli/5.png,s,0,0,0,0,32,0,32,0,0,0,0,0,,,,,,,,,,,,,,,,,,158.8712482730043,158.8712482730043,158.8712482730043,158.8712482730043,s,1,0.7221302421821747,159.6129793129221,159.6129793129221,159.6129793129221,,,,,,,,,,,,,,,,,,,,,,,,,,,,131,001,2023-03-03_15h01.00.629,eb_01,2022.2.4,120.0000362377723,
,,,0,0,0,0,32,0,32,0,,,,,,,,,,,,,,,,,,,,,,,,,,,,,,,,,,,,,,,,,,,,,,,,,,,,,,,,,,,131,001,2023-03-03_15h01.00.629,eb_01,2022.2.4,120.0000362377723,
6,stimuli/6.png,s,0,0,0,0,33,0,33,0,0,0,0,0,,,,,,,,,,,,,,,,,,160.63809491609572,160.63809491609572,160.63809491609572,160.63809491609572,s,1,0.8913647451263387,161.5548512590758,161.5548512590758,161.5548512590758,,,,,,,,,,,,,,,,,,,,,,,,,,,,131,001,2023-03-03_15h01.00.629,eb_01,2022.2.4,120.0000362377723,
,,,0,0,0,0,33,0,33,0,,,,,,,,,,,,,,,,,,,,,,,,,,,,,,,,,,,,,,,,,,,,,,,,,,,,,,,,,,,131,001,2023-03-03_15h01.00.629,eb_01,2022.2.4,120.0000362377723,
8,stimuli/8.png,l,0,0,0,0,34,0,34,0,0,0,0,0,,,,,,,,,,,,,,,,,,162.55496777538792,162.55496777538792,162.55496777538792,162.55496777538792,l,1,0.7505683712952305,163.33003545898828,163.33003545898828,163.33003545898828,,,,,,,,,,,,,,,,,,,,,,,,,,,,131,001,2023-03-03_15h01.00.629,eb_01,2022.2.4,120.0000362377723,
,,,0,0,0,0,34,0,34,0,,,,,,,,,,,,,,,,,,,,,,,,,,,,,,,,,,,,,,,,,,,,,,,,,,,,,,,,,,,131,001,2023-03-03_15h01.00.629,eb_01,2022.2.4,120.0000362377723,
6,stimuli/6.png,s,0,0,0,0,35,0,35,0,0,0,0,0,,,,,,,,,,,,,,,,,,164.35515045846114,164.35515045846114,164.35515045846114,164.35515045846114,s,1,0.7974489791959058,165.18023382345564,165.18023382345564,165.18023382345564,,,,,,,,,,,,,,,,,,,,,,,,,,,,131,001,2023-03-03_15h01.00.629,eb_01,2022.2.4,120.0000362377723,
,,,0,0,0,0,35,0,35,0,,,,,,,,,,,,,,,,,,,,,,,,,,,,,,,,,,,,,,,,,,,,,,,,,,,,,,,,,,,131,001,2023-03-03_15h01.00.629,eb_01,2022.2.4,120.0000362377723,
5,stimuli/5.png,s,0,0,0,0,36,0,36,0,0,0,0,0,,,,,,,,,,,,,,,,,,166.18034158594673,166.18034158594673,166.18034158594673,166.18034158594673,s,1,0.6923401013482362,166.89708621692262,166.89708621692262,166.89708621692262,,,,,,,,,,,,,,,,,,,,,,,,,,,,131,001,2023-03-03_15h01.00.629,eb_01,2022.2.4,120.0000362377723,
,,,0,0,0,0,36,0,36,0,,,,,,,,,,,,,,,,,,,,,,,,,,,,,,,,,,,,,,,,,,,,,,,,,,,,,,,,,,,131,001,2023-03-03_15h01.00.629,eb_01,2022.2.4,120.0000362377723,
9,stimuli/9.png,l,0,0,0,0,37,0,37,0,0,0,0,0,,,,,,,,,,,,,,,,,,167.91387150785886,167.91387150785886,167.91387150785886,167.91387150785886,l,1,0.7108818906999659,168.65560466077295,168.65560466077295,168.65560466077295,,,,,,,,,,,,,,,,,,,,,,,,,,,,131,001,2023-03-03_15h01.00.629,eb_01,2022.2.4,120.0000362377723,
,,,0,0,0,0,37,0,37,0,,,,,,,,,,,,,,,,,,,,,,,,,,,,,,,,,,,,,,,,,,,,,,,,,,,,,,,,,,,131,001,2023-03-03_15h01.00.629,eb_01,2022.2.4,120.0000362377723,
5,stimuli/5.png,s,0,0,0,0,38,0,38,0,0,0,0,0,,,,,,,,,,,,,,,,,,169.65570698984084,169.65570698984084,169.65570698984084,169.65570698984084,s,1,0.7051218799024355,170.38078706461238,170.38078706461238,170.38078706461238,,,,,,,,,,,,,,,,,,,,,,,,,,,,131,001,2023-03-03_15h01.00.629,eb_01,2022.2.4,120.0000362377723,
,,,0,0,0,0,38,0,38,0,,,,,,,,,,,,,,,,,,,,,,,,,,,,,,,,,,,,,,,,,,,,,,,,,,,,,,,,,,,131,001,2023-03-03_15h01.00.629,eb_01,2022.2.4,120.0000362377723,
9,stimuli/9.png,l,0,0,0,0,39,0,39,0,0,0,0,0,,,,,,,,,,,,,,,,,,171.3975645073224,171.3975645073224,171.3975645073224,171.3975645073224,l,1,0.45933314444846474,171.8892817373271,171.8892817373271,171.8892817373271,,,,,,,,,,,,,,,,,,,,,,,,,,,,131,001,2023-03-03_15h01.00.629,eb_01,2022.2.4,120.0000362377723,
,,,0,0,0,0,39,0,39,0,,,,,,,,,,,,,,,,,,,,,,,,,,,,,,,,,,,,,,,,,,,,,,,,,,,,,,,,,,,131,001,2023-03-03_15h01.00.629,eb_01,2022.2.4,120.0000362377723,
5,stimuli/5.png,s,0,0,0,0,40,0,40,0,0,0,0,0,,,,,,,,,,,,,,,,,,172.88938919795328,172.88938919795328,172.88938919795328,172.88938919795328,s,1,0.49556579190539196,173.40609555362607,173.40609555362607,173.40609555362607,,,,,,,,,,,,,,,,,,,,,,,,,,,,131,001,2023-03-03_15h01.00.629,eb_01,2022.2.4,120.0000362377723,
,,,0,0,0,0,40,0,40,0,,,,,,,,,,,,,,,,,,,,,,,,,,,,,,,,,,,,,,,,,,,,,,,,,,,,,,,,,,,131,001,2023-03-03_15h01.00.629,eb_01,2022.2.4,120.0000362377723,
6,stimuli/6.png,s,0,0,0,0,41,0,41,0,0,0,0,0,,,,,,,,,,,,,,,,,,174.43121176052955,174.43121176052955,174.43121176052955,174.43121176052955,s,1,0.6818134868808556,175.13962487180834,175.13962487180834,175.13962487180834,,,,,,,,,,,,,,,,,,,,,,,,,,,,131,001,2023-03-03_15h01.00.629,eb_01,2022.2.4,120.0000362377723,
,,,0,0,0,0,41,0,41,0,,,,,,,,,,,,,,,,,,,,,,,,,,,,,,,,,,,,,,,,,,,,,,,,,,,,,,,,,,,131,001,2023-03-03_15h01.00.629,eb_01,2022.2.4,120.0000362377723,
5,stimuli/5.png,s,0,0,0,0,42,0,42,0,0,0,0,0,,,,,,,,,,,,,,,,,,176.13973263429943,176.13973263429943,176.13973263429943,176.13973263429943,s,1,0.6133565340714995,176.77312463833368,176.77312463833368,176.77312463833368,,,,,,,,,,,,,,,,,,,,,,,,,,,,131,001,2023-03-03_15h01.00.629,eb_01,2022.2.4,120.0000362377723,
,,,0,0,0,0,42,0,42,0,,,,,,,,,,,,,,,,,,,,,,,,,,,,,,,,,,,,,,,,,,,,,,,,,,,,,,,,,,,131,001,2023-03-03_15h01.00.629,eb_01,2022.2.4,120.0000362377723,
6,stimuli/6.png,s,0,0,0,0,43,0,43,0,0,0,0,0,,,,,,,,,,,,,,,,,,177.7982486934925,177.7982486934925,177.7982486934925,177.7982486934925,s,1,0.6989121040387545,178.5233188070124,178.5233188070124,178.5233188070124,,,,,,,,,,,,,,,,,,,,,,,,,,,,131,001,2023-03-03_15h01.00.629,eb_01,2022.2.4,120.0000362377723,
,,,0,0,0,0,43,0,43,0,,,,,,,,,,,,,,,,,,,,,,,,,,,,,,,,,,,,,,,,,,,,,,,,,,,,,,,,,,,131,001,2023-03-03_15h01.00.629,eb_01,2022.2.4,120.0000362377723,
8,stimuli/8.png,l,0,0,0,0,44,0,44,0,0,0,0,0,,,,,,,,,,,,,,,,,,179.52340996745625,179.52340996745625,179.52340996745625,179.52340996745625,l,1,0.7728121191612445,180.31515336834127,180.31515336834127,180.31515336834127,,,,,,,,,,,,,,,,,,,,,,,,,,,,131,001,2023-03-03_15h01.00.629,eb_01,2022.2.4,120.0000362377723,
,,,0,0,0,0,44,0,44,0,,,,,,,,,,,,,,,,,,,,,,,,,,,,,,,,,,,,,,,,,,,,,,,,,,,,,,,,,,,131,001,2023-03-03_15h01.00.629,eb_01,2022.2.4,120.0000362377723,
6,stimuli/6.png,s,0,0,0,0,45,0,45,0,0,0,0,0,,,,,,,,,,,,,,,,,,181.3402819513285,181.3402819513285,181.3402819513285,181.3402819513285,s,1,0.6360255966428667,182.00701422130805,182.00701422130805,182.00701422130805,,,,,,,,,,,,,,,,,,,,,,,,,,,,131,001,2023-03-03_15h01.00.629,eb_01,2022.2.4,120.0000362377723,
,,,0,0,0,0,45,0,45,0,,,,,,,,,,,,,,,,,,,,,,,,,,,,,,,,,,,,,,,,,,,,,,,,,,,,,,,,,,,131,001,2023-03-03_15h01.00.629,eb_01,2022.2.4,120.0000362377723,
9,stimuli/9.png,l,0,0,0,0,46,0,46,0,0,0,0,0,,,,,,,,,,,,,,,,,,183.01546135175158,183.01546135175158,183.01546135175158,183.01546135175158,l,1,0.9769254466809798,184.02389097452397,184.02389097452397,184.02389097452397,,,,,,,,,,,,,,,,,,,,,,,,,,,,131,001,2023-03-03_15h01.00.629,eb_01,2022.2.4,120.0000362377723,
,,,0,0,0,0,46,0,46,0,,,,,,,,,,,,,,,,,,,,,,,,,,,,,,,,,,,,,,,,,,,,,,,,,,,,,,,,,,,131,001,2023-03-03_15h01.00.629,eb_01,2022.2.4,120.0000362377723,
6,stimuli/6.png,s,0,0,0,0,47,0,47,0,0,0,0,0,,,,,,,,,,,,,,,,,,185.04066600237275,185.04066600237275,185.04066600237275,185.04066600237275,s,1,0.6877944560837932,185.75741093518445,185.75741093518445,185.75741093518445,,,,,,,,,,,,,,,,,,,,,,,,,,,,131,001,2023-03-03_15h01.00.629,eb_01,2022.2.4,120.0000362377723,
,,,0,0,0,0,47,0,47,0,,,,,,,,,,,,,,,,,,,,,,,,,,,,,,,,,,,,,,,,,,,,,,,,,,,,,,,,,,,131,001,2023-03-03_15h01.00.629,eb_01,2022.2.4,120.0000362377723,
5,stimuli/5.png,s,0,0,0,0,48,0,48,0,0,0,0,0,,,,,,,,,,,,,,,,,,186.75751145315007,186.75751145315007,186.75751145315007,186.75751145315007,s,1,0.6830200041877106,187.45759727072436,187.45759727072436,187.45759727072436,,,,,,,,,,,,,,,,,,,,,,,,,,,,131,001,2023-03-03_15h01.00.629,eb_01,2022.2.4,120.0000362377723,
,,,0,0,0,0,48,0,48,0,,,,,,,,,,,,,,,,,,,,,,,,,,,,,,,,,,,,,,,,,,,,,,,,,,,,,,,,,,,131,001,2023-03-03_15h01.00.629,eb_01,2022.2.4,120.0000362377723,
9,stimuli/9.png,l,0,0,0,0,49,0,49,0,0,0,0,0,,,,,,,,,,,,,,,,,,188.47436384661705,188.47436384661705,188.47436384661705,188.47436384661705,l,1,0.6942602055787574,189.19943848796538,189.19943848796538,189.19943848796538,,,,,,,,,,,,,,,,,,,,,,,,,,,,131,001,2023-03-03_15h01.00.629,eb_01,2022.2.4,120.0000362377723,
,,,0,0,0,0,49,0,49,0,,,,,,,,,,,,,,,,,,,,,,,,,,,,,,,,,,,,,,,,,,,,,,,,,,,,,,,,,,,131,001,2023-03-03_15h01.00.629,eb_01,2022.2.4,120.0000362377723,
8,stimuli/8.png,l,0,0,0,0,50,0,50,0,0,0,0,0,,,,,,,,,,,,,,,,,,190.19953810036532,190.19953810036532,190.19953810036532,190.19953810036532,l,1,0.6171514641609974,190.8412791317096,190.8412791317096,190.8412791317096,,,,,,,,,,,,,,,,,,,,,,,,,,,,131,001,2023-03-03_15h01.00.629,eb_01,2022.2.4,120.0000362377723,
,,,0,0,0,0,50,0,50,0,,,,,,,,,,,,,,,,,,,,,,,,,,,,,,,,,,,,,,,,,,,,,,,,,,,,,,,,,,,131,001,2023-03-03_15h01.00.629,eb_01,2022.2.4,120.0000362377723,
9,stimuli/9.png,l,0,0,0,0,51,0,51,0,0,0,0,0,,,,,,,,,,,,,,,,,,191.85806110221893,191.85806110221893,191.85806110221893,191.85806110221893,l,1,0.7107662799535319,192.5998398353404,192.5998398353404,192.5998398353404,,,,,,,,,,,,,,,,,,,,,,,,,,,,131,001,2023-03-03_15h01.00.629,eb_01,2022.2.4,120.0000362377723,
,,,0,0,0,0,51,0,51,0,,,,,,,,,,,,,,,,,,,,,,,,,,,,,,,,,,,,,,,,,,,,,,,,,,,,,,,,,,,131,001,2023-03-03_15h01.00.629,eb_01,2022.2.4,120.0000362377723,
5,stimuli/5.png,s,0,0,0,0,52,0,52,0,0,0,0,0,,,,,,,,,,,,,,,,,,193.59991650670418,193.59991650670418,193.59991650670418,193.59991650670418,s,1,0.5448838847514708,194.16662526212167,194.16662526212167,194.16662526212167,,,,,,,,,,,,,,,,,,,,,,,,,,,,131,001,2023-03-03_15h01.00.629,eb_01,2022.2.4,120.0000362377723,
,,,0,0,0,0,52,0,52,0,,,,,,,,,,,,,,,,,,,,,,,,,,,,,,,,,,,,,,,,,,,,,,,,,,,,,,,,,,,131,001,2023-03-03_15h01.00.629,eb_01,2022.2.4,120.0000362377723,
9,stimuli/9.png,l,0,0,0,0,53,0,53,0,0,0,0,0,,,,,,,,,,,,,,,,,,195.1834051196347,195.1834051196347,195.1834051196347,195.1834051196347,l,1,0.5204731146804988,195.73346079693874,195.73346079693874,195.73346079693874,,,,,,,,,,,,,,,,,,,,,,,,,,,,131,001,2023-03-03_15h01.00.629,eb_01,2022.2.4,120.0000362377723,
,,,0,0,0,0,53,0,53,0,,,,,,,,,,,,,,,,,,,,,,,,,,,,,,,,,,,,,,,,,,,,,,,,,,,,,,,,,,,131,001,2023-03-03_15h01.00.629,eb_01,2022.2.4,120.0000362377723,
6,stimuli/6.png,s,0,0,0,0,54,0,54,0,0,0,0,0,,,,,,,,,,,,,,,,,,196.7502334099263,196.7502334099263,196.7502334099263,196.7502334099263,s,1,0.5456985933415126,197.3252984371793,197.3252984371793,197.3252984371793,,,,,,,,,,,,,,,,,,,,,,,,,,,,131,001,2023-03-03_15h01.00.629,eb_01,2022.2.4,120.0000362377723,
,,,0,0,0,0,54,0,54,0,,,,,,,,,,,,,,,,,,,,,,,,,,,,,,,,,,,,,,,,,,,,,,,,,,,,,,,,,,,131,001,2023-03-03_15h01.00.629,eb_01,2022.2.4,120.0000362377723,
5,stimuli/5.png,s,0,0,0,0,55,0,55,0,0,0,0,0,,,,,,,,,,,,,,,,,,198.3254095200973,198.3254095200973,198.3254095200973,198.3254095200973,s,1,0.6025848127610516,198.95046487287618,198.95046487287618,198.95046487287618,,,,,,,,,,,,,,,,,,,,,,,,,,,,131,001,2023-03-03_15h01.00.629,eb_01,2022.2.4,120.0000362377723,
,,,0,0,0,0,55,0,55,0,,,,,,,,,,,,,,,,,,,,,,,,,,,,,,,,,,,,,,,,,,,,,,,,,,,,,,,,,,,131,001,2023-03-03_15h01.00.629,eb_01,2022.2.4,120.0000362377723,
6,stimuli/6.png,s,0,0,0,0,56,0,56,0,0,0,0,0,,,,,,,,,,,,,,,,,,199.9755750426848,199.9755750426848,199.9755750426848,199.9755750426848,s,1,0.5845154275884852,200.59230310175917,200.59230310175917,200.59230310175917,,,,,,,,,,,,,,,,,,,,,,,,,,,,131,001,2023-03-03_15h01.00.629,eb_01,2022.2.4,120.0000362377723,
,,,0,0,0,0,56,0,56,0,,,,,,,,,,,,,,,,,,,,,,,,,,,,,,,,,,,,,,,,,,,,,,,,,,,,,,,,,,,131,001,2023-03-03_15h01.00.629,eb_01,2022.2.4,120.0000362377723,
5,stimuli/5.png,s,0,0,0,0,57,0,57,0,0,0,0,0,,,,,,,,,,,,,,,,,,201.59241841064068,201.59241841064068,201.59241841064068,201.59241841064068,s,1,0.6717164131114259,202.2841579176311,202.2841579176311,202.2841579176311,,,,,,,,,,,,,,,,,,,,,,,,,,,,131,001,2023-03-03_15h01.00.629,eb_01,2022.2.4,120.0000362377723,
,,,0,0,0,0,57,0,57,0,,,,,,,,,,,,,,,,,,,,,,,,,,,,,,,,,,,,,,,,,,,,,,,,,,,,,,,,,,,131,001,2023-03-03_15h01.00.629,eb_01,2022.2.4,120.0000362377723,
6,stimuli/6.png,s,0,0,0,0,58,0,58,0,0,0,0,0,,,,,,,,,,,,,,,,,,203.30925812615897,203.30925812615897,203.30925812615897,203.30925812615897,s,1,0.46694021043367684,203.8093283076305,203.8093283076305,203.8093283076305,,,,,,,,,,,,,,,,,,,,,,,,,,,,131,001,2023-03-03_15h01.00.629,eb_01,2022.2.4,120.0000362377723,
,,,0,0,0,0,58,0,58,0,,,,,,,,,,,,,,,,,,,,,,,,,,,,,,,,,,,,,,,,,,,,,,,,,,,,,,,,,,,131,001,2023-03-03_15h01.00.629,eb_01,2022.2.4,120.0000362377723,
9,stimuli/9.png,l,0,0,0,0,59,0,59,0,0,0,0,0,,,,,,,,,,,,,,,,,,204.81774978031171,204.81774978031171,204.81774978031171,204.81774978031171,l,1,0.9745362586400006,205.81786327806185,205.81786327806185,205.81786327806185,,,,,,,,,,,,,,,,,,,,,,,,,,,,131,001,2023-03-03_15h01.00.629,eb_01,2022.2.4,120.0000362377723,
,,,0,0,0,0,59,0,59,0,,,,,,,,,,,,,,,,,,,,,,,,,,,,,,,,,,,,,,,,,,,,,,,,,,,,,,,,,,,131,001,2023-03-03_15h01.00.629,eb_01,2022.2.4,120.0000362377723,
5,stimuli/5.png,s,0,0,0,0,60,0,60,0,0,0,0,0,,,,,,,,,,,,,,,,,,206.81797375725,206.81797375725,206.81797375725,206.81797375725,s,1,0.6383519986993633,207.476361225883,207.476361225883,207.476361225883,,,,,,,,,,,,,,,,,,,,,,,,,,,,131,001,2023-03-03_15h01.00.629,eb_01,2022.2.4,120.0000362377723,
,,,0,0,0,0,60,0,60,0,,,,,,,,,,,,,,,,,,,,,,,,,,,,,,,,,,,,,,,,,,,,,,,,,,,,,,,,,,,131,001,2023-03-03_15h01.00.629,eb_01,2022.2.4,120.0000362377723,
6,stimuli/6.png,s,0,0,0,0,61,0,61,0,0,0,0,0,,,,,,,,,,,,,,,,,,208.50148679033737,208.50148679033737,208.50148679033737,208.50148679033737,s,1,0.5309203410870396,209.0598739873094,209.0598739873094,209.0598739873094,,,,,,,,,,,,,,,,,,,,,,,,,,,,131,001,2023-03-03_15h01.00.629,eb_01,2022.2.4,120.0000362377723,
,,,0,0,0,0,61,0,61,0,,,,,,,,,,,,,,,,,,,,,,,,,,,,,,,,,,,,,,,,,,,,,,,,,,,,,,,,,,,131,001,2023-03-03_15h01.00.629,eb_01,2022.2.4,120.0000362377723,
9,stimuli/9.png,l,0,0,0,0,62,0,62,0,0,0,0,0,,,,,,,,,,,,,,,,,,210.06831417503417,210.06831417503417,210.06831417503417,210.06831417503417,l,1,0.46818898755009286,210.5683650377323,210.5683650377323,210.5683650377323,,,,,,,,,,,,,,,,,,,,,,,,,,,,131,001,2023-03-03_15h01.00.629,eb_01,2022.2.4,120.0000362377723,
,,,0,0,0,0,62,0,62,0,,,,,,,,,,,,,,,,,,,,,,,,,,,,,,,,,,,,,,,,,,,,,,,,,,,,,,,,,,,131,001,2023-03-03_15h01.00.629,eb_01,2022.2.4,120.0000362377723,
6,stimuli/6.png,s,0,0,0,0,63,0,63,0,0,0,0,0,,,,,,,,,,,,,,,,,,211.5851403674169,211.5851403674169,211.5851403674169,211.5851403674169,s,1,1.038413758360548,212.65191930430592,212.65191930430592,212.65191930430592,,,,,,,,,,,,,,,,,,,,,,,,,,,,131,001,2023-03-03_15h01.00.629,eb_01,2022.2.4,120.0000362377723,
,,,0,0,0,0,63,0,63,0,,,,,,,,,,,,,,,,,,,,,,,,,,,,,,,,,,,,,,,,,,,,,,,,,,,,,,,,,,,131,001,2023-03-03_15h01.00.629,eb_01,2022.2.4,120.0000362377723,
9,stimuli/9.png,l,0,0,0,0,64,0,64,0,0,0,0,0,,,,,,,,,,,,,,,,,,213.66036009576055,213.66036009576055,213.66036009576055,213.66036009576055,l,1,0.6592696943844203,214.35209960272186,214.35209960272186,214.35209960272186,,,,,,,,,,,,,,,,,,,,,,,,,,,,131,001,2023-03-03_15h01.00.629,eb_01,2022.2.4,120.0000362377723,
,,,0,0,0,0,64,0,64,0,,,,,,,,,,,,,,,,,,,,,,,,,,,,,,,,,,,,,,,,,,,,,,,,,,,,,,,,,,,131,001,2023-03-03_15h01.00.629,eb_01,2022.2.4,120.0000362377723,
5,stimuli/5.png,s,0,0,0,0,65,0,65,0,0,0,0,0,,,,,,,,,,,,,,,,,,215.35220736521296,215.35220736521296,215.35220736521296,215.35220736521296,s,1,0.6554901589697693,216.02727417342248,216.02727417342248,216.02727417342248,,,,,,,,,,,,,,,,,,,,,,,,,,,,131,001,2023-03-03_15h01.00.629,eb_01,2022.2.4,120.0000362377723,
,,,0,0,0,0,65,0,65,0,,,,,,,,,,,,,,,,,,,,,,,,,,,,,,,,,,,,,,,,,,,,,,,,,,,,,,,,,,,131,001,2023-03-03_15h01.00.629,eb_01,2022.2.4,120.0000362377723,
6,stimuli/6.png,s,0,0,0,0,66,0,66,0,0,0,0,0,,,,,,,,,,,,,,,,,,217.0523834376363,217.0523834376363,217.0523834376363,217.0523834376363,s,1,0.5953807241749018,217.6774538832251,217.6774538832251,217.6774538832251,,,,,,,,,,,,,,,,,,,,,,,,,,,,131,001,2023-03-03_15h01.00.629,eb_01,2022.2.4,120.0000362377723,
,,,0,0,0,0,66,0,66,0,,,,,,,,,,,,,,,,,,,,,,,,,,,,,,,,,,,,,,,,,,,,,,,,,,,,,,,,,,,131,001,2023-03-03_15h01.00.629,eb_01,2022.2.4,120.0000362377723,
5,stimuli/5.png,s,0,0,0,0,67,0,67,0,0,0,0,0,,,,,,,,,,,,,,,,,,218.6775649661431,218.6775649661431,218.6775649661431,218.6775649661431,s,1,0.7222730199573562,219.41929962832364,219.41929962832364,219.41929962832364,,,,,,,,,,,,,,,,,,,,,,,,,,,,131,001,2023-03-03_15h01.00.629,eb_01,2022.2.4,120.0000362377723,
,,,0,0,0,0,67,0,67,0,,,,,,,,,,,,,,,,,,,,,,,,,,,,,,,,,,,,,,,,,,,,,,,,,,,,,,,,,,,131,001,2023-03-03_15h01.00.629,eb_01,2022.2.4,120.0000362377723,
9,stimuli/9.png,l,0,0,0,0,68,0,68,0,0,0,0,0,,,,,,,,,,,,,,,,,,220.4360840136651,220.4360840136651,220.4360840136651,220.4360840136651,l,1,0.6678131168009713,221.1361496069294,221.1361496069294,221.1361496069294,,,,,,,,,,,,,,,,,,,,,,,,,,,,131,001,2023-03-03_15h01.00.629,eb_01,2022.2.4,120.0000362377723,
,,,0,0,0,0,68,0,68,0,,,,,,,,,,,,,,,,,,,,,,,,,,,,,,,,,,,,,,,,,,,,,,,,,,,,,,,,,,,131,001,2023-03-03_15h01.00.629,eb_01,2022.2.4,120.0000362377723,
5,stimuli/5.png,s,0,0,0,0,69,0,69,0,0,0,0,0,,,,,,,,,,,,,,,,,,222.13626189724891,222.13626189724891,222.13626189724891,222.13626189724891,s,1,0.5037155944446567,222.66130490414798,222.66130490414798,222.66130490414798,,,,,,,,,,,,,,,,,,,,,,,,,,,,131,001,2023-03-03_15h01.00.629,eb_01,2022.2.4,120.0000362377723,
,,,0,0,0,0,69,0,69,0,,,,,,,,,,,,,,,,,,,,,,,,,,,,,,,,,,,,,,,,,,,,,,,,,,,,,,,,,,,131,001,2023-03-03_15h01.00.629,eb_01,2022.2.4,120.0000362377723,
6,stimuli/6.png,s,0,0,0,0,70,0,70,0,0,0,0,0,,,,,,,,,,,,,,,,,,223.6864205073507,223.6864205073507,223.6864205073507,223.6864205073507,s,1,0.32960038640885614,224.04479750158498,224.04479750158498,224.04479750158498,,,,,,,,,,,,,,,,,,,,,,,,,,,,131,001,2023-03-03_15h01.00.629,eb_01,2022.2.4,120.0000362377723,
,,,0,0,0,0,70,0,70,0,,,,,,,,,,,,,,,,,,,,,,,,,,,,,,,,,,,,,,,,,,,,,,,,,,,,,,,,,,,131,001,2023-03-03_15h01.00.629,eb_01,2022.2.4,120.0000362377723,
9,stimuli/9.png,l,0,0,0,0,71,0,71,0,0,0,0,0,,,,,,,,,,,,,,,,,,225.06156679417472,225.06156679417472,225.06156679417472,225.06156679417472,l,1,0.522525129839778,225.61161703805556,225.61161703805556,225.61161703805556,,,,,,,,,,,,,,,,,,,,,,,,,,,,131,001,2023-03-03_15h01.00.629,eb_01,2022.2.4,120.0000362377723,
,,,0,0,0,0,71,0,71,0,,,,,,,,,,,,,,,,,,,,,,,,,,,,,,,,,,,,,,,,,,,,,,,,,,,,,,,,,,,131,001,2023-03-03_15h01.00.629,eb_01,2022.2.4,120.0000362377723,
5,stimuli/5.png,s,0,0,0,0,72,0,72,0,0,0,0,0,,,,,,,,,,,,,,,,,,226.6117380821961,226.6117380821961,226.6117380821961,226.6117380821961,s,1,0.5474288303230423,227.17845921369735,227.17845921369735,227.17845921369735,,,,,,,,,,,,,,,,,,,,,,,,,,,,131,001,2023-03-03_15h01.00.629,eb_01,2022.2.4,120.0000362377723,
,,,0,0,0,0,72,0,72,0,,,,,,,,,,,,,,,,,,,,,,,,,,,,,,,,,,,,,,,,,,,,,,,,,,,,,,,,,,,131,001,2023-03-03_15h01.00.629,eb_01,2022.2.4,120.0000362377723,
6,stimuli/6.png,s,0,0,0,0,73,0,73,0,0,0,0,0,,,,,,,,,,,,,,,,,,228.20356636491488,228.20356636491488,228.20356636491488,228.20356636491488,s,1,2.1157247430819552,230.3454651158827,230.3454651158827,230.3454651158827,,,,,,,,,,,,,,,,,,,,,,,,,,,,131,001,2023-03-03_15h01.00.629,eb_01,2022.2.4,120.0000362377723,
,,,0,0,0,0,73,0,73,0,,,,,,,,,,,,,,,,,,,,,,,,,,,,,,,,,,,,,,,,,,,,,,,,,,,,,,,,,,,131,001,2023-03-03_15h01.00.629,eb_01,2022.2.4,120.0000362377723,
5,stimuli/5.png,s,0,0,0,0,74,0,74,0,0,0,0,0,,,,,,,,,,,,,,,,,,231.34557800993207,231.34557800993207,231.34557800993207,231.34557800993207,s,1,0.7017712813976686,232.07064329375862,232.07064329375862,232.07064329375862,,,,,,,,,,,,,,,,,,,,,,,,,,,,131,001,2023-03-03_15h01.00.629,eb_01,2022.2.4,120.0000362377723,
,,,0,0,0,0,74,0,74,0,,,,,,,,,,,,,,,,,,,,,,,,,,,,,,,,,,,,,,,,,,,,,,,,,,,,,,,,,,,131,001,2023-03-03_15h01.00.629,eb_01,2022.2.4,120.0000362377723,
6,stimuli/6.png,s,0,0,0,0,75,0,75,0,0,0,0,0,,,,,,,,,,,,,,,,,,233.09575376540306,233.09575376540306,233.09575376540306,233.09575376540306,s,1,0.8076719268283341,233.92917740391567,233.92917740391567,233.92917740391567,,,,,,,,,,,,,,,,,,,,,,,,,,,,131,001,2023-03-03_15h01.00.629,eb_01,2022.2.4,120.0000362377723,
,,,0,0,0,0,75,0,75,0,,,,,,,,,,,,,,,,,,,,,,,,,,,,,,,,,,,,,,,,,,,,,,,,,,,,,,,,,,,131,001,2023-03-03_15h01.00.629,eb_01,2022.2.4,120.0000362377723,
9,stimuli/9.png,l,0,0,0,0,76,0,76,0,0,0,0,0,,,,,,,,,,,,,,,,,,234.93763238258543,234.93763238258543,234.93763238258543,234.93763238258543,l,1,1.269892721582437,236.23774518608116,236.23774518608116,236.23774518608116,,,,,,,,,,,,,,,,,,,,,,,,,,,,131,001,2023-03-03_15h01.00.629,eb_01,2022.2.4,120.0000362377723,
,,,0,0,0,0,76,0,76,0,,,,,,,,,,,,,,,,,,,,,,,,,,,,,,,,,,,,,,,,,,,,,,,,,,,,,,,,,,,131,001,2023-03-03_15h01.00.629,eb_01,2022.2.4,120.0000362377723,
5,stimuli/5.png,s,0,0,0,0,77,0,77,0,0,0,0,0,,,,,,,,,,,,,,,,,,237.23786290979479,237.23786290979479,237.23786290979479,237.23786290979479,s,1,0.8897410632343963,238.14628984607407,238.14628984607407,238.14628984607407,,,,,,,,,,,,,,,,,,,,,,,,,,,,131,001,2023-03-03_15h01.00.629,eb_01,2022.2.4,120.0000362377723,
,,,0,0,0,0,77,0,77,0,,,,,,,,,,,,,,,,,,,,,,,,,,,,,,,,,,,,,,,,,,,,,,,,,,,,,,,,,,,131,001,2023-03-03_15h01.00.629,eb_01,2022.2.4,120.0000362377723,
9,stimuli/9.png,l,0,0,0,0,78,0,78,0,0,0,0,0,,,,,,,,,,,,,,,,,,239.16306728875497,239.16306728875497,239.16306728875497,239.16306728875497,l,1,0.9886202427733224,240.17984684443218,240.17984684443218,240.17984684443218,,,,,,,,,,,,,,,,,,,,,,,,,,,,131,001,2023-03-03_15h01.00.629,eb_01,2022.2.4,120.0000362377723,
,,,0,0,0,0,78,0,78,0,,,,,,,,,,,,,,,,,,,,,,,,,,,,,,,,,,,,,,,,,,,,,,,,,,,,,,,,,,,131,001,2023-03-03_15h01.00.629,eb_01,2022.2.4,120.0000362377723,
5,stimuli/5.png,s,0,0,0,0,79,0,79,0,0,0,0,0,,,,,,,,,,,,,,,,,,241.17995098466054,241.17995098466054,241.17995098466054,241.17995098466054,s,1,0.6358058456971776,241.83834781081532,241.83834781081532,241.83834781081532,,,,,,,,,,,,,,,,,,,,,,,,,,,,131,001,2023-03-03_15h01.00.629,eb_01,2022.2.4,120.0000362377723,
,,,0,0,0,0,79,0,79,0,,,,,,,,,,,,,,,,,,,,,,,,,,,,,,,,,,,,,,,,,,,,,,,,,,,,,,,,,,,131,001,2023-03-03_15h01.00.629,eb_01,2022.2.4,120.0000362377723,
6,stimuli/6.png,s,0,0,0,0,80,0,80,0,0,0,0,0,,,,,,,,,,,,,,,,,,242.86345737689408,242.86345737689408,242.86345737689408,242.86345737689408,s,1,0.6873510300356429,243.5802035171364,243.5802035171364,243.5802035171364,,,,,,,,,,,,,,,,,,,,,,,,,,,,131,001,2023-03-03_15h01.00.629,eb_01,2022.2.4,120.0000362377723,
,,,0,0,0,0,80,0,80,0,,,,,,,,,,,,,,,,,,,,,,,,,,,,,,,,,,,,,,,,,,,,,,,,,,,,,,,,,,,131,001,2023-03-03_15h01.00.629,eb_01,2022.2.4,120.0000362377723,
8,stimuli/8.png,l,0,0,0,0,81,0,81,0,0,0,0,0,,,,,,,,,,,,,,,,,,244.58031218522228,244.58031218522228,244.58031218522228,244.58031218522228,l,1,1.106597229896579,245.70541900440003,245.70541900440003,245.70541900440003,,,,,,,,,,,,,,,,,,,,,,,,,,,,131,001,2023-03-03_15h01.00.629,eb_01,2022.2.4,120.0000362377723,
,,,0,0,0,0,81,0,81,0,,,,,,,,,,,,,,,,,,,,,,,,,,,,,,,,,,,,,,,,,,,,,,,,,,,,,,,,,,,131,001,2023-03-03_15h01.00.629,eb_01,2022.2.4,120.0000362377723,
6,stimuli/6.png,s,0,0,0,0,82,0,82,0,0,0,0,0,,,,,,,,,,,,,,,,,,246.73053430573782,246.73053430573782,246.73053430573782,246.73053430573782,s,1,0.6444337876746431,247.4056113770639,247.4056113770639,247.4056113770639,,,,,,,,,,,,,,,,,,,,,,,,,,,,131,001,2023-03-03_15h01.00.629,eb_01,2022.2.4,120.0000362377723,
,,,0,0,0,0,82,0,82,0,,,,,,,,,,,,,,,,,,,,,,,,,,,,,,,,,,,,,,,,,,,,,,,,,,,,,,,,,,,131,001,2023-03-03_15h01.00.629,eb_01,2022.2.4,120.0000362377723,
5,stimuli/5.png,s,0,0,0,0,83,0,83,0,0,0,0,0,,,,,,,,,,,,,,,,,,248.40571853582514,248.40571853582514,248.40571853582514,248.40571853582514,s,1,0.6573317807051353,249.08078383476823,249.08078383476823,249.08078383476823,,,,,,,,,,,,,,,,,,,,,,,,,,,,131,001,2023-03-03_15h01.00.629,eb_01,2022.2.4,120.0000362377723,
,,,0,0,0,0,83,0,83,0,,,,,,,,,,,,,,,,,,,,,,,,,,,,,,,,,,,,,,,,,,,,,,,,,,,,,,,,,,,131,001,2023-03-03_15h01.00.629,eb_01,2022.2.4,120.0000362377723,
9,stimuli/9.png,l,0,0,0,0,84,0,84,0,0,0,0,0,,,,,,,,,,,,,,,,,,250.0975618811499,250.0975618811499,250.0975618811499,250.0975618811499,l,1,1.1095786588266492,251.2393444176705,251.2393444176705,251.2393444176705,,,,,,,,,,,,,,,,,,,,,,,,,,,,131,001,2023-03-03_15h01.00.629,eb_01,2022.2.4,120.0000362377723,
,,,0,0,0,0,84,0,84,0,,,,,,,,,,,,,,,,,,,,,,,,,,,,,,,,,,,,,,,,,,,,,,,,,,,,,,,,,,,131,001,2023-03-03_15h01.00.629,eb_01,2022.2.4,120.0000362377723,
8,stimuli/8.png,l,0,0,0,0,85,0,85,0,0,0,0,0,,,,,,,,,,,,,,,,,,252.2394606321177,252.2394606321177,252.2394606321177,252.2394606321177,l,1,1.5277810416009743,253.78961350693135,253.78961350693135,253.78961350693135,,,,,,,,,,,,,,,,,,,,,,,,,,,,131,001,2023-03-03_15h01.00.629,eb_01,2022.2.4,120.0000362377723,
,,,0,0,0,0,85,0,85,0,,,,,,,,,,,,,,,,,,,,,,,,,,,,,,,,,,,,,,,,,,,,,,,,,,,,,,,,,,,131,001,2023-03-03_15h01.00.629,eb_01,2022.2.4,120.0000362377723,
3,stimuli/3.png,l,0,0,0,0,86,0,86,0,0,0,0,0,,,,,,,,,,,,,,,,,,254.79806184477638,254.79806184477638,254.79806184477638,254.79806184477638,l,1,2.009310339257354,256.82326860842295,256.82326860842295,256.82326860842295,257.83171000357834,257.83171000357834,257.83171000357834,,,,,,,,,,,,,,,,,,,,,,,,,131,001,2023-03-03_15h01.00.629,eb_01,2022.2.4,120.0000362377723,
,,,0,0,0,0,86,0,86,0,,,,,,,,,,,,,,,,,,,,,,,,,,,,,,,,,,,,,,,,,,,,,,,,,,,,,,,,,,,131,001,2023-03-03_15h01.00.629,eb_01,2022.2.4,120.0000362377723,
2,stimuli/2.png,s,0,0,0,0,87,0,87,0,0,0,0,0,,,,,,,,,,,,,,,,,,257.83171000357834,257.83171000357834,257.83171000357834,257.83171000357834,l,0,1.3107479875034187,259.16519386228174,259.16519386228174,259.16519386228174,,,,,,,,,,,,,,,,,,,,,,,,,,,,131,001,2023-03-03_15h01.00.629,eb_01,2022.2.4,120.0000362377723,
,,,0,0,0,0,87,0,87,0,,,,,,,,,,,,,,,,,,,,,,,,,,,,,,,,,,,,,,,,,,,,,,,,,,,,,,,,,,,131,001,2023-03-03_15h01.00.629,eb_01,2022.2.4,120.0000362377723,
4,stimuli/4.png,l,0,0,0,0,88,0,88,0,0,0,0,0,,,,,,,,,,,,,,,,,,260.18196798456484,260.18196798456484,260.18196798456484,260.18196798456484,l,1,1.072565714333905,261.27374721574597,261.27374721574597,261.27374721574597,,,,,,,,,,,,,,,,,,,,,,,,,,,,131,001,2023-03-03_15h01.00.629,eb_01,2022.2.4,120.0000362377723,
,,,0,0,0,0,88,0,88,0,,,,,,,,,,,,,,,,,,,,,,,,,,,,,,,,,,,,,,,,,,,,,,,,,,,,,,,,,,,131,001,2023-03-03_15h01.00.629,eb_01,2022.2.4,120.0000362377723,
2,stimuli/2.png,s,0,0,0,0,89,0,89,0,0,0,0,0,,,,,,,,,,,,,,,,,,262.282192535029,262.282192535029,262.282192535029,262.282192535029,s,1,1.3484558038471732,263.6406700472289,263.6406700472289,263.6406700472289,264.65744356581126,264.65744356581126,264.65744356581126,,,,,,,,,,,,,,,,,,,,,,,,,131,001,2023-03-03_15h01.00.629,eb_01,2022.2.4,120.0000362377723,
,,,0,0,0,0,89,0,89,0,,,,,,,,,,,,,,,,,,,,,,,,,,,,,,,,,,,,,,,,,,,,,,,,,,,,,,,,,,,131,001,2023-03-03_15h01.00.629,eb_01,2022.2.4,120.0000362377723,
4,stimuli/4.png,l,0,0,0,0,90,0,90,0,0,0,0,0,,,,,,,,,,,,,,,,,,264.65744356581126,264.65744356581126,264.65744356581126,264.65744356581126,l,1,0.9412578731135,265.61588769275113,265.61588769275113,265.61588769275113,,,,,,,,,,,,,,,,,,,,,,,,,,,,131,001,2023-03-03_15h01.00.629,eb_01,2022.2.4,120.0000362377723,
,,,0,0,0,0,90,0,90,0,,,,,,,,,,,,,,,,,,,,,,,,,,,,,,,,,,,,,,,,,,,,,,,,,,,,,,,,,,,131,001,2023-03-03_15h01.00.629,eb_01,2022.2.4,120.0000362377723,
2,stimuli/2.png,s,0,0,0,0,91,0,91,0,0,0,0,0,,,,,,,,,,,,,,,,,,266.62432395637734,266.62432395637734,266.62432395637734,266.62432395637734,s,1,1.3424998886766843,267.98281444836175,267.98281444836175,267.98281444836175,269.007904997532,269.007904997532,269.007904997532,,,,,,,,,,,,,,,,,,,,,,,,,131,001,2023-03-03_15h01.00.629,eb_01,2022.2.4,120.0000362377723,
,,,0,0,0,0,91,0,91,0,,,,,,,,,,,,,,,,,,,,,,,,,,,,,,,,,,,,,,,,,,,,,,,,,,,,,,,,,,,131,001,2023-03-03_15h01.00.629,eb_01,2022.2.4,120.0000362377723,
1,stimuli/1.png,s,0,0,0,0,92,0,92,0,0,0,0,0,,,,,,,,,,,,,,,,,,269.007904997532,269.007904997532,269.007904997532,269.007904997532,l,0,1.9750424706726335,271.00812172994483,271.00812172994483,271.00812172994483,,,,,,,,,,,,,,,,,,,,,,,,,,,,131,001,2023-03-03_15h01.00.629,eb_01,2022.2.4,120.0000362377723,
,,,0,0,0,0,92,0,92,0,,,,,,,,,,,,,,,,,,,,,,,,,,,,,,,,,,,,,,,,,,,,,,,,,,,,,,,,,,,131,001,2023-03-03_15h01.00.629,eb_01,2022.2.4,120.0000362377723,
2,stimuli/2.png,s,0,0,0,0,93,0,93,0,0,0,0,0,,,,,,,,,,,,,,,,,,272.00822858687025,272.00822858687025,272.00822858687025,272.00822858687025,s,1,1.3099018859211355,273.34170157878543,273.34170157878543,273.34170157878543,,,,,,,,,,,,,,,,,,,,,,,,,,,,131,001,2023-03-03_15h01.00.629,eb_01,2022.2.4,120.0000362377723,
,,,0,0,0,0,93,0,93,0,,,,,,,,,,,,,,,,,,,,,,,,,,,,,,,,,,,,,,,,,,,,,,,,,,,,,,,,,,,131,001,2023-03-03_15h01.00.629,eb_01,2022.2.4,120.0000362377723,
3,stimuli/3.png,l,0,0,0,0,94,0,94,0,0,0,0,0,,,,,,,,,,,,,,,,,,274.35015414262307,274.35015414262307,274.35015414262307,274.35015414262307,l,1,0.8479648355278187,275.20857022717246,275.20857022717246,275.20857022717246,276.22534978284966,276.22534978284966,276.22534978284966,,,,,,,,,,,,,,,,,,,,,,,,,131,001,2023-03-03_15h01.00.629,eb_01,2022.2.4,120.0000362377723,
,,,0,0,0,0,94,0,94,0,,,,,,,,,,,,,,,,,,,,,,,,,,,,,,,,,,,,,,,,,,,,,,,,,,,,,,,,,,,131,001,2023-03-03_15h01.00.629,eb_01,2022.2.4,120.0000362377723,
4,stimuli/4.png,l,0,0,0,0,95,0,95,0,0,0,0,0,,,,,,,,,,,,,,,,,,276.22534978284966,276.22534978284966,276.22534978284966,276.22534978284966,l,1,1.4928687110659666,277.74217325853533,277.74217325853533,277.74217325853533,,,,,,,,,,,,,,,,,,,,,,,,,,,,131,001,2023-03-03_15h01.00.629,eb_01,2022.2.4,120.0000362377723,
,,,0,0,0,0,95,0,95,0,,,,,,,,,,,,,,,,,,,,,,,,,,,,,,,,,,,,,,,,,,,,,,,,,,,,,,,,,,,131,001,2023-03-03_15h01.00.629,eb_01,2022.2.4,120.0000362377723,
3,stimuli/3.png,l,0,0,0,0,96,0,96,0,0,0,0,0,,,,,,,,,,,,,,,,,,278.75061404998996,278.75061404998996,278.75061404998996,278.75061404998996,l,1,0.935690446262015,279.70904127301765,279.70904127301765,279.70904127301765,,,,,,,,,,,,,,,,,,,,,,,,,,,,131,001,2023-03-03_15h01.00.629,eb_01,2022.2.4,120.0000362377723,
,,,0,0,0,0,96,0,96,0,,,,,,,,,,,,,,,,,,,,,,,,,,,,,,,,,,,,,,,,,,,,,,,,,,,,,,,,,,,131,001,2023-03-03_15h01.00.629,eb_01,2022.2.4,120.0000362377723,
2,stimuli/2.png,s,0,0,0,0,97,0,97,0,0,0,0,0,,,,,,,,,,,,,,,,,,280.7174980628188,280.7174980628188,280.7174980628188,280.7174980628188,s,1,1.7209213100431953,282.45101017525303,282.45101017525303,282.45101017525303,283.4761079689488,283.4761079689488,283.4761079689488,,,,,,,,,,,,,,,,,,,,,,,,,131,001,2023-03-03_15h01.00.629,eb_01,2022.2.4,120.0000362377723,
,,,0,0,0,0,97,0,97,0,,,,,,,,,,,,,,,,,,,,,,,,,,,,,,,,,,,,,,,,,,,,,,,,,,,,,,,,,,,131,001,2023-03-03_15h01.00.629,eb_01,2022.2.4,120.0000362377723,
1,stimuli/1.png,s,0,0,0,0,98,0,98,0,0,0,0,0,,,,,,,,,,,,,,,,,,283.4761079689488,283.4761079689488,283.4761079689488,283.4761079689488,s,1,1.2984051071689464,284.8012584968528,284.8012584968528,284.8012584968528,,,,,,,,,,,,,,,,,,,,,,,,,,,,131,001,2023-03-03_15h01.00.629,eb_01,2022.2.4,120.0000362377723,
,,,0,0,0,0,98,0,98,0,,,,,,,,,,,,,,,,,,,,,,,,,,,,,,,,,,,,,,,,,,,,,,,,,,,,,,,,,,,131,001,2023-03-03_15h01.00.629,eb_01,2022.2.4,120.0000362377723,
4,stimuli/4.png,l,0,0,0,0,99,0,99,0,0,0,0,0,,,,,,,,,,,,,,,,,,285.8097050235665,285.8097050235665,285.8097050235665,285.8097050235665,l,1,0.9648886480426881,286.7931400873058,286.7931400873058,286.7931400873058,,,,,,,,,,,,,,,,,,,,,,,,,,,,131,001,2023-03-03_15h01.00.629,eb_01,2022.2.4,120.0000362377723,
,,,0,0,0,0,99,0,99,0,,,,,,,,,,,,,,,,,,,,,,,,,,,,,,,,,,,,,,,,,,,,,,,,,,,,,,,,,,,131,001,2023-03-03_15h01.00.629,eb_01,2022.2.4,120.0000362377723,
,,,0,0,0,0,,,,,,,,,,,,,,,,,,,,,,,,,,,,,,,,,,,,,,,287.7932351718482,287.7932351718482,return,14.573000839358428,,,,,,,,,,,,,,,,,,,,,131,001,2023-03-03_15h01.00.629,eb_01,2022.2.4,120.0000362377723,
3,stimuli/3.png,l,1,0,1,0,0,0,0,0,0,0,0,0,,,,,,,,,,,,,,,,,,302.38646406511543,302.38646406511543,302.38646406511543,302.38646406511543,l,1,1.7388442951778416,304.1449837163673,304.1449837163673,304.1449837163673,,,,,,,,,,,,,,,,,,,,,,,,,,,,131,001,2023-03-03_15h01.00.629,eb_01,2022.2.4,120.0000362377723,
,,,1,0,1,0,0,0,0,0,,,,,,,,,,,,,,,,,,,,,,,,,,,,,,,,,,,,,,,,,,,,,,,,,,,,,,,,,,,131,001,2023-03-03_15h01.00.629,eb_01,2022.2.4,120.0000362377723,
4,stimuli/4.png,l,1,0,1,0,1,0,1,0,0,0,0,0,,,,,,,,,,,,,,,,,,305.16176206464297,305.16176206464297,305.16176206464297,305.16176206464297,l,1,1.1956612688663881,306.3785705380724,306.3785705380724,306.3785705380724,,,,,,,,,,,,,,,,,,,,,,,,,,,,131,001,2023-03-03_15h01.00.629,eb_01,2022.2.4,120.0000362377723,
,,,1,0,1,0,1,0,1,0,,,,,,,,,,,,,,,,,,,,,,,,,,,,,,,,,,,,,,,,,,,,,,,,,,,,,,,,,,,131,001,2023-03-03_15h01.00.629,eb_01,2022.2.4,120.0000362377723,
3,stimuli/3.png,l,1,0,1,0,2,0,2,0,0,0,0,0,,,,,,,,,,,,,,,,,,307.3870016701694,307.3870016701694,307.3870016701694,307.3870016701694,l,1,1.0264720442937687,308.4287706533214,308.4287706533214,308.4287706533214,309.43722110416275,309.43722110416275,309.43722110416275,,,,,,,,,,,,,,,,,,,,,,,,,131,001,2023-03-03_15h01.00.629,eb_01,2022.2.4,120.0000362377723,
,,,1,0,1,0,2,0,2,0,,,,,,,,,,,,,,,,,,,,,,,,,,,,,,,,,,,,,,,,,,,,,,,,,,,,,,,,,,,131,001,2023-03-03_15h01.00.629,eb_01,2022.2.4,120.0000362377723,
2,stimuli/2.png,s,1,0,1,0,3,0,3,0,0,0,0,0,,,,,,,,,,,,,,,,,,309.43722110416275,309.43722110416275,309.43722110416275,309.43722110416275,s,1,0.8803361446189228,310.3289768509858,310.3289768509858,310.3289768509858,311.3540873226302,311.3540873226302,311.3540873226302,,,,,,,,,,,,,,,,,,,,,,,,,131,001,2023-03-03_15h01.00.629,eb_01,2022.2.4,120.0000362377723,
,,,1,0,1,0,3,0,3,0,,,,,,,,,,,,,,,,,,,,,,,,,,,,,,,,,,,,,,,,,,,,,,,,,,,,,,,,,,,131,001,2023-03-03_15h01.00.629,eb_01,2022.2.4,120.0000362377723,
1,stimuli/1.png,s,1,0,1,0,4,0,4,0,0,0,0,0,,,,,,,,,,,,,,,,,,311.3540873226302,311.3540873226302,311.3540873226302,311.3540873226302,l,0,1.2595589929260314,312.6458990938554,312.6458990938554,312.6458990938554,,,,,,,,,,,,,,,,,,,,,,,,,,,,131,001,2023-03-03_15h01.00.629,eb_01,2022.2.4,120.0000362377723,
,,,1,0,1,0,4,0,4,0,,,,,,,,,,,,,,,,,,,,,,,,,,,,,,,,,,,,,,,,,,,,,,,,,,,,,,,,,,,131,001,2023-03-03_15h01.00.629,eb_01,2022.2.4,120.0000362377723,
2,stimuli/2.png,s,1,0,1,0,5,0,5,0,0,0,0,0,,,,,,,,,,,,,,,,,,313.6459996117919,313.6459996117919,313.6459996117919,313.6459996117919,s,1,1.1997441693383735,314.86281140567735,314.86281140567735,314.86281140567735,,,,,,,,,,,,,,,,,,,,,,,,,,,,131,001,2023-03-03_15h01.00.629,eb_01,2022.2.4,120.0000362377723,
,,,1,0,1,0,5,0,5,0,,,,,,,,,,,,,,,,,,,,,,,,,,,,,,,,,,,,,,,,,,,,,,,,,,,,,,,,,,,131,001,2023-03-03_15h01.00.629,eb_01,2022.2.4,120.0000362377723,
4,stimuli/4.png,l,1,0,1,0,6,0,6,0,0,0,0,0,,,,,,,,,,,,,,,,,,315.8795734537125,315.8795734537125,315.8795734537125,315.8795734537125,l,1,1.0222536106302869,316.9213542092475,316.9213542092475,316.9213542092475,,,,,,,,,,,,,,,,,,,,,,,,,,,,131,001,2023-03-03_15h01.00.629,eb_01,2022.2.4,120.0000362377723,
,,,1,0,1,0,6,0,6,0,,,,,,,,,,,,,,,,,,,,,,,,,,,,,,,,,,,,,,,,,,,,,,,,,,,,,,,,,,,131,001,2023-03-03_15h01.00.629,eb_01,2022.2.4,120.0000362377723,
3,stimuli/3.png,l,1,0,1,0,7,0,7,0,0,0,0,0,,,,,,,,,,,,,,,,,,317.92979258587,317.92979258587,317.92979258587,317.92979258587,l,1,0.7401160133013036,318.67988231248455,318.67988231248455,318.67988231248455,319.69664798278245,319.69664798278245,319.69664798278245,,,,,,,,,,,,,,,,,,,,,,,,,131,001,2023-03-03_15h01.00.629,eb_01,2022.2.4,120.0000362377723,
,,,1,0,1,0,7,0,7,0,,,,,,,,,,,,,,,,,,,,,,,,,,,,,,,,,,,,,,,,,,,,,,,,,,,,,,,,,,,131,001,2023-03-03_15h01.00.629,eb_01,2022.2.4,120.0000362377723,
4,stimuli/4.png,l,1,0,1,0,8,0,8,0,0,0,0,0,,,,,,,,,,,,,,,,,,319.69664798278245,319.69664798278245,319.69664798278245,319.69664798278245,l,1,2.276372054562671,321.9968990361958,321.9968990361958,321.9968990361958,,,,,,,,,,,,,,,,,,,,,,,,,,,,131,001,2023-03-03_15h01.00.629,eb_01,2022.2.4,120.0000362377723,
,,,1,0,1,0,8,0,8,0,,,,,,,,,,,,,,,,,,,,,,,,,,,,,,,,,,,,,,,,,,,,,,,,,,,,,,,,,,,131,001,2023-03-03_15h01.00.629,eb_01,2022.2.4,120.0000362377723,
2,stimuli/2.png,s,1,0,1,0,9,0,9,0,0,0,0,0,,,,,,,,,,,,,,,,,,323.0053349979571,323.0053349979571,323.0053349979571,323.0053349979571,s,1,1.223767356656026,324.238796851394,324.238796851394,324.238796851394,325.24726662097964,325.24726662097964,325.24726662097964,,,,,,,,,,,,,,,,,,,,,,,,,131,001,2023-03-03_15h01.00.629,eb_01,2022.2.4,120.0000362377723,
,,,1,0,1,0,9,0,9,0,,,,,,,,,,,,,,,,,,,,,,,,,,,,,,,,,,,,,,,,,,,,,,,,,,,,,,,,,,,131,001,2023-03-03_15h01.00.629,eb_01,2022.2.4,120.0000362377723,
3,stimuli/3.png,l,1,0,1,0,10,0,10,0,0,0,0,0,,,,,,,,,,,,,,,,,,325.24726662097964,325.24726662097964,325.24726662097964,325.24726662097964,l,1,0.6539289611682761,325.91398017591564,325.91398017591564,325.91398017591564,326.92242277850164,326.92242277850164,326.92242277850164,,,,,,,,,,,,,,,,,,,,,,,,,131,001,2023-03-03_15h01.00.629,eb_01,2022.2.4,120.0000362377723,
,,,1,0,1,0,10,0,10,0,,,,,,,,,,,,,,,,,,,,,,,,,,,,,,,,,,,,,,,,,,,,,,,,,,,,,,,,,,,131,001,2023-03-03_15h01.00.629,eb_01,2022.2.4,120.0000362377723,
8,stimuli/8.png,l,1,0,1,0,11,0,11,0,0,0,0,0,,,,,,,,,,,,,,,,,,326.92242277850164,326.92242277850164,326.92242277850164,326.92242277850164,l,1,0.7628475600213278,327.705827717029,327.705827717029,327.705827717029,,,,,,,,,,,,,,,,,,,,,,,,,,,,131,001,2023-03-03_15h01.00.629,eb_01,2022.2.4,120.0000362377723,
,,,1,0,1,0,11,0,11,0,,,,,,,,,,,,,,,,,,,,,,,,,,,,,,,,,,,,,,,,,,,,,,,,,,,,,,,,,,,131,001,2023-03-03_15h01.00.629,eb_01,2022.2.4,120.0000362377723,
6,stimuli/6.png,s,1,0,1,0,12,0,12,0,0,0,0,0,,,,,,,,,,,,,,,,,,328.7309460369288,328.7309460369288,328.7309460369288,328.7309460369288,s,1,0.7383734002651181,329.4976966899412,329.4976966899412,329.4976966899412,,,,,,,,,,,,,,,,,,,,,,,,,,,,131,001,2023-03-03_15h01.00.629,eb_01,2022.2.4,120.0000362377723,
,,,1,0,1,0,12,0,12,0,,,,,,,,,,,,,,,,,,,,,,,,,,,,,,,,,,,,,,,,,,,,,,,,,,,,,,,,,,,131,001,2023-03-03_15h01.00.629,eb_01,2022.2.4,120.0000362377723,
5,stimuli/5.png,s,1,0,1,0,13,0,13,0,0,0,0,0,,,,,,,,,,,,,,,,,,330.4978041505674,330.4978041505674,330.4978041505674,330.4978041505674,s,1,0.531607666547643,331.0478583185759,331.0478583185759,331.0478583185759,,,,,,,,,,,,,,,,,,,,,,,,,,,,131,001,2023-03-03_15h01.00.629,eb_01,2022.2.4,120.0000362377723,
,,,1,0,1,0,13,0,13,0,,,,,,,,,,,,,,,,,,,,,,,,,,,,,,,,,,,,,,,,,,,,,,,,,,,,,,,,,,,131,001,2023-03-03_15h01.00.629,eb_01,2022.2.4,120.0000362377723,
9,stimuli/9.png,l,1,0,1,0,14,0,14,0,0,0,0,0,,,,,,,,,,,,,,,,,,332.0646366668225,332.0646366668225,332.0646366668225,332.0646366668225,l,1,1.332867068995256,333.4231135753216,333.4231135753216,333.4231135753216,,,,,,,,,,,,,,,,,,,,,,,,,,,,131,001,2023-03-03_15h01.00.629,eb_01,2022.2.4,120.0000362377723,
,,,1,0,1,0,14,0,14,0,,,,,,,,,,,,,,,,,,,,,,,,,,,,,,,,,,,,,,,,,,,,,,,,,,,,,,,,,,,131,001,2023-03-03_15h01.00.629,eb_01,2022.2.4,120.0000362377723,
6,stimuli/6.png,s,1,0,1,0,15,0,15,0,0,0,0,0,,,,,,,,,,,,,,,,,,334.43988799944054,334.43988799944054,334.43988799944054,334.43988799944054,s,1,0.6126879236544482,335.08162842705497,335.08162842705497,335.08162842705497,,,,,,,,,,,,,,,,,,,,,,,,,,,,131,001,2023-03-03_15h01.00.629,eb_01,2022.2.4,120.0000362377723,
,,,1,0,1,0,15,0,15,0,,,,,,,,,,,,,,,,,,,,,,,,,,,,,,,,,,,,,,,,,,,,,,,,,,,,,,,,,,,131,001,2023-03-03_15h01.00.629,eb_01,2022.2.4,120.0000362377723,
5,stimuli/5.png,s,1,0,1,0,16,0,16,0,0,0,0,0,,,,,,,,,,,,,,,,,,336.08174766006414,336.08174766006414,336.08174766006414,336.08174766006414,s,1,0.6508841425238643,336.7567879050039,336.7567879050039,336.7567879050039,,,,,,,,,,,,,,,,,,,,,,,,,,,,131,001,2023-03-03_15h01.00.629,eb_01,2022.2.4,120.0000362377723,
,,,1,0,1,0,16,0,16,0,,,,,,,,,,,,,,,,,,,,,,,,,,,,,,,,,,,,,,,,,,,,,,,,,,,,,,,,,,,131,001,2023-03-03_15h01.00.629,eb_01,2022.2.4,120.0000362377723,
6,stimuli/6.png,s,1,0,1,0,17,0,17,0,0,0,0,0,,,,,,,,,,,,,,,,,,337.7819119601336,337.7819119601336,337.7819119601336,337.7819119601336,s,1,0.734819954726845,338.54867468736484,338.54867468736484,338.54867468736484,,,,,,,,,,,,,,,,,,,,,,,,,,,,131,001,2023-03-03_15h01.00.629,eb_01,2022.2.4,120.0000362377723,
,,,1,0,1,0,17,0,17,0,,,,,,,,,,,,,,,,,,,,,,,,,,,,,,,,,,,,,,,,,,,,,,,,,,,,,,,,,,,131,001,2023-03-03_15h01.00.629,eb_01,2022.2.4,120.0000362377723,
5,stimuli/5.png,s,1,0,1,0,18,0,18,0,0,0,0,0,,,,,,,,,,,,,,,,,,339.54878275172086,339.54878275172086,339.54878275172086,339.54878275172086,s,1,0.5279995851451531,340.0988157898246,340.0988157898246,340.0988157898246,,,,,,,,,,,,,,,,,,,,,,,,,,,,131,001,2023-03-03_15h01.00.629,eb_01,2022.2.4,120.0000362377723,
,,,1,0,1,0,18,0,18,0,,,,,,,,,,,,,,,,,,,,,,,,,,,,,,,,,,,,,,,,,,,,,,,,,,,,,,,,,,,131,001,2023-03-03_15h01.00.629,eb_01,2022.2.4,120.0000362377723,
9,stimuli/9.png,l,1,0,1,0,19,0,19,0,0,0,0,0,,,,,,,,,,,,,,,,,,341.1156050048885,341.1156050048885,341.1156050048885,341.1156050048885,l,1,0.737216085428372,341.8823472059157,341.8823472059157,341.8823472059157,,,,,,,,,,,,,,,,,,,,,,,,,,,,131,001,2023-03-03_15h01.00.629,eb_01,2022.2.4,120.0000362377723,
,,,1,0,1,0,19,0,19,0,,,,,,,,,,,,,,,,,,,,,,,,,,,,,,,,,,,,,,,,,,,,,,,,,,,,,,,,,,,131,001,2023-03-03_15h01.00.629,eb_01,2022.2.4,120.0000362377723,
8,stimuli/8.png,l,1,0,1,0,20,0,20,0,0,0,0,0,,,,,,,,,,,,,,,,,,342.8824622129323,342.8824622129323,342.8824622129323,342.8824622129323,l,1,0.562457320978865,343.465866004437,343.465866004437,343.465866004437,,,,,,,,,,,,,,,,,,,,,,,,,,,,131,001,2023-03-03_15h01.00.629,eb_01,2022.2.4,120.0000362377723,
,,,1,0,1,0,20,0,20,0,,,,,,,,,,,,,,,,,,,,,,,,,,,,,,,,,,,,,,,,,,,,,,,,,,,,,,,,,,,131,001,2023-03-03_15h01.00.629,eb_01,2022.2.4,120.0000362377723,
9,stimuli/9.png,l,1,0,1,0,21,0,21,0,0,0,0,0,,,,,,,,,,,,,,,,,,344.48262412834447,344.48262412834447,344.48262412834447,344.48262412834447,l,1,0.7143671168305445,345.22437509073643,345.22437509073643,345.22437509073643,,,,,,,,,,,,,,,,,,,,,,,,,,,,131,001,2023-03-03_15h01.00.629,eb_01,2022.2.4,120.0000362377723,
,,,1,0,1,0,21,0,21,0,,,,,,,,,,,,,,,,,,,,,,,,,,,,,,,,,,,,,,,,,,,,,,,,,,,,,,,,,,,131,001,2023-03-03_15h01.00.629,eb_01,2022.2.4,120.0000362377723,
5,stimuli/5.png,s,1,0,1,0,22,0,22,0,0,0,0,0,,,,,,,,,,,,,,,,,,346.2244858717895,346.2244858717895,346.2244858717895,346.2244858717895,s,1,0.9005828150839079,347.14957765856525,347.14957765856525,347.14957765856525,,,,,,,,,,,,,,,,,,,,,,,,,,,,131,001,2023-03-03_15h01.00.629,eb_01,2022.2.4,120.0000362377723,
,,,1,0,1,0,22,0,22,0,,,,,,,,,,,,,,,,,,,,,,,,,,,,,,,,,,,,,,,,,,,,,,,,,,,,,,,,,,,131,001,2023-03-03_15h01.00.629,eb_01,2022.2.4,120.0000362377723,
6,stimuli/6.png,s,1,0,1,0,23,0,23,0,0,0,0,0,,,,,,,,,,,,,,,,,,348.1746935636038,348.1746935636038,348.1746935636038,348.1746935636038,s,1,0.6064461510977708,348.8080946232949,348.8080946232949,348.8080946232949,,,,,,,,,,,,,,,,,,,,,,,,,,,,131,001,2023-03-03_15h01.00.629,eb_01,2022.2.4,120.0000362377723,
,,,1,0,1,0,23,0,23,0,,,,,,,,,,,,,,,,,,,,,,,,,,,,,,,,,,,,,,,,,,,,,,,,,,,,,,,,,,,131,001,2023-03-03_15h01.00.629,eb_01,2022.2.4,120.0000362377723,
8,stimuli/8.png,l,1,0,1,0,24,0,24,0,0,0,0,0,,,,,,,,,,,,,,,,,,349.8082035932166,349.8082035932166,349.8082035932166,349.8082035932166,l,1,0.7490056642272975,350.5749476053752,350.5749476053752,350.5749476053752,,,,,,,,,,,,,,,,,,,,,,,,,,,,131,001,2023-03-03_15h01.00.629,eb_01,2022.2.4,120.0000362377723,
,,,1,0,1,0,24,0,24,0,,,,,,,,,,,,,,,,,,,,,,,,,,,,,,,,,,,,,,,,,,,,,,,,,,,,,,,,,,,131,001,2023-03-03_15h01.00.629,eb_01,2022.2.4,120.0000362377723,
3,stimuli/3.png,l,1,0,1,0,25,0,25,0,0,0,0,0,,,,,,,,,,,,,,,,,,351.5833974525158,351.5833974525158,351.5833974525158,351.5833974525158,l,1,0.7568738353729714,352.3501408609445,352.3501408609445,352.3501408609445,353.3669134739612,353.3669134739612,353.3669134739612,,,,,,,,,,,,,,,,,,,,,,,,,131,001,2023-03-03_15h01.00.629,eb_01,2022.2.4,120.0000362377723,
,,,1,0,1,0,25,0,25,0,,,,,,,,,,,,,,,,,,,,,,,,,,,,,,,,,,,,,,,,,,,,,,,,,,,,,,,,,,,131,001,2023-03-03_15h01.00.629,eb_01,2022.2.4,120.0000362377723,
4,stimuli/4.png,l,1,0,1,0,26,0,26,0,0,0,0,0,,,,,,,,,,,,,,,,,,353.3669134739612,353.3669134739612,353.3669134739612,353.3669134739612,l,1,0.6054436882550362,353.99198814551346,353.99198814551346,353.99198814551346,,,,,,,,,,,,,,,,,,,,,,,,,,,,131,001,2023-03-03_15h01.00.629,eb_01,2022.2.4,120.0000362377723,
,,,1,0,1,0,26,0,26,0,,,,,,,,,,,,,,,,,,,,,,,,,,,,,,,,,,,,,,,,,,,,,,,,,,,,,,,,,,,131,001,2023-03-03_15h01.00.629,eb_01,2022.2.4,120.0000362377723,
1,stimuli/1.png,s,1,0,1,0,27,0,27,0,0,0,0,0,,,,,,,,,,,,,,,,,,355.01709076890256,355.01709076890256,355.01709076890256,355.01709076890256,s,1,0.5073188461537939,355.55050302745076,355.55050302745076,355.55050302745076,,,,,,,,,,,,,,,,,,,,,,,,,,,,131,001,2023-03-03_15h01.00.629,eb_01,2022.2.4,120.0000362377723,
,,,1,0,1,0,27,0,27,0,,,,,,,,,,,,,,,,,,,,,,,,,,,,,,,,,,,,,,,,,,,,,,,,,,,,,,,,,,,131,001,2023-03-03_15h01.00.629,eb_01,2022.2.4,120.0000362377723,
4,stimuli/4.png,l,1,0,1,0,28,0,28,0,0,0,0,0,,,,,,,,,,,,,,,,,,356.5589202741685,356.5589202741685,356.5589202741685,356.5589202741685,l,1,0.8375637930294033,357.4173526589293,357.4173526589293,357.4173526589293,,,,,,,,,,,,,,,,,,,,,,,,,,,,131,001,2023-03-03_15h01.00.629,eb_01,2022.2.4,120.0000362377723,
,,,1,0,1,0,28,0,28,0,,,,,,,,,,,,,,,,,,,,,,,,,,,,,,,,,,,,,,,,,,,,,,,,,,,,,,,,,,,131,001,2023-03-03_15h01.00.629,eb_01,2022.2.4,120.0000362377723,
3,stimuli/3.png,l,1,0,1,0,29,0,29,0,0,0,0,0,,,,,,,,,,,,,,,,,,358.42579556338023,358.42579556338023,358.42579556338023,358.42579556338023,l,1,0.6027583797695115,359.0425375078339,359.0425375078339,359.0425375078339,360.05096652690554,360.05096652690554,360.05096652690554,,,,,,,,,,,,,,,,,,,,,,,,,131,001,2023-03-03_15h01.00.629,eb_01,2022.2.4,120.0000362377723,
,,,1,0,1,0,29,0,29,0,,,,,,,,,,,,,,,,,,,,,,,,,,,,,,,,,,,,,,,,,,,,,,,,,,,,,,,,,,,131,001,2023-03-03_15h01.00.629,eb_01,2022.2.4,120.0000362377723,
2,stimuli/2.png,s,1,0,1,0,30,0,30,0,0,0,0,0,,,,,,,,,,,,,,,,,,360.05096652690554,360.05096652690554,360.05096652690554,360.05096652690554,s,1,0.8176612380775623,360.8843865431263,360.8843865431263,360.8843865431263,361.90116096727434,361.90116096727434,361.90116096727434,,,,,,,,,,,,,,,,,,,,,,,,,131,001,2023-03-03_15h01.00.629,eb_01,2022.2.4,120.0000362377723,
,,,1,0,1,0,30,0,30,0,,,,,,,,,,,,,,,,,,,,,,,,,,,,,,,,,,,,,,,,,,,,,,,,,,,,,,,,,,,131,001,2023-03-03_15h01.00.629,eb_01,2022.2.4,120.0000362377723,
4,stimuli/4.png,l,1,0,1,0,31,0,31,0,0,0,0,0,,,,,,,,,,,,,,,,,,361.90116096727434,361.90116096727434,361.90116096727434,361.90116096727434,l,1,0.5755207308975514,362.50122628884856,362.50122628884856,362.50122628884856,,,,,,,,,,,,,,,,,,,,,,,,,,,,131,001,2023-03-03_15h01.00.629,eb_01,2022.2.4,120.0000362377723,
,,,1,0,1,0,31,0,31,0,,,,,,,,,,,,,,,,,,,,,,,,,,,,,,,,,,,,,,,,,,,,,,,,,,,,,,,,,,,131,001,2023-03-03_15h01.00.629,eb_01,2022.2.4,120.0000362377723,
3,stimuli/3.png,l,1,0,1,0,32,0,32,0,0,0,0,0,,,,,,,,,,,,,,,,,,363.509667382139,363.509667382139,363.509667382139,363.509667382139,l,1,1.1751387022959534,364.7014571480977,364.7014571480977,364.7014571480977,,,,,,,,,,,,,,,,,,,,,,,,,,,,131,001,2023-03-03_15h01.00.629,eb_01,2022.2.4,120.0000362377723,
,,,1,0,1,0,32,0,32,0,,,,,,,,,,,,,,,,,,,,,,,,,,,,,,,,,,,,,,,,,,,,,,,,,,,,,,,,,,,131,001,2023-03-03_15h01.00.629,eb_01,2022.2.4,120.0000362377723,
2,stimuli/2.png,s,1,0,1,0,33,0,33,0,0,0,0,0,,,,,,,,,,,,,,,,,,365.7099103156361,365.7099103156361,365.7099103156361,365.7099103156361,s,1,1.6539811822003685,367.3767458202783,367.3767458202783,367.3767458202783,368.3935223573935,368.3935223573935,368.3935223573935,,,,,,,,,,,,,,,,,,,,,,,,,131,001,2023-03-03_15h01.00.629,eb_01,2022.2.4,120.0000362377723,
,,,1,0,1,0,33,0,33,0,,,,,,,,,,,,,,,,,,,,,,,,,,,,,,,,,,,,,,,,,,,,,,,,,,,,,,,,,,,131,001,2023-03-03_15h01.00.629,eb_01,2022.2.4,120.0000362377723,
4,stimuli/4.png,l,1,0,1,0,34,0,34,0,0,0,0,0,,,,,,,,,,,,,,,,,,368.3935223573935,368.3935223573935,368.3935223573935,368.3935223573935,l,1,0.6344499098195229,369.0519415208837,369.0519415208837,369.0519415208837,,,,,,,,,,,,,,,,,,,,,,,,,,,,131,001,2023-03-03_15h01.00.629,eb_01,2022.2.4,120.0000362377723,
,,,1,0,1,0,34,0,34,0,,,,,,,,,,,,,,,,,,,,,,,,,,,,,,,,,,,,,,,,,,,,,,,,,,,,,,,,,,,131,001,2023-03-03_15h01.00.629,eb_01,2022.2.4,120.0000362377723,
3,stimuli/3.png,l,1,0,1,0,35,0,35,0,0,0,0,0,,,,,,,,,,,,,,,,,,370.06036842695903,370.06036842695903,370.06036842695903,370.06036842695903,l,1,0.607668666751124,370.68543283542385,370.68543283542385,370.68543283542385,,,,,,,,,,,,,,,,,,,,,,,,,,,,131,001,2023-03-03_15h01.00.629,eb_01,2022.2.4,120.0000362377723,
,,,1,0,1,0,35,0,35,0,,,,,,,,,,,,,,,,,,,,,,,,,,,,,,,,,,,,,,,,,,,,,,,,,,,,,,,,,,,131,001,2023-03-03_15h01.00.629,eb_01,2022.2.4,120.0000362377723,
8,stimuli/8.png,l,1,0,1,0,36,0,36,0,0,0,0,0,,,,,,,,,,,,,,,,,,371.69387875843677,371.69387875843677,371.69387875843677,371.69387875843677,l,1,0.7742281243263278,372.4856294038764,372.4856294038764,372.4856294038764,,,,,,,,,,,,,,,,,,,,,,,,,,,,131,001,2023-03-03_15h01.00.629,eb_01,2022.2.4,120.0000362377723,
,,,1,0,1,0,36,0,36,0,,,,,,,,,,,,,,,,,,,,,,,,,,,,,,,,,,,,,,,,,,,,,,,,,,,,,,,,,,,131,001,2023-03-03_15h01.00.629,eb_01,2022.2.4,120.0000362377723,
6,stimuli/6.png,s,1,0,1,0,37,0,37,0,0,0,0,0,,,,,,,,,,,,,,,,,,373.5107332346961,373.5107332346961,373.5107332346961,373.5107332346961,s,1,0.5174346350249834,374.06079645836144,374.06079645836144,374.06079645836144,,,,,,,,,,,,,,,,,,,,,,,,,,,,131,001,2023-03-03_15h01.00.629,eb_01,2022.2.4,120.0000362377723,
,,,1,0,1,0,37,0,37,0,,,,,,,,,,,,,,,,,,,,,,,,,,,,,,,,,,,,,,,,,,,,,,,,,,,,,,,,,,,131,001,2023-03-03_15h01.00.629,eb_01,2022.2.4,120.0000362377723,
8,stimuli/8.png,l,1,0,1,0,38,0,38,0,0,0,0,0,,,,,,,,,,,,,,,,,,375.06090663571376,375.06090663571376,375.06090663571376,375.06090663571376,l,1,0.5593394532625098,375.64432219957234,375.64432219957234,375.64432219957234,,,,,,,,,,,,,,,,,,,,,,,,,,,,131,001,2023-03-03_15h01.00.629,eb_01,2022.2.4,120.0000362377723,
,,,1,0,1,0,38,0,38,0,,,,,,,,,,,,,,,,,,,,,,,,,,,,,,,,,,,,,,,,,,,,,,,,,,,,,,,,,,,131,001,2023-03-03_15h01.00.629,eb_01,2022.2.4,120.0000362377723,
3,stimuli/3.png,l,1,0,1,0,39,0,39,0,0,0,0,0,,,,,,,,,,,,,,,,,,376.6527409555565,376.6527409555565,376.6527409555565,376.6527409555565,l,1,0.6555674340052065,377.319470508839,377.319470508839,377.319470508839,378.32791341328993,378.32791341328993,378.32791341328993,,,,,,,,,,,,,,,,,,,,,,,,,131,001,2023-03-03_15h01.00.629,eb_01,2022.2.4,120.0000362377723,
,,,1,0,1,0,39,0,39,0,,,,,,,,,,,,,,,,,,,,,,,,,,,,,,,,,,,,,,,,,,,,,,,,,,,,,,,,,,,131,001,2023-03-03_15h01.00.629,eb_01,2022.2.4,120.0000362377723,
8,stimuli/8.png,l,1,0,1,0,40,0,40,0,0,0,0,0,,,,,,,,,,,,,,,,,,378.32791341328993,378.32791341328993,378.32791341328993,378.32791341328993,l,1,0.5884591725480277,378.9363259510428,378.9363259510428,378.9363259510428,,,,,,,,,,,,,,,,,,,,,,,,,,,,131,001,2023-03-03_15h01.00.629,eb_01,2022.2.4,120.0000362377723,
,,,1,0,1,0,40,0,40,0,,,,,,,,,,,,,,,,,,,,,,,,,,,,,,,,,,,,,,,,,,,,,,,,,,,,,,,,,,,131,001,2023-03-03_15h01.00.629,eb_01,2022.2.4,120.0000362377723,
9,stimuli/9.png,l,1,0,1,0,41,0,41,0,0,0,0,0,,,,,,,,,,,,,,,,,,379.9614285744319,379.9614285744319,379.9614285744319,379.9614285744319,l,1,0.5630112261860631,380.55315694291494,380.55315694291494,380.55315694291494,,,,,,,,,,,,,,,,,,,,,,,,,,,,131,001,2023-03-03_15h01.00.629,eb_01,2022.2.4,120.0000362377723,
,,,1,0,1,0,41,0,41,0,,,,,,,,,,,,,,,,,,,,,,,,,,,,,,,,,,,,,,,,,,,,,,,,,,,,,,,,,,,131,001,2023-03-03_15h01.00.629,eb_01,2022.2.4,120.0000362377723,
8,stimuli/8.png,l,1,0,1,0,42,0,42,0,0,0,0,0,,,,,,,,,,,,,,,,,,381.5532656109717,381.5532656109717,381.5532656109717,381.5532656109717,l,1,0.7462910757458303,382.32000147303916,382.32000147303916,382.32000147303916,,,,,,,,,,,,,,,,,,,,,,,,,,,,131,001,2023-03-03_15h01.00.629,eb_01,2022.2.4,120.0000362377723,
,,,1,0,1,0,42,0,42,0,,,,,,,,,,,,,,,,,,,,,,,,,,,,,,,,,,,,,,,,,,,,,,,,,,,,,,,,,,,131,001,2023-03-03_15h01.00.629,eb_01,2022.2.4,120.0000362377723,
6,stimuli/6.png,s,1,0,1,0,43,0,43,0,0,0,0,0,,,,,,,,,,,,,,,,,,383.3451191892382,383.3451191892382,383.3451191892382,383.3451191892382,s,1,1.1064776950224768,384.4785840914119,384.4785840914119,384.4785840914119,,,,,,,,,,,,,,,,,,,,,,,,,,,,131,001,2023-03-03_15h01.00.629,eb_01,2022.2.4,120.0000362377723,
,,,1,0,1,0,43,0,43,0,,,,,,,,,,,,,,,,,,,,,,,,,,,,,,,,,,,,,,,,,,,,,,,,,,,,,,,,,,,131,001,2023-03-03_15h01.00.629,eb_01,2022.2.4,120.0000362377723,
9,stimuli/9.png,l,1,0,1,0,44,0,44,0,0,0,0,0,,,,,,,,,,,,,,,,,,385.48701884574257,385.48701884574257,385.48701884574257,385.48701884574257,l,1,0.4846494817174971,386.0037469350209,386.0037469350209,386.0037469350209,,,,,,,,,,,,,,,,,,,,,,,,,,,,131,001,2023-03-03_15h01.00.629,eb_01,2022.2.4,120.0000362377723,
,,,1,0,1,0,44,0,44,0,,,,,,,,,,,,,,,,,,,,,,,,,,,,,,,,,,,,,,,,,,,,,,,,,,,,,,,,,,,131,001,2023-03-03_15h01.00.629,eb_01,2022.2.4,120.0000362377723,
6,stimuli/6.png,s,1,0,1,0,45,0,45,0,0,0,0,0,,,,,,,,,,,,,,,,,,387.0205113979173,387.0205113979173,387.0205113979173,387.0205113979173,s,1,0.5192186022759415,387.5705761308782,387.5705761308782,387.5705761308782,,,,,,,,,,,,,,,,,,,,,,,,,,,,131,001,2023-03-03_15h01.00.629,eb_01,2022.2.4,120.0000362377723,
,,,1,0,1,0,45,0,45,0,,,,,,,,,,,,,,,,,,,,,,,,,,,,,,,,,,,,,,,,,,,,,,,,,,,,,,,,,,,131,001,2023-03-03_15h01.00.629,eb_01,2022.2.4,120.0000362377723,
5,stimuli/5.png,s,1,0,1,0,46,0,46,0,0,0,0,0,,,,,,,,,,,,,,,,,,388.5706742339826,388.5706742339826,388.5706742339826,388.5706742339826,s,1,0.6171602179529145,389.21241315233056,389.21241315233056,389.21241315233056,,,,,,,,,,,,,,,,,,,,,,,,,,,,131,001,2023-03-03_15h01.00.629,eb_01,2022.2.4,120.0000362377723,
,,,1,0,1,0,46,0,46,0,,,,,,,,,,,,,,,,,,,,,,,,,,,,,,,,,,,,,,,,,,,,,,,,,,,,,,,,,,,131,001,2023-03-03_15h01.00.629,eb_01,2022.2.4,120.0000362377723,
9,stimuli/9.png,l,1,0,1,0,47,0,47,0,0,0,0,0,,,,,,,,,,,,,,,,,,390.2291951228399,390.2291951228399,390.2291951228399,390.2291951228399,l,1,0.614666889741784,390.8709270984982,390.8709270984982,390.8709270984982,,,,,,,,,,,,,,,,,,,,,,,,,,,,131,001,2023-03-03_15h01.00.629,eb_01,2022.2.4,120.0000362377723,
,,,1,0,1,0,47,0,47,0,,,,,,,,,,,,,,,,,,,,,,,,,,,,,,,,,,,,,,,,,,,,,,,,,,,,,,,,,,,131,001,2023-03-03_15h01.00.629,eb_01,2022.2.4,120.0000362377723,
5,stimuli/5.png,s,1,0,1,0,48,0,48,0,0,0,0,0,,,,,,,,,,,,,,,,,,391.871047538938,391.871047538938,391.871047538938,391.871047538938,s,1,1.036898744496284,392.92947895778343,392.92947895778343,392.92947895778343,,,,,,,,,,,,,,,,,,,,,,,,,,,,131,001,2023-03-03_15h01.00.629,eb_01,2022.2.4,120.0000362377723,
,,,1,0,1,0,48,0,48,0,,,,,,,,,,,,,,,,,,,,,,,,,,,,,,,,,,,,,,,,,,,,,,,,,,,,,,,,,,,131,001,2023-03-03_15h01.00.629,eb_01,2022.2.4,120.0000362377723,
9,stimuli/9.png,l,1,0,1,0,49,0,49,0,0,0,0,0,,,,,,,,,,,,,,,,,,393.94625851346063,393.94625851346063,393.94625851346063,393.94625851346063,l,1,0.6017559169558808,394.579649913765,394.579649913765,394.579649913765,,,,,,,,,,,,,,,,,,,,,,,,,,,,131,001,2023-03-03_15h01.00.629,eb_01,2022.2.4,120.0000362377723,
,,,1,0,1,0,49,0,49,0,,,,,,,,,,,,,,,,,,,,,,,,,,,,,,,,,,,,,,,,,,,,,,,,,,,,,,,,,,,131,001,2023-03-03_15h01.00.629,eb_01,2022.2.4,120.0000362377723,
5,stimuli/5.png,s,1,0,1,0,50,0,50,0,0,0,0,0,,,,,,,,,,,,,,,,,,395.5797670337779,395.5797670337779,395.5797670337779,395.5797670337779,s,1,0.552306818717625,396.1548236090748,396.1548236090748,396.1548236090748,,,,,,,,,,,,,,,,,,,,,,,,,,,,131,001,2023-03-03_15h01.00.629,eb_01,2022.2.4,120.0000362377723,
,,,1,0,1,0,50,0,50,0,,,,,,,,,,,,,,,,,,,,,,,,,,,,,,,,,,,,,,,,,,,,,,,,,,,,,,,,,,,131,001,2023-03-03_15h01.00.629,eb_01,2022.2.4,120.0000362377723,
6,stimuli/6.png,s,1,0,1,0,51,0,51,0,0,0,0,0,,,,,,,,,,,,,,,,,,397.17992774175946,397.17992774175946,397.17992774175946,397.17992774175946,s,1,1.639256962138461,398.84678226331016,398.84678226331016,398.84678226331016,,,,,,,,,,,,,,,,,,,,,,,,,,,,131,001,2023-03-03_15h01.00.629,eb_01,2022.2.4,120.0000362377723,
,,,1,0,1,0,51,0,51,0,,,,,,,,,,,,,,,,,,,,,,,,,,,,,,,,,,,,,,,,,,,,,,,,,,,,,,,,,,,131,001,2023-03-03_15h01.00.629,eb_01,2022.2.4,120.0000362377723,
8,stimuli/8.png,l,1,0,1,0,52,0,52,0,0,0,0,0,,,,,,,,,,,,,,,,,,399.8468912332319,399.8468912332319,399.8468912332319,399.8468912332319,l,1,1.524405087257037,401.38872013476794,401.38872013476794,401.38872013476794,,,,,,,,,,,,,,,,,,,,,,,,,,,,131,001,2023-03-03_15h01.00.629,eb_01,2022.2.4,120.0000362377723,
,,,1,0,1,0,52,0,52,0,,,,,,,,,,,,,,,,,,,,,,,,,,,,,,,,,,,,,,,,,,,,,,,,,,,,,,,,,,,131,001,2023-03-03_15h01.00.629,eb_01,2022.2.4,120.0000362377723,
3,stimuli/3.png,l,1,0,1,0,53,0,53,0,0,0,0,0,,,,,,,,,,,,,,,,,,402.397165454051,402.397165454051,402.397165454051,402.397165454051,l,1,1.5662274989008438,403.98065889667487,403.98065889667487,403.98065889667487,,,,,,,,,,,,,,,,,,,,,,,,,,,,131,001,2023-03-03_15h01.00.629,eb_01,2022.2.4,120.0000362377723,
,,,1,0,1,0,53,0,53,0,,,,,,,,,,,,,,,,,,,,,,,,,,,,,,,,,,,,,,,,,,,,,,,,,,,,,,,,,,,131,001,2023-03-03_15h01.00.629,eb_01,2022.2.4,120.0000362377723,
4,stimuli/4.png,l,1,0,1,0,54,0,54,0,0,0,0,0,,,,,,,,,,,,,,,,,,404.9974463006074,404.9974463006074,404.9974463006074,404.9974463006074,l,1,2.006078671955038,407.0226681570057,407.0226681570057,407.0226681570057,,,,,,,,,,,,,,,,,,,,,,,,,,,,131,001,2023-03-03_15h01.00.629,eb_01,2022.2.4,120.0000362377723,
,,,1,0,1,0,54,0,54,0,,,,,,,,,,,,,,,,,,,,,,,,,,,,,,,,,,,,,,,,,,,,,,,,,,,,,,,,,,,131,001,2023-03-03_15h01.00.629,eb_01,2022.2.4,120.0000362377723,
1,stimuli/1.png,s,1,0,1,0,55,0,55,0,0,0,0,0,,,,,,,,,,,,,,,,,,408.04776413959917,408.04776413959917,408.04776413959917,408.04776413959917,s,1,0.6358136939525139,408.71450727636693,408.71450727636693,408.71450727636693,,,,,,,,,,,,,,,,,,,,,,,,,,,,131,001,2023-03-03_15h01.00.629,eb_01,2022.2.4,120.0000362377723,
,,,1,0,1,0,55,0,55,0,,,,,,,,,,,,,,,,,,,,,,,,,,,,,,,,,,,,,,,,,,,,,,,,,,,,,,,,,,,131,001,2023-03-03_15h01.00.629,eb_01,2022.2.4,120.0000362377723,
4,stimuli/4.png,l,1,0,1,0,56,0,56,0,0,0,0,0,,,,,,,,,,,,,,,,,,409.72294595482526,409.72294595482526,409.72294595482526,409.72294595482526,l,1,0.6326810352911707,410.37300914831576,410.37300914831576,410.37300914831576,,,,,,,,,,,,,,,,,,,,,,,,,,,,131,001,2023-03-03_15h01.00.629,eb_01,2022.2.4,120.0000362377723,
,,,1,0,1,0,56,0,56,0,,,,,,,,,,,,,,,,,,,,,,,,,,,,,,,,,,,,,,,,,,,,,,,,,,,,,,,,,,,131,001,2023-03-03_15h01.00.629,eb_01,2022.2.4,120.0000362377723,
1,stimuli/1.png,s,1,0,1,0,57,0,57,0,0,0,0,0,,,,,,,,,,,,,,,,,,411.3981271663797,411.3981271663797,411.3981271663797,411.3981271663797,s,1,0.7256046014954336,412.1565429792681,412.1565429792681,412.1565429792681,,,,,,,,,,,,,,,,,,,,,,,,,,,,131,001,2023-03-03_15h01.00.629,eb_01,2022.2.4,120.0000362377723,
,,,1,0,1,0,57,0,57,0,,,,,,,,,,,,,,,,,,,,,,,,,,,,,,,,,,,,,,,,,,,,,,,,,,,,,,,,,,,131,001,2023-03-03_15h01.00.629,eb_01,2022.2.4,120.0000362377723,
4,stimuli/4.png,l,1,0,1,0,58,0,58,0,0,0,0,0,,,,,,,,,,,,,,,,,,413.1649819595914,413.1649819595914,413.1649819595914,413.1649819595914,l,1,1.589860386797227,414.77348716705455,414.77348716705455,414.77348716705455,,,,,,,,,,,,,,,,,,,,,,,,,,,,131,001,2023-03-03_15h01.00.629,eb_01,2022.2.4,120.0000362377723,
,,,1,0,1,0,58,0,58,0,,,,,,,,,,,,,,,,,,,,,,,,,,,,,,,,,,,,,,,,,,,,,,,,,,,,,,,,,,,131,001,2023-03-03_15h01.00.629,eb_01,2022.2.4,120.0000362377723,
1,stimuli/1.png,s,1,0,1,0,59,0,59,0,0,0,0,0,,,,,,,,,,,,,,,,,,415.7985934127064,415.7985934127064,415.7985934127064,415.7985934127064,s,1,0.8443223425420001,416.67369577952195,416.67369577952195,416.67369577952195,,,,,,,,,,,,,,,,,,,,,,,,,,,,131,001,2023-03-03_15h01.00.629,eb_01,2022.2.4,120.0000362377723,
,,,1,0,1,0,59,0,59,0,,,,,,,,,,,,,,,,,,,,,,,,,,,,,,,,,,,,,,,,,,,,,,,,,,,,,,,,,,,131,001,2023-03-03_15h01.00.629,eb_01,2022.2.4,120.0000362377723,
4,stimuli/4.png,l,1,0,1,0,60,0,60,0,0,0,0,0,,,,,,,,,,,,,,,,,,417.6821752085234,417.6821752085234,417.6821752085234,417.6821752085234,l,1,0.8968213909829501,418.59890015848214,418.59890015848214,418.59890015848214,,,,,,,,,,,,,,,,,,,,,,,,,,,,131,001,2023-03-03_15h01.00.629,eb_01,2022.2.4,120.0000362377723,
,,,1,0,1,0,60,0,60,0,,,,,,,,,,,,,,,,,,,,,,,,,,,,,,,,,,,,,,,,,,,,,,,,,,,,,,,,,,,131,001,2023-03-03_15h01.00.629,eb_01,2022.2.4,120.0000362377723,
2,stimuli/2.png,s,1,0,1,0,61,0,61,0,0,0,0,0,,,,,,,,,,,,,,,,,,419.60734185550245,419.60734185550245,419.60734185550245,419.60734185550245,s,1,0.6117289280227851,420.23241018809495,420.23241018809495,420.23241018809495,421.25751371707884,421.25751371707884,421.25751371707884,,,,,,,,,,,,,,,,,,,,,,,,,131,001,2023-03-03_15h01.00.629,eb_01,2022.2.4,120.0000362377723,
,,,1,0,1,0,61,0,61,0,,,,,,,,,,,,,,,,,,,,,,,,,,,,,,,,,,,,,,,,,,,,,,,,,,,,,,,,,,,131,001,2023-03-03_15h01.00.629,eb_01,2022.2.4,120.0000362377723,
1,stimuli/1.png,s,1,0,1,0,62,0,62,0,0,0,0,0,,,,,,,,,,,,,,,,,,421.25751371707884,421.25751371707884,421.25751371707884,421.25751371707884,l,0,0.8496277586673386,422.1326121597667,422.1326121597667,422.1326121597667,,,,,,,,,,,,,,,,,,,,,,,,,,,,131,001,2023-03-03_15h01.00.629,eb_01,2022.2.4,120.0000362377723,
,,,1,0,1,0,62,0,62,0,,,,,,,,,,,,,,,,,,,,,,,,,,,,,,,,,,,,,,,,,,,,,,,,,,,,,,,,,,,131,001,2023-03-03_15h01.00.629,eb_01,2022.2.4,120.0000362377723,
4,stimuli/4.png,l,1,0,1,0,63,0,63,0,0,0,0,0,,,,,,,,,,,,,,,,,,423.14104993265937,423.14104993265937,423.14104993265937,423.14104993265937,l,1,1.198189914226532,424.3578502559976,424.3578502559976,424.3578502559976,,,,,,,,,,,,,,,,,,,,,,,,,,,,131,001,2023-03-03_15h01.00.629,eb_01,2022.2.4,120.0000362377723,
,,,1,0,1,0,63,0,63,0,,,,,,,,,,,,,,,,,,,,,,,,,,,,,,,,,,,,,,,,,,,,,,,,,,,,,,,,,,,131,001,2023-03-03_15h01.00.629,eb_01,2022.2.4,120.0000362377723,
2,stimuli/2.png,s,1,0,1,0,64,0,64,0,0,0,0,0,,,,,,,,,,,,,,,,,,425.36629104745225,425.36629104745225,425.36629104745225,425.36629104745225,s,1,2.3490794377576094,427.7248769258731,427.7248769258731,427.7248769258731,428.7416510481271,428.7416510481271,428.7416510481271,,,,,,,,,,,,,,,,,,,,,,,,,131,001,2023-03-03_15h01.00.629,eb_01,2022.2.4,120.0000362377723,
,,,1,0,1,0,64,0,64,0,,,,,,,,,,,,,,,,,,,,,,,,,,,,,,,,,,,,,,,,,,,,,,,,,,,,,,,,,,,131,001,2023-03-03_15h01.00.629,eb_01,2022.2.4,120.0000362377723,
4,stimuli/4.png,l,1,0,1,0,65,0,65,0,0,0,0,0,,,,,,,,,,,,,,,,,,428.7416510481271,428.7416510481271,428.7416510481271,428.7416510481271,l,1,2.5328546325326897,431.2919270801067,431.2919270801067,431.2919270801067,,,,,,,,,,,,,,,,,,,,,,,,,,,,131,001,2023-03-03_15h01.00.629,eb_01,2022.2.4,120.0000362377723,
,,,1,0,1,0,65,0,65,0,,,,,,,,,,,,,,,,,,,,,,,,,,,,,,,,,,,,,,,,,,,,,,,,,,,,,,,,,,,131,001,2023-03-03_15h01.00.629,eb_01,2022.2.4,120.0000362377723,
1,stimuli/1.png,s,1,0,1,0,66,0,66,0,0,0,0,0,,,,,,,,,,,,,,,,,,432.3170330239227,432.3170330239227,432.3170330239227,432.3170330239227,s,1,1.453584000468254,433.8005271004513,433.8005271004513,433.8005271004513,,,,,,,,,,,,,,,,,,,,,,,,,,,,131,001,2023-03-03_15h01.00.629,eb_01,2022.2.4,120.0000362377723,
,,,1,0,1,0,66,0,66,0,,,,,,,,,,,,,,,,,,,,,,,,,,,,,,,,,,,,,,,,,,,,,,,,,,,,,,,,,,,131,001,2023-03-03_15h01.00.629,eb_01,2022.2.4,120.0000362377723,
4,stimuli/4.png,l,1,0,1,0,67,0,67,0,0,0,0,0,,,,,,,,,,,,,,,,,,434.80896940117236,434.80896940117236,434.80896940117236,434.80896940117236,l,1,1.5457529273699038,436.37581670837244,436.37581670837244,436.37581670837244,,,,,,,,,,,,,,,,,,,,,,,,,,,,131,001,2023-03-03_15h01.00.629,eb_01,2022.2.4,120.0000362377723,
,,,1,0,1,0,67,0,67,0,,,,,,,,,,,,,,,,,,,,,,,,,,,,,,,,,,,,,,,,,,,,,,,,,,,,,,,,,,,131,001,2023-03-03_15h01.00.629,eb_01,2022.2.4,120.0000362377723,
3,stimuli/3.png,l,1,0,1,0,68,0,68,0,0,0,0,0,,,,,,,,,,,,,,,,,,437.38424784044037,437.38424784044037,437.38424784044037,437.38424784044037,l,1,2.0586030762351584,439.45946455019293,439.45946455019293,439.45946455019293,,,,,,,,,,,,,,,,,,,,,,,,,,,,131,001,2023-03-03_15h01.00.629,eb_01,2022.2.4,120.0000362377723,
,,,1,0,1,0,68,0,68,0,,,,,,,,,,,,,,,,,,,,,,,,,,,,,,,,,,,,,,,,,,,,,,,,,,,,,,,,,,,131,001,2023-03-03_15h01.00.629,eb_01,2022.2.4,120.0000362377723,
8,stimuli/8.png,l,1,0,1,0,69,0,69,0,0,0,0,0,,,,,,,,,,,,,,,,,,440.4679207362933,440.4679207362933,440.4679207362933,440.4679207362933,l,1,0.9750174166692887,441.45972957951017,441.45972957951017,441.45972957951017,,,,,,,,,,,,,,,,,,,,,,,,,,,,131,001,2023-03-03_15h01.00.629,eb_01,2022.2.4,120.0000362377723,
,,,1,0,1,0,69,0,69,0,,,,,,,,,,,,,,,,,,,,,,,,,,,,,,,,,,,,,,,,,,,,,,,,,,,,,,,,,,,131,001,2023-03-03_15h01.00.629,eb_01,2022.2.4,120.0000362377723,
9,stimuli/9.png,l,1,0,1,0,70,0,70,0,0,0,0,0,,,,,,,,,,,,,,,,,,442.47645963085233,442.47645963085233,442.47645963085233,442.47645963085233,l,1,2.165603985718917,444.66835112217814,444.66835112217814,444.66835112217814,,,,,,,,,,,,,,,,,,,,,,,,,,,,131,001,2023-03-03_15h01.00.629,eb_01,2022.2.4,120.0000362377723,
,,,1,0,1,0,70,0,70,0,,,,,,,,,,,,,,,,,,,,,,,,,,,,,,,,,,,,,,,,,,,,,,,,,,,,,,,,,,,131,001,2023-03-03_15h01.00.629,eb_01,2022.2.4,120.0000362377723,
6,stimuli/6.png,s,1,0,1,0,71,0,71,0,0,0,0,0,,,,,,,,,,,,,,,,,,445.68513611124945,445.68513611124945,445.68513611124945,445.68513611124945,s,1,1.5330176346178632,447.2436395226687,447.2436395226687,447.2436395226687,,,,,,,,,,,,,,,,,,,,,,,,,,,,131,001,2023-03-03_15h01.00.629,eb_01,2022.2.4,120.0000362377723,
,,,1,0,1,0,71,0,71,0,,,,,,,,,,,,,,,,,,,,,,,,,,,,,,,,,,,,,,,,,,,,,,,,,,,,,,,,,,,131,001,2023-03-03_15h01.00.629,eb_01,2022.2.4,120.0000362377723,
5,stimuli/5.png,s,1,0,1,0,72,0,72,0,0,0,0,0,,,,,,,,,,,,,,,,,,448.24374728515977,448.24374728515977,448.24374728515977,448.24374728515977,s,1,0.9504982803773601,449.2188348308846,449.2188348308846,449.2188348308846,,,,,,,,,,,,,,,,,,,,,,,,,,,,131,001,2023-03-03_15h01.00.629,eb_01,2022.2.4,120.0000362377723,
,,,1,0,1,0,72,0,72,0,,,,,,,,,,,,,,,,,,,,,,,,,,,,,,,,,,,,,,,,,,,,,,,,,,,,,,,,,,,131,001,2023-03-03_15h01.00.629,eb_01,2022.2.4,120.0000362377723,
9,stimuli/9.png,l,1,0,1,0,73,0,73,0,0,0,0,0,,,,,,,,,,,,,,,,,,450.23562555521494,450.23562555521494,450.23562555521494,450.23562555521494,l,1,0.990707575052511,451.25240963872056,451.25240963872056,451.25240963872056,,,,,,,,,,,,,,,,,,,,,,,,,,,,131,001,2023-03-03_15h01.00.629,eb_01,2022.2.4,120.0000362377723,
,,,1,0,1,0,73,0,73,0,,,,,,,,,,,,,,,,,,,,,,,,,,,,,,,,,,,,,,,,,,,,,,,,,,,,,,,,,,,131,001,2023-03-03_15h01.00.629,eb_01,2022.2.4,120.0000362377723,
6,stimuli/6.png,s,1,0,1,0,74,0,74,0,0,0,0,0,,,,,,,,,,,,,,,,,,452.26917108305497,452.26917108305497,452.26917108305497,452.26917108305497,s,1,0.8292425364488736,453.1276013548486,453.1276013548486,453.1276013548486,,,,,,,,,,,,,,,,,,,,,,,,,,,,131,001,2023-03-03_15h01.00.629,eb_01,2022.2.4,120.0000362377723,
,,,1,0,1,0,74,0,74,0,,,,,,,,,,,,,,,,,,,,,,,,,,,,,,,,,,,,,,,,,,,,,,,,,,,,,,,,,,,131,001,2023-03-03_15h01.00.629,eb_01,2022.2.4,120.0000362377723,
8,stimuli/8.png,l,1,0,1,0,75,0,75,0,0,0,0,0,,,,,,,,,,,,,,,,,,454.1277094191755,454.1277094191755,454.1277094191755,454.1277094191755,l,1,1.2107920886192005,455.36117368747364,455.36117368747364,455.36117368747364,,,,,,,,,,,,,,,,,,,,,,,,,,,,131,001,2023-03-03_15h01.00.629,eb_01,2022.2.4,120.0000362377723,
,,,1,0,1,0,75,0,75,0,,,,,,,,,,,,,,,,,,,,,,,,,,,,,,,,,,,,,,,,,,,,,,,,,,,,,,,,,,,131,001,2023-03-03_15h01.00.629,eb_01,2022.2.4,120.0000362377723,
9,stimuli/9.png,l,1,0,1,0,76,0,76,0,0,0,0,0,,,,,,,,,,,,,,,,,,456.37794811159256,456.37794811159256,456.37794811159256,456.37794811159256,s,0,0.8566664303361904,457.2613735461491,457.2613735461491,457.2613735461491,,,,,,,,,,,,,,,,,,,,,,,,,,,,131,001,2023-03-03_15h01.00.629,eb_01,2022.2.4,120.0000362377723,
,,,1,0,1,0,76,0,76,0,,,,,,,,,,,,,,,,,,,,,,,,,,,,,,,,,,,,,,,,,,,,,,,,,,,,,,,,,,,131,001,2023-03-03_15h01.00.629,eb_01,2022.2.4,120.0000362377723,
8,stimuli/8.png,l,1,0,1,0,77,0,77,0,0,0,0,0,,,,,,,,,,,,,,,,,,458.26148583646864,458.26148583646864,458.26148583646864,458.26148583646864,l,1,0.9491637762403116,459.2282527292846,459.2282527292846,459.2282527292846,,,,,,,,,,,,,,,,,,,,,,,,,,,,131,001,2023-03-03_15h01.00.629,eb_01,2022.2.4,120.0000362377723,
,,,1,0,1,0,77,0,77,0,,,,,,,,,,,,,,,,,,,,,,,,,,,,,,,,,,,,,,,,,,,,,,,,,,,,,,,,,,,131,001,2023-03-03_15h01.00.629,eb_01,2022.2.4,120.0000362377723,
3,stimuli/3.png,l,1,0,1,0,78,0,78,0,0,0,0,0,,,,,,,,,,,,,,,,,,460.2367071042536,460.2367071042536,460.2367071042536,460.2367071042536,l,1,1.3010532874031924,461.55350498255575,461.55350498255575,461.55350498255575,462.5619361146528,462.5619361146528,462.5619361146528,,,,,,,,,,,,,,,,,,,,,,,,,131,001,2023-03-03_15h01.00.629,eb_01,2022.2.4,120.0000362377723,
,,,1,0,1,0,78,0,78,0,,,,,,,,,,,,,,,,,,,,,,,,,,,,,,,,,,,,,,,,,,,,,,,,,,,,,,,,,,,131,001,2023-03-03_15h01.00.629,eb_01,2022.2.4,120.0000362377723,
8,stimuli/8.png,l,1,0,1,0,79,0,79,0,0,0,0,0,,,,,,,,,,,,,,,,,,462.5619361146528,462.5619361146528,462.5619361146528,462.5619361146528,l,1,0.9598853894858621,463.5453723857936,463.5453723857936,463.5453723857936,,,,,,,,,,,,,,,,,,,,,,,,,,,,131,001,2023-03-03_15h01.00.629,eb_01,2022.2.4,120.0000362377723,
,,,1,0,1,0,79,0,79,0,,,,,,,,,,,,,,,,,,,,,,,,,,,,,,,,,,,,,,,,,,,,,,,,,,,,,,,,,,,131,001,2023-03-03_15h01.00.629,eb_01,2022.2.4,120.0000362377723,
3,stimuli/3.png,l,1,0,1,0,80,0,80,0,0,0,0,0,,,,,,,,,,,,,,,,,,464.5538376275799,464.5538376275799,464.5538376275799,464.5538376275799,l,1,0.6720638490223791,465.2372353517567,465.2372353517567,465.2372353517567,466.24567010608735,466.24567010608735,466.24567010608735,,,,,,,,,,,,,,,,,,,,,,,,,131,001,2023-03-03_15h01.00.629,eb_01,2022.2.4,120.0000362377723,
,,,1,0,1,0,80,0,80,0,,,,,,,,,,,,,,,,,,,,,,,,,,,,,,,,,,,,,,,,,,,,,,,,,,,,,,,,,,,131,001,2023-03-03_15h01.00.629,eb_01,2022.2.4,120.0000362377723,
8,stimuli/8.png,l,1,0,1,0,81,0,81,0,0,0,0,0,,,,,,,,,,,,,,,,,,466.24567010608735,466.24567010608735,466.24567010608735,466.24567010608735,l,1,1.5563438371173106,467.8208431977255,467.8208431977255,467.8208431977255,,,,,,,,,,,,,,,,,,,,,,,,,,,,131,001,2023-03-03_15h01.00.629,eb_01,2022.2.4,120.0000362377723,
,,,1,0,1,0,81,0,81,0,,,,,,,,,,,,,,,,,,,,,,,,,,,,,,,,,,,,,,,,,,,,,,,,,,,,,,,,,,,131,001,2023-03-03_15h01.00.629,eb_01,2022.2.4,120.0000362377723,
3,stimuli/3.png,l,1,0,1,0,82,0,82,0,0,0,0,0,,,,,,,,,,,,,,,,,,468.8292858003115,468.8292858003115,468.8292858003115,468.8292858003115,l,1,0.5088546880579088,469.3543432962615,469.3543432962615,469.3543432962615,470.371131002059,470.371131002059,470.371131002059,,,,,,,,,,,,,,,,,,,,,,,,,131,001,2023-03-03_15h01.00.629,eb_01,2022.2.4,120.0000362377723,
,,,1,0,1,0,82,0,82,0,,,,,,,,,,,,,,,,,,,,,,,,,,,,,,,,,,,,,,,,,,,,,,,,,,,,,,,,,,,131,001,2023-03-03_15h01.00.629,eb_01,2022.2.4,120.0000362377723,
4,stimuli/4.png,l,1,0,1,0,83,0,83,0,0,0,0,0,,,,,,,,,,,,,,,,,,470.371131002059,470.371131002059,470.371131002059,470.371131002059,l,1,0.6070154509798158,470.99618756226846,470.99618756226846,470.99618756226846,,,,,,,,,,,,,,,,,,,,,,,,,,,,131,001,2023-03-03_15h01.00.629,eb_01,2022.2.4,120.0000362377723,
,,,1,0,1,0,83,0,83,0,,,,,,,,,,,,,,,,,,,,,,,,,,,,,,,,,,,,,,,,,,,,,,,,,,,,,,,,,,,131,001,2023-03-03_15h01.00.629,eb_01,2022.2.4,120.0000362377723,
3,stimuli/3.png,l,1,0,1,0,84,0,84,0,0,0,0,0,,,,,,,,,,,,,,,,,,472.00462684442755,472.00462684442755,472.00462684442755,472.00462684442755,l,1,0.44558180536841974,472.4713359318848,472.4713359318848,472.4713359318848,,,,,,,,,,,,,,,,,,,,,,,,,,,,131,001,2023-03-03_15h01.00.629,eb_01,2022.2.4,120.0000362377723,
,,,1,0,1,0,84,0,84,0,,,,,,,,,,,,,,,,,,,,,,,,,,,,,,,,,,,,,,,,,,,,,,,,,,,,,,,,,,,131,001,2023-03-03_15h01.00.629,eb_01,2022.2.4,120.0000362377723,
4,stimuli/4.png,l,1,0,1,0,85,0,85,0,0,0,0,0,,,,,,,,,,,,,,,,,,473.4881257506786,473.4881257506786,473.4881257506786,473.4881257506786,l,1,0.37812399500398897,473.88816155074164,473.88816155074164,473.88816155074164,,,,,,,,,,,,,,,,,,,,,,,,,,,,131,001,2023-03-03_15h01.00.629,eb_01,2022.2.4,120.0000362377723,
,,,1,0,1,0,85,0,85,0,,,,,,,,,,,,,,,,,,,,,,,,,,,,,,,,,,,,,,,,,,,,,,,,,,,,,,,,,,,131,001,2023-03-03_15h01.00.629,eb_01,2022.2.4,120.0000362377723,
3,stimuli/3.png,l,1,0,1,0,86,0,86,0,0,0,0,0,,,,,,,,,,,,,,,,,,474.89660536075826,474.89660536075826,474.89660536075826,474.89660536075826,l,1,0.3687160577974282,475.2799669528322,475.2799669528322,475.2799669528322,476.2884439669724,476.2884439669724,476.2884439669724,,,,,,,,,,,,,,,,,,,,,,,,,131,001,2023-03-03_15h01.00.629,eb_01,2022.2.4,120.0000362377723,
,,,1,0,1,0,86,0,86,0,,,,,,,,,,,,,,,,,,,,,,,,,,,,,,,,,,,,,,,,,,,,,,,,,,,,,,,,,,,131,001,2023-03-03_15h01.00.629,eb_01,2022.2.4,120.0000362377723,
8,stimuli/8.png,l,1,0,1,0,87,0,87,0,0,0,0,0,,,,,,,,,,,,,,,,,,476.2884439669724,476.2884439669724,476.2884439669724,476.2884439669724,l,1,0.4409386607003398,476.74678802874405,476.74678802874405,476.74678802874405,,,,,,,,,,,,,,,,,,,,,,,,,,,,131,001,2023-03-03_15h01.00.629,eb_01,2022.2.4,120.0000362377723,
,,,1,0,1,0,87,0,87,0,,,,,,,,,,,,,,,,,,,,,,,,,,,,,,,,,,,,,,,,,,,,,,,,,,,,,,,,,,,131,001,2023-03-03_15h01.00.629,eb_01,2022.2.4,120.0000362377723,
6,stimuli/6.png,s,1,0,1,0,88,0,88,0,0,0,0,0,,,,,,,,,,,,,,,,,,477.7719081597752,477.7719081597752,477.7719081597752,477.7719081597752,s,1,0.40552585339173675,478.2052963000606,478.2052963000606,478.2052963000606,,,,,,,,,,,,,,,,,,,,,,,,,,,,131,001,2023-03-03_15h01.00.629,eb_01,2022.2.4,120.0000362377723,
,,,1,0,1,0,88,0,88,0,,,,,,,,,,,,,,,,,,,,,,,,,,,,,,,,,,,,,,,,,,,,,,,,,,,,,,,,,,,131,001,2023-03-03_15h01.00.629,eb_01,2022.2.4,120.0000362377723,
8,stimuli/8.png,l,1,0,1,0,89,0,89,0,0,0,0,0,,,,,,,,,,,,,,,,,,479.205397119862,479.205397119862,479.205397119862,479.205397119862,l,1,0.3480962936882861,479.5720941632753,479.5720941632753,479.5720941632753,,,,,,,,,,,,,,,,,,,,,,,,,,,,131,001,2023-03-03_15h01.00.629,eb_01,2022.2.4,120.0000362377723,
,,,1,0,1,0,89,0,89,0,,,,,,,,,,,,,,,,,,,,,,,,,,,,,,,,,,,,,,,,,,,,,,,,,,,,,,,,,,,131,001,2023-03-03_15h01.00.629,eb_01,2022.2.4,120.0000362377723,
3,stimuli/3.png,l,1,0,1,0,90,0,90,0,0,0,0,0,,,,,,,,,,,,,,,,,,480.5805548772041,480.5805548772041,480.5805548772041,480.5805548772041,l,1,0.3489961255691014,480.94724467609194,480.94724467609194,480.94724467609194,,,,,,,,,,,,,,,,,,,,,,,,,,,,131,001,2023-03-03_15h01.00.629,eb_01,2022.2.4,120.0000362377723,
,,,1,0,1,0,90,0,90,0,,,,,,,,,,,,,,,,,,,,,,,,,,,,,,,,,,,,,,,,,,,,,,,,,,,,,,,,,,,131,001,2023-03-03_15h01.00.629,eb_01,2022.2.4,120.0000362377723,
2,stimuli/2.png,s,1,0,1,0,91,0,91,0,0,0,0,0,,,,,,,,,,,,,,,,,,481.9556924102071,481.9556924102071,481.9556924102071,481.9556924102071,s,1,0.7579309341090266,482.7224439687852,482.7224439687852,482.7224439687852,483.73921416691155,483.73921416691155,483.73921416691155,,,,,,,,,,,,,,,,,,,,,,,,,131,001,2023-03-03_15h01.00.629,eb_01,2022.2.4,120.0000362377723,
,,,1,0,1,0,91,0,91,0,,,,,,,,,,,,,,,,,,,,,,,,,,,,,,,,,,,,,,,,,,,,,,,,,,,,,,,,,,,131,001,2023-03-03_15h01.00.629,eb_01,2022.2.4,120.0000362377723,
4,stimuli/4.png,l,1,0,1,0,92,0,92,0,0,0,0,0,,,,,,,,,,,,,,,,,,483.73921416691155,483.73921416691155,483.73921416691155,483.73921416691155,l,1,0.582471562520368,484.3392840163433,484.3392840163433,484.3392840163433,,,,,,,,,,,,,,,,,,,,,,,,,,,,131,001,2023-03-03_15h01.00.629,eb_01,2022.2.4,120.0000362377723,
,,,1,0,1,0,92,0,92,0,,,,,,,,,,,,,,,,,,,,,,,,,,,,,,,,,,,,,,,,,,,,,,,,,,,,,,,,,,,131,001,2023-03-03_15h01.00.629,eb_01,2022.2.4,120.0000362377723,
3,stimuli/3.png,l,1,0,1,0,93,0,93,0,0,0,0,0,,,,,,,,,,,,,,,,,,485.34773356158985,485.34773356158985,485.34773356158985,485.34773356158985,l,1,0.40600218169856817,485.76443511777325,485.76443511777325,485.76443511777325,486.7812101455929,486.7812101455929,486.7812101455929,,,,,,,,,,,,,,,,,,,,,,,,,131,001,2023-03-03_15h01.00.629,eb_01,2022.2.4,120.0000362377723,
,,,1,0,1,0,93,0,93,0,,,,,,,,,,,,,,,,,,,,,,,,,,,,,,,,,,,,,,,,,,,,,,,,,,,,,,,,,,,131,001,2023-03-03_15h01.00.629,eb_01,2022.2.4,120.0000362377723,
4,stimuli/4.png,l,1,0,1,0,94,0,94,0,0,0,0,0,,,,,,,,,,,,,,,,,,486.7812101455929,486.7812101455929,486.7812101455929,486.7812101455929,l,1,0.39659696124726906,487.1979307186557,487.1979307186557,487.1979307186557,,,,,,,,,,,,,,,,,,,,,,,,,,,,131,001,2023-03-03_15h01.00.629,eb_01,2022.2.4,120.0000362377723,
,,,1,0,1,0,94,0,94,0,,,,,,,,,,,,,,,,,,,,,,,,,,,,,,,,,,,,,,,,,,,,,,,,,,,,,,,,,,,131,001,2023-03-03_15h01.00.629,eb_01,2022.2.4,120.0000362377723,
2,stimuli/2.png,s,1,0,1,0,95,0,95,0,0,0,0,0,,,,,,,,,,,,,,,,,,488.20635762476013,488.20635762476013,488.20635762476013,488.20635762476013,l,0,0.3315056996943895,488.5563988733338,488.5563988733338,488.5563988733338,,,,,,,,,,,,,,,,,,,,,,,,,,,,131,001,2023-03-03_15h01.00.629,eb_01,2022.2.4,120.0000362377723,
,,,1,0,1,0,95,0,95,0,,,,,,,,,,,,,,,,,,,,,,,,,,,,,,,,,,,,,,,,,,,,,,,,,,,,,,,,,,,131,001,2023-03-03_15h01.00.629,eb_01,2022.2.4,120.0000362377723,
4,stimuli/4.png,l,1,0,1,0,96,0,96,0,0,0,0,0,,,,,,,,,,,,,,,,,,489.5731763160147,489.5731763160147,489.5731763160147,489.5731763160147,l,1,0.5647508207184728,490.1565749759611,490.1565749759611,490.1565749759611,,,,,,,,,,,,,,,,,,,,,,,,,,,,131,001,2023-03-03_15h01.00.629,eb_01,2022.2.4,120.0000362377723,
,,,1,0,1,0,96,0,96,0,,,,,,,,,,,,,,,,,,,,,,,,,,,,,,,,,,,,,,,,,,,,,,,,,,,,,,,,,,,131,001,2023-03-03_15h01.00.629,eb_01,2022.2.4,120.0000362377723,
1,stimuli/1.png,s,1,0,1,0,97,0,97,0,0,0,0,0,,,,,,,,,,,,,,,,,,491.1816625065694,491.1816625065694,491.1816625065694,491.1816625065694,s,1,0.6593028985080309,491.87342374716536,491.87342374716536,491.87342374716536,,,,,,,,,,,,,,,,,,,,,,,,,,,,131,001,2023-03-03_15h01.00.629,eb_01,2022.2.4,120.0000362377723,
,,,1,0,1,0,97,0,97,0,,,,,,,,,,,,,,,,,,,,,,,,,,,,,,,,,,,,,,,,,,,,,,,,,,,,,,,,,,,131,001,2023-03-03_15h01.00.629,eb_01,2022.2.4,120.0000362377723,
2,stimuli/2.png,s,1,0,1,0,98,0,98,0,0,0,0,0,,,,,,,,,,,,,,,,,,492.8735309059266,492.8735309059266,492.8735309059266,492.8735309059266,s,1,0.5275142011523712,493.41524872457376,493.41524872457376,493.41524872457376,494.4403920984769,494.4403920984769,494.4403920984769,,,,,,,,,,,,,,,,,,,,,,,,,131,001,2023-03-03_15h01.00.629,eb_01,2022.2.4,120.0000362377723,
,,,1,0,1,0,98,0,98,0,,,,,,,,,,,,,,,,,,,,,,,,,,,,,,,,,,,,,,,,,,,,,,,,,,,,,,,,,,,131,001,2023-03-03_15h01.00.629,eb_01,2022.2.4,120.0000362377723,
1,stimuli/1.png,s,1,0,1,0,99,0,99,0,0,0,0,0,,,,,,,,,,,,,,,,,,494.4403920984769,494.4403920984769,494.4403920984769,494.4403920984769,s,1,0.544689489674056,495.01542784576304,495.01542784576304,495.01542784576304,,,,,,,,,,,,,,,,,,,,,,,,,,,,131,001,2023-03-03_15h01.00.629,eb_01,2022.2.4,120.0000362377723,
,,,1,0,1,0,99,0,99,0,,,,,,,,,,,,,,,,,,,,,,,,,,,,,,,,,,,,,,,,,,,,,,,,,,,,,,,,,,,131,001,2023-03-03_15h01.00.629,eb_01,2022.2.4,120.0000362377723,
,,,1,0,1,0,,,,,,,,,,,,,,,,,,,,,,,,,,,,,,,,,,,,,,,496.00719322176883,496.00719322176883,return,197.90909846674185,,,,,,,,,,,,,,,,,,,,,131,001,2023-03-03_15h01.00.629,eb_01,2022.2.4,120.0000362377723,
2,stimuli/2.png,s,2,0,2,0,0,0,0,0,0,0,0,0,,,,,,,,,,,,,,,,,,693.9451147821383,693.9451147821383,693.9451147821383,693.9451147821383,s,1,2.13124918268295,696.0870144386427,696.0870144386427,696.0870144386427,697.0954612672213,697.0954612672213,697.0954612672213,,,,,,,,,,,,,,,,,,,,,,,,,131,001,2023-03-03_15h01.00.629,eb_01,2022.2.4,120.0000362377723,
,,,2,0,2,0,0,0,0,0,,,,,,,,,,,,,,,,,,,,,,,,,,,,,,,,,,,,,,,,,,,,,,,,,,,,,,,,,,,131,001,2023-03-03_15h01.00.629,eb_01,2022.2.4,120.0000362377723,
3,stimuli/3.png,l,2,0,2,0,1,0,1,0,0,0,0,0,,,,,,,,,,,,,,,,,,697.0954612672213,697.0954612672213,697.0954612672213,697.0954612672213,l,1,0.5889783643651754,697.6955151182774,697.6955151182774,697.6955151182774,698.712296183221,698.712296183221,698.712296183221,,,,,,,,,,,,,,,,,,,,,,,,,131,001,2023-03-03_15h01.00.629,eb_01,2022.2.4,120.0000362377723,
,,,2,0,2,0,1,0,1,0,,,,,,,,,,,,,,,,,,,,,,,,,,,,,,,,,,,,,,,,,,,,,,,,,,,,,,,,,,,131,001,2023-03-03_15h01.00.629,eb_01,2022.2.4,120.0000362377723,
4,stimuli/4.png,l,2,0,2,0,2,0,2,0,0,0,0,0,,,,,,,,,,,,,,,,,,698.712296183221,698.712296183221,698.712296183221,698.712296183221,l,1,0.7401987217890564,699.4707056571497,699.4707056571497,699.4707056571497,,,,,,,,,,,,,,,,,,,,,,,,,,,,131,001,2023-03-03_15h01.00.629,eb_01,2022.2.4,120.0000362377723,
,,,2,0,2,0,2,0,2,0,,,,,,,,,,,,,,,,,,,,,,,,,,,,,,,,,,,,,,,,,,,,,,,,,,,,,,,,,,,131,001,2023-03-03_15h01.00.629,eb_01,2022.2.4,120.0000362377723,
1,stimuli/1.png,s,2,0,2,0,3,0,3,0,0,0,0,0,,,,,,,,,,,,,,,,,,700.495813713962,700.495813713962,700.495813713962,700.495813713962,s,1,0.5647538392804563,701.0875514399668,701.0875514399668,701.0875514399668,,,,,,,,,,,,,,,,,,,,,,,,,,,,131,001,2023-03-03_15h01.00.629,eb_01,2022.2.4,120.0000362377723,
,,,2,0,2,0,3,0,3,0,,,,,,,,,,,,,,,,,,,,,,,,,,,,,,,,,,,,,,,,,,,,,,,,,,,,,,,,,,,131,001,2023-03-03_15h01.00.629,eb_01,2022.2.4,120.0000362377723,
4,stimuli/4.png,l,2,0,2,0,4,0,4,0,0,0,0,0,,,,,,,,,,,,,,,,,,702.095993740717,702.095993740717,702.095993740717,702.095993740717,l,1,0.5886903940408956,702.7044050710392,702.7044050710392,702.7044050710392,,,,,,,,,,,,,,,,,,,,,,,,,,,,131,001,2023-03-03_15h01.00.629,eb_01,2022.2.4,120.0000362377723,
,,,2,0,2,0,4,0,4,0,,,,,,,,,,,,,,,,,,,,,,,,,,,,,,,,,,,,,,,,,,,,,,,,,,,,,,,,,,,131,001,2023-03-03_15h01.00.629,eb_01,2022.2.4,120.0000362377723,
1,stimuli/1.png,s,2,0,2,0,5,0,5,0,0,0,0,0,,,,,,,,,,,,,,,,,,703.7294977332058,703.7294977332058,703.7294977332058,703.7294977332058,s,1,1.155238260369515,704.9129605072958,704.9129605072958,704.9129605072958,,,,,,,,,,,,,,,,,,,,,,,,,,,,131,001,2023-03-03_15h01.00.629,eb_01,2022.2.4,120.0000362377723,
,,,2,0,2,0,5,0,5,0,,,,,,,,,,,,,,,,,,,,,,,,,,,,,,,,,,,,,,,,,,,,,,,,,,,,,,,,,,,131,001,2023-03-03_15h01.00.629,eb_01,2022.2.4,120.0000362377723,
4,stimuli/4.png,l,2,0,2,0,6,0,6,0,0,0,0,0,,,,,,,,,,,,,,,,,,705.921399789484,705.921399789484,705.921399789484,705.921399789484,l,1,0.6673971596173942,706.6131465409708,706.6131465409708,706.6131465409708,,,,,,,,,,,,,,,,,,,,,,,,,,,,131,001,2023-03-03_15h01.00.629,eb_01,2022.2.4,120.0000362377723,
,,,2,0,2,0,6,0,6,0,,,,,,,,,,,,,,,,,,,,,,,,,,,,,,,,,,,,,,,,,,,,,,,,,,,,,,,,,,,131,001,2023-03-03_15h01.00.629,eb_01,2022.2.4,120.0000362377723,
1,stimuli/1.png,s,2,0,2,0,7,0,7,0,0,0,0,0,,,,,,,,,,,,,,,,,,707.6382542959182,707.6382542959182,707.6382542959182,707.6382542959182,s,1,0.6946124711830635,708.3633328614233,708.3633328614233,708.3633328614233,,,,,,,,,,,,,,,,,,,,,,,,,,,,131,001,2023-03-03_15h01.00.629,eb_01,2022.2.4,120.0000362377723,
,,,2,0,2,0,7,0,7,0,,,,,,,,,,,,,,,,,,,,,,,,,,,,,,,,,,,,,,,,,,,,,,,,,,,,,,,,,,,131,001,2023-03-03_15h01.00.629,eb_01,2022.2.4,120.0000362377723,
2,stimuli/2.png,s,2,0,2,0,8,0,8,0,0,0,0,0,,,,,,,,,,,,,,,,,,709.3634412276151,709.3634412276151,709.3634412276151,709.3634412276151,s,1,0.7845008781296201,710.1635270150146,710.1635270150146,710.1635270150146,711.1802993261663,711.1802993261663,711.1802993261663,,,,,,,,,,,,,,,,,,,,,,,,,131,001,2023-03-03_15h01.00.629,eb_01,2022.2.4,120.0000362377723,
,,,2,0,2,0,8,0,8,0,,,,,,,,,,,,,,,,,,,,,,,,,,,,,,,,,,,,,,,,,,,,,,,,,,,,,,,,,,,131,001,2023-03-03_15h01.00.629,eb_01,2022.2.4,120.0000362377723,
4,stimuli/4.png,l,2,0,2,0,9,0,9,0,0,0,0,0,,,,,,,,,,,,,,,,,,711.1802993261663,711.1802993261663,711.1802993261663,711.1802993261663,l,1,0.7597496148082428,711.9637190556386,711.9637190556386,711.9637190556386,,,,,,,,,,,,,,,,,,,,,,,,,,,,131,001,2023-03-03_15h01.00.629,eb_01,2022.2.4,120.0000362377723,
,,,2,0,2,0,9,0,9,0,,,,,,,,,,,,,,,,,,,,,,,,,,,,,,,,,,,,,,,,,,,,,,,,,,,,,,,,,,,131,001,2023-03-03_15h01.00.629,eb_01,2022.2.4,120.0000362377723,
2,stimuli/2.png,s,2,0,2,0,10,0,10,0,0,0,0,0,,,,,,,,,,,,,,,,,,712.9721667897538,712.9721667897538,712.9721667897538,712.9721667897538,s,1,0.5919730749737937,713.5805606124632,713.5805606124632,713.5805606124632,714.5889971779252,714.5889971779252,714.5889971779252,,,,,,,,,,,,,,,,,,,,,,,,,131,001,2023-03-03_15h01.00.629,eb_01,2022.2.4,120.0000362377723,
,,,2,0,2,0,10,0,10,0,,,,,,,,,,,,,,,,,,,,,,,,,,,,,,,,,,,,,,,,,,,,,,,,,,,,,,,,,,,131,001,2023-03-03_15h01.00.629,eb_01,2022.2.4,120.0000362377723,
3,stimuli/3.png,l,2,0,2,0,11,0,11,0,0,0,0,0,,,,,,,,,,,,,,,,,,714.5889971779252,714.5889971779252,714.5889971779252,714.5889971779252,l,1,0.6551529860880692,715.2557403147221,715.2557403147221,715.2557403147221,716.264188954432,716.264188954432,716.264188954432,,,,,,,,,,,,,,,,,,,,,,,,,131,001,2023-03-03_15h01.00.629,eb_01,2022.2.4,120.0000362377723,
,,,2,0,2,0,11,0,11,0,,,,,,,,,,,,,,,,,,,,,,,,,,,,,,,,,,,,,,,,,,,,,,,,,,,,,,,,,,,131,001,2023-03-03_15h01.00.629,eb_01,2022.2.4,120.0000362377723,
8,stimuli/8.png,l,2,0,2,0,12,0,12,0,0,0,0,0,,,,,,,,,,,,,,,,,,716.264188954432,716.264188954432,716.264188954432,716.264188954432,l,1,0.6280369850574061,716.9142476200941,716.9142476200941,716.9142476200941,,,,,,,,,,,,,,,,,,,,,,,,,,,,131,001,2023-03-03_15h01.00.629,eb_01,2022.2.4,120.0000362377723,
,,,2,0,2,0,12,0,12,0,,,,,,,,,,,,,,,,,,,,,,,,,,,,,,,,,,,,,,,,,,,,,,,,,,,,,,,,,,,131,001,2023-03-03_15h01.00.629,eb_01,2022.2.4,120.0000362377723,
