index,stimulus,correct_answer,block.thisRepN,block.thisTrialN,block.thisN,block.thisIndex,trial.thisRepN,trial.thisTrialN,trial.thisN,trial.thisIndex,display_row.thisRepN,display_row.thisTrialN,display_row.thisN,display_row.thisIndex,pair_questions.thisRepN,pair_questions.thisTrialN,pair_questions.thisN,pair_questions.thisIndex,welcome_text.started,instructions_0_keypress.started,instructions_0_keypress.keys,instructions_0_keypress.rt,instructions_1_keypress.started,instructions_1_text.started,instructions_1_keypress.keys,instructions_1_keypress.rt,instructions_2_keypress.started,instructions_2_text.started,instructions_2_keypress.keys,instructions_2_keypress.rt,text_countdown.started,image.started,size_question.started,size_resp.started,keypress_options.started,size_resp.keys,size_resp.corr,size_resp.rt,fb_image.started,fb.started,fb_size_question.started,fb_image.stopped,fb.stopped,fb_size_question.stopped,block_break_text.started,block_break_keypress.started,block_break_keypress.keys,block_break_keypress.rt,seq_reveal.started,seq_reveal_adv.started,seq_reveal_adv.keys,seq_reveal_adv.rt,instruction_2afc_text.started,instruction_2afc_keypress.started,instruction_2afc_keypress.keys,instruction_2afc_keypress.rt,dist_2afc_test.started,dist_2afc_resp.started,text.started,stim_00.started,stim_01.started,stim_10.started,stim_11.started,dist_2afc_resp.keys,dist_2afc_resp.rt,graph.started,debrief_text.started,debriefing_title.started,participant,session,date,expName,psychopyVersion,frameRate,
,,,,,,,,,,,,,,,,,,,37.973553452582564,37.973553452582564,return,58.60835835614125,,,,,,,,,,,,,,,,,,,,,,,,,,,,,,,,,,,,,,,,,,,,,,,132,001,2023-03-03_15h01.59.818,eb_01,2022.2.4,99.93004927047298,
,,,,,,,,,,,,,,,,,,,,,,,96.5924550035561,96.5924550035561,return,32.39650374423945,,,,,,,,,,,,,,,,,,,,,,,,,,,,,,,,,,,,,,,,,,,132,001,2023-03-03_15h01.59.818,eb_01,2022.2.4,99.93004927047298,
,,,,,,,,,,,,,,,,,,,,,,,,,,,129.0044933835452,129.0044933835452,space,10.375848246330861,,,,,,,,,,,,,,,,,,,,,,,,,,,,,,,,,,,,,,,132,001,2023-03-03_15h01.59.818,eb_01,2022.2.4,99.93004927047298,
3,stimuli/3.png,l,0,0,0,0,0,0,0,0,0,0,0,0,,,,,,,,,,,,,,,,,139.4014463587664,144.4148281053058,144.4148281053058,144.4148281053058,144.4148281053058,l,1,2.8617286201915704,147.2967435194587,147.2967435194587,147.2967435194587,,,,,,,,,,,,,,,,,,,,,,,,,,,,132,001,2023-03-03_15h01.59.818,eb_01,2022.2.4,99.93004927047298,
,,,0,0,0,0,0,0,0,0,,,,,,,,,,,,,,,,,,,,,,,,,,,,,,,,,,,,,,,,,,,,,,,,,,,,,,,,,,,132,001,2023-03-03_15h01.59.818,eb_01,2022.2.4,99.93004927047298,
8,stimuli/8.png,l,0,0,0,0,1,0,1,0,0,0,0,0,,,,,,,,,,,,,,,,,,148.30747982641333,148.30747982641333,148.30747982641333,148.30747982641333,l,1,1.8171603288210463,150.14865836914396,150.14865836914396,150.14865836914396,,,,,,,,,,,,,,,,,,,,,,,,,,,,132,001,2023-03-03_15h01.59.818,eb_01,2022.2.4,99.93004927047298,
,,,0,0,0,0,1,0,1,0,,,,,,,,,,,,,,,,,,,,,,,,,,,,,,,,,,,,,,,,,,,,,,,,,,,,,,,,,,,132,001,2023-03-03_15h01.59.818,eb_01,2022.2.4,99.93004927047298,
3,stimuli/3.png,l,0,0,0,0,2,0,2,0,0,0,0,0,,,,,,,,,,,,,,,,,,151.15933913516346,151.15933913516346,151.15933913516346,151.15933913516346,l,1,2.300402205757564,153.47055167559301,153.47055167559301,153.47055167559301,154.48156659284723,154.48156659284723,154.48156659284723,,,,,,,,,,,,,,,,,,,,,,,,,132,001,2023-03-03_15h01.59.818,eb_01,2022.2.4,99.93004927047298,
,,,0,0,0,0,2,0,2,0,,,,,,,,,,,,,,,,,,,,,,,,,,,,,,,,,,,,,,,,,,,,,,,,,,,,,,,,,,,132,001,2023-03-03_15h01.59.818,eb_01,2022.2.4,99.93004927047298,
2,stimuli/2.png,s,0,0,0,0,3,0,3,0,0,0,0,0,,,,,,,,,,,,,,,,,,154.48156659284723,154.48156659284723,154.48156659284723,154.48156659284723,s,1,1.8182578662817832,156.3124724747904,156.3124724747904,156.3124724747904,157.33347902772948,157.33347902772948,157.33347902772948,,,,,,,,,,,,,,,,,,,,,,,,,132,001,2023-03-03_15h01.59.818,eb_01,2022.2.4,99.93004927047298,
,,,0,0,0,0,3,0,3,0,,,,,,,,,,,,,,,,,,,,,,,,,,,,,,,,,,,,,,,,,,,,,,,,,,,,,,,,,,,132,001,2023-03-03_15h01.59.818,eb_01,2022.2.4,99.93004927047298,
1,stimuli/1.png,s,0,0,0,0,4,0,4,0,0,0,0,0,,,,,,,,,,,,,,,,,,157.33347902772948,157.33347902772948,157.33347902772948,157.33347902772948,s,1,0.7744067776075099,158.14401858689962,158.14401858689962,158.14401858689962,,,,,,,,,,,,,,,,,,,,,,,,,,,,132,001,2023-03-03_15h01.59.818,eb_01,2022.2.4,99.93004927047298,
,,,0,0,0,0,4,0,4,0,,,,,,,,,,,,,,,,,,,,,,,,,,,,,,,,,,,,,,,,,,,,,,,,,,,,,,,,,,,132,001,2023-03-03_15h01.59.818,eb_01,2022.2.4,99.93004927047298,
4,stimuli/4.png,l,0,0,0,0,5,0,5,0,0,0,0,0,,,,,,,,,,,,,,,,,,159.14436934009427,159.14436934009427,159.14436934009427,159.14436934009427,s,0,0.8115902357094456,159.9852547835617,159.9852547835617,159.9852547835617,,,,,,,,,,,,,,,,,,,,,,,,,,,,132,001,2023-03-03_15h01.59.818,eb_01,2022.2.4,99.93004927047298,
,,,0,0,0,0,5,0,5,0,,,,,,,,,,,,,,,,,,,,,,,,,,,,,,,,,,,,,,,,,,,,,,,,,,,,,,,,,,,132,001,2023-03-03_15h01.59.818,eb_01,2022.2.4,99.93004927047298,
2,stimuli/2.png,s,0,0,0,0,6,0,6,0,0,0,0,0,,,,,,,,,,,,,,,,,,160.99596301818383,160.99596301818383,160.99596301818383,160.99596301818383,s,1,1.2480343350907788,162.26678521442227,162.26678521442227,162.26678521442227,,,,,,,,,,,,,,,,,,,,,,,,,,,,132,001,2023-03-03_15h01.59.818,eb_01,2022.2.4,99.93004927047298,
,,,0,0,0,0,6,0,6,0,,,,,,,,,,,,,,,,,,,,,,,,,,,,,,,,,,,,,,,,,,,,,,,,,,,,,,,,,,,132,001,2023-03-03_15h01.59.818,eb_01,2022.2.4,99.93004927047298,
1,stimuli/1.png,s,0,0,0,0,7,0,7,0,0,0,0,0,,,,,,,,,,,,,,,,,,163.28714761306765,163.28714761306765,163.28714761306765,163.28714761306765,s,1,2.861011115659494,166.17943107354222,166.17943107354222,166.17943107354222,,,,,,,,,,,,,,,,,,,,,,,,,,,,132,001,2023-03-03_15h01.59.818,eb_01,2022.2.4,99.93004927047298,
,,,0,0,0,0,7,0,7,0,,,,,,,,,,,,,,,,,,,,,,,,,,,,,,,,,,,,,,,,,,,,,,,,,,,,,,,,,,,132,001,2023-03-03_15h01.59.818,eb_01,2022.2.4,99.93004927047298,
4,stimuli/4.png,l,0,0,0,0,8,0,8,0,0,0,0,0,,,,,,,,,,,,,,,,,,167.17975858403952,167.17975858403952,167.17975858403952,167.17975858403952,l,1,1.0474400469101965,168.25075833016308,168.25075833016308,168.25075833016308,,,,,,,,,,,,,,,,,,,,,,,,,,,,132,001,2023-03-03_15h01.59.818,eb_01,2022.2.4,99.93004927047298,
,,,0,0,0,0,8,0,8,0,,,,,,,,,,,,,,,,,,,,,,,,,,,,,,,,,,,,,,,,,,,,,,,,,,,,,,,,,,,132,001,2023-03-03_15h01.59.818,eb_01,2022.2.4,99.93004927047298,
1,stimuli/1.png,s,0,0,0,0,9,0,9,0,0,0,0,0,,,,,,,,,,,,,,,,,,169.27148295240477,169.27148295240477,169.27148295240477,169.27148295240477,s,1,1.019814159895759,170.3221845945809,170.3221845945809,170.3221845945809,,,,,,,,,,,,,,,,,,,,,,,,,,,,132,001,2023-03-03_15h01.59.818,eb_01,2022.2.4,99.93004927047298,
,,,0,0,0,0,9,0,9,0,,,,,,,,,,,,,,,,,,,,,,,,,,,,,,,,,,,,,,,,,,,,,,,,,,,,,,,,,,,132,001,2023-03-03_15h01.59.818,eb_01,2022.2.4,99.93004927047298,
4,stimuli/4.png,l,0,0,0,0,10,0,10,0,0,0,0,0,,,,,,,,,,,,,,,,,,171.32253625331214,171.32253625331214,171.32253625331214,171.32253625331214,l,1,1.4248124227451626,172.77385355482693,172.77385355482693,172.77385355482693,,,,,,,,,,,,,,,,,,,,,,,,,,,,132,001,2023-03-03_15h01.59.818,eb_01,2022.2.4,99.93004927047298,
,,,0,0,0,0,10,0,10,0,,,,,,,,,,,,,,,,,,,,,,,,,,,,,,,,,,,,,,,,,,,,,,,,,,,,,,,,,,,132,001,2023-03-03_15h01.59.818,eb_01,2022.2.4,99.93004927047298,
3,stimuli/3.png,l,0,0,0,0,11,0,11,0,0,0,0,0,,,,,,,,,,,,,,,,,,173.784511380014,173.784511380014,173.784511380014,173.784511380014,l,1,0.7388967924634926,174.53468728484586,174.53468728484586,174.53468728484586,175.5457468763634,175.5457468763634,175.5457468763634,,,,,,,,,,,,,,,,,,,,,,,,,132,001,2023-03-03_15h01.59.818,eb_01,2022.2.4,99.93004927047298,
,,,0,0,0,0,11,0,11,0,,,,,,,,,,,,,,,,,,,,,,,,,,,,,,,,,,,,,,,,,,,,,,,,,,,,,,,,,,,132,001,2023-03-03_15h01.59.818,eb_01,2022.2.4,99.93004927047298,
8,stimuli/8.png,l,0,0,0,0,12,0,12,0,0,0,0,0,,,,,,,,,,,,,,,,,,175.5457468763634,175.5457468763634,175.5457468763634,175.5457468763634,l,1,1.465734631899977,177.03668962663505,177.03668962663505,177.03668962663505,,,,,,,,,,,,,,,,,,,,,,,,,,,,132,001,2023-03-03_15h01.59.818,eb_01,2022.2.4,99.93004927047298,
,,,0,0,0,0,12,0,12,0,,,,,,,,,,,,,,,,,,,,,,,,,,,,,,,,,,,,,,,,,,,,,,,,,,,,,,,,,,,132,001,2023-03-03_15h01.59.818,eb_01,2022.2.4,99.93004927047298,
6,stimuli/6.png,s,0,0,0,0,13,0,13,0,0,0,0,0,,,,,,,,,,,,,,,,,,178.05737681908067,178.05737681908067,178.05737681908067,178.05737681908067,s,1,1.0021907752379775,179.09806841256795,179.09806841256795,179.09806841256795,,,,,,,,,,,,,,,,,,,,,,,,,,,,132,001,2023-03-03_15h01.59.818,eb_01,2022.2.4,99.93004927047298,
,,,0,0,0,0,13,0,13,0,,,,,,,,,,,,,,,,,,,,,,,,,,,,,,,,,,,,,,,,,,,,,,,,,,,,,,,,,,,132,001,2023-03-03_15h01.59.818,eb_01,2022.2.4,99.93004927047298,
8,stimuli/8.png,l,0,0,0,0,14,0,14,0,0,0,0,0,,,,,,,,,,,,,,,,,,180.09874818549724,180.09874818549724,180.09874818549724,180.09874818549724,l,1,2.2569444314867724,182.3802858608251,182.3802858608251,182.3802858608251,,,,,,,,,,,,,,,,,,,,,,,,,,,,132,001,2023-03-03_15h01.59.818,eb_01,2022.2.4,99.93004927047298,
,,,0,0,0,0,14,0,14,0,,,,,,,,,,,,,,,,,,,,,,,,,,,,,,,,,,,,,,,,,,,,,,,,,,,,,,,,,,,132,001,2023-03-03_15h01.59.818,eb_01,2022.2.4,99.93004927047298,
6,stimuli/6.png,s,0,0,0,0,15,0,15,0,0,0,0,0,,,,,,,,,,,,,,,,,,183.40094739579945,183.40094739579945,183.40094739579945,183.40094739579945,s,1,0.913795241562184,184.35161344948574,184.35161344948574,184.35161344948574,,,,,,,,,,,,,,,,,,,,,,,,,,,,132,001,2023-03-03_15h01.59.818,eb_01,2022.2.4,99.93004927047298,
,,,0,0,0,0,15,0,15,0,,,,,,,,,,,,,,,,,,,,,,,,,,,,,,,,,,,,,,,,,,,,,,,,,,,,,,,,,,,132,001,2023-03-03_15h01.59.818,eb_01,2022.2.4,99.93004927047298,
8,stimuli/8.png,l,0,0,0,0,16,0,16,0,0,0,0,0,,,,,,,,,,,,,,,,,,185.35229322241503,185.35229322241503,185.35229322241503,185.35229322241503,l,1,0.9385025120864157,186.31290865235496,186.31290865235496,186.31290865235496,,,,,,,,,,,,,,,,,,,,,,,,,,,,132,001,2023-03-03_15h01.59.818,eb_01,2022.2.4,99.93004927047298,
,,,0,0,0,0,16,0,16,0,,,,,,,,,,,,,,,,,,,,,,,,,,,,,,,,,,,,,,,,,,,,,,,,,,,,,,,,,,,132,001,2023-03-03_15h01.59.818,eb_01,2022.2.4,99.93004927047298,
6,stimuli/6.png,s,0,0,0,0,17,0,17,0,0,0,0,0,,,,,,,,,,,,,,,,,,187.33360701339552,187.33360701339552,187.33360701339552,187.33360701339552,s,1,0.7972362207074184,188.16416516067693,188.16416516067693,188.16416516067693,,,,,,,,,,,,,,,,,,,,,,,,,,,,132,001,2023-03-03_15h01.59.818,eb_01,2022.2.4,99.93004927047298,
,,,0,0,0,0,17,0,17,0,,,,,,,,,,,,,,,,,,,,,,,,,,,,,,,,,,,,,,,,,,,,,,,,,,,,,,,,,,,132,001,2023-03-03_15h01.59.818,eb_01,2022.2.4,99.93004927047298,
9,stimuli/9.png,l,0,0,0,0,18,0,18,0,0,0,0,0,,,,,,,,,,,,,,,,,,189.17487762126257,189.17487762126257,189.17487762126257,189.17487762126257,l,1,1.1400485427002423,190.33529256045585,190.33529256045585,190.33529256045585,,,,,,,,,,,,,,,,,,,,,,,,,,,,132,001,2023-03-03_15h01.59.818,eb_01,2022.2.4,99.93004927047298,
,,,0,0,0,0,18,0,18,0,,,,,,,,,,,,,,,,,,,,,,,,,,,,,,,,,,,,,,,,,,,,,,,,,,,,,,,,,,,132,001,2023-03-03_15h01.59.818,eb_01,2022.2.4,99.93004927047298,
6,stimuli/6.png,s,0,0,0,0,19,0,19,0,0,0,0,0,,,,,,,,,,,,,,,,,,191.35632235606317,191.35632235606317,191.35632235606317,191.35632235606317,s,1,0.814659476862289,192.20687433952116,192.20687433952116,192.20687433952116,,,,,,,,,,,,,,,,,,,,,,,,,,,,132,001,2023-03-03_15h01.59.818,eb_01,2022.2.4,99.93004927047298,
,,,0,0,0,0,19,0,19,0,,,,,,,,,,,,,,,,,,,,,,,,,,,,,,,,,,,,,,,,,,,,,,,,,,,,,,,,,,,132,001,2023-03-03_15h01.59.818,eb_01,2022.2.4,99.93004927047298,
9,stimuli/9.png,l,0,0,0,0,20,0,20,0,0,0,0,0,,,,,,,,,,,,,,,,,,193.21754665364278,193.21754665364278,193.21754665364278,193.21754665364278,l,1,1.393499099649489,194.63816188435885,194.63816188435885,194.63816188435885,,,,,,,,,,,,,,,,,,,,,,,,,,,,132,001,2023-03-03_15h01.59.818,eb_01,2022.2.4,99.93004927047298,
,,,0,0,0,0,20,0,20,0,,,,,,,,,,,,,,,,,,,,,,,,,,,,,,,,,,,,,,,,,,,,,,,,,,,,,,,,,,,132,001,2023-03-03_15h01.59.818,eb_01,2022.2.4,99.93004927047298,
6,stimuli/6.png,s,0,0,0,0,21,0,21,0,0,0,0,0,,,,,,,,,,,,,,,,,,195.6591877558967,195.6591877558967,195.6591877558967,195.6591877558967,s,1,1.8399426828545984,197.5304374966654,197.5304374966654,197.5304374966654,,,,,,,,,,,,,,,,,,,,,,,,,,,,132,001,2023-03-03_15h01.59.818,eb_01,2022.2.4,99.93004927047298,
,,,0,0,0,0,21,0,21,0,,,,,,,,,,,,,,,,,,,,,,,,,,,,,,,,,,,,,,,,,,,,,,,,,,,,,,,,,,,132,001,2023-03-03_15h01.59.818,eb_01,2022.2.4,99.93004927047298,
8,stimuli/8.png,l,0,0,0,0,22,0,22,0,0,0,0,0,,,,,,,,,,,,,,,,,,198.53114322896,198.53114322896,198.53114322896,198.53114322896,l,1,1.023030705313431,199.58180804506992,199.58180804506992,199.58180804506992,,,,,,,,,,,,,,,,,,,,,,,,,,,,132,001,2023-03-03_15h01.59.818,eb_01,2022.2.4,99.93004927047298,
,,,0,0,0,0,22,0,22,0,,,,,,,,,,,,,,,,,,,,,,,,,,,,,,,,,,,,,,,,,,,,,,,,,,,,,,,,,,,132,001,2023-03-03_15h01.59.818,eb_01,2022.2.4,99.93004927047298,
9,stimuli/9.png,l,0,0,0,0,23,0,23,0,0,0,0,0,,,,,,,,,,,,,,,,,,200.60253025247948,200.60253025247948,200.60253025247948,200.60253025247948,l,1,0.9997427475173026,201.62287755848956,201.62287755848956,201.62287755848956,,,,,,,,,,,,,,,,,,,,,,,,,,,,132,001,2023-03-03_15h01.59.818,eb_01,2022.2.4,99.93004927047298,
,,,0,0,0,0,23,0,23,0,,,,,,,,,,,,,,,,,,,,,,,,,,,,,,,,,,,,,,,,,,,,,,,,,,,,,,,,,,,132,001,2023-03-03_15h01.59.818,eb_01,2022.2.4,99.93004927047298,
6,stimuli/6.png,s,0,0,0,0,24,0,24,0,0,0,0,0,,,,,,,,,,,,,,,,,,202.64388471510028,202.64388471510028,202.64388471510028,202.64388471510028,s,1,0.8624431061907671,203.54446883083438,203.54446883083438,203.54446883083438,,,,,,,,,,,,,,,,,,,,,,,,,,,,132,001,2023-03-03_15h01.59.818,eb_01,2022.2.4,99.93004927047298,
,,,0,0,0,0,24,0,24,0,,,,,,,,,,,,,,,,,,,,,,,,,,,,,,,,,,,,,,,,,,,,,,,,,,,,,,,,,,,132,001,2023-03-03_15h01.59.818,eb_01,2022.2.4,99.93004927047298,
5,stimuli/5.png,s,0,0,0,0,25,0,25,0,0,0,0,0,,,,,,,,,,,,,,,,,,204.5451588667347,204.5451588667347,204.5451588667347,204.5451588667347,s,1,1.16122986850678,205.73594021622557,205.73594021622557,205.73594021622557,,,,,,,,,,,,,,,,,,,,,,,,,,,,132,001,2023-03-03_15h01.59.818,eb_01,2022.2.4,99.93004927047298,
,,,0,0,0,0,25,0,25,0,,,,,,,,,,,,,,,,,,,,,,,,,,,,,,,,,,,,,,,,,,,,,,,,,,,,,,,,,,,132,001,2023-03-03_15h01.59.818,eb_01,2022.2.4,99.93004927047298,
6,stimuli/6.png,s,0,0,0,0,26,0,26,0,0,0,0,0,,,,,,,,,,,,,,,,,,206.75663525686832,206.75663525686832,206.75663525686832,206.75663525686832,s,1,1.2218446645420045,208.0174775896885,208.0174775896885,208.0174775896885,,,,,,,,,,,,,,,,,,,,,,,,,,,,132,001,2023-03-03_15h01.59.818,eb_01,2022.2.4,99.93004927047298,
,,,0,0,0,0,26,0,26,0,,,,,,,,,,,,,,,,,,,,,,,,,,,,,,,,,,,,,,,,,,,,,,,,,,,,,,,,,,,132,001,2023-03-03_15h01.59.818,eb_01,2022.2.4,99.93004927047298,
5,stimuli/5.png,s,0,0,0,0,27,0,27,0,0,0,0,0,,,,,,,,,,,,,,,,,,209.01814830701915,209.01814830701915,209.01814830701915,209.01814830701915,s,1,1.2723941728181671,210.31901996789384,210.31901996789384,210.31901996789384,,,,,,,,,,,,,,,,,,,,,,,,,,,,132,001,2023-03-03_15h01.59.818,eb_01,2022.2.4,99.93004927047298,
,,,0,0,0,0,27,0,27,0,,,,,,,,,,,,,,,,,,,,,,,,,,,,,,,,,,,,,,,,,,,,,,,,,,,,,,,,,,,132,001,2023-03-03_15h01.59.818,eb_01,2022.2.4,99.93004927047298,
6,stimuli/6.png,s,0,0,0,0,28,0,28,0,0,0,0,0,,,,,,,,,,,,,,,,,,211.33972134743817,211.33972134743817,211.33972134743817,211.33972134743817,s,1,0.5188942629320081,211.89009955414804,211.89009955414804,211.89009955414804,,,,,,,,,,,,,,,,,,,,,,,,,,,,132,001,2023-03-03_15h01.59.818,eb_01,2022.2.4,99.93004927047298,
,,,0,0,0,0,28,0,28,0,,,,,,,,,,,,,,,,,,,,,,,,,,,,,,,,,,,,,,,,,,,,,,,,,,,,,,,,,,,132,001,2023-03-03_15h01.59.818,eb_01,2022.2.4,99.93004927047298,
9,stimuli/9.png,l,0,0,0,0,29,0,29,0,0,0,0,0,,,,,,,,,,,,,,,,,,212.900754964503,212.900754964503,212.900754964503,212.900754964503,l,1,1.0929271788045298,214.02118374063866,214.02118374063866,214.02118374063866,,,,,,,,,,,,,,,,,,,,,,,,,,,,132,001,2023-03-03_15h01.59.818,eb_01,2022.2.4,99.93004927047298,
,,,0,0,0,0,29,0,29,0,,,,,,,,,,,,,,,,,,,,,,,,,,,,,,,,,,,,,,,,,,,,,,,,,,,,,,,,,,,132,001,2023-03-03_15h01.59.818,eb_01,2022.2.4,99.93004927047298,
8,stimuli/8.png,l,0,0,0,0,30,0,30,0,0,0,0,0,,,,,,,,,,,,,,,,,,215.03221314685652,215.03221314685652,215.03221314685652,215.03221314685652,l,1,1.3535174643911887,216.4131235415116,216.4131235415116,216.4131235415116,,,,,,,,,,,,,,,,,,,,,,,,,,,,132,001,2023-03-03_15h01.59.818,eb_01,2022.2.4,99.93004927047298,
,,,0,0,0,0,30,0,30,0,,,,,,,,,,,,,,,,,,,,,,,,,,,,,,,,,,,,,,,,,,,,,,,,,,,,,,,,,,,132,001,2023-03-03_15h01.59.818,eb_01,2022.2.4,99.93004927047298,
6,stimuli/6.png,s,0,0,0,0,31,0,31,0,0,0,0,0,,,,,,,,,,,,,,,,,,217.43380771542434,217.43380771542434,217.43380771542434,217.43380771542434,s,1,0.9200034519017208,218.38442969860625,218.38442969860625,218.38442969860625,,,,,,,,,,,,,,,,,,,,,,,,,,,,132,001,2023-03-03_15h01.59.818,eb_01,2022.2.4,99.93004927047298,
,,,0,0,0,0,31,0,31,0,,,,,,,,,,,,,,,,,,,,,,,,,,,,,,,,,,,,,,,,,,,,,,,,,,,,,,,,,,,132,001,2023-03-03_15h01.59.818,eb_01,2022.2.4,99.93004927047298,
5,stimuli/5.png,s,0,0,0,0,32,0,32,0,0,0,0,0,,,,,,,,,,,,,,,,,,219.38511913083494,219.38511913083494,219.38511913083494,219.38511913083494,s,1,0.7287490988092031,220.13561107573332,220.13561107573332,220.13561107573332,,,,,,,,,,,,,,,,,,,,,,,,,,,,132,001,2023-03-03_15h01.59.818,eb_01,2022.2.4,99.93004927047298,
,,,0,0,0,0,32,0,32,0,,,,,,,,,,,,,,,,,,,,,,,,,,,,,,,,,,,,,,,,,,,,,,,,,,,,,,,,,,,132,001,2023-03-03_15h01.59.818,eb_01,2022.2.4,99.93004927047298,
9,stimuli/9.png,l,0,0,0,0,33,0,33,0,0,0,0,0,,,,,,,,,,,,,,,,,,221.15634173501167,221.15634173501167,221.15634173501167,221.15634173501167,l,1,0.9816249276627786,222.16697329899762,222.16697329899762,222.16697329899762,,,,,,,,,,,,,,,,,,,,,,,,,,,,132,001,2023-03-03_15h01.59.818,eb_01,2022.2.4,99.93004927047298,
,,,0,0,0,0,33,0,33,0,,,,,,,,,,,,,,,,,,,,,,,,,,,,,,,,,,,,,,,,,,,,,,,,,,,,,,,,,,,132,001,2023-03-03_15h01.59.818,eb_01,2022.2.4,99.93004927047298,
6,stimuli/6.png,s,0,0,0,0,34,0,34,0,0,0,0,0,,,,,,,,,,,,,,,,,,223.18765958590666,223.18765958590666,223.18765958590666,223.18765958590666,s,1,0.8463289864594117,224.06825922289863,224.06825922289863,224.06825922289863,,,,,,,,,,,,,,,,,,,,,,,,,,,,132,001,2023-03-03_15h01.59.818,eb_01,2022.2.4,99.93004927047298,
,,,0,0,0,0,34,0,34,0,,,,,,,,,,,,,,,,,,,,,,,,,,,,,,,,,,,,,,,,,,,,,,,,,,,,,,,,,,,132,001,2023-03-03_15h01.59.818,eb_01,2022.2.4,99.93004927047298,
5,stimuli/5.png,s,0,0,0,0,35,0,35,0,0,0,0,0,,,,,,,,,,,,,,,,,,225.06891877166345,225.06891877166345,225.06891877166345,225.06891877166345,s,1,2.3092190295865294,227.40048344776733,227.40048344776733,227.40048344776733,,,,,,,,,,,,,,,,,,,,,,,,,,,,132,001,2023-03-03_15h01.59.818,eb_01,2022.2.4,99.93004927047298,
,,,0,0,0,0,35,0,35,0,,,,,,,,,,,,,,,,,,,,,,,,,,,,,,,,,,,,,,,,,,,,,,,,,,,,,,,,,,,132,001,2023-03-03_15h01.59.818,eb_01,2022.2.4,99.93004927047298,
6,stimuli/6.png,s,0,0,0,0,36,0,36,0,0,0,0,0,,,,,,,,,,,,,,,,,,228.4211851291766,228.4211851291766,228.4211851291766,228.4211851291766,s,1,0.9010057305858936,229.36180249700556,229.36180249700556,229.36180249700556,,,,,,,,,,,,,,,,,,,,,,,,,,,,132,001,2023-03-03_15h01.59.818,eb_01,2022.2.4,99.93004927047298,
,,,0,0,0,0,36,0,36,0,,,,,,,,,,,,,,,,,,,,,,,,,,,,,,,,,,,,,,,,,,,,,,,,,,,,,,,,,,,132,001,2023-03-03_15h01.59.818,eb_01,2022.2.4,99.93004927047298,
5,stimuli/5.png,s,0,0,0,0,37,0,37,0,0,0,0,0,,,,,,,,,,,,,,,,,,230.36247985510272,230.36247985510272,230.36247985510272,230.36247985510272,s,1,0.6867296540585812,231.07295273497584,231.07295273497584,231.07295273497584,,,,,,,,,,,,,,,,,,,,,,,,,,,,132,001,2023-03-03_15h01.59.818,eb_01,2022.2.4,99.93004927047298,
,,,0,0,0,0,37,0,37,0,,,,,,,,,,,,,,,,,,,,,,,,,,,,,,,,,,,,,,,,,,,,,,,,,,,,,,,,,,,132,001,2023-03-03_15h01.59.818,eb_01,2022.2.4,99.93004927047298,
9,stimuli/9.png,l,0,0,0,0,38,0,38,0,0,0,0,0,,,,,,,,,,,,,,,,,,232.09363962558564,232.09363962558564,232.09363962558564,232.09363962558564,l,1,2.291753815865377,234.41516738806968,234.41516738806968,234.41516738806968,,,,,,,,,,,,,,,,,,,,,,,,,,,,132,001,2023-03-03_15h01.59.818,eb_01,2022.2.4,99.93004927047298,
,,,0,0,0,0,38,0,38,0,,,,,,,,,,,,,,,,,,,,,,,,,,,,,,,,,,,,,,,,,,,,,,,,,,,,,,,,,,,132,001,2023-03-03_15h01.59.818,eb_01,2022.2.4,99.93004927047298,
6,stimuli/6.png,s,0,0,0,0,39,0,39,0,0,0,0,0,,,,,,,,,,,,,,,,,,235.43591012147954,235.43591012147954,235.43591012147954,235.43591012147954,s,1,2.1895231524831615,237.65738448617049,237.65738448617049,237.65738448617049,,,,,,,,,,,,,,,,,,,,,,,,,,,,132,001,2023-03-03_15h01.59.818,eb_01,2022.2.4,99.93004927047298,
,,,0,0,0,0,39,0,39,0,,,,,,,,,,,,,,,,,,,,,,,,,,,,,,,,,,,,,,,,,,,,,,,,,,,,,,,,,,,132,001,2023-03-03_15h01.59.818,eb_01,2022.2.4,99.93004927047298,
8,stimuli/8.png,l,0,0,0,0,40,0,40,0,0,0,0,0,,,,,,,,,,,,,,,,,,238.65804312936962,238.65804312936962,238.65804312936962,238.65804312936962,l,1,0.8234542653954122,239.50861262029503,239.50861262029503,239.50861262029503,,,,,,,,,,,,,,,,,,,,,,,,,,,,132,001,2023-03-03_15h01.59.818,eb_01,2022.2.4,99.93004927047298,
,,,0,0,0,0,40,0,40,0,,,,,,,,,,,,,,,,,,,,,,,,,,,,,,,,,,,,,,,,,,,,,,,,,,,,,,,,,,,132,001,2023-03-03_15h01.59.818,eb_01,2022.2.4,99.93004927047298,
9,stimuli/9.png,l,0,0,0,0,41,0,41,0,0,0,0,0,,,,,,,,,,,,,,,,,,240.5293004164705,240.5293004164705,240.5293004164705,240.5293004164705,l,1,1.2562390010862146,241.81015288553317,241.81015288553317,241.81015288553317,,,,,,,,,,,,,,,,,,,,,,,,,,,,132,001,2023-03-03_15h01.59.818,eb_01,2022.2.4,99.93004927047298,
,,,0,0,0,0,41,0,41,0,,,,,,,,,,,,,,,,,,,,,,,,,,,,,,,,,,,,,,,,,,,,,,,,,,,,,,,,,,,132,001,2023-03-03_15h01.59.818,eb_01,2022.2.4,99.93004927047298,
8,stimuli/8.png,l,0,0,0,0,42,0,42,0,0,0,0,0,,,,,,,,,,,,,,,,,,242.82085930905305,242.82085930905305,242.82085930905305,242.82085930905305,l,1,0.9567606936034281,243.80150751420297,243.80150751420297,243.80150751420297,,,,,,,,,,,,,,,,,,,,,,,,,,,,132,001,2023-03-03_15h01.59.818,eb_01,2022.2.4,99.93004927047298,
,,,0,0,0,0,42,0,42,0,,,,,,,,,,,,,,,,,,,,,,,,,,,,,,,,,,,,,,,,,,,,,,,,,,,,,,,,,,,132,001,2023-03-03_15h01.59.818,eb_01,2022.2.4,99.93004927047298,
9,stimuli/9.png,l,0,0,0,0,43,0,43,0,0,0,0,0,,,,,,,,,,,,,,,,,,244.8221817269805,244.8221817269805,244.8221817269805,244.8221817269805,l,1,0.4984980567242019,245.3425578599563,245.3425578599563,245.3425578599563,,,,,,,,,,,,,,,,,,,,,,,,,,,,132,001,2023-03-03_15h01.59.818,eb_01,2022.2.4,99.93004927047298,
,,,0,0,0,0,43,0,43,0,,,,,,,,,,,,,,,,,,,,,,,,,,,,,,,,,,,,,,,,,,,,,,,,,,,,,,,,,,,132,001,2023-03-03_15h01.59.818,eb_01,2022.2.4,99.93004927047298,
8,stimuli/8.png,l,0,0,0,0,44,0,44,0,0,0,0,0,,,,,,,,,,,,,,,,,,246.3532075351104,246.3532075351104,246.3532075351104,246.3532075351104,l,1,0.47150877764215693,246.85354576137615,246.85354576137615,246.85354576137615,,,,,,,,,,,,,,,,,,,,,,,,,,,,132,001,2023-03-03_15h01.59.818,eb_01,2022.2.4,99.93004927047298,
,,,0,0,0,0,44,0,44,0,,,,,,,,,,,,,,,,,,,,,,,,,,,,,,,,,,,,,,,,,,,,,,,,,,,,,,,,,,,132,001,2023-03-03_15h01.59.818,eb_01,2022.2.4,99.93004927047298,
3,stimuli/3.png,l,0,0,0,0,45,0,45,0,0,0,0,0,,,,,,,,,,,,,,,,,,247.86426093862974,247.86426093862974,247.86426093862974,247.86426093862974,l,1,0.5925008114427328,248.50464838504558,248.50464838504558,248.50464838504558,,,,,,,,,,,,,,,,,,,,,,,,,,,,132,001,2023-03-03_15h01.59.818,eb_01,2022.2.4,99.93004927047298,
,,,0,0,0,0,45,0,45,0,,,,,,,,,,,,,,,,,,,,,,,,,,,,,,,,,,,,,,,,,,,,,,,,,,,,,,,,,,,132,001,2023-03-03_15h01.59.818,eb_01,2022.2.4,99.93004927047298,
8,stimuli/8.png,l,0,0,0,0,46,0,46,0,0,0,0,0,,,,,,,,,,,,,,,,,,249.51533971593017,249.51533971593017,249.51533971593017,249.51533971593017,l,1,1.0134885287552606,250.55602738531888,250.55602738531888,250.55602738531888,,,,,,,,,,,,,,,,,,,,,,,,,,,,132,001,2023-03-03_15h01.59.818,eb_01,2022.2.4,99.93004927047298,
,,,0,0,0,0,46,0,46,0,,,,,,,,,,,,,,,,,,,,,,,,,,,,,,,,,,,,,,,,,,,,,,,,,,,,,,,,,,,132,001,2023-03-03_15h01.59.818,eb_01,2022.2.4,99.93004927047298,
6,stimuli/6.png,s,0,0,0,0,47,0,47,0,0,0,0,0,,,,,,,,,,,,,,,,,,251.57666779059218,251.57666779059218,251.57666779059218,251.57666779059218,s,1,0.752220885042334,252.36729259908316,252.36729259908316,252.36729259908316,,,,,,,,,,,,,,,,,,,,,,,,,,,,132,001,2023-03-03_15h01.59.818,eb_01,2022.2.4,99.93004927047298,
,,,0,0,0,0,47,0,47,0,,,,,,,,,,,,,,,,,,,,,,,,,,,,,,,,,,,,,,,,,,,,,,,,,,,,,,,,,,,132,001,2023-03-03_15h01.59.818,eb_01,2022.2.4,99.93004927047298,
9,stimuli/9.png,l,0,0,0,0,48,0,48,0,0,0,0,0,,,,,,,,,,,,,,,,,,253.37795163170085,253.37795163170085,253.37795163170085,253.37795163170085,l,1,0.983028845890658,254.38829522792366,254.38829522792366,254.38829522792366,,,,,,,,,,,,,,,,,,,,,,,,,,,,132,001,2023-03-03_15h01.59.818,eb_01,2022.2.4,99.93004927047298,
,,,0,0,0,0,48,0,48,0,,,,,,,,,,,,,,,,,,,,,,,,,,,,,,,,,,,,,,,,,,,,,,,,,,,,,,,,,,,132,001,2023-03-03_15h01.59.818,eb_01,2022.2.4,99.93004927047298,
8,stimuli/8.png,l,0,0,0,0,49,0,49,0,0,0,0,0,,,,,,,,,,,,,,,,,,255.39928297844017,255.39928297844017,255.39928297844017,255.39928297844017,l,1,0.8897502364998218,256.3098919336335,256.3098919336335,256.3098919336335,,,,,,,,,,,,,,,,,,,,,,,,,,,,132,001,2023-03-03_15h01.59.818,eb_01,2022.2.4,99.93004927047298,
,,,0,0,0,0,49,0,49,0,,,,,,,,,,,,,,,,,,,,,,,,,,,,,,,,,,,,,,,,,,,,,,,,,,,,,,,,,,,132,001,2023-03-03_15h01.59.818,eb_01,2022.2.4,99.93004927047298,
6,stimuli/6.png,s,0,0,0,0,50,0,50,0,0,0,0,0,,,,,,,,,,,,,,,,,,257.3305791261082,257.3305791261082,257.3305791261082,257.3305791261082,s,1,1.110492305830121,258.47133800262236,258.47133800262236,258.47133800262236,,,,,,,,,,,,,,,,,,,,,,,,,,,,132,001,2023-03-03_15h01.59.818,eb_01,2022.2.4,99.93004927047298,
,,,0,0,0,0,50,0,50,0,,,,,,,,,,,,,,,,,,,,,,,,,,,,,,,,,,,,,,,,,,,,,,,,,,,,,,,,,,,132,001,2023-03-03_15h01.59.818,eb_01,2022.2.4,99.93004927047298,
8,stimuli/8.png,l,0,0,0,0,51,0,51,0,0,0,0,0,,,,,,,,,,,,,,,,,,259.4720304533548,259.4720304533548,259.4720304533548,259.4720304533548,l,1,1.7371303487743717,261.23319290127256,261.23319290127256,261.23319290127256,,,,,,,,,,,,,,,,,,,,,,,,,,,,132,001,2023-03-03_15h01.59.818,eb_01,2022.2.4,99.93004927047298,
,,,0,0,0,0,51,0,51,0,,,,,,,,,,,,,,,,,,,,,,,,,,,,,,,,,,,,,,,,,,,,,,,,,,,,,,,,,,,132,001,2023-03-03_15h01.59.818,eb_01,2022.2.4,99.93004927047298,
9,stimuli/9.png,l,0,0,0,0,52,0,52,0,0,0,0,0,,,,,,,,,,,,,,,,,,262.2538855271123,262.2538855271123,262.2538855271123,262.2538855271123,l,1,2.5544033425103407,264.83568753508735,264.83568753508735,264.83568753508735,,,,,,,,,,,,,,,,,,,,,,,,,,,,132,001,2023-03-03_15h01.59.818,eb_01,2022.2.4,99.93004927047298,
,,,0,0,0,0,52,0,52,0,,,,,,,,,,,,,,,,,,,,,,,,,,,,,,,,,,,,,,,,,,,,,,,,,,,,,,,,,,,132,001,2023-03-03_15h01.59.818,eb_01,2022.2.4,99.93004927047298,
6,stimuli/6.png,s,0,0,0,0,53,0,53,0,0,0,0,0,,,,,,,,,,,,,,,,,,265.85631828103215,265.85631828103215,265.85631828103215,265.85631828103215,s,1,1.5680621900537517,267.4573866594874,267.4573866594874,267.4573866594874,,,,,,,,,,,,,,,,,,,,,,,,,,,,132,001,2023-03-03_15h01.59.818,eb_01,2022.2.4,99.93004927047298,
,,,0,0,0,0,53,0,53,0,,,,,,,,,,,,,,,,,,,,,,,,,,,,,,,,,,,,,,,,,,,,,,,,,,,,,,,,,,,132,001,2023-03-03_15h01.59.818,eb_01,2022.2.4,99.93004927047298,
5,stimuli/5.png,s,0,0,0,0,54,0,54,0,0,0,0,0,,,,,,,,,,,,,,,,,,268.45805526385084,268.45805526385084,268.45805526385084,268.45805526385084,s,1,0.6783761745609809,269.15852413210087,269.15852413210087,269.15852413210087,,,,,,,,,,,,,,,,,,,,,,,,,,,,132,001,2023-03-03_15h01.59.818,eb_01,2022.2.4,99.93004927047298,
,,,0,0,0,0,54,0,54,0,,,,,,,,,,,,,,,,,,,,,,,,,,,,,,,,,,,,,,,,,,,,,,,,,,,,,,,,,,,132,001,2023-03-03_15h01.59.818,eb_01,2022.2.4,99.93004927047298,
9,stimuli/9.png,l,0,0,0,0,55,0,55,0,0,0,0,0,,,,,,,,,,,,,,,,,,270.17922158757574,270.17922158757574,270.17922158757574,270.17922158757574,l,1,0.5733044708613306,270.77930049193674,270.77930049193674,270.77930049193674,,,,,,,,,,,,,,,,,,,,,,,,,,,,132,001,2023-03-03_15h01.59.818,eb_01,2022.2.4,99.93004927047298,
,,,0,0,0,0,55,0,55,0,,,,,,,,,,,,,,,,,,,,,,,,,,,,,,,,,,,,,,,,,,,,,,,,,,,,,,,,,,,132,001,2023-03-03_15h01.59.818,eb_01,2022.2.4,99.93004927047298,
5,stimuli/5.png,s,0,0,0,0,56,0,56,0,0,0,0,0,,,,,,,,,,,,,,,,,,271.79030574992066,271.79030574992066,271.79030574992066,271.79030574992066,s,1,0.5462309748108964,272.3606639075442,272.3606639075442,272.3606639075442,,,,,,,,,,,,,,,,,,,,,,,,,,,,132,001,2023-03-03_15h01.59.818,eb_01,2022.2.4,99.93004927047298,
,,,0,0,0,0,56,0,56,0,,,,,,,,,,,,,,,,,,,,,,,,,,,,,,,,,,,,,,,,,,,,,,,,,,,,,,,,,,,132,001,2023-03-03_15h01.59.818,eb_01,2022.2.4,99.93004927047298,
9,stimuli/9.png,l,0,0,0,0,57,0,57,0,0,0,0,0,,,,,,,,,,,,,,,,,,273.38137283342076,273.38137283342076,273.38137283342076,273.38137283342076,l,1,0.5631824347074144,273.97144651875715,273.97144651875715,273.97144651875715,,,,,,,,,,,,,,,,,,,,,,,,,,,,132,001,2023-03-03_15h01.59.818,eb_01,2022.2.4,99.93004927047298,
,,,0,0,0,0,57,0,57,0,,,,,,,,,,,,,,,,,,,,,,,,,,,,,,,,,,,,,,,,,,,,,,,,,,,,,,,,,,,132,001,2023-03-03_15h01.59.818,eb_01,2022.2.4,99.93004927047298,
8,stimuli/8.png,l,0,0,0,0,58,0,58,0,0,0,0,0,,,,,,,,,,,,,,,,,,274.9824442304089,274.9824442304089,274.9824442304089,274.9824442304089,l,1,0.5941990363353398,275.60284991477965,275.60284991477965,275.60284991477965,,,,,,,,,,,,,,,,,,,,,,,,,,,,132,001,2023-03-03_15h01.59.818,eb_01,2022.2.4,99.93004927047298,
,,,0,0,0,0,58,0,58,0,,,,,,,,,,,,,,,,,,,,,,,,,,,,,,,,,,,,,,,,,,,,,,,,,,,,,,,,,,,132,001,2023-03-03_15h01.59.818,eb_01,2022.2.4,99.93004927047298,
3,stimuli/3.png,l,0,0,0,0,59,0,59,0,0,0,0,0,,,,,,,,,,,,,,,,,,276.6135385289672,276.6135385289672,276.6135385289672,276.6135385289672,l,1,0.6661613916512579,277.2936929932039,277.2936929932039,277.2936929932039,278.3046876863227,278.3046876863227,278.3046876863227,,,,,,,,,,,,,,,,,,,,,,,,,132,001,2023-03-03_15h01.59.818,eb_01,2022.2.4,99.93004927047298,
,,,0,0,0,0,59,0,59,0,,,,,,,,,,,,,,,,,,,,,,,,,,,,,,,,,,,,,,,,,,,,,,,,,,,,,,,,,,,132,001,2023-03-03_15h01.59.818,eb_01,2022.2.4,99.93004927047298,
2,stimuli/2.png,s,0,0,0,0,60,0,60,0,0,0,0,0,,,,,,,,,,,,,,,,,,278.3046876863227,278.3046876863227,278.3046876863227,278.3046876863227,s,1,0.8550582729221787,279.1749147491937,279.1749147491937,279.1749147491937,280.1859275534807,280.1859275534807,280.1859275534807,,,,,,,,,,,,,,,,,,,,,,,,,132,001,2023-03-03_15h01.59.818,eb_01,2022.2.4,99.93004927047298,
,,,0,0,0,0,60,0,60,0,,,,,,,,,,,,,,,,,,,,,,,,,,,,,,,,,,,,,,,,,,,,,,,,,,,,,,,,,,,132,001,2023-03-03_15h01.59.818,eb_01,2022.2.4,99.93004927047298,
3,stimuli/3.png,l,0,0,0,0,61,0,61,0,0,0,0,0,,,,,,,,,,,,,,,,,,280.1859275534807,280.1859275534807,280.1859275534807,280.1859275534807,l,1,0.5738813119241968,280.7760033517843,280.7760033517843,280.7760033517843,281.78700317640323,281.78700317640323,281.78700317640323,,,,,,,,,,,,,,,,,,,,,,,,,132,001,2023-03-03_15h01.59.818,eb_01,2022.2.4,99.93004927047298,
,,,0,0,0,0,61,0,61,0,,,,,,,,,,,,,,,,,,,,,,,,,,,,,,,,,,,,,,,,,,,,,,,,,,,,,,,,,,,132,001,2023-03-03_15h01.59.818,eb_01,2022.2.4,99.93004927047298,
2,stimuli/2.png,s,0,0,0,0,62,0,62,0,0,0,0,0,,,,,,,,,,,,,,,,,,281.78700317640323,281.78700317640323,281.78700317640323,281.78700317640323,s,1,0.7408781554258894,282.54752750712214,282.54752750712214,282.54752750712214,283.55814578957506,283.55814578957506,283.55814578957506,,,,,,,,,,,,,,,,,,,,,,,,,132,001,2023-03-03_15h01.59.818,eb_01,2022.2.4,99.93004927047298,
,,,0,0,0,0,62,0,62,0,,,,,,,,,,,,,,,,,,,,,,,,,,,,,,,,,,,,,,,,,,,,,,,,,,,,,,,,,,,132,001,2023-03-03_15h01.59.818,eb_01,2022.2.4,99.93004927047298,
3,stimuli/3.png,l,0,0,0,0,63,0,63,0,0,0,0,0,,,,,,,,,,,,,,,,,,283.55814578957506,283.55814578957506,283.55814578957506,283.55814578957506,l,1,2.2018097763648257,285.7793593532697,285.7793593532697,285.7793593532697,286.7903842316882,286.7903842316882,286.7903842316882,,,,,,,,,,,,,,,,,,,,,,,,,132,001,2023-03-03_15h01.59.818,eb_01,2022.2.4,99.93004927047298,
,,,0,0,0,0,63,0,63,0,,,,,,,,,,,,,,,,,,,,,,,,,,,,,,,,,,,,,,,,,,,,,,,,,,,,,,,,,,,132,001,2023-03-03_15h01.59.818,eb_01,2022.2.4,99.93004927047298,
8,stimuli/8.png,l,0,0,0,0,64,0,64,0,0,0,0,0,,,,,,,,,,,,,,,,,,286.7903842316882,286.7903842316882,286.7903842316882,286.7903842316882,l,1,0.5616414752439596,287.3807709385874,287.3807709385874,287.3807709385874,,,,,,,,,,,,,,,,,,,,,,,,,,,,132,001,2023-03-03_15h01.59.818,eb_01,2022.2.4,99.93004927047298,
,,,0,0,0,0,64,0,64,0,,,,,,,,,,,,,,,,,,,,,,,,,,,,,,,,,,,,,,,,,,,,,,,,,,,,,,,,,,,132,001,2023-03-03_15h01.59.818,eb_01,2022.2.4,99.93004927047298,
9,stimuli/9.png,l,0,0,0,0,65,0,65,0,0,0,0,0,,,,,,,,,,,,,,,,,,288.4014840903983,288.4014840903983,288.4014840903983,288.4014840903983,l,1,0.7345914633478969,289.1616320104222,289.1616320104222,289.1616320104222,,,,,,,,,,,,,,,,,,,,,,,,,,,,132,001,2023-03-03_15h01.59.818,eb_01,2022.2.4,99.93004927047298,
,,,0,0,0,0,65,0,65,0,,,,,,,,,,,,,,,,,,,,,,,,,,,,,,,,,,,,,,,,,,,,,,,,,,,,,,,,,,,132,001,2023-03-03_15h01.59.818,eb_01,2022.2.4,99.93004927047298,
6,stimuli/6.png,s,0,0,0,0,66,0,66,0,0,0,0,0,,,,,,,,,,,,,,,,,,290.18267870979616,290.18267870979616,290.18267870979616,290.18267870979616,s,1,0.4494418152025901,290.6629766145488,290.6629766145488,290.6629766145488,,,,,,,,,,,,,,,,,,,,,,,,,,,,132,001,2023-03-03_15h01.59.818,eb_01,2022.2.4,99.93004927047298,
,,,0,0,0,0,66,0,66,0,,,,,,,,,,,,,,,,,,,,,,,,,,,,,,,,,,,,,,,,,,,,,,,,,,,,,,,,,,,132,001,2023-03-03_15h01.59.818,eb_01,2022.2.4,99.93004927047298,
8,stimuli/8.png,l,0,0,0,0,67,0,67,0,0,0,0,0,,,,,,,,,,,,,,,,,,291.66363525777706,291.66363525777706,291.66363525777706,291.66363525777706,l,1,0.6005596824397799,292.28405935518094,292.28405935518094,292.28405935518094,,,,,,,,,,,,,,,,,,,,,,,,,,,,132,001,2023-03-03_15h01.59.818,eb_01,2022.2.4,99.93004927047298,
,,,0,0,0,0,67,0,67,0,,,,,,,,,,,,,,,,,,,,,,,,,,,,,,,,,,,,,,,,,,,,,,,,,,,,,,,,,,,132,001,2023-03-03_15h01.59.818,eb_01,2022.2.4,99.93004927047298,
3,stimuli/3.png,l,0,0,0,0,68,0,68,0,0,0,0,0,,,,,,,,,,,,,,,,,,293.2947289526346,293.2947289526346,293.2947289526346,293.2947289526346,l,1,0.5524844630854204,293.8647925017576,293.8647925017576,293.8647925017576,294.8758089282783,294.8758089282783,294.8758089282783,,,,,,,,,,,,,,,,,,,,,,,,,132,001,2023-03-03_15h01.59.818,eb_01,2022.2.4,99.93004927047298,
,,,0,0,0,0,68,0,68,0,,,,,,,,,,,,,,,,,,,,,,,,,,,,,,,,,,,,,,,,,,,,,,,,,,,,,,,,,,,132,001,2023-03-03_15h01.59.818,eb_01,2022.2.4,99.93004927047298,
2,stimuli/2.png,s,0,0,0,0,69,0,69,0,0,0,0,0,,,,,,,,,,,,,,,,,,294.8758089282783,294.8758089282783,294.8758089282783,294.8758089282783,s,1,0.7554624842887279,295.645988328557,295.645988328557,295.645988328557,296.65698966244236,296.65698966244236,296.65698966244236,,,,,,,,,,,,,,,,,,,,,,,,,132,001,2023-03-03_15h01.59.818,eb_01,2022.2.4,99.93004927047298,
,,,0,0,0,0,69,0,69,0,,,,,,,,,,,,,,,,,,,,,,,,,,,,,,,,,,,,,,,,,,,,,,,,,,,,,,,,,,,132,001,2023-03-03_15h01.59.818,eb_01,2022.2.4,99.93004927047298,
3,stimuli/3.png,l,0,0,0,0,70,0,70,0,0,0,0,0,,,,,,,,,,,,,,,,,,296.65698966244236,296.65698966244236,296.65698966244236,296.65698966244236,l,1,0.8703471266198903,297.53727175010135,297.53727175010135,297.53727175010135,298.5482567839208,298.5482567839208,298.5482567839208,,,,,,,,,,,,,,,,,,,,,,,,,132,001,2023-03-03_15h01.59.818,eb_01,2022.2.4,99.93004927047298,
,,,0,0,0,0,70,0,70,0,,,,,,,,,,,,,,,,,,,,,,,,,,,,,,,,,,,,,,,,,,,,,,,,,,,,,,,,,,,132,001,2023-03-03_15h01.59.818,eb_01,2022.2.4,99.93004927047298,
2,stimuli/2.png,s,0,0,0,0,71,0,71,0,0,0,0,0,,,,,,,,,,,,,,,,,,298.5482567839208,298.5482567839208,298.5482567839208,298.5482567839208,s,1,0.6831294534786139,299.24839723613695,299.24839723613695,299.24839723613695,300.259359329124,300.259359329124,300.259359329124,,,,,,,,,,,,,,,,,,,,,,,,,132,001,2023-03-03_15h01.59.818,eb_01,2022.2.4,99.93004927047298,
,,,0,0,0,0,71,0,71,0,,,,,,,,,,,,,,,,,,,,,,,,,,,,,,,,,,,,,,,,,,,,,,,,,,,,,,,,,,,132,001,2023-03-03_15h01.59.818,eb_01,2022.2.4,99.93004927047298,
3,stimuli/3.png,l,0,0,0,0,72,0,72,0,0,0,0,0,,,,,,,,,,,,,,,,,,300.259359329124,300.259359329124,300.259359329124,300.259359329124,l,1,0.7401048080937471,301.00962397872354,301.00962397872354,301.00962397872354,302.0202748613083,302.0202748613083,302.0202748613083,,,,,,,,,,,,,,,,,,,,,,,,,132,001,2023-03-03_15h01.59.818,eb_01,2022.2.4,99.93004927047298,
,,,0,0,0,0,72,0,72,0,,,,,,,,,,,,,,,,,,,,,,,,,,,,,,,,,,,,,,,,,,,,,,,,,,,,,,,,,,,132,001,2023-03-03_15h01.59.818,eb_01,2022.2.4,99.93004927047298,
4,stimuli/4.png,l,0,0,0,0,73,0,73,0,0,0,0,0,,,,,,,,,,,,,,,,,,302.0202748613083,302.0202748613083,302.0202748613083,302.0202748613083,l,1,1.3632344138168264,303.4115463596536,303.4115463596536,303.4115463596536,,,,,,,,,,,,,,,,,,,,,,,,,,,,132,001,2023-03-03_15h01.59.818,eb_01,2022.2.4,99.93004927047298,
,,,0,0,0,0,73,0,73,0,,,,,,,,,,,,,,,,,,,,,,,,,,,,,,,,,,,,,,,,,,,,,,,,,,,,,,,,,,,132,001,2023-03-03_15h01.59.818,eb_01,2022.2.4,99.93004927047298,
2,stimuli/2.png,s,0,0,0,0,74,0,74,0,0,0,0,0,,,,,,,,,,,,,,,,,,304.42220297743916,304.42220297743916,304.42220297743916,304.42220297743916,s,1,0.977380270982394,305.4125802061171,305.4125802061171,305.4125802061171,306.42324044613633,306.42324044613633,306.42324044613633,,,,,,,,,,,,,,,,,,,,,,,,,132,001,2023-03-03_15h01.59.818,eb_01,2022.2.4,99.93004927047298,
,,,0,0,0,0,74,0,74,0,,,,,,,,,,,,,,,,,,,,,,,,,,,,,,,,,,,,,,,,,,,,,,,,,,,,,,,,,,,132,001,2023-03-03_15h01.59.818,eb_01,2022.2.4,99.93004927047298,
4,stimuli/4.png,l,0,0,0,0,75,0,75,0,0,0,0,0,,,,,,,,,,,,,,,,,,306.42324044613633,306.42324044613633,306.42324044613633,306.42324044613633,l,1,1.0483863560366444,307.49425679419073,307.49425679419073,307.49425679419073,,,,,,,,,,,,,,,,,,,,,,,,,,,,132,001,2023-03-03_15h01.59.818,eb_01,2022.2.4,99.93004927047298,
,,,0,0,0,0,75,0,75,0,,,,,,,,,,,,,,,,,,,,,,,,,,,,,,,,,,,,,,,,,,,,,,,,,,,,,,,,,,,132,001,2023-03-03_15h01.59.818,eb_01,2022.2.4,99.93004927047298,
2,stimuli/2.png,s,0,0,0,0,76,0,76,0,0,0,0,0,,,,,,,,,,,,,,,,,,308.50494963434176,308.50494963434176,308.50494963434176,308.50494963434176,s,1,0.7337604620552156,309.25514093367383,309.25514093367383,309.25514093367383,310.2658367923286,310.2658367923286,310.2658367923286,,,,,,,,,,,,,,,,,,,,,,,,,132,001,2023-03-03_15h01.59.818,eb_01,2022.2.4,99.93004927047298,
,,,0,0,0,0,76,0,76,0,,,,,,,,,,,,,,,,,,,,,,,,,,,,,,,,,,,,,,,,,,,,,,,,,,,,,,,,,,,132,001,2023-03-03_15h01.59.818,eb_01,2022.2.4,99.93004927047298,
4,stimuli/4.png,l,0,0,0,0,77,0,77,0,0,0,0,0,,,,,,,,,,,,,,,,,,310.2658367923286,310.2658367923286,310.2658367923286,310.2658367923286,l,1,0.7089626356610097,310.99657185567776,310.99657185567776,310.99657185567776,,,,,,,,,,,,,,,,,,,,,,,,,,,,132,001,2023-03-03_15h01.59.818,eb_01,2022.2.4,99.93004927047298,
,,,0,0,0,0,77,0,77,0,,,,,,,,,,,,,,,,,,,,,,,,,,,,,,,,,,,,,,,,,,,,,,,,,,,,,,,,,,,132,001,2023-03-03_15h01.59.818,eb_01,2022.2.4,99.93004927047298,
3,stimuli/3.png,l,0,0,0,0,78,0,78,0,0,0,0,0,,,,,,,,,,,,,,,,,,312.0073148033989,312.0073148033989,312.0073148033989,312.0073148033989,l,1,0.7675408296054229,312.78750153569854,312.78750153569854,312.78750153569854,313.7981871313532,313.7981871313532,313.7981871313532,,,,,,,,,,,,,,,,,,,,,,,,,132,001,2023-03-03_15h01.59.818,eb_01,2022.2.4,99.93004927047298,
,,,0,0,0,0,78,0,78,0,,,,,,,,,,,,,,,,,,,,,,,,,,,,,,,,,,,,,,,,,,,,,,,,,,,,,,,,,,,132,001,2023-03-03_15h01.59.818,eb_01,2022.2.4,99.93004927047298,
4,stimuli/4.png,l,0,0,0,0,79,0,79,0,0,0,0,0,,,,,,,,,,,,,,,,,,313.7981871313532,313.7981871313532,313.7981871313532,313.7981871313532,l,1,0.8246825052192435,314.6490714549436,314.6490714549436,314.6490714549436,,,,,,,,,,,,,,,,,,,,,,,,,,,,132,001,2023-03-03_15h01.59.818,eb_01,2022.2.4,99.93004927047298,
,,,0,0,0,0,79,0,79,0,,,,,,,,,,,,,,,,,,,,,,,,,,,,,,,,,,,,,,,,,,,,,,,,,,,,,,,,,,,132,001,2023-03-03_15h01.59.818,eb_01,2022.2.4,99.93004927047298,
1,stimuli/1.png,s,0,0,0,0,80,0,80,0,0,0,0,0,,,,,,,,,,,,,,,,,,315.6697701178491,315.6697701178491,315.6697701178491,315.6697701178491,l,0,2.9212316916964483,318.621747420897,318.621747420897,318.621747420897,,,,,,,,,,,,,,,,,,,,,,,,,,,,132,001,2023-03-03_15h01.59.818,eb_01,2022.2.4,99.93004927047298,
,,,0,0,0,0,80,0,80,0,,,,,,,,,,,,,,,,,,,,,,,,,,,,,,,,,,,,,,,,,,,,,,,,,,,,,,,,,,,132,001,2023-03-03_15h01.59.818,eb_01,2022.2.4,99.93004927047298,
4,stimuli/4.png,l,0,0,0,0,81,0,81,0,0,0,0,0,,,,,,,,,,,,,,,,,,319.62210119259544,319.62210119259544,319.62210119259544,319.62210119259544,l,1,0.6569612145249266,320.302872342465,320.302872342465,320.302872342465,,,,,,,,,,,,,,,,,,,,,,,,,,,,132,001,2023-03-03_15h01.59.818,eb_01,2022.2.4,99.93004927047298,
,,,0,0,0,0,81,0,81,0,,,,,,,,,,,,,,,,,,,,,,,,,,,,,,,,,,,,,,,,,,,,,,,,,,,,,,,,,,,132,001,2023-03-03_15h01.59.818,eb_01,2022.2.4,99.93004927047298,
2,stimuli/2.png,s,0,0,0,0,82,0,82,0,0,0,0,0,,,,,,,,,,,,,,,,,,321.3135395250865,321.3135395250865,321.3135395250865,321.3135395250865,s,1,0.6695943656377494,321.99368553742534,321.99368553742534,321.99368553742534,323.0046986435773,323.0046986435773,323.0046986435773,,,,,,,,,,,,,,,,,,,,,,,,,132,001,2023-03-03_15h01.59.818,eb_01,2022.2.4,99.93004927047298,
,,,0,0,0,0,82,0,82,0,,,,,,,,,,,,,,,,,,,,,,,,,,,,,,,,,,,,,,,,,,,,,,,,,,,,,,,,,,,132,001,2023-03-03_15h01.59.818,eb_01,2022.2.4,99.93004927047298,
3,stimuli/3.png,l,0,0,0,0,83,0,83,0,0,0,0,0,,,,,,,,,,,,,,,,,,323.0046986435773,323.0046986435773,323.0046986435773,323.0046986435773,l,1,0.7454974116990343,323.76488731376594,323.76488731376594,323.76488731376594,324.7755523834203,324.7755523834203,324.7755523834203,,,,,,,,,,,,,,,,,,,,,,,,,132,001,2023-03-03_15h01.59.818,eb_01,2022.2.4,99.93004927047298,
,,,0,0,0,0,83,0,83,0,,,,,,,,,,,,,,,,,,,,,,,,,,,,,,,,,,,,,,,,,,,,,,,,,,,,,,,,,,,132,001,2023-03-03_15h01.59.818,eb_01,2022.2.4,99.93004927047298,
4,stimuli/4.png,l,0,0,0,0,84,0,84,0,0,0,0,0,,,,,,,,,,,,,,,,,,324.7755523834203,324.7755523834203,324.7755523834203,324.7755523834203,l,1,0.8946707419818267,325.6965004070662,325.6965004070662,325.6965004070662,,,,,,,,,,,,,,,,,,,,,,,,,,,,132,001,2023-03-03_15h01.59.818,eb_01,2022.2.4,99.93004927047298,
,,,0,0,0,0,84,0,84,0,,,,,,,,,,,,,,,,,,,,,,,,,,,,,,,,,,,,,,,,,,,,,,,,,,,,,,,,,,,132,001,2023-03-03_15h01.59.818,eb_01,2022.2.4,99.93004927047298,
2,stimuli/2.png,s,0,0,0,0,85,0,85,0,0,0,0,0,,,,,,,,,,,,,,,,,,326.70717634342145,326.70717634342145,326.70717634342145,326.70717634342145,s,1,0.8351248073740862,327.55742556834593,327.55742556834593,327.55742556834593,328.568435655965,328.568435655965,328.568435655965,,,,,,,,,,,,,,,,,,,,,,,,,132,001,2023-03-03_15h01.59.818,eb_01,2022.2.4,99.93004927047298,
,,,0,0,0,0,85,0,85,0,,,,,,,,,,,,,,,,,,,,,,,,,,,,,,,,,,,,,,,,,,,,,,,,,,,,,,,,,,,132,001,2023-03-03_15h01.59.818,eb_01,2022.2.4,99.93004927047298,
3,stimuli/3.png,l,0,0,0,0,86,0,86,0,0,0,0,0,,,,,,,,,,,,,,,,,,328.568435655965,328.568435655965,328.568435655965,328.568435655965,l,1,0.6858905027620494,329.268584258185,329.268584258185,329.268584258185,330.2795804605994,330.2795804605994,330.2795804605994,,,,,,,,,,,,,,,,,,,,,,,,,132,001,2023-03-03_15h01.59.818,eb_01,2022.2.4,99.93004927047298,
,,,0,0,0,0,86,0,86,0,,,,,,,,,,,,,,,,,,,,,,,,,,,,,,,,,,,,,,,,,,,,,,,,,,,,,,,,,,,132,001,2023-03-03_15h01.59.818,eb_01,2022.2.4,99.93004927047298,
8,stimuli/8.png,l,0,0,0,0,87,0,87,0,0,0,0,0,,,,,,,,,,,,,,,,,,330.2795804605994,330.2795804605994,330.2795804605994,330.2795804605994,l,1,0.7828133832372259,331.09012666053604,331.09012666053604,331.09012666053604,,,,,,,,,,,,,,,,,,,,,,,,,,,,132,001,2023-03-03_15h01.59.818,eb_01,2022.2.4,99.93004927047298,
,,,0,0,0,0,87,0,87,0,,,,,,,,,,,,,,,,,,,,,,,,,,,,,,,,,,,,,,,,,,,,,,,,,,,,,,,,,,,132,001,2023-03-03_15h01.59.818,eb_01,2022.2.4,99.93004927047298,
3,stimuli/3.png,l,0,0,0,0,88,0,88,0,0,0,0,0,,,,,,,,,,,,,,,,,,332.1007464522554,332.1007464522554,332.1007464522554,332.1007464522554,l,1,0.633736042160308,332.75091091686045,332.75091091686045,332.75091091686045,333.7616146237124,333.7616146237124,333.7616146237124,,,,,,,,,,,,,,,,,,,,,,,,,132,001,2023-03-03_15h01.59.818,eb_01,2022.2.4,99.93004927047298,
,,,0,0,0,0,88,0,88,0,,,,,,,,,,,,,,,,,,,,,,,,,,,,,,,,,,,,,,,,,,,,,,,,,,,,,,,,,,,132,001,2023-03-03_15h01.59.818,eb_01,2022.2.4,99.93004927047298,
4,stimuli/4.png,l,0,0,0,0,89,0,89,0,0,0,0,0,,,,,,,,,,,,,,,,,,333.7616146237124,333.7616146237124,333.7616146237124,333.7616146237124,l,1,0.6128921879862901,334.40234527696157,334.40234527696157,334.40234527696157,,,,,,,,,,,,,,,,,,,,,,,,,,,,132,001,2023-03-03_15h01.59.818,eb_01,2022.2.4,99.93004927047298,
,,,0,0,0,0,89,0,89,0,,,,,,,,,,,,,,,,,,,,,,,,,,,,,,,,,,,,,,,,,,,,,,,,,,,,,,,,,,,132,001,2023-03-03_15h01.59.818,eb_01,2022.2.4,99.93004927047298,
1,stimuli/1.png,s,0,0,0,0,90,0,90,0,0,0,0,0,,,,,,,,,,,,,,,,,,335.42303005460417,335.42303005460417,335.42303005460417,335.42303005460417,s,1,0.6795277436904144,336.13350806597737,336.13350806597737,336.13350806597737,,,,,,,,,,,,,,,,,,,,,,,,,,,,132,001,2023-03-03_15h01.59.818,eb_01,2022.2.4,99.93004927047298,
,,,0,0,0,0,90,0,90,0,,,,,,,,,,,,,,,,,,,,,,,,,,,,,,,,,,,,,,,,,,,,,,,,,,,,,,,,,,,132,001,2023-03-03_15h01.59.818,eb_01,2022.2.4,99.93004927047298,
2,stimuli/2.png,s,0,0,0,0,91,0,91,0,0,0,0,0,,,,,,,,,,,,,,,,,,337.13418029257446,337.13418029257446,337.13418029257446,337.13418029257446,s,1,0.8564507207483985,338.0044393518765,338.0044393518765,338.0044393518765,339.0151246456662,339.0151246456662,339.0151246456662,,,,,,,,,,,,,,,,,,,,,,,,,132,001,2023-03-03_15h01.59.818,eb_01,2022.2.4,99.93004927047298,
,,,0,0,0,0,91,0,91,0,,,,,,,,,,,,,,,,,,,,,,,,,,,,,,,,,,,,,,,,,,,,,,,,,,,,,,,,,,,132,001,2023-03-03_15h01.59.818,eb_01,2022.2.4,99.93004927047298,
4,stimuli/4.png,l,0,0,0,0,92,0,92,0,0,0,0,0,,,,,,,,,,,,,,,,,,339.0151246456662,339.0151246456662,339.0151246456662,339.0151246456662,l,1,0.6545792926044669,339.69589670110145,339.69589670110145,339.69589670110145,,,,,,,,,,,,,,,,,,,,,,,,,,,,132,001,2023-03-03_15h01.59.818,eb_01,2022.2.4,99.93004927047298,
,,,0,0,0,0,92,0,92,0,,,,,,,,,,,,,,,,,,,,,,,,,,,,,,,,,,,,,,,,,,,,,,,,,,,,,,,,,,,132,001,2023-03-03_15h01.59.818,eb_01,2022.2.4,99.93004927047298,
1,stimuli/1.png,s,0,0,0,0,93,0,93,0,0,0,0,0,,,,,,,,,,,,,,,,,,340.7165854028135,340.7165854028135,340.7165854028135,340.7165854028135,s,1,0.6811728424218018,341.43706561470754,341.43706561470754,341.43706561470754,,,,,,,,,,,,,,,,,,,,,,,,,,,,132,001,2023-03-03_15h01.59.818,eb_01,2022.2.4,99.93004927047298,
,,,0,0,0,0,93,0,93,0,,,,,,,,,,,,,,,,,,,,,,,,,,,,,,,,,,,,,,,,,,,,,,,,,,,,,,,,,,,132,001,2023-03-03_15h01.59.818,eb_01,2022.2.4,99.93004927047298,
4,stimuli/4.png,l,0,0,0,0,94,0,94,0,0,0,0,0,,,,,,,,,,,,,,,,,,342.43742995124194,342.43742995124194,342.43742995124194,342.43742995124194,l,1,0.8323734174191486,343.2983336809848,343.2983336809848,343.2983336809848,,,,,,,,,,,,,,,,,,,,,,,,,,,,132,001,2023-03-03_15h01.59.818,eb_01,2022.2.4,99.93004927047298,
,,,0,0,0,0,94,0,94,0,,,,,,,,,,,,,,,,,,,,,,,,,,,,,,,,,,,,,,,,,,,,,,,,,,,,,,,,,,,132,001,2023-03-03_15h01.59.818,eb_01,2022.2.4,99.93004927047298,
3,stimuli/3.png,l,0,0,0,0,95,0,95,0,0,0,0,0,,,,,,,,,,,,,,,,,,344.30898999690544,344.30898999690544,344.30898999690544,344.30898999690544,l,1,0.6408760726626497,344.9691177229688,344.9691177229688,344.9691177229688,345.9801359606208,345.9801359606208,345.9801359606208,,,,,,,,,,,,,,,,,,,,,,,,,132,001,2023-03-03_15h01.59.818,eb_01,2022.2.4,99.93004927047298,
,,,0,0,0,0,95,0,95,0,,,,,,,,,,,,,,,,,,,,,,,,,,,,,,,,,,,,,,,,,,,,,,,,,,,,,,,,,,,132,001,2023-03-03_15h01.59.818,eb_01,2022.2.4,99.93004927047298,
2,stimuli/2.png,s,0,0,0,0,96,0,96,0,0,0,0,0,,,,,,,,,,,,,,,,,,345.9801359606208,345.9801359606208,345.9801359606208,345.9801359606208,s,1,0.8497867124096956,346.8403762175003,346.8403762175003,346.8403762175003,347.86139001490665,347.86139001490665,347.86139001490665,,,,,,,,,,,,,,,,,,,,,,,,,132,001,2023-03-03_15h01.59.818,eb_01,2022.2.4,99.93004927047298,
,,,0,0,0,0,96,0,96,0,,,,,,,,,,,,,,,,,,,,,,,,,,,,,,,,,,,,,,,,,,,,,,,,,,,,,,,,,,,132,001,2023-03-03_15h01.59.818,eb_01,2022.2.4,99.93004927047298,
1,stimuli/1.png,s,0,0,0,0,97,0,97,0,0,0,0,0,,,,,,,,,,,,,,,,,,347.86139001490665,347.86139001490665,347.86139001490665,347.86139001490665,s,1,0.816608541586902,348.7119643354672,348.7119643354672,348.7119643354672,,,,,,,,,,,,,,,,,,,,,,,,,,,,132,001,2023-03-03_15h01.59.818,eb_01,2022.2.4,99.93004927047298,
,,,0,0,0,0,97,0,97,0,,,,,,,,,,,,,,,,,,,,,,,,,,,,,,,,,,,,,,,,,,,,,,,,,,,,,,,,,,,132,001,2023-03-03_15h01.59.818,eb_01,2022.2.4,99.93004927047298,
4,stimuli/4.png,l,0,0,0,0,98,0,98,0,0,0,0,0,,,,,,,,,,,,,,,,,,349.71230663676397,349.71230663676397,349.71230663676397,349.71230663676397,l,1,0.8937211124866735,350.63324349184404,350.63324349184404,350.63324349184404,,,,,,,,,,,,,,,,,,,,,,,,,,,,132,001,2023-03-03_15h01.59.818,eb_01,2022.2.4,99.93004927047298,
,,,0,0,0,0,98,0,98,0,,,,,,,,,,,,,,,,,,,,,,,,,,,,,,,,,,,,,,,,,,,,,,,,,,,,,,,,,,,132,001,2023-03-03_15h01.59.818,eb_01,2022.2.4,99.93004927047298,
1,stimuli/1.png,s,0,0,0,0,99,0,99,0,0,0,0,0,,,,,,,,,,,,,,,,,,351.65394004175323,351.65394004175323,351.65394004175323,351.65394004175323,s,1,0.7602000668703113,352.4444655406405,352.4444655406405,352.4444655406405,,,,,,,,,,,,,,,,,,,,,,,,,,,,132,001,2023-03-03_15h01.59.818,eb_01,2022.2.4,99.93004927047298,
,,,0,0,0,0,99,0,99,0,,,,,,,,,,,,,,,,,,,,,,,,,,,,,,,,,,,,,,,,,,,,,,,,,,,,,,,,,,,132,001,2023-03-03_15h01.59.818,eb_01,2022.2.4,99.93004927047298,
,,,0,0,0,0,,,,,,,,,,,,,,,,,,,,,,,,,,,,,,,,,,,,,,,353.43513405745034,353.43513405745034,return,26.289839766075602,,,,,,,,,,,,,,,,,,,,,132,001,2023-03-03_15h01.59.818,eb_01,2022.2.4,99.93004927047298,
2,stimuli/2.png,s,1,0,1,0,0,0,0,0,0,0,0,0,,,,,,,,,,,,,,,,,,379.75280806285446,379.75280806285446,379.75280806285446,379.75280806285446,s,1,1.9882173968362622,381.7538452297158,381.7538452297158,381.7538452297158,382.77485359375714,382.77485359375714,382.77485359375714,,,,,,,,,,,,,,,,,,,,,,,,,132,001,2023-03-03_15h01.59.818,eb_01,2022.2.4,99.93004927047298,
,,,1,0,1,0,0,0,0,0,,,,,,,,,,,,,,,,,,,,,,,,,,,,,,,,,,,,,,,,,,,,,,,,,,,,,,,,,,,132,001,2023-03-03_15h01.59.818,eb_01,2022.2.4,99.93004927047298,
1,stimuli/1.png,s,1,0,1,0,1,0,1,0,0,0,0,0,,,,,,,,,,,,,,,,,,382.77485359375714,382.77485359375714,382.77485359375714,382.77485359375714,s,1,1.1982400630076881,384.00566155460547,384.00566155460547,384.00566155460547,,,,,,,,,,,,,,,,,,,,,,,,,,,,132,001,2023-03-03_15h01.59.818,eb_01,2022.2.4,99.93004927047298,
,,,1,0,1,0,1,0,1,0,,,,,,,,,,,,,,,,,,,,,,,,,,,,,,,,,,,,,,,,,,,,,,,,,,,,,,,,,,,132,001,2023-03-03_15h01.59.818,eb_01,2022.2.4,99.93004927047298,
4,stimuli/4.png,l,1,0,1,0,2,0,2,0,0,0,0,0,,,,,,,,,,,,,,,,,,385.0060292115377,385.0060292115377,385.0060292115377,385.0060292115377,l,1,0.9901374836917967,386.01701575462357,386.01701575462357,386.01701575462357,,,,,,,,,,,,,,,,,,,,,,,,,,,,132,001,2023-03-03_15h01.59.818,eb_01,2022.2.4,99.93004927047298,
,,,1,0,1,0,2,0,2,0,,,,,,,,,,,,,,,,,,,,,,,,,,,,,,,,,,,,,,,,,,,,,,,,,,,,,,,,,,,132,001,2023-03-03_15h01.59.818,eb_01,2022.2.4,99.93004927047298,
3,stimuli/3.png,l,1,0,1,0,3,0,3,0,0,0,0,0,,,,,,,,,,,,,,,,,,387.0276938039751,387.0276938039751,387.0276938039751,387.0276938039751,l,1,0.7685146073345095,387.80789894927875,387.80789894927875,387.80789894927875,388.8185748856631,388.8185748856631,388.8185748856631,,,,,,,,,,,,,,,,,,,,,,,,,132,001,2023-03-03_15h01.59.818,eb_01,2022.2.4,99.93004927047298,
,,,1,0,1,0,3,0,3,0,,,,,,,,,,,,,,,,,,,,,,,,,,,,,,,,,,,,,,,,,,,,,,,,,,,,,,,,,,,132,001,2023-03-03_15h01.59.818,eb_01,2022.2.4,99.93004927047298,
4,stimuli/4.png,l,1,0,1,0,4,0,4,0,0,0,0,0,,,,,,,,,,,,,,,,,,388.8185748856631,388.8185748856631,388.8185748856631,388.8185748856631,l,1,0.8337094187154435,389.67947620057384,389.67947620057384,389.67947620057384,,,,,,,,,,,,,,,,,,,,,,,,,,,,132,001,2023-03-03_15h01.59.818,eb_01,2022.2.4,99.93004927047298,
,,,1,0,1,0,4,0,4,0,,,,,,,,,,,,,,,,,,,,,,,,,,,,,,,,,,,,,,,,,,,,,,,,,,,,,,,,,,,132,001,2023-03-03_15h01.59.818,eb_01,2022.2.4,99.93004927047298,
3,stimuli/3.png,l,1,0,1,0,5,0,5,0,0,0,0,0,,,,,,,,,,,,,,,,,,390.690168436995,390.690168436995,390.690168436995,390.690168436995,l,1,0.5221391825180035,391.230178899219,391.230178899219,391.230178899219,392.2412116258347,392.2412116258347,392.2412116258347,,,,,,,,,,,,,,,,,,,,,,,,,132,001,2023-03-03_15h01.59.818,eb_01,2022.2.4,99.93004927047298,
,,,1,0,1,0,5,0,5,0,,,,,,,,,,,,,,,,,,,,,,,,,,,,,,,,,,,,,,,,,,,,,,,,,,,,,,,,,,,132,001,2023-03-03_15h01.59.818,eb_01,2022.2.4,99.93004927047298,
2,stimuli/2.png,s,1,0,1,0,6,0,6,0,0,0,0,0,,,,,,,,,,,,,,,,,,392.2412116258347,392.2412116258347,392.2412116258347,392.2412116258347,s,1,0.6191773708269466,392.87129984839703,392.87129984839703,392.87129984839703,393.88231386011466,393.88231386011466,393.88231386011466,,,,,,,,,,,,,,,,,,,,,,,,,132,001,2023-03-03_15h01.59.818,eb_01,2022.2.4,99.93004927047298,
,,,1,0,1,0,6,0,6,0,,,,,,,,,,,,,,,,,,,,,,,,,,,,,,,,,,,,,,,,,,,,,,,,,,,,,,,,,,,132,001,2023-03-03_15h01.59.818,eb_01,2022.2.4,99.93004927047298,
3,stimuli/3.png,l,1,0,1,0,7,0,7,0,0,0,0,0,,,,,,,,,,,,,,,,,,393.88231386011466,393.88231386011466,393.88231386011466,393.88231386011466,l,1,0.8901003859646153,394.7825934061548,394.7825934061548,394.7825934061548,395.793552480638,395.793552480638,395.793552480638,,,,,,,,,,,,,,,,,,,,,,,,,132,001,2023-03-03_15h01.59.818,eb_01,2022.2.4,99.93004927047298,
,,,1,0,1,0,7,0,7,0,,,,,,,,,,,,,,,,,,,,,,,,,,,,,,,,,,,,,,,,,,,,,,,,,,,,,,,,,,,132,001,2023-03-03_15h01.59.818,eb_01,2022.2.4,99.93004927047298,
8,stimuli/8.png,l,1,0,1,0,8,0,8,0,0,0,0,0,,,,,,,,,,,,,,,,,,395.793552480638,395.793552480638,395.793552480638,395.793552480638,l,1,0.5869455091306008,396.4039885646198,396.4039885646198,396.4039885646198,,,,,,,,,,,,,,,,,,,,,,,,,,,,132,001,2023-03-03_15h01.59.818,eb_01,2022.2.4,99.93004927047298,
,,,1,0,1,0,8,0,8,0,,,,,,,,,,,,,,,,,,,,,,,,,,,,,,,,,,,,,,,,,,,,,,,,,,,,,,,,,,,132,001,2023-03-03_15h01.59.818,eb_01,2022.2.4,99.93004927047298,
3,stimuli/3.png,l,1,0,1,0,9,0,9,0,0,0,0,0,,,,,,,,,,,,,,,,,,397.41467325470876,397.41467325470876,397.41467325470876,397.41467325470876,l,1,0.5338628505996894,397.96473511948716,397.96473511948716,397.96473511948716,398.97572256813874,398.97572256813874,398.97572256813874,,,,,,,,,,,,,,,,,,,,,,,,,132,001,2023-03-03_15h01.59.818,eb_01,2022.2.4,99.93004927047298,
,,,1,0,1,0,9,0,9,0,,,,,,,,,,,,,,,,,,,,,,,,,,,,,,,,,,,,,,,,,,,,,,,,,,,,,,,,,,,132,001,2023-03-03_15h01.59.818,eb_01,2022.2.4,99.93004927047298,
2,stimuli/2.png,s,1,0,1,0,10,0,10,0,0,0,0,0,,,,,,,,,,,,,,,,,,398.97572256813874,398.97572256813874,398.97572256813874,398.97572256813874,s,1,0.6048583707888611,399.59618801940815,399.59618801940815,399.59618801940815,400.61682963208295,400.61682963208295,400.61682963208295,,,,,,,,,,,,,,,,,,,,,,,,,132,001,2023-03-03_15h01.59.818,eb_01,2022.2.4,99.93004927047298,
,,,1,0,1,0,10,0,10,0,,,,,,,,,,,,,,,,,,,,,,,,,,,,,,,,,,,,,,,,,,,,,,,,,,,,,,,,,,,132,001,2023-03-03_15h01.59.818,eb_01,2022.2.4,99.93004927047298,
1,stimuli/1.png,s,1,0,1,0,11,0,11,0,0,0,0,0,,,,,,,,,,,,,,,,,,400.61682963208295,400.61682963208295,400.61682963208295,400.61682963208295,s,1,0.6437916706490796,401.28694567340426,401.28694567340426,401.28694567340426,,,,,,,,,,,,,,,,,,,,,,,,,,,,132,001,2023-03-03_15h01.59.818,eb_01,2022.2.4,99.93004927047298,
,,,1,0,1,0,11,0,11,0,,,,,,,,,,,,,,,,,,,,,,,,,,,,,,,,,,,,,,,,,,,,,,,,,,,,,,,,,,,132,001,2023-03-03_15h01.59.818,eb_01,2022.2.4,99.93004927047298,
4,stimuli/4.png,l,1,0,1,0,12,0,12,0,0,0,0,0,,,,,,,,,,,,,,,,,,402.29766296365415,402.29766296365415,402.29766296365415,402.29766296365415,l,1,0.626005889091175,402.94838374329265,402.94838374329265,402.94838374329265,,,,,,,,,,,,,,,,,,,,,,,,,,,,132,001,2023-03-03_15h01.59.818,eb_01,2022.2.4,99.93004927047298,
,,,1,0,1,0,12,0,12,0,,,,,,,,,,,,,,,,,,,,,,,,,,,,,,,,,,,,,,,,,,,,,,,,,,,,,,,,,,,132,001,2023-03-03_15h01.59.818,eb_01,2022.2.4,99.93004927047298,
3,stimuli/3.png,l,1,0,1,0,13,0,13,0,0,0,0,0,,,,,,,,,,,,,,,,,,403.95909167607897,403.95909167607897,403.95909167607897,403.95909167607897,l,1,0.48463093061582185,404.45909092144575,404.45909092144575,404.45909092144575,405.47008531272877,405.47008531272877,405.47008531272877,,,,,,,,,,,,,,,,,,,,,,,,,132,001,2023-03-03_15h01.59.818,eb_01,2022.2.4,99.93004927047298,
,,,1,0,1,0,13,0,13,0,,,,,,,,,,,,,,,,,,,,,,,,,,,,,,,,,,,,,,,,,,,,,,,,,,,,,,,,,,,132,001,2023-03-03_15h01.59.818,eb_01,2022.2.4,99.93004927047298,
2,stimuli/2.png,s,1,0,1,0,14,0,14,0,0,0,0,0,,,,,,,,,,,,,,,,,,405.47008531272877,405.47008531272877,405.47008531272877,405.47008531272877,s,1,0.6057047665526625,406.0901779755659,406.0901779755659,406.0901779755659,407.11118875441025,407.11118875441025,407.11118875441025,,,,,,,,,,,,,,,,,,,,,,,,,132,001,2023-03-03_15h01.59.818,eb_01,2022.2.4,99.93004927047298,
,,,1,0,1,0,14,0,14,0,,,,,,,,,,,,,,,,,,,,,,,,,,,,,,,,,,,,,,,,,,,,,,,,,,,,,,,,,,,132,001,2023-03-03_15h01.59.818,eb_01,2022.2.4,99.93004927047298,
1,stimuli/1.png,s,1,0,1,0,15,0,15,0,0,0,0,0,,,,,,,,,,,,,,,,,,407.11118875441025,407.11118875441025,407.11118875441025,407.11118875441025,s,1,1.7807067512476351,408.92240023834165,408.92240023834165,408.92240023834165,,,,,,,,,,,,,,,,,,,,,,,,,,,,132,001,2023-03-03_15h01.59.818,eb_01,2022.2.4,99.93004927047298,
,,,1,0,1,0,15,0,15,0,,,,,,,,,,,,,,,,,,,,,,,,,,,,,,,,,,,,,,,,,,,,,,,,,,,,,,,,,,,132,001,2023-03-03_15h01.59.818,eb_01,2022.2.4,99.93004927047298,
2,stimuli/2.png,s,1,0,1,0,16,0,16,0,0,0,0,0,,,,,,,,,,,,,,,,,,409.9230881613039,409.9230881613039,409.9230881613039,409.9230881613039,s,1,0.5608530352183152,410.5031406293856,410.5031406293856,410.5031406293856,411.52415352122625,411.52415352122625,411.52415352122625,,,,,,,,,,,,,,,,,,,,,,,,,132,001,2023-03-03_15h01.59.818,eb_01,2022.2.4,99.93004927047298,
,,,1,0,1,0,16,0,16,0,,,,,,,,,,,,,,,,,,,,,,,,,,,,,,,,,,,,,,,,,,,,,,,,,,,,,,,,,,,132,001,2023-03-03_15h01.59.818,eb_01,2022.2.4,99.93004927047298,
1,stimuli/1.png,s,1,0,1,0,17,0,17,0,0,0,0,0,,,,,,,,,,,,,,,,,,411.52415352122625,411.52415352122625,411.52415352122625,411.52415352122625,s,1,0.5118245641642716,412.07453444460407,412.07453444460407,412.07453444460407,,,,,,,,,,,,,,,,,,,,,,,,,,,,132,001,2023-03-03_15h01.59.818,eb_01,2022.2.4,99.93004927047298,
,,,1,0,1,0,17,0,17,0,,,,,,,,,,,,,,,,,,,,,,,,,,,,,,,,,,,,,,,,,,,,,,,,,,,,,,,,,,,132,001,2023-03-03_15h01.59.818,eb_01,2022.2.4,99.93004927047298,
2,stimuli/2.png,s,1,0,1,0,18,0,18,0,0,0,0,0,,,,,,,,,,,,,,,,,,413.0752048600989,413.0752048600989,413.0752048600989,413.0752048600989,s,1,0.6408365299284924,413.73531628609635,413.73531628609635,413.73531628609635,414.7563282723713,414.7563282723713,414.7563282723713,,,,,,,,,,,,,,,,,,,,,,,,,132,001,2023-03-03_15h01.59.818,eb_01,2022.2.4,99.93004927047298,
,,,1,0,1,0,18,0,18,0,,,,,,,,,,,,,,,,,,,,,,,,,,,,,,,,,,,,,,,,,,,,,,,,,,,,,,,,,,,132,001,2023-03-03_15h01.59.818,eb_01,2022.2.4,99.93004927047298,
1,stimuli/1.png,s,1,0,1,0,19,0,19,0,0,0,0,0,,,,,,,,,,,,,,,,,,414.7563282723713,414.7563282723713,414.7563282723713,414.7563282723713,s,1,0.6397549906978384,415.42677846498555,415.42677846498555,415.42677846498555,,,,,,,,,,,,,,,,,,,,,,,,,,,,132,001,2023-03-03_15h01.59.818,eb_01,2022.2.4,99.93004927047298,
,,,1,0,1,0,19,0,19,0,,,,,,,,,,,,,,,,,,,,,,,,,,,,,,,,,,,,,,,,,,,,,,,,,,,,,,,,,,,132,001,2023-03-03_15h01.59.818,eb_01,2022.2.4,99.93004927047298,
2,stimuli/2.png,s,1,0,1,0,20,0,20,0,0,0,0,0,,,,,,,,,,,,,,,,,,416.42746155828354,416.42746155828354,416.42746155828354,416.42746155828354,s,1,1.7997723894950468,418.23837481148075,418.23837481148075,418.23837481148075,419.2493610527017,419.2493610527017,419.2493610527017,,,,,,,,,,,,,,,,,,,,,,,,,132,001,2023-03-03_15h01.59.818,eb_01,2022.2.4,99.93004927047298,
,,,1,0,1,0,20,0,20,0,,,,,,,,,,,,,,,,,,,,,,,,,,,,,,,,,,,,,,,,,,,,,,,,,,,,,,,,,,,132,001,2023-03-03_15h01.59.818,eb_01,2022.2.4,99.93004927047298,
3,stimuli/3.png,l,1,0,1,0,21,0,21,0,0,0,0,0,,,,,,,,,,,,,,,,,,419.2493610527017,419.2493610527017,419.2493610527017,419.2493610527017,l,1,0.6498897046549246,419.9094643286953,419.9094643286953,419.9094643286953,420.920480755216,420.920480755216,420.920480755216,,,,,,,,,,,,,,,,,,,,,,,,,132,001,2023-03-03_15h01.59.818,eb_01,2022.2.4,99.93004927047298,
,,,1,0,1,0,21,0,21,0,,,,,,,,,,,,,,,,,,,,,,,,,,,,,,,,,,,,,,,,,,,,,,,,,,,,,,,,,,,132,001,2023-03-03_15h01.59.818,eb_01,2022.2.4,99.93004927047298,
8,stimuli/8.png,l,1,0,1,0,22,0,22,0,0,0,0,0,,,,,,,,,,,,,,,,,,420.920480755216,420.920480755216,420.920480755216,420.920480755216,l,1,0.7628074729582295,421.7109956892382,421.7109956892382,421.7109956892382,,,,,,,,,,,,,,,,,,,,,,,,,,,,132,001,2023-03-03_15h01.59.818,eb_01,2022.2.4,99.93004927047298,
,,,1,0,1,0,22,0,22,0,,,,,,,,,,,,,,,,,,,,,,,,,,,,,,,,,,,,,,,,,,,,,,,,,,,,,,,,,,,132,001,2023-03-03_15h01.59.818,eb_01,2022.2.4,99.93004927047298,
9,stimuli/9.png,l,1,0,1,0,23,0,23,0,0,0,0,0,,,,,,,,,,,,,,,,,,422.73168107061065,422.73168107061065,422.73168107061065,422.73168107061065,l,1,1.1196879551571328,423.8721414145257,423.8721414145257,423.8721414145257,,,,,,,,,,,,,,,,,,,,,,,,,,,,132,001,2023-03-03_15h01.59.818,eb_01,2022.2.4,99.93004927047298,
,,,1,0,1,0,23,0,23,0,,,,,,,,,,,,,,,,,,,,,,,,,,,,,,,,,,,,,,,,,,,,,,,,,,,,,,,,,,,132,001,2023-03-03_15h01.59.818,eb_01,2022.2.4,99.93004927047298,
5,stimuli/5.png,s,1,0,1,0,24,0,24,0,0,0,0,0,,,,,,,,,,,,,,,,,,424.8831367113453,424.8831367113453,424.8831367113453,424.8831367113453,s,1,2.0323374365398195,426.944532099209,426.944532099209,426.944532099209,,,,,,,,,,,,,,,,,,,,,,,,,,,,132,001,2023-03-03_15h01.59.818,eb_01,2022.2.4,99.93004927047298,
,,,1,0,1,0,24,0,24,0,,,,,,,,,,,,,,,,,,,,,,,,,,,,,,,,,,,,,,,,,,,,,,,,,,,,,,,,,,,132,001,2023-03-03_15h01.59.818,eb_01,2022.2.4,99.93004927047298,
6,stimuli/6.png,s,1,0,1,0,25,0,25,0,0,0,0,0,,,,,,,,,,,,,,,,,,427.9652120472165,427.9652120472165,427.9652120472165,427.9652120472165,s,1,0.8623256854189094,428.86581880188896,428.86581880188896,428.86581880188896,,,,,,,,,,,,,,,,,,,,,,,,,,,,132,001,2023-03-03_15h01.59.818,eb_01,2022.2.4,99.93004927047298,
,,,1,0,1,0,25,0,25,0,,,,,,,,,,,,,,,,,,,,,,,,,,,,,,,,,,,,,,,,,,,,,,,,,,,,,,,,,,,132,001,2023-03-03_15h01.59.818,eb_01,2022.2.4,99.93004927047298,
8,stimuli/8.png,l,1,0,1,0,26,0,26,0,0,0,0,0,,,,,,,,,,,,,,,,,,429.8664907266502,429.8664907266502,429.8664907266502,429.8664907266502,l,1,0.889136267505819,430.7770827780769,430.7770827780769,430.7770827780769,,,,,,,,,,,,,,,,,,,,,,,,,,,,132,001,2023-03-03_15h01.59.818,eb_01,2022.2.4,99.93004927047298,
,,,1,0,1,0,26,0,26,0,,,,,,,,,,,,,,,,,,,,,,,,,,,,,,,,,,,,,,,,,,,,,,,,,,,,,,,,,,,132,001,2023-03-03_15h01.59.818,eb_01,2022.2.4,99.93004927047298,
6,stimuli/6.png,s,1,0,1,0,27,0,27,0,0,0,0,0,,,,,,,,,,,,,,,,,,431.79777178165386,431.79777178165386,431.79777178165386,431.79777178165386,s,1,0.916885612445185,432.7484124797047,432.7484124797047,432.7484124797047,,,,,,,,,,,,,,,,,,,,,,,,,,,,132,001,2023-03-03_15h01.59.818,eb_01,2022.2.4,99.93004927047298,
,,,1,0,1,0,27,0,27,0,,,,,,,,,,,,,,,,,,,,,,,,,,,,,,,,,,,,,,,,,,,,,,,,,,,,,,,,,,,132,001,2023-03-03_15h01.59.818,eb_01,2022.2.4,99.93004927047298,
5,stimuli/5.png,s,1,0,1,0,28,0,28,0,0,0,0,0,,,,,,,,,,,,,,,,,,433.7491266638681,433.7491266638681,433.7491266638681,433.7491266638681,s,1,0.6056051550840493,434.3795239838946,434.3795239838946,434.3795239838946,,,,,,,,,,,,,,,,,,,,,,,,,,,,132,001,2023-03-03_15h01.59.818,eb_01,2022.2.4,99.93004927047298,
,,,1,0,1,0,28,0,28,0,,,,,,,,,,,,,,,,,,,,,,,,,,,,,,,,,,,,,,,,,,,,,,,,,,,,,,,,,,,132,001,2023-03-03_15h01.59.818,eb_01,2022.2.4,99.93004927047298,
6,stimuli/6.png,s,1,0,1,0,29,0,29,0,0,0,0,0,,,,,,,,,,,,,,,,,,435.39991505857324,435.39991505857324,435.39991505857324,435.39991505857324,s,1,0.6348284481209703,436.07032268992043,436.07032268992043,436.07032268992043,,,,,,,,,,,,,,,,,,,,,,,,,,,,132,001,2023-03-03_15h01.59.818,eb_01,2022.2.4,99.93004927047298,
,,,1,0,1,0,29,0,29,0,,,,,,,,,,,,,,,,,,,,,,,,,,,,,,,,,,,,,,,,,,,,,,,,,,,,,,,,,,,132,001,2023-03-03_15h01.59.818,eb_01,2022.2.4,99.93004927047298,
5,stimuli/5.png,s,1,0,1,0,30,0,30,0,0,0,0,0,,,,,,,,,,,,,,,,,,437.0613072467968,437.0613072467968,437.0613072467968,437.0613072467968,s,1,0.6135384552180767,437.70173483967665,437.70173483967665,437.70173483967665,,,,,,,,,,,,,,,,,,,,,,,,,,,,132,001,2023-03-03_15h01.59.818,eb_01,2022.2.4,99.93004927047298,
,,,1,0,1,0,30,0,30,0,,,,,,,,,,,,,,,,,,,,,,,,,,,,,,,,,,,,,,,,,,,,,,,,,,,,,,,,,,,132,001,2023-03-03_15h01.59.818,eb_01,2022.2.4,99.93004927047298,
9,stimuli/9.png,l,1,0,1,0,31,0,31,0,0,0,0,0,,,,,,,,,,,,,,,,,,438.72242957845447,438.72242957845447,438.72242957845447,438.72242957845447,l,1,0.8644317136786412,439.61270239620353,439.61270239620353,439.61270239620353,,,,,,,,,,,,,,,,,,,,,,,,,,,,132,001,2023-03-03_15h01.59.818,eb_01,2022.2.4,99.93004927047298,
,,,1,0,1,0,31,0,31,0,,,,,,,,,,,,,,,,,,,,,,,,,,,,,,,,,,,,,,,,,,,,,,,,,,,,,,,,,,,132,001,2023-03-03_15h01.59.818,eb_01,2022.2.4,99.93004927047298,
6,stimuli/6.png,s,1,0,1,0,32,0,32,0,0,0,0,0,,,,,,,,,,,,,,,,,,440.63371589174494,440.63371589174494,440.63371589174494,440.63371589174494,s,1,0.6971982174145523,441.36421490606153,441.36421490606153,441.36421490606153,,,,,,,,,,,,,,,,,,,,,,,,,,,,132,001,2023-03-03_15h01.59.818,eb_01,2022.2.4,99.93004927047298,
,,,1,0,1,0,32,0,32,0,,,,,,,,,,,,,,,,,,,,,,,,,,,,,,,,,,,,,,,,,,,,,,,,,,,,,,,,,,,132,001,2023-03-03_15h01.59.818,eb_01,2022.2.4,99.93004927047298,
5,stimuli/5.png,s,1,0,1,0,33,0,33,0,0,0,0,0,,,,,,,,,,,,,,,,,,442.3648795863264,442.3648795863264,442.3648795863264,442.3648795863264,s,1,0.71009277322446,443.09539188214694,443.09539188214694,443.09539188214694,,,,,,,,,,,,,,,,,,,,,,,,,,,,132,001,2023-03-03_15h01.59.818,eb_01,2022.2.4,99.93004927047298,
,,,1,0,1,0,33,0,33,0,,,,,,,,,,,,,,,,,,,,,,,,,,,,,,,,,,,,,,,,,,,,,,,,,,,,,,,,,,,132,001,2023-03-03_15h01.59.818,eb_01,2022.2.4,99.93004927047298,
6,stimuli/6.png,s,1,0,1,0,34,0,34,0,0,0,0,0,,,,,,,,,,,,,,,,,,444.1160654912528,444.1160654912528,444.1160654912528,444.1160654912528,s,1,0.558977924491046,444.70644465179066,444.70644465179066,444.70644465179066,,,,,,,,,,,,,,,,,,,,,,,,,,,,132,001,2023-03-03_15h01.59.818,eb_01,2022.2.4,99.93004927047298,
,,,1,0,1,0,34,0,34,0,,,,,,,,,,,,,,,,,,,,,,,,,,,,,,,,,,,,,,,,,,,,,,,,,,,,,,,,,,,132,001,2023-03-03_15h01.59.818,eb_01,2022.2.4,99.93004927047298,
9,stimuli/9.png,l,1,0,1,0,35,0,35,0,0,0,0,0,,,,,,,,,,,,,,,,,,445.7171408123104,445.7171408123104,445.7171408123104,445.7171408123104,l,1,0.6779686730005778,446.4172903200961,446.4172903200961,446.4172903200961,,,,,,,,,,,,,,,,,,,,,,,,,,,,132,001,2023-03-03_15h01.59.818,eb_01,2022.2.4,99.93004927047298,
,,,1,0,1,0,35,0,35,0,,,,,,,,,,,,,,,,,,,,,,,,,,,,,,,,,,,,,,,,,,,,,,,,,,,,,,,,,,,132,001,2023-03-03_15h01.59.818,eb_01,2022.2.4,99.93004927047298,
6,stimuli/6.png,s,1,0,1,0,36,0,36,0,0,0,0,0,,,,,,,,,,,,,,,,,,447.438238313538,447.438238313538,447.438238313538,447.438238313538,s,1,0.555952150200028,448.0286633557407,448.0286633557407,448.0286633557407,,,,,,,,,,,,,,,,,,,,,,,,,,,,132,001,2023-03-03_15h01.59.818,eb_01,2022.2.4,99.93004927047298,
,,,1,0,1,0,36,0,36,0,,,,,,,,,,,,,,,,,,,,,,,,,,,,,,,,,,,,,,,,,,,,,,,,,,,,,,,,,,,132,001,2023-03-03_15h01.59.818,eb_01,2022.2.4,99.93004927047298,
8,stimuli/8.png,l,1,0,1,0,37,0,37,0,0,0,0,0,,,,,,,,,,,,,,,,,,449.02936727690394,449.02936727690394,449.02936727690394,449.02936727690394,l,1,0.6448185744811781,449.69981535655097,449.69981535655097,449.69981535655097,,,,,,,,,,,,,,,,,,,,,,,,,,,,132,001,2023-03-03_15h01.59.818,eb_01,2022.2.4,99.93004927047298,
,,,1,0,1,0,37,0,37,0,,,,,,,,,,,,,,,,,,,,,,,,,,,,,,,,,,,,,,,,,,,,,,,,,,,,,,,,,,,132,001,2023-03-03_15h01.59.818,eb_01,2022.2.4,99.93004927047298,
3,stimuli/3.png,l,1,0,1,0,38,0,38,0,0,0,0,0,,,,,,,,,,,,,,,,,,450.7104801243404,450.7104801243404,450.7104801243404,450.7104801243404,l,1,0.5957556921930518,451.3205708885216,451.3205708885216,451.3205708885216,452.3315667890711,452.3315667890711,452.3315667890711,,,,,,,,,,,,,,,,,,,,,,,,,132,001,2023-03-03_15h01.59.818,eb_01,2022.2.4,99.93004927047298,
,,,1,0,1,0,38,0,38,0,,,,,,,,,,,,,,,,,,,,,,,,,,,,,,,,,,,,,,,,,,,,,,,,,,,,,,,,,,,132,001,2023-03-03_15h01.59.818,eb_01,2022.2.4,99.93004927047298,
2,stimuli/2.png,s,1,0,1,0,39,0,39,0,0,0,0,0,,,,,,,,,,,,,,,,,,452.3315667890711,452.3315667890711,452.3315667890711,452.3315667890711,s,1,0.8387274227279704,453.1818356344302,453.1818356344302,453.1818356344302,454.19281885711825,454.19281885711825,454.19281885711825,,,,,,,,,,,,,,,,,,,,,,,,,132,001,2023-03-03_15h01.59.818,eb_01,2022.2.4,99.93004927047298,
,,,1,0,1,0,39,0,39,0,,,,,,,,,,,,,,,,,,,,,,,,,,,,,,,,,,,,,,,,,,,,,,,,,,,,,,,,,,,132,001,2023-03-03_15h01.59.818,eb_01,2022.2.4,99.93004927047298,
3,stimuli/3.png,l,1,0,1,0,40,0,40,0,0,0,0,0,,,,,,,,,,,,,,,,,,454.19281885711825,454.19281885711825,454.19281885711825,454.19281885711825,l,1,0.9535347907512914,455.1631593865459,455.1631593865459,455.1631593865459,456.1741537777998,456.1741537777998,456.1741537777998,,,,,,,,,,,,,,,,,,,,,,,,,132,001,2023-03-03_15h01.59.818,eb_01,2022.2.4,99.93004927047298,
,,,1,0,1,0,40,0,40,0,,,,,,,,,,,,,,,,,,,,,,,,,,,,,,,,,,,,,,,,,,,,,,,,,,,,,,,,,,,132,001,2023-03-03_15h01.59.818,eb_01,2022.2.4,99.93004927047298,
8,stimuli/8.png,l,1,0,1,0,41,0,41,0,0,0,0,0,,,,,,,,,,,,,,,,,,456.1741537777998,456.1741537777998,456.1741537777998,456.1741537777998,l,1,0.6282531845208723,456.82459051380283,456.82459051380283,456.82459051380283,,,,,,,,,,,,,,,,,,,,,,,,,,,,132,001,2023-03-03_15h01.59.818,eb_01,2022.2.4,99.93004927047298,
,,,1,0,1,0,41,0,41,0,,,,,,,,,,,,,,,,,,,,,,,,,,,,,,,,,,,,,,,,,,,,,,,,,,,,,,,,,,,132,001,2023-03-03_15h01.59.818,eb_01,2022.2.4,99.93004927047298,
6,stimuli/6.png,s,1,0,1,0,42,0,42,0,0,0,0,0,,,,,,,,,,,,,,,,,,457.8452761970111,457.8452761970111,457.8452761970111,457.8452761970111,s,1,0.5731876537611242,458.45568149199244,458.45568149199244,458.45568149199244,,,,,,,,,,,,,,,,,,,,,,,,,,,,132,001,2023-03-03_15h01.59.818,eb_01,2022.2.4,99.93004927047298,
,,,1,0,1,0,42,0,42,0,,,,,,,,,,,,,,,,,,,,,,,,,,,,,,,,,,,,,,,,,,,,,,,,,,,,,,,,,,,132,001,2023-03-03_15h01.59.818,eb_01,2022.2.4,99.93004927047298,
5,stimuli/5.png,s,1,0,1,0,43,0,43,0,0,0,0,0,,,,,,,,,,,,,,,,,,459.4563567371224,459.4563567371224,459.4563567371224,459.4563567371224,s,1,0.6981750136765186,460.1768203470856,460.1768203470856,460.1768203470856,,,,,,,,,,,,,,,,,,,,,,,,,,,,132,001,2023-03-03_15h01.59.818,eb_01,2022.2.4,99.93004927047298,
,,,1,0,1,0,43,0,43,0,,,,,,,,,,,,,,,,,,,,,,,,,,,,,,,,,,,,,,,,,,,,,,,,,,,,,,,,,,,132,001,2023-03-03_15h01.59.818,eb_01,2022.2.4,99.93004927047298,
9,stimuli/9.png,l,1,0,1,0,44,0,44,0,0,0,0,0,,,,,,,,,,,,,,,,,,461.1975507045281,461.1975507045281,461.1975507045281,461.1975507045281,l,1,0.5490433390659746,461.76786630088463,461.76786630088463,461.76786630088463,,,,,,,,,,,,,,,,,,,,,,,,,,,,132,001,2023-03-03_15h01.59.818,eb_01,2022.2.4,99.93004927047298,
,,,1,0,1,0,44,0,44,0,,,,,,,,,,,,,,,,,,,,,,,,,,,,,,,,,,,,,,,,,,,,,,,,,,,,,,,,,,,132,001,2023-03-03_15h01.59.818,eb_01,2022.2.4,99.93004927047298,
6,stimuli/6.png,s,1,0,1,0,45,0,45,0,0,0,0,0,,,,,,,,,,,,,,,,,,462.78859877129435,462.78859877129435,462.78859877129435,462.78859877129435,s,1,0.8690615347586572,463.6892019037332,463.6892019037332,463.6892019037332,,,,,,,,,,,,,,,,,,,,,,,,,,,,132,001,2023-03-03_15h01.59.818,eb_01,2022.2.4,99.93004927047298,
,,,1,0,1,0,45,0,45,0,,,,,,,,,,,,,,,,,,,,,,,,,,,,,,,,,,,,,,,,,,,,,,,,,,,,,,,,,,,132,001,2023-03-03_15h01.59.818,eb_01,2022.2.4,99.93004927047298,
8,stimuli/8.png,l,1,0,1,0,46,0,46,0,0,0,0,0,,,,,,,,,,,,,,,,,,464.68989344892907,464.68989344892907,464.68989344892907,464.68989344892907,l,1,0.5997950888122432,465.3102867573325,465.3102867573325,465.3102867573325,,,,,,,,,,,,,,,,,,,,,,,,,,,,132,001,2023-03-03_15h01.59.818,eb_01,2022.2.4,99.93004927047298,
,,,1,0,1,0,46,0,46,0,,,,,,,,,,,,,,,,,,,,,,,,,,,,,,,,,,,,,,,,,,,,,,,,,,,,,,,,,,,132,001,2023-03-03_15h01.59.818,eb_01,2022.2.4,99.93004927047298,
6,stimuli/6.png,s,1,0,1,0,47,0,47,0,0,0,0,0,,,,,,,,,,,,,,,,,,466.33097515720874,466.33097515720874,466.33097515720874,466.33097515720874,s,1,0.7907952817040496,467.1615369267529,467.1615369267529,467.1615369267529,,,,,,,,,,,,,,,,,,,,,,,,,,,,132,001,2023-03-03_15h01.59.818,eb_01,2022.2.4,99.93004927047298,
,,,1,0,1,0,47,0,47,0,,,,,,,,,,,,,,,,,,,,,,,,,,,,,,,,,,,,,,,,,,,,,,,,,,,,,,,,,,,132,001,2023-03-03_15h01.59.818,eb_01,2022.2.4,99.93004927047298,
9,stimuli/9.png,l,1,0,1,0,48,0,48,0,0,0,0,0,,,,,,,,,,,,,,,,,,468.17222795577254,468.17222795577254,468.17222795577254,468.17222795577254,l,1,0.46959170934860595,468.66224492291803,468.66224492291803,468.66224492291803,,,,,,,,,,,,,,,,,,,,,,,,,,,,132,001,2023-03-03_15h01.59.818,eb_01,2022.2.4,99.93004927047298,
,,,1,0,1,0,48,0,48,0,,,,,,,,,,,,,,,,,,,,,,,,,,,,,,,,,,,,,,,,,,,,,,,,,,,,,,,,,,,132,001,2023-03-03_15h01.59.818,eb_01,2022.2.4,99.93004927047298,
5,stimuli/5.png,s,1,0,1,0,49,0,49,0,0,0,0,0,,,,,,,,,,,,,,,,,,469.67327402727096,469.67327402727096,469.67327402727096,469.67327402727096,s,1,0.5445650481560733,470.24360773482476,470.24360773482476,470.24360773482476,,,,,,,,,,,,,,,,,,,,,,,,,,,,132,001,2023-03-03_15h01.59.818,eb_01,2022.2.4,99.93004927047298,
,,,1,0,1,0,49,0,49,0,,,,,,,,,,,,,,,,,,,,,,,,,,,,,,,,,,,,,,,,,,,,,,,,,,,,,,,,,,,132,001,2023-03-03_15h01.59.818,eb_01,2022.2.4,99.93004927047298,
9,stimuli/9.png,l,1,0,1,0,50,0,50,0,0,0,0,0,,,,,,,,,,,,,,,,,,471.2643610330997,471.2643610330997,471.2643610330997,471.2643610330997,l,1,0.54552614808199,471.83466304605827,471.83466304605827,471.83466304605827,,,,,,,,,,,,,,,,,,,,,,,,,,,,132,001,2023-03-03_15h01.59.818,eb_01,2022.2.4,99.93004927047298,
,,,1,0,1,0,50,0,50,0,,,,,,,,,,,,,,,,,,,,,,,,,,,,,,,,,,,,,,,,,,,,,,,,,,,,,,,,,,,132,001,2023-03-03_15h01.59.818,eb_01,2022.2.4,99.93004927047298,
6,stimuli/6.png,s,1,0,1,0,51,0,51,0,0,0,0,0,,,,,,,,,,,,,,,,,,472.85538344233646,472.85538344233646,472.85538344233646,472.85538344233646,s,1,0.562611932575237,473.4557720478915,473.4557720478915,473.4557720478915,,,,,,,,,,,,,,,,,,,,,,,,,,,,132,001,2023-03-03_15h01.59.818,eb_01,2022.2.4,99.93004927047298,
,,,1,0,1,0,51,0,51,0,,,,,,,,,,,,,,,,,,,,,,,,,,,,,,,,,,,,,,,,,,,,,,,,,,,,,,,,,,,132,001,2023-03-03_15h01.59.818,eb_01,2022.2.4,99.93004927047298,
9,stimuli/9.png,l,1,0,1,0,52,0,52,0,0,0,0,0,,,,,,,,,,,,,,,,,,474.4664712269441,474.4664712269441,474.4664712269441,474.4664712269441,l,1,0.6795561178587377,475.1666177161969,475.1666177161969,475.1666177161969,,,,,,,,,,,,,,,,,,,,,,,,,,,,132,001,2023-03-03_15h01.59.818,eb_01,2022.2.4,99.93004927047298,
,,,1,0,1,0,52,0,52,0,,,,,,,,,,,,,,,,,,,,,,,,,,,,,,,,,,,,,,,,,,,,,,,,,,,,,,,,,,,132,001,2023-03-03_15h01.59.818,eb_01,2022.2.4,99.93004927047298,
5,stimuli/5.png,s,1,0,1,0,53,0,53,0,0,0,0,0,,,,,,,,,,,,,,,,,,476.17760154261487,476.17760154261487,476.17760154261487,476.17760154261487,s,1,0.5204545409942511,476.7179709080374,476.7179709080374,476.7179709080374,,,,,,,,,,,,,,,,,,,,,,,,,,,,132,001,2023-03-03_15h01.59.818,eb_01,2022.2.4,99.93004927047298,
,,,1,0,1,0,53,0,53,0,,,,,,,,,,,,,,,,,,,,,,,,,,,,,,,,,,,,,,,,,,,,,,,,,,,,,,,,,,,132,001,2023-03-03_15h01.59.818,eb_01,2022.2.4,99.93004927047298,
6,stimuli/6.png,s,1,0,1,0,54,0,54,0,0,0,0,0,,,,,,,,,,,,,,,,,,477.7386439134134,477.7386439134134,477.7386439134134,477.7386439134134,s,1,0.5274819803307764,478.29901737798355,478.29901737798355,478.29901737798355,,,,,,,,,,,,,,,,,,,,,,,,,,,,132,001,2023-03-03_15h01.59.818,eb_01,2022.2.4,99.93004927047298,
,,,1,0,1,0,54,0,54,0,,,,,,,,,,,,,,,,,,,,,,,,,,,,,,,,,,,,,,,,,,,,,,,,,,,,,,,,,,,132,001,2023-03-03_15h01.59.818,eb_01,2022.2.4,99.93004927047298,
9,stimuli/9.png,l,1,0,1,0,55,0,55,0,0,0,0,0,,,,,,,,,,,,,,,,,,479.3097126329667,479.3097126329667,479.3097126329667,479.3097126329667,l,1,0.7314440422633197,480.06990251055686,480.06990251055686,480.06990251055686,,,,,,,,,,,,,,,,,,,,,,,,,,,,132,001,2023-03-03_15h01.59.818,eb_01,2022.2.4,99.93004927047298,
,,,1,0,1,0,55,0,55,0,,,,,,,,,,,,,,,,,,,,,,,,,,,,,,,,,,,,,,,,,,,,,,,,,,,,,,,,,,,132,001,2023-03-03_15h01.59.818,eb_01,2022.2.4,99.93004927047298,
6,stimuli/6.png,s,1,0,1,0,56,0,56,0,0,0,0,0,,,,,,,,,,,,,,,,,,481.09089548009797,481.09089548009797,481.09089548009797,481.09089548009797,s,1,0.670315190567635,481.79138095024973,481.79138095024973,481.79138095024973,,,,,,,,,,,,,,,,,,,,,,,,,,,,132,001,2023-03-03_15h01.59.818,eb_01,2022.2.4,99.93004927047298,
,,,1,0,1,0,56,0,56,0,,,,,,,,,,,,,,,,,,,,,,,,,,,,,,,,,,,,,,,,,,,,,,,,,,,,,,,,,,,132,001,2023-03-03_15h01.59.818,eb_01,2022.2.4,99.93004927047298,
8,stimuli/8.png,l,1,0,1,0,57,0,57,0,0,0,0,0,,,,,,,,,,,,,,,,,,482.7920347638137,482.7920347638137,482.7920347638137,482.7920347638137,l,1,0.6652325899922289,483.48252980574034,483.48252980574034,483.48252980574034,,,,,,,,,,,,,,,,,,,,,,,,,,,,132,001,2023-03-03_15h01.59.818,eb_01,2022.2.4,99.93004927047298,
,,,1,0,1,0,57,0,57,0,,,,,,,,,,,,,,,,,,,,,,,,,,,,,,,,,,,,,,,,,,,,,,,,,,,,,,,,,,,132,001,2023-03-03_15h01.59.818,eb_01,2022.2.4,99.93004927047298,
9,stimuli/9.png,l,1,0,1,0,58,0,58,0,0,0,0,0,,,,,,,,,,,,,,,,,,484.502867452451,484.502867452451,484.502867452451,484.502867452451,l,1,0.8104679462849163,485.33342378863017,485.33342378863017,485.33342378863017,,,,,,,,,,,,,,,,,,,,,,,,,,,,132,001,2023-03-03_15h01.59.818,eb_01,2022.2.4,99.93004927047298,
,,,1,0,1,0,58,0,58,0,,,,,,,,,,,,,,,,,,,,,,,,,,,,,,,,,,,,,,,,,,,,,,,,,,,,,,,,,,,132,001,2023-03-03_15h01.59.818,eb_01,2022.2.4,99.93004927047298,
8,stimuli/8.png,l,1,0,1,0,59,0,59,0,0,0,0,0,,,,,,,,,,,,,,,,,,486.33441899792524,486.33441899792524,486.33441899792524,486.33441899792524,l,1,0.6749628209799994,487.0349002421426,487.0349002421426,487.0349002421426,,,,,,,,,,,,,,,,,,,,,,,,,,,,132,001,2023-03-03_15h01.59.818,eb_01,2022.2.4,99.93004927047298,
,,,1,0,1,0,59,0,59,0,,,,,,,,,,,,,,,,,,,,,,,,,,,,,,,,,,,,,,,,,,,,,,,,,,,,,,,,,,,132,001,2023-03-03_15h01.59.818,eb_01,2022.2.4,99.93004927047298,
6,stimuli/6.png,s,1,0,1,0,60,0,60,0,0,0,0,0,,,,,,,,,,,,,,,,,,488.05558320865384,488.05558320865384,488.05558320865384,488.05558320865384,s,1,0.5858416327391751,488.6759982504591,488.6759982504591,488.6759982504591,,,,,,,,,,,,,,,,,,,,,,,,,,,,132,001,2023-03-03_15h01.59.818,eb_01,2022.2.4,99.93004927047298,
,,,1,0,1,0,60,0,60,0,,,,,,,,,,,,,,,,,,,,,,,,,,,,,,,,,,,,,,,,,,,,,,,,,,,,,,,,,,,132,001,2023-03-03_15h01.59.818,eb_01,2022.2.4,99.93004927047298,
9,stimuli/9.png,l,1,0,1,0,61,0,61,0,0,0,0,0,,,,,,,,,,,,,,,,,,489.68667207387625,489.68667207387625,489.68667207387625,489.68667207387625,l,1,0.47481255856109783,490.18668429891113,490.18668429891113,490.18668429891113,,,,,,,,,,,,,,,,,,,,,,,,,,,,132,001,2023-03-03_15h01.59.818,eb_01,2022.2.4,99.93004927047298,
,,,1,0,1,0,61,0,61,0,,,,,,,,,,,,,,,,,,,,,,,,,,,,,,,,,,,,,,,,,,,,,,,,,,,,,,,,,,,132,001,2023-03-03_15h01.59.818,eb_01,2022.2.4,99.93004927047298,
5,stimuli/5.png,s,1,0,1,0,62,0,62,0,0,0,0,0,,,,,,,,,,,,,,,,,,491.1976814068621,491.1976814068621,491.1976814068621,491.1976814068621,s,1,0.5878528791945428,491.808103907475,491.808103907475,491.808103907475,,,,,,,,,,,,,,,,,,,,,,,,,,,,132,001,2023-03-03_15h01.59.818,eb_01,2022.2.4,99.93004927047298,
,,,1,0,1,0,62,0,62,0,,,,,,,,,,,,,,,,,,,,,,,,,,,,,,,,,,,,,,,,,,,,,,,,,,,,,,,,,,,132,001,2023-03-03_15h01.59.818,eb_01,2022.2.4,99.93004927047298,
9,stimuli/9.png,l,1,0,1,0,63,0,63,0,0,0,0,0,,,,,,,,,,,,,,,,,,492.8287799313839,492.8287799313839,492.8287799313839,492.8287799313839,l,1,0.42879597656428814,493.2787838705699,493.2787838705699,493.2787838705699,,,,,,,,,,,,,,,,,,,,,,,,,,,,132,001,2023-03-03_15h01.59.818,eb_01,2022.2.4,99.93004927047298,
,,,1,0,1,0,63,0,63,0,,,,,,,,,,,,,,,,,,,,,,,,,,,,,,,,,,,,,,,,,,,,,,,,,,,,,,,,,,,132,001,2023-03-03_15h01.59.818,eb_01,2022.2.4,99.93004927047298,
5,stimuli/5.png,s,1,0,1,0,64,0,64,0,0,0,0,0,,,,,,,,,,,,,,,,,,494.28976679142215,494.28976679142215,494.28976679142215,494.28976679142215,s,1,0.5829393162857741,494.90016876600566,494.90016876600566,494.90016876600566,,,,,,,,,,,,,,,,,,,,,,,,,,,,132,001,2023-03-03_15h01.59.818,eb_01,2022.2.4,99.93004927047298,
,,,1,0,1,0,64,0,64,0,,,,,,,,,,,,,,,,,,,,,,,,,,,,,,,,,,,,,,,,,,,,,,,,,,,,,,,,,,,132,001,2023-03-03_15h01.59.818,eb_01,2022.2.4,99.93004927047298,
9,stimuli/9.png,l,1,0,1,0,65,0,65,0,0,0,0,0,,,,,,,,,,,,,,,,,,495.92085988257895,495.92085988257895,495.92085988257895,495.92085988257895,l,1,0.5198363460949622,496.4609008319385,496.4609008319385,496.4609008319385,,,,,,,,,,,,,,,,,,,,,,,,,,,,132,001,2023-03-03_15h01.59.818,eb_01,2022.2.4,99.93004927047298,
,,,1,0,1,0,65,0,65,0,,,,,,,,,,,,,,,,,,,,,,,,,,,,,,,,,,,,,,,,,,,,,,,,,,,,,,,,,,,132,001,2023-03-03_15h01.59.818,eb_01,2022.2.4,99.93004927047298,
5,stimuli/5.png,s,1,0,1,0,66,0,66,0,0,0,0,0,,,,,,,,,,,,,,,,,,497.47190548622166,497.47190548622166,497.47190548622166,497.47190548622166,s,1,0.600847348337993,498.1023269544821,498.1023269544821,498.1023269544821,,,,,,,,,,,,,,,,,,,,,,,,,,,,132,001,2023-03-03_15h01.59.818,eb_01,2022.2.4,99.93004927047298,
,,,1,0,1,0,66,0,66,0,,,,,,,,,,,,,,,,,,,,,,,,,,,,,,,,,,,,,,,,,,,,,,,,,,,,,,,,,,,132,001,2023-03-03_15h01.59.818,eb_01,2022.2.4,99.93004927047298,
9,stimuli/9.png,l,1,0,1,0,67,0,67,0,0,0,0,0,,,,,,,,,,,,,,,,,,499.12301112842397,499.12301112842397,499.12301112842397,499.12301112842397,l,1,0.34977327994420193,499.4929386021977,499.4929386021977,499.4929386021977,,,,,,,,,,,,,,,,,,,,,,,,,,,,132,001,2023-03-03_15h01.59.818,eb_01,2022.2.4,99.93004927047298,
,,,1,0,1,0,67,0,67,0,,,,,,,,,,,,,,,,,,,,,,,,,,,,,,,,,,,,,,,,,,,,,,,,,,,,,,,,,,,132,001,2023-03-03_15h01.59.818,eb_01,2022.2.4,99.93004927047298,
8,stimuli/8.png,l,1,0,1,0,68,0,68,0,0,0,0,0,,,,,,,,,,,,,,,,,,500.50394235091517,500.50394235091517,500.50394235091517,500.50394235091517,l,1,0.6088820710720029,501.1343623099383,501.1343623099383,501.1343623099383,,,,,,,,,,,,,,,,,,,,,,,,,,,,132,001,2023-03-03_15h01.59.818,eb_01,2022.2.4,99.93004927047298,
,,,1,0,1,0,68,0,68,0,,,,,,,,,,,,,,,,,,,,,,,,,,,,,,,,,,,,,,,,,,,,,,,,,,,,,,,,,,,132,001,2023-03-03_15h01.59.818,eb_01,2022.2.4,99.93004927047298,
6,stimuli/6.png,s,1,0,1,0,69,0,69,0,0,0,0,0,,,,,,,,,,,,,,,,,,502.15506489688414,502.15506489688414,502.15506489688414,502.15506489688414,s,1,0.6778316317650024,502.8655380786222,502.8655380786222,502.8655380786222,,,,,,,,,,,,,,,,,,,,,,,,,,,,132,001,2023-03-03_15h01.59.818,eb_01,2022.2.4,99.93004927047298,
,,,1,0,1,0,69,0,69,0,,,,,,,,,,,,,,,,,,,,,,,,,,,,,,,,,,,,,,,,,,,,,,,,,,,,,,,,,,,132,001,2023-03-03_15h01.59.818,eb_01,2022.2.4,99.93004927047298,
9,stimuli/9.png,l,1,0,1,0,70,0,70,0,0,0,0,0,,,,,,,,,,,,,,,,,,503.87620978904306,503.87620978904306,503.87620978904306,503.87620978904306,l,1,0.46075013355584815,504.3662285673199,504.3662285673199,504.3662285673199,,,,,,,,,,,,,,,,,,,,,,,,,,,,132,001,2023-03-03_15h01.59.818,eb_01,2022.2.4,99.93004927047298,
,,,1,0,1,0,70,0,70,0,,,,,,,,,,,,,,,,,,,,,,,,,,,,,,,,,,,,,,,,,,,,,,,,,,,,,,,,,,,132,001,2023-03-03_15h01.59.818,eb_01,2022.2.4,99.93004927047298,
5,stimuli/5.png,s,1,0,1,0,71,0,71,0,0,0,0,0,,,,,,,,,,,,,,,,,,505.377228090103,505.377228090103,505.377228090103,505.377228090103,l,0,0.2717418685206212,505.6774217891507,505.6774217891507,505.6774217891507,,,,,,,,,,,,,,,,,,,,,,,,,,,,132,001,2023-03-03_15h01.59.818,eb_01,2022.2.4,99.93004927047298,
,,,1,0,1,0,71,0,71,0,,,,,,,,,,,,,,,,,,,,,,,,,,,,,,,,,,,,,,,,,,,,,,,,,,,,,,,,,,,132,001,2023-03-03_15h01.59.818,eb_01,2022.2.4,99.93004927047298,
6,stimuli/6.png,s,1,0,1,0,72,0,72,0,0,0,0,0,,,,,,,,,,,,,,,,,,506.6981210557278,506.6981210557278,506.6981210557278,506.6981210557278,s,1,0.7029053518199362,507.4386165353353,507.4386165353353,507.4386165353353,,,,,,,,,,,,,,,,,,,,,,,,,,,,132,001,2023-03-03_15h01.59.818,eb_01,2022.2.4,99.93004927047298,
,,,1,0,1,0,72,0,72,0,,,,,,,,,,,,,,,,,,,,,,,,,,,,,,,,,,,,,,,,,,,,,,,,,,,,,,,,,,,132,001,2023-03-03_15h01.59.818,eb_01,2022.2.4,99.93004927047298,
5,stimuli/5.png,s,1,0,1,0,73,0,73,0,0,0,0,0,,,,,,,,,,,,,,,,,,508.4392745748337,508.4392745748337,508.4392745748337,508.4392745748337,s,1,0.48981767043005675,508.9496340183541,508.9496340183541,508.9496340183541,,,,,,,,,,,,,,,,,,,,,,,,,,,,132,001,2023-03-03_15h01.59.818,eb_01,2022.2.4,99.93004927047298,
,,,1,0,1,0,73,0,73,0,,,,,,,,,,,,,,,,,,,,,,,,,,,,,,,,,,,,,,,,,,,,,,,,,,,,,,,,,,,132,001,2023-03-03_15h01.59.818,eb_01,2022.2.4,99.93004927047298,
9,stimuli/9.png,l,1,0,1,0,74,0,74,0,0,0,0,0,,,,,,,,,,,,,,,,,,509.9703000811278,509.9703000811278,509.9703000811278,509.9703000811278,l,1,1.1738548695866484,511.17077211881406,511.17077211881406,511.17077211881406,,,,,,,,,,,,,,,,,,,,,,,,,,,,132,001,2023-03-03_15h01.59.818,eb_01,2022.2.4,99.93004927047298,
,,,1,0,1,0,74,0,74,0,,,,,,,,,,,,,,,,,,,,,,,,,,,,,,,,,,,,,,,,,,,,,,,,,,,,,,,,,,,132,001,2023-03-03_15h01.59.818,eb_01,2022.2.4,99.93004927047298,
6,stimuli/6.png,s,1,0,1,0,75,0,75,0,0,0,0,0,,,,,,,,,,,,,,,,,,512.1917998014542,512.1917998014542,512.1917998014542,512.1917998014542,s,1,0.9604215665895026,513.1824607719609,513.1824607719609,513.1824607719609,,,,,,,,,,,,,,,,,,,,,,,,,,,,132,001,2023-03-03_15h01.59.818,eb_01,2022.2.4,99.93004927047298,
,,,1,0,1,0,75,0,75,0,,,,,,,,,,,,,,,,,,,,,,,,,,,,,,,,,,,,,,,,,,,,,,,,,,,,,,,,,,,132,001,2023-03-03_15h01.59.818,eb_01,2022.2.4,99.93004927047298,
8,stimuli/8.png,l,1,0,1,0,76,0,76,0,0,0,0,0,,,,,,,,,,,,,,,,,,514.1832160081249,514.1832160081249,514.1832160081249,514.1832160081249,l,1,0.8570646897132974,515.0637410874187,515.0637410874187,515.0637410874187,,,,,,,,,,,,,,,,,,,,,,,,,,,,132,001,2023-03-03_15h01.59.818,eb_01,2022.2.4,99.93004927047298,
,,,1,0,1,0,76,0,76,0,,,,,,,,,,,,,,,,,,,,,,,,,,,,,,,,,,,,,,,,,,,,,,,,,,,,,,,,,,,132,001,2023-03-03_15h01.59.818,eb_01,2022.2.4,99.93004927047298,
3,stimuli/3.png,l,1,0,1,0,77,0,77,0,0,0,0,0,,,,,,,,,,,,,,,,,,516.0744188349054,516.0744188349054,516.0744188349054,516.0744188349054,l,1,0.989935242163483,517.0747538917349,517.0747538917349,517.0747538917349,518.0857808831206,518.0857808831206,518.0857808831206,,,,,,,,,,,,,,,,,,,,,,,,,132,001,2023-03-03_15h01.59.818,eb_01,2022.2.4,99.93004927047298,
,,,1,0,1,0,77,0,77,0,,,,,,,,,,,,,,,,,,,,,,,,,,,,,,,,,,,,,,,,,,,,,,,,,,,,,,,,,,,132,001,2023-03-03_15h01.59.818,eb_01,2022.2.4,99.93004927047298,
8,stimuli/8.png,l,1,0,1,0,78,0,78,0,0,0,0,0,,,,,,,,,,,,,,,,,,518.0857808831206,518.0857808831206,518.0857808831206,518.0857808831206,l,1,0.4985967626562342,518.6061060029315,518.6061060029315,518.6061060029315,,,,,,,,,,,,,,,,,,,,,,,,,,,,132,001,2023-03-03_15h01.59.818,eb_01,2022.2.4,99.93004927047298,
,,,1,0,1,0,78,0,78,0,,,,,,,,,,,,,,,,,,,,,,,,,,,,,,,,,,,,,,,,,,,,,,,,,,,,,,,,,,,132,001,2023-03-03_15h01.59.818,eb_01,2022.2.4,99.93004927047298,
3,stimuli/3.png,l,1,0,1,0,79,0,79,0,0,0,0,0,,,,,,,,,,,,,,,,,,519.616784052283,519.616784052283,519.616784052283,519.616784052283,l,1,0.47170015244046226,520.1067922656948,520.1067922656948,520.1067922656948,521.1174718243128,521.1174718243128,521.1174718243128,,,,,,,,,,,,,,,,,,,,,,,,,132,001,2023-03-03_15h01.59.818,eb_01,2022.2.4,99.93004927047298,
,,,1,0,1,0,79,0,79,0,,,,,,,,,,,,,,,,,,,,,,,,,,,,,,,,,,,,,,,,,,,,,,,,,,,,,,,,,,,132,001,2023-03-03_15h01.59.818,eb_01,2022.2.4,99.93004927047298,
4,stimuli/4.png,l,1,0,1,0,80,0,80,0,0,0,0,0,,,,,,,,,,,,,,,,,,521.1174718243128,521.1174718243128,521.1174718243128,521.1174718243128,s,0,0.6910087219730485,521.8382780374086,521.8382780374086,521.8382780374086,,,,,,,,,,,,,,,,,,,,,,,,,,,,132,001,2023-03-03_15h01.59.818,eb_01,2022.2.4,99.93004927047298,
,,,1,0,1,0,80,0,80,0,,,,,,,,,,,,,,,,,,,,,,,,,,,,,,,,,,,,,,,,,,,,,,,,,,,,,,,,,,,132,001,2023-03-03_15h01.59.818,eb_01,2022.2.4,99.93004927047298,
3,stimuli/3.png,l,1,0,1,0,81,0,81,0,0,0,0,0,,,,,,,,,,,,,,,,,,522.8489533700631,522.8489533700631,522.8489533700631,522.8489533700631,l,1,0.6715905194287188,523.5494240494154,523.5494240494154,523.5494240494154,,,,,,,,,,,,,,,,,,,,,,,,,,,,132,001,2023-03-03_15h01.59.818,eb_01,2022.2.4,99.93004927047298,
,,,1,0,1,0,81,0,81,0,,,,,,,,,,,,,,,,,,,,,,,,,,,,,,,,,,,,,,,,,,,,,,,,,,,,,,,,,,,132,001,2023-03-03_15h01.59.818,eb_01,2022.2.4,99.93004927047298,
2,stimuli/2.png,s,1,0,1,0,82,0,82,0,0,0,0,0,,,,,,,,,,,,,,,,,,524.5601033061685,524.5601033061685,524.5601033061685,524.5601033061685,s,1,0.7125157471455168,525.2902892989223,525.2902892989223,525.2902892989223,526.3012749364716,526.3012749364716,526.3012749364716,,,,,,,,,,,,,,,,,,,,,,,,,132,001,2023-03-03_15h01.59.818,eb_01,2022.2.4,99.93004927047298,
,,,1,0,1,0,82,0,82,0,,,,,,,,,,,,,,,,,,,,,,,,,,,,,,,,,,,,,,,,,,,,,,,,,,,,,,,,,,,132,001,2023-03-03_15h01.59.818,eb_01,2022.2.4,99.93004927047298,
3,stimuli/3.png,l,1,0,1,0,83,0,83,0,0,0,0,0,,,,,,,,,,,,,,,,,,526.3012749364716,526.3012749364716,526.3012749364716,526.3012749364716,l,1,0.6423750745889265,526.9614126236993,526.9614126236993,526.9614126236993,527.9723955445515,527.9723955445515,527.9723955445515,,,,,,,,,,,,,,,,,,,,,,,,,132,001,2023-03-03_15h01.59.818,eb_01,2022.2.4,99.93004927047298,
,,,1,0,1,0,83,0,83,0,,,,,,,,,,,,,,,,,,,,,,,,,,,,,,,,,,,,,,,,,,,,,,,,,,,,,,,,,,,132,001,2023-03-03_15h01.59.818,eb_01,2022.2.4,99.93004927047298,
8,stimuli/8.png,l,1,0,1,0,84,0,84,0,0,0,0,0,,,,,,,,,,,,,,,,,,527.9723955445515,527.9723955445515,527.9723955445515,527.9723955445515,l,1,0.667357031343272,528.6628658345144,528.6628658345144,528.6628658345144,,,,,,,,,,,,,,,,,,,,,,,,,,,,132,001,2023-03-03_15h01.59.818,eb_01,2022.2.4,99.93004927047298,
,,,1,0,1,0,84,0,84,0,,,,,,,,,,,,,,,,,,,,,,,,,,,,,,,,,,,,,,,,,,,,,,,,,,,,,,,,,,,132,001,2023-03-03_15h01.59.818,eb_01,2022.2.4,99.93004927047298,
9,stimuli/9.png,l,1,0,1,0,85,0,85,0,0,0,0,0,,,,,,,,,,,,,,,,,,529.6835651010915,529.6835651010915,529.6835651010915,529.6835651010915,l,1,0.6841792981722392,530.3936965852336,530.3936965852336,530.3936965852336,,,,,,,,,,,,,,,,,,,,,,,,,,,,132,001,2023-03-03_15h01.59.818,eb_01,2022.2.4,99.93004927047298,
,,,1,0,1,0,85,0,85,0,,,,,,,,,,,,,,,,,,,,,,,,,,,,,,,,,,,,,,,,,,,,,,,,,,,,,,,,,,,132,001,2023-03-03_15h01.59.818,eb_01,2022.2.4,99.93004927047298,
5,stimuli/5.png,s,1,0,1,0,86,0,86,0,0,0,0,0,,,,,,,,,,,,,,,,,,531.4047072765825,531.4047072765825,531.4047072765825,531.4047072765825,s,1,0.9721310475724749,532.405434440414,532.405434440414,532.405434440414,,,,,,,,,,,,,,,,,,,,,,,,,,,,132,001,2023-03-03_15h01.59.818,eb_01,2022.2.4,99.93004927047298,
,,,1,0,1,0,86,0,86,0,,,,,,,,,,,,,,,,,,,,,,,,,,,,,,,,,,,,,,,,,,,,,,,,,,,,,,,,,,,132,001,2023-03-03_15h01.59.818,eb_01,2022.2.4,99.93004927047298,
9,stimuli/9.png,l,1,0,1,0,87,0,87,0,0,0,0,0,,,,,,,,,,,,,,,,,,533.4260636771214,533.4260636771214,533.4260636771214,533.4260636771214,l,1,0.8858306754846126,534.336351762584,534.336351762584,534.336351762584,,,,,,,,,,,,,,,,,,,,,,,,,,,,132,001,2023-03-03_15h01.59.818,eb_01,2022.2.4,99.93004927047298,
,,,1,0,1,0,87,0,87,0,,,,,,,,,,,,,,,,,,,,,,,,,,,,,,,,,,,,,,,,,,,,,,,,,,,,,,,,,,,132,001,2023-03-03_15h01.59.818,eb_01,2022.2.4,99.93004927047298,
5,stimuli/5.png,s,1,0,1,0,88,0,88,0,0,0,0,0,,,,,,,,,,,,,,,,,,535.347367283568,535.347367283568,535.347367283568,535.347367283568,s,1,0.7805935563810635,536.1479342238454,536.1479342238454,536.1479342238454,,,,,,,,,,,,,,,,,,,,,,,,,,,,132,001,2023-03-03_15h01.59.818,eb_01,2022.2.4,99.93004927047298,
,,,1,0,1,0,88,0,88,0,,,,,,,,,,,,,,,,,,,,,,,,,,,,,,,,,,,,,,,,,,,,,,,,,,,,,,,,,,,132,001,2023-03-03_15h01.59.818,eb_01,2022.2.4,99.93004927047298,
6,stimuli/6.png,s,1,0,1,0,89,0,89,0,0,0,0,0,,,,,,,,,,,,,,,,,,537.1685957587906,537.1685957587906,537.1685957587906,537.1685957587906,s,1,1.1194196078577079,538.3193683062273,538.3193683062273,538.3193683062273,,,,,,,,,,,,,,,,,,,,,,,,,,,,132,001,2023-03-03_15h01.59.818,eb_01,2022.2.4,99.93004927047298,
,,,1,0,1,0,89,0,89,0,,,,,,,,,,,,,,,,,,,,,,,,,,,,,,,,,,,,,,,,,,,,,,,,,,,,,,,,,,,132,001,2023-03-03_15h01.59.818,eb_01,2022.2.4,99.93004927047298,
9,stimuli/9.png,l,1,0,1,0,90,0,90,0,0,0,0,0,,,,,,,,,,,,,,,,,,539.3300309610786,539.3300309610786,539.3300309610786,539.3300309610786,l,1,0.6380458990752231,539.9901810242736,539.9901810242736,539.9901810242736,,,,,,,,,,,,,,,,,,,,,,,,,,,,132,001,2023-03-03_15h01.59.818,eb_01,2022.2.4,99.93004927047298,
,,,1,0,1,0,90,0,90,0,,,,,,,,,,,,,,,,,,,,,,,,,,,,,,,,,,,,,,,,,,,,,,,,,,,,,,,,,,,132,001,2023-03-03_15h01.59.818,eb_01,2022.2.4,99.93004927047298,
8,stimuli/8.png,l,1,0,1,0,91,0,91,0,0,0,0,0,,,,,,,,,,,,,,,,,,541.0011545876914,541.0011545876914,541.0011545876914,541.0011545876914,l,1,0.5509827444911934,541.5815795423405,541.5815795423405,541.5815795423405,,,,,,,,,,,,,,,,,,,,,,,,,,,,132,001,2023-03-03_15h01.59.818,eb_01,2022.2.4,99.93004927047298,
,,,1,0,1,0,91,0,91,0,,,,,,,,,,,,,,,,,,,,,,,,,,,,,,,,,,,,,,,,,,,,,,,,,,,,,,,,,,,132,001,2023-03-03_15h01.59.818,eb_01,2022.2.4,99.93004927047298,
6,stimuli/6.png,s,1,0,1,0,92,0,92,0,0,0,0,0,,,,,,,,,,,,,,,,,,542.602229908749,542.602229908749,542.602229908749,542.602229908749,s,1,0.820954017166514,543.4628088446625,543.4628088446625,543.4628088446625,,,,,,,,,,,,,,,,,,,,,,,,,,,,132,001,2023-03-03_15h01.59.818,eb_01,2022.2.4,99.93004927047298,
,,,1,0,1,0,92,0,92,0,,,,,,,,,,,,,,,,,,,,,,,,,,,,,,,,,,,,,,,,,,,,,,,,,,,,,,,,,,,132,001,2023-03-03_15h01.59.818,eb_01,2022.2.4,99.93004927047298,
8,stimuli/8.png,l,1,0,1,0,93,0,93,0,0,0,0,0,,,,,,,,,,,,,,,,,,544.4634816749603,544.4634816749603,544.4634816749603,544.4634816749603,l,1,0.4957285556010902,544.9838369800709,544.9838369800709,544.9838369800709,,,,,,,,,,,,,,,,,,,,,,,,,,,,132,001,2023-03-03_15h01.59.818,eb_01,2022.2.4,99.93004927047298,
,,,1,0,1,0,93,0,93,0,,,,,,,,,,,,,,,,,,,,,,,,,,,,,,,,,,,,,,,,,,,,,,,,,,,,,,,,,,,132,001,2023-03-03_15h01.59.818,eb_01,2022.2.4,99.93004927047298,
3,stimuli/3.png,l,1,0,1,0,94,0,94,0,0,0,0,0,,,,,,,,,,,,,,,,,,545.9945132183202,545.9945132183202,545.9945132183202,545.9945132183202,l,1,1.8448251548979897,547.8554827519692,547.8554827519692,547.8554827519692,548.866432469018,548.866432469018,548.866432469018,,,,,,,,,,,,,,,,,,,,,,,,,132,001,2023-03-03_15h01.59.818,eb_01,2022.2.4,99.93004927047298,
,,,1,0,1,0,94,0,94,0,,,,,,,,,,,,,,,,,,,,,,,,,,,,,,,,,,,,,,,,,,,,,,,,,,,,,,,,,,,132,001,2023-03-03_15h01.59.818,eb_01,2022.2.4,99.93004927047298,
8,stimuli/8.png,l,1,0,1,0,95,0,95,0,0,0,0,0,,,,,,,,,,,,,,,,,,548.866432469018,548.866432469018,548.866432469018,548.866432469018,l,1,0.972946956200758,549.8671176752832,549.8671176752832,549.8671176752832,,,,,,,,,,,,,,,,,,,,,,,,,,,,132,001,2023-03-03_15h01.59.818,eb_01,2022.2.4,99.93004927047298,
,,,1,0,1,0,95,0,95,0,,,,,,,,,,,,,,,,,,,,,,,,,,,,,,,,,,,,,,,,,,,,,,,,,,,,,,,,,,,132,001,2023-03-03_15h01.59.818,eb_01,2022.2.4,99.93004927047298,
3,stimuli/3.png,l,1,0,1,0,96,0,96,0,0,0,0,0,,,,,,,,,,,,,,,,,,550.8778150432045,550.8778150432045,550.8778150432045,550.8778150432045,l,1,1.017627536872169,551.9081651534361,551.9081651534361,551.9081651534361,552.9191619595222,552.9191619595222,552.9191619595222,,,,,,,,,,,,,,,,,,,,,,,,,132,001,2023-03-03_15h01.59.818,eb_01,2022.2.4,99.93004927047298,
,,,1,0,1,0,96,0,96,0,,,,,,,,,,,,,,,,,,,,,,,,,,,,,,,,,,,,,,,,,,,,,,,,,,,,,,,,,,,132,001,2023-03-03_15h01.59.818,eb_01,2022.2.4,99.93004927047298,
2,stimuli/2.png,s,1,0,1,0,97,0,97,0,0,0,0,0,,,,,,,,,,,,,,,,,,552.9191619595222,552.9191619595222,552.9191619595222,552.9191619595222,s,1,0.7443591240735259,553.6793521389773,553.6793521389773,553.6793521389773,554.7003598993178,554.7003598993178,554.7003598993178,,,,,,,,,,,,,,,,,,,,,,,,,132,001,2023-03-03_15h01.59.818,eb_01,2022.2.4,99.93004927047298,
,,,1,0,1,0,97,0,97,0,,,,,,,,,,,,,,,,,,,,,,,,,,,,,,,,,,,,,,,,,,,,,,,,,,,,,,,,,,,132,001,2023-03-03_15h01.59.818,eb_01,2022.2.4,99.93004927047298,
1,stimuli/1.png,s,1,0,1,0,98,0,98,0,0,0,0,0,,,,,,,,,,,,,,,,,,554.7003598993178,554.7003598993178,554.7003598993178,554.7003598993178,s,1,0.7312046728329733,555.4605570214044,555.4605570214044,555.4605570214044,,,,,,,,,,,,,,,,,,,,,,,,,,,,132,001,2023-03-03_15h01.59.818,eb_01,2022.2.4,99.93004927047298,
,,,1,0,1,0,98,0,98,0,,,,,,,,,,,,,,,,,,,,,,,,,,,,,,,,,,,,,,,,,,,,,,,,,,,,,,,,,,,132,001,2023-03-03_15h01.59.818,eb_01,2022.2.4,99.93004927047298,
4,stimuli/4.png,l,1,0,1,0,99,0,99,0,0,0,0,0,,,,,,,,,,,,,,,,,,556.4712296373909,556.4712296373909,556.4712296373909,556.4712296373909,l,1,0.8793927550141234,557.3721835229953,557.3721835229953,557.3721835229953,,,,,,,,,,,,,,,,,,,,,,,,,,,,132,001,2023-03-03_15h01.59.818,eb_01,2022.2.4,99.93004927047298,
,,,1,0,1,0,99,0,99,0,,,,,,,,,,,,,,,,,,,,,,,,,,,,,,,,,,,,,,,,,,,,,,,,,,,,,,,,,,,132,001,2023-03-03_15h01.59.818,eb_01,2022.2.4,99.93004927047298,
,,,1,0,1,0,,,,,,,,,,,,,,,,,,,,,,,,,,,,,,,,,,,,,,,558.3728228476248,558.3728228476248,return,29.513795362319797,,,,,,,,,,,,,,,,,,,,,132,001,2023-03-03_15h01.59.818,eb_01,2022.2.4,99.93004927047298,
3,stimuli/3.png,l,2,0,2,0,0,0,0,0,0,0,0,0,,,,,,,,,,,,,,,,,,587.912683590781,587.912683590781,587.912683590781,587.912683590781,l,1,1.5249723746383097,589.4534076334385,589.4534076334385,589.4534076334385,590.4643917617213,590.4643917617213,590.4643917617213,,,,,,,,,,,,,,,,,,,,,,,,,132,001,2023-03-03_15h01.59.818,eb_01,2022.2.4,99.93004927047298,
,,,2,0,2,0,0,0,0,0,,,,,,,,,,,,,,,,,,,,,,,,,,,,,,,,,,,,,,,,,,,,,,,,,,,,,,,,,,,132,001,2023-03-03_15h01.59.818,eb_01,2022.2.4,99.93004927047298,
8,stimuli/8.png,l,2,0,2,0,1,0,1,0,0,0,0,0,,,,,,,,,,,,,,,,,,590.4643917617213,590.4643917617213,590.4643917617213,590.4643917617213,l,1,0.5573059607995674,591.0447958885343,591.0447958885343,591.0447958885343,,,,,,,,,,,,,,,,,,,,,,,,,,,,132,001,2023-03-03_15h01.59.818,eb_01,2022.2.4,99.93004927047298,
,,,2,0,2,0,1,0,1,0,,,,,,,,,,,,,,,,,,,,,,,,,,,,,,,,,,,,,,,,,,,,,,,,,,,,,,,,,,,132,001,2023-03-03_15h01.59.818,eb_01,2022.2.4,99.93004927047298,
9,stimuli/9.png,l,2,0,2,0,2,0,2,0,0,0,0,0,,,,,,,,,,,,,,,,,,592.0654839865747,592.0654839865747,592.0654839865747,592.0654839865747,l,1,0.9162743601482362,593.0057702216727,593.0057702216727,593.0057702216727,,,,,,,,,,,,,,,,,,,,,,,,,,,,132,001,2023-03-03_15h01.59.818,eb_01,2022.2.4,99.93004927047298,
,,,2,0,2,0,2,0,2,0,,,,,,,,,,,,,,,,,,,,,,,,,,,,,,,,,,,,,,,,,,,,,,,,,,,,,,,,,,,132,001,2023-03-03_15h01.59.818,eb_01,2022.2.4,99.93004927047298,
6,stimuli/6.png,s,2,0,2,0,3,0,3,0,0,0,0,0,,,,,,,,,,,,,,,,,,594.0267794912797,594.0267794912797,594.0267794912797,594.0267794912797,s,1,0.6190403295913711,594.6772455070168,594.6772455070168,594.6772455070168,,,,,,,,,,,,,,,,,,,,,,,,,,,,132,001,2023-03-03_15h01.59.818,eb_01,2022.2.4,99.93004927047298,
,,,2,0,2,0,3,0,3,0,,,,,,,,,,,,,,,,,,,,,,,,,,,,,,,,,,,,,,,,,,,,,,,,,,,,,,,,,,,132,001,2023-03-03_15h01.59.818,eb_01,2022.2.4,99.93004927047298,
8,stimuli/8.png,l,2,0,2,0,4,0,4,0,0,0,0,0,,,,,,,,,,,,,,,,,,595.677855853748,595.677855853748,595.677855853748,595.677855853748,l,1,0.9840337144851219,596.6885779736331,596.6885779736331,596.6885779736331,,,,,,,,,,,,,,,,,,,,,,,,,,,,132,001,2023-03-03_15h01.59.818,eb_01,2022.2.4,99.93004927047298,
,,,2,0,2,0,4,0,4,0,,,,,,,,,,,,,,,,,,,,,,,,,,,,,,,,,,,,,,,,,,,,,,,,,,,,,,,,,,,132,001,2023-03-03_15h01.59.818,eb_01,2022.2.4,99.93004927047298,
6,stimuli/6.png,s,2,0,2,0,5,0,5,0,0,0,0,0,,,,,,,,,,,,,,,,,,597.7092639586772,597.7092639586772,597.7092639586772,597.7092639586772,s,1,1.1686853354040068,598.9100680346601,598.9100680346601,598.9100680346601,,,,,,,,,,,,,,,,,,,,,,,,,,,,132,001,2023-03-03_15h01.59.818,eb_01,2022.2.4,99.93004927047298,
,,,2,0,2,0,5,0,5,0,,,,,,,,,,,,,,,,,,,,,,,,,,,,,,,,,,,,,,,,,,,,,,,,,,,,,,,,,,,132,001,2023-03-03_15h01.59.818,eb_01,2022.2.4,99.93004927047298,
9,stimuli/9.png,l,2,0,2,0,6,0,6,0,0,0,0,0,,,,,,,,,,,,,,,,,,599.9207669118477,599.9207669118477,599.9207669118477,599.9207669118477,l,1,1.3492543946485966,601.2913469917839,601.2913469917839,601.2913469917839,,,,,,,,,,,,,,,,,,,,,,,,,,,,132,001,2023-03-03_15h01.59.818,eb_01,2022.2.4,99.93004927047298,
,,,2,0,2,0,6,0,6,0,,,,,,,,,,,,,,,,,,,,,,,,,,,,,,,,,,,,,,,,,,,,,,,,,,,,,,,,,,,132,001,2023-03-03_15h01.59.818,eb_01,2022.2.4,99.93004927047298,
8,stimuli/8.png,l,2,0,2,0,7,0,7,0,0,0,0,0,,,,,,,,,,,,,,,,,,602.3023619090673,602.3023619090673,602.3023619090673,602.3023619090673,l,1,1.0477376739727333,603.3730857615883,603.3730857615883,603.3730857615883,,,,,,,,,,,,,,,,,,,,,,,,,,,,132,001,2023-03-03_15h01.59.818,eb_01,2022.2.4,99.93004927047298,
,,,2,0,2,0,7,0,7,0,,,,,,,,,,,,,,,,,,,,,,,,,,,,,,,,,,,,,,,,,,,,,,,,,,,,,,,,,,,132,001,2023-03-03_15h01.59.818,eb_01,2022.2.4,99.93004927047298,
6,stimuli/6.png,s,2,0,2,0,8,0,8,0,0,0,0,0,,,,,,,,,,,,,,,,,,604.3937518243329,604.3937518243329,604.3937518243329,604.3937518243329,s,1,1.5474190681416076,605.974811877677,605.974811877677,605.974811877677,,,,,,,,,,,,,,,,,,,,,,,,,,,,132,001,2023-03-03_15h01.59.818,eb_01,2022.2.4,99.93004927047298,
,,,2,0,2,0,8,0,8,0,,,,,,,,,,,,,,,,,,,,,,,,,,,,,,,,,,,,,,,,,,,,,,,,,,,,,,,,,,,132,001,2023-03-03_15h01.59.818,eb_01,2022.2.4,99.93004927047298,
8,stimuli/8.png,l,2,0,2,0,9,0,9,0,0,0,0,0,,,,,,,,,,,,,,,,,,606.975489839504,606.975489839504,606.975489839504,606.975489839504,l,1,0.6857546688988805,607.6859587952786,607.6859587952786,607.6859587952786,,,,,,,,,,,,,,,,,,,,,,,,,,,,132,001,2023-03-03_15h01.59.818,eb_01,2022.2.4,99.93004927047298,
,,,2,0,2,0,9,0,9,0,,,,,,,,,,,,,,,,,,,,,,,,,,,,,,,,,,,,,,,,,,,,,,,,,,,,,,,,,,,132,001,2023-03-03_15h01.59.818,eb_01,2022.2.4,99.93004927047298,
3,stimuli/3.png,l,2,0,2,0,10,0,10,0,0,0,0,0,,,,,,,,,,,,,,,,,,608.6966772929009,608.6966772929009,608.6966772929009,608.6966772929009,l,1,0.6366217566828709,609.346758747939,609.346758747939,609.346758747939,610.3577842300583,610.3577842300583,610.3577842300583,,,,,,,,,,,,,,,,,,,,,,,,,132,001,2023-03-03_15h01.59.818,eb_01,2022.2.4,99.93004927047298,
