index,stimulus,correct_answer,block.thisRepN,block.thisTrialN,block.thisN,block.thisIndex,trial.thisRepN,trial.thisTrialN,trial.thisN,trial.thisIndex,display_row.thisRepN,display_row.thisTrialN,display_row.thisN,display_row.thisIndex,pair_questions.thisRepN,pair_questions.thisTrialN,pair_questions.thisN,pair_questions.thisIndex,welcome_text.started,instructions_0_keypress.started,instructions_0_keypress.keys,instructions_0_keypress.rt,instructions_1_keypress.started,instructions_1_text.started,instructions_1_keypress.keys,instructions_1_keypress.rt,instructions_2_keypress.started,instructions_2_text.started,instructions_2_keypress.keys,instructions_2_keypress.rt,text_countdown.started,image.started,size_question.started,size_resp.started,keypress_options.started,size_resp.keys,size_resp.corr,size_resp.rt,fb_image.started,fb.started,fb_size_question.started,fb_image.stopped,fb.stopped,fb_size_question.stopped,block_break_text.started,block_break_keypress.started,block_break_keypress.keys,block_break_keypress.rt,seq_reveal.started,seq_reveal_adv.started,seq_reveal_adv.keys,seq_reveal_adv.rt,instruction_2afc_text.started,instruction_2afc_keypress.started,instruction_2afc_keypress.keys,instruction_2afc_keypress.rt,dist_2afc_test.started,dist_2afc_resp.started,text.started,stim_00.started,stim_01.started,stim_10.started,stim_11.started,dist_2afc_resp.keys,dist_2afc_resp.rt,graph.started,debrief_text.started,debriefing_title.started,participant,session,date,expName,psychopyVersion,frameRate,
,,,,,,,,,,,,,,,,,,,51.96541791094933,51.96541791094933,return,25.842901956726564,,,,,,,,,,,,,,,,,,,,,,,,,,,,,,,,,,,,,,,,,,,,,,,133,001,2023-03-03_15h13.35.822,eb_01,2022.2.4,60.00230021163079,
,,,,,,,,,,,,,,,,,,,,,,,77.83086211327463,77.83086211327463,return,19.873067936627194,,,,,,,,,,,,,,,,,,,,,,,,,,,,,,,,,,,,,,,,,,,133,001,2023-03-03_15h13.35.822,eb_01,2022.2.4,60.00230021163079,
,,,,,,,,,,,,,,,,,,,,,,,,,,,97.7299704697216,97.7299704697216,space,11.333316162403207,,,,,,,,,,,,,,,,,,,,,,,,,,,,,,,,,,,,,,,133,001,2023-03-03_15h13.35.822,eb_01,2022.2.4,60.00230021163079,
5,stimuli/5.png,s,0,0,0,0,0,0,0,0,0,0,0,0,,,,,,,,,,,,,,,,,109.11280185676878,114.12923533696448,114.12923533696448,114.12923533696448,114.12923533696448,s,1,3.5343427040206734,117.69542581043788,117.69542581043788,117.69542581043788,118.71234165169881,118.71234165169881,118.71234165169881,,,,,,,,,,,,,,,,,,,,,,,,,133,001,2023-03-03_15h13.35.822,eb_01,2022.2.4,60.00230021163079,
,,,0,0,0,0,0,0,0,0,,,,,,,,,,,,,,,,,,,,,,,,,,,,,,,,,,,,,,,,,,,,,,,,,,,,,,,,,,,133,001,2023-03-03_15h13.35.822,eb_01,2022.2.4,60.00230021163079,
6,stimuli/6.png,s,0,0,0,0,1,0,1,0,0,0,0,0,,,,,,,,,,,,,,,,,,118.71234165169881,118.71234165169881,118.71234165169881,118.71234165169881,s,1,3.0303342473343946,121.77886099400348,121.77886099400348,121.77886099400348,,,,,,,,,,,,,,,,,,,,,,,,,,,,133,001,2023-03-03_15h13.35.822,eb_01,2022.2.4,60.00230021163079,
,,,0,0,0,0,1,0,1,0,,,,,,,,,,,,,,,,,,,,,,,,,,,,,,,,,,,,,,,,,,,,,,,,,,,,,,,,,,,133,001,2023-03-03_15h13.35.822,eb_01,2022.2.4,60.00230021163079,
8,stimuli/8.png,l,0,0,0,0,2,0,2,0,0,0,0,0,,,,,,,,,,,,,,,,,,122.79548826380051,122.79548826380051,122.79548826380051,122.79548826380051,l,1,1.6752890312636737,124.49544066158705,124.49544066158705,124.49544066158705,125.5120410665113,125.5120410665113,125.5120410665113,,,,,,,,,,,,,,,,,,,,,,,,,133,001,2023-03-03_15h13.35.822,eb_01,2022.2.4,60.00230021163079,
,,,0,0,0,0,2,0,2,0,,,,,,,,,,,,,,,,,,,,,,,,,,,,,,,,,,,,,,,,,,,,,,,,,,,,,,,,,,,133,001,2023-03-03_15h13.35.822,eb_01,2022.2.4,60.00230021163079,
6,stimuli/6.png,s,0,0,0,0,3,0,3,0,0,0,0,0,,,,,,,,,,,,,,,,,,125.5120410665113,125.5120410665113,125.5120410665113,125.5120410665113,s,1,2.638888881658204,128.19530159793794,128.19530159793794,128.19530159793794,,,,,,,,,,,,,,,,,,,,,,,,,,,,133,001,2023-03-03_15h13.35.822,eb_01,2022.2.4,60.00230021163079,
,,,0,0,0,0,3,0,3,0,,,,,,,,,,,,,,,,,,,,,,,,,,,,,,,,,,,,,,,,,,,,,,,,,,,,,,,,,,,133,001,2023-03-03_15h13.35.822,eb_01,2022.2.4,60.00230021163079,
8,stimuli/8.png,l,0,0,0,0,4,0,4,0,0,0,0,0,,,,,,,,,,,,,,,,,,129.21188298609923,129.21188298609923,129.21188298609923,129.21188298609923,l,1,1.4351085352245718,130.67846559677855,130.67846559677855,130.67846559677855,131.69511309074005,131.69511309074005,131.69511309074005,,,,,,,,,,,,,,,,,,,,,,,,,133,001,2023-03-03_15h13.35.822,eb_01,2022.2.4,60.00230021163079,
,,,0,0,0,0,4,0,4,0,,,,,,,,,,,,,,,,,,,,,,,,,,,,,,,,,,,,,,,,,,,,,,,,,,,,,,,,,,,133,001,2023-03-03_15h13.35.822,eb_01,2022.2.4,60.00230021163079,
9,stimuli/9.png,l,0,0,0,0,5,0,5,0,0,0,0,0,,,,,,,,,,,,,,,,,,131.69511309074005,131.69511309074005,131.69511309074005,131.69511309074005,s,0,1.7359518219309393,133.4783603104297,133.4783603104297,133.4783603104297,,,,,,,,,,,,,,,,,,,,,,,,,,,,133,001,2023-03-03_15h13.35.822,eb_01,2022.2.4,60.00230021163079,
,,,0,0,0,0,5,0,5,0,,,,,,,,,,,,,,,,,,,,,,,,,,,,,,,,,,,,,,,,,,,,,,,,,,,,,,,,,,,133,001,2023-03-03_15h13.35.822,eb_01,2022.2.4,60.00230021163079,
5,stimuli/5.png,s,0,0,0,0,6,0,6,0,0,0,0,0,,,,,,,,,,,,,,,,,,134.47800653873128,134.47800653873128,134.47800653873128,134.47800653873128,s,1,1.8241909957432654,136.32821531535592,136.32821531535592,136.32821531535592,137.3448256814154,137.3448256814154,137.3448256814154,,,,,,,,,,,,,,,,,,,,,,,,,133,001,2023-03-03_15h13.35.822,eb_01,2022.2.4,60.00230021163079,
,,,0,0,0,0,6,0,6,0,,,,,,,,,,,,,,,,,,,,,,,,,,,,,,,,,,,,,,,,,,,,,,,,,,,,,,,,,,,133,001,2023-03-03_15h13.35.822,eb_01,2022.2.4,60.00230021163079,
9,stimuli/9.png,l,0,0,0,0,7,0,7,0,0,0,0,0,,,,,,,,,,,,,,,,,,137.3448256814154,137.3448256814154,137.3448256814154,137.3448256814154,s,0,0.8213916111562867,138.2114969161339,138.2114969161339,138.2114969161339,,,,,,,,,,,,,,,,,,,,,,,,,,,,133,001,2023-03-03_15h13.35.822,eb_01,2022.2.4,60.00230021163079,
,,,0,0,0,0,7,0,7,0,,,,,,,,,,,,,,,,,,,,,,,,,,,,,,,,,,,,,,,,,,,,,,,,,,,,,,,,,,,133,001,2023-03-03_15h13.35.822,eb_01,2022.2.4,60.00230021163079,
6,stimuli/6.png,s,0,0,0,0,8,0,8,0,0,0,0,0,,,,,,,,,,,,,,,,,,139.22807558762725,139.22807558762725,139.22807558762725,139.22807558762725,s,1,3.594290706823813,142.8612457291747,142.8612457291747,142.8612457291747,,,,,,,,,,,,,,,,,,,,,,,,,,,,133,001,2023-03-03_15h13.35.822,eb_01,2022.2.4,60.00230021163079,
,,,0,0,0,0,8,0,8,0,,,,,,,,,,,,,,,,,,,,,,,,,,,,,,,,,,,,,,,,,,,,,,,,,,,,,,,,,,,133,001,2023-03-03_15h13.35.822,eb_01,2022.2.4,60.00230021163079,
8,stimuli/8.png,l,0,0,0,0,9,0,9,0,0,0,0,0,,,,,,,,,,,,,,,,,,143.87788054530392,143.87788054530392,143.87788054530392,143.87788054530392,l,1,1.6885687514732126,145.59446534441668,145.59446534441668,145.59446534441668,146.6110914068122,146.6110914068122,146.6110914068122,,,,,,,,,,,,,,,,,,,,,,,,,133,001,2023-03-03_15h13.35.822,eb_01,2022.2.4,60.00230021163079,
,,,0,0,0,0,9,0,9,0,,,,,,,,,,,,,,,,,,,,,,,,,,,,,,,,,,,,,,,,,,,,,,,,,,,,,,,,,,,133,001,2023-03-03_15h13.35.822,eb_01,2022.2.4,60.00230021163079,
9,stimuli/9.png,l,0,0,0,0,10,0,10,0,0,0,0,0,,,,,,,,,,,,,,,,,,146.6110914068122,146.6110914068122,146.6110914068122,146.6110914068122,l,1,1.5874449829861987,148.24436448025517,148.24436448025517,148.24436448025517,,,,,,,,,,,,,,,,,,,,,,,,,,,,133,001,2023-03-03_15h13.35.822,eb_01,2022.2.4,60.00230021163079,
,,,0,0,0,0,10,0,10,0,,,,,,,,,,,,,,,,,,,,,,,,,,,,,,,,,,,,,,,,,,,,,,,,,,,,,,,,,,,133,001,2023-03-03_15h13.35.822,eb_01,2022.2.4,60.00230021163079,
5,stimuli/5.png,s,0,0,0,0,11,0,11,0,0,0,0,0,,,,,,,,,,,,,,,,,,149.24397780656,149.24397780656,149.24397780656,149.24397780656,s,1,1.0986290888686199,150.36091504921205,150.36091504921205,150.36091504921205,151.37756163763697,151.37756163763697,151.37756163763697,,,,,,,,,,,,,,,,,,,,,,,,,133,001,2023-03-03_15h13.35.822,eb_01,2022.2.4,60.00230021163079,
,,,0,0,0,0,11,0,11,0,,,,,,,,,,,,,,,,,,,,,,,,,,,,,,,,,,,,,,,,,,,,,,,,,,,,,,,,,,,133,001,2023-03-03_15h13.35.822,eb_01,2022.2.4,60.00230021163079,
9,stimuli/9.png,l,0,0,0,0,12,0,12,0,0,0,0,0,,,,,,,,,,,,,,,,,,151.37756163763697,151.37756163763697,151.37756163763697,151.37756163763697,l,1,0.9161637891083956,152.3275113941927,152.3275113941927,152.3275113941927,,,,,,,,,,,,,,,,,,,,,,,,,,,,133,001,2023-03-03_15h13.35.822,eb_01,2022.2.4,60.00230021163079,
,,,0,0,0,0,12,0,12,0,,,,,,,,,,,,,,,,,,,,,,,,,,,,,,,,,,,,,,,,,,,,,,,,,,,,,,,,,,,133,001,2023-03-03_15h13.35.822,eb_01,2022.2.4,60.00230021163079,
8,stimuli/8.png,l,0,0,0,0,13,0,13,0,0,0,0,0,,,,,,,,,,,,,,,,,,153.34413051398587,153.34413051398587,153.34413051398587,153.34413051398587,l,1,0.8775833554100245,154.24407258839346,154.24407258839346,154.24407258839346,155.260709517519,155.260709517519,155.260709517519,,,,,,,,,,,,,,,,,,,,,,,,,133,001,2023-03-03_15h13.35.822,eb_01,2022.2.4,60.00230021163079,
,,,0,0,0,0,13,0,13,0,,,,,,,,,,,,,,,,,,,,,,,,,,,,,,,,,,,,,,,,,,,,,,,,,,,,,,,,,,,133,001,2023-03-03_15h13.35.822,eb_01,2022.2.4,60.00230021163079,
9,stimuli/9.png,l,0,0,0,0,14,0,14,0,0,0,0,0,,,,,,,,,,,,,,,,,,155.260709517519,155.260709517519,155.260709517519,155.260709517519,l,1,1.009074137895368,156.31062000303064,156.31062000303064,156.31062000303064,,,,,,,,,,,,,,,,,,,,,,,,,,,,133,001,2023-03-03_15h13.35.822,eb_01,2022.2.4,60.00230021163079,
,,,0,0,0,0,14,0,14,0,,,,,,,,,,,,,,,,,,,,,,,,,,,,,,,,,,,,,,,,,,,,,,,,,,,,,,,,,,,133,001,2023-03-03_15h13.35.822,eb_01,2022.2.4,60.00230021163079,
5,stimuli/5.png,s,0,0,0,0,15,0,15,0,0,0,0,0,,,,,,,,,,,,,,,,,,157.31028313509887,157.31028313509887,157.31028313509887,157.31028313509887,s,1,1.6876007089449558,159.0272180836473,159.0272180836473,159.0272180836473,160.04381003667368,160.04381003667368,160.04381003667368,,,,,,,,,,,,,,,,,,,,,,,,,133,001,2023-03-03_15h13.35.822,eb_01,2022.2.4,60.00230021163079,
,,,0,0,0,0,15,0,15,0,,,,,,,,,,,,,,,,,,,,,,,,,,,,,,,,,,,,,,,,,,,,,,,,,,,,,,,,,,,133,001,2023-03-03_15h13.35.822,eb_01,2022.2.4,60.00230021163079,
6,stimuli/6.png,s,0,0,0,0,16,0,16,0,0,0,0,0,,,,,,,,,,,,,,,,,,160.04381003667368,160.04381003667368,160.04381003667368,160.04381003667368,s,1,0.9061341200140305,160.99379148782464,160.99379148782464,160.99379148782464,,,,,,,,,,,,,,,,,,,,,,,,,,,,133,001,2023-03-03_15h13.35.822,eb_01,2022.2.4,60.00230021163079,
,,,0,0,0,0,16,0,16,0,,,,,,,,,,,,,,,,,,,,,,,,,,,,,,,,,,,,,,,,,,,,,,,,,,,,,,,,,,,133,001,2023-03-03_15h13.35.822,eb_01,2022.2.4,60.00230021163079,
5,stimuli/5.png,s,0,0,0,0,17,0,17,0,0,0,0,0,,,,,,,,,,,,,,,,,,161.99342654756038,161.99342654756038,161.99342654756038,161.99342654756038,s,1,0.676574623095803,162.69369498541346,162.69369498541346,162.69369498541346,163.71030957740732,163.71030957740732,163.71030957740732,,,,,,,,,,,,,,,,,,,,,,,,,133,001,2023-03-03_15h13.35.822,eb_01,2022.2.4,60.00230021163079,
,,,0,0,0,0,17,0,17,0,,,,,,,,,,,,,,,,,,,,,,,,,,,,,,,,,,,,,,,,,,,,,,,,,,,,,,,,,,,133,001,2023-03-03_15h13.35.822,eb_01,2022.2.4,60.00230021163079,
6,stimuli/6.png,s,0,0,0,0,18,0,18,0,0,0,0,0,,,,,,,,,,,,,,,,,,163.71030957740732,163.71030957740732,163.71030957740732,163.71030957740732,s,1,1.0797548254195135,164.82692413922632,164.82692413922632,164.82692413922632,,,,,,,,,,,,,,,,,,,,,,,,,,,,133,001,2023-03-03_15h13.35.822,eb_01,2022.2.4,60.00230021163079,
,,,0,0,0,0,18,0,18,0,,,,,,,,,,,,,,,,,,,,,,,,,,,,,,,,,,,,,,,,,,,,,,,,,,,,,,,,,,,133,001,2023-03-03_15h13.35.822,eb_01,2022.2.4,60.00230021163079,
9,stimuli/9.png,l,0,0,0,0,19,0,19,0,0,0,0,0,,,,,,,,,,,,,,,,,,165.8435972906882,165.8435972906882,165.8435972906882,165.8435972906882,l,1,0.6415678268822376,166.5268529924797,166.5268529924797,166.5268529924797,,,,,,,,,,,,,,,,,,,,,,,,,,,,133,001,2023-03-03_15h13.35.822,eb_01,2022.2.4,60.00230021163079,
,,,0,0,0,0,19,0,19,0,,,,,,,,,,,,,,,,,,,,,,,,,,,,,,,,,,,,,,,,,,,,,,,,,,,,,,,,,,,133,001,2023-03-03_15h13.35.822,eb_01,2022.2.4,60.00230021163079,
6,stimuli/6.png,s,0,0,0,0,20,0,20,0,0,0,0,0,,,,,,,,,,,,,,,,,,167.54347482894082,167.54347482894082,167.54347482894082,167.54347482894082,s,1,0.8456919838499743,168.42679687798955,168.42679687798955,168.42679687798955,,,,,,,,,,,,,,,,,,,,,,,,,,,,133,001,2023-03-03_15h13.35.822,eb_01,2022.2.4,60.00230021163079,
,,,0,0,0,0,20,0,20,0,,,,,,,,,,,,,,,,,,,,,,,,,,,,,,,,,,,,,,,,,,,,,,,,,,,,,,,,,,,133,001,2023-03-03_15h13.35.822,eb_01,2022.2.4,60.00230021163079,
9,stimuli/9.png,l,0,0,0,0,21,0,21,0,0,0,0,0,,,,,,,,,,,,,,,,,,169.4434093570162,169.4434093570162,169.4434093570162,169.4434093570162,l,1,0.8978313517873175,170.37667418984347,170.37667418984347,170.37667418984347,,,,,,,,,,,,,,,,,,,,,,,,,,,,133,001,2023-03-03_15h13.35.822,eb_01,2022.2.4,60.00230021163079,
,,,0,0,0,0,21,0,21,0,,,,,,,,,,,,,,,,,,,,,,,,,,,,,,,,,,,,,,,,,,,,,,,,,,,,,,,,,,,133,001,2023-03-03_15h13.35.822,eb_01,2022.2.4,60.00230021163079,
8,stimuli/8.png,l,0,0,0,0,22,0,22,0,0,0,0,0,,,,,,,,,,,,,,,,,,171.37633309597732,171.37633309597732,171.37633309597732,171.37633309597732,l,1,0.8369859400845598,172.24331222072942,172.24331222072942,172.24331222072942,173.2599150404567,173.2599150404567,173.2599150404567,,,,,,,,,,,,,,,,,,,,,,,,,133,001,2023-03-03_15h13.35.822,eb_01,2022.2.4,60.00230021163079,
,,,0,0,0,0,22,0,22,0,,,,,,,,,,,,,,,,,,,,,,,,,,,,,,,,,,,,,,,,,,,,,,,,,,,,,,,,,,,133,001,2023-03-03_15h13.35.822,eb_01,2022.2.4,60.00230021163079,
6,stimuli/6.png,s,0,0,0,0,23,0,23,0,0,0,0,0,,,,,,,,,,,,,,,,,,173.2599150404567,173.2599150404567,173.2599150404567,173.2599150404567,s,1,0.689447143668076,173.99318234849488,173.99318234849488,173.99318234849488,,,,,,,,,,,,,,,,,,,,,,,,,,,,133,001,2023-03-03_15h13.35.822,eb_01,2022.2.4,60.00230021163079,
,,,0,0,0,0,23,0,23,0,,,,,,,,,,,,,,,,,,,,,,,,,,,,,,,,,,,,,,,,,,,,,,,,,,,,,,,,,,,133,001,2023-03-03_15h13.35.822,eb_01,2022.2.4,60.00230021163079,
5,stimuli/5.png,s,0,0,0,0,24,0,24,0,0,0,0,0,,,,,,,,,,,,,,,,,,174.99282736936584,174.99282736936584,174.99282736936584,174.99282736936584,s,1,0.6605899982969277,175.67644559658947,175.67644559658947,175.67644559658947,176.69309309055097,176.69309309055097,176.69309309055097,,,,,,,,,,,,,,,,,,,,,,,,,133,001,2023-03-03_15h13.35.822,eb_01,2022.2.4,60.00230021163079,
,,,0,0,0,0,24,0,24,0,,,,,,,,,,,,,,,,,,,,,,,,,,,,,,,,,,,,,,,,,,,,,,,,,,,,,,,,,,,133,001,2023-03-03_15h13.35.822,eb_01,2022.2.4,60.00230021163079,
9,stimuli/9.png,l,0,0,0,0,25,0,25,0,0,0,0,0,,,,,,,,,,,,,,,,,,176.69309309055097,176.69309309055097,176.69309309055097,176.69309309055097,l,1,0.6483891006500926,177.37638501470792,177.37638501470792,177.37638501470792,,,,,,,,,,,,,,,,,,,,,,,,,,,,133,001,2023-03-03_15h13.35.822,eb_01,2022.2.4,60.00230021163079,
,,,0,0,0,0,25,0,25,0,,,,,,,,,,,,,,,,,,,,,,,,,,,,,,,,,,,,,,,,,,,,,,,,,,,,,,,,,,,133,001,2023-03-03_15h13.35.822,eb_01,2022.2.4,60.00230021163079,
6,stimuli/6.png,s,0,0,0,0,26,0,26,0,0,0,0,0,,,,,,,,,,,,,,,,,,178.39299598446814,178.39299598446814,178.39299598446814,178.39299598446814,s,1,0.772561155637959,179.2096202961111,179.2096202961111,179.2096202961111,,,,,,,,,,,,,,,,,,,,,,,,,,,,133,001,2023-03-03_15h13.35.822,eb_01,2022.2.4,60.00230021163079,
,,,0,0,0,0,26,0,26,0,,,,,,,,,,,,,,,,,,,,,,,,,,,,,,,,,,,,,,,,,,,,,,,,,,,,,,,,,,,133,001,2023-03-03_15h13.35.822,eb_01,2022.2.4,60.00230021163079,
8,stimuli/8.png,l,0,0,0,0,27,0,27,0,0,0,0,0,,,,,,,,,,,,,,,,,,180.22623518996988,180.22623518996988,180.22623518996988,180.22623518996988,l,1,0.7553645911102649,181.0095651173906,181.0095651173906,181.0095651173906,182.0094896541559,182.0094896541559,182.0094896541559,,,,,,,,,,,,,,,,,,,,,,,,,133,001,2023-03-03_15h13.35.822,eb_01,2022.2.4,60.00230021163079,
,,,0,0,0,0,27,0,27,0,,,,,,,,,,,,,,,,,,,,,,,,,,,,,,,,,,,,,,,,,,,,,,,,,,,,,,,,,,,133,001,2023-03-03_15h13.35.822,eb_01,2022.2.4,60.00230021163079,
3,stimuli/3.png,l,0,0,0,0,28,0,28,0,0,0,0,0,,,,,,,,,,,,,,,,,,182.0094896541559,182.0094896541559,182.0094896541559,182.0094896541559,l,1,1.323178731749067,183.35943506401964,183.35943506401964,183.35943506401964,184.37606414497714,184.37606414497714,184.37606414497714,,,,,,,,,,,,,,,,,,,,,,,,,133,001,2023-03-03_15h13.35.822,eb_01,2022.2.4,60.00230021163079,
,,,0,0,0,0,28,0,28,0,,,,,,,,,,,,,,,,,,,,,,,,,,,,,,,,,,,,,,,,,,,,,,,,,,,,,,,,,,,133,001,2023-03-03_15h13.35.822,eb_01,2022.2.4,60.00230021163079,
4,stimuli/4.png,l,0,0,0,0,29,0,29,0,0,0,0,0,,,,,,,,,,,,,,,,,,184.37606414497714,184.37606414497714,184.37606414497714,184.37606414497714,l,1,1.8206876899930649,186.22598102974007,186.22598102974007,186.22598102974007,187.2259315258707,187.2259315258707,187.2259315258707,,,,,,,,,,,,,,,,,,,,,,,,,133,001,2023-03-03_15h13.35.822,eb_01,2022.2.4,60.00230021163079,
,,,0,0,0,0,29,0,29,0,,,,,,,,,,,,,,,,,,,,,,,,,,,,,,,,,,,,,,,,,,,,,,,,,,,,,,,,,,,133,001,2023-03-03_15h13.35.822,eb_01,2022.2.4,60.00230021163079,
3,stimuli/3.png,l,0,0,0,0,30,0,30,0,0,0,0,0,,,,,,,,,,,,,,,,,,187.2259315258707,187.2259315258707,187.2259315258707,187.2259315258707,l,1,0.8588935241568834,188.1092490471201,188.1092490471201,188.1092490471201,189.1088675049541,189.1088675049541,189.1088675049541,,,,,,,,,,,,,,,,,,,,,,,,,133,001,2023-03-03_15h13.35.822,eb_01,2022.2.4,60.00230021163079,
,,,0,0,0,0,30,0,30,0,,,,,,,,,,,,,,,,,,,,,,,,,,,,,,,,,,,,,,,,,,,,,,,,,,,,,,,,,,,133,001,2023-03-03_15h13.35.822,eb_01,2022.2.4,60.00230021163079,
8,stimuli/8.png,l,0,0,0,0,31,0,31,0,0,0,0,0,,,,,,,,,,,,,,,,,,189.1088675049541,189.1088675049541,189.1088675049541,189.1088675049541,l,1,0.6399966821190901,189.77584729378577,189.77584729378577,189.77584729378577,190.79246882841107,190.79246882841107,190.79246882841107,,,,,,,,,,,,,,,,,,,,,,,,,133,001,2023-03-03_15h13.35.822,eb_01,2022.2.4,60.00230021163079,
,,,0,0,0,0,31,0,31,0,,,,,,,,,,,,,,,,,,,,,,,,,,,,,,,,,,,,,,,,,,,,,,,,,,,,,,,,,,,133,001,2023-03-03_15h13.35.822,eb_01,2022.2.4,60.00230021163079,
9,stimuli/9.png,l,0,0,0,0,32,0,32,0,0,0,0,0,,,,,,,,,,,,,,,,,,190.79246882841107,190.79246882841107,190.79246882841107,190.79246882841107,l,1,0.5324449542968068,191.35911117578507,191.35911117578507,191.35911117578507,,,,,,,,,,,,,,,,,,,,,,,,,,,,133,001,2023-03-03_15h13.35.822,eb_01,2022.2.4,60.00230021163079,
,,,0,0,0,0,32,0,32,0,,,,,,,,,,,,,,,,,,,,,,,,,,,,,,,,,,,,,,,,,,,,,,,,,,,,,,,,,,,133,001,2023-03-03_15h13.35.822,eb_01,2022.2.4,60.00230021163079,
5,stimuli/5.png,s,0,0,0,0,33,0,33,0,0,0,0,0,,,,,,,,,,,,,,,,,,192.3587471410865,192.3587471410865,192.3587471410865,192.3587471410865,s,1,0.7102254957426339,193.09235795779387,193.09235795779387,193.09235795779387,194.10895443861955,194.10895443861955,194.10895443861955,,,,,,,,,,,,,,,,,,,,,,,,,133,001,2023-03-03_15h13.35.822,eb_01,2022.2.4,60.00230021163079,
,,,0,0,0,0,33,0,33,0,,,,,,,,,,,,,,,,,,,,,,,,,,,,,,,,,,,,,,,,,,,,,,,,,,,,,,,,,,,133,001,2023-03-03_15h13.35.822,eb_01,2022.2.4,60.00230021163079,
9,stimuli/9.png,l,0,0,0,0,34,0,34,0,0,0,0,0,,,,,,,,,,,,,,,,,,194.10895443861955,194.10895443861955,194.10895443861955,194.10895443861955,l,1,0.7840530006506015,194.94228057778673,194.94228057778673,194.94228057778673,,,,,,,,,,,,,,,,,,,,,,,,,,,,133,001,2023-03-03_15h13.35.822,eb_01,2022.2.4,60.00230021163079,
,,,0,0,0,0,34,0,34,0,,,,,,,,,,,,,,,,,,,,,,,,,,,,,,,,,,,,,,,,,,,,,,,,,,,,,,,,,,,133,001,2023-03-03_15h13.35.822,eb_01,2022.2.4,60.00230021163079,
6,stimuli/6.png,s,0,0,0,0,35,0,35,0,0,0,0,0,,,,,,,,,,,,,,,,,,195.95890543278074,195.95890543278074,195.95890543278074,195.95890543278074,s,1,1.0861927458900027,197.09218801456154,197.09218801456154,197.09218801456154,,,,,,,,,,,,,,,,,,,,,,,,,,,,133,001,2023-03-03_15h13.35.822,eb_01,2022.2.4,60.00230021163079,
,,,0,0,0,0,35,0,35,0,,,,,,,,,,,,,,,,,,,,,,,,,,,,,,,,,,,,,,,,,,,,,,,,,,,,,,,,,,,133,001,2023-03-03_15h13.35.822,eb_01,2022.2.4,60.00230021163079,
5,stimuli/5.png,s,0,0,0,0,36,0,36,0,0,0,0,0,,,,,,,,,,,,,,,,,,198.09182850766229,198.09182850766229,198.09182850766229,198.09182850766229,s,1,0.4803454309585504,198.59210394852562,198.59210394852562,198.59210394852562,199.60872397385538,199.60872397385538,199.60872397385538,,,,,,,,,,,,,,,,,,,,,,,,,133,001,2023-03-03_15h13.35.822,eb_01,2022.2.4,60.00230021163079,
,,,0,0,0,0,36,0,36,0,,,,,,,,,,,,,,,,,,,,,,,,,,,,,,,,,,,,,,,,,,,,,,,,,,,,,,,,,,,133,001,2023-03-03_15h13.35.822,eb_01,2022.2.4,60.00230021163079,
6,stimuli/6.png,s,0,0,0,0,37,0,37,0,0,0,0,0,,,,,,,,,,,,,,,,,,199.60872397385538,199.60872397385538,199.60872397385538,199.60872397385538,s,1,0.5874715460522566,200.24204655116773,200.24204655116773,200.24204655116773,,,,,,,,,,,,,,,,,,,,,,,,,,,,133,001,2023-03-03_15h13.35.822,eb_01,2022.2.4,60.00230021163079,
,,,0,0,0,0,37,0,37,0,,,,,,,,,,,,,,,,,,,,,,,,,,,,,,,,,,,,,,,,,,,,,,,,,,,,,,,,,,,133,001,2023-03-03_15h13.35.822,eb_01,2022.2.4,60.00230021163079,
8,stimuli/8.png,l,0,0,0,0,38,0,38,0,0,0,0,0,,,,,,,,,,,,,,,,,,201.24165867007105,201.24165867007105,201.24165867007105,201.24165867007105,l,1,0.6585950519365724,201.92530828999588,201.92530828999588,201.92530828999588,202.94190688378876,202.94190688378876,202.94190688378876,,,,,,,,,,,,,,,,,,,,,,,,,133,001,2023-03-03_15h13.35.822,eb_01,2022.2.4,60.00230021163079,
,,,0,0,0,0,38,0,38,0,,,,,,,,,,,,,,,,,,,,,,,,,,,,,,,,,,,,,,,,,,,,,,,,,,,,,,,,,,,133,001,2023-03-03_15h13.35.822,eb_01,2022.2.4,60.00230021163079,
6,stimuli/6.png,s,0,0,0,0,39,0,39,0,0,0,0,0,,,,,,,,,,,,,,,,,,202.94190688378876,202.94190688378876,202.94190688378876,202.94190688378876,s,1,0.5583922369114589,203.54186866921373,203.54186866921373,203.54186866921373,,,,,,,,,,,,,,,,,,,,,,,,,,,,133,001,2023-03-03_15h13.35.822,eb_01,2022.2.4,60.00230021163079,
,,,0,0,0,0,39,0,39,0,,,,,,,,,,,,,,,,,,,,,,,,,,,,,,,,,,,,,,,,,,,,,,,,,,,,,,,,,,,133,001,2023-03-03_15h13.35.822,eb_01,2022.2.4,60.00230021163079,
9,stimuli/9.png,l,0,0,0,0,40,0,40,0,0,0,0,0,,,,,,,,,,,,,,,,,,204.5584563962766,204.5584563962766,204.5584563962766,204.5584563962766,l,1,0.8779238455754239,205.47513923724182,205.47513923724182,205.47513923724182,,,,,,,,,,,,,,,,,,,,,,,,,,,,133,001,2023-03-03_15h13.35.822,eb_01,2022.2.4,60.00230021163079,
,,,0,0,0,0,40,0,40,0,,,,,,,,,,,,,,,,,,,,,,,,,,,,,,,,,,,,,,,,,,,,,,,,,,,,,,,,,,,133,001,2023-03-03_15h13.35.822,eb_01,2022.2.4,60.00230021163079,
6,stimuli/6.png,s,0,0,0,0,41,0,41,0,0,0,0,0,,,,,,,,,,,,,,,,,,206.49178310896968,206.49178310896968,206.49178310896968,206.49178310896968,s,1,1.0086527511302847,207.5416911796492,207.5416911796492,207.5416911796492,,,,,,,,,,,,,,,,,,,,,,,,,,,,133,001,2023-03-03_15h13.35.822,eb_01,2022.2.4,60.00230021163079,
,,,0,0,0,0,41,0,41,0,,,,,,,,,,,,,,,,,,,,,,,,,,,,,,,,,,,,,,,,,,,,,,,,,,,,,,,,,,,133,001,2023-03-03_15h13.35.822,eb_01,2022.2.4,60.00230021163079,
8,stimuli/8.png,l,0,0,0,0,42,0,42,0,0,0,0,0,,,,,,,,,,,,,,,,,,208.54134978391812,208.54134978391812,208.54134978391812,208.54134978391812,l,1,1.0231413925357629,209.59160257069743,209.59160257069743,209.59160257069743,210.59158325212775,210.59158325212775,210.59158325212775,,,,,,,,,,,,,,,,,,,,,,,,,133,001,2023-03-03_15h13.35.822,eb_01,2022.2.4,60.00230021163079,
,,,0,0,0,0,42,0,42,0,,,,,,,,,,,,,,,,,,,,,,,,,,,,,,,,,,,,,,,,,,,,,,,,,,,,,,,,,,,133,001,2023-03-03_15h13.35.822,eb_01,2022.2.4,60.00230021163079,
3,stimuli/3.png,l,0,0,0,0,43,0,43,0,0,0,0,0,,,,,,,,,,,,,,,,,,210.59158325212775,210.59158325212775,210.59158325212775,210.59158325212775,l,1,0.8449744793178979,211.45818596618483,211.45818596618483,211.45818596618483,212.47483798797475,212.47483798797475,212.47483798797475,,,,,,,,,,,,,,,,,,,,,,,,,133,001,2023-03-03_15h13.35.822,eb_01,2022.2.4,60.00230021163079,
,,,0,0,0,0,43,0,43,0,,,,,,,,,,,,,,,,,,,,,,,,,,,,,,,,,,,,,,,,,,,,,,,,,,,,,,,,,,,133,001,2023-03-03_15h13.35.822,eb_01,2022.2.4,60.00230021163079,
8,stimuli/8.png,l,0,0,0,0,44,0,44,0,0,0,0,0,,,,,,,,,,,,,,,,,,212.47483798797475,212.47483798797475,212.47483798797475,212.47483798797475,l,1,0.6728503609774634,213.17477136899834,213.17477136899834,213.17477136899834,214.19140195922228,214.19140195922228,214.19140195922228,,,,,,,,,,,,,,,,,,,,,,,,,133,001,2023-03-03_15h13.35.822,eb_01,2022.2.4,60.00230021163079,
,,,0,0,0,0,44,0,44,0,,,,,,,,,,,,,,,,,,,,,,,,,,,,,,,,,,,,,,,,,,,,,,,,,,,,,,,,,,,133,001,2023-03-03_15h13.35.822,eb_01,2022.2.4,60.00230021163079,
6,stimuli/6.png,s,0,0,0,0,45,0,45,0,0,0,0,0,,,,,,,,,,,,,,,,,,214.19140195922228,214.19140195922228,214.19140195922228,214.19140195922228,s,1,1.0682877323706634,215.30805606377544,215.30805606377544,215.30805606377544,,,,,,,,,,,,,,,,,,,,,,,,,,,,133,001,2023-03-03_15h13.35.822,eb_01,2022.2.4,60.00230021163079,
,,,0,0,0,0,45,0,45,0,,,,,,,,,,,,,,,,,,,,,,,,,,,,,,,,,,,,,,,,,,,,,,,,,,,,,,,,,,,133,001,2023-03-03_15h13.35.822,eb_01,2022.2.4,60.00230021163079,
8,stimuli/8.png,l,0,0,0,0,46,0,46,0,0,0,0,0,,,,,,,,,,,,,,,,,,216.3076666734123,216.3076666734123,216.3076666734123,216.3076666734123,l,1,0.920102668722393,217.29126700074994,217.29126700074994,217.29126700074994,,,,,,,,,,,,,,,,,,,,,,,,,,,,133,001,2023-03-03_15h13.35.822,eb_01,2022.2.4,60.00230021163079,
,,,0,0,0,0,46,0,46,0,,,,,,,,,,,,,,,,,,,,,,,,,,,,,,,,,,,,,,,,,,,,,,,,,,,,,,,,,,,133,001,2023-03-03_15h13.35.822,eb_01,2022.2.4,60.00230021163079,
6,stimuli/6.png,s,0,0,0,0,47,0,47,0,0,0,0,0,,,,,,,,,,,,,,,,,,218.3078966853791,218.3078966853791,218.3078966853791,218.3078966853791,s,1,1.8639392986369785,220.20780736708548,220.20780736708548,220.20780736708548,,,,,,,,,,,,,,,,,,,,,,,,,,,,133,001,2023-03-03_15h13.35.822,eb_01,2022.2.4,60.00230021163079,
,,,0,0,0,0,47,0,47,0,,,,,,,,,,,,,,,,,,,,,,,,,,,,,,,,,,,,,,,,,,,,,,,,,,,,,,,,,,,133,001,2023-03-03_15h13.35.822,eb_01,2022.2.4,60.00230021163079,
9,stimuli/9.png,l,0,0,0,0,48,0,48,0,0,0,0,0,,,,,,,,,,,,,,,,,,221.22442195907934,221.22442195907934,221.22442195907934,221.22442195907934,l,1,0.5714772619539872,221.84106927193352,221.84106927193352,221.84106927193352,,,,,,,,,,,,,,,,,,,,,,,,,,,,133,001,2023-03-03_15h13.35.822,eb_01,2022.2.4,60.00230021163079,
,,,0,0,0,0,48,0,48,0,,,,,,,,,,,,,,,,,,,,,,,,,,,,,,,,,,,,,,,,,,,,,,,,,,,,,,,,,,,133,001,2023-03-03_15h13.35.822,eb_01,2022.2.4,60.00230021163079,
6,stimuli/6.png,s,0,0,0,0,49,0,49,0,0,0,0,0,,,,,,,,,,,,,,,,,,222.85768326022662,222.85768326022662,222.85768326022662,222.85768326022662,s,1,0.5622574643639382,223.45766436425038,223.45766436425038,223.45766436425038,,,,,,,,,,,,,,,,,,,,,,,,,,,,133,001,2023-03-03_15h13.35.822,eb_01,2022.2.4,60.00230021163079,
,,,0,0,0,0,49,0,49,0,,,,,,,,,,,,,,,,,,,,,,,,,,,,,,,,,,,,,,,,,,,,,,,,,,,,,,,,,,,133,001,2023-03-03_15h13.35.822,eb_01,2022.2.4,60.00230021163079,
8,stimuli/8.png,l,0,0,0,0,50,0,50,0,0,0,0,0,,,,,,,,,,,,,,,,,,224.47427774881362,224.47427774881362,224.47427774881362,224.47427774881362,l,1,0.6257274878153112,225.124265327584,225.124265327584,225.124265327584,226.14087569361436,226.14087569361436,226.14087569361436,,,,,,,,,,,,,,,,,,,,,,,,,133,001,2023-03-03_15h13.35.822,eb_01,2022.2.4,60.00230021163079,
,,,0,0,0,0,50,0,50,0,,,,,,,,,,,,,,,,,,,,,,,,,,,,,,,,,,,,,,,,,,,,,,,,,,,,,,,,,,,133,001,2023-03-03_15h13.35.822,eb_01,2022.2.4,60.00230021163079,
6,stimuli/6.png,s,0,0,0,0,51,0,51,0,0,0,0,0,,,,,,,,,,,,,,,,,,226.14087569361436,226.14087569361436,226.14087569361436,226.14087569361436,s,1,0.8391737705096602,227.02416514256038,227.02416514256038,227.02416514256038,,,,,,,,,,,,,,,,,,,,,,,,,,,,133,001,2023-03-03_15h13.35.822,eb_01,2022.2.4,60.00230021163079,
,,,0,0,0,0,51,0,51,0,,,,,,,,,,,,,,,,,,,,,,,,,,,,,,,,,,,,,,,,,,,,,,,,,,,,,,,,,,,133,001,2023-03-03_15h13.35.822,eb_01,2022.2.4,60.00230021163079,
8,stimuli/8.png,l,0,0,0,0,52,0,52,0,0,0,0,0,,,,,,,,,,,,,,,,,,228.04078516791924,228.04078516791924,228.04078516791924,228.04078516791924,l,1,0.7463877851550933,228.80741870118072,228.80741870118072,228.80741870118072,229.82404355617473,229.82404355617473,229.82404355617473,,,,,,,,,,,,,,,,,,,,,,,,,133,001,2023-03-03_15h13.35.822,eb_01,2022.2.4,60.00230021163079,
,,,0,0,0,0,52,0,52,0,,,,,,,,,,,,,,,,,,,,,,,,,,,,,,,,,,,,,,,,,,,,,,,,,,,,,,,,,,,133,001,2023-03-03_15h13.35.822,eb_01,2022.2.4,60.00230021163079,
9,stimuli/9.png,l,0,0,0,0,53,0,53,0,0,0,0,0,,,,,,,,,,,,,,,,,,229.82404355617473,229.82404355617473,229.82404355617473,229.82404355617473,l,1,0.9471348109655082,230.80736255654483,230.80736255654483,230.80736255654483,,,,,,,,,,,,,,,,,,,,,,,,,,,,133,001,2023-03-03_15h13.35.822,eb_01,2022.2.4,60.00230021163079,
,,,0,0,0,0,53,0,53,0,,,,,,,,,,,,,,,,,,,,,,,,,,,,,,,,,,,,,,,,,,,,,,,,,,,,,,,,,,,133,001,2023-03-03_15h13.35.822,eb_01,2022.2.4,60.00230021163079,
6,stimuli/6.png,s,0,0,0,0,54,0,54,0,0,0,0,0,,,,,,,,,,,,,,,,,,231.8239545095421,231.8239545095421,231.8239545095421,231.8239545095421,s,1,0.8192879976995755,232.69059133302653,232.69059133302653,232.69059133302653,,,,,,,,,,,,,,,,,,,,,,,,,,,,133,001,2023-03-03_15h13.35.822,eb_01,2022.2.4,60.00230021163079,
,,,0,0,0,0,54,0,54,0,,,,,,,,,,,,,,,,,,,,,,,,,,,,,,,,,,,,,,,,,,,,,,,,,,,,,,,,,,,133,001,2023-03-03_15h13.35.822,eb_01,2022.2.4,60.00230021163079,
8,stimuli/8.png,l,0,0,0,0,55,0,55,0,0,0,0,0,,,,,,,,,,,,,,,,,,233.7071995861188,233.7071995861188,233.7071995861188,233.7071995861188,l,1,0.52807623607805,234.2572095321666,234.2572095321666,234.2572095321666,235.273838613095,235.273838613095,235.273838613095,,,,,,,,,,,,,,,,,,,,,,,,,133,001,2023-03-03_15h13.35.822,eb_01,2022.2.4,60.00230021163079,
,,,0,0,0,0,55,0,55,0,,,,,,,,,,,,,,,,,,,,,,,,,,,,,,,,,,,,,,,,,,,,,,,,,,,,,,,,,,,133,001,2023-03-03_15h13.35.822,eb_01,2022.2.4,60.00230021163079,
9,stimuli/9.png,l,0,0,0,0,56,0,56,0,0,0,0,0,,,,,,,,,,,,,,,,,,235.273838613095,235.273838613095,235.273838613095,235.273838613095,l,1,1.3295209648204036,236.64040767058032,236.64040767058032,236.64040767058032,,,,,,,,,,,,,,,,,,,,,,,,,,,,133,001,2023-03-03_15h13.35.822,eb_01,2022.2.4,60.00230021163079,
,,,0,0,0,0,56,0,56,0,,,,,,,,,,,,,,,,,,,,,,,,,,,,,,,,,,,,,,,,,,,,,,,,,,,,,,,,,,,133,001,2023-03-03_15h13.35.822,eb_01,2022.2.4,60.00230021163079,
8,stimuli/8.png,l,0,0,0,0,57,0,57,0,0,0,0,0,,,,,,,,,,,,,,,,,,237.64004846551688,237.64004846551688,237.64004846551688,237.64004846551688,l,1,0.9793757282604929,238.64032284988207,238.64032284988207,238.64032284988207,239.65694498820812,239.65694498820812,239.65694498820812,,,,,,,,,,,,,,,,,,,,,,,,,133,001,2023-03-03_15h13.35.822,eb_01,2022.2.4,60.00230021163079,
,,,0,0,0,0,57,0,57,0,,,,,,,,,,,,,,,,,,,,,,,,,,,,,,,,,,,,,,,,,,,,,,,,,,,,,,,,,,,133,001,2023-03-03_15h13.35.822,eb_01,2022.2.4,60.00230021163079,
9,stimuli/9.png,l,0,0,0,0,58,0,58,0,0,0,0,0,,,,,,,,,,,,,,,,,,239.65694498820812,239.65694498820812,239.65694498820812,239.65694498820812,l,1,0.5865294628893025,240.2902763192542,240.2902763192542,240.2902763192542,,,,,,,,,,,,,,,,,,,,,,,,,,,,133,001,2023-03-03_15h13.35.822,eb_01,2022.2.4,60.00230021163079,
,,,0,0,0,0,58,0,58,0,,,,,,,,,,,,,,,,,,,,,,,,,,,,,,,,,,,,,,,,,,,,,,,,,,,,,,,,,,,133,001,2023-03-03_15h13.35.822,eb_01,2022.2.4,60.00230021163079,
5,stimuli/5.png,s,0,0,0,0,59,0,59,0,0,0,0,0,,,,,,,,,,,,,,,,,,241.28992013272364,241.28992013272364,241.28992013272364,241.28992013272364,s,1,0.545607253734488,241.85684501449578,241.85684501449578,241.85684501449578,242.8734743972891,242.8734743972891,242.8734743972891,,,,,,,,,,,,,,,,,,,,,,,,,133,001,2023-03-03_15h13.35.822,eb_01,2022.2.4,60.00230021163079,
,,,0,0,0,0,59,0,59,0,,,,,,,,,,,,,,,,,,,,,,,,,,,,,,,,,,,,,,,,,,,,,,,,,,,,,,,,,,,133,001,2023-03-03_15h13.35.822,eb_01,2022.2.4,60.00230021163079,
9,stimuli/9.png,l,0,0,0,0,60,0,60,0,0,0,0,0,,,,,,,,,,,,,,,,,,242.8734743972891,242.8734743972891,242.8734743972891,242.8734743972891,l,1,0.7380952799867373,243.6567684042093,243.6567684042093,243.6567684042093,,,,,,,,,,,,,,,,,,,,,,,,,,,,133,001,2023-03-03_15h13.35.822,eb_01,2022.2.4,60.00230021163079,
,,,0,0,0,0,60,0,60,0,,,,,,,,,,,,,,,,,,,,,,,,,,,,,,,,,,,,,,,,,,,,,,,,,,,,,,,,,,,133,001,2023-03-03_15h13.35.822,eb_01,2022.2.4,60.00230021163079,
6,stimuli/6.png,s,0,0,0,0,61,0,61,0,0,0,0,0,,,,,,,,,,,,,,,,,,244.67342012413428,244.67342012413428,244.67342012413428,244.67342012413428,s,1,0.969244334672112,245.69002052902943,245.69002052902943,245.69002052902943,,,,,,,,,,,,,,,,,,,,,,,,,,,,133,001,2023-03-03_15h13.35.822,eb_01,2022.2.4,60.00230021163079,
,,,0,0,0,0,61,0,61,0,,,,,,,,,,,,,,,,,,,,,,,,,,,,,,,,,,,,,,,,,,,,,,,,,,,,,,,,,,,133,001,2023-03-03_15h13.35.822,eb_01,2022.2.4,60.00230021163079,
9,stimuli/9.png,l,0,0,0,0,62,0,62,0,0,0,0,0,,,,,,,,,,,,,,,,,,246.70664447845775,246.70664447845775,246.70664447845775,246.70664447845775,l,1,0.4880620006879326,247.23996346371132,247.23996346371132,247.23996346371132,,,,,,,,,,,,,,,,,,,,,,,,,,,,133,001,2023-03-03_15h13.35.822,eb_01,2022.2.4,60.00230021163079,
,,,0,0,0,0,62,0,62,0,,,,,,,,,,,,,,,,,,,,,,,,,,,,,,,,,,,,,,,,,,,,,,,,,,,,,,,,,,,133,001,2023-03-03_15h13.35.822,eb_01,2022.2.4,60.00230021163079,
5,stimuli/5.png,s,0,0,0,0,63,0,63,0,0,0,0,0,,,,,,,,,,,,,,,,,,248.23961150314426,248.23961150314426,248.23961150314426,248.23961150314426,s,1,0.8351313553284854,249.10654534993228,249.10654534993228,249.10654534993228,250.12315541415592,250.12315541415592,250.12315541415592,,,,,,,,,,,,,,,,,,,,,,,,,133,001,2023-03-03_15h13.35.822,eb_01,2022.2.4,60.00230021163079,
,,,0,0,0,0,63,0,63,0,,,,,,,,,,,,,,,,,,,,,,,,,,,,,,,,,,,,,,,,,,,,,,,,,,,,,,,,,,,133,001,2023-03-03_15h13.35.822,eb_01,2022.2.4,60.00230021163079,
6,stimuli/6.png,s,0,0,0,0,64,0,64,0,0,0,0,0,,,,,,,,,,,,,,,,,,250.12315541415592,250.12315541415592,250.12315541415592,250.12315541415592,l,0,0.8796622169320472,251.03982104948955,251.03982104948955,251.03982104948955,,,,,,,,,,,,,,,,,,,,,,,,,,,,133,001,2023-03-03_15h13.35.822,eb_01,2022.2.4,60.00230021163079,
,,,0,0,0,0,64,0,64,0,,,,,,,,,,,,,,,,,,,,,,,,,,,,,,,,,,,,,,,,,,,,,,,,,,,,,,,,,,,133,001,2023-03-03_15h13.35.822,eb_01,2022.2.4,60.00230021163079,
8,stimuli/8.png,l,0,0,0,0,65,0,65,0,0,0,0,0,,,,,,,,,,,,,,,,,,252.05639187278575,252.05639187278575,252.05639187278575,252.05639187278575,l,1,1.12250837663305,253.20633583379094,253.20633583379094,253.20633583379094,254.20630595035618,254.20630595035618,254.20630595035618,,,,,,,,,,,,,,,,,,,,,,,,,133,001,2023-03-03_15h13.35.822,eb_01,2022.2.4,60.00230021163079,
,,,0,0,0,0,65,0,65,0,,,,,,,,,,,,,,,,,,,,,,,,,,,,,,,,,,,,,,,,,,,,,,,,,,,,,,,,,,,133,001,2023-03-03_15h13.35.822,eb_01,2022.2.4,60.00230021163079,
3,stimuli/3.png,l,0,0,0,0,66,0,66,0,0,0,0,0,,,,,,,,,,,,,,,,,,254.20630595035618,254.20630595035618,254.20630595035618,254.20630595035618,l,1,0.6926473890198395,254.92295021447353,254.92295021447353,254.92295021447353,255.9225747093733,255.9225747093733,255.9225747093733,,,,,,,,,,,,,,,,,,,,,,,,,133,001,2023-03-03_15h13.35.822,eb_01,2022.2.4,60.00230021163079,
,,,0,0,0,0,66,0,66,0,,,,,,,,,,,,,,,,,,,,,,,,,,,,,,,,,,,,,,,,,,,,,,,,,,,,,,,,,,,133,001,2023-03-03_15h13.35.822,eb_01,2022.2.4,60.00230021163079,
8,stimuli/8.png,l,0,0,0,0,67,0,67,0,0,0,0,0,,,,,,,,,,,,,,,,,,255.9225747093733,255.9225747093733,255.9225747093733,255.9225747093733,l,1,0.6164352455234621,256.5562136286171,256.5562136286171,256.5562136286171,257.5728179576108,257.5728179576108,257.5728179576108,,,,,,,,,,,,,,,,,,,,,,,,,133,001,2023-03-03_15h13.35.822,eb_01,2022.2.4,60.00230021163079,
,,,0,0,0,0,67,0,67,0,,,,,,,,,,,,,,,,,,,,,,,,,,,,,,,,,,,,,,,,,,,,,,,,,,,,,,,,,,,133,001,2023-03-03_15h13.35.822,eb_01,2022.2.4,60.00230021163079,
6,stimuli/6.png,s,0,0,0,0,68,0,68,0,0,0,0,0,,,,,,,,,,,,,,,,,,257.5728179576108,257.5728179576108,257.5728179576108,257.5728179576108,s,1,0.45421522547258064,258.0728141844447,258.0728141844447,258.0728141844447,,,,,,,,,,,,,,,,,,,,,,,,,,,,133,001,2023-03-03_15h13.35.822,eb_01,2022.2.4,60.00230021163079,
,,,0,0,0,0,68,0,68,0,,,,,,,,,,,,,,,,,,,,,,,,,,,,,,,,,,,,,,,,,,,,,,,,,,,,,,,,,,,133,001,2023-03-03_15h13.35.822,eb_01,2022.2.4,60.00230021163079,
8,stimuli/8.png,l,0,0,0,0,69,0,69,0,0,0,0,0,,,,,,,,,,,,,,,,,,259.08943602090585,259.08943602090585,259.08943602090585,259.08943602090585,l,1,0.6416695513762534,259.7560620380391,259.7560620380391,259.7560620380391,260.7726769318979,260.7726769318979,260.7726769318979,,,,,,,,,,,,,,,,,,,,,,,,,133,001,2023-03-03_15h13.35.822,eb_01,2022.2.4,60.00230021163079,
,,,0,0,0,0,69,0,69,0,,,,,,,,,,,,,,,,,,,,,,,,,,,,,,,,,,,,,,,,,,,,,,,,,,,,,,,,,,,133,001,2023-03-03_15h13.35.822,eb_01,2022.2.4,60.00230021163079,
6,stimuli/6.png,s,0,0,0,0,70,0,70,0,0,0,0,0,,,,,,,,,,,,,,,,,,260.7726769318979,260.7726769318979,260.7726769318979,260.7726769318979,s,1,0.6934472994180396,261.5060061197728,261.5060061197728,261.5060061197728,,,,,,,,,,,,,,,,,,,,,,,,,,,,133,001,2023-03-03_15h13.35.822,eb_01,2022.2.4,60.00230021163079,
,,,0,0,0,0,70,0,70,0,,,,,,,,,,,,,,,,,,,,,,,,,,,,,,,,,,,,,,,,,,,,,,,,,,,,,,,,,,,133,001,2023-03-03_15h13.35.822,eb_01,2022.2.4,60.00230021163079,
8,stimuli/8.png,l,0,0,0,0,71,0,71,0,0,0,0,0,,,,,,,,,,,,,,,,,,262.52263157846755,262.52263157846755,262.52263157846755,262.52263157846755,l,1,0.5835785481031053,263.13923814118607,263.13923814118607,263.13923814118607,264.155887144414,264.155887144414,264.155887144414,,,,,,,,,,,,,,,,,,,,,,,,,133,001,2023-03-03_15h13.35.822,eb_01,2022.2.4,60.00230021163079,
,,,0,0,0,0,71,0,71,0,,,,,,,,,,,,,,,,,,,,,,,,,,,,,,,,,,,,,,,,,,,,,,,,,,,,,,,,,,,133,001,2023-03-03_15h13.35.822,eb_01,2022.2.4,60.00230021163079,
9,stimuli/9.png,l,0,0,0,0,72,0,72,0,0,0,0,0,,,,,,,,,,,,,,,,,,264.155887144414,264.155887144414,264.155887144414,264.155887144414,l,1,0.7903780280903447,264.9891622704454,264.9891622704454,264.9891622704454,,,,,,,,,,,,,,,,,,,,,,,,,,,,133,001,2023-03-03_15h13.35.822,eb_01,2022.2.4,60.00230021163079,
,,,0,0,0,0,72,0,72,0,,,,,,,,,,,,,,,,,,,,,,,,,,,,,,,,,,,,,,,,,,,,,,,,,,,,,,,,,,,133,001,2023-03-03_15h13.35.822,eb_01,2022.2.4,60.00230021163079,
5,stimuli/5.png,s,0,0,0,0,73,0,73,0,0,0,0,0,,,,,,,,,,,,,,,,,,266.0058164051734,266.0058164051734,266.0058164051734,266.0058164051734,s,1,0.5805023643479217,266.60575223123305,266.60575223123305,266.60575223123305,267.6224054603954,267.6224054603954,267.6224054603954,,,,,,,,,,,,,,,,,,,,,,,,,133,001,2023-03-03_15h13.35.822,eb_01,2022.2.4,60.00230021163079,
,,,0,0,0,0,73,0,73,0,,,,,,,,,,,,,,,,,,,,,,,,,,,,,,,,,,,,,,,,,,,,,,,,,,,,,,,,,,,133,001,2023-03-03_15h13.35.822,eb_01,2022.2.4,60.00230021163079,
9,stimuli/9.png,l,0,0,0,0,74,0,74,0,0,0,0,0,,,,,,,,,,,,,,,,,,267.6224054603954,267.6224054603954,267.6224054603954,267.6224054603954,l,1,0.8279729117930401,268.48900032631354,268.48900032631354,268.48900032631354,,,,,,,,,,,,,,,,,,,,,,,,,,,,133,001,2023-03-03_15h13.35.822,eb_01,2022.2.4,60.00230021163079,
,,,0,0,0,0,74,0,74,0,,,,,,,,,,,,,,,,,,,,,,,,,,,,,,,,,,,,,,,,,,,,,,,,,,,,,,,,,,,133,001,2023-03-03_15h13.35.822,eb_01,2022.2.4,60.00230021163079,
5,stimuli/5.png,s,0,0,0,0,75,0,75,0,0,0,0,0,,,,,,,,,,,,,,,,,,269.4886444416479,269.4886444416479,269.4886444416479,269.4886444416479,s,1,0.5617720847949386,270.0722980158462,270.0722980158462,270.0722980158462,271.088909891143,271.088909891143,271.088909891143,,,,,,,,,,,,,,,,,,,,,,,,,133,001,2023-03-03_15h13.35.822,eb_01,2022.2.4,60.00230021163079,
,,,0,0,0,0,75,0,75,0,,,,,,,,,,,,,,,,,,,,,,,,,,,,,,,,,,,,,,,,,,,,,,,,,,,,,,,,,,,133,001,2023-03-03_15h13.35.822,eb_01,2022.2.4,60.00230021163079,
9,stimuli/9.png,l,0,0,0,0,76,0,76,0,0,0,0,0,,,,,,,,,,,,,,,,,,271.088909891143,271.088909891143,271.088909891143,271.088909891143,l,1,0.4815634077822324,271.60553580263513,271.60553580263513,271.60553580263513,,,,,,,,,,,,,,,,,,,,,,,,,,,,133,001,2023-03-03_15h13.35.822,eb_01,2022.2.4,60.00230021163079,
,,,0,0,0,0,76,0,76,0,,,,,,,,,,,,,,,,,,,,,,,,,,,,,,,,,,,,,,,,,,,,,,,,,,,,,,,,,,,133,001,2023-03-03_15h13.35.822,eb_01,2022.2.4,60.00230021163079,
6,stimuli/6.png,s,0,0,0,0,77,0,77,0,0,0,0,0,,,,,,,,,,,,,,,,,,272.6221540168626,272.6221540168626,272.6221540168626,272.6221540168626,s,1,0.5883900846820325,273.2555049683433,273.2555049683433,273.2555049683433,,,,,,,,,,,,,,,,,,,,,,,,,,,,133,001,2023-03-03_15h13.35.822,eb_01,2022.2.4,60.00230021163079,
,,,0,0,0,0,77,0,77,0,,,,,,,,,,,,,,,,,,,,,,,,,,,,,,,,,,,,,,,,,,,,,,,,,,,,,,,,,,,133,001,2023-03-03_15h13.35.822,eb_01,2022.2.4,60.00230021163079,
5,stimuli/5.png,s,0,0,0,0,78,0,78,0,0,0,0,0,,,,,,,,,,,,,,,,,,274.25511829467723,274.25511829467723,274.25511829467723,274.25511829467723,l,0,0.47546265710843727,274.7554233171104,274.7554233171104,274.7554233171104,275.7720557184366,275.7720557184366,275.7720557184366,,,,,,,,,,,,,,,,,,,,,,,,,133,001,2023-03-03_15h13.35.822,eb_01,2022.2.4,60.00230021163079,
,,,0,0,0,0,78,0,78,0,,,,,,,,,,,,,,,,,,,,,,,,,,,,,,,,,,,,,,,,,,,,,,,,,,,,,,,,,,,133,001,2023-03-03_15h13.35.822,eb_01,2022.2.4,60.00230021163079,
9,stimuli/9.png,l,0,0,0,0,79,0,79,0,0,0,0,0,,,,,,,,,,,,,,,,,,275.7720557184366,275.7720557184366,275.7720557184366,275.7720557184366,l,1,1.821624037984293,277.63859957118984,277.63859957118984,277.63859957118984,,,,,,,,,,,,,,,,,,,,,,,,,,,,133,001,2023-03-03_15h13.35.822,eb_01,2022.2.4,60.00230021163079,
,,,0,0,0,0,79,0,79,0,,,,,,,,,,,,,,,,,,,,,,,,,,,,,,,,,,,,,,,,,,,,,,,,,,,,,,,,,,,133,001,2023-03-03_15h13.35.822,eb_01,2022.2.4,60.00230021163079,
8,stimuli/8.png,l,0,0,0,0,80,0,80,0,0,0,0,0,,,,,,,,,,,,,,,,,,278.6552398206841,278.6552398206841,278.6552398206841,278.6552398206841,l,1,0.7705001034773886,279.45517256786115,279.45517256786115,279.45517256786115,280.45516622893047,280.45516622893047,280.45516622893047,,,,,,,,,,,,,,,,,,,,,,,,,133,001,2023-03-03_15h13.35.822,eb_01,2022.2.4,60.00230021163079,
,,,0,0,0,0,80,0,80,0,,,,,,,,,,,,,,,,,,,,,,,,,,,,,,,,,,,,,,,,,,,,,,,,,,,,,,,,,,,133,001,2023-03-03_15h13.35.822,eb_01,2022.2.4,60.00230021163079,
3,stimuli/3.png,l,0,0,0,0,81,0,81,0,0,0,0,0,,,,,,,,,,,,,,,,,,280.45516622893047,280.45516622893047,280.45516622893047,280.45516622893047,l,1,0.7386208060197532,281.2217722935893,281.2217722935893,281.2217722935893,282.2384237116494,282.2384237116494,282.2384237116494,,,,,,,,,,,,,,,,,,,,,,,,,133,001,2023-03-03_15h13.35.822,eb_01,2022.2.4,60.00230021163079,
,,,0,0,0,0,81,0,81,0,,,,,,,,,,,,,,,,,,,,,,,,,,,,,,,,,,,,,,,,,,,,,,,,,,,,,,,,,,,133,001,2023-03-03_15h13.35.822,eb_01,2022.2.4,60.00230021163079,
4,stimuli/4.png,l,0,0,0,0,82,0,82,0,0,0,0,0,,,,,,,,,,,,,,,,,,282.2384237116494,282.2384237116494,282.2384237116494,282.2384237116494,l,1,1.2274321723380126,283.4883806221187,283.4883806221187,283.4883806221187,284.5049804233422,284.5049804233422,284.5049804233422,,,,,,,,,,,,,,,,,,,,,,,,,133,001,2023-03-03_15h13.35.822,eb_01,2022.2.4,60.00230021163079,
,,,0,0,0,0,82,0,82,0,,,,,,,,,,,,,,,,,,,,,,,,,,,,,,,,,,,,,,,,,,,,,,,,,,,,,,,,,,,133,001,2023-03-03_15h13.35.822,eb_01,2022.2.4,60.00230021163079,
1,stimuli/1.png,s,0,0,0,0,83,0,83,0,0,0,0,0,,,,,,,,,,,,,,,,,,284.5049804233422,284.5049804233422,284.5049804233422,284.5049804233422,s,1,1.5539468479983043,286.10490296786884,286.10490296786884,286.10490296786884,,,,,,,,,,,,,,,,,,,,,,,,,,,,133,001,2023-03-03_15h13.35.822,eb_01,2022.2.4,60.00230021163079,
,,,0,0,0,0,83,0,83,0,,,,,,,,,,,,,,,,,,,,,,,,,,,,,,,,,,,,,,,,,,,,,,,,,,,,,,,,,,,133,001,2023-03-03_15h13.35.822,eb_01,2022.2.4,60.00230021163079,
2,stimuli/2.png,s,0,0,0,0,84,0,84,0,0,0,0,0,,,,,,,,,,,,,,,,,,287.1048842529708,287.1048842529708,287.1048842529708,287.1048842529708,l,0,1.8171566137752961,288.95476883946685,288.95476883946685,288.95476883946685,289.9547238633968,289.9547238633968,289.9547238633968,,,,,,,,,,,,,,,,,,,,,,,,,133,001,2023-03-03_15h13.35.822,eb_01,2022.2.4,60.00230021163079,
,,,0,0,0,0,84,0,84,0,,,,,,,,,,,,,,,,,,,,,,,,,,,,,,,,,,,,,,,,,,,,,,,,,,,,,,,,,,,133,001,2023-03-03_15h13.35.822,eb_01,2022.2.4,60.00230021163079,
3,stimuli/3.png,l,0,0,0,0,85,0,85,0,0,0,0,0,,,,,,,,,,,,,,,,,,289.9547238633968,289.9547238633968,289.9547238633968,289.9547238633968,l,1,2.6624207366548944,292.6379421353922,292.6379421353922,292.6379421353922,293.65458329045214,293.65458329045214,293.65458329045214,,,,,,,,,,,,,,,,,,,,,,,,,133,001,2023-03-03_15h13.35.822,eb_01,2022.2.4,60.00230021163079,
,,,0,0,0,0,85,0,85,0,,,,,,,,,,,,,,,,,,,,,,,,,,,,,,,,,,,,,,,,,,,,,,,,,,,,,,,,,,,133,001,2023-03-03_15h13.35.822,eb_01,2022.2.4,60.00230021163079,
4,stimuli/4.png,l,0,0,0,0,86,0,86,0,0,0,0,0,,,,,,,,,,,,,,,,,,293.65458329045214,293.65458329045214,293.65458329045214,293.65458329045214,l,1,0.7386567265493795,294.4212210496771,294.4212210496771,294.4212210496771,295.4208675798145,295.4208675798145,295.4208675798145,,,,,,,,,,,,,,,,,,,,,,,,,133,001,2023-03-03_15h13.35.822,eb_01,2022.2.4,60.00230021163079,
,,,0,0,0,0,86,0,86,0,,,,,,,,,,,,,,,,,,,,,,,,,,,,,,,,,,,,,,,,,,,,,,,,,,,,,,,,,,,133,001,2023-03-03_15h13.35.822,eb_01,2022.2.4,60.00230021163079,
3,stimuli/3.png,l,0,0,0,0,87,0,87,0,0,0,0,0,,,,,,,,,,,,,,,,,,295.4208675798145,295.4208675798145,295.4208675798145,295.4208675798145,l,1,0.7083965684869327,296.1544491167879,296.1544491167879,296.1544491167879,297.1711141182459,297.1711141182459,297.1711141182459,,,,,,,,,,,,,,,,,,,,,,,,,133,001,2023-03-03_15h13.35.822,eb_01,2022.2.4,60.00230021163079,
,,,0,0,0,0,87,0,87,0,,,,,,,,,,,,,,,,,,,,,,,,,,,,,,,,,,,,,,,,,,,,,,,,,,,,,,,,,,,133,001,2023-03-03_15h13.35.822,eb_01,2022.2.4,60.00230021163079,
4,stimuli/4.png,l,0,0,0,0,88,0,88,0,0,0,0,0,,,,,,,,,,,,,,,,,,297.1711141182459,297.1711141182459,297.1711141182459,297.1711141182459,l,1,0.9182091449620202,298.1210388210311,298.1210388210311,298.1210388210311,299.13766971306177,299.13766971306177,299.13766971306177,,,,,,,,,,,,,,,,,,,,,,,,,133,001,2023-03-03_15h13.35.822,eb_01,2022.2.4,60.00230021163079,
,,,0,0,0,0,88,0,88,0,,,,,,,,,,,,,,,,,,,,,,,,,,,,,,,,,,,,,,,,,,,,,,,,,,,,,,,,,,,133,001,2023-03-03_15h13.35.822,eb_01,2022.2.4,60.00230021163079,
1,stimuli/1.png,s,0,0,0,0,89,0,89,0,0,0,0,0,,,,,,,,,,,,,,,,,,299.13766971306177,299.13766971306177,299.13766971306177,299.13766971306177,s,1,0.6157678485906217,299.7876533677336,299.7876533677336,299.7876533677336,,,,,,,,,,,,,,,,,,,,,,,,,,,,133,001,2023-03-03_15h13.35.822,eb_01,2022.2.4,60.00230021163079,
,,,0,0,0,0,89,0,89,0,,,,,,,,,,,,,,,,,,,,,,,,,,,,,,,,,,,,,,,,,,,,,,,,,,,,,,,,,,,133,001,2023-03-03_15h13.35.822,eb_01,2022.2.4,60.00230021163079,
4,stimuli/4.png,l,0,0,0,0,90,0,90,0,0,0,0,0,,,,,,,,,,,,,,,,,,300.8042489429936,300.8042489429936,300.8042489429936,300.8042489429936,l,1,0.7092242493818048,301.53757782903267,301.53757782903267,301.53757782903267,302.5541972506617,302.5541972506617,302.5541972506617,,,,,,,,,,,,,,,,,,,,,,,,,133,001,2023-03-03_15h13.35.822,eb_01,2022.2.4,60.00230021163079,
,,,0,0,0,0,90,0,90,0,,,,,,,,,,,,,,,,,,,,,,,,,,,,,,,,,,,,,,,,,,,,,,,,,,,,,,,,,,,133,001,2023-03-03_15h13.35.822,eb_01,2022.2.4,60.00230021163079,
1,stimuli/1.png,s,0,0,0,0,91,0,91,0,0,0,0,0,,,,,,,,,,,,,,,,,,302.5541972506617,302.5541972506617,302.5541972506617,302.5541972506617,s,1,0.49529168152366765,303.0874908802798,303.0874908802798,303.0874908802798,,,,,,,,,,,,,,,,,,,,,,,,,,,,133,001,2023-03-03_15h13.35.822,eb_01,2022.2.4,60.00230021163079,
,,,0,0,0,0,91,0,91,0,,,,,,,,,,,,,,,,,,,,,,,,,,,,,,,,,,,,,,,,,,,,,,,,,,,,,,,,,,,133,001,2023-03-03_15h13.35.822,eb_01,2022.2.4,60.00230021163079,
4,stimuli/4.png,l,0,0,0,0,92,0,92,0,0,0,0,0,,,,,,,,,,,,,,,,,,304.1041278093762,304.1041278093762,304.1041278093762,304.1041278093762,l,1,0.5694346227974165,304.7040521650342,304.7040521650342,304.7040521650342,305.70404733537,305.70404733537,305.70404733537,,,,,,,,,,,,,,,,,,,,,,,,,133,001,2023-03-03_15h13.35.822,eb_01,2022.2.4,60.00230021163079,
,,,0,0,0,0,92,0,92,0,,,,,,,,,,,,,,,,,,,,,,,,,,,,,,,,,,,,,,,,,,,,,,,,,,,,,,,,,,,133,001,2023-03-03_15h13.35.822,eb_01,2022.2.4,60.00230021163079,
2,stimuli/2.png,s,0,0,0,0,93,0,93,0,0,0,0,0,,,,,,,,,,,,,,,,,,305.70404733537,305.70404733537,305.70404733537,305.70404733537,l,0,2.3526084922486916,308.08726328311604,308.08726328311604,308.08726328311604,309.0872463793494,309.0872463793494,309.0872463793494,,,,,,,,,,,,,,,,,,,,,,,,,133,001,2023-03-03_15h13.35.822,eb_01,2022.2.4,60.00230021163079,
,,,0,0,0,0,93,0,93,0,,,,,,,,,,,,,,,,,,,,,,,,,,,,,,,,,,,,,,,,,,,,,,,,,,,,,,,,,,,133,001,2023-03-03_15h13.35.822,eb_01,2022.2.4,60.00230021163079,
3,stimuli/3.png,l,0,0,0,0,94,0,94,0,0,0,0,0,,,,,,,,,,,,,,,,,,309.0872463793494,309.0872463793494,309.0872463793494,309.0872463793494,l,1,0.7614538713532966,309.870547328901,309.870547328901,309.870547328901,310.88716282646055,310.88716282646055,310.88716282646055,,,,,,,,,,,,,,,,,,,,,,,,,133,001,2023-03-03_15h13.35.822,eb_01,2022.2.4,60.00230021163079,
,,,0,0,0,0,94,0,94,0,,,,,,,,,,,,,,,,,,,,,,,,,,,,,,,,,,,,,,,,,,,,,,,,,,,,,,,,,,,133,001,2023-03-03_15h13.35.822,eb_01,2022.2.4,60.00230021163079,
4,stimuli/4.png,l,0,0,0,0,95,0,95,0,0,0,0,0,,,,,,,,,,,,,,,,,,310.88716282646055,310.88716282646055,310.88716282646055,310.88716282646055,l,1,1.689622822101228,312.603761510778,312.603761510778,312.603761510778,313.6037225717446,313.6037225717446,313.6037225717446,,,,,,,,,,,,,,,,,,,,,,,,,133,001,2023-03-03_15h13.35.822,eb_01,2022.2.4,60.00230021163079,
,,,0,0,0,0,95,0,95,0,,,,,,,,,,,,,,,,,,,,,,,,,,,,,,,,,,,,,,,,,,,,,,,,,,,,,,,,,,,133,001,2023-03-03_15h13.35.822,eb_01,2022.2.4,60.00230021163079,
3,stimuli/3.png,l,0,0,0,0,96,0,96,0,0,0,0,0,,,,,,,,,,,,,,,,,,313.6037225717446,313.6037225717446,313.6037225717446,313.6037225717446,l,1,0.6851173644536175,314.3203405746899,314.3203405746899,314.3203405746899,315.31997442702414,315.31997442702414,315.31997442702414,,,,,,,,,,,,,,,,,,,,,,,,,133,001,2023-03-03_15h13.35.822,eb_01,2022.2.4,60.00230021163079,
,,,0,0,0,0,96,0,96,0,,,,,,,,,,,,,,,,,,,,,,,,,,,,,,,,,,,,,,,,,,,,,,,,,,,,,,,,,,,133,001,2023-03-03_15h13.35.822,eb_01,2022.2.4,60.00230021163079,
8,stimuli/8.png,l,0,0,0,0,97,0,97,0,0,0,0,0,,,,,,,,,,,,,,,,,,315.31997442702414,315.31997442702414,315.31997442702414,315.31997442702414,l,1,0.6409294078184757,315.98691799349035,315.98691799349035,315.98691799349035,316.98691920089186,316.98691920089186,316.98691920089186,,,,,,,,,,,,,,,,,,,,,,,,,133,001,2023-03-03_15h13.35.822,eb_01,2022.2.4,60.00230021163079,
,,,0,0,0,0,97,0,97,0,,,,,,,,,,,,,,,,,,,,,,,,,,,,,,,,,,,,,,,,,,,,,,,,,,,,,,,,,,,133,001,2023-03-03_15h13.35.822,eb_01,2022.2.4,60.00230021163079,
3,stimuli/3.png,l,0,0,0,0,98,0,98,0,0,0,0,0,,,,,,,,,,,,,,,,,,316.98691920089186,316.98691920089186,316.98691920089186,316.98691920089186,l,1,0.6780120470211841,317.6868368856085,317.6868368856085,317.6868368856085,318.70345660910243,318.70345660910243,318.70345660910243,,,,,,,,,,,,,,,,,,,,,,,,,133,001,2023-03-03_15h13.35.822,eb_01,2022.2.4,60.00230021163079,
,,,0,0,0,0,98,0,98,0,,,,,,,,,,,,,,,,,,,,,,,,,,,,,,,,,,,,,,,,,,,,,,,,,,,,,,,,,,,133,001,2023-03-03_15h13.35.822,eb_01,2022.2.4,60.00230021163079,
8,stimuli/8.png,l,0,0,0,0,99,0,99,0,0,0,0,0,,,,,,,,,,,,,,,,,,318.70345660910243,318.70345660910243,318.70345660910243,318.70345660910243,l,1,0.5055453255772591,319.2368006481556,319.2368006481556,319.2368006481556,320.23671462005586,320.23671462005586,320.23671462005586,,,,,,,,,,,,,,,,,,,,,,,,,133,001,2023-03-03_15h13.35.822,eb_01,2022.2.4,60.00230021163079,
,,,0,0,0,0,99,0,99,0,,,,,,,,,,,,,,,,,,,,,,,,,,,,,,,,,,,,,,,,,,,,,,,,,,,,,,,,,,,133,001,2023-03-03_15h13.35.822,eb_01,2022.2.4,60.00230021163079,
,,,0,0,0,0,,,,,,,,,,,,,,,,,,,,,,,,,,,,,,,,,,,,,,,320.23671462005586,320.23671462005586,return,9.47563229847583,,,,,,,,,,,,,,,,,,,,,133,001,2023-03-03_15h13.35.822,eb_01,2022.2.4,60.00230021163079,
9,stimuli/9.png,l,1,0,1,0,0,0,0,0,0,0,0,0,,,,,,,,,,,,,,,,,,329.75297679868527,329.75297679868527,329.75297679868527,329.75297679868527,l,1,2.127439748845063,331.9195773092215,331.9195773092215,331.9195773092215,,,,,,,,,,,,,,,,,,,,,,,,,,,,133,001,2023-03-03_15h13.35.822,eb_01,2022.2.4,60.00230021163079,
,,,1,0,1,0,0,0,0,0,,,,,,,,,,,,,,,,,,,,,,,,,,,,,,,,,,,,,,,,,,,,,,,,,,,,,,,,,,,133,001,2023-03-03_15h13.35.822,eb_01,2022.2.4,60.00230021163079,
5,stimuli/5.png,s,1,0,1,0,1,0,1,0,0,0,0,0,,,,,,,,,,,,,,,,,,332.9192220282566,332.9192220282566,332.9192220282566,332.9192220282566,s,1,0.7212379981647246,333.6695050909184,333.6695050909184,333.6695050909184,334.6860940254119,334.6860940254119,334.6860940254119,,,,,,,,,,,,,,,,,,,,,,,,,133,001,2023-03-03_15h13.35.822,eb_01,2022.2.4,60.00230021163079,
,,,1,0,1,0,1,0,1,0,,,,,,,,,,,,,,,,,,,,,,,,,,,,,,,,,,,,,,,,,,,,,,,,,,,,,,,,,,,133,001,2023-03-03_15h13.35.822,eb_01,2022.2.4,60.00230021163079,
9,stimuli/9.png,l,1,0,1,0,2,0,2,0,0,0,0,0,,,,,,,,,,,,,,,,,,334.6860940254119,334.6860940254119,334.6860940254119,334.6860940254119,l,1,0.7384508627874311,335.46939105083584,335.46939105083584,335.46939105083584,,,,,,,,,,,,,,,,,,,,,,,,,,,,133,001,2023-03-03_15h13.35.822,eb_01,2022.2.4,60.00230021163079,
,,,1,0,1,0,2,0,2,0,,,,,,,,,,,,,,,,,,,,,,,,,,,,,,,,,,,,,,,,,,,,,,,,,,,,,,,,,,,133,001,2023-03-03_15h13.35.822,eb_01,2022.2.4,60.00230021163079,
8,stimuli/8.png,l,1,0,1,0,3,0,3,0,0,0,0,0,,,,,,,,,,,,,,,,,,336.48601500029326,336.48601500029326,336.48601500029326,336.48601500029326,l,1,0.5465514498646371,337.05266278103227,337.05266278103227,337.05266278103227,338.06927888229256,338.06927888229256,338.06927888229256,,,,,,,,,,,,,,,,,,,,,,,,,133,001,2023-03-03_15h13.35.822,eb_01,2022.2.4,60.00230021163079,
,,,1,0,1,0,3,0,3,0,,,,,,,,,,,,,,,,,,,,,,,,,,,,,,,,,,,,,,,,,,,,,,,,,,,,,,,,,,,133,001,2023-03-03_15h13.35.822,eb_01,2022.2.4,60.00230021163079,
9,stimuli/9.png,l,1,0,1,0,4,0,4,0,0,0,0,0,,,,,,,,,,,,,,,,,,338.06927888229256,338.06927888229256,338.06927888229256,338.06927888229256,l,1,0.6103852061496582,338.71925378320157,338.71925378320157,338.71925378320157,,,,,,,,,,,,,,,,,,,,,,,,,,,,133,001,2023-03-03_15h13.35.822,eb_01,2022.2.4,60.00230021163079,
,,,1,0,1,0,4,0,4,0,,,,,,,,,,,,,,,,,,,,,,,,,,,,,,,,,,,,,,,,,,,,,,,,,,,,,,,,,,,133,001,2023-03-03_15h13.35.822,eb_01,2022.2.4,60.00230021163079,
6,stimuli/6.png,s,1,0,1,0,5,0,5,0,0,0,0,0,,,,,,,,,,,,,,,,,,339.73587290299474,339.73587290299474,339.73587290299474,339.73587290299474,s,1,0.5198066717130132,340.3025007614342,340.3025007614342,340.3025007614342,,,,,,,,,,,,,,,,,,,,,,,,,,,,133,001,2023-03-03_15h13.35.822,eb_01,2022.2.4,60.00230021163079,
,,,1,0,1,0,5,0,5,0,,,,,,,,,,,,,,,,,,,,,,,,,,,,,,,,,,,,,,,,,,,,,,,,,,,,,,,,,,,133,001,2023-03-03_15h13.35.822,eb_01,2022.2.4,60.00230021163079,
9,stimuli/9.png,l,1,0,1,0,6,0,6,0,0,0,0,0,,,,,,,,,,,,,,,,,,341.3191198812274,341.3191198812274,341.3191198812274,341.3191198812274,l,1,0.6566088592808228,342.0191411014821,342.0191411014821,342.0191411014821,,,,,,,,,,,,,,,,,,,,,,,,,,,,133,001,2023-03-03_15h13.35.822,eb_01,2022.2.4,60.00230021163079,
,,,1,0,1,0,6,0,6,0,,,,,,,,,,,,,,,,,,,,,,,,,,,,,,,,,,,,,,,,,,,,,,,,,,,,,,,,,,,133,001,2023-03-03_15h13.35.822,eb_01,2022.2.4,60.00230021163079,
8,stimuli/8.png,l,1,0,1,0,7,0,7,0,0,0,0,0,,,,,,,,,,,,,,,,,,343.01875050371746,343.01875050371746,343.01875050371746,343.01875050371746,l,1,0.5010332271340303,343.55240846987,343.55240846987,343.55240846987,344.56900404513,344.56900404513,344.56900404513,,,,,,,,,,,,,,,,,,,,,,,,,133,001,2023-03-03_15h13.35.822,eb_01,2022.2.4,60.00230021163079,
,,,1,0,1,0,7,0,7,0,,,,,,,,,,,,,,,,,,,,,,,,,,,,,,,,,,,,,,,,,,,,,,,,,,,,,,,,,,,133,001,2023-03-03_15h13.35.822,eb_01,2022.2.4,60.00230021163079,
9,stimuli/9.png,l,1,0,1,0,8,0,8,0,0,0,0,0,,,,,,,,,,,,,,,,,,344.56900404513,344.56900404513,344.56900404513,344.56900404513,l,1,0.4628234689007513,345.0689700866642,345.0689700866642,345.0689700866642,,,,,,,,,,,,,,,,,,,,,,,,,,,,133,001,2023-03-03_15h13.35.822,eb_01,2022.2.4,60.00230021163079,
,,,1,0,1,0,8,0,8,0,,,,,,,,,,,,,,,,,,,,,,,,,,,,,,,,,,,,,,,,,,,,,,,,,,,,,,,,,,,133,001,2023-03-03_15h13.35.822,eb_01,2022.2.4,60.00230021163079,
6,stimuli/6.png,s,1,0,1,0,9,0,9,0,0,0,0,0,,,,,,,,,,,,,,,,,,346.0856284473557,346.0856284473557,346.0856284473557,346.0856284473557,s,1,0.6502403650083579,346.7855941266753,346.7855941266753,346.7855941266753,,,,,,,,,,,,,,,,,,,,,,,,,,,,133,001,2023-03-03_15h13.35.822,eb_01,2022.2.4,60.00230021163079,
,,,1,0,1,0,9,0,9,0,,,,,,,,,,,,,,,,,,,,,,,,,,,,,,,,,,,,,,,,,,,,,,,,,,,,,,,,,,,133,001,2023-03-03_15h13.35.822,eb_01,2022.2.4,60.00230021163079,
9,stimuli/9.png,l,1,0,1,0,10,0,10,0,0,0,0,0,,,,,,,,,,,,,,,,,,347.8021875889681,347.8021875889681,347.8021875889681,347.8021875889681,l,1,0.8697560056752991,348.7188215297356,348.7188215297356,348.7188215297356,,,,,,,,,,,,,,,,,,,,,,,,,,,,133,001,2023-03-03_15h13.35.822,eb_01,2022.2.4,60.00230021163079,
,,,1,0,1,0,10,0,10,0,,,,,,,,,,,,,,,,,,,,,,,,,,,,,,,,,,,,,,,,,,,,,,,,,,,,,,,,,,,133,001,2023-03-03_15h13.35.822,eb_01,2022.2.4,60.00230021163079,
6,stimuli/6.png,s,1,0,1,0,11,0,11,0,0,0,0,0,,,,,,,,,,,,,,,,,,349.73543219763087,349.73543219763087,349.73543219763087,349.73543219763087,s,1,0.5605716154677793,350.33542748872424,350.33542748872424,350.33542748872424,,,,,,,,,,,,,,,,,,,,,,,,,,,,133,001,2023-03-03_15h13.35.822,eb_01,2022.2.4,60.00230021163079,
,,,1,0,1,0,11,0,11,0,,,,,,,,,,,,,,,,,,,,,,,,,,,,,,,,,,,,,,,,,,,,,,,,,,,,,,,,,,,133,001,2023-03-03_15h13.35.822,eb_01,2022.2.4,60.00230021163079,
8,stimuli/8.png,l,1,0,1,0,12,0,12,0,0,0,0,0,,,,,,,,,,,,,,,,,,351.35204691038234,351.35204691038234,351.35204691038234,351.35204691038234,l,1,0.7759965444856789,352.15203640589607,352.15203640589607,352.15203640589607,353.16866759979166,353.16866759979166,353.16866759979166,,,,,,,,,,,,,,,,,,,,,,,,,133,001,2023-03-03_15h13.35.822,eb_01,2022.2.4,60.00230021163079,
,,,1,0,1,0,12,0,12,0,,,,,,,,,,,,,,,,,,,,,,,,,,,,,,,,,,,,,,,,,,,,,,,,,,,,,,,,,,,133,001,2023-03-03_15h13.35.822,eb_01,2022.2.4,60.00230021163079,
6,stimuli/6.png,s,1,0,1,0,13,0,13,0,0,0,0,0,,,,,,,,,,,,,,,,,,353.16866759979166,353.16866759979166,353.16866759979166,353.16866759979166,l,0,0.3754183148848824,353.5852947488893,353.5852947488893,353.5852947488893,,,,,,,,,,,,,,,,,,,,,,,,,,,,133,001,2023-03-03_15h13.35.822,eb_01,2022.2.4,60.00230021163079,
,,,1,0,1,0,13,0,13,0,,,,,,,,,,,,,,,,,,,,,,,,,,,,,,,,,,,,,,,,,,,,,,,,,,,,,,,,,,,133,001,2023-03-03_15h13.35.822,eb_01,2022.2.4,60.00230021163079,
8,stimuli/8.png,l,1,0,1,0,14,0,14,0,0,0,0,0,,,,,,,,,,,,,,,,,,354.5849068677926,354.5849068677926,354.5849068677926,354.5849068677926,l,1,0.5662443386099767,355.16854202895775,355.16854202895775,355.16854202895775,356.1851566209516,356.1851566209516,356.1851566209516,,,,,,,,,,,,,,,,,,,,,,,,,133,001,2023-03-03_15h13.35.822,eb_01,2022.2.4,60.00230021163079,
,,,1,0,1,0,14,0,14,0,,,,,,,,,,,,,,,,,,,,,,,,,,,,,,,,,,,,,,,,,,,,,,,,,,,,,,,,,,,133,001,2023-03-03_15h13.35.822,eb_01,2022.2.4,60.00230021163079,
6,stimuli/6.png,s,1,0,1,0,15,0,15,0,0,0,0,0,,,,,,,,,,,,,,,,,,356.1851566209516,356.1851566209516,356.1851566209516,356.1851566209516,s,1,0.7260419884405565,356.9517711374792,356.9517711374792,356.9517711374792,,,,,,,,,,,,,,,,,,,,,,,,,,,,133,001,2023-03-03_15h13.35.822,eb_01,2022.2.4,60.00230021163079,
,,,1,0,1,0,15,0,15,0,,,,,,,,,,,,,,,,,,,,,,,,,,,,,,,,,,,,,,,,,,,,,,,,,,,,,,,,,,,133,001,2023-03-03_15h13.35.822,eb_01,2022.2.4,60.00230021163079,
5,stimuli/5.png,s,1,0,1,0,16,0,16,0,0,0,0,0,,,,,,,,,,,,,,,,,,357.9514261195145,357.9514261195145,357.9514261195145,357.9514261195145,s,1,0.6398333796532825,358.61838055271073,358.61838055271073,358.61838055271073,359.63499786137254,359.63499786137254,359.63499786137254,,,,,,,,,,,,,,,,,,,,,,,,,133,001,2023-03-03_15h13.35.822,eb_01,2022.2.4,60.00230021163079,
,,,1,0,1,0,16,0,16,0,,,,,,,,,,,,,,,,,,,,,,,,,,,,,,,,,,,,,,,,,,,,,,,,,,,,,,,,,,,133,001,2023-03-03_15h13.35.822,eb_01,2022.2.4,60.00230021163079,
6,stimuli/6.png,s,1,0,1,0,17,0,17,0,0,0,0,0,,,,,,,,,,,,,,,,,,359.63499786137254,359.63499786137254,359.63499786137254,359.63499786137254,s,1,0.9643286588252522,360.6349574130727,360.6349574130727,360.6349574130727,,,,,,,,,,,,,,,,,,,,,,,,,,,,133,001,2023-03-03_15h13.35.822,eb_01,2022.2.4,60.00230021163079,
,,,1,0,1,0,17,0,17,0,,,,,,,,,,,,,,,,,,,,,,,,,,,,,,,,,,,,,,,,,,,,,,,,,,,,,,,,,,,133,001,2023-03-03_15h13.35.822,eb_01,2022.2.4,60.00230021163079,
5,stimuli/5.png,s,1,0,1,0,18,0,18,0,0,0,0,0,,,,,,,,,,,,,,,,,,361.63463141184184,361.63463141184184,361.63463141184184,361.63463141184184,s,1,0.7007515379518736,362.3682214007131,362.3682214007131,362.3682214007131,363.38485682057217,363.38485682057217,363.38485682057217,,,,,,,,,,,,,,,,,,,,,,,,,133,001,2023-03-03_15h13.35.822,eb_01,2022.2.4,60.00230021163079,
,,,1,0,1,0,18,0,18,0,,,,,,,,,,,,,,,,,,,,,,,,,,,,,,,,,,,,,,,,,,,,,,,,,,,,,,,,,,,133,001,2023-03-03_15h13.35.822,eb_01,2022.2.4,60.00230021163079,
9,stimuli/9.png,l,1,0,1,0,19,0,19,0,0,0,0,0,,,,,,,,,,,,,,,,,,363.38485682057217,363.38485682057217,363.38485682057217,363.38485682057217,l,1,0.5985682654718403,364.0181694367202,364.0181694367202,364.0181694367202,,,,,,,,,,,,,,,,,,,,,,,,,,,,133,001,2023-03-03_15h13.35.822,eb_01,2022.2.4,60.00230021163079,
,,,1,0,1,0,19,0,19,0,,,,,,,,,,,,,,,,,,,,,,,,,,,,,,,,,,,,,,,,,,,,,,,,,,,,,,,,,,,133,001,2023-03-03_15h13.35.822,eb_01,2022.2.4,60.00230021163079,
6,stimuli/6.png,s,1,0,1,0,20,0,20,0,0,0,0,0,,,,,,,,,,,,,,,,,,365.03476320087793,365.03476320087793,365.03476320087793,365.03476320087793,s,1,0.8687269888469018,365.95142128987936,365.95142128987936,365.95142128987936,,,,,,,,,,,,,,,,,,,,,,,,,,,,133,001,2023-03-03_15h13.35.822,eb_01,2022.2.4,60.00230021163079,
,,,1,0,1,0,20,0,20,0,,,,,,,,,,,,,,,,,,,,,,,,,,,,,,,,,,,,,,,,,,,,,,,,,,,,,,,,,,,133,001,2023-03-03_15h13.35.822,eb_01,2022.2.4,60.00230021163079,
9,stimuli/9.png,l,1,0,1,0,21,0,21,0,0,0,0,0,,,,,,,,,,,,,,,,,,366.9680216947745,366.9680216947745,366.9680216947745,366.9680216947745,l,1,0.4395481889368966,367.4513800869463,367.4513800869463,367.4513800869463,,,,,,,,,,,,,,,,,,,,,,,,,,,,133,001,2023-03-03_15h13.35.822,eb_01,2022.2.4,60.00230021163079,
,,,1,0,1,0,21,0,21,0,,,,,,,,,,,,,,,,,,,,,,,,,,,,,,,,,,,,,,,,,,,,,,,,,,,,,,,,,,,133,001,2023-03-03_15h13.35.822,eb_01,2022.2.4,60.00230021163079,
6,stimuli/6.png,s,1,0,1,0,22,0,22,0,0,0,0,0,,,,,,,,,,,,,,,,,,368.46797415293986,368.46797415293986,368.46797415293986,368.46797415293986,s,1,0.5386758036329411,369.05125524054165,369.05125524054165,369.05125524054165,,,,,,,,,,,,,,,,,,,,,,,,,,,,133,001,2023-03-03_15h13.35.822,eb_01,2022.2.4,60.00230021163079,
,,,1,0,1,0,22,0,22,0,,,,,,,,,,,,,,,,,,,,,,,,,,,,,,,,,,,,,,,,,,,,,,,,,,,,,,,,,,,133,001,2023-03-03_15h13.35.822,eb_01,2022.2.4,60.00230021163079,
9,stimuli/9.png,l,1,0,1,0,23,0,23,0,0,0,0,0,,,,,,,,,,,,,,,,,,370.0679075641674,370.0679075641674,370.0679075641674,370.0679075641674,l,1,0.506699309538817,370.6178776656452,370.6178776656452,370.6178776656452,,,,,,,,,,,,,,,,,,,,,,,,,,,,133,001,2023-03-03_15h13.35.822,eb_01,2022.2.4,60.00230021163079,
,,,1,0,1,0,23,0,23,0,,,,,,,,,,,,,,,,,,,,,,,,,,,,,,,,,,,,,,,,,,,,,,,,,,,,,,,,,,,133,001,2023-03-03_15h13.35.822,eb_01,2022.2.4,60.00230021163079,
5,stimuli/5.png,s,1,0,1,0,24,0,24,0,0,0,0,0,,,,,,,,,,,,,,,,,,371.6175142346474,371.6175142346474,371.6175142346474,371.6175142346474,s,1,0.6451791960280389,372.28448013824527,372.28448013824527,372.28448013824527,373.3010974469071,373.3010974469071,373.3010974469071,,,,,,,,,,,,,,,,,,,,,,,,,133,001,2023-03-03_15h13.35.822,eb_01,2022.2.4,60.00230021163079,
,,,1,0,1,0,24,0,24,0,,,,,,,,,,,,,,,,,,,,,,,,,,,,,,,,,,,,,,,,,,,,,,,,,,,,,,,,,,,133,001,2023-03-03_15h13.35.822,eb_01,2022.2.4,60.00230021163079,
6,stimuli/6.png,s,1,0,1,0,25,0,25,0,0,0,0,0,,,,,,,,,,,,,,,,,,373.3010974469071,373.3010974469071,373.3010974469071,373.3010974469071,s,1,0.4096478396677412,373.7510835767607,373.7510835767607,373.7510835767607,,,,,,,,,,,,,,,,,,,,,,,,,,,,133,001,2023-03-03_15h13.35.822,eb_01,2022.2.4,60.00230021163079,
,,,1,0,1,0,25,0,25,0,,,,,,,,,,,,,,,,,,,,,,,,,,,,,,,,,,,,,,,,,,,,,,,,,,,,,,,,,,,133,001,2023-03-03_15h13.35.822,eb_01,2022.2.4,60.00230021163079,
9,stimuli/9.png,l,1,0,1,0,26,0,26,0,0,0,0,0,,,,,,,,,,,,,,,,,,374.76769696135307,374.76769696135307,374.76769696135307,374.76769696135307,l,1,0.6470944532193244,375.45097318911576,375.45097318911576,375.45097318911576,,,,,,,,,,,,,,,,,,,,,,,,,,,,133,001,2023-03-03_15h13.35.822,eb_01,2022.2.4,60.00230021163079,
,,,1,0,1,0,26,0,26,0,,,,,,,,,,,,,,,,,,,,,,,,,,,,,,,,,,,,,,,,,,,,,,,,,,,,,,,,,,,133,001,2023-03-03_15h13.35.822,eb_01,2022.2.4,60.00230021163079,
5,stimuli/5.png,s,1,0,1,0,27,0,27,0,0,0,0,0,,,,,,,,,,,,,,,,,,376.45060673958506,376.45060673958506,376.45060673958506,376.45060673958506,s,1,0.5482855952577665,377.0175835400878,377.0175835400878,377.0175835400878,378.0342385803815,378.0342385803815,378.0342385803815,,,,,,,,,,,,,,,,,,,,,,,,,133,001,2023-03-03_15h13.35.822,eb_01,2022.2.4,60.00230021163079,
,,,1,0,1,0,27,0,27,0,,,,,,,,,,,,,,,,,,,,,,,,,,,,,,,,,,,,,,,,,,,,,,,,,,,,,,,,,,,133,001,2023-03-03_15h13.35.822,eb_01,2022.2.4,60.00230021163079,
9,stimuli/9.png,l,1,0,1,0,28,0,28,0,0,0,0,0,,,,,,,,,,,,,,,,,,378.0342385803815,378.0342385803815,378.0342385803815,378.0342385803815,l,1,0.4606600885745138,378.5341732292145,378.5341732292145,378.5341732292145,,,,,,,,,,,,,,,,,,,,,,,,,,,,133,001,2023-03-03_15h13.35.822,eb_01,2022.2.4,60.00230021163079,
,,,1,0,1,0,28,0,28,0,,,,,,,,,,,,,,,,,,,,,,,,,,,,,,,,,,,,,,,,,,,,,,,,,,,,,,,,,,,133,001,2023-03-03_15h13.35.822,eb_01,2022.2.4,60.00230021163079,
8,stimuli/8.png,l,1,0,1,0,29,0,29,0,0,0,0,0,,,,,,,,,,,,,,,,,,379.55079657494207,379.55079657494207,379.55079657494207,379.55079657494207,l,1,0.48815165102132596,380.06744240873377,380.06744240873377,380.06744240873377,381.08405941553065,381.08405941553065,381.08405941553065,,,,,,,,,,,,,,,,,,,,,,,,,133,001,2023-03-03_15h13.35.822,eb_01,2022.2.4,60.00230021163079,
,,,1,0,1,0,29,0,29,0,,,,,,,,,,,,,,,,,,,,,,,,,,,,,,,,,,,,,,,,,,,,,,,,,,,,,,,,,,,133,001,2023-03-03_15h13.35.822,eb_01,2022.2.4,60.00230021163079,
9,stimuli/9.png,l,1,0,1,0,30,0,30,0,0,0,0,0,,,,,,,,,,,,,,,,,,381.08405941553065,381.08405941553065,381.08405941553065,381.08405941553065,l,1,0.5229284352681134,381.65073285377,381.65073285377,381.65073285377,,,,,,,,,,,,,,,,,,,,,,,,,,,,133,001,2023-03-03_15h13.35.822,eb_01,2022.2.4,60.00230021163079,
,,,1,0,1,0,30,0,30,0,,,,,,,,,,,,,,,,,,,,,,,,,,,,,,,,,,,,,,,,,,,,,,,,,,,,,,,,,,,133,001,2023-03-03_15h13.35.822,eb_01,2022.2.4,60.00230021163079,
6,stimuli/6.png,s,1,0,1,0,31,0,31,0,0,0,0,0,,,,,,,,,,,,,,,,,,382.66733748462866,382.66733748462866,382.66733748462866,382.66733748462866,s,1,0.659732735803118,383.36729259908316,383.36729259908316,383.36729259908316,,,,,,,,,,,,,,,,,,,,,,,,,,,,133,001,2023-03-03_15h13.35.822,eb_01,2022.2.4,60.00230021163079,
,,,1,0,1,0,31,0,31,0,,,,,,,,,,,,,,,,,,,,,,,,,,,,,,,,,,,,,,,,,,,,,,,,,,,,,,,,,,,133,001,2023-03-03_15h13.35.822,eb_01,2022.2.4,60.00230021163079,
8,stimuli/8.png,l,1,0,1,0,32,0,32,0,0,0,0,0,,,,,,,,,,,,,,,,,,384.36693580885185,384.36693580885185,384.36693580885185,384.36693580885185,l,1,0.6001861974946223,384.98389342657174,384.98389342657174,384.98389342657174,385.98385116716963,385.98385116716963,385.98385116716963,,,,,,,,,,,,,,,,,,,,,,,,,133,001,2023-03-03_15h13.35.822,eb_01,2022.2.4,60.00230021163079,
,,,1,0,1,0,32,0,32,0,,,,,,,,,,,,,,,,,,,,,,,,,,,,,,,,,,,,,,,,,,,,,,,,,,,,,,,,,,,133,001,2023-03-03_15h13.35.822,eb_01,2022.2.4,60.00230021163079,
3,stimuli/3.png,l,1,0,1,0,33,0,33,0,0,0,0,0,,,,,,,,,,,,,,,,,,385.98385116716963,385.98385116716963,385.98385116716963,385.98385116716963,l,1,0.6463253317924682,386.6505227641028,386.6505227641028,386.6505227641028,387.65013548670686,387.65013548670686,387.65013548670686,,,,,,,,,,,,,,,,,,,,,,,,,133,001,2023-03-03_15h13.35.822,eb_01,2022.2.4,60.00230021163079,
,,,1,0,1,0,33,0,33,0,,,,,,,,,,,,,,,,,,,,,,,,,,,,,,,,,,,,,,,,,,,,,,,,,,,,,,,,,,,133,001,2023-03-03_15h13.35.822,eb_01,2022.2.4,60.00230021163079,
8,stimuli/8.png,l,1,0,1,0,34,0,34,0,0,0,0,0,,,,,,,,,,,,,,,,,,387.65013548670686,387.65013548670686,387.65013548670686,387.65013548670686,l,1,0.43606057958095334,388.1170770005847,388.1170770005847,388.1170770005847,389.1336728777096,389.1336728777096,389.1336728777096,,,,,,,,,,,,,,,,,,,,,,,,,133,001,2023-03-03_15h13.35.822,eb_01,2022.2.4,60.00230021163079,
,,,1,0,1,0,34,0,34,0,,,,,,,,,,,,,,,,,,,,,,,,,,,,,,,,,,,,,,,,,,,,,,,,,,,,,,,,,,,133,001,2023-03-03_15h13.35.822,eb_01,2022.2.4,60.00230021163079,
6,stimuli/6.png,s,1,0,1,0,35,0,35,0,0,0,0,0,,,,,,,,,,,,,,,,,,389.1336728777096,389.1336728777096,389.1336728777096,389.1336728777096,s,1,0.5365646438731346,389.7170209766773,389.7170209766773,389.7170209766773,,,,,,,,,,,,,,,,,,,,,,,,,,,,133,001,2023-03-03_15h13.35.822,eb_01,2022.2.4,60.00230021163079,
,,,1,0,1,0,35,0,35,0,,,,,,,,,,,,,,,,,,,,,,,,,,,,,,,,,,,,,,,,,,,,,,,,,,,,,,,,,,,133,001,2023-03-03_15h13.35.822,eb_01,2022.2.4,60.00230021163079,
9,stimuli/9.png,l,1,0,1,0,36,0,36,0,0,0,0,0,,,,,,,,,,,,,,,,,,390.7336491520691,390.7336491520691,390.7336491520691,390.7336491520691,l,1,0.40064597997115925,391.1836195855576,391.1836195855576,391.1836195855576,,,,,,,,,,,,,,,,,,,,,,,,,,,,133,001,2023-03-03_15h13.35.822,eb_01,2022.2.4,60.00230021163079,
,,,1,0,1,0,36,0,36,0,,,,,,,,,,,,,,,,,,,,,,,,,,,,,,,,,,,,,,,,,,,,,,,,,,,,,,,,,,,133,001,2023-03-03_15h13.35.822,eb_01,2022.2.4,60.00230021163079,
6,stimuli/6.png,s,1,0,1,0,37,0,37,0,0,0,0,0,,,,,,,,,,,,,,,,,,392.20028488885146,392.20028488885146,392.20028488885146,392.20028488885146,s,1,0.4300506866420619,392.6669163996994,392.6669163996994,392.6669163996994,,,,,,,,,,,,,,,,,,,,,,,,,,,,133,001,2023-03-03_15h13.35.822,eb_01,2022.2.4,60.00230021163079,
,,,1,0,1,0,37,0,37,0,,,,,,,,,,,,,,,,,,,,,,,,,,,,,,,,,,,,,,,,,,,,,,,,,,,,,,,,,,,133,001,2023-03-03_15h13.35.822,eb_01,2022.2.4,60.00230021163079,
8,stimuli/8.png,l,1,0,1,0,38,0,38,0,0,0,0,0,,,,,,,,,,,,,,,,,,393.66656775950105,393.66656775950105,393.66656775950105,393.66656775950105,l,1,0.3478304613381624,394.03352681105025,394.03352681105025,394.03352681105025,395.0334851553198,395.0334851553198,395.0334851553198,,,,,,,,,,,,,,,,,,,,,,,,,133,001,2023-03-03_15h13.35.822,eb_01,2022.2.4,60.00230021163079,
,,,1,0,1,0,38,0,38,0,,,,,,,,,,,,,,,,,,,,,,,,,,,,,,,,,,,,,,,,,,,,,,,,,,,,,,,,,,,133,001,2023-03-03_15h13.35.822,eb_01,2022.2.4,60.00230021163079,
3,stimuli/3.png,l,1,0,1,0,39,0,39,0,0,0,0,0,,,,,,,,,,,,,,,,,,395.0334851553198,395.0334851553198,395.0334851553198,395.0334851553198,l,1,1.1329826752189547,396.1834478311939,396.1834478311939,396.1834478311939,397.1833599919919,397.1833599919919,397.1833599919919,,,,,,,,,,,,,,,,,,,,,,,,,133,001,2023-03-03_15h13.35.822,eb_01,2022.2.4,60.00230021163079,
,,,1,0,1,0,39,0,39,0,,,,,,,,,,,,,,,,,,,,,,,,,,,,,,,,,,,,,,,,,,,,,,,,,,,,,,,,,,,133,001,2023-03-03_15h13.35.822,eb_01,2022.2.4,60.00230021163079,
2,stimuli/2.png,s,1,0,1,0,40,0,40,0,0,0,0,0,,,,,,,,,,,,,,,,,,397.1833599919919,397.1833599919919,397.1833599919919,397.1833599919919,l,0,1.2471769798139576,398.450009372551,398.450009372551,398.450009372551,399.46659347738023,399.46659347738023,399.46659347738023,,,,,,,,,,,,,,,,,,,,,,,,,133,001,2023-03-03_15h13.35.822,eb_01,2022.2.4,60.00230021163079,
,,,1,0,1,0,40,0,40,0,,,,,,,,,,,,,,,,,,,,,,,,,,,,,,,,,,,,,,,,,,,,,,,,,,,,,,,,,,,133,001,2023-03-03_15h13.35.822,eb_01,2022.2.4,60.00230021163079,
4,stimuli/4.png,l,1,0,1,0,41,0,41,0,0,0,0,0,,,,,,,,,,,,,,,,,,399.46659347738023,399.46659347738023,399.46659347738023,399.46659347738023,l,1,0.9639917908934876,400.4495725912857,400.4495725912857,400.4495725912857,401.4498376181873,401.4498376181873,401.4498376181873,,,,,,,,,,,,,,,,,,,,,,,,,133,001,2023-03-03_15h13.35.822,eb_01,2022.2.4,60.00230021163079,
,,,1,0,1,0,41,0,41,0,,,,,,,,,,,,,,,,,,,,,,,,,,,,,,,,,,,,,,,,,,,,,,,,,,,,,,,,,,,133,001,2023-03-03_15h13.35.822,eb_01,2022.2.4,60.00230021163079,
2,stimuli/2.png,s,1,0,1,0,42,0,42,0,0,0,0,0,,,,,,,,,,,,,,,,,,401.4498376181873,401.4498376181873,401.4498376181873,401.4498376181873,s,1,0.6598145379975904,402.13317602768075,402.13317602768075,402.13317602768075,403.14974896397325,403.14974896397325,403.14974896397325,,,,,,,,,,,,,,,,,,,,,,,,,133,001,2023-03-03_15h13.35.822,eb_01,2022.2.4,60.00230021163079,
,,,1,0,1,0,42,0,42,0,,,,,,,,,,,,,,,,,,,,,,,,,,,,,,,,,,,,,,,,,,,,,,,,,,,,,,,,,,,133,001,2023-03-03_15h13.35.822,eb_01,2022.2.4,60.00230021163079,
1,stimuli/1.png,s,1,0,1,0,43,0,43,0,0,0,0,0,,,,,,,,,,,,,,,,,,403.14974896397325,403.14974896397325,403.14974896397325,403.14974896397325,s,1,0.8559510612394661,404.0497372218815,404.0497372218815,404.0497372218815,,,,,,,,,,,,,,,,,,,,,,,,,,,,133,001,2023-03-03_15h13.35.822,eb_01,2022.2.4,60.00230021163079,
,,,1,0,1,0,43,0,43,0,,,,,,,,,,,,,,,,,,,,,,,,,,,,,,,,,,,,,,,,,,,,,,,,,,,,,,,,,,,133,001,2023-03-03_15h13.35.822,eb_01,2022.2.4,60.00230021163079,
4,stimuli/4.png,l,1,0,1,0,44,0,44,0,0,0,0,0,,,,,,,,,,,,,,,,,,405.0663747547078,405.0663747547078,405.0663747547078,405.0663747547078,l,1,0.7874005502380896,405.8830005756463,405.8830005756463,405.8830005756463,406.89956445634016,406.89956445634016,406.89956445634016,,,,,,,,,,,,,,,,,,,,,,,,,133,001,2023-03-03_15h13.35.822,eb_01,2022.2.4,60.00230021163079,
,,,1,0,1,0,44,0,44,0,,,,,,,,,,,,,,,,,,,,,,,,,,,,,,,,,,,,,,,,,,,,,,,,,,,,,,,,,,,133,001,2023-03-03_15h13.35.822,eb_01,2022.2.4,60.00230021163079,
1,stimuli/1.png,s,1,0,1,0,45,0,45,0,0,0,0,0,,,,,,,,,,,,,,,,,,406.89956445634016,406.89956445634016,406.89956445634016,406.89956445634016,s,1,0.7462531587516423,407.68292788942927,407.68292788942927,407.68292788942927,,,,,,,,,,,,,,,,,,,,,,,,,,,,133,001,2023-03-03_15h13.35.822,eb_01,2022.2.4,60.00230021163079,
,,,1,0,1,0,45,0,45,0,,,,,,,,,,,,,,,,,,,,,,,,,,,,,,,,,,,,,,,,,,,,,,,,,,,,,,,,,,,133,001,2023-03-03_15h13.35.822,eb_01,2022.2.4,60.00230021163079,
2,stimuli/2.png,s,1,0,1,0,46,0,46,0,0,0,0,0,,,,,,,,,,,,,,,,,,408.68288563002716,408.68288563002716,408.68288563002716,408.68288563002716,s,1,0.7949966806045268,409.4994851897354,409.4994851897354,409.4994851897354,410.5161073280615,410.5161073280615,410.5161073280615,,,,,,,,,,,,,,,,,,,,,,,,,133,001,2023-03-03_15h13.35.822,eb_01,2022.2.4,60.00230021163079,
,,,1,0,1,0,46,0,46,0,,,,,,,,,,,,,,,,,,,,,,,,,,,,,,,,,,,,,,,,,,,,,,,,,,,,,,,,,,,133,001,2023-03-03_15h13.35.822,eb_01,2022.2.4,60.00230021163079,
1,stimuli/1.png,s,1,0,1,0,47,0,47,0,0,0,0,0,,,,,,,,,,,,,,,,,,410.5161073280615,410.5161073280615,410.5161073280615,410.5161073280615,s,1,0.641834966809256,411.1994095151895,411.1994095151895,411.1994095151895,,,,,,,,,,,,,,,,,,,,,,,,,,,,133,001,2023-03-03_15h13.35.822,eb_01,2022.2.4,60.00230021163079,
,,,1,0,1,0,47,0,47,0,,,,,,,,,,,,,,,,,,,,,,,,,,,,,,,,,,,,,,,,,,,,,,,,,,,,,,,,,,,133,001,2023-03-03_15h13.35.822,eb_01,2022.2.4,60.00230021163079,
2,stimuli/2.png,s,1,0,1,0,48,0,48,0,0,0,0,0,,,,,,,,,,,,,,,,,,412.19945268018637,412.19945268018637,412.19945268018637,412.19945268018637,s,1,0.5105289183557034,412.7326741669094,412.7326741669094,412.7326741669094,413.7493298109039,413.7493298109039,413.7493298109039,,,,,,,,,,,,,,,,,,,,,,,,,133,001,2023-03-03_15h13.35.822,eb_01,2022.2.4,60.00230021163079,
,,,1,0,1,0,48,0,48,0,,,,,,,,,,,,,,,,,,,,,,,,,,,,,,,,,,,,,,,,,,,,,,,,,,,,,,,,,,,133,001,2023-03-03_15h13.35.822,eb_01,2022.2.4,60.00230021163079,
4,stimuli/4.png,l,1,0,1,0,49,0,49,0,0,0,0,0,,,,,,,,,,,,,,,,,,413.7493298109039,413.7493298109039,413.7493298109039,413.7493298109039,l,1,0.5927096008963417,414.36597501079086,414.36597501079086,414.36597501079086,415.3659270161879,415.3659270161879,415.3659270161879,,,,,,,,,,,,,,,,,,,,,,,,,133,001,2023-03-03_15h13.35.822,eb_01,2022.2.4,60.00230021163079,
,,,1,0,1,0,49,0,49,0,,,,,,,,,,,,,,,,,,,,,,,,,,,,,,,,,,,,,,,,,,,,,,,,,,,,,,,,,,,133,001,2023-03-03_15h13.35.822,eb_01,2022.2.4,60.00230021163079,
2,stimuli/2.png,s,1,0,1,0,50,0,50,0,0,0,0,0,,,,,,,,,,,,,,,,,,415.3659270161879,415.3659270161879,415.3659270161879,415.3659270161879,s,1,0.6481702572491486,416.03258835012093,416.03258835012093,416.03258835012093,417.04919509391766,417.04919509391766,417.04919509391766,,,,,,,,,,,,,,,,,,,,,,,,,133,001,2023-03-03_15h13.35.822,eb_01,2022.2.4,60.00230021163079,
,,,1,0,1,0,50,0,50,0,,,,,,,,,,,,,,,,,,,,,,,,,,,,,,,,,,,,,,,,,,,,,,,,,,,,,,,,,,,133,001,2023-03-03_15h13.35.822,eb_01,2022.2.4,60.00230021163079,
4,stimuli/4.png,l,1,0,1,0,51,0,51,0,0,0,0,0,,,,,,,,,,,,,,,,,,417.04919509391766,417.04919509391766,417.04919509391766,417.04919509391766,l,1,0.851940038788598,417.9324123999977,417.9324123999977,417.9324123999977,418.9491009459889,418.9491009459889,418.9491009459889,,,,,,,,,,,,,,,,,,,,,,,,,133,001,2023-03-03_15h13.35.822,eb_01,2022.2.4,60.00230021163079,
,,,1,0,1,0,51,0,51,0,,,,,,,,,,,,,,,,,,,,,,,,,,,,,,,,,,,,,,,,,,,,,,,,,,,,,,,,,,,133,001,2023-03-03_15h13.35.822,eb_01,2022.2.4,60.00230021163079,
1,stimuli/1.png,s,1,0,1,0,52,0,52,0,0,0,0,0,,,,,,,,,,,,,,,,,,418.9491009459889,418.9491009459889,418.9491009459889,418.9491009459889,s,1,0.6961108501418494,419.6823836484982,419.6823836484982,419.6823836484982,,,,,,,,,,,,,,,,,,,,,,,,,,,,133,001,2023-03-03_15h13.35.822,eb_01,2022.2.4,60.00230021163079,
,,,1,0,1,0,52,0,52,0,,,,,,,,,,,,,,,,,,,,,,,,,,,,,,,,,,,,,,,,,,,,,,,,,,,,,,,,,,,133,001,2023-03-03_15h13.35.822,eb_01,2022.2.4,60.00230021163079,
2,stimuli/2.png,s,1,0,1,0,53,0,53,0,0,0,0,0,,,,,,,,,,,,,,,,,,420.6823302205303,420.6823302205303,420.6823302205303,420.6823302205303,s,1,0.7389323182869703,421.4489628482552,421.4489628482552,421.4489628482552,422.46558076061774,422.46558076061774,422.46558076061774,,,,,,,,,,,,,,,,,,,,,,,,,133,001,2023-03-03_15h13.35.822,eb_01,2022.2.4,60.00230021163079,
,,,1,0,1,0,53,0,53,0,,,,,,,,,,,,,,,,,,,,,,,,,,,,,,,,,,,,,,,,,,,,,,,,,,,,,,,,,,,133,001,2023-03-03_15h13.35.822,eb_01,2022.2.4,60.00230021163079,
1,stimuli/1.png,s,1,0,1,0,54,0,54,0,0,0,0,0,,,,,,,,,,,,,,,,,,422.46558076061774,422.46558076061774,422.46558076061774,422.46558076061774,s,1,0.5637703515239991,423.0655573368422,423.0655573368422,423.0655573368422,,,,,,,,,,,,,,,,,,,,,,,,,,,,133,001,2023-03-03_15h13.35.822,eb_01,2022.2.4,60.00230021163079,
,,,1,0,1,0,54,0,54,0,,,,,,,,,,,,,,,,,,,,,,,,,,,,,,,,,,,,,,,,,,,,,,,,,,,,,,,,,,,133,001,2023-03-03_15h13.35.822,eb_01,2022.2.4,60.00230021163079,
4,stimuli/4.png,l,1,0,1,0,55,0,55,0,0,0,0,0,,,,,,,,,,,,,,,,,,424.0821794751391,424.0821794751391,424.0821794751391,424.0821794751391,l,1,0.5711965386581142,424.6821542402322,424.6821542402322,424.6821542402322,425.68211681046523,425.68211681046523,425.68211681046523,,,,,,,,,,,,,,,,,,,,,,,,,133,001,2023-03-03_15h13.35.822,eb_01,2022.2.4,60.00230021163079,
,,,1,0,1,0,55,0,55,0,,,,,,,,,,,,,,,,,,,,,,,,,,,,,,,,,,,,,,,,,,,,,,,,,,,,,,,,,,,133,001,2023-03-03_15h13.35.822,eb_01,2022.2.4,60.00230021163079,
3,stimuli/3.png,l,1,0,1,0,56,0,56,0,0,0,0,0,,,,,,,,,,,,,,,,,,425.68211681046523,425.68211681046523,425.68211681046523,425.68211681046523,l,1,0.5712949427543208,426.28211693122284,426.28211693122284,426.28211693122284,427.2820719551237,427.2820719551237,427.2820719551237,,,,,,,,,,,,,,,,,,,,,,,,,133,001,2023-03-03_15h13.35.822,eb_01,2022.2.4,60.00230021163079,
,,,1,0,1,0,56,0,56,0,,,,,,,,,,,,,,,,,,,,,,,,,,,,,,,,,,,,,,,,,,,,,,,,,,,,,,,,,,,133,001,2023-03-03_15h13.35.822,eb_01,2022.2.4,60.00230021163079,
2,stimuli/2.png,s,1,0,1,0,57,0,57,0,0,0,0,0,,,,,,,,,,,,,,,,,,427.2820719551237,427.2820719551237,427.2820719551237,427.2820719551237,s,1,1.147450186952483,428.44865676932386,428.44865676932386,428.44865676932386,429.44829756426043,429.44829756426043,429.44829756426043,,,,,,,,,,,,,,,,,,,,,,,,,133,001,2023-03-03_15h13.35.822,eb_01,2022.2.4,60.00230021163079,
,,,1,0,1,0,57,0,57,0,,,,,,,,,,,,,,,,,,,,,,,,,,,,,,,,,,,,,,,,,,,,,,,,,,,,,,,,,,,133,001,2023-03-03_15h13.35.822,eb_01,2022.2.4,60.00230021163079,
3,stimuli/3.png,l,1,0,1,0,58,0,58,0,0,0,0,0,,,,,,,,,,,,,,,,,,429.44829756426043,429.44829756426043,429.44829756426043,429.44829756426043,l,1,0.7492433144070674,430.21527762475307,430.21527762475307,430.21527762475307,431.21520518005127,431.21520518005127,431.21520518005127,,,,,,,,,,,,,,,,,,,,,,,,,133,001,2023-03-03_15h13.35.822,eb_01,2022.2.4,60.00230021163079,
,,,1,0,1,0,58,0,58,0,,,,,,,,,,,,,,,,,,,,,,,,,,,,,,,,,,,,,,,,,,,,,,,,,,,,,,,,,,,133,001,2023-03-03_15h13.35.822,eb_01,2022.2.4,60.00230021163079,
2,stimuli/2.png,s,1,0,1,0,59,0,59,0,0,0,0,0,,,,,,,,,,,,,,,,,,431.21520518005127,431.21520518005127,431.21520518005127,431.21520518005127,s,1,0.6063820318377111,431.8485491889005,431.8485491889005,431.8485491889005,432.8651652901608,432.8651652901608,432.8651652901608,,,,,,,,,,,,,,,,,,,,,,,,,133,001,2023-03-03_15h13.35.822,eb_01,2022.2.4,60.00230021163079,
,,,1,0,1,0,59,0,59,0,,,,,,,,,,,,,,,,,,,,,,,,,,,,,,,,,,,,,,,,,,,,,,,,,,,,,,,,,,,133,001,2023-03-03_15h13.35.822,eb_01,2022.2.4,60.00230021163079,
1,stimuli/1.png,s,1,0,1,0,60,0,60,0,0,0,0,0,,,,,,,,,,,,,,,,,,432.8651652901608,432.8651652901608,432.8651652901608,432.8651652901608,s,1,0.6114812343439553,433.51511362803285,433.51511362803285,433.51511362803285,,,,,,,,,,,,,,,,,,,,,,,,,,,,133,001,2023-03-03_15h13.35.822,eb_01,2022.2.4,60.00230021163079,
,,,1,0,1,0,60,0,60,0,,,,,,,,,,,,,,,,,,,,,,,,,,,,,,,,,,,,,,,,,,,,,,,,,,,,,,,,,,,133,001,2023-03-03_15h13.35.822,eb_01,2022.2.4,60.00230021163079,
4,stimuli/4.png,l,1,0,1,0,61,0,61,0,0,0,0,0,,,,,,,,,,,,,,,,,,434.5316862624604,434.5316862624604,434.5316862624604,434.5316862624604,l,1,1.5130439574131742,436.06502396261203,436.06502396261203,436.06502396261203,437.06494759381167,437.06494759381167,437.06494759381167,,,,,,,,,,,,,,,,,,,,,,,,,133,001,2023-03-03_15h13.35.822,eb_01,2022.2.4,60.00230021163079,
,,,1,0,1,0,61,0,61,0,,,,,,,,,,,,,,,,,,,,,,,,,,,,,,,,,,,,,,,,,,,,,,,,,,,,,,,,,,,133,001,2023-03-03_15h13.35.822,eb_01,2022.2.4,60.00230021163079,
2,stimuli/2.png,s,1,0,1,0,62,0,62,0,0,0,0,0,,,,,,,,,,,,,,,,,,437.06494759381167,437.06494759381167,437.06494759381167,437.06494759381167,s,1,1.4518562444136478,438.54821935415384,438.54821935415384,438.54821935415384,439.548173472489,439.548173472489,439.548173472489,,,,,,,,,,,,,,,,,,,,,,,,,133,001,2023-03-03_15h13.35.822,eb_01,2022.2.4,60.00230021163079,
,,,1,0,1,0,62,0,62,0,,,,,,,,,,,,,,,,,,,,,,,,,,,,,,,,,,,,,,,,,,,,,,,,,,,,,,,,,,,133,001,2023-03-03_15h13.35.822,eb_01,2022.2.4,60.00230021163079,
3,stimuli/3.png,l,1,0,1,0,63,0,63,0,0,0,0,0,,,,,,,,,,,,,,,,,,439.548173472489,439.548173472489,439.548173472489,439.548173472489,l,1,0.6966885967412964,440.2648539590009,440.2648539590009,440.2648539590009,441.2814613065275,441.2814613065275,441.2814613065275,,,,,,,,,,,,,,,,,,,,,,,,,133,001,2023-03-03_15h13.35.822,eb_01,2022.2.4,60.00230021163079,
,,,1,0,1,0,63,0,63,0,,,,,,,,,,,,,,,,,,,,,,,,,,,,,,,,,,,,,,,,,,,,,,,,,,,,,,,,,,,133,001,2023-03-03_15h13.35.822,eb_01,2022.2.4,60.00230021163079,
8,stimuli/8.png,l,1,0,1,0,64,0,64,0,0,0,0,0,,,,,,,,,,,,,,,,,,441.2814613065275,441.2814613065275,441.2814613065275,441.2814613065275,l,1,0.7394548258162104,442.04808246382163,442.04808246382163,442.04808246382163,443.0646840761474,443.0646840761474,443.0646840761474,,,,,,,,,,,,,,,,,,,,,,,,,133,001,2023-03-03_15h13.35.822,eb_01,2022.2.4,60.00230021163079,
,,,1,0,1,0,64,0,64,0,,,,,,,,,,,,,,,,,,,,,,,,,,,,,,,,,,,,,,,,,,,,,,,,,,,,,,,,,,,133,001,2023-03-03_15h13.35.822,eb_01,2022.2.4,60.00230021163079,
9,stimuli/9.png,l,1,0,1,0,65,0,65,0,0,0,0,0,,,,,,,,,,,,,,,,,,443.0646840761474,443.0646840761474,443.0646840761474,443.0646840761474,l,1,0.7162833832844626,443.81464928758214,443.81464928758214,443.81464928758214,,,,,,,,,,,,,,,,,,,,,,,,,,,,133,001,2023-03-03_15h13.35.822,eb_01,2022.2.4,60.00230021163079,
,,,1,0,1,0,65,0,65,0,,,,,,,,,,,,,,,,,,,,,,,,,,,,,,,,,,,,,,,,,,,,,,,,,,,,,,,,,,,133,001,2023-03-03_15h13.35.822,eb_01,2022.2.4,60.00230021163079,
5,stimuli/5.png,s,1,0,1,0,66,0,66,0,0,0,0,0,,,,,,,,,,,,,,,,,,444.81429913811735,444.81429913811735,444.81429913811735,444.81429913811735,s,1,0.5517342656094115,445.39794697711477,445.39794697711477,445.39794697711477,446.41454104310833,446.41454104310833,446.41454104310833,,,,,,,,,,,,,,,,,,,,,,,,,133,001,2023-03-03_15h13.35.822,eb_01,2022.2.4,60.00230021163079,
,,,1,0,1,0,66,0,66,0,,,,,,,,,,,,,,,,,,,,,,,,,,,,,,,,,,,,,,,,,,,,,,,,,,,,,,,,,,,133,001,2023-03-03_15h13.35.822,eb_01,2022.2.4,60.00230021163079,
9,stimuli/9.png,l,1,0,1,0,67,0,67,0,0,0,0,0,,,,,,,,,,,,,,,,,,446.41454104310833,446.41454104310833,446.41454104310833,446.41454104310833,l,1,0.6305251391604543,447.0812017733406,447.0812017733406,447.0812017733406,,,,,,,,,,,,,,,,,,,,,,,,,,,,133,001,2023-03-03_15h13.35.822,eb_01,2022.2.4,60.00230021163079,
,,,1,0,1,0,67,0,67,0,,,,,,,,,,,,,,,,,,,,,,,,,,,,,,,,,,,,,,,,,,,,,,,,,,,,,,,,,,,133,001,2023-03-03_15h13.35.822,eb_01,2022.2.4,60.00230021163079,
8,stimuli/8.png,l,1,0,1,0,68,0,68,0,0,0,0,0,,,,,,,,,,,,,,,,,,448.09782602463383,448.09782602463383,448.09782602463383,448.09782602463383,l,1,0.7623307542817201,448.88114146312,448.88114146312,448.88114146312,449.89771832348197,449.89771832348197,449.89771832348197,,,,,,,,,,,,,,,,,,,,,,,,,133,001,2023-03-03_15h13.35.822,eb_01,2022.2.4,60.00230021163079,
,,,1,0,1,0,68,0,68,0,,,,,,,,,,,,,,,,,,,,,,,,,,,,,,,,,,,,,,,,,,,,,,,,,,,,,,,,,,,133,001,2023-03-03_15h13.35.822,eb_01,2022.2.4,60.00230021163079,
6,stimuli/6.png,s,1,0,1,0,69,0,69,0,0,0,0,0,,,,,,,,,,,,,,,,,,449.89771832348197,449.89771832348197,449.89771832348197,449.89771832348197,s,1,0.6344727724790573,450.581055223709,450.581055223709,450.581055223709,,,,,,,,,,,,,,,,,,,,,,,,,,,,133,001,2023-03-03_15h13.35.822,eb_01,2022.2.4,60.00230021163079,
,,,1,0,1,0,69,0,69,0,,,,,,,,,,,,,,,,,,,,,,,,,,,,,,,,,,,,,,,,,,,,,,,,,,,,,,,,,,,133,001,2023-03-03_15h13.35.822,eb_01,2022.2.4,60.00230021163079,
5,stimuli/5.png,s,1,0,1,0,70,0,70,0,0,0,0,0,,,,,,,,,,,,,,,,,,451.5806567777763,451.5806567777763,451.5806567777763,451.5806567777763,s,1,0.4715941092581488,452.08095938537735,452.08095938537735,452.08095938537735,453.09758092000266,453.09758092000266,453.09758092000266,,,,,,,,,,,,,,,,,,,,,,,,,133,001,2023-03-03_15h13.35.822,eb_01,2022.2.4,60.00230021163079,
,,,1,0,1,0,70,0,70,0,,,,,,,,,,,,,,,,,,,,,,,,,,,,,,,,,,,,,,,,,,,,,,,,,,,,,,,,,,,133,001,2023-03-03_15h13.35.822,eb_01,2022.2.4,60.00230021163079,
9,stimuli/9.png,l,1,0,1,0,71,0,71,0,0,0,0,0,,,,,,,,,,,,,,,,,,453.09758092000266,453.09758092000266,453.09758092000266,453.09758092000266,l,1,0.554715063830372,453.69758405926405,453.69758405926405,453.69758405926405,,,,,,,,,,,,,,,,,,,,,,,,,,,,133,001,2023-03-03_15h13.35.822,eb_01,2022.2.4,60.00230021163079,
,,,1,0,1,0,71,0,71,0,,,,,,,,,,,,,,,,,,,,,,,,,,,,,,,,,,,,,,,,,,,,,,,,,,,,,,,,,,,133,001,2023-03-03_15h13.35.822,eb_01,2022.2.4,60.00230021163079,
8,stimuli/8.png,l,1,0,1,0,72,0,72,0,0,0,0,0,,,,,,,,,,,,,,,,,,454.69721217639744,454.69721217639744,454.69721217639744,454.69721217639744,l,1,0.6431628180725966,455.36415000766283,455.36415000766283,455.36415000766283,456.38077939045615,456.38077939045615,456.38077939045615,,,,,,,,,,,,,,,,,,,,,,,,,133,001,2023-03-03_15h13.35.822,eb_01,2022.2.4,60.00230021163079,
,,,1,0,1,0,72,0,72,0,,,,,,,,,,,,,,,,,,,,,,,,,,,,,,,,,,,,,,,,,,,,,,,,,,,,,,,,,,,133,001,2023-03-03_15h13.35.822,eb_01,2022.2.4,60.00230021163079,
6,stimuli/6.png,s,1,0,1,0,73,0,73,0,0,0,0,0,,,,,,,,,,,,,,,,,,456.38077939045615,456.38077939045615,456.38077939045615,456.38077939045615,s,1,1.4396689301647712,457.86403937853174,457.86403937853174,457.86403937853174,,,,,,,,,,,,,,,,,,,,,,,,,,,,133,001,2023-03-03_15h13.35.822,eb_01,2022.2.4,60.00230021163079,
,,,1,0,1,0,73,0,73,0,,,,,,,,,,,,,,,,,,,,,,,,,,,,,,,,,,,,,,,,,,,,,,,,,,,,,,,,,,,133,001,2023-03-03_15h13.35.822,eb_01,2022.2.4,60.00230021163079,
8,stimuli/8.png,l,1,0,1,0,74,0,74,0,0,0,0,0,,,,,,,,,,,,,,,,,,458.8636801734974,458.8636801734974,458.8636801734974,458.8636801734974,l,1,0.7007965140219312,459.59731664770516,459.59731664770516,459.59731664770516,460.6139840639662,460.6139840639662,460.6139840639662,,,,,,,,,,,,,,,,,,,,,,,,,133,001,2023-03-03_15h13.35.822,eb_01,2022.2.4,60.00230021163079,
,,,1,0,1,0,74,0,74,0,,,,,,,,,,,,,,,,,,,,,,,,,,,,,,,,,,,,,,,,,,,,,,,,,,,,,,,,,,,133,001,2023-03-03_15h13.35.822,eb_01,2022.2.4,60.00230021163079,
9,stimuli/9.png,l,1,0,1,0,75,0,75,0,0,0,0,0,,,,,,,,,,,,,,,,,,460.6139840639662,460.6139840639662,460.6139840639662,460.6139840639662,s,0,0.6385607674601488,461.2972216545895,461.2972216545895,461.2972216545895,,,,,,,,,,,,,,,,,,,,,,,,,,,,133,001,2023-03-03_15h13.35.822,eb_01,2022.2.4,60.00230021163079,
,,,1,0,1,0,75,0,75,0,,,,,,,,,,,,,,,,,,,,,,,,,,,,,,,,,,,,,,,,,,,,,,,,,,,,,,,,,,,133,001,2023-03-03_15h13.35.822,eb_01,2022.2.4,60.00230021163079,
6,stimuli/6.png,s,1,0,1,0,76,0,76,0,0,0,0,0,,,,,,,,,,,,,,,,,,462.3138742800511,462.3138742800511,462.3138742800511,462.3138742800511,s,1,0.6107084906834643,462.9638461624563,462.9638461624563,462.9638461624563,,,,,,,,,,,,,,,,,,,,,,,,,,,,133,001,2023-03-03_15h13.35.822,eb_01,2022.2.4,60.00230021163079,
,,,1,0,1,0,76,0,76,0,,,,,,,,,,,,,,,,,,,,,,,,,,,,,,,,,,,,,,,,,,,,,,,,,,,,,,,,,,,133,001,2023-03-03_15h13.35.822,eb_01,2022.2.4,60.00230021163079,
9,stimuli/9.png,l,1,0,1,0,77,0,77,0,0,0,0,0,,,,,,,,,,,,,,,,,,463.9804673952167,463.9804673952167,463.9804673952167,463.9804673952167,l,1,0.6551750575890765,464.6804062096053,464.6804062096053,464.6804062096053,,,,,,,,,,,,,,,,,,,,,,,,,,,,133,001,2023-03-03_15h13.35.822,eb_01,2022.2.4,60.00230021163079,
,,,1,0,1,0,77,0,77,0,,,,,,,,,,,,,,,,,,,,,,,,,,,,,,,,,,,,,,,,,,,,,,,,,,,,,,,,,,,133,001,2023-03-03_15h13.35.822,eb_01,2022.2.4,60.00230021163079,
8,stimuli/8.png,l,1,0,1,0,78,0,78,0,0,0,0,0,,,,,,,,,,,,,,,,,,465.6970455535338,465.6970455535338,465.6970455535338,465.6970455535338,l,1,0.666712180536706,466.3803332517273,466.3803332517273,466.3803332517273,467.39698678278364,467.39698678278364,467.39698678278364,,,,,,,,,,,,,,,,,,,,,,,,,133,001,2023-03-03_15h13.35.822,eb_01,2022.2.4,60.00230021163079,
,,,1,0,1,0,78,0,78,0,,,,,,,,,,,,,,,,,,,,,,,,,,,,,,,,,,,,,,,,,,,,,,,,,,,,,,,,,,,133,001,2023-03-03_15h13.35.822,eb_01,2022.2.4,60.00230021163079,
6,stimuli/6.png,s,1,0,1,0,79,0,79,0,0,0,0,0,,,,,,,,,,,,,,,,,,467.39698678278364,467.39698678278364,467.39698678278364,467.39698678278364,s,1,0.7027751603454817,468.14695139051764,468.14695139051764,468.14695139051764,,,,,,,,,,,,,,,,,,,,,,,,,,,,133,001,2023-03-03_15h13.35.822,eb_01,2022.2.4,60.00230021163079,
,,,1,0,1,0,79,0,79,0,,,,,,,,,,,,,,,,,,,,,,,,,,,,,,,,,,,,,,,,,,,,,,,,,,,,,,,,,,,133,001,2023-03-03_15h13.35.822,eb_01,2022.2.4,60.00230021163079,
8,stimuli/8.png,l,1,0,1,0,80,0,80,0,0,0,0,0,,,,,,,,,,,,,,,,,,469.16355390838,469.16355390838,469.16355390838,469.16355390838,l,1,0.7842504124855623,469.98018244598643,469.98018244598643,469.98018244598643,470.9968305436778,470.9968305436778,470.9968305436778,,,,,,,,,,,,,,,,,,,,,,,,,133,001,2023-03-03_15h13.35.822,eb_01,2022.2.4,60.00230021163079,
,,,1,0,1,0,80,0,80,0,,,,,,,,,,,,,,,,,,,,,,,,,,,,,,,,,,,,,,,,,,,,,,,,,,,,,,,,,,,133,001,2023-03-03_15h13.35.822,eb_01,2022.2.4,60.00230021163079,
9,stimuli/9.png,l,1,0,1,0,81,0,81,0,0,0,0,0,,,,,,,,,,,,,,,,,,470.9968305436778,470.9968305436778,470.9968305436778,470.9968305436778,l,1,1.8870585206022952,472.93007575604133,472.93007575604133,472.93007575604133,,,,,,,,,,,,,,,,,,,,,,,,,,,,133,001,2023-03-03_15h13.35.822,eb_01,2022.2.4,60.00230021163079,
,,,1,0,1,0,81,0,81,0,,,,,,,,,,,,,,,,,,,,,,,,,,,,,,,,,,,,,,,,,,,,,,,,,,,,,,,,,,,133,001,2023-03-03_15h13.35.822,eb_01,2022.2.4,60.00230021163079,
8,stimuli/8.png,l,1,0,1,0,82,0,82,0,0,0,0,0,,,,,,,,,,,,,,,,,,473.92972047507646,473.92972047507646,473.92972047507646,473.92972047507646,l,1,0.6902334706974216,474.64666749778553,474.64666749778553,474.64666749778553,475.6632694119471,475.6632694119471,475.6632694119471,,,,,,,,,,,,,,,,,,,,,,,,,133,001,2023-03-03_15h13.35.822,eb_01,2022.2.4,60.00230021163079,
,,,1,0,1,0,82,0,82,0,,,,,,,,,,,,,,,,,,,,,,,,,,,,,,,,,,,,,,,,,,,,,,,,,,,,,,,,,,,133,001,2023-03-03_15h13.35.822,eb_01,2022.2.4,60.00230021163079,
9,stimuli/9.png,l,1,0,1,0,83,0,83,0,0,0,0,0,,,,,,,,,,,,,,,,,,475.6632694119471,475.6632694119471,475.6632694119471,475.6632694119471,l,1,0.6527418206969742,476.36322814863524,476.36322814863524,476.36322814863524,,,,,,,,,,,,,,,,,,,,,,,,,,,,133,001,2023-03-03_15h13.35.822,eb_01,2022.2.4,60.00230021163079,
,,,1,0,1,0,83,0,83,0,,,,,,,,,,,,,,,,,,,,,,,,,,,,,,,,,,,,,,,,,,,,,,,,,,,,,,,,,,,133,001,2023-03-03_15h13.35.822,eb_01,2022.2.4,60.00230021163079,
6,stimuli/6.png,s,1,0,1,0,84,0,84,0,0,0,0,0,,,,,,,,,,,,,,,,,,477.37988318892894,477.37988318892894,477.37988318892894,477.37988318892894,s,1,0.5201857990468852,477.9464859935688,477.9464859935688,477.9464859935688,,,,,,,,,,,,,,,,,,,,,,,,,,,,133,001,2023-03-03_15h13.35.822,eb_01,2022.2.4,60.00230021163079,
,,,1,0,1,0,84,0,84,0,,,,,,,,,,,,,,,,,,,,,,,,,,,,,,,,,,,,,,,,,,,,,,,,,,,,,,,,,,,133,001,2023-03-03_15h13.35.822,eb_01,2022.2.4,60.00230021163079,
5,stimuli/5.png,s,1,0,1,0,85,0,85,0,0,0,0,0,,,,,,,,,,,,,,,,,,478.94615818123566,478.94615818123566,478.94615818123566,478.94615818123566,s,1,0.43299375323113054,479.39647906605387,479.39647906605387,479.39647906605387,480.41304294674774,480.41304294674774,480.41304294674774,,,,,,,,,,,,,,,,,,,,,,,,,133,001,2023-03-03_15h13.35.822,eb_01,2022.2.4,60.00230021163079,
,,,1,0,1,0,85,0,85,0,,,,,,,,,,,,,,,,,,,,,,,,,,,,,,,,,,,,,,,,,,,,,,,,,,,,,,,,,,,133,001,2023-03-03_15h13.35.822,eb_01,2022.2.4,60.00230021163079,
6,stimuli/6.png,s,1,0,1,0,86,0,86,0,0,0,0,0,,,,,,,,,,,,,,,,,,480.41304294674774,480.41304294674774,480.41304294674774,480.41304294674774,s,1,0.6301523506990634,481.0797187696153,481.0797187696153,481.0797187696153,,,,,,,,,,,,,,,,,,,,,,,,,,,,133,001,2023-03-03_15h13.35.822,eb_01,2022.2.4,60.00230021163079,
,,,1,0,1,0,86,0,86,0,,,,,,,,,,,,,,,,,,,,,,,,,,,,,,,,,,,,,,,,,,,,,,,,,,,,,,,,,,,133,001,2023-03-03_15h13.35.822,eb_01,2022.2.4,60.00230021163079,
9,stimuli/9.png,l,1,0,1,0,87,0,87,0,0,0,0,0,,,,,,,,,,,,,,,,,,482.0963427190436,482.0963427190436,482.0963427190436,482.0963427190436,l,1,0.4829217461810913,482.6129562545684,482.6129562545684,482.6129562545684,,,,,,,,,,,,,,,,,,,,,,,,,,,,133,001,2023-03-03_15h13.35.822,eb_01,2022.2.4,60.00230021163079,
,,,1,0,1,0,87,0,87,0,,,,,,,,,,,,,,,,,,,,,,,,,,,,,,,,,,,,,,,,,,,,,,,,,,,,,,,,,,,133,001,2023-03-03_15h13.35.822,eb_01,2022.2.4,60.00230021163079,
5,stimuli/5.png,s,1,0,1,0,88,0,88,0,0,0,0,0,,,,,,,,,,,,,,,,,,483.6126308570383,483.6126308570383,483.6126308570383,483.6126308570383,s,1,0.4466305655078031,484.07959199135075,484.07959199135075,484.07959199135075,485.0961806240084,485.0961806240084,485.0961806240084,,,,,,,,,,,,,,,,,,,,,,,,,133,001,2023-03-03_15h13.35.822,eb_01,2022.2.4,60.00230021163079,
,,,1,0,1,0,88,0,88,0,,,,,,,,,,,,,,,,,,,,,,,,,,,,,,,,,,,,,,,,,,,,,,,,,,,,,,,,,,,133,001,2023-03-03_15h13.35.822,eb_01,2022.2.4,60.00230021163079,
9,stimuli/9.png,l,1,0,1,0,89,0,89,0,0,0,0,0,,,,,,,,,,,,,,,,,,485.0961806240084,485.0961806240084,485.0961806240084,485.0961806240084,l,1,0.6271428764448501,485.7628265634412,485.7628265634412,485.7628265634412,,,,,,,,,,,,,,,,,,,,,,,,,,,,133,001,2023-03-03_15h13.35.822,eb_01,2022.2.4,60.00230021163079,
,,,1,0,1,0,89,0,89,0,,,,,,,,,,,,,,,,,,,,,,,,,,,,,,,,,,,,,,,,,,,,,,,,,,,,,,,,,,,133,001,2023-03-03_15h13.35.822,eb_01,2022.2.4,60.00230021163079,
5,stimuli/5.png,s,1,0,1,0,90,0,90,0,0,0,0,0,,,,,,,,,,,,,,,,,,486.762482752878,486.762482752878,486.762482752878,486.762482752878,s,1,0.5288806742755696,487.3127945519227,487.3127945519227,487.3127945519227,488.32938620308414,488.32938620308414,488.32938620308414,,,,,,,,,,,,,,,,,,,,,,,,,133,001,2023-03-03_15h13.35.822,eb_01,2022.2.4,60.00230021163079,
,,,1,0,1,0,90,0,90,0,,,,,,,,,,,,,,,,,,,,,,,,,,,,,,,,,,,,,,,,,,,,,,,,,,,,,,,,,,,133,001,2023-03-03_15h13.35.822,eb_01,2022.2.4,60.00230021163079,
9,stimuli/9.png,l,1,0,1,0,91,0,91,0,0,0,0,0,,,,,,,,,,,,,,,,,,488.32938620308414,488.32938620308414,488.32938620308414,488.32938620308414,l,1,0.44202247785869986,488.81271561735775,488.81271561735775,488.81271561735775,,,,,,,,,,,,,,,,,,,,,,,,,,,,133,001,2023-03-03_15h13.35.822,eb_01,2022.2.4,60.00230021163079,
,,,1,0,1,0,91,0,91,0,,,,,,,,,,,,,,,,,,,,,,,,,,,,,,,,,,,,,,,,,,,,,,,,,,,,,,,,,,,133,001,2023-03-03_15h13.35.822,eb_01,2022.2.4,60.00230021163079,
6,stimuli/6.png,s,1,0,1,0,92,0,92,0,0,0,0,0,,,,,,,,,,,,,,,,,,489.82930696668336,489.82930696668336,489.82930696668336,489.82930696668336,s,1,0.7341585133399349,490.61260308657074,490.61260308657074,490.61260308657074,,,,,,,,,,,,,,,,,,,,,,,,,,,,133,001,2023-03-03_15h13.35.822,eb_01,2022.2.4,60.00230021163079,
,,,1,0,1,0,92,0,92,0,,,,,,,,,,,,,,,,,,,,,,,,,,,,,,,,,,,,,,,,,,,,,,,,,,,,,,,,,,,133,001,2023-03-03_15h13.35.822,eb_01,2022.2.4,60.00230021163079,
5,stimuli/5.png,s,1,0,1,0,93,0,93,0,0,0,0,0,,,,,,,,,,,,,,,,,,491.6292282434297,491.6292282434297,491.6292282434297,491.6292282434297,s,1,0.3422974960994907,491.99590174201876,491.99590174201876,491.99590174201876,493.0125537638087,493.0125537638087,493.0125537638087,,,,,,,,,,,,,,,,,,,,,,,,,133,001,2023-03-03_15h13.35.822,eb_01,2022.2.4,60.00230021163079,
,,,1,0,1,0,93,0,93,0,,,,,,,,,,,,,,,,,,,,,,,,,,,,,,,,,,,,,,,,,,,,,,,,,,,,,,,,,,,133,001,2023-03-03_15h13.35.822,eb_01,2022.2.4,60.00230021163079,
6,stimuli/6.png,s,1,0,1,0,94,0,94,0,0,0,0,0,,,,,,,,,,,,,,,,,,493.0125537638087,493.0125537638087,493.0125537638087,493.0125537638087,s,1,0.5670222137414385,493.62914583756356,493.62914583756356,493.62914583756356,,,,,,,,,,,,,,,,,,,,,,,,,,,,133,001,2023-03-03_15h13.35.822,eb_01,2022.2.4,60.00230021163079,
,,,1,0,1,0,94,0,94,0,,,,,,,,,,,,,,,,,,,,,,,,,,,,,,,,,,,,,,,,,,,,,,,,,,,,,,,,,,,133,001,2023-03-03_15h13.35.822,eb_01,2022.2.4,60.00230021163079,
9,stimuli/9.png,l,1,0,1,0,95,0,95,0,0,0,0,0,,,,,,,,,,,,,,,,,,494.64576495735673,494.64576495735673,494.64576495735673,494.64576495735673,l,1,0.3328799848386552,495.01244449301157,495.01244449301157,495.01244449301157,,,,,,,,,,,,,,,,,,,,,,,,,,,,133,001,2023-03-03_15h13.35.822,eb_01,2022.2.4,60.00230021163079,
,,,1,0,1,0,95,0,95,0,,,,,,,,,,,,,,,,,,,,,,,,,,,,,,,,,,,,,,,,,,,,,,,,,,,,,,,,,,,133,001,2023-03-03_15h13.35.822,eb_01,2022.2.4,60.00230021163079,
6,stimuli/6.png,s,1,0,1,0,96,0,96,0,0,0,0,0,,,,,,,,,,,,,,,,,,496.0290672350384,496.0290672350384,496.0290672350384,496.0290672350384,s,1,0.5655935435788706,496.62902358709835,496.62902358709835,496.62902358709835,,,,,,,,,,,,,,,,,,,,,,,,,,,,133,001,2023-03-03_15h13.35.822,eb_01,2022.2.4,60.00230021163079,
,,,1,0,1,0,96,0,96,0,,,,,,,,,,,,,,,,,,,,,,,,,,,,,,,,,,,,,,,,,,,,,,,,,,,,,,,,,,,133,001,2023-03-03_15h13.35.822,eb_01,2022.2.4,60.00230021163079,
5,stimuli/5.png,s,1,0,1,0,97,0,97,0,0,0,0,0,,,,,,,,,,,,,,,,,,497.62866468389984,497.62866468389984,497.62866468389984,497.62866468389984,s,1,0.47803927419590764,498.12894736923045,498.12894736923045,498.12894736923045,499.1455664890236,499.1455664890236,499.1455664890236,,,,,,,,,,,,,,,,,,,,,,,,,133,001,2023-03-03_15h13.35.822,eb_01,2022.2.4,60.00230021163079,
,,,1,0,1,0,97,0,97,0,,,,,,,,,,,,,,,,,,,,,,,,,,,,,,,,,,,,,,,,,,,,,,,,,,,,,,,,,,,133,001,2023-03-03_15h13.35.822,eb_01,2022.2.4,60.00230021163079,
9,stimuli/9.png,l,1,0,1,0,98,0,98,0,0,0,0,0,,,,,,,,,,,,,,,,,,499.1455664890236,499.1455664890236,499.1455664890236,499.1455664890236,l,1,0.8572647254623007,500.0454868300003,500.0454868300003,500.0454868300003,,,,,,,,,,,,,,,,,,,,,,,,,,,,133,001,2023-03-03_15h13.35.822,eb_01,2022.2.4,60.00230021163079,
,,,1,0,1,0,98,0,98,0,,,,,,,,,,,,,,,,,,,,,,,,,,,,,,,,,,,,,,,,,,,,,,,,,,,,,,,,,,,133,001,2023-03-03_15h13.35.822,eb_01,2022.2.4,60.00230021163079,
8,stimuli/8.png,l,1,0,1,0,99,0,99,0,0,0,0,0,,,,,,,,,,,,,,,,,,501.06216632039286,501.06216632039286,501.06216632039286,501.06216632039286,l,1,0.5646559881861322,501.64548846002435,501.64548846002435,501.64548846002435,502.6454362394579,502.6454362394579,502.6454362394579,,,,,,,,,,,,,,,,,,,,,,,,,133,001,2023-03-03_15h13.35.822,eb_01,2022.2.4,60.00230021163079,
,,,1,0,1,0,99,0,99,0,,,,,,,,,,,,,,,,,,,,,,,,,,,,,,,,,,,,,,,,,,,,,,,,,,,,,,,,,,,133,001,2023-03-03_15h13.35.822,eb_01,2022.2.4,60.00230021163079,
,,,1,0,1,0,,,,,,,,,,,,,,,,,,,,,,,,,,,,,,,,,,,,,,,502.6454362394579,502.6454362394579,return,12.86882871328271,,,,,,,,,,,,,,,,,,,,,133,001,2023-03-03_15h13.35.822,eb_01,2022.2.4,60.00230021163079,
3,stimuli/3.png,l,2,0,2,0,0,0,0,0,0,0,0,0,,,,,,,,,,,,,,,,,,515.5615340893273,515.5615340893273,515.5615340893273,515.5615340893273,l,1,1.4007760786043946,516.9948247305874,516.9948247305874,516.9948247305874,517.9947607377544,517.9947607377544,517.9947607377544,,,,,,,,,,,,,,,,,,,,,,,,,133,001,2023-03-03_15h13.35.822,eb_01,2022.2.4,60.00230021163079,
,,,2,0,2,0,0,0,0,0,,,,,,,,,,,,,,,,,,,,,,,,,,,,,,,,,,,,,,,,,,,,,,,,,,,,,,,,,,,133,001,2023-03-03_15h13.35.822,eb_01,2022.2.4,60.00230021163079,
2,stimuli/2.png,s,2,0,2,0,1,0,1,0,0,0,0,0,,,,,,,,,,,,,,,,,,517.9947607377544,517.9947607377544,517.9947607377544,517.9947607377544,s,1,0.5916123653005343,518.6114074469078,518.6114074469078,518.6114074469078,519.6280350185698,519.6280350185698,519.6280350185698,,,,,,,,,,,,,,,,,,,,,,,,,133,001,2023-03-03_15h13.35.822,eb_01,2022.2.4,60.00230021163079,
,,,2,0,2,0,1,0,1,0,,,,,,,,,,,,,,,,,,,,,,,,,,,,,,,,,,,,,,,,,,,,,,,,,,,,,,,,,,,133,001,2023-03-03_15h13.35.822,eb_01,2022.2.4,60.00230021163079,
4,stimuli/4.png,l,2,0,2,0,2,0,2,0,0,0,0,0,,,,,,,,,,,,,,,,,,519.6280350185698,519.6280350185698,519.6280350185698,519.6280350185698,l,1,0.7423797812371049,520.394672174094,520.394672174094,520.394672174094,521.4112556752225,521.4112556752225,521.4112556752225,,,,,,,,,,,,,,,,,,,,,,,,,133,001,2023-03-03_15h13.35.822,eb_01,2022.2.4,60.00230021163079,
,,,2,0,2,0,2,0,2,0,,,,,,,,,,,,,,,,,,,,,,,,,,,,,,,,,,,,,,,,,,,,,,,,,,,,,,,,,,,133,001,2023-03-03_15h13.35.822,eb_01,2022.2.4,60.00230021163079,
1,stimuli/1.png,s,2,0,2,0,3,0,3,0,0,0,0,0,,,,,,,,,,,,,,,,,,521.4112556752225,521.4112556752225,521.4112556752225,521.4112556752225,s,1,0.6232242209953256,522.0779133869219,522.0779133869219,522.0779133869219,,,,,,,,,,,,,,,,,,,,,,,,,,,,133,001,2023-03-03_15h13.35.822,eb_01,2022.2.4,60.00230021163079,
,,,2,0,2,0,3,0,3,0,,,,,,,,,,,,,,,,,,,,,,,,,,,,,,,,,,,,,,,,,,,,,,,,,,,,,,,,,,,133,001,2023-03-03_15h13.35.822,eb_01,2022.2.4,60.00230021163079,
