index,stimulus,correct_answer,block.thisRepN,block.thisTrialN,block.thisN,block.thisIndex,trial.thisRepN,trial.thisTrialN,trial.thisN,trial.thisIndex,display_row.thisRepN,display_row.thisTrialN,display_row.thisN,display_row.thisIndex,pair_questions.thisRepN,pair_questions.thisTrialN,pair_questions.thisN,pair_questions.thisIndex,welcome_text.started,instructions_0_keypress.started,instructions_0_keypress.keys,instructions_0_keypress.rt,instructions_1_keypress.started,instructions_1_text.started,instructions_1_keypress.keys,instructions_1_keypress.rt,instructions_2_keypress.started,instructions_2_text.started,instructions_2_keypress.keys,instructions_2_keypress.rt,text_countdown.started,image.started,size_question.started,size_resp.started,keypress_options.started,size_resp.keys,size_resp.corr,size_resp.rt,fb_image.started,fb.started,fb_size_question.started,fb_image.stopped,fb.stopped,fb_size_question.stopped,block_break_text.started,block_break_keypress.started,block_break_keypress.keys,block_break_keypress.rt,seq_reveal.started,seq_reveal_adv.started,seq_reveal_adv.keys,seq_reveal_adv.rt,instruction_2afc_text.started,instruction_2afc_keypress.started,instruction_2afc_keypress.keys,instruction_2afc_keypress.rt,dist_2afc_test.started,dist_2afc_resp.started,text.started,stim_00.started,stim_01.started,stim_10.started,stim_11.started,dist_2afc_resp.keys,dist_2afc_resp.rt,graph.started,debrief_text.started,debriefing_title.started,participant,session,date,expName,psychopyVersion,frameRate,
,,,,,,,,,,,,,,,,,,,331.2907211484853,331.2907211484853,return,16.2772322006349,,,,,,,,,,,,,,,,,,,,,,,,,,,,,,,,,,,,,,,,,,,,,,,134,001,2010-10-16_15h09.30.592,eb_01,2022.2.4,120.02644782655808,
,,,,,,,,,,,,,,,,,,,,,,,347.5834746491746,347.5834746491746,return,5.472498296003323,,,,,,,,,,,,,,,,,,,,,,,,,,,,,,,,,,,,,,,,,,,134,001,2010-10-16_15h09.30.592,eb_01,2022.2.4,120.02644782655808,
,,,,,,,,,,,,,,,,,,,,,,,,,,,353.06726322177565,353.06726322177565,space,8.292850493919104,,,,,,,,,,,,,,,,,,,,,,,,,,,,,,,,,,,,,,,134,001,2010-10-16_15h09.30.592,eb_01,2022.2.4,120.02644782655808,
2,stimuli/2.png,s,0,0,0,0,0,0,0,0,0,0,0,0,,,,,,,,,,,,,,,,,361.3846213751822,366.4016867346363,366.4016867346363,366.4016867346363,366.4016867346363,s,1,2.2376038980437443,368.6602572964621,368.6602572964621,368.6602572964621,,,,,,,,,,,,,,,,,,,,,,,,,,,,134,001,2010-10-16_15h09.30.592,eb_01,2022.2.4,120.02644782655808,
,,,0,0,0,0,0,0,0,0,,,,,,,,,,,,,,,,,,,,,,,,,,,,,,,,,,,,,,,,,,,,,,,,,,,,,,,,,,,134,001,2010-10-16_15h09.30.592,eb_01,2022.2.4,120.02644782655808,
4,stimuli/4.png,l,0,0,0,0,1,0,1,0,0,0,0,0,,,,,,,,,,,,,,,,,,369.6770135621191,369.6770135621191,369.6770135621191,369.6770135621191,l,1,0.8023155865375884,370.50206736676046,370.50206736676046,370.50206736676046,,,,,,,,,,,,,,,,,,,,,,,,,,,,134,001,2010-10-16_15h09.30.592,eb_01,2022.2.4,120.02644782655808,
,,,0,0,0,0,1,0,1,0,,,,,,,,,,,,,,,,,,,,,,,,,,,,,,,,,,,,,,,,,,,,,,,,,,,,,,,,,,,134,001,2010-10-16_15h09.30.592,eb_01,2022.2.4,120.02644782655808,
3,stimuli/3.png,l,0,0,0,0,2,0,2,0,0,0,0,0,,,,,,,,,,,,,,,,,,371.5104678364296,371.5104678364296,371.5104678364296,371.5104678364296,l,1,0.6648729756416287,372.1938401586667,372.1938401586667,372.1938401586667,,,,,,,,,,,,,,,,,,,,,,,,,,,,134,001,2010-10-16_15h09.30.592,eb_01,2022.2.4,120.02644782655808,
,,,0,0,0,0,2,0,2,0,,,,,,,,,,,,,,,,,,,,,,,,,,,,,,,,,,,,,,,,,,,,,,,,,,,,,,,,,,,134,001,2010-10-16_15h09.30.592,eb_01,2022.2.4,120.02644782655808,
4,stimuli/4.png,l,0,0,0,0,3,0,3,0,0,0,0,0,,,,,,,,,,,,,,,,,,373.21063174068695,373.21063174068695,373.21063174068695,373.21063174068695,l,1,1.34074705617968,374.56904624635354,374.56904624635354,374.56904624635354,,,,,,,,,,,,,,,,,,,,,,,,,,,,134,001,2010-10-16_15h09.30.592,eb_01,2022.2.4,120.02644782655808,
,,,0,0,0,0,3,0,3,0,,,,,,,,,,,,,,,,,,,,,,,,,,,,,,,,,,,,,,,,,,,,,,,,,,,,,,,,,,,134,001,2010-10-16_15h09.30.592,eb_01,2022.2.4,120.02644782655808,
3,stimuli/3.png,l,0,0,0,0,4,0,4,0,0,0,0,0,,,,,,,,,,,,,,,,,,375.57752127284766,375.57752127284766,375.57752127284766,375.57752127284766,l,1,0.437887938314816,376.03586635316606,376.03586635316606,376.03586635316606,,,,,,,,,,,,,,,,,,,,,,,,,,,,134,001,2010-10-16_15h09.30.592,eb_01,2022.2.4,120.02644782655808,
,,,0,0,0,0,4,0,4,0,,,,,,,,,,,,,,,,,,,,,,,,,,,,,,,,,,,,,,,,,,,,,,,,,,,,,,,,,,,134,001,2010-10-16_15h09.30.592,eb_01,2022.2.4,120.02644782655808,
2,stimuli/2.png,s,0,0,0,0,5,0,5,0,0,0,0,0,,,,,,,,,,,,,,,,,,377.04428885784,377.04428885784,377.04428885784,377.04428885784,l,0,0.6111489082977641,377.67767249941244,377.67767249941244,377.67767249941244,,,,,,,,,,,,,,,,,,,,,,,,,,,,134,001,2010-10-16_15h09.30.592,eb_01,2022.2.4,120.02644782655808,
,,,0,0,0,0,5,0,5,0,,,,,,,,,,,,,,,,,,,,,,,,,,,,,,,,,,,,,,,,,,,,,,,,,,,,,,,,,,,134,001,2010-10-16_15h09.30.592,eb_01,2022.2.4,120.02644782655808,
4,stimuli/4.png,l,0,0,0,0,6,0,6,0,0,0,0,0,,,,,,,,,,,,,,,,,,378.69441427628044,378.69441427628044,378.69441427628044,378.69441427628044,l,1,1.1690880011301488,379.88620729208924,379.88620729208924,379.88620729208924,,,,,,,,,,,,,,,,,,,,,,,,,,,,134,001,2010-10-16_15h09.30.592,eb_01,2022.2.4,120.02644782655808,
,,,0,0,0,0,6,0,6,0,,,,,,,,,,,,,,,,,,,,,,,,,,,,,,,,,,,,,,,,,,,,,,,,,,,,,,,,,,,134,001,2010-10-16_15h09.30.592,eb_01,2022.2.4,120.02644782655808,
3,stimuli/3.png,l,0,0,0,0,7,0,7,0,0,0,0,0,,,,,,,,,,,,,,,,,,380.8946198357444,380.8946198357444,380.8946198357444,380.8946198357444,l,1,0.5119150021346286,381.4196407388081,381.4196407388081,381.4196407388081,382.42809101365856,382.42809101365856,382.42809101365856,,,,,,,,,,,,,,,,,,,,,,,,,134,001,2010-10-16_15h09.30.592,eb_01,2022.2.4,120.02644782655808,
,,,0,0,0,0,7,0,7,0,,,,,,,,,,,,,,,,,,,,,,,,,,,,,,,,,,,,,,,,,,,,,,,,,,,,,,,,,,,134,001,2010-10-16_15h09.30.592,eb_01,2022.2.4,120.02644782655808,
2,stimuli/2.png,s,0,0,0,0,8,0,8,0,0,0,0,0,,,,,,,,,,,,,,,,,,382.42809101365856,382.42809101365856,382.42809101365856,382.42809101365856,s,1,0.7704535679367837,383.21144431934226,383.21144431934226,383.21144431934226,384.21986169260344,384.21986169260344,384.21986169260344,,,,,,,,,,,,,,,,,,,,,,,,,134,001,2010-10-16_15h09.30.592,eb_01,2022.2.4,120.02644782655808,
,,,0,0,0,0,8,0,8,0,,,,,,,,,,,,,,,,,,,,,,,,,,,,,,,,,,,,,,,,,,,,,,,,,,,,,,,,,,,134,001,2010-10-16_15h09.30.592,eb_01,2022.2.4,120.02644782655808,
3,stimuli/3.png,l,0,0,0,0,9,0,9,0,0,0,0,0,,,,,,,,,,,,,,,,,,384.21986169260344,384.21986169260344,384.21986169260344,384.21986169260344,l,1,0.4987003359128721,384.728237108764,384.728237108764,384.728237108764,385.74500786318094,385.74500786318094,385.74500786318094,,,,,,,,,,,,,,,,,,,,,,,,,134,001,2010-10-16_15h09.30.592,eb_01,2022.2.4,120.02644782655808,
,,,0,0,0,0,9,0,9,0,,,,,,,,,,,,,,,,,,,,,,,,,,,,,,,,,,,,,,,,,,,,,,,,,,,,,,,,,,,134,001,2010-10-16_15h09.30.592,eb_01,2022.2.4,120.02644782655808,
4,stimuli/4.png,l,0,0,0,0,10,0,10,0,0,0,0,0,,,,,,,,,,,,,,,,,,385.74500786318094,385.74500786318094,385.74500786318094,385.74500786318094,l,1,0.5176172397623304,386.2867225490627,386.2867225490627,386.2867225490627,,,,,,,,,,,,,,,,,,,,,,,,,,,,134,001,2010-10-16_15h09.30.592,eb_01,2022.2.4,120.02644782655808,
,,,0,0,0,0,10,0,10,0,,,,,,,,,,,,,,,,,,,,,,,,,,,,,,,,,,,,,,,,,,,,,,,,,,,,,,,,,,,134,001,2010-10-16_15h09.30.592,eb_01,2022.2.4,120.02644782655808,
1,stimuli/1.png,s,0,0,0,0,11,0,11,0,0,0,0,0,,,,,,,,,,,,,,,,,,387.31183189401054,387.31183189401054,387.31183189401054,387.31183189401054,s,1,1.1508230920298956,388.49525915284175,388.49525915284175,388.49525915284175,,,,,,,,,,,,,,,,,,,,,,,,,,,,134,001,2010-10-16_15h09.30.592,eb_01,2022.2.4,120.02644782655808,
,,,0,0,0,0,11,0,11,0,,,,,,,,,,,,,,,,,,,,,,,,,,,,,,,,,,,,,,,,,,,,,,,,,,,,,,,,,,,134,001,2010-10-16_15h09.30.592,eb_01,2022.2.4,120.02644782655808,
4,stimuli/4.png,l,0,0,0,0,12,0,12,0,0,0,0,0,,,,,,,,,,,,,,,,,,389.50370067404583,389.50370067404583,389.50370067404583,389.50370067404583,l,1,0.48700185935012996,390.0120552626031,390.0120552626031,390.0120552626031,,,,,,,,,,,,,,,,,,,,,,,,,,,,134,001,2010-10-16_15h09.30.592,eb_01,2022.2.4,120.02644782655808,
,,,0,0,0,0,12,0,12,0,,,,,,,,,,,,,,,,,,,,,,,,,,,,,,,,,,,,,,,,,,,,,,,,,,,,,,,,,,,134,001,2010-10-16_15h09.30.592,eb_01,2022.2.4,120.02644782655808,
3,stimuli/3.png,l,0,0,0,0,13,0,13,0,0,0,0,0,,,,,,,,,,,,,,,,,,391.02047354140086,391.02047354140086,391.02047354140086,391.02047354140086,l,1,0.4262474168499466,391.462154118286,391.462154118286,391.462154118286,392.47060560053797,392.47060560053797,392.47060560053797,,,,,,,,,,,,,,,,,,,,,,,,,134,001,2010-10-16_15h09.30.592,eb_01,2022.2.4,120.02644782655808,
,,,0,0,0,0,13,0,13,0,,,,,,,,,,,,,,,,,,,,,,,,,,,,,,,,,,,,,,,,,,,,,,,,,,,,,,,,,,,134,001,2010-10-16_15h09.30.592,eb_01,2022.2.4,120.02644782655808,
8,stimuli/8.png,l,0,0,0,0,14,0,14,0,0,0,0,0,,,,,,,,,,,,,,,,,,392.47060560053797,392.47060560053797,392.47060560053797,392.47060560053797,l,1,0.88814586866647,393.3790148238477,393.3790148238477,393.3790148238477,,,,,,,,,,,,,,,,,,,,,,,,,,,,134,001,2010-10-16_15h09.30.592,eb_01,2022.2.4,120.02644782655808,
,,,0,0,0,0,14,0,14,0,,,,,,,,,,,,,,,,,,,,,,,,,,,,,,,,,,,,,,,,,,,,,,,,,,,,,,,,,,,134,001,2010-10-16_15h09.30.592,eb_01,2022.2.4,120.02644782655808,
9,stimuli/9.png,l,0,0,0,0,15,0,15,0,0,0,0,0,,,,,,,,,,,,,,,,,,394.39578829490347,394.39578829490347,394.39578829490347,394.39578829490347,l,1,0.5950226024433505,395.02081221644767,395.02081221644767,395.02081221644767,,,,,,,,,,,,,,,,,,,,,,,,,,,,134,001,2010-10-16_15h09.30.592,eb_01,2022.2.4,120.02644782655808,
,,,0,0,0,0,15,0,15,0,,,,,,,,,,,,,,,,,,,,,,,,,,,,,,,,,,,,,,,,,,,,,,,,,,,,,,,,,,,134,001,2010-10-16_15h09.30.592,eb_01,2022.2.4,120.02644782655808,
5,stimuli/5.png,s,0,0,0,0,16,0,16,0,0,0,0,0,,,,,,,,,,,,,,,,,,396.02093537102337,396.02093537102337,396.02093537102337,396.02093537102337,s,1,0.7128821277292445,396.75426890558447,396.75426890558447,396.75426890558447,,,,,,,,,,,,,,,,,,,,,,,,,,,,134,001,2010-10-16_15h09.30.592,eb_01,2022.2.4,120.02644782655808,
,,,0,0,0,0,16,0,16,0,,,,,,,,,,,,,,,,,,,,,,,,,,,,,,,,,,,,,,,,,,,,,,,,,,,,,,,,,,,134,001,2010-10-16_15h09.30.592,eb_01,2022.2.4,120.02644782655808,
9,stimuli/9.png,l,0,0,0,0,17,0,17,0,0,0,0,0,,,,,,,,,,,,,,,,,,397.7710405655671,397.7710405655671,397.7710405655671,397.7710405655671,l,1,0.514846261969069,398.3127250664984,398.3127250664984,398.3127250664984,,,,,,,,,,,,,,,,,,,,,,,,,,,,134,001,2010-10-16_15h09.30.592,eb_01,2022.2.4,120.02644782655808,
,,,0,0,0,0,17,0,17,0,,,,,,,,,,,,,,,,,,,,,,,,,,,,,,,,,,,,,,,,,,,,,,,,,,,,,,,,,,,134,001,2010-10-16_15h09.30.592,eb_01,2022.2.4,120.02644782655808,
8,stimuli/8.png,l,0,0,0,0,18,0,18,0,0,0,0,0,,,,,,,,,,,,,,,,,,399.31283131748205,399.31283131748205,399.31283131748205,399.31283131748205,l,1,0.7890960907097906,400.12125382217346,400.12125382217346,400.12125382217346,,,,,,,,,,,,,,,,,,,,,,,,,,,,134,001,2010-10-16_15h09.30.592,eb_01,2022.2.4,120.02644782655808,
,,,0,0,0,0,18,0,18,0,,,,,,,,,,,,,,,,,,,,,,,,,,,,,,,,,,,,,,,,,,,,,,,,,,,,,,,,,,,134,001,2010-10-16_15h09.30.592,eb_01,2022.2.4,120.02644782655808,
9,stimuli/9.png,l,0,0,0,0,19,0,19,0,0,0,0,0,,,,,,,,,,,,,,,,,,401.1380091822648,401.1380091822648,401.1380091822648,401.1380091822648,l,1,0.5559095567732584,401.72138784333947,401.72138784333947,401.72138784333947,,,,,,,,,,,,,,,,,,,,,,,,,,,,134,001,2010-10-16_15h09.30.592,eb_01,2022.2.4,120.02644782655808,
,,,0,0,0,0,19,0,19,0,,,,,,,,,,,,,,,,,,,,,,,,,,,,,,,,,,,,,,,,,,,,,,,,,,,,,,,,,,,134,001,2010-10-16_15h09.30.592,eb_01,2022.2.4,120.02644782655808,
8,stimuli/8.png,l,0,0,0,0,20,0,20,0,0,0,0,0,,,,,,,,,,,,,,,,,,402.7214759833587,402.7214759833587,402.7214759833587,402.7214759833587,l,1,0.5244918605603743,403.26317648231634,403.26317648231634,403.26317648231634,,,,,,,,,,,,,,,,,,,,,,,,,,,,134,001,2010-10-16_15h09.30.592,eb_01,2022.2.4,120.02644782655808,
,,,0,0,0,0,20,0,20,0,,,,,,,,,,,,,,,,,,,,,,,,,,,,,,,,,,,,,,,,,,,,,,,,,,,,,,,,,,,134,001,2010-10-16_15h09.30.592,eb_01,2022.2.4,120.02644782655808,
9,stimuli/9.png,l,0,0,0,0,21,0,21,0,0,0,0,0,,,,,,,,,,,,,,,,,,404.2799608199566,404.2799608199566,404.2799608199566,404.2799608199566,l,1,0.5580330675584264,404.8633074849786,404.8633074849786,404.8633074849786,,,,,,,,,,,,,,,,,,,,,,,,,,,,134,001,2010-10-16_15h09.30.592,eb_01,2022.2.4,120.02644782655808,
,,,0,0,0,0,21,0,21,0,,,,,,,,,,,,,,,,,,,,,,,,,,,,,,,,,,,,,,,,,,,,,,,,,,,,,,,,,,,134,001,2010-10-16_15h09.30.592,eb_01,2022.2.4,120.02644782655808,
8,stimuli/8.png,l,0,0,0,0,22,0,22,0,0,0,0,0,,,,,,,,,,,,,,,,,,405.8634076989838,405.8634076989838,405.8634076989838,405.8634076989838,l,1,0.5906361264933366,406.47175987274386,406.47175987274386,406.47175987274386,,,,,,,,,,,,,,,,,,,,,,,,,,,,134,001,2010-10-16_15h09.30.592,eb_01,2022.2.4,120.02644782655808,
,,,0,0,0,0,22,0,22,0,,,,,,,,,,,,,,,,,,,,,,,,,,,,,,,,,,,,,,,,,,,,,,,,,,,,,,,,,,,134,001,2010-10-16_15h09.30.592,eb_01,2022.2.4,120.02644782655808,
9,stimuli/9.png,l,0,0,0,0,23,0,23,0,0,0,0,0,,,,,,,,,,,,,,,,,,407.48849832927226,407.48849832927226,407.48849832927226,407.48849832927226,l,1,0.853563884855248,408.37195456563495,408.37195456563495,408.37195456563495,,,,,,,,,,,,,,,,,,,,,,,,,,,,134,001,2010-10-16_15h09.30.592,eb_01,2022.2.4,120.02644782655808,
,,,0,0,0,0,23,0,23,0,,,,,,,,,,,,,,,,,,,,,,,,,,,,,,,,,,,,,,,,,,,,,,,,,,,,,,,,,,,134,001,2010-10-16_15h09.30.592,eb_01,2022.2.4,120.02644782655808,
6,stimuli/6.png,s,0,0,0,0,24,0,24,0,0,0,0,0,,,,,,,,,,,,,,,,,,409.38870509612025,409.38870509612025,409.38870509612025,409.38870509612025,s,1,0.5773939919308759,409.99707417347236,409.99707417347236,409.99707417347236,,,,,,,,,,,,,,,,,,,,,,,,,,,,134,001,2010-10-16_15h09.30.592,eb_01,2022.2.4,120.02644782655808,
,,,0,0,0,0,24,0,24,0,,,,,,,,,,,,,,,,,,,,,,,,,,,,,,,,,,,,,,,,,,,,,,,,,,,,,,,,,,,134,001,2010-10-16_15h09.30.592,eb_01,2022.2.4,120.02644782655808,
5,stimuli/5.png,s,0,0,0,0,25,0,25,0,0,0,0,0,,,,,,,,,,,,,,,,,,410.9971722745395,410.9971722745395,410.9971722745395,410.9971722745395,s,1,0.4800083098525647,411.49719612064655,411.49719612064655,411.49719612064655,,,,,,,,,,,,,,,,,,,,,,,,,,,,134,001,2010-10-16_15h09.30.592,eb_01,2022.2.4,120.02644782655808,
,,,0,0,0,0,25,0,25,0,,,,,,,,,,,,,,,,,,,,,,,,,,,,,,,,,,,,,,,,,,,,,,,,,,,,,,,,,,,134,001,2010-10-16_15h09.30.592,eb_01,2022.2.4,120.02644782655808,
9,stimuli/9.png,l,0,0,0,0,26,0,26,0,0,0,0,0,,,,,,,,,,,,,,,,,,412.5139563103148,412.5139563103148,412.5139563103148,412.5139563103148,l,1,0.48320942308055237,413.0223317265045,413.0223317265045,413.0223317265045,,,,,,,,,,,,,,,,,,,,,,,,,,,,134,001,2010-10-16_15h09.30.592,eb_01,2022.2.4,120.02644782655808,
,,,0,0,0,0,26,0,26,0,,,,,,,,,,,,,,,,,,,,,,,,,,,,,,,,,,,,,,,,,,,,,,,,,,,,,,,,,,,134,001,2010-10-16_15h09.30.592,eb_01,2022.2.4,120.02644782655808,
6,stimuli/6.png,s,0,0,0,0,27,0,27,0,0,0,0,0,,,,,,,,,,,,,,,,,,414.0390659571276,414.0390659571276,414.0390659571276,414.0390659571276,s,1,0.4861177423445042,414.5558089413971,414.5558089413971,414.5558089413971,,,,,,,,,,,,,,,,,,,,,,,,,,,,134,001,2010-10-16_15h09.30.592,eb_01,2022.2.4,120.02644782655808,
,,,0,0,0,0,27,0,27,0,,,,,,,,,,,,,,,,,,,,,,,,,,,,,,,,,,,,,,,,,,,,,,,,,,,,,,,,,,,134,001,2010-10-16_15h09.30.592,eb_01,2022.2.4,120.02644782655808,
5,stimuli/5.png,s,0,0,0,0,28,0,28,0,0,0,0,0,,,,,,,,,,,,,,,,,,415.55586417982704,415.55586417982704,415.55586417982704,415.55586417982704,s,1,0.6973866871849168,416.2726083715097,416.2726083715097,416.2726083715097,,,,,,,,,,,,,,,,,,,,,,,,,,,,134,001,2010-10-16_15h09.30.592,eb_01,2022.2.4,120.02644782655808,
,,,0,0,0,0,28,0,28,0,,,,,,,,,,,,,,,,,,,,,,,,,,,,,,,,,,,,,,,,,,,,,,,,,,,,,,,,,,,134,001,2010-10-16_15h09.30.592,eb_01,2022.2.4,120.02644782655808,
6,stimuli/6.png,s,0,0,0,0,29,0,29,0,0,0,0,0,,,,,,,,,,,,,,,,,,417.29769568145275,417.29769568145275,417.29769568145275,417.29769568145275,s,1,0.46756939665647224,417.7977291867428,417.7977291867428,417.7977291867428,,,,,,,,,,,,,,,,,,,,,,,,,,,,134,001,2010-10-16_15h09.30.592,eb_01,2022.2.4,120.02644782655808,
,,,0,0,0,0,29,0,29,0,,,,,,,,,,,,,,,,,,,,,,,,,,,,,,,,,,,,,,,,,,,,,,,,,,,,,,,,,,,134,001,2010-10-16_15h09.30.592,eb_01,2022.2.4,120.02644782655808,
8,stimuli/8.png,l,0,0,0,0,30,0,30,0,0,0,0,0,,,,,,,,,,,,,,,,,,418.79784539877437,418.79784539877437,418.79784539877437,418.79784539877437,l,1,0.4874386354640592,419.3061984780943,419.3061984780943,419.3061984780943,,,,,,,,,,,,,,,,,,,,,,,,,,,,134,001,2010-10-16_15h09.30.592,eb_01,2022.2.4,120.02644782655808,
,,,0,0,0,0,30,0,30,0,,,,,,,,,,,,,,,,,,,,,,,,,,,,,,,,,,,,,,,,,,,,,,,,,,,,,,,,,,,134,001,2010-10-16_15h09.30.592,eb_01,2022.2.4,120.02644782655808,
6,stimuli/6.png,s,0,0,0,0,31,0,31,0,0,0,0,0,,,,,,,,,,,,,,,,,,420.33127793995664,420.33127793995664,420.33127793995664,420.33127793995664,s,1,0.482033719541505,420.8396765985235,420.8396765985235,420.8396765985235,,,,,,,,,,,,,,,,,,,,,,,,,,,,134,001,2010-10-16_15h09.30.592,eb_01,2022.2.4,120.02644782655808,
,,,0,0,0,0,31,0,31,0,,,,,,,,,,,,,,,,,,,,,,,,,,,,,,,,,,,,,,,,,,,,,,,,,,,,,,,,,,,134,001,2010-10-16_15h09.30.592,eb_01,2022.2.4,120.02644782655808,
8,stimuli/8.png,l,0,0,0,0,32,0,32,0,0,0,0,0,,,,,,,,,,,,,,,,,,421.83976172006805,421.83976172006805,421.83976172006805,421.83976172006805,l,1,0.4135736647876911,422.2730831806548,422.2730831806548,422.2730831806548,,,,,,,,,,,,,,,,,,,,,,,,,,,,134,001,2010-10-16_15h09.30.592,eb_01,2022.2.4,120.02644782655808,
,,,0,0,0,0,32,0,32,0,,,,,,,,,,,,,,,,,,,,,,,,,,,,,,,,,,,,,,,,,,,,,,,,,,,,,,,,,,,134,001,2010-10-16_15h09.30.592,eb_01,2022.2.4,120.02644782655808,
3,stimuli/3.png,l,0,0,0,0,33,0,33,0,0,0,0,0,,,,,,,,,,,,,,,,,,423.2815307388373,423.2815307388373,423.2815307388373,423.2815307388373,l,1,0.45185300227603875,423.7482086745731,423.7482086745731,423.7482086745731,424.7566770603589,424.7566770603589,424.7566770603589,,,,,,,,,,,,,,,,,,,,,,,,,134,001,2010-10-16_15h09.30.592,eb_01,2022.2.4,120.02644782655808,
,,,0,0,0,0,33,0,33,0,,,,,,,,,,,,,,,,,,,,,,,,,,,,,,,,,,,,,,,,,,,,,,,,,,,,,,,,,,,134,001,2010-10-16_15h09.30.592,eb_01,2022.2.4,120.02644782655808,
2,stimuli/2.png,s,0,0,0,0,34,0,34,0,0,0,0,0,,,,,,,,,,,,,,,,,,424.7566770603589,424.7566770603589,424.7566770603589,424.7566770603589,s,1,0.576711208501365,425.34835748633486,425.34835748633486,425.34835748633486,426.35682436288334,426.35682436288334,426.35682436288334,,,,,,,,,,,,,,,,,,,,,,,,,134,001,2010-10-16_15h09.30.592,eb_01,2022.2.4,120.02644782655808,
,,,0,0,0,0,34,0,34,0,,,,,,,,,,,,,,,,,,,,,,,,,,,,,,,,,,,,,,,,,,,,,,,,,,,,,,,,,,,134,001,2010-10-16_15h09.30.592,eb_01,2022.2.4,120.02644782655808,
3,stimuli/3.png,l,0,0,0,0,35,0,35,0,0,0,0,0,,,,,,,,,,,,,,,,,,426.35682436288334,426.35682436288334,426.35682436288334,426.35682436288334,l,1,0.41566759429406375,426.7818392289628,426.7818392289628,426.7818392289628,427.79859609829145,427.79859609829145,427.79859609829145,,,,,,,,,,,,,,,,,,,,,,,,,134,001,2010-10-16_15h09.30.592,eb_01,2022.2.4,120.02644782655808,
,,,0,0,0,0,35,0,35,0,,,,,,,,,,,,,,,,,,,,,,,,,,,,,,,,,,,,,,,,,,,,,,,,,,,,,,,,,,,134,001,2010-10-16_15h09.30.592,eb_01,2022.2.4,120.02644782655808,
4,stimuli/4.png,l,0,0,0,0,36,0,36,0,0,0,0,0,,,,,,,,,,,,,,,,,,427.79859609829145,427.79859609829145,427.79859609829145,427.79859609829145,l,1,1.061857801687438,428.88201792383916,428.88201792383916,428.88201792383916,,,,,,,,,,,,,,,,,,,,,,,,,,,,134,001,2010-10-16_15h09.30.592,eb_01,2022.2.4,120.02644782655808,
,,,0,0,0,0,36,0,36,0,,,,,,,,,,,,,,,,,,,,,,,,,,,,,,,,,,,,,,,,,,,,,,,,,,,,,,,,,,,134,001,2010-10-16_15h09.30.592,eb_01,2022.2.4,120.02644782655808,
1,stimuli/1.png,s,0,0,0,0,37,0,37,0,0,0,0,0,,,,,,,,,,,,,,,,,,429.90711760960403,429.90711760960403,429.90711760960403,429.90711760960403,s,1,0.5453810486360453,430.48216401896207,430.48216401896207,430.48216401896207,,,,,,,,,,,,,,,,,,,,,,,,,,,,134,001,2010-10-16_15h09.30.592,eb_01,2022.2.4,120.02644782655808,
,,,0,0,0,0,37,0,37,0,,,,,,,,,,,,,,,,,,,,,,,,,,,,,,,,,,,,,,,,,,,,,,,,,,,,,,,,,,,134,001,2010-10-16_15h09.30.592,eb_01,2022.2.4,120.02644782655808,
2,stimuli/2.png,s,0,0,0,0,38,0,38,0,0,0,0,0,,,,,,,,,,,,,,,,,,431.4821984297887,431.4821984297887,431.4821984297887,431.4821984297887,s,1,0.6183585819671862,432.11562493396923,432.11562493396923,432.11562493396923,433.12405589045375,433.12405589045375,433.12405589045375,,,,,,,,,,,,,,,,,,,,,,,,,134,001,2010-10-16_15h09.30.592,eb_01,2022.2.4,120.02644782655808,
,,,0,0,0,0,38,0,38,0,,,,,,,,,,,,,,,,,,,,,,,,,,,,,,,,,,,,,,,,,,,,,,,,,,,,,,,,,,,134,001,2010-10-16_15h09.30.592,eb_01,2022.2.4,120.02644782655808,
3,stimuli/3.png,l,0,0,0,0,39,0,39,0,0,0,0,0,,,,,,,,,,,,,,,,,,433.12405589045375,433.12405589045375,433.12405589045375,433.12405589045375,l,1,0.480552544380771,433.6157269590767,433.6157269590767,433.6157269590767,434.62416908398154,434.62416908398154,434.62416908398154,,,,,,,,,,,,,,,,,,,,,,,,,134,001,2010-10-16_15h09.30.592,eb_01,2022.2.4,120.02644782655808,
,,,0,0,0,0,39,0,39,0,,,,,,,,,,,,,,,,,,,,,,,,,,,,,,,,,,,,,,,,,,,,,,,,,,,,,,,,,,,134,001,2010-10-16_15h09.30.592,eb_01,2022.2.4,120.02644782655808,
2,stimuli/2.png,s,0,0,0,0,40,0,40,0,0,0,0,0,,,,,,,,,,,,,,,,,,434.62416908398154,434.62416908398154,434.62416908398154,434.62416908398154,s,1,0.5404304160911124,435.1742286992376,435.1742286992376,435.1742286992376,436.1909390837827,436.1909390837827,436.1909390837827,,,,,,,,,,,,,,,,,,,,,,,,,134,001,2010-10-16_15h09.30.592,eb_01,2022.2.4,120.02644782655808,
,,,0,0,0,0,40,0,40,0,,,,,,,,,,,,,,,,,,,,,,,,,,,,,,,,,,,,,,,,,,,,,,,,,,,,,,,,,,,134,001,2010-10-16_15h09.30.592,eb_01,2022.2.4,120.02644782655808,
4,stimuli/4.png,l,0,0,0,0,41,0,41,0,0,0,0,0,,,,,,,,,,,,,,,,,,436.1909390837827,436.1909390837827,436.1909390837827,436.1909390837827,l,1,0.4937053314934019,436.7076814643515,436.7076814643515,436.7076814643515,,,,,,,,,,,,,,,,,,,,,,,,,,,,134,001,2010-10-16_15h09.30.592,eb_01,2022.2.4,120.02644782655808,
,,,0,0,0,0,41,0,41,0,,,,,,,,,,,,,,,,,,,,,,,,,,,,,,,,,,,,,,,,,,,,,,,,,,,,,,,,,,,134,001,2010-10-16_15h09.30.592,eb_01,2022.2.4,120.02644782655808,
2,stimuli/2.png,s,0,0,0,0,42,0,42,0,0,0,0,0,,,,,,,,,,,,,,,,,,437.71607891551685,437.71607891551685,437.71607891551685,437.71607891551685,s,1,0.4566083382233046,438.1828244655044,438.1828244655044,438.1828244655044,439.1995737886173,439.1995737886173,439.1995737886173,,,,,,,,,,,,,,,,,,,,,,,,,134,001,2010-10-16_15h09.30.592,eb_01,2022.2.4,120.02644782655808,
,,,0,0,0,0,42,0,42,0,,,,,,,,,,,,,,,,,,,,,,,,,,,,,,,,,,,,,,,,,,,,,,,,,,,,,,,,,,,134,001,2010-10-16_15h09.30.592,eb_01,2022.2.4,120.02644782655808,
4,stimuli/4.png,l,0,0,0,0,43,0,43,0,0,0,0,0,,,,,,,,,,,,,,,,,,439.1995737886173,439.1995737886173,439.1995737886173,439.1995737886173,l,1,0.845124778454192,440.06629911469645,440.06629911469645,440.06629911469645,,,,,,,,,,,,,,,,,,,,,,,,,,,,134,001,2010-10-16_15h09.30.592,eb_01,2022.2.4,120.02644782655808,
,,,0,0,0,0,43,0,43,0,,,,,,,,,,,,,,,,,,,,,,,,,,,,,,,,,,,,,,,,,,,,,,,,,,,,,,,,,,,134,001,2010-10-16_15h09.30.592,eb_01,2022.2.4,120.02644782655808,
1,stimuli/1.png,s,0,0,0,0,44,0,44,0,0,0,0,0,,,,,,,,,,,,,,,,,,441.0913523156487,441.0913523156487,441.0913523156487,441.0913523156487,s,1,0.5053721138683613,441.6247356553795,441.6247356553795,441.6247356553795,,,,,,,,,,,,,,,,,,,,,,,,,,,,134,001,2010-10-16_15h09.30.592,eb_01,2022.2.4,120.02644782655808,
,,,0,0,0,0,44,0,44,0,,,,,,,,,,,,,,,,,,,,,,,,,,,,,,,,,,,,,,,,,,,,,,,,,,,,,,,,,,,134,001,2010-10-16_15h09.30.592,eb_01,2022.2.4,120.02644782655808,
4,stimuli/4.png,l,0,0,0,0,45,0,45,0,0,0,0,0,,,,,,,,,,,,,,,,,,442.633183213562,442.633183213562,442.633183213562,442.633183213562,l,1,0.49060413043480366,443.1665499515657,443.1665499515657,443.1665499515657,,,,,,,,,,,,,,,,,,,,,,,,,,,,134,001,2010-10-16_15h09.30.592,eb_01,2022.2.4,120.02644782655808,
,,,0,0,0,0,45,0,45,0,,,,,,,,,,,,,,,,,,,,,,,,,,,,,,,,,,,,,,,,,,,,,,,,,,,,,,,,,,,134,001,2010-10-16_15h09.30.592,eb_01,2022.2.4,120.02644782655808,
3,stimuli/3.png,l,0,0,0,0,46,0,46,0,0,0,0,0,,,,,,,,,,,,,,,,,,444.1749754747434,444.1749754747434,444.1749754747434,444.1749754747434,l,1,0.5088291954307351,444.6999894352921,444.6999894352921,444.6999894352921,445.71680667449255,445.71680667449255,445.71680667449255,,,,,,,,,,,,,,,,,,,,,,,,,134,001,2010-10-16_15h09.30.592,eb_01,2022.2.4,120.02644782655808,
,,,0,0,0,0,46,0,46,0,,,,,,,,,,,,,,,,,,,,,,,,,,,,,,,,,,,,,,,,,,,,,,,,,,,,,,,,,,,134,001,2010-10-16_15h09.30.592,eb_01,2022.2.4,120.02644782655808,
8,stimuli/8.png,l,0,0,0,0,47,0,47,0,0,0,0,0,,,,,,,,,,,,,,,,,,445.71680667449255,445.71680667449255,445.71680667449255,445.71680667449255,l,1,0.5190096712030936,446.2584905717522,446.2584905717522,446.2584905717522,,,,,,,,,,,,,,,,,,,,,,,,,,,,134,001,2010-10-16_15h09.30.592,eb_01,2022.2.4,120.02644782655808,
,,,0,0,0,0,47,0,47,0,,,,,,,,,,,,,,,,,,,,,,,,,,,,,,,,,,,,,,,,,,,,,,,,,,,,,,,,,,,134,001,2010-10-16_15h09.30.592,eb_01,2022.2.4,120.02644782655808,
6,stimuli/6.png,s,0,0,0,0,48,0,48,0,0,0,0,0,,,,,,,,,,,,,,,,,,447.2835938797216,447.2835938797216,447.2835938797216,447.2835938797216,s,1,0.33631017137668096,447.65026638214476,447.65026638214476,447.65026638214476,,,,,,,,,,,,,,,,,,,,,,,,,,,,134,001,2010-10-16_15h09.30.592,eb_01,2022.2.4,120.02644782655808,
,,,0,0,0,0,48,0,48,0,,,,,,,,,,,,,,,,,,,,,,,,,,,,,,,,,,,,,,,,,,,,,,,,,,,,,,,,,,,134,001,2010-10-16_15h09.30.592,eb_01,2022.2.4,120.02644782655808,
8,stimuli/8.png,l,0,0,0,0,49,0,49,0,0,0,0,0,,,,,,,,,,,,,,,,,,448.65037414239487,448.65037414239487,448.65037414239487,448.65037414239487,l,1,0.40152051515178755,449.07540832684026,449.07540832684026,449.07540832684026,,,,,,,,,,,,,,,,,,,,,,,,,,,,134,001,2010-10-16_15h09.30.592,eb_01,2022.2.4,120.02644782655808,
,,,0,0,0,0,49,0,49,0,,,,,,,,,,,,,,,,,,,,,,,,,,,,,,,,,,,,,,,,,,,,,,,,,,,,,,,,,,,134,001,2010-10-16_15h09.30.592,eb_01,2022.2.4,120.02644782655808,
6,stimuli/6.png,s,0,0,0,0,50,0,50,0,0,0,0,0,,,,,,,,,,,,,,,,,,450.10046665923437,450.10046665923437,450.10046665923437,450.10046665923437,s,1,0.5274508905422408,450.6588832778507,450.6588832778507,450.6588832778507,,,,,,,,,,,,,,,,,,,,,,,,,,,,134,001,2010-10-16_15h09.30.592,eb_01,2022.2.4,120.02644782655808,
,,,0,0,0,0,50,0,50,0,,,,,,,,,,,,,,,,,,,,,,,,,,,,,,,,,,,,,,,,,,,,,,,,,,,,,,,,,,,134,001,2010-10-16_15h09.30.592,eb_01,2022.2.4,120.02644782655808,
9,stimuli/9.png,l,0,0,0,0,51,0,51,0,0,0,0,0,,,,,,,,,,,,,,,,,,451.66730155664845,451.66730155664845,451.66730155664845,451.66730155664845,l,1,0.4246506333583966,452.1173207240936,452.1173207240936,452.1173207240936,,,,,,,,,,,,,,,,,,,,,,,,,,,,134,001,2010-10-16_15h09.30.592,eb_01,2022.2.4,120.02644782655808,
,,,0,0,0,0,51,0,51,0,,,,,,,,,,,,,,,,,,,,,,,,,,,,,,,,,,,,,,,,,,,,,,,,,,,,,,,,,,,134,001,2010-10-16_15h09.30.592,eb_01,2022.2.4,120.02644782655808,
8,stimuli/8.png,l,0,0,0,0,52,0,52,0,0,0,0,0,,,,,,,,,,,,,,,,,,453.11741942886147,453.11741942886147,453.11741942886147,453.11741942886147,l,1,0.5425518139090855,453.6841018923151,453.6841018923151,453.6841018923151,,,,,,,,,,,,,,,,,,,,,,,,,,,,134,001,2010-10-16_15h09.30.592,eb_01,2022.2.4,120.02644782655808,
,,,0,0,0,0,52,0,52,0,,,,,,,,,,,,,,,,,,,,,,,,,,,,,,,,,,,,,,,,,,,,,,,,,,,,,,,,,,,134,001,2010-10-16_15h09.30.592,eb_01,2022.2.4,120.02644782655808,
9,stimuli/9.png,l,0,0,0,0,53,0,53,0,0,0,0,0,,,,,,,,,,,,,,,,,,454.7008735522686,454.7008735522686,454.7008735522686,454.7008735522686,l,1,0.4071246516832616,455.1342427050695,455.1342427050695,455.1342427050695,,,,,,,,,,,,,,,,,,,,,,,,,,,,134,001,2010-10-16_15h09.30.592,eb_01,2022.2.4,120.02644782655808,
,,,0,0,0,0,53,0,53,0,,,,,,,,,,,,,,,,,,,,,,,,,,,,,,,,,,,,,,,,,,,,,,,,,,,,,,,,,,,134,001,2010-10-16_15h09.30.592,eb_01,2022.2.4,120.02644782655808,
8,stimuli/8.png,l,0,0,0,0,54,0,54,0,0,0,0,0,,,,,,,,,,,,,,,,,,456.13434352277545,456.13434352277545,456.13434352277545,456.13434352277545,l,1,0.41368504721322097,456.567699092353,456.567699092353,456.567699092353,,,,,,,,,,,,,,,,,,,,,,,,,,,,134,001,2010-10-16_15h09.30.592,eb_01,2022.2.4,120.02644782655808,
,,,0,0,0,0,54,0,54,0,,,,,,,,,,,,,,,,,,,,,,,,,,,,,,,,,,,,,,,,,,,,,,,,,,,,,,,,,,,134,001,2010-10-16_15h09.30.592,eb_01,2022.2.4,120.02644782655808,
6,stimuli/6.png,s,0,0,0,0,55,0,55,0,0,0,0,0,,,,,,,,,,,,,,,,,,457.5927691968682,457.5927691968682,457.5927691968682,457.5927691968682,s,1,0.49834264430683106,458.1178323588683,458.1178323588683,458.1178323588683,,,,,,,,,,,,,,,,,,,,,,,,,,,,134,001,2010-10-16_15h09.30.592,eb_01,2022.2.4,120.02644782655808,
,,,0,0,0,0,55,0,55,0,,,,,,,,,,,,,,,,,,,,,,,,,,,,,,,,,,,,,,,,,,,,,,,,,,,,,,,,,,,134,001,2010-10-16_15h09.30.592,eb_01,2022.2.4,120.02644782655808,
8,stimuli/8.png,l,0,0,0,0,56,0,56,0,0,0,0,0,,,,,,,,,,,,,,,,,,459.1178872954624,459.1178872954624,459.1178872954624,459.1178872954624,l,1,0.47720171383116394,459.61796004118514,459.61796004118514,459.61796004118514,,,,,,,,,,,,,,,,,,,,,,,,,,,,134,001,2010-10-16_15h09.30.592,eb_01,2022.2.4,120.02644782655808,
,,,0,0,0,0,56,0,56,0,,,,,,,,,,,,,,,,,,,,,,,,,,,,,,,,,,,,,,,,,,,,,,,,,,,,,,,,,,,134,001,2010-10-16_15h09.30.592,eb_01,2022.2.4,120.02644782655808,
9,stimuli/9.png,l,0,0,0,0,57,0,57,0,0,0,0,0,,,,,,,,,,,,,,,,,,460.6347114772361,460.6347114772361,460.6347114772361,460.6347114772361,l,1,0.4804155047459062,461.14311285247095,461.14311285247095,461.14311285247095,,,,,,,,,,,,,,,,,,,,,,,,,,,,134,001,2010-10-16_15h09.30.592,eb_01,2022.2.4,120.02644782655808,
,,,0,0,0,0,57,0,57,0,,,,,,,,,,,,,,,,,,,,,,,,,,,,,,,,,,,,,,,,,,,,,,,,,,,,,,,,,,,134,001,2010-10-16_15h09.30.592,eb_01,2022.2.4,120.02644782655808,
6,stimuli/6.png,s,0,0,0,0,58,0,58,0,0,0,0,0,,,,,,,,,,,,,,,,,,462.15982142588473,462.15982142588473,462.15982142588473,462.15982142588473,s,1,0.6273310563119594,462.81821932984167,462.81821932984167,462.81821932984167,,,,,,,,,,,,,,,,,,,,,,,,,,,,134,001,2010-10-16_15h09.30.592,eb_01,2022.2.4,120.02644782655808,
,,,0,0,0,0,58,0,58,0,,,,,,,,,,,,,,,,,,,,,,,,,,,,,,,,,,,,,,,,,,,,,,,,,,,,,,,,,,,134,001,2010-10-16_15h09.30.592,eb_01,2022.2.4,120.02644782655808,
9,stimuli/9.png,l,0,0,0,0,59,0,59,0,0,0,0,0,,,,,,,,,,,,,,,,,,463.8266644732503,463.8266644732503,463.8266644732503,463.8266644732503,l,1,0.3765270803414751,464.2350190618017,464.2350190618017,464.2350190618017,,,,,,,,,,,,,,,,,,,,,,,,,,,,134,001,2010-10-16_15h09.30.592,eb_01,2022.2.4,120.02644782655808,
,,,0,0,0,0,59,0,59,0,,,,,,,,,,,,,,,,,,,,,,,,,,,,,,,,,,,,,,,,,,,,,,,,,,,,,,,,,,,134,001,2010-10-16_15h09.30.592,eb_01,2022.2.4,120.02644782655808,
5,stimuli/5.png,s,0,0,0,0,60,0,60,0,0,0,0,0,,,,,,,,,,,,,,,,,,465.23507218729355,465.23507218729355,465.23507218729355,465.23507218729355,s,1,0.5121353522408754,465.768451602984,465.768451602984,465.768451602984,,,,,,,,,,,,,,,,,,,,,,,,,,,,134,001,2010-10-16_15h09.30.592,eb_01,2022.2.4,120.02644782655808,
,,,0,0,0,0,60,0,60,0,,,,,,,,,,,,,,,,,,,,,,,,,,,,,,,,,,,,,,,,,,,,,,,,,,,,,,,,,,,134,001,2010-10-16_15h09.30.592,eb_01,2022.2.4,120.02644782655808,
9,stimuli/9.png,l,0,0,0,0,61,0,61,0,0,0,0,0,,,,,,,,,,,,,,,,,,466.7852311110182,466.7852311110182,466.7852311110182,466.7852311110182,l,1,0.4500150410749484,467.2602476372849,467.2602476372849,467.2602476372849,,,,,,,,,,,,,,,,,,,,,,,,,,,,134,001,2010-10-16_15h09.30.592,eb_01,2022.2.4,120.02644782655808,
,,,0,0,0,0,61,0,61,0,,,,,,,,,,,,,,,,,,,,,,,,,,,,,,,,,,,,,,,,,,,,,,,,,,,,,,,,,,,134,001,2010-10-16_15h09.30.592,eb_01,2022.2.4,120.02644782655808,
6,stimuli/6.png,s,0,0,0,0,62,0,62,0,0,0,0,0,,,,,,,,,,,,,,,,,,468.2770422378089,468.2770422378089,468.2770422378089,468.2770422378089,s,1,0.5182094683405012,468.8270837421005,468.8270837421005,468.8270837421005,,,,,,,,,,,,,,,,,,,,,,,,,,,,134,001,2010-10-16_15h09.30.592,eb_01,2022.2.4,120.02644782655808,
,,,0,0,0,0,62,0,62,0,,,,,,,,,,,,,,,,,,,,,,,,,,,,,,,,,,,,,,,,,,,,,,,,,,,,,,,,,,,134,001,2010-10-16_15h09.30.592,eb_01,2022.2.4,120.02644782655808,
8,stimuli/8.png,l,0,0,0,0,63,0,63,0,0,0,0,0,,,,,,,,,,,,,,,,,,469.83546459156787,469.83546459156787,469.83546459156787,469.83546459156787,l,1,0.43985177073045634,470.2938320087269,470.2938320087269,470.2938320087269,,,,,,,,,,,,,,,,,,,,,,,,,,,,134,001,2010-10-16_15h09.30.592,eb_01,2022.2.4,120.02644782655808,
,,,0,0,0,0,63,0,63,0,,,,,,,,,,,,,,,,,,,,,,,,,,,,,,,,,,,,,,,,,,,,,,,,,,,,,,,,,,,134,001,2010-10-16_15h09.30.592,eb_01,2022.2.4,120.02644782655808,
6,stimuli/6.png,s,0,0,0,0,64,0,64,0,0,0,0,0,,,,,,,,,,,,,,,,,,471.3189362222329,471.3189362222329,471.3189362222329,471.3189362222329,s,1,0.508559945737943,471.8523560857575,471.8523560857575,471.8523560857575,,,,,,,,,,,,,,,,,,,,,,,,,,,,134,001,2010-10-16_15h09.30.592,eb_01,2022.2.4,120.02644782655808,
,,,0,0,0,0,64,0,64,0,,,,,,,,,,,,,,,,,,,,,,,,,,,,,,,,,,,,,,,,,,,,,,,,,,,,,,,,,,,134,001,2010-10-16_15h09.30.592,eb_01,2022.2.4,120.02644782655808,
8,stimuli/8.png,l,0,0,0,0,65,0,65,0,0,0,0,0,,,,,,,,,,,,,,,,,,472.8523923076864,472.8523923076864,472.8523923076864,472.8523923076864,l,1,0.567033915722277,473.44414004607825,473.44414004607825,473.44414004607825,,,,,,,,,,,,,,,,,,,,,,,,,,,,134,001,2010-10-16_15h09.30.592,eb_01,2022.2.4,120.02644782655808,
,,,0,0,0,0,65,0,65,0,,,,,,,,,,,,,,,,,,,,,,,,,,,,,,,,,,,,,,,,,,,,,,,,,,,,,,,,,,,134,001,2010-10-16_15h09.30.592,eb_01,2022.2.4,120.02644782655808,
3,stimuli/3.png,l,0,0,0,0,66,0,66,0,0,0,0,0,,,,,,,,,,,,,,,,,,474.4525196881441,474.4525196881441,474.4525196881441,474.4525196881441,l,1,0.49387527274666354,474.9608978209726,474.9608978209726,474.9608978209726,475.9693339088699,475.9693339088699,475.9693339088699,,,,,,,,,,,,,,,,,,,,,,,,,134,001,2010-10-16_15h09.30.592,eb_01,2022.2.4,120.02644782655808,
,,,0,0,0,0,66,0,66,0,,,,,,,,,,,,,,,,,,,,,,,,,,,,,,,,,,,,,,,,,,,,,,,,,,,,,,,,,,,134,001,2010-10-16_15h09.30.592,eb_01,2022.2.4,120.02644782655808,
2,stimuli/2.png,s,0,0,0,0,67,0,67,0,0,0,0,0,,,,,,,,,,,,,,,,,,475.9693339088699,475.9693339088699,475.9693339088699,475.9693339088699,s,1,0.5210773397993762,476.5027000431728,476.5027000431728,476.5027000431728,477.51113250889466,477.51113250889466,477.51113250889466,,,,,,,,,,,,,,,,,,,,,,,,,134,001,2010-10-16_15h09.30.592,eb_01,2022.2.4,120.02644782655808,
,,,0,0,0,0,67,0,67,0,,,,,,,,,,,,,,,,,,,,,,,,,,,,,,,,,,,,,,,,,,,,,,,,,,,,,,,,,,,134,001,2010-10-16_15h09.30.592,eb_01,2022.2.4,120.02644782655808,
3,stimuli/3.png,l,0,0,0,0,68,0,68,0,0,0,0,0,,,,,,,,,,,,,,,,,,477.51113250889466,477.51113250889466,477.51113250889466,477.51113250889466,l,1,0.6833518960047513,478.21117386227706,478.21117386227706,478.21117386227706,,,,,,,,,,,,,,,,,,,,,,,,,,,,134,001,2010-10-16_15h09.30.592,eb_01,2022.2.4,120.02644782655808,
,,,0,0,0,0,68,0,68,0,,,,,,,,,,,,,,,,,,,,,,,,,,,,,,,,,,,,,,,,,,,,,,,,,,,,,,,,,,,134,001,2010-10-16_15h09.30.592,eb_01,2022.2.4,120.02644782655808,
4,stimuli/4.png,l,0,0,0,0,69,0,69,0,0,0,0,0,,,,,,,,,,,,,,,,,,479.22793284454383,479.22793284454383,479.22793284454383,479.22793284454383,l,1,0.6625620164268184,479.91132478698273,479.91132478698273,479.91132478698273,,,,,,,,,,,,,,,,,,,,,,,,,,,,134,001,2010-10-16_15h09.30.592,eb_01,2022.2.4,120.02644782655808,
,,,0,0,0,0,69,0,69,0,,,,,,,,,,,,,,,,,,,,,,,,,,,,,,,,,,,,,,,,,,,,,,,,,,,,,,,,,,,134,001,2010-10-16_15h09.30.592,eb_01,2022.2.4,120.02644782655808,
3,stimuli/3.png,l,0,0,0,0,70,0,70,0,0,0,0,0,,,,,,,,,,,,,,,,,,480.9197961912723,480.9197961912723,480.9197961912723,480.9197961912723,l,1,0.4267376203206368,481.36980962357484,481.36980962357484,481.36980962357484,,,,,,,,,,,,,,,,,,,,,,,,,,,,134,001,2010-10-16_15h09.30.592,eb_01,2022.2.4,120.02644782655808,
,,,0,0,0,0,70,0,70,0,,,,,,,,,,,,,,,,,,,,,,,,,,,,,,,,,,,,,,,,,,,,,,,,,,,,,,,,,,,134,001,2010-10-16_15h09.30.592,eb_01,2022.2.4,120.02644782655808,
2,stimuli/2.png,s,0,0,0,0,71,0,71,0,0,0,0,0,,,,,,,,,,,,,,,,,,482.37824722073856,482.37824722073856,482.37824722073856,482.37824722073856,s,1,0.5123496653395705,482.9032587664842,482.9032587664842,482.9032587664842,483.9200446133618,483.9200446133618,483.9200446133618,,,,,,,,,,,,,,,,,,,,,,,,,134,001,2010-10-16_15h09.30.592,eb_01,2022.2.4,120.02644782655808,
,,,0,0,0,0,71,0,71,0,,,,,,,,,,,,,,,,,,,,,,,,,,,,,,,,,,,,,,,,,,,,,,,,,,,,,,,,,,,134,001,2010-10-16_15h09.30.592,eb_01,2022.2.4,120.02644782655808,
4,stimuli/4.png,l,0,0,0,0,72,0,72,0,0,0,0,0,,,,,,,,,,,,,,,,,,483.9200446133618,483.9200446133618,483.9200446133618,483.9200446133618,l,1,0.46655337142874487,484.40336894150823,484.40336894150823,484.40336894150823,,,,,,,,,,,,,,,,,,,,,,,,,,,,134,001,2010-10-16_15h09.30.592,eb_01,2022.2.4,120.02644782655808,
,,,0,0,0,0,72,0,72,0,,,,,,,,,,,,,,,,,,,,,,,,,,,,,,,,,,,,,,,,,,,,,,,,,,,,,,,,,,,134,001,2010-10-16_15h09.30.592,eb_01,2022.2.4,120.02644782655808,
2,stimuli/2.png,s,0,0,0,0,73,0,73,0,0,0,0,0,,,,,,,,,,,,,,,,,,485.4118192163587,485.4118192163587,485.4118192163587,485.4118192163587,s,1,0.6468199648661539,486.0702144036477,486.0702144036477,486.0702144036477,487.0953146931424,487.0953146931424,487.0953146931424,,,,,,,,,,,,,,,,,,,,,,,,,134,001,2010-10-16_15h09.30.592,eb_01,2022.2.4,120.02644782655808,
,,,0,0,0,0,73,0,73,0,,,,,,,,,,,,,,,,,,,,,,,,,,,,,,,,,,,,,,,,,,,,,,,,,,,,,,,,,,,134,001,2010-10-16_15h09.30.592,eb_01,2022.2.4,120.02644782655808,
1,stimuli/1.png,s,0,0,0,0,74,0,74,0,0,0,0,0,,,,,,,,,,,,,,,,,,487.0953146931424,487.0953146931424,487.0953146931424,487.0953146931424,s,1,0.45933373674051836,487.58699179877294,487.58699179877294,487.58699179877294,,,,,,,,,,,,,,,,,,,,,,,,,,,,134,001,2010-10-16_15h09.30.592,eb_01,2022.2.4,120.02644782655808,
,,,0,0,0,0,74,0,74,0,,,,,,,,,,,,,,,,,,,,,,,,,,,,,,,,,,,,,,,,,,,,,,,,,,,,,,,,,,,134,001,2010-10-16_15h09.30.592,eb_01,2022.2.4,120.02644782655808,
2,stimuli/2.png,s,0,0,0,0,75,0,75,0,0,0,0,0,,,,,,,,,,,,,,,,,,488.58707541105105,488.58707541105105,488.58707541105105,488.58707541105105,s,1,0.9026895779825281,489.50386246532435,489.50386246532435,489.50386246532435,490.5205960922758,490.5205960922758,490.5205960922758,,,,,,,,,,,,,,,,,,,,,,,,,134,001,2010-10-16_15h09.30.592,eb_01,2022.2.4,120.02644782655808,
,,,0,0,0,0,75,0,75,0,,,,,,,,,,,,,,,,,,,,,,,,,,,,,,,,,,,,,,,,,,,,,,,,,,,,,,,,,,,134,001,2010-10-16_15h09.30.592,eb_01,2022.2.4,120.02644782655808,
4,stimuli/4.png,l,0,0,0,0,76,0,76,0,0,0,0,0,,,,,,,,,,,,,,,,,,490.5205960922758,490.5205960922758,490.5205960922758,490.5205960922758,l,1,0.457129028509371,490.9955984315893,490.9955984315893,490.9955984315893,,,,,,,,,,,,,,,,,,,,,,,,,,,,134,001,2010-10-16_15h09.30.592,eb_01,2022.2.4,120.02644782655808,
,,,0,0,0,0,76,0,76,0,,,,,,,,,,,,,,,,,,,,,,,,,,,,,,,,,,,,,,,,,,,,,,,,,,,,,,,,,,,134,001,2010-10-16_15h09.30.592,eb_01,2022.2.4,120.02644782655808,
1,stimuli/1.png,s,0,0,0,0,77,0,77,0,0,0,0,0,,,,,,,,,,,,,,,,,,492.0207210579247,492.0207210579247,492.0207210579247,492.0207210579247,s,1,0.5410353223560378,492.5874005029036,492.5874005029036,492.5874005029036,,,,,,,,,,,,,,,,,,,,,,,,,,,,134,001,2010-10-16_15h09.30.592,eb_01,2022.2.4,120.02644782655808,
,,,0,0,0,0,77,0,77,0,,,,,,,,,,,,,,,,,,,,,,,,,,,,,,,,,,,,,,,,,,,,,,,,,,,,,,,,,,,134,001,2010-10-16_15h09.30.592,eb_01,2022.2.4,120.02644782655808,
2,stimuli/2.png,s,0,0,0,0,78,0,78,0,0,0,0,0,,,,,,,,,,,,,,,,,,493.587488341087,493.587488341087,493.587488341087,493.587488341087,s,1,0.4063027156807948,494.0041884627135,494.0041884627135,494.0041884627135,495.0126094581501,495.0126094581501,495.0126094581501,,,,,,,,,,,,,,,,,,,,,,,,,134,001,2010-10-16_15h09.30.592,eb_01,2022.2.4,120.02644782655808,
,,,0,0,0,0,78,0,78,0,,,,,,,,,,,,,,,,,,,,,,,,,,,,,,,,,,,,,,,,,,,,,,,,,,,,,,,,,,,134,001,2010-10-16_15h09.30.592,eb_01,2022.2.4,120.02644782655808,
3,stimuli/3.png,l,0,0,0,0,79,0,79,0,0,0,0,0,,,,,,,,,,,,,,,,,,495.0126094581501,495.0126094581501,495.0126094581501,495.0126094581501,l,1,0.4692048168508336,495.4959941561974,495.4959941561974,495.4959941561974,496.5044365829672,496.5044365829672,496.5044365829672,,,,,,,,,,,,,,,,,,,,,,,,,134,001,2010-10-16_15h09.30.592,eb_01,2022.2.4,120.02644782655808,
,,,0,0,0,0,79,0,79,0,,,,,,,,,,,,,,,,,,,,,,,,,,,,,,,,,,,,,,,,,,,,,,,,,,,,,,,,,,,134,001,2010-10-16_15h09.30.592,eb_01,2022.2.4,120.02644782655808,
2,stimuli/2.png,s,0,0,0,0,80,0,80,0,0,0,0,0,,,,,,,,,,,,,,,,,,496.5044365829672,496.5044365829672,496.5044365829672,496.5044365829672,s,1,0.6174228487361688,497.13778883218765,497.13778883218765,497.13778883218765,498.1628915364563,498.1628915364563,498.1628915364563,,,,,,,,,,,,,,,,,,,,,,,,,134,001,2010-10-16_15h09.30.592,eb_01,2022.2.4,120.02644782655808,
,,,0,0,0,0,80,0,80,0,,,,,,,,,,,,,,,,,,,,,,,,,,,,,,,,,,,,,,,,,,,,,,,,,,,,,,,,,,,134,001,2010-10-16_15h09.30.592,eb_01,2022.2.4,120.02644782655808,
1,stimuli/1.png,s,0,0,0,0,81,0,81,0,0,0,0,0,,,,,,,,,,,,,,,,,,498.1628915364563,498.1628915364563,498.1628915364563,498.1628915364563,s,1,0.6309780011652038,498.8212671035435,498.8212671035435,498.8212671035435,,,,,,,,,,,,,,,,,,,,,,,,,,,,134,001,2010-10-16_15h09.30.592,eb_01,2022.2.4,120.02644782655808,
,,,0,0,0,0,81,0,81,0,,,,,,,,,,,,,,,,,,,,,,,,,,,,,,,,,,,,,,,,,,,,,,,,,,,,,,,,,,,134,001,2010-10-16_15h09.30.592,eb_01,2022.2.4,120.02644782655808,
2,stimuli/2.png,s,0,0,0,0,82,0,82,0,0,0,0,0,,,,,,,,,,,,,,,,,,499.8213990117656,499.8213990117656,499.8213990117656,499.8213990117656,s,1,0.5165127727086656,500.3464129722852,500.3464129722852,500.3464129722852,501.3715298634779,501.3715298634779,501.3715298634779,,,,,,,,,,,,,,,,,,,,,,,,,134,001,2010-10-16_15h09.30.592,eb_01,2022.2.4,120.02644782655808,
,,,0,0,0,0,82,0,82,0,,,,,,,,,,,,,,,,,,,,,,,,,,,,,,,,,,,,,,,,,,,,,,,,,,,,,,,,,,,134,001,2010-10-16_15h09.30.592,eb_01,2022.2.4,120.02644782655808,
1,stimuli/1.png,s,0,0,0,0,83,0,83,0,0,0,0,0,,,,,,,,,,,,,,,,,,501.3715298634779,501.3715298634779,501.3715298634779,501.3715298634779,s,1,0.7664208595233504,502.1632314189046,502.1632314189046,502.1632314189046,,,,,,,,,,,,,,,,,,,,,,,,,,,,134,001,2010-10-16_15h09.30.592,eb_01,2022.2.4,120.02644782655808,
,,,0,0,0,0,83,0,83,0,,,,,,,,,,,,,,,,,,,,,,,,,,,,,,,,,,,,,,,,,,,,,,,,,,,,,,,,,,,134,001,2010-10-16_15h09.30.592,eb_01,2022.2.4,120.02644782655808,
2,stimuli/2.png,s,0,0,0,0,84,0,84,0,0,0,0,0,,,,,,,,,,,,,,,,,,503.1633358588151,503.1633358588151,503.1633358588151,503.1633358588151,s,1,0.5186462444835342,503.69672976326547,503.69672976326547,503.69672976326547,504.7217995659448,504.7217995659448,504.7217995659448,,,,,,,,,,,,,,,,,,,,,,,,,134,001,2010-10-16_15h09.30.592,eb_01,2022.2.4,120.02644782655808,
,,,0,0,0,0,84,0,84,0,,,,,,,,,,,,,,,,,,,,,,,,,,,,,,,,,,,,,,,,,,,,,,,,,,,,,,,,,,,134,001,2010-10-16_15h09.30.592,eb_01,2022.2.4,120.02644782655808,
1,stimuli/1.png,s,0,0,0,0,85,0,85,0,0,0,0,0,,,,,,,,,,,,,,,,,,504.7217995659448,504.7217995659448,504.7217995659448,504.7217995659448,s,1,0.5352135523862671,505.28851523285266,505.28851523285266,505.28851523285266,,,,,,,,,,,,,,,,,,,,,,,,,,,,134,001,2010-10-16_15h09.30.592,eb_01,2022.2.4,120.02644782655808,
,,,0,0,0,0,85,0,85,0,,,,,,,,,,,,,,,,,,,,,,,,,,,,,,,,,,,,,,,,,,,,,,,,,,,,,,,,,,,134,001,2010-10-16_15h09.30.592,eb_01,2022.2.4,120.02644782655808,
4,stimuli/4.png,l,0,0,0,0,86,0,86,0,0,0,0,0,,,,,,,,,,,,,,,,,,506.29690393040073,506.29690393040073,506.29690393040073,506.29690393040073,s,0,0.3841674931754824,506.70531979438965,506.70531979438965,506.70531979438965,,,,,,,,,,,,,,,,,,,,,,,,,,,,134,001,2010-10-16_15h09.30.592,eb_01,2022.2.4,120.02644782655808,
,,,0,0,0,0,86,0,86,0,,,,,,,,,,,,,,,,,,,,,,,,,,,,,,,,,,,,,,,,,,,,,,,,,,,,,,,,,,,134,001,2010-10-16_15h09.30.592,eb_01,2022.2.4,120.02644782655808,
3,stimuli/3.png,l,0,0,0,0,87,0,87,0,0,0,0,0,,,,,,,,,,,,,,,,,,507.71370456789737,507.71370456789737,507.71370456789737,507.71370456789737,l,1,0.4073760922474321,508.13872788575827,508.13872788575827,508.13872788575827,,,,,,,,,,,,,,,,,,,,,,,,,,,,134,001,2010-10-16_15h09.30.592,eb_01,2022.2.4,120.02644782655808,
,,,0,0,0,0,87,0,87,0,,,,,,,,,,,,,,,,,,,,,,,,,,,,,,,,,,,,,,,,,,,,,,,,,,,,,,,,,,,134,001,2010-10-16_15h09.30.592,eb_01,2022.2.4,120.02644782655808,
2,stimuli/2.png,s,0,0,0,0,88,0,88,0,0,0,0,0,,,,,,,,,,,,,,,,,,509.1472007993143,509.1472007993143,509.1472007993143,509.1472007993143,s,1,0.46189311807393096,509.62220706269727,509.62220706269727,509.62220706269727,510.63897298750817,510.63897298750817,510.63897298750817,,,,,,,,,,,,,,,,,,,,,,,,,134,001,2010-10-16_15h09.30.592,eb_01,2022.2.4,120.02644782655808,
,,,0,0,0,0,88,0,88,0,,,,,,,,,,,,,,,,,,,,,,,,,,,,,,,,,,,,,,,,,,,,,,,,,,,,,,,,,,,134,001,2010-10-16_15h09.30.592,eb_01,2022.2.4,120.02644782655808,
4,stimuli/4.png,l,0,0,0,0,89,0,89,0,0,0,0,0,,,,,,,,,,,,,,,,,,510.63897298750817,510.63897298750817,510.63897298750817,510.63897298750817,l,1,0.4901649395178538,511.1473161057802,511.1473161057802,511.1473161057802,,,,,,,,,,,,,,,,,,,,,,,,,,,,134,001,2010-10-16_15h09.30.592,eb_01,2022.2.4,120.02644782655808,
,,,0,0,0,0,89,0,89,0,,,,,,,,,,,,,,,,,,,,,,,,,,,,,,,,,,,,,,,,,,,,,,,,,,,,,,,,,,,134,001,2010-10-16_15h09.30.592,eb_01,2022.2.4,120.02644782655808,
1,stimuli/1.png,s,0,0,0,0,90,0,90,0,0,0,0,0,,,,,,,,,,,,,,,,,,512.1724556356785,512.1724556356785,512.1724556356785,512.1724556356785,s,1,0.5247348493721802,512.7224651439465,512.7224651439465,512.7224651439465,,,,,,,,,,,,,,,,,,,,,,,,,,,,134,001,2010-10-16_15h09.30.592,eb_01,2022.2.4,120.02644782655808,
,,,0,0,0,0,90,0,90,0,,,,,,,,,,,,,,,,,,,,,,,,,,,,,,,,,,,,,,,,,,,,,,,,,,,,,,,,,,,134,001,2010-10-16_15h09.30.592,eb_01,2022.2.4,120.02644782655808,
2,stimuli/2.png,s,0,0,0,0,91,0,91,0,0,0,0,0,,,,,,,,,,,,,,,,,,513.7225517747283,513.7225517747283,513.7225517747283,513.7225517747283,l,0,0.7986879600794055,514.5393104551767,514.5393104551767,514.5393104551767,,,,,,,,,,,,,,,,,,,,,,,,,,,,134,001,2010-10-16_15h09.30.592,eb_01,2022.2.4,120.02644782655808,
,,,0,0,0,0,91,0,91,0,,,,,,,,,,,,,,,,,,,,,,,,,,,,,,,,,,,,,,,,,,,,,,,,,,,,,,,,,,,134,001,2010-10-16_15h09.30.592,eb_01,2022.2.4,120.02644782655808,
3,stimuli/3.png,l,0,0,0,0,92,0,92,0,0,0,0,0,,,,,,,,,,,,,,,,,,515.5476919083449,515.5476919083449,515.5476919083449,515.5476919083449,l,1,0.3975282545434311,515.9644044057932,515.9644044057932,515.9644044057932,,,,,,,,,,,,,,,,,,,,,,,,,,,,134,001,2010-10-16_15h09.30.592,eb_01,2022.2.4,120.02644782655808,
,,,0,0,0,0,92,0,92,0,,,,,,,,,,,,,,,,,,,,,,,,,,,,,,,,,,,,,,,,,,,,,,,,,,,,,,,,,,,134,001,2010-10-16_15h09.30.592,eb_01,2022.2.4,120.02644782655808,
2,stimuli/2.png,s,0,0,0,0,93,0,93,0,0,0,0,0,,,,,,,,,,,,,,,,,,516.9728589065198,516.9728589065198,516.9728589065198,516.9728589065198,s,1,0.5804188250913285,517.5645471805765,517.5645471805765,517.5645471805765,518.572997455427,518.572997455427,518.572997455427,,,,,,,,,,,,,,,,,,,,,,,,,134,001,2010-10-16_15h09.30.592,eb_01,2022.2.4,120.02644782655808,
,,,0,0,0,0,93,0,93,0,,,,,,,,,,,,,,,,,,,,,,,,,,,,,,,,,,,,,,,,,,,,,,,,,,,,,,,,,,,134,001,2010-10-16_15h09.30.592,eb_01,2022.2.4,120.02644782655808,
3,stimuli/3.png,l,0,0,0,0,94,0,94,0,0,0,0,0,,,,,,,,,,,,,,,,,,518.572997455427,518.572997455427,518.572997455427,518.572997455427,l,1,0.5393700190470554,519.1230446948612,519.1230446948612,519.1230446948612,520.1314282609674,520.1314282609674,520.1314282609674,,,,,,,,,,,,,,,,,,,,,,,,,134,001,2010-10-16_15h09.30.592,eb_01,2022.2.4,120.02644782655808,
,,,0,0,0,0,94,0,94,0,,,,,,,,,,,,,,,,,,,,,,,,,,,,,,,,,,,,,,,,,,,,,,,,,,,,,,,,,,,134,001,2010-10-16_15h09.30.592,eb_01,2022.2.4,120.02644782655808,
8,stimuli/8.png,l,0,0,0,0,95,0,95,0,0,0,0,0,,,,,,,,,,,,,,,,,,520.1314282609674,520.1314282609674,520.1314282609674,520.1314282609674,l,1,0.517898563441122,520.6731589448755,520.6731589448755,520.6731589448755,,,,,,,,,,,,,,,,,,,,,,,,,,,,134,001,2010-10-16_15h09.30.592,eb_01,2022.2.4,120.02644782655808,
,,,0,0,0,0,95,0,95,0,,,,,,,,,,,,,,,,,,,,,,,,,,,,,,,,,,,,,,,,,,,,,,,,,,,,,,,,,,,134,001,2010-10-16_15h09.30.592,eb_01,2022.2.4,120.02644782655808,
6,stimuli/6.png,s,0,0,0,0,96,0,96,0,0,0,0,0,,,,,,,,,,,,,,,,,,521.6982314641937,521.6982314641937,521.6982314641937,521.6982314641937,s,1,0.48611381830414757,522.214924643311,522.214924643311,522.214924643311,,,,,,,,,,,,,,,,,,,,,,,,,,,,134,001,2010-10-16_15h09.30.592,eb_01,2022.2.4,120.02644782655808,
,,,0,0,0,0,96,0,96,0,,,,,,,,,,,,,,,,,,,,,,,,,,,,,,,,,,,,,,,,,,,,,,,,,,,,,,,,,,,134,001,2010-10-16_15h09.30.592,eb_01,2022.2.4,120.02644782655808,
5,stimuli/5.png,s,0,0,0,0,97,0,97,0,0,0,0,0,,,,,,,,,,,,,,,,,,523.2150118777936,523.2150118777936,523.2150118777936,523.2150118777936,s,1,0.545382859709207,523.781759540725,523.781759540725,523.781759540725,,,,,,,,,,,,,,,,,,,,,,,,,,,,134,001,2010-10-16_15h09.30.592,eb_01,2022.2.4,120.02644782655808,
,,,0,0,0,0,97,0,97,0,,,,,,,,,,,,,,,,,,,,,,,,,,,,,,,,,,,,,,,,,,,,,,,,,,,,,,,,,,,134,001,2010-10-16_15h09.30.592,eb_01,2022.2.4,120.02644782655808,
9,stimuli/9.png,l,0,0,0,0,98,0,98,0,0,0,0,0,,,,,,,,,,,,,,,,,,524.7985079582722,524.7985079582722,524.7985079582722,524.7985079582722,l,1,0.489907160110306,525.3151923837431,525.3151923837431,525.3151923837431,,,,,,,,,,,,,,,,,,,,,,,,,,,,134,001,2010-10-16_15h09.30.592,eb_01,2022.2.4,120.02644782655808,
,,,0,0,0,0,98,0,98,0,,,,,,,,,,,,,,,,,,,,,,,,,,,,,,,,,,,,,,,,,,,,,,,,,,,,,,,,,,,134,001,2010-10-16_15h09.30.592,eb_01,2022.2.4,120.02644782655808,
8,stimuli/8.png,l,0,0,0,0,99,0,99,0,0,0,0,0,,,,,,,,,,,,,,,,,,526.3152802219265,526.3152802219265,526.3152802219265,526.3152802219265,l,1,0.4291841099911835,526.7653162929346,526.7653162929346,526.7653162929346,,,,,,,,,,,,,,,,,,,,,,,,,,,,134,001,2010-10-16_15h09.30.592,eb_01,2022.2.4,120.02644782655808,
,,,0,0,0,0,99,0,99,0,,,,,,,,,,,,,,,,,,,,,,,,,,,,,,,,,,,,,,,,,,,,,,,,,,,,,,,,,,,134,001,2010-10-16_15h09.30.592,eb_01,2022.2.4,120.02644782655808,
,,,0,0,0,0,,,,,,,,,,,,,,,,,,,,,,,,,,,,,,,,,,,,,,,527.7654014144791,527.7654014144791,return,2.5871017714962363,,,,,,,,,,,,,,,,,,,,,134,001,2010-10-16_15h09.30.592,eb_01,2022.2.4,120.02644782655808,
9,stimuli/9.png,l,1,0,1,0,0,0,0,0,0,0,0,0,,,,,,,,,,,,,,,,,,530.3906402528519,530.3906402528519,530.3906402528519,530.3906402528519,l,1,0.9859152013959829,531.4074097998673,531.4074097998673,531.4074097998673,,,,,,,,,,,,,,,,,,,,,,,,,,,,134,001,2010-10-16_15h09.30.592,eb_01,2022.2.4,120.02644782655808,
,,,1,0,1,0,0,0,0,0,,,,,,,,,,,,,,,,,,,,,,,,,,,,,,,,,,,,,,,,,,,,,,,,,,,,,,,,,,,134,001,2010-10-16_15h09.30.592,eb_01,2022.2.4,120.02644782655808,
5,stimuli/5.png,s,1,0,1,0,1,0,1,0,0,0,0,0,,,,,,,,,,,,,,,,,,532.4075223896943,532.4075223896943,532.4075223896943,532.4075223896943,s,1,0.46506676299031824,532.8908759972546,532.8908759972546,532.8908759972546,,,,,,,,,,,,,,,,,,,,,,,,,,,,134,001,2010-10-16_15h09.30.592,eb_01,2022.2.4,120.02644782655808,
,,,1,0,1,0,1,0,1,0,,,,,,,,,,,,,,,,,,,,,,,,,,,,,,,,,,,,,,,,,,,,,,,,,,,,,,,,,,,134,001,2010-10-16_15h09.30.592,eb_01,2022.2.4,120.02644782655808,
6,stimuli/6.png,s,1,0,1,0,2,0,2,0,0,0,0,0,,,,,,,,,,,,,,,,,,533.9159234630642,533.9159234630642,533.9159234630642,533.9159234630642,s,1,0.5246765924384817,534.4659704006626,534.4659704006626,534.4659704006626,,,,,,,,,,,,,,,,,,,,,,,,,,,,134,001,2010-10-16_15h09.30.592,eb_01,2022.2.4,120.02644782655808,
,,,1,0,1,0,2,0,2,0,,,,,,,,,,,,,,,,,,,,,,,,,,,,,,,,,,,,,,,,,,,,,,,,,,,,,,,,,,,134,001,2010-10-16_15h09.30.592,eb_01,2022.2.4,120.02644782655808,
5,stimuli/5.png,s,1,0,1,0,3,0,3,0,0,0,0,0,,,,,,,,,,,,,,,,,,535.4661041199579,535.4661041199579,535.4661041199579,535.4661041199579,s,1,0.4615746669296641,535.949429051805,535.949429051805,535.949429051805,,,,,,,,,,,,,,,,,,,,,,,,,,,,134,001,2010-10-16_15h09.30.592,eb_01,2022.2.4,120.02644782655808,
,,,1,0,1,0,3,0,3,0,,,,,,,,,,,,,,,,,,,,,,,,,,,,,,,,,,,,,,,,,,,,,,,,,,,,,,,,,,,134,001,2010-10-16_15h09.30.592,eb_01,2022.2.4,120.02644782655808,
9,stimuli/9.png,l,1,0,1,0,4,0,4,0,0,0,0,0,,,,,,,,,,,,,,,,,,536.9661862229987,536.9661862229987,536.9661862229987,536.9661862229987,l,1,0.513484317343682,537.5078978903766,537.5078978903766,537.5078978903766,,,,,,,,,,,,,,,,,,,,,,,,,,,,134,001,2010-10-16_15h09.30.592,eb_01,2022.2.4,120.02644782655808,
,,,1,0,1,0,4,0,4,0,,,,,,,,,,,,,,,,,,,,,,,,,,,,,,,,,,,,,,,,,,,,,,,,,,,,,,,,,,,134,001,2010-10-16_15h09.30.592,eb_01,2022.2.4,120.02644782655808,
5,stimuli/5.png,s,1,0,1,0,5,0,5,0,0,0,0,0,,,,,,,,,,,,,,,,,,538.5079869359615,538.5079869359615,538.5079869359615,538.5079869359615,s,1,0.4997226999257691,539.0247262980265,539.0247262980265,539.0247262980265,,,,,,,,,,,,,,,,,,,,,,,,,,,,134,001,2010-10-16_15h09.30.592,eb_01,2022.2.4,120.02644782655808,
,,,1,0,1,0,5,0,5,0,,,,,,,,,,,,,,,,,,,,,,,,,,,,,,,,,,,,,,,,,,,,,,,,,,,,,,,,,,,134,001,2010-10-16_15h09.30.592,eb_01,2022.2.4,120.02644782655808,
9,stimuli/9.png,l,1,0,1,0,6,0,6,0,0,0,0,0,,,,,,,,,,,,,,,,,,540.0414816581178,540.0414816581178,540.0414816581178,540.0414816581178,l,1,0.4942531882261392,540.5665390849754,540.5665390849754,540.5665390849754,,,,,,,,,,,,,,,,,,,,,,,,,,,,134,001,2010-10-16_15h09.30.592,eb_01,2022.2.4,120.02644782655808,
,,,1,0,1,0,6,0,6,0,,,,,,,,,,,,,,,,,,,,,,,,,,,,,,,,,,,,,,,,,,,,,,,,,,,,,,,,,,,134,001,2010-10-16_15h09.30.592,eb_01,2022.2.4,120.02644782655808,
6,stimuli/6.png,s,1,0,1,0,7,0,7,0,0,0,0,0,,,,,,,,,,,,,,,,,,541.5832509787579,541.5832509787579,541.5832509787579,541.5832509787579,s,1,0.5045145596377552,542.1166385443648,542.1166385443648,542.1166385443648,,,,,,,,,,,,,,,,,,,,,,,,,,,,134,001,2010-10-16_15h09.30.592,eb_01,2022.2.4,120.02644782655808,
,,,1,0,1,0,7,0,7,0,,,,,,,,,,,,,,,,,,,,,,,,,,,,,,,,,,,,,,,,,,,,,,,,,,,,,,,,,,,134,001,2010-10-16_15h09.30.592,eb_01,2022.2.4,120.02644782655808,
8,stimuli/8.png,l,1,0,1,0,8,0,8,0,0,0,0,0,,,,,,,,,,,,,,,,,,543.1167692451854,543.1167692451854,543.1167692451854,543.1167692451854,l,1,0.48303284114808775,543.616791883891,543.616791883891,543.616791883891,,,,,,,,,,,,,,,,,,,,,,,,,,,,134,001,2010-10-16_15h09.30.592,eb_01,2022.2.4,120.02644782655808,
,,,1,0,1,0,8,0,8,0,,,,,,,,,,,,,,,,,,,,,,,,,,,,,,,,,,,,,,,,,,,,,,,,,,,,,,,,,,,134,001,2010-10-16_15h09.30.592,eb_01,2022.2.4,120.02644782655808,
9,stimuli/9.png,l,1,0,1,0,9,0,9,0,0,0,0,0,,,,,,,,,,,,,,,,,,544.6335399995733,544.6335399995733,544.6335399995733,544.6335399995733,l,1,0.44629233205341734,545.1085610535811,545.1085610535811,545.1085610535811,,,,,,,,,,,,,,,,,,,,,,,,,,,,134,001,2010-10-16_15h09.30.592,eb_01,2022.2.4,120.02644782655808,
,,,1,0,1,0,9,0,9,0,,,,,,,,,,,,,,,,,,,,,,,,,,,,,,,,,,,,,,,,,,,,,,,,,,,,,,,,,,,134,001,2010-10-16_15h09.30.592,eb_01,2022.2.4,120.02644782655808,
5,stimuli/5.png,s,1,0,1,0,10,0,10,0,0,0,0,0,,,,,,,,,,,,,,,,,,546.1086624749878,546.1086624749878,546.1086624749878,546.1086624749878,s,1,0.43518366929492913,546.5670338162163,546.5670338162163,546.5670338162163,,,,,,,,,,,,,,,,,,,,,,,,,,,,134,001,2010-10-16_15h09.30.592,eb_01,2022.2.4,120.02644782655808,
,,,1,0,1,0,10,0,10,0,,,,,,,,,,,,,,,,,,,,,,,,,,,,,,,,,,,,,,,,,,,,,,,,,,,,,,,,,,,134,001,2010-10-16_15h09.30.592,eb_01,2022.2.4,120.02644782655808,
9,stimuli/9.png,l,1,0,1,0,11,0,11,0,0,0,0,0,,,,,,,,,,,,,,,,,,547.5837915910815,547.5837915910815,547.5837915910815,547.5837915910815,l,1,0.43209424035740085,548.0421339547611,548.0421339547611,548.0421339547611,,,,,,,,,,,,,,,,,,,,,,,,,,,,134,001,2010-10-16_15h09.30.592,eb_01,2022.2.4,120.02644782655808,
,,,1,0,1,0,11,0,11,0,,,,,,,,,,,,,,,,,,,,,,,,,,,,,,,,,,,,,,,,,,,,,,,,,,,,,,,,,,,134,001,2010-10-16_15h09.30.592,eb_01,2022.2.4,120.02644782655808,
6,stimuli/6.png,s,1,0,1,0,12,0,12,0,0,0,0,0,,,,,,,,,,,,,,,,,,549.0588956536667,549.0588956536667,549.0588956536667,549.0588956536667,s,1,0.3969861329824198,549.4839736062859,549.4839736062859,549.4839736062859,,,,,,,,,,,,,,,,,,,,,,,,,,,,134,001,2010-10-16_15h09.30.592,eb_01,2022.2.4,120.02644782655808,
,,,1,0,1,0,12,0,12,0,,,,,,,,,,,,,,,,,,,,,,,,,,,,,,,,,,,,,,,,,,,,,,,,,,,,,,,,,,,134,001,2010-10-16_15h09.30.592,eb_01,2022.2.4,120.02644782655808,
8,stimuli/8.png,l,1,0,1,0,13,0,13,0,0,0,0,0,,,,,,,,,,,,,,,,,,550.4923728685826,550.4923728685826,550.4923728685826,550.4923728685826,l,1,0.3635774379072245,550.8757394556596,550.8757394556596,550.8757394556596,,,,,,,,,,,,,,,,,,,,,,,,,,,,134,001,2010-10-16_15h09.30.592,eb_01,2022.2.4,120.02644782655808,
,,,1,0,1,0,13,0,13,0,,,,,,,,,,,,,,,,,,,,,,,,,,,,,,,,,,,,,,,,,,,,,,,,,,,,,,,,,,,134,001,2010-10-16_15h09.30.592,eb_01,2022.2.4,120.02644782655808,
6,stimuli/6.png,s,1,0,1,0,14,0,14,0,0,0,0,0,,,,,,,,,,,,,,,,,,551.9008376321872,551.9008376321872,551.9008376321872,551.9008376321872,s,1,0.4661123694386333,552.3925358672568,552.3925358672568,552.3925358672568,,,,,,,,,,,,,,,,,,,,,,,,,,,,134,001,2010-10-16_15h09.30.592,eb_01,2022.2.4,120.02644782655808,
,,,1,0,1,0,14,0,14,0,,,,,,,,,,,,,,,,,,,,,,,,,,,,,,,,,,,,,,,,,,,,,,,,,,,,,,,,,,,134,001,2010-10-16_15h09.30.592,eb_01,2022.2.4,120.02644782655808,
5,stimuli/5.png,s,1,0,1,0,15,0,15,0,0,0,0,0,,,,,,,,,,,,,,,,,,553.3926010667346,553.3926010667346,553.3926010667346,553.3926010667346,s,1,0.4463979793654289,553.8593233743159,553.8593233743159,553.8593233743159,,,,,,,,,,,,,,,,,,,,,,,,,,,,134,001,2010-10-16_15h09.30.592,eb_01,2022.2.4,120.02644782655808,
,,,1,0,1,0,15,0,15,0,,,,,,,,,,,,,,,,,,,,,,,,,,,,,,,,,,,,,,,,,,,,,,,,,,,,,,,,,,,134,001,2010-10-16_15h09.30.592,eb_01,2022.2.4,120.02644782655808,
9,stimuli/9.png,l,1,0,1,0,16,0,16,0,0,0,0,0,,,,,,,,,,,,,,,,,,554.876112843398,554.876112843398,554.876112843398,554.876112843398,l,1,0.4989052916644141,555.4011446130462,555.4011446130462,555.4011446130462,,,,,,,,,,,,,,,,,,,,,,,,,,,,134,001,2010-10-16_15h09.30.592,eb_01,2022.2.4,120.02644782655808,
,,,1,0,1,0,16,0,16,0,,,,,,,,,,,,,,,,,,,,,,,,,,,,,,,,,,,,,,,,,,,,,,,,,,,,,,,,,,,134,001,2010-10-16_15h09.30.592,eb_01,2022.2.4,120.02644782655808,
5,stimuli/5.png,s,1,0,1,0,17,0,17,0,0,0,0,0,,,,,,,,,,,,,,,,,,556.4012306401564,556.4012306401564,556.4012306401564,556.4012306401564,s,1,0.4218316615151707,556.8429133299796,556.8429133299796,556.8429133299796,,,,,,,,,,,,,,,,,,,,,,,,,,,,134,001,2010-10-16_15h09.30.592,eb_01,2022.2.4,120.02644782655808,
,,,1,0,1,0,17,0,17,0,,,,,,,,,,,,,,,,,,,,,,,,,,,,,,,,,,,,,,,,,,,,,,,,,,,,,,,,,,,134,001,2010-10-16_15h09.30.592,eb_01,2022.2.4,120.02644782655808,
6,stimuli/6.png,s,1,0,1,0,18,0,18,0,0,0,0,0,,,,,,,,,,,,,,,,,,557.8680136194453,557.8680136194453,557.8680136194453,557.8680136194453,s,1,0.4670604784914758,558.3680356544792,558.3680356544792,558.3680356544792,,,,,,,,,,,,,,,,,,,,,,,,,,,,134,001,2010-10-16_15h09.30.592,eb_01,2022.2.4,120.02644782655808,
,,,1,0,1,0,18,0,18,0,,,,,,,,,,,,,,,,,,,,,,,,,,,,,,,,,,,,,,,,,,,,,,,,,,,,,,,,,,,134,001,2010-10-16_15h09.30.592,eb_01,2022.2.4,120.02644782655808,
5,stimuli/5.png,s,1,0,1,0,19,0,19,0,0,0,0,0,,,,,,,,,,,,,,,,,,559.3681114186766,559.3681114186766,559.3681114186766,559.3681114186766,s,1,0.6630057350848801,560.0514873630891,560.0514873630891,560.0514873630891,,,,,,,,,,,,,,,,,,,,,,,,,,,,134,001,2010-10-16_15h09.30.592,eb_01,2022.2.4,120.02644782655808,
,,,1,0,1,0,19,0,19,0,,,,,,,,,,,,,,,,,,,,,,,,,,,,,,,,,,,,,,,,,,,,,,,,,,,,,,,,,,,134,001,2010-10-16_15h09.30.592,eb_01,2022.2.4,120.02644782655808,
6,stimuli/6.png,s,1,0,1,0,20,0,20,0,0,0,0,0,,,,,,,,,,,,,,,,,,561.0766105931252,561.0766105931252,561.0766105931252,561.0766105931252,s,1,0.41852761764312163,561.5266527011117,561.5266527011117,561.5266527011117,,,,,,,,,,,,,,,,,,,,,,,,,,,,134,001,2010-10-16_15h09.30.592,eb_01,2022.2.4,120.02644782655808,
,,,1,0,1,0,20,0,20,0,,,,,,,,,,,,,,,,,,,,,,,,,,,,,,,,,,,,,,,,,,,,,,,,,,,,,,,,,,,134,001,2010-10-16_15h09.30.592,eb_01,2022.2.4,120.02644782655808,
8,stimuli/8.png,l,1,0,1,0,21,0,21,0,0,0,0,0,,,,,,,,,,,,,,,,,,562.5267471799743,562.5267471799743,562.5267471799743,562.5267471799743,l,1,0.432429293228779,562.9767337476951,562.9767337476951,562.9767337476951,,,,,,,,,,,,,,,,,,,,,,,,,,,,134,001,2010-10-16_15h09.30.592,eb_01,2022.2.4,120.02644782655808,
,,,1,0,1,0,21,0,21,0,,,,,,,,,,,,,,,,,,,,,,,,,,,,,,,,,,,,,,,,,,,,,,,,,,,,,,,,,,,134,001,2010-10-16_15h09.30.592,eb_01,2022.2.4,120.02644782655808,
9,stimuli/9.png,l,1,0,1,0,22,0,22,0,0,0,0,0,,,,,,,,,,,,,,,,,,563.993490013323,563.993490013323,563.993490013323,563.993490013323,l,1,0.5017230561061297,564.5268721456523,564.5268721456523,564.5268721456523,,,,,,,,,,,,,,,,,,,,,,,,,,,,134,001,2010-10-16_15h09.30.592,eb_01,2022.2.4,120.02644782655808,
,,,1,0,1,0,22,0,22,0,,,,,,,,,,,,,,,,,,,,,,,,,,,,,,,,,,,,,,,,,,,,,,,,,,,,,,,,,,,134,001,2010-10-16_15h09.30.592,eb_01,2022.2.4,120.02644782655808,
8,stimuli/8.png,l,1,0,1,0,23,0,23,0,0,0,0,0,,,,,,,,,,,,,,,,,,565.5353429462411,565.5353429462411,565.5353429462411,565.5353429462411,l,1,0.4229835189471487,565.977024126827,565.977024126827,565.977024126827,,,,,,,,,,,,,,,,,,,,,,,,,,,,134,001,2010-10-16_15h09.30.592,eb_01,2022.2.4,120.02644782655808,
,,,1,0,1,0,23,0,23,0,,,,,,,,,,,,,,,,,,,,,,,,,,,,,,,,,,,,,,,,,,,,,,,,,,,,,,,,,,,134,001,2010-10-16_15h09.30.592,eb_01,2022.2.4,120.02644782655808,
6,stimuli/6.png,s,1,0,1,0,24,0,24,0,0,0,0,0,,,,,,,,,,,,,,,,,,567.0020951369079,567.0020951369079,567.0020951369079,567.0020951369079,s,1,0.4761835757235531,567.5104708549334,567.5104708549334,567.5104708549334,,,,,,,,,,,,,,,,,,,,,,,,,,,,134,001,2010-10-16_15h09.30.592,eb_01,2022.2.4,120.02644782655808,
,,,1,0,1,0,24,0,24,0,,,,,,,,,,,,,,,,,,,,,,,,,,,,,,,,,,,,,,,,,,,,,,,,,,,,,,,,,,,134,001,2010-10-16_15h09.30.592,eb_01,2022.2.4,120.02644782655808,
8,stimuli/8.png,l,1,0,1,0,25,0,25,0,0,0,0,0,,,,,,,,,,,,,,,,,,568.5105786151835,568.5105786151835,568.5105786151835,568.5105786151835,l,1,0.5917258029221557,569.118958559091,569.118958559091,569.118958559091,,,,,,,,,,,,,,,,,,,,,,,,,,,,134,001,2010-10-16_15h09.30.592,eb_01,2022.2.4,120.02644782655808,
,,,1,0,1,0,25,0,25,0,,,,,,,,,,,,,,,,,,,,,,,,,,,,,,,,,,,,,,,,,,,,,,,,,,,,,,,,,,,134,001,2010-10-16_15h09.30.592,eb_01,2022.2.4,120.02644782655808,
6,stimuli/6.png,s,1,0,1,0,26,0,26,0,0,0,0,0,,,,,,,,,,,,,,,,,,570.1440298710368,570.1440298710368,570.1440298710368,570.1440298710368,s,1,0.45429798268014565,570.6274486780749,570.6274486780749,570.6274486780749,,,,,,,,,,,,,,,,,,,,,,,,,,,,134,001,2010-10-16_15h09.30.592,eb_01,2022.2.4,120.02644782655808,
,,,1,0,1,0,26,0,26,0,,,,,,,,,,,,,,,,,,,,,,,,,,,,,,,,,,,,,,,,,,,,,,,,,,,,,,,,,,,134,001,2010-10-16_15h09.30.592,eb_01,2022.2.4,120.02644782655808,
5,stimuli/5.png,s,1,0,1,0,27,0,27,0,0,0,0,0,,,,,,,,,,,,,,,,,,571.6274924462195,571.6274924462195,571.6274924462195,571.6274924462195,s,1,0.522894473397173,572.1692204134888,572.1692204134888,572.1692204134888,,,,,,,,,,,,,,,,,,,,,,,,,,,,134,001,2010-10-16_15h09.30.592,eb_01,2022.2.4,120.02644782655808,
,,,1,0,1,0,27,0,27,0,,,,,,,,,,,,,,,,,,,,,,,,,,,,,,,,,,,,,,,,,,,,,,,,,,,,,,,,,,,134,001,2010-10-16_15h09.30.592,eb_01,2022.2.4,120.02644782655808,
6,stimuli/6.png,s,1,0,1,0,28,0,28,0,0,0,0,0,,,,,,,,,,,,,,,,,,573.194324023294,573.194324023294,573.194324023294,573.194324023294,s,1,0.5400567265169229,573.760988979484,573.760988979484,573.760988979484,,,,,,,,,,,,,,,,,,,,,,,,,,,,134,001,2010-10-16_15h09.30.592,eb_01,2022.2.4,120.02644782655808,
,,,1,0,1,0,28,0,28,0,,,,,,,,,,,,,,,,,,,,,,,,,,,,,,,,,,,,,,,,,,,,,,,,,,,,,,,,,,,134,001,2010-10-16_15h09.30.592,eb_01,2022.2.4,120.02644782655808,
9,stimuli/9.png,l,1,0,1,0,29,0,29,0,0,0,0,0,,,,,,,,,,,,,,,,,,574.7694148045266,574.7694148045266,574.7694148045266,574.7694148045266,l,1,0.46100718999514356,575.2611311505607,575.2611311505607,575.2611311505607,,,,,,,,,,,,,,,,,,,,,,,,,,,,134,001,2010-10-16_15h09.30.592,eb_01,2022.2.4,120.02644782655808,
,,,1,0,1,0,29,0,29,0,,,,,,,,,,,,,,,,,,,,,,,,,,,,,,,,,,,,,,,,,,,,,,,,,,,,,,,,,,,134,001,2010-10-16_15h09.30.592,eb_01,2022.2.4,120.02644782655808,
8,stimuli/8.png,l,1,0,1,0,30,0,30,0,0,0,0,0,,,,,,,,,,,,,,,,,,576.2612165739702,576.2612165739702,576.2612165739702,576.2612165739702,l,1,0.46524696709821,576.7445741055417,576.7445741055417,576.7445741055417,,,,,,,,,,,,,,,,,,,,,,,,,,,,134,001,2010-10-16_15h09.30.592,eb_01,2022.2.4,120.02644782655808,
,,,1,0,1,0,30,0,30,0,,,,,,,,,,,,,,,,,,,,,,,,,,,,,,,,,,,,,,,,,,,,,,,,,,,,,,,,,,,134,001,2010-10-16_15h09.30.592,eb_01,2022.2.4,120.02644782655808,
3,stimuli/3.png,l,1,0,1,0,31,0,31,0,0,0,0,0,,,,,,,,,,,,,,,,,,577.7530436987581,577.7530436987581,577.7530436987581,577.7530436987581,l,1,0.549442130868556,578.3114256046829,578.3114256046829,578.3114256046829,579.3198010208725,579.3198010208725,579.3198010208725,,,,,,,,,,,,,,,,,,,,,,,,,134,001,2010-10-16_15h09.30.592,eb_01,2022.2.4,120.02644782655808,
,,,1,0,1,0,31,0,31,0,,,,,,,,,,,,,,,,,,,,,,,,,,,,,,,,,,,,,,,,,,,,,,,,,,,,,,,,,,,134,001,2010-10-16_15h09.30.592,eb_01,2022.2.4,120.02644782655808,
8,stimuli/8.png,l,1,0,1,0,32,0,32,0,0,0,0,0,,,,,,,,,,,,,,,,,,579.3198010208725,579.3198010208725,579.3198010208725,579.3198010208725,l,1,0.48671208388987,579.8281716074562,579.8281716074562,579.8281716074562,,,,,,,,,,,,,,,,,,,,,,,,,,,,134,001,2010-10-16_15h09.30.592,eb_01,2022.2.4,120.02644782655808,
,,,1,0,1,0,32,0,32,0,,,,,,,,,,,,,,,,,,,,,,,,,,,,,,,,,,,,,,,,,,,,,,,,,,,,,,,,,,,134,001,2010-10-16_15h09.30.592,eb_01,2022.2.4,120.02644782655808,
3,stimuli/3.png,l,1,0,1,0,33,0,33,0,0,0,0,0,,,,,,,,,,,,,,,,,,580.8366716874298,580.8366716874298,580.8366716874298,580.8366716874298,l,1,0.5218769389612135,581.3700191070675,581.3700191070675,581.3700191070675,582.3783933158556,582.3783933158556,582.3783933158556,,,,,,,,,,,,,,,,,,,,,,,,,134,001,2010-10-16_15h09.30.592,eb_01,2022.2.4,120.02644782655808,
,,,1,0,1,0,33,0,33,0,,,,,,,,,,,,,,,,,,,,,,,,,,,,,,,,,,,,,,,,,,,,,,,,,,,,,,,,,,,134,001,2010-10-16_15h09.30.592,eb_01,2022.2.4,120.02644782655808,
8,stimuli/8.png,l,1,0,1,0,34,0,34,0,0,0,0,0,,,,,,,,,,,,,,,,,,582.3783933158556,582.3783933158556,582.3783933158556,582.3783933158556,l,1,0.5792156532697845,582.9784893039614,582.9784893039614,582.9784893039614,,,,,,,,,,,,,,,,,,,,,,,,,,,,134,001,2010-10-16_15h09.30.592,eb_01,2022.2.4,120.02644782655808,
,,,1,0,1,0,34,0,34,0,,,,,,,,,,,,,,,,,,,,,,,,,,,,,,,,,,,,,,,,,,,,,,,,,,,,,,,,,,,134,001,2010-10-16_15h09.30.592,eb_01,2022.2.4,120.02644782655808,
6,stimuli/6.png,s,1,0,1,0,35,0,35,0,0,0,0,0,,,,,,,,,,,,,,,,,,584.0035929137957,584.0035929137957,584.0035929137957,584.0035929137957,s,1,0.5620250263018534,584.5952881303965,584.5952881303965,584.5952881303965,,,,,,,,,,,,,,,,,,,,,,,,,,,,134,001,2010-10-16_15h09.30.592,eb_01,2022.2.4,120.02644782655808,
,,,1,0,1,0,35,0,35,0,,,,,,,,,,,,,,,,,,,,,,,,,,,,,,,,,,,,,,,,,,,,,,,,,,,,,,,,,,,134,001,2010-10-16_15h09.30.592,eb_01,2022.2.4,120.02644782655808,
5,stimuli/5.png,s,1,0,1,0,36,0,36,0,0,0,0,0,,,,,,,,,,,,,,,,,,585.5953485002683,585.5953485002683,585.5953485002683,585.5953485002683,s,1,0.4022905330348294,586.020403512317,586.020403512317,586.020403512317,,,,,,,,,,,,,,,,,,,,,,,,,,,,134,001,2010-10-16_15h09.30.592,eb_01,2022.2.4,120.02644782655808,
,,,1,0,1,0,36,0,36,0,,,,,,,,,,,,,,,,,,,,,,,,,,,,,,,,,,,,,,,,,,,,,,,,,,,,,,,,,,,134,001,2010-10-16_15h09.30.592,eb_01,2022.2.4,120.02644782655808,
6,stimuli/6.png,s,1,0,1,0,37,0,37,0,0,0,0,0,,,,,,,,,,,,,,,,,,587.045503198111,587.045503198111,587.045503198111,587.045503198111,s,1,0.4081953116110526,587.4788515232794,587.4788515232794,587.4788515232794,,,,,,,,,,,,,,,,,,,,,,,,,,,,134,001,2010-10-16_15h09.30.592,eb_01,2022.2.4,120.02644782655808,
,,,1,0,1,0,37,0,37,0,,,,,,,,,,,,,,,,,,,,,,,,,,,,,,,,,,,,,,,,,,,,,,,,,,,,,,,,,,,134,001,2010-10-16_15h09.30.592,eb_01,2022.2.4,120.02644782655808,
8,stimuli/8.png,l,1,0,1,0,38,0,38,0,0,0,0,0,,,,,,,,,,,,,,,,,,588.4789973165607,588.4789973165607,588.4789973165607,588.4789973165607,l,1,0.5107257154013496,589.0123036846926,589.0123036846926,589.0123036846926,,,,,,,,,,,,,,,,,,,,,,,,,,,,134,001,2010-10-16_15h09.30.592,eb_01,2022.2.4,120.02644782655808,
,,,1,0,1,0,38,0,38,0,,,,,,,,,,,,,,,,,,,,,,,,,,,,,,,,,,,,,,,,,,,,,,,,,,,,,,,,,,,134,001,2010-10-16_15h09.30.592,eb_01,2022.2.4,120.02644782655808,
9,stimuli/9.png,l,1,0,1,0,39,0,39,0,0,0,0,0,,,,,,,,,,,,,,,,,,590.0290584410832,590.0290584410832,590.0290584410832,590.0290584410832,l,1,0.5766692514589522,590.6374640422,590.6374640422,590.6374640422,,,,,,,,,,,,,,,,,,,,,,,,,,,,134,001,2010-10-16_15h09.30.592,eb_01,2022.2.4,120.02644782655808,
,,,1,0,1,0,39,0,39,0,,,,,,,,,,,,,,,,,,,,,,,,,,,,,,,,,,,,,,,,,,,,,,,,,,,,,,,,,,,134,001,2010-10-16_15h09.30.592,eb_01,2022.2.4,120.02644782655808,
6,stimuli/6.png,s,1,0,1,0,40,0,40,0,0,0,0,0,,,,,,,,,,,,,,,,,,591.6541988765239,591.6541988765239,591.6541988765239,591.6541988765239,s,1,0.42355854212655686,592.104256378836,592.104256378836,592.104256378836,,,,,,,,,,,,,,,,,,,,,,,,,,,,134,001,2010-10-16_15h09.30.592,eb_01,2022.2.4,120.02644782655808,
,,,1,0,1,0,40,0,40,0,,,,,,,,,,,,,,,,,,,,,,,,,,,,,,,,,,,,,,,,,,,,,,,,,,,,,,,,,,,134,001,2010-10-16_15h09.30.592,eb_01,2022.2.4,120.02644782655808,
8,stimuli/8.png,l,1,0,1,0,41,0,41,0,0,0,0,0,,,,,,,,,,,,,,,,,,593.1126912593609,593.1126912593609,593.1126912593609,593.1126912593609,l,1,1.0851219410833437,594.2211013882188,594.2211013882188,594.2211013882188,,,,,,,,,,,,,,,,,,,,,,,,,,,,134,001,2010-10-16_15h09.30.592,eb_01,2022.2.4,120.02644782655808,
,,,1,0,1,0,41,0,41,0,,,,,,,,,,,,,,,,,,,,,,,,,,,,,,,,,,,,,,,,,,,,,,,,,,,,,,,,,,,134,001,2010-10-16_15h09.30.592,eb_01,2022.2.4,120.02644782655808,
9,stimuli/9.png,l,1,0,1,0,42,0,42,0,0,0,0,0,,,,,,,,,,,,,,,,,,595.2378464854264,595.2378464854264,595.2378464854264,595.2378464854264,l,1,0.4320051947433967,595.6961997156614,595.6961997156614,595.6961997156614,,,,,,,,,,,,,,,,,,,,,,,,,,,,134,001,2010-10-16_15h09.30.592,eb_01,2022.2.4,120.02644782655808,
,,,1,0,1,0,42,0,42,0,,,,,,,,,,,,,,,,,,,,,,,,,,,,,,,,,,,,,,,,,,,,,,,,,,,,,,,,,,,134,001,2010-10-16_15h09.30.592,eb_01,2022.2.4,120.02644782655808,
5,stimuli/5.png,s,1,0,1,0,43,0,43,0,0,0,0,0,,,,,,,,,,,,,,,,,,596.6963452071068,596.6963452071068,596.6963452071068,596.6963452071068,s,1,0.9085904325183947,597.6296908156364,597.6296908156364,597.6296908156364,,,,,,,,,,,,,,,,,,,,,,,,,,,,134,001,2010-10-16_15h09.30.592,eb_01,2022.2.4,120.02644782655808,
,,,1,0,1,0,43,0,43,0,,,,,,,,,,,,,,,,,,,,,,,,,,,,,,,,,,,,,,,,,,,,,,,,,,,,,,,,,,,134,001,2010-10-16_15h09.30.592,eb_01,2022.2.4,120.02644782655808,
6,stimuli/6.png,s,1,0,1,0,44,0,44,0,0,0,0,0,,,,,,,,,,,,,,,,,,598.6548119327344,598.6548119327344,598.6548119327344,598.6548119327344,s,1,0.5100785502290819,599.1965296370909,599.1965296370909,599.1965296370909,,,,,,,,,,,,,,,,,,,,,,,,,,,,134,001,2010-10-16_15h09.30.592,eb_01,2022.2.4,120.02644782655808,
,,,1,0,1,0,44,0,44,0,,,,,,,,,,,,,,,,,,,,,,,,,,,,,,,,,,,,,,,,,,,,,,,,,,,,,,,,,,,134,001,2010-10-16_15h09.30.592,eb_01,2022.2.4,120.02644782655808,
9,stimuli/9.png,l,1,0,1,0,45,0,45,0,0,0,0,0,,,,,,,,,,,,,,,,,,600.2049295030884,600.2049295030884,600.2049295030884,600.2049295030884,l,1,0.4399990732781589,600.671665092028,600.671665092028,600.671665092028,,,,,,,,,,,,,,,,,,,,,,,,,,,,134,001,2010-10-16_15h09.30.592,eb_01,2022.2.4,120.02644782655808,
,,,1,0,1,0,45,0,45,0,,,,,,,,,,,,,,,,,,,,,,,,,,,,,,,,,,,,,,,,,,,,,,,,,,,,,,,,,,,134,001,2010-10-16_15h09.30.592,eb_01,2022.2.4,120.02644782655808,
5,stimuli/5.png,s,1,0,1,0,46,0,46,0,0,0,0,0,,,,,,,,,,,,,,,,,,601.6717526283755,601.6717526283755,601.6717526283755,601.6717526283755,s,1,0.4052383945963811,602.0967572315712,602.0967572315712,602.0967572315712,,,,,,,,,,,,,,,,,,,,,,,,,,,,134,001,2010-10-16_15h09.30.592,eb_01,2022.2.4,120.02644782655808,
,,,1,0,1,0,46,0,46,0,,,,,,,,,,,,,,,,,,,,,,,,,,,,,,,,,,,,,,,,,,,,,,,,,,,,,,,,,,,134,001,2010-10-16_15h09.30.592,eb_01,2022.2.4,120.02644782655808,
6,stimuli/6.png,s,1,0,1,0,47,0,47,0,0,0,0,0,,,,,,,,,,,,,,,,,,603.1218436359777,603.1218436359777,603.1218436359777,603.1218436359777,s,1,0.4191470126679633,603.5719129104109,603.5719129104109,603.5719129104109,,,,,,,,,,,,,,,,,,,,,,,,,,,,134,001,2010-10-16_15h09.30.592,eb_01,2022.2.4,120.02644782655808,
,,,1,0,1,0,47,0,47,0,,,,,,,,,,,,,,,,,,,,,,,,,,,,,,,,,,,,,,,,,,,,,,,,,,,,,,,,,,,134,001,2010-10-16_15h09.30.592,eb_01,2022.2.4,120.02644782655808,
5,stimuli/5.png,s,1,0,1,0,48,0,48,0,0,0,0,0,,,,,,,,,,,,,,,,,,604.5719687525707,604.5719687525707,604.5719687525707,604.5719687525707,s,1,0.449044897017302,605.0387046433461,605.0387046433461,605.0387046433461,,,,,,,,,,,,,,,,,,,,,,,,,,,,134,001,2010-10-16_15h09.30.592,eb_01,2022.2.4,120.02644782655808,
,,,1,0,1,0,48,0,48,0,,,,,,,,,,,,,,,,,,,,,,,,,,,,,,,,,,,,,,,,,,,,,,,,,,,,,,,,,,,134,001,2010-10-16_15h09.30.592,eb_01,2022.2.4,120.02644782655808,
9,stimuli/9.png,l,1,0,1,0,49,0,49,0,0,0,0,0,,,,,,,,,,,,,,,,,,606.0554584942001,606.0554584942001,606.0554584942001,606.0554584942001,l,1,0.3815549863211345,606.463802518032,606.463802518032,606.463802518032,,,,,,,,,,,,,,,,,,,,,,,,,,,,134,001,2010-10-16_15h09.30.592,eb_01,2022.2.4,120.02644782655808,
,,,1,0,1,0,49,0,49,0,,,,,,,,,,,,,,,,,,,,,,,,,,,,,,,,,,,,,,,,,,,,,,,,,,,,,,,,,,,134,001,2010-10-16_15h09.30.592,eb_01,2022.2.4,120.02644782655808,
5,stimuli/5.png,s,1,0,1,0,50,0,50,0,0,0,0,0,,,,,,,,,,,,,,,,,,607.4638646990352,607.4638646990352,607.4638646990352,607.4638646990352,s,1,0.47723672835854813,607.9639443872729,607.9639443872729,607.9639443872729,,,,,,,,,,,,,,,,,,,,,,,,,,,,134,001,2010-10-16_15h09.30.592,eb_01,2022.2.4,120.02644782655808,
,,,1,0,1,0,50,0,50,0,,,,,,,,,,,,,,,,,,,,,,,,,,,,,,,,,,,,,,,,,,,,,,,,,,,,,,,,,,,134,001,2010-10-16_15h09.30.592,eb_01,2022.2.4,120.02644782655808,
9,stimuli/9.png,l,1,0,1,0,51,0,51,0,0,0,0,0,,,,,,,,,,,,,,,,,,608.9806792215968,608.9806792215968,608.9806792215968,608.9806792215968,l,1,0.40041152032790706,609.4140915388707,609.4140915388707,609.4140915388707,,,,,,,,,,,,,,,,,,,,,,,,,,,,134,001,2010-10-16_15h09.30.592,eb_01,2022.2.4,120.02644782655808,
,,,1,0,1,0,51,0,51,0,,,,,,,,,,,,,,,,,,,,,,,,,,,,,,,,,,,,,,,,,,,,,,,,,,,,,,,,,,,134,001,2010-10-16_15h09.30.592,eb_01,2022.2.4,120.02644782655808,
8,stimuli/8.png,l,1,0,1,0,52,0,52,0,0,0,0,0,,,,,,,,,,,,,,,,,,610.4141256478615,610.4141256478615,610.4141256478615,610.4141256478615,l,1,0.5350197650550399,610.9725398516748,610.9725398516748,610.9725398516748,,,,,,,,,,,,,,,,,,,,,,,,,,,,134,001,2010-10-16_15h09.30.592,eb_01,2022.2.4,120.02644782655808,
,,,1,0,1,0,52,0,52,0,,,,,,,,,,,,,,,,,,,,,,,,,,,,,,,,,,,,,,,,,,,,,,,,,,,,,,,,,,,134,001,2010-10-16_15h09.30.592,eb_01,2022.2.4,120.02644782655808,
9,stimuli/9.png,l,1,0,1,0,53,0,53,0,0,0,0,0,,,,,,,,,,,,,,,,,,611.989290684025,611.989290684025,611.989290684025,611.989290684025,l,1,0.4398750131367706,612.4560036342882,612.4560036342882,612.4560036342882,,,,,,,,,,,,,,,,,,,,,,,,,,,,134,001,2010-10-16_15h09.30.592,eb_01,2022.2.4,120.02644782655808,
,,,1,0,1,0,53,0,53,0,,,,,,,,,,,,,,,,,,,,,,,,,,,,,,,,,,,,,,,,,,,,,,,,,,,,,,,,,,,134,001,2010-10-16_15h09.30.592,eb_01,2022.2.4,120.02644782655808,
6,stimuli/6.png,s,1,0,1,0,54,0,54,0,0,0,0,0,,,,,,,,,,,,,,,,,,613.472724281688,613.472724281688,613.472724281688,613.472724281688,s,1,0.4675220062781591,613.9727692572633,613.9727692572633,613.9727692572633,,,,,,,,,,,,,,,,,,,,,,,,,,,,134,001,2010-10-16_15h09.30.592,eb_01,2022.2.4,120.02644782655808,
,,,1,0,1,0,54,0,54,0,,,,,,,,,,,,,,,,,,,,,,,,,,,,,,,,,,,,,,,,,,,,,,,,,,,,,,,,,,,134,001,2010-10-16_15h09.30.592,eb_01,2022.2.4,120.02644782655808,
5,stimuli/5.png,s,1,0,1,0,55,0,55,0,0,0,0,0,,,,,,,,,,,,,,,,,,614.9728453232965,614.9728453232965,614.9728453232965,614.9728453232965,s,1,0.47938559448812157,615.4728942229121,615.4728942229121,615.4728942229121,,,,,,,,,,,,,,,,,,,,,,,,,,,,134,001,2010-10-16_15h09.30.592,eb_01,2022.2.4,120.02644782655808,
,,,1,0,1,0,55,0,55,0,,,,,,,,,,,,,,,,,,,,,,,,,,,,,,,,,,,,,,,,,,,,,,,,,,,,,,,,,,,134,001,2010-10-16_15h09.30.592,eb_01,2022.2.4,120.02644782655808,
9,stimuli/9.png,l,1,0,1,0,56,0,56,0,0,0,0,0,,,,,,,,,,,,,,,,,,616.4896341886779,616.4896341886779,616.4896341886779,616.4896341886779,l,1,0.3706416201312095,616.8896833901526,616.8896833901526,616.8896833901526,,,,,,,,,,,,,,,,,,,,,,,,,,,,134,001,2010-10-16_15h09.30.592,eb_01,2022.2.4,120.02644782655808,
,,,1,0,1,0,56,0,56,0,,,,,,,,,,,,,,,,,,,,,,,,,,,,,,,,,,,,,,,,,,,,,,,,,,,,,,,,,,,134,001,2010-10-16_15h09.30.592,eb_01,2022.2.4,120.02644782655808,
8,stimuli/8.png,l,1,0,1,0,57,0,57,0,0,0,0,0,,,,,,,,,,,,,,,,,,617.8898011114215,617.8898011114215,617.8898011114215,617.8898011114215,l,1,0.6344900192925707,618.5481410602806,618.5481410602806,618.5481410602806,,,,,,,,,,,,,,,,,,,,,,,,,,,,134,001,2010-10-16_15h09.30.592,eb_01,2022.2.4,120.02644782655808,
,,,1,0,1,0,57,0,57,0,,,,,,,,,,,,,,,,,,,,,,,,,,,,,,,,,,,,,,,,,,,,,,,,,,,,,,,,,,,134,001,2010-10-16_15h09.30.592,eb_01,2022.2.4,120.02644782655808,
6,stimuli/6.png,s,1,0,1,0,58,0,58,0,0,0,0,0,,,,,,,,,,,,,,,,,,619.573266101419,619.573266101419,619.573266101419,619.573266101419,s,1,0.551076947391266,620.1566477809683,620.1566477809683,620.1566477809683,,,,,,,,,,,,,,,,,,,,,,,,,,,,134,001,2010-10-16_15h09.30.592,eb_01,2022.2.4,120.02644782655808,
,,,1,0,1,0,58,0,58,0,,,,,,,,,,,,,,,,,,,,,,,,,,,,,,,,,,,,,,,,,,,,,,,,,,,,,,,,,,,134,001,2010-10-16_15h09.30.592,eb_01,2022.2.4,120.02644782655808,
5,stimuli/5.png,s,1,0,1,0,59,0,59,0,0,0,0,0,,,,,,,,,,,,,,,,,,621.156715697085,621.156715697085,621.156715697085,621.156715697085,s,1,0.5516658556298353,621.7317805192433,621.7317805192433,621.7317805192433,,,,,,,,,,,,,,,,,,,,,,,,,,,,134,001,2010-10-16_15h09.30.592,eb_01,2022.2.4,120.02644782655808,
,,,1,0,1,0,59,0,59,0,,,,,,,,,,,,,,,,,,,,,,,,,,,,,,,,,,,,,,,,,,,,,,,,,,,,,,,,,,,134,001,2010-10-16_15h09.30.592,eb_01,2022.2.4,120.02644782655808,
9,stimuli/9.png,l,1,0,1,0,60,0,60,0,0,0,0,0,,,,,,,,,,,,,,,,,,622.7485509718244,622.7485509718244,622.7485509718244,622.7485509718244,l,1,0.48782741752802394,623.265212154889,623.265212154889,623.265212154889,,,,,,,,,,,,,,,,,,,,,,,,,,,,134,001,2010-10-16_15h09.30.592,eb_01,2022.2.4,120.02644782655808,
,,,1,0,1,0,60,0,60,0,,,,,,,,,,,,,,,,,,,,,,,,,,,,,,,,,,,,,,,,,,,,,,,,,,,,,,,,,,,134,001,2010-10-16_15h09.30.592,eb_01,2022.2.4,120.02644782655808,
5,stimuli/5.png,s,1,0,1,0,61,0,61,0,0,0,0,0,,,,,,,,,,,,,,,,,,624.2653458741843,624.2653458741843,624.2653458741843,624.2653458741843,s,1,1.2830754019378219,625.5654297883157,625.5654297883157,625.5654297883157,,,,,,,,,,,,,,,,,,,,,,,,,,,,134,001,2010-10-16_15h09.30.592,eb_01,2022.2.4,120.02644782655808,
,,,1,0,1,0,61,0,61,0,,,,,,,,,,,,,,,,,,,,,,,,,,,,,,,,,,,,,,,,,,,,,,,,,,,,,,,,,,,134,001,2010-10-16_15h09.30.592,eb_01,2022.2.4,120.02644782655808,
9,stimuli/9.png,l,1,0,1,0,62,0,62,0,0,0,0,0,,,,,,,,,,,,,,,,,,626.5821622078656,626.5821622078656,626.5821622078656,626.5821622078656,l,1,0.6623039351543412,627.2739322831039,627.2739322831039,627.2739322831039,,,,,,,,,,,,,,,,,,,,,,,,,,,,134,001,2010-10-16_15h09.30.592,eb_01,2022.2.4,120.02644782655808,
,,,1,0,1,0,62,0,62,0,,,,,,,,,,,,,,,,,,,,,,,,,,,,,,,,,,,,,,,,,,,,,,,,,,,,,,,,,,,134,001,2010-10-16_15h09.30.592,eb_01,2022.2.4,120.02644782655808,
5,stimuli/5.png,s,1,0,1,0,63,0,63,0,0,0,0,0,,,,,,,,,,,,,,,,,,628.2740192157507,628.2740192157507,628.2740192157507,628.2740192157507,s,1,0.5375296430720482,628.8323987069016,628.8323987069016,628.8323987069016,,,,,,,,,,,,,,,,,,,,,,,,,,,,134,001,2010-10-16_15h09.30.592,eb_01,2022.2.4,120.02644782655808,
,,,1,0,1,0,63,0,63,0,,,,,,,,,,,,,,,,,,,,,,,,,,,,,,,,,,,,,,,,,,,,,,,,,,,,,,,,,,,134,001,2010-10-16_15h09.30.592,eb_01,2022.2.4,120.02644782655808,
9,stimuli/9.png,l,1,0,1,0,64,0,64,0,0,0,0,0,,,,,,,,,,,,,,,,,,629.8491063747788,629.8491063747788,629.8491063747788,629.8491063747788,l,1,0.44241598166991025,630.3241802524135,630.3241802524135,630.3241802524135,,,,,,,,,,,,,,,,,,,,,,,,,,,,134,001,2010-10-16_15h09.30.592,eb_01,2022.2.4,120.02644782655808,
,,,1,0,1,0,64,0,64,0,,,,,,,,,,,,,,,,,,,,,,,,,,,,,,,,,,,,,,,,,,,,,,,,,,,,,,,,,,,134,001,2010-10-16_15h09.30.592,eb_01,2022.2.4,120.02644782655808,
5,stimuli/5.png,s,1,0,1,0,65,0,65,0,0,0,0,0,,,,,,,,,,,,,,,,,,631.3242490740959,631.3242490740959,631.3242490740959,631.3242490740959,s,1,0.40732447599293664,631.7492826548405,631.7492826548405,631.7492826548405,,,,,,,,,,,,,,,,,,,,,,,,,,,,134,001,2010-10-16_15h09.30.592,eb_01,2022.2.4,120.02644782655808,
,,,1,0,1,0,65,0,65,0,,,,,,,,,,,,,,,,,,,,,,,,,,,,,,,,,,,,,,,,,,,,,,,,,,,,,,,,,,,134,001,2010-10-16_15h09.30.592,eb_01,2022.2.4,120.02644782655808,
9,stimuli/9.png,l,1,0,1,0,66,0,66,0,0,0,0,0,,,,,,,,,,,,,,,,,,632.7660389204684,632.7660389204684,632.7660389204684,632.7660389204684,l,1,0.5015832998324186,633.2994385600614,633.2994385600614,633.2994385600614,,,,,,,,,,,,,,,,,,,,,,,,,,,,134,001,2010-10-16_15h09.30.592,eb_01,2022.2.4,120.02644782655808,
,,,1,0,1,0,66,0,66,0,,,,,,,,,,,,,,,,,,,,,,,,,,,,,,,,,,,,,,,,,,,,,,,,,,,,,,,,,,,134,001,2010-10-16_15h09.30.592,eb_01,2022.2.4,120.02644782655808,
8,stimuli/8.png,l,1,0,1,0,67,0,67,0,0,0,0,0,,,,,,,,,,,,,,,,,,634.2995227760694,634.2995227760694,634.2995227760694,634.2995227760694,l,1,0.8641099003143609,635.182940677536,635.182940677536,635.182940677536,,,,,,,,,,,,,,,,,,,,,,,,,,,,134,001,2010-10-16_15h09.30.592,eb_01,2022.2.4,120.02644782655808,
,,,1,0,1,0,67,0,67,0,,,,,,,,,,,,,,,,,,,,,,,,,,,,,,,,,,,,,,,,,,,,,,,,,,,,,,,,,,,134,001,2010-10-16_15h09.30.592,eb_01,2022.2.4,120.02644782655808,
6,stimuli/6.png,s,1,0,1,0,68,0,68,0,0,0,0,0,,,,,,,,,,,,,,,,,,636.208018630161,636.208018630161,636.208018630161,636.208018630161,s,1,0.8836498213931918,637.1248059862992,637.1248059862992,637.1248059862992,,,,,,,,,,,,,,,,,,,,,,,,,,,,134,001,2010-10-16_15h09.30.592,eb_01,2022.2.4,120.02644782655808,
,,,1,0,1,0,68,0,68,0,,,,,,,,,,,,,,,,,,,,,,,,,,,,,,,,,,,,,,,,,,,,,,,,,,,,,,,,,,,134,001,2010-10-16_15h09.30.592,eb_01,2022.2.4,120.02644782655808,
8,stimuli/8.png,l,1,0,1,0,69,0,69,0,0,0,0,0,,,,,,,,,,,,,,,,,,638.124878128292,638.124878128292,638.124878128292,638.124878128292,l,1,0.47081518356571905,638.6165552339226,638.6165552339226,638.6165552339226,,,,,,,,,,,,,,,,,,,,,,,,,,,,134,001,2010-10-16_15h09.30.592,eb_01,2022.2.4,120.02644782655808,
,,,1,0,1,0,69,0,69,0,,,,,,,,,,,,,,,,,,,,,,,,,,,,,,,,,,,,,,,,,,,,,,,,,,,,,,,,,,,134,001,2010-10-16_15h09.30.592,eb_01,2022.2.4,120.02644782655808,
6,stimuli/6.png,s,1,0,1,0,70,0,70,0,0,0,0,0,,,,,,,,,,,,,,,,,,639.6416434494313,639.6416434494313,639.6416434494313,639.6416434494313,s,1,0.4340849373547826,640.108330742456,640.108330742456,640.108330742456,,,,,,,,,,,,,,,,,,,,,,,,,,,,134,001,2010-10-16_15h09.30.592,eb_01,2022.2.4,120.02644782655808,
,,,1,0,1,0,70,0,70,0,,,,,,,,,,,,,,,,,,,,,,,,,,,,,,,,,,,,,,,,,,,,,,,,,,,,,,,,,,,134,001,2010-10-16_15h09.30.592,eb_01,2022.2.4,120.02644782655808,
9,stimuli/9.png,l,1,0,1,0,71,0,71,0,0,0,0,0,,,,,,,,,,,,,,,,,,641.116758076736,641.116758076736,641.116758076736,641.116758076736,l,1,0.4630172053584829,641.608474724635,641.608474724635,641.608474724635,,,,,,,,,,,,,,,,,,,,,,,,,,,,134,001,2010-10-16_15h09.30.592,eb_01,2022.2.4,120.02644782655808,
,,,1,0,1,0,71,0,71,0,,,,,,,,,,,,,,,,,,,,,,,,,,,,,,,,,,,,,,,,,,,,,,,,,,,,,,,,,,,134,001,2010-10-16_15h09.30.592,eb_01,2022.2.4,120.02644782655808,
8,stimuli/8.png,l,1,0,1,0,72,0,72,0,0,0,0,0,,,,,,,,,,,,,,,,,,642.6085625628184,642.6085625628184,642.6085625628184,642.6085625628184,l,1,0.45926883912761696,643.0919219055213,643.0919219055213,643.0919219055213,,,,,,,,,,,,,,,,,,,,,,,,,,,,134,001,2010-10-16_15h09.30.592,eb_01,2022.2.4,120.02644782655808,
,,,1,0,1,0,72,0,72,0,,,,,,,,,,,,,,,,,,,,,,,,,,,,,,,,,,,,,,,,,,,,,,,,,,,,,,,,,,,134,001,2010-10-16_15h09.30.592,eb_01,2022.2.4,120.02644782655808,
9,stimuli/9.png,l,1,0,1,0,73,0,73,0,0,0,0,0,,,,,,,,,,,,,,,,,,644.1087032246578,644.1087032246578,644.1087032246578,644.1087032246578,l,1,0.49511677943519317,644.6337271462253,644.6337271462253,644.6337271462253,,,,,,,,,,,,,,,,,,,,,,,,,,,,134,001,2010-10-16_15h09.30.592,eb_01,2022.2.4,120.02644782655808,
,,,1,0,1,0,73,0,73,0,,,,,,,,,,,,,,,,,,,,,,,,,,,,,,,,,,,,,,,,,,,,,,,,,,,,,,,,,,,134,001,2010-10-16_15h09.30.592,eb_01,2022.2.4,120.02644782655808,
6,stimuli/6.png,s,1,0,1,0,74,0,74,0,0,0,0,0,,,,,,,,,,,,,,,,,,645.6505012209818,645.6505012209818,645.6505012209818,645.6505012209818,s,1,0.4563698771817144,646.1338433582569,646.1338433582569,646.1338433582569,,,,,,,,,,,,,,,,,,,,,,,,,,,,134,001,2010-10-16_15h09.30.592,eb_01,2022.2.4,120.02644782655808,
,,,1,0,1,0,74,0,74,0,,,,,,,,,,,,,,,,,,,,,,,,,,,,,,,,,,,,,,,,,,,,,,,,,,,,,,,,,,,134,001,2010-10-16_15h09.30.592,eb_01,2022.2.4,120.02644782655808,
9,stimuli/9.png,l,1,0,1,0,75,0,75,0,0,0,0,0,,,,,,,,,,,,,,,,,,647.1422646555584,647.1422646555584,647.1422646555584,647.1422646555584,l,1,0.428613010852132,647.6006366004585,647.6006366004585,647.6006366004585,,,,,,,,,,,,,,,,,,,,,,,,,,,,134,001,2010-10-16_15h09.30.592,eb_01,2022.2.4,120.02644782655808,
,,,1,0,1,0,75,0,75,0,,,,,,,,,,,,,,,,,,,,,,,,,,,,,,,,,,,,,,,,,,,,,,,,,,,,,,,,,,,134,001,2010-10-16_15h09.30.592,eb_01,2022.2.4,120.02644782655808,
8,stimuli/8.png,l,1,0,1,0,76,0,76,0,0,0,0,0,,,,,,,,,,,,,,,,,,648.6007226275397,648.6007226275397,648.6007226275397,648.6007226275397,l,1,0.4741862380178645,649.0924558771658,649.0924558771658,649.0924558771658,,,,,,,,,,,,,,,,,,,,,,,,,,,,134,001,2010-10-16_15h09.30.592,eb_01,2022.2.4,120.02644782655808,
,,,1,0,1,0,76,0,76,0,,,,,,,,,,,,,,,,,,,,,,,,,,,,,,,,,,,,,,,,,,,,,,,,,,,,,,,,,,,134,001,2010-10-16_15h09.30.592,eb_01,2022.2.4,120.02644782655808,
3,stimuli/3.png,l,1,0,1,0,77,0,77,0,0,0,0,0,,,,,,,,,,,,,,,,,,650.1008370284981,650.1008370284981,650.1008370284981,650.1008370284981,l,1,0.5421769169042818,650.6592509304755,650.6592509304755,650.6592509304755,651.6676369113557,651.6676369113557,651.6676369113557,,,,,,,,,,,,,,,,,,,,,,,,,134,001,2010-10-16_15h09.30.592,eb_01,2022.2.4,120.02644782655808,
,,,1,0,1,0,77,0,77,0,,,,,,,,,,,,,,,,,,,,,,,,,,,,,,,,,,,,,,,,,,,,,,,,,,,,,,,,,,,134,001,2010-10-16_15h09.30.592,eb_01,2022.2.4,120.02644782655808,
8,stimuli/8.png,l,1,0,1,0,78,0,78,0,0,0,0,0,,,,,,,,,,,,,,,,,,651.6676369113557,651.6676369113557,651.6676369113557,651.6676369113557,l,1,0.4473475976847112,652.1343860835477,652.1343860835477,652.1343860835477,,,,,,,,,,,,,,,,,,,,,,,,,,,,134,001,2010-10-16_15h09.30.592,eb_01,2022.2.4,120.02644782655808,
,,,1,0,1,0,78,0,78,0,,,,,,,,,,,,,,,,,,,,,,,,,,,,,,,,,,,,,,,,,,,,,,,,,,,,,,,,,,,134,001,2010-10-16_15h09.30.592,eb_01,2022.2.4,120.02644782655808,
3,stimuli/3.png,l,1,0,1,0,79,0,79,0,0,0,0,0,,,,,,,,,,,,,,,,,,653.1427584812336,653.1427584812336,653.1427584812336,653.1427584812336,l,1,0.34025594711420126,653.501122879883,653.501122879883,653.501122879883,,,,,,,,,,,,,,,,,,,,,,,,,,,,134,001,2010-10-16_15h09.30.592,eb_01,2022.2.4,120.02644782655808,
,,,1,0,1,0,79,0,79,0,,,,,,,,,,,,,,,,,,,,,,,,,,,,,,,,,,,,,,,,,,,,,,,,,,,,,,,,,,,134,001,2010-10-16_15h09.30.592,eb_01,2022.2.4,120.02644782655808,
8,stimuli/8.png,l,1,0,1,0,80,0,80,0,0,0,0,0,,,,,,,,,,,,,,,,,,654.509559873346,654.509559873346,654.509559873346,654.509559873346,l,1,0.3414615337678697,654.8679408737516,654.8679408737516,654.8679408737516,,,,,,,,,,,,,,,,,,,,,,,,,,,,134,001,2010-10-16_15h09.30.592,eb_01,2022.2.4,120.02644782655808,
,,,1,0,1,0,80,0,80,0,,,,,,,,,,,,,,,,,,,,,,,,,,,,,,,,,,,,,,,,,,,,,,,,,,,,,,,,,,,134,001,2010-10-16_15h09.30.592,eb_01,2022.2.4,120.02644782655808,
3,stimuli/3.png,l,1,0,1,0,81,0,81,0,0,0,0,0,,,,,,,,,,,,,,,,,,655.8763280620333,655.8763280620333,655.8763280620333,655.8763280620333,l,1,0.44672669339342974,656.3347452843736,656.3347452843736,656.3347452843736,657.3514680447115,657.3514680447115,657.3514680447115,,,,,,,,,,,,,,,,,,,,,,,,,134,001,2010-10-16_15h09.30.592,eb_01,2022.2.4,120.02644782655808,
,,,1,0,1,0,81,0,81,0,,,,,,,,,,,,,,,,,,,,,,,,,,,,,,,,,,,,,,,,,,,,,,,,,,,,,,,,,,,134,001,2010-10-16_15h09.30.592,eb_01,2022.2.4,120.02644782655808,
4,stimuli/4.png,l,1,0,1,0,82,0,82,0,0,0,0,0,,,,,,,,,,,,,,,,,,657.3514680447115,657.3514680447115,657.3514680447115,657.3514680447115,l,1,0.7316224496753421,658.101532791421,658.101532791421,658.101532791421,,,,,,,,,,,,,,,,,,,,,,,,,,,,134,001,2010-10-16_15h09.30.592,eb_01,2022.2.4,120.02644782655808,
,,,1,0,1,0,82,0,82,0,,,,,,,,,,,,,,,,,,,,,,,,,,,,,,,,,,,,,,,,,,,,,,,,,,,,,,,,,,,134,001,2010-10-16_15h09.30.592,eb_01,2022.2.4,120.02644782655808,
2,stimuli/2.png,s,1,0,1,0,83,0,83,0,0,0,0,0,,,,,,,,,,,,,,,,,,659.1099700867198,659.1099700867198,659.1099700867198,659.1099700867198,s,1,0.7651585252315272,659.8850487939781,659.8850487939781,659.8850487939781,660.9017558581545,660.9017558581545,660.9017558581545,,,,,,,,,,,,,,,,,,,,,,,,,134,001,2010-10-16_15h09.30.592,eb_01,2022.2.4,120.02644782655808,
,,,1,0,1,0,83,0,83,0,,,,,,,,,,,,,,,,,,,,,,,,,,,,,,,,,,,,,,,,,,,,,,,,,,,,,,,,,,,134,001,2010-10-16_15h09.30.592,eb_01,2022.2.4,120.02644782655808,
1,stimuli/1.png,s,1,0,1,0,84,0,84,0,0,0,0,0,,,,,,,,,,,,,,,,,,660.9017558581545,660.9017558581545,660.9017558581545,660.9017558581545,s,1,0.6044043846195564,661.5351576106914,661.5351576106914,661.5351576106914,,,,,,,,,,,,,,,,,,,,,,,,,,,,134,001,2010-10-16_15h09.30.592,eb_01,2022.2.4,120.02644782655808,
,,,1,0,1,0,84,0,84,0,,,,,,,,,,,,,,,,,,,,,,,,,,,,,,,,,,,,,,,,,,,,,,,,,,,,,,,,,,,134,001,2010-10-16_15h09.30.592,eb_01,2022.2.4,120.02644782655808,
2,stimuli/2.png,s,1,0,1,0,85,0,85,0,0,0,0,0,,,,,,,,,,,,,,,,,,662.5352753319603,662.5352753319603,662.5352753319603,662.5352753319603,s,1,0.6589325788372662,663.2103090636374,663.2103090636374,663.2103090636374,664.218751490378,664.218751490378,664.218751490378,,,,,,,,,,,,,,,,,,,,,,,,,134,001,2010-10-16_15h09.30.592,eb_01,2022.2.4,120.02644782655808,
,,,1,0,1,0,85,0,85,0,,,,,,,,,,,,,,,,,,,,,,,,,,,,,,,,,,,,,,,,,,,,,,,,,,,,,,,,,,,134,001,2010-10-16_15h09.30.592,eb_01,2022.2.4,120.02644782655808,
3,stimuli/3.png,l,1,0,1,0,86,0,86,0,0,0,0,0,,,,,,,,,,,,,,,,,,664.218751490378,664.218751490378,664.218751490378,664.218751490378,l,1,0.3674821621389128,664.6020709889708,664.6020709889708,664.6020709889708,665.6188707209076,665.6188707209076,665.6188707209076,,,,,,,,,,,,,,,,,,,,,,,,,134,001,2010-10-16_15h09.30.592,eb_01,2022.2.4,120.02644782655808,
,,,1,0,1,0,86,0,86,0,,,,,,,,,,,,,,,,,,,,,,,,,,,,,,,,,,,,,,,,,,,,,,,,,,,,,,,,,,,134,001,2010-10-16_15h09.30.592,eb_01,2022.2.4,120.02644782655808,
4,stimuli/4.png,l,1,0,1,0,87,0,87,0,0,0,0,0,,,,,,,,,,,,,,,,,,665.6188707209076,665.6188707209076,665.6188707209076,665.6188707209076,l,1,0.6553761888644658,666.2938830212806,666.2938830212806,666.2938830212806,,,,,,,,,,,,,,,,,,,,,,,,,,,,134,001,2010-10-16_15h09.30.592,eb_01,2022.2.4,120.02644782655808,
,,,1,0,1,0,87,0,87,0,,,,,,,,,,,,,,,,,,,,,,,,,,,,,,,,,,,,,,,,,,,,,,,,,,,,,,,,,,,134,001,2010-10-16_15h09.30.592,eb_01,2022.2.4,120.02644782655808,
2,stimuli/2.png,s,1,0,1,0,88,0,88,0,0,0,0,0,,,,,,,,,,,,,,,,,,667.3023342016677,667.3023342016677,667.3023342016677,667.3023342016677,s,1,0.4599307948956266,667.7773718573735,667.7773718573735,667.7773718573735,668.8024552432762,668.8024552432762,668.8024552432762,,,,,,,,,,,,,,,,,,,,,,,,,134,001,2010-10-16_15h09.30.592,eb_01,2022.2.4,120.02644782655808,
,,,1,0,1,0,88,0,88,0,,,,,,,,,,,,,,,,,,,,,,,,,,,,,,,,,,,,,,,,,,,,,,,,,,,,,,,,,,,134,001,2010-10-16_15h09.30.592,eb_01,2022.2.4,120.02644782655808,
1,stimuli/1.png,s,1,0,1,0,89,0,89,0,0,0,0,0,,,,,,,,,,,,,,,,,,668.8024552432762,668.8024552432762,668.8024552432762,668.8024552432762,s,1,0.5118594618397765,669.3441880401224,669.3441880401224,669.3441880401224,,,,,,,,,,,,,,,,,,,,,,,,,,,,134,001,2010-10-16_15h09.30.592,eb_01,2022.2.4,120.02644782655808,
,,,1,0,1,0,89,0,89,0,,,,,,,,,,,,,,,,,,,,,,,,,,,,,,,,,,,,,,,,,,,,,,,,,,,,,,,,,,,134,001,2010-10-16_15h09.30.592,eb_01,2022.2.4,120.02644782655808,
2,stimuli/2.png,s,1,0,1,0,90,0,90,0,0,0,0,0,,,,,,,,,,,,,,,,,,670.3442616913817,670.3442616913817,670.3442616913817,670.3442616913817,s,1,0.5620899239147548,670.9193358708872,670.9193358708872,670.9193358708872,671.9443960143835,671.9443960143835,671.9443960143835,,,,,,,,,,,,,,,,,,,,,,,,,134,001,2010-10-16_15h09.30.592,eb_01,2022.2.4,120.02644782655808,
,,,1,0,1,0,90,0,90,0,,,,,,,,,,,,,,,,,,,,,,,,,,,,,,,,,,,,,,,,,,,,,,,,,,,,,,,,,,,134,001,2010-10-16_15h09.30.592,eb_01,2022.2.4,120.02644782655808,
1,stimuli/1.png,s,1,0,1,0,91,0,91,0,0,0,0,0,,,,,,,,,,,,,,,,,,671.9443960143835,671.9443960143835,671.9443960143835,671.9443960143835,s,1,0.697987367544556,672.6694383487629,672.6694383487629,672.6694383487629,,,,,,,,,,,,,,,,,,,,,,,,,,,,134,001,2010-10-16_15h09.30.592,eb_01,2022.2.4,120.02644782655808,
,,,1,0,1,0,91,0,91,0,,,,,,,,,,,,,,,,,,,,,,,,,,,,,,,,,,,,,,,,,,,,,,,,,,,,,,,,,,,134,001,2010-10-16_15h09.30.592,eb_01,2022.2.4,120.02644782655808,
2,stimuli/2.png,s,1,0,1,0,92,0,92,0,0,0,0,0,,,,,,,,,,,,,,,,,,673.6695832365076,673.6695832365076,673.6695832365076,673.6695832365076,s,1,0.4928565309091937,674.1778988864971,674.1778988864971,674.1778988864971,675.1946892611159,675.1946892611159,675.1946892611159,,,,,,,,,,,,,,,,,,,,,,,,,134,001,2010-10-16_15h09.30.592,eb_01,2022.2.4,120.02644782655808,
,,,1,0,1,0,92,0,92,0,,,,,,,,,,,,,,,,,,,,,,,,,,,,,,,,,,,,,,,,,,,,,,,,,,,,,,,,,,,134,001,2010-10-16_15h09.30.592,eb_01,2022.2.4,120.02644782655808,
4,stimuli/4.png,l,1,0,1,0,93,0,93,0,0,0,0,0,,,,,,,,,,,,,,,,,,675.1946892611159,675.1946892611159,675.1946892611159,675.1946892611159,l,1,0.5748261588159949,675.7864294532628,675.7864294532628,675.7864294532628,,,,,,,,,,,,,,,,,,,,,,,,,,,,134,001,2010-10-16_15h09.30.592,eb_01,2022.2.4,120.02644782655808,
,,,1,0,1,0,93,0,93,0,,,,,,,,,,,,,,,,,,,,,,,,,,,,,,,,,,,,,,,,,,,,,,,,,,,,,,,,,,,134,001,2010-10-16_15h09.30.592,eb_01,2022.2.4,120.02644782655808,
3,stimuli/3.png,l,1,0,1,0,94,0,94,0,0,0,0,0,,,,,,,,,,,,,,,,,,676.7947888714261,676.7947888714261,676.7947888714261,676.7947888714261,l,1,0.4946824181242846,677.3031528173306,677.3031528173306,677.3031528173306,678.3116218068171,678.3116218068171,678.3116218068171,,,,,,,,,,,,,,,,,,,,,,,,,134,001,2010-10-16_15h09.30.592,eb_01,2022.2.4,120.02644782655808,
,,,1,0,1,0,94,0,94,0,,,,,,,,,,,,,,,,,,,,,,,,,,,,,,,,,,,,,,,,,,,,,,,,,,,,,,,,,,,134,001,2010-10-16_15h09.30.592,eb_01,2022.2.4,120.02644782655808,
8,stimuli/8.png,l,1,0,1,0,95,0,95,0,0,0,0,0,,,,,,,,,,,,,,,,,,678.3116218068171,678.3116218068171,678.3116218068171,678.3116218068171,l,1,0.4819033205858432,678.8116827804188,678.8116827804188,678.8116827804188,,,,,,,,,,,,,,,,,,,,,,,,,,,,134,001,2010-10-16_15h09.30.592,eb_01,2022.2.4,120.02644782655808,
,,,1,0,1,0,95,0,95,0,,,,,,,,,,,,,,,,,,,,,,,,,,,,,,,,,,,,,,,,,,,,,,,,,,,,,,,,,,,134,001,2010-10-16_15h09.30.592,eb_01,2022.2.4,120.02644782655808,
6,stimuli/6.png,s,1,0,1,0,96,0,96,0,0,0,0,0,,,,,,,,,,,,,,,,,,679.8367350758053,679.8367350758053,679.8367350758053,679.8367350758053,s,1,0.4608028379152529,680.3284571570111,680.3284571570111,680.3284571570111,,,,,,,,,,,,,,,,,,,,,,,,,,,,134,001,2010-10-16_15h09.30.592,eb_01,2022.2.4,120.02644782655808,
,,,1,0,1,0,96,0,96,0,,,,,,,,,,,,,,,,,,,,,,,,,,,,,,,,,,,,,,,,,,,,,,,,,,,,,,,,,,,134,001,2010-10-16_15h09.30.592,eb_01,2022.2.4,120.02644782655808,
8,stimuli/8.png,l,1,0,1,0,97,0,97,0,0,0,0,0,,,,,,,,,,,,,,,,,,681.3285214509524,681.3285214509524,681.3285214509524,681.3285214509524,l,1,0.497051030601142,681.8452203651832,681.8452203651832,681.8452203651832,,,,,,,,,,,,,,,,,,,,,,,,,,,,134,001,2010-10-16_15h09.30.592,eb_01,2022.2.4,120.02644782655808,
,,,1,0,1,0,97,0,97,0,,,,,,,,,,,,,,,,,,,,,,,,,,,,,,,,,,,,,,,,,,,,,,,,,,,,,,,,,,,134,001,2010-10-16_15h09.30.592,eb_01,2022.2.4,120.02644782655808,
6,stimuli/6.png,s,1,0,1,0,98,0,98,0,0,0,0,0,,,,,,,,,,,,,,,,,,682.8703112973308,682.8703112973308,682.8703112973308,682.8703112973308,s,1,0.6192861652525607,683.520396569802,683.520396569802,683.520396569802,,,,,,,,,,,,,,,,,,,,,,,,,,,,134,001,2010-10-16_15h09.30.592,eb_01,2022.2.4,120.02644782655808,
,,,1,0,1,0,98,0,98,0,,,,,,,,,,,,,,,,,,,,,,,,,,,,,,,,,,,,,,,,,,,,,,,,,,,,,,,,,,,134,001,2010-10-16_15h09.30.592,eb_01,2022.2.4,120.02644782655808,
9,stimuli/9.png,l,1,0,1,0,99,0,99,0,0,0,0,0,,,,,,,,,,,,,,,,,,684.5288042838511,684.5288042838511,684.5288042838511,684.5288042838511,l,1,0.3768452296499163,684.9371860388783,684.9371860388783,684.9371860388783,,,,,,,,,,,,,,,,,,,,,,,,,,,,134,001,2010-10-16_15h09.30.592,eb_01,2022.2.4,120.02644782655808,
,,,1,0,1,0,99,0,99,0,,,,,,,,,,,,,,,,,,,,,,,,,,,,,,,,,,,,,,,,,,,,,,,,,,,,,,,,,,,134,001,2010-10-16_15h09.30.592,eb_01,2022.2.4,120.02644782655808,
,,,1,0,1,0,,,,,,,,,,,,,,,,,,,,,,,,,,,,,,,,,,,,,,,685.9289156662999,685.9289156662999,return,0.9767416953109205,,,,,,,,,,,,,,,,,,,,,134,001,2010-10-16_15h09.30.592,eb_01,2022.2.4,120.02644782655808,
8,stimuli/8.png,l,2,0,2,0,0,0,0,0,0,0,0,0,,,,,,,,,,,,,,,,,,686.9373276062543,686.9373276062543,686.9373276062543,686.9373276062543,l,1,1.2964268059877213,688.2540874940751,688.2540874940751,688.2540874940751,,,,,,,,,,,,,,,,,,,,,,,,,,,,134,001,2010-10-16_15h09.30.592,eb_01,2022.2.4,120.02644782655808,
,,,2,0,2,0,0,0,0,0,,,,,,,,,,,,,,,,,,,,,,,,,,,,,,,,,,,,,,,,,,,,,,,,,,,,,,,,,,,134,001,2010-10-16_15h09.30.592,eb_01,2022.2.4,120.02644782655808,
3,stimuli/3.png,l,2,0,2,0,1,0,1,0,0,0,0,0,,,,,,,,,,,,,,,,,,689.262505471037,689.262505471037,689.262505471037,689.262505471037,l,1,0.48324594684527256,689.7542142708553,689.7542142708553,689.7542142708553,690.7709847234073,690.7709847234073,690.7709847234073,,,,,,,,,,,,,,,,,,,,,,,,,134,001,2010-10-16_15h09.30.592,eb_01,2022.2.4,120.02644782655808,
,,,2,0,2,0,1,0,1,0,,,,,,,,,,,,,,,,,,,,,,,,,,,,,,,,,,,,,,,,,,,,,,,,,,,,,,,,,,,134,001,2010-10-16_15h09.30.592,eb_01,2022.2.4,120.02644782655808,
4,stimuli/4.png,l,2,0,2,0,2,0,2,0,0,0,0,0,,,,,,,,,,,,,,,,,,690.7709847234073,690.7709847234073,690.7709847234073,690.7709847234073,l,1,0.6938327119860332,691.487767249957,691.487767249957,691.487767249957,,,,,,,,,,,,,,,,,,,,,,,,,,,,134,001,2010-10-16_15h09.30.592,eb_01,2022.2.4,120.02644782655808,
,,,2,0,2,0,2,0,2,0,,,,,,,,,,,,,,,,,,,,,,,,,,,,,,,,,,,,,,,,,,,,,,,,,,,,,,,,,,,134,001,2010-10-16_15h09.30.592,eb_01,2022.2.4,120.02644782655808,
2,stimuli/2.png,s,2,0,2,0,3,0,3,0,0,0,0,0,,,,,,,,,,,,,,,,,,692.496163191885,692.496163191885,692.496163191885,692.496163191885,s,1,0.45665512487175874,692.962878858787,692.962878858787,692.962878858787,693.9879338708415,693.9879338708415,693.9879338708415,,,,,,,,,,,,,,,,,,,,,,,,,134,001,2010-10-16_15h09.30.592,eb_01,2022.2.4,120.02644782655808,
,,,2,0,2,0,3,0,3,0,,,,,,,,,,,,,,,,,,,,,,,,,,,,,,,,,,,,,,,,,,,,,,,,,,,,,,,,,,,134,001,2010-10-16_15h09.30.592,eb_01,2022.2.4,120.02644782655808,
1,stimuli/1.png,s,2,0,2,0,4,0,4,0,0,0,0,0,,,,,,,,,,,,,,,,,,693.9879338708415,693.9879338708415,693.9879338708415,693.9879338708415,l,0,0.4369002869934775,694.4546169379901,694.4546169379901,694.4546169379901,,,,,,,,,,,,,,,,,,,,,,,,,,,,134,001,2010-10-16_15h09.30.592,eb_01,2022.2.4,120.02644782655808,
,,,2,0,2,0,4,0,4,0,,,,,,,,,,,,,,,,,,,,,,,,,,,,,,,,,,,,,,,,,,,,,,,,,,,,,,,,,,,134,001,2010-10-16_15h09.30.592,eb_01,2022.2.4,120.02644782655808,
2,stimuli/2.png,s,2,0,2,0,5,0,5,0,0,0,0,0,,,,,,,,,,,,,,,,,,695.4547497517487,695.4547497517487,695.4547497517487,695.4547497517487,l,0,0.4341271962621249,695.9047390360793,695.9047390360793,695.9047390360793,696.9215188459784,696.9215188459784,696.9215188459784,,,,,,,,,,,,,,,,,,,,,,,,,134,001,2010-10-16_15h09.30.592,eb_01,2022.2.4,120.02644782655808,
,,,2,0,2,0,5,0,5,0,,,,,,,,,,,,,,,,,,,,,,,,,,,,,,,,,,,,,,,,,,,,,,,,,,,,,,,,,,,134,001,2010-10-16_15h09.30.592,eb_01,2022.2.4,120.02644782655808,
4,stimuli/4.png,l,2,0,2,0,6,0,6,0,0,0,0,0,,,,,,,,,,,,,,,,,,696.9215188459784,696.9215188459784,696.9215188459784,696.9215188459784,l,1,0.3754470630956348,697.321575593669,697.321575593669,697.321575593669,,,,,,,,,,,,,,,,,,,,,,,,,,,,134,001,2010-10-16_15h09.30.592,eb_01,2022.2.4,120.02644782655808,
,,,2,0,2,0,6,0,6,0,,,,,,,,,,,,,,,,,,,,,,,,,,,,,,,,,,,,,,,,,,,,,,,,,,,,,,,,,,,134,001,2010-10-16_15h09.30.592,eb_01,2022.2.4,120.02644782655808,
3,stimuli/3.png,l,2,0,2,0,7,0,7,0,0,0,0,0,,,,,,,,,,,,,,,,,,698.3299585560744,698.3299585560744,698.3299585560744,698.3299585560744,l,1,0.5269685351522639,698.8716937677236,698.8716937677236,698.8716937677236,699.8801352889277,699.8801352889277,699.8801352889277,,,,,,,,,,,,,,,,,,,,,,,,,134,001,2010-10-16_15h09.30.592,eb_01,2022.2.4,120.02644782655808,
,,,2,0,2,0,7,0,7,0,,,,,,,,,,,,,,,,,,,,,,,,,,,,,,,,,,,,,,,,,,,,,,,,,,,,,,,,,,,134,001,2010-10-16_15h09.30.592,eb_01,2022.2.4,120.02644782655808,
8,stimuli/8.png,l,2,0,2,0,8,0,8,0,0,0,0,0,,,,,,,,,,,,,,,,,,699.8801352889277,699.8801352889277,699.8801352889277,699.8801352889277,l,1,0.4728251989290584,700.3718018298096,700.3718018298096,700.3718018298096,,,,,,,,,,,,,,,,,,,,,,,,,,,,134,001,2010-10-16_15h09.30.592,eb_01,2022.2.4,120.02644782655808,
,,,2,0,2,0,8,0,8,0,,,,,,,,,,,,,,,,,,,,,,,,,,,,,,,,,,,,,,,,,,,,,,,,,,,,,,,,,,,134,001,2010-10-16_15h09.30.592,eb_01,2022.2.4,120.02644782655808,
3,stimuli/3.png,l,2,0,2,0,9,0,9,0,0,0,0,0,,,,,,,,,,,,,,,,,,701.3802077327855,701.3802077327855,701.3802077327855,701.3802077327855,l,1,0.4047916574345436,701.7969108729158,701.7969108729158,701.7969108729158,702.80533066098,702.80533066098,702.80533066098,,,,,,,,,,,,,,,,,,,,,,,,,134,001,2010-10-16_15h09.30.592,eb_01,2022.2.4,120.02644782655808,
,,,2,0,2,0,9,0,9,0,,,,,,,,,,,,,,,,,,,,,,,,,,,,,,,,,,,,,,,,,,,,,,,,,,,,,,,,,,,134,001,2010-10-16_15h09.30.592,eb_01,2022.2.4,120.02644782655808,
8,stimuli/8.png,l,2,0,2,0,10,0,10,0,0,0,0,0,,,,,,,,,,,,,,,,,,702.80533066098,702.80533066098,702.80533066098,702.80533066098,l,1,0.4197763687407132,703.2470468560932,703.2470468560932,703.2470468560932,,,,,,,,,,,,,,,,,,,,,,,,,,,,134,001,2010-10-16_15h09.30.592,eb_01,2022.2.4,120.02644782655808,
,,,2,0,2,0,10,0,10,0,,,,,,,,,,,,,,,,,,,,,,,,,,,,,,,,,,,,,,,,,,,,,,,,,,,,,,,,,,,134,001,2010-10-16_15h09.30.592,eb_01,2022.2.4,120.02644782655808,
9,stimuli/9.png,l,2,0,2,0,11,0,11,0,0,0,0,0,,,,,,,,,,,,,,,,,,704.2638215345505,704.2638215345505,704.2638215345505,704.2638215345505,l,1,0.6012047806289047,704.897207289061,704.897207289061,704.897207289061,,,,,,,,,,,,,,,,,,,,,,,,,,,,134,001,2010-10-16_15h09.30.592,eb_01,2022.2.4,120.02644782655808,
