index,stimulus,correct_answer,block.thisRepN,block.thisTrialN,block.thisN,block.thisIndex,trial.thisRepN,trial.thisTrialN,trial.thisN,trial.thisIndex,display_row.thisRepN,display_row.thisTrialN,display_row.thisN,display_row.thisIndex,pair_questions.thisRepN,pair_questions.thisTrialN,pair_questions.thisN,pair_questions.thisIndex,welcome_text.started,instructions_0_keypress.started,instructions_0_keypress.keys,instructions_0_keypress.rt,instructions_1_keypress.started,instructions_1_text.started,instructions_1_keypress.keys,instructions_1_keypress.rt,instructions_2_keypress.started,instructions_2_text.started,instructions_2_keypress.keys,instructions_2_keypress.rt,text_countdown.started,image.started,size_question.started,size_resp.started,keypress_options.started,size_resp.keys,size_resp.corr,size_resp.rt,fb_image.started,fb.started,fb_size_question.started,fb_image.stopped,fb.stopped,fb_size_question.stopped,block_break_text.started,block_break_keypress.started,block_break_keypress.keys,block_break_keypress.rt,seq_reveal.started,seq_reveal_adv.started,seq_reveal_adv.keys,seq_reveal_adv.rt,instruction_2afc_text.started,instruction_2afc_keypress.started,instruction_2afc_keypress.keys,instruction_2afc_keypress.rt,dist_2afc_test.started,dist_2afc_resp.started,text.started,stim_00.started,stim_01.started,stim_10.started,stim_11.started,dist_2afc_resp.keys,dist_2afc_resp.rt,graph.started,debrief_text.started,debriefing_title.started,participant,session,date,expName,psychopyVersion,frameRate,
,,,,,,,,,,,,,,,,,,,137.84072220495727,137.84072220495727,return,4.053027473113616,,,,,,,,,,,,,,,,,,,,,,,,,,,,,,,,,,,,,,,,,,,,,,,279817,001,2010-10-14_16h05.54.288,eb_01,2022.2.4,120.01253410530664,
,,,,,,,,,,,,,,,,,,,,,,,141.90738867038453,141.90738867038453,return,30.95294748301967,,,,,,,,,,,,,,,,,,,,,,,,,,,,,,,,,,,,,,,,,,,279817,001,2010-10-14_16h05.54.288,eb_01,2022.2.4,120.01253410530664,
,,,,,,,,,,,,,,,,,,,,,,,,,,,172.87667549074104,172.87667549074104,space,6.46375942780287,,,,,,,,,,,,,,,,,,,,,,,,,,,,,,,,,,,,,,,279817,001,2010-10-14_16h05.54.288,eb_01,2022.2.4,120.01253410530664,
5,stimuli/5.png,s,0,0,0,0,0,0,0,0,0,0,0,0,,,,,,,,,,,,,,,,,179.3605666921212,184.37769936400582,184.37769936400582,184.37769936400582,184.37769936400582,s,1,2.8339267429400934,187.2362406464381,187.2362406464381,187.2362406464381,,,,,,,,,,,,,,,,,,,,,,,,,,,,279817,001,2010-10-14_16h05.54.288,eb_01,2022.2.4,120.01253410530664,
,,,0,0,0,0,0,0,0,0,,,,,,,,,,,,,,,,,,,,,,,,,,,,,,,,,,,,,,,,,,,,,,,,,,,,,,,,,,,279817,001,2010-10-14_16h05.54.288,eb_01,2022.2.4,120.01253410530664,
9,stimuli/9.png,l,0,0,0,0,1,0,1,0,0,0,0,0,,,,,,,,,,,,,,,,,,188.25302407852723,188.25302407852723,188.25302407852723,188.25302407852723,l,1,0.9106191372557078,189.19476321421098,189.19476321421098,189.19476321421098,,,,,,,,,,,,,,,,,,,,,,,,,,,,279817,001,2010-10-14_16h05.54.288,eb_01,2022.2.4,120.01253410530664,
,,,0,0,0,0,1,0,1,0,,,,,,,,,,,,,,,,,,,,,,,,,,,,,,,,,,,,,,,,,,,,,,,,,,,,,,,,,,,279817,001,2010-10-14_16h05.54.288,eb_01,2022.2.4,120.01253410530664,
5,stimuli/5.png,s,0,0,0,0,2,0,2,0,0,0,0,0,,,,,,,,,,,,,,,,,,190.1948441098648,190.1948441098648,190.1948441098648,190.1948441098648,s,1,1.3448449387360597,191.56160897821246,191.56160897821246,191.56160897821246,,,,,,,,,,,,,,,,,,,,,,,,,,,,279817,001,2010-10-14_16h05.54.288,eb_01,2022.2.4,120.01253410530664,
,,,0,0,0,0,2,0,2,0,,,,,,,,,,,,,,,,,,,,,,,,,,,,,,,,,,,,,,,,,,,,,,,,,,,,,,,,,,,279817,001,2010-10-14_16h05.54.288,eb_01,2022.2.4,120.01253410530664,
9,stimuli/9.png,l,0,0,0,0,3,0,3,0,0,0,0,0,,,,,,,,,,,,,,,,,,192.5783622253657,192.5783622253657,192.5783622253657,192.5783622253657,l,1,1.0253687078657094,193.6367954456946,193.6367954456946,193.6367954456946,,,,,,,,,,,,,,,,,,,,,,,,,,,,279817,001,2010-10-14_16h05.54.288,eb_01,2022.2.4,120.01253410530664,
,,,0,0,0,0,3,0,3,0,,,,,,,,,,,,,,,,,,,,,,,,,,,,,,,,,,,,,,,,,,,,,,,,,,,,,,,,,,,279817,001,2010-10-14_16h05.54.288,eb_01,2022.2.4,120.01253410530664,
8,stimuli/8.png,l,0,0,0,0,4,0,4,0,0,0,0,0,,,,,,,,,,,,,,,,,,194.6368784542865,194.6368784542865,194.6368784542865,194.6368784542865,l,1,0.8549092024622951,195.5119580670871,195.5119580670871,195.5119580670871,,,,,,,,,,,,,,,,,,,,,,,,,,,,279817,001,2010-10-14_16h05.54.288,eb_01,2022.2.4,120.01253410530664,
,,,0,0,0,0,4,0,4,0,,,,,,,,,,,,,,,,,,,,,,,,,,,,,,,,,,,,,,,,,,,,,,,,,,,,,,,,,,,279817,001,2010-10-14_16h05.54.288,eb_01,2022.2.4,120.01253410530664,
9,stimuli/9.png,l,0,0,0,0,5,0,5,0,0,0,0,0,,,,,,,,,,,,,,,,,,196.5287146345654,196.5287146345654,196.5287146345654,196.5287146345654,l,1,0.650146923988359,197.20377885304333,197.20377885304333,197.20377885304333,,,,,,,,,,,,,,,,,,,,,,,,,,,,279817,001,2010-10-14_16h05.54.288,eb_01,2022.2.4,120.01253410530664,
,,,0,0,0,0,5,0,5,0,,,,,,,,,,,,,,,,,,,,,,,,,,,,,,,,,,,,,,,,,,,,,,,,,,,,,,,,,,,279817,001,2010-10-14_16h05.54.288,eb_01,2022.2.4,120.01253410530664,
6,stimuli/6.png,s,0,0,0,0,6,0,6,0,0,0,0,0,,,,,,,,,,,,,,,,,,198.22052364840056,198.22052364840056,198.22052364840056,198.22052364840056,s,1,0.7503174689190928,199.00396237749374,199.00396237749374,199.00396237749374,,,,,,,,,,,,,,,,,,,,,,,,,,,,279817,001,2010-10-14_16h05.54.288,eb_01,2022.2.4,120.01253410530664,
,,,0,0,0,0,6,0,6,0,,,,,,,,,,,,,,,,,,,,,,,,,,,,,,,,,,,,,,,,,,,,,,,,,,,,,,,,,,,279817,001,2010-10-14_16h05.54.288,eb_01,2022.2.4,120.01253410530664,
5,stimuli/5.png,s,0,0,0,0,7,0,7,0,0,0,0,0,,,,,,,,,,,,,,,,,,200.00403693430417,200.00403693430417,200.00403693430417,200.00403693430417,s,1,0.6308545194333419,200.65408326819306,200.65408326819306,200.65408326819306,,,,,,,,,,,,,,,,,,,,,,,,,,,,279817,001,2010-10-14_16h05.54.288,eb_01,2022.2.4,120.01253410530664,
,,,0,0,0,0,7,0,7,0,,,,,,,,,,,,,,,,,,,,,,,,,,,,,,,,,,,,,,,,,,,,,,,,,,,,,,,,,,,279817,001,2010-10-14_16h05.54.288,eb_01,2022.2.4,120.01253410530664,
9,stimuli/9.png,l,0,0,0,0,8,0,8,0,0,0,0,0,,,,,,,,,,,,,,,,,,201.67079999155249,201.67079999155249,201.67079999155249,201.67079999155249,l,1,0.5961342885711929,202.29590903465578,202.29590903465578,202.29590903465578,,,,,,,,,,,,,,,,,,,,,,,,,,,,279817,001,2010-10-14_16h05.54.288,eb_01,2022.2.4,120.01253410530664,
,,,0,0,0,0,8,0,8,0,,,,,,,,,,,,,,,,,,,,,,,,,,,,,,,,,,,,,,,,,,,,,,,,,,,,,,,,,,,279817,001,2010-10-14_16h05.54.288,eb_01,2022.2.4,120.01253410530664,
5,stimuli/5.png,s,0,0,0,0,9,0,9,0,0,0,0,0,,,,,,,,,,,,,,,,,,203.29595944350876,203.29595944350876,203.29595944350876,203.29595944350876,s,1,0.5229656845331192,203.83766869609826,203.83766869609826,203.83766869609826,,,,,,,,,,,,,,,,,,,,,,,,,,,,279817,001,2010-10-14_16h05.54.288,eb_01,2022.2.4,120.01253410530664,
,,,0,0,0,0,9,0,9,0,,,,,,,,,,,,,,,,,,,,,,,,,,,,,,,,,,,,,,,,,,,,,,,,,,,,,,,,,,,279817,001,2010-10-14_16h05.54.288,eb_01,2022.2.4,120.01253410530664,
9,stimuli/9.png,l,0,0,0,0,10,0,10,0,0,0,0,0,,,,,,,,,,,,,,,,,,204.85440836002817,204.85440836002817,204.85440836002817,204.85440836002817,l,1,0.5165604396024719,205.39611549966503,205.39611549966503,205.39611549966503,,,,,,,,,,,,,,,,,,,,,,,,,,,,279817,001,2010-10-14_16h05.54.288,eb_01,2022.2.4,120.01253410530664,
,,,0,0,0,0,10,0,10,0,,,,,,,,,,,,,,,,,,,,,,,,,,,,,,,,,,,,,,,,,,,,,,,,,,,,,,,,,,,279817,001,2010-10-14_16h05.54.288,eb_01,2022.2.4,120.01253410530664,
8,stimuli/8.png,l,0,0,0,0,11,0,11,0,0,0,0,0,,,,,,,,,,,,,,,,,,206.39622295806475,206.39622295806475,206.39622295806475,206.39622295806475,l,1,0.6307654738484416,207.04629525101336,207.04629525101336,207.04629525101336,,,,,,,,,,,,,,,,,,,,,,,,,,,,279817,001,2010-10-14_16h05.54.288,eb_01,2022.2.4,120.01253410530664,
,,,0,0,0,0,11,0,11,0,,,,,,,,,,,,,,,,,,,,,,,,,,,,,,,,,,,,,,,,,,,,,,,,,,,,,,,,,,,279817,001,2010-10-14_16h05.54.288,eb_01,2022.2.4,120.01253410530664,
9,stimuli/9.png,l,0,0,0,0,12,0,12,0,0,0,0,0,,,,,,,,,,,,,,,,,,208.06302887793572,208.06302887793572,208.06302887793572,208.06302887793572,l,1,0.5799992290703813,208.67141395329963,208.67141395329963,208.67141395329963,,,,,,,,,,,,,,,,,,,,,,,,,,,,279817,001,2010-10-14_16h05.54.288,eb_01,2022.2.4,120.01253410530664,
,,,0,0,0,0,12,0,12,0,,,,,,,,,,,,,,,,,,,,,,,,,,,,,,,,,,,,,,,,,,,,,,,,,,,,,,,,,,,279817,001,2010-10-14_16h05.54.288,eb_01,2022.2.4,120.01253410530664,
6,stimuli/6.png,s,0,0,0,0,13,0,13,0,0,0,0,0,,,,,,,,,,,,,,,,,,209.68818229291355,209.68818229291355,209.68818229291355,209.68818229291355,s,1,0.6108823499380378,210.32987011419027,210.32987011419027,210.32987011419027,,,,,,,,,,,,,,,,,,,,,,,,,,,,279817,001,2010-10-14_16h05.54.288,eb_01,2022.2.4,120.01253410530664,
,,,0,0,0,0,13,0,13,0,,,,,,,,,,,,,,,,,,,,,,,,,,,,,,,,,,,,,,,,,,,,,,,,,,,,,,,,,,,279817,001,2010-10-14_16h05.54.288,eb_01,2022.2.4,120.01253410530664,
8,stimuli/8.png,l,0,0,0,0,14,0,14,0,0,0,0,0,,,,,,,,,,,,,,,,,,211.33831193724473,211.33831193724473,211.33831193724473,211.33831193724473,l,1,0.4807819246489089,211.83834664992173,211.83834664992173,211.83834664992173,,,,,,,,,,,,,,,,,,,,,,,,,,,,279817,001,2010-10-14_16h05.54.288,eb_01,2022.2.4,120.01253410530664,
,,,0,0,0,0,14,0,14,0,,,,,,,,,,,,,,,,,,,,,,,,,,,,,,,,,,,,,,,,,,,,,,,,,,,,,,,,,,,279817,001,2010-10-14_16h05.54.288,eb_01,2022.2.4,120.01253410530664,
6,stimuli/6.png,s,0,0,0,0,15,0,15,0,0,0,0,0,,,,,,,,,,,,,,,,,,212.86343516728084,212.86343516728084,212.86343516728084,212.86343516728084,s,1,0.5146660325699486,213.40518003809848,213.40518003809848,213.40518003809848,,,,,,,,,,,,,,,,,,,,,,,,,,,,279817,001,2010-10-14_16h05.54.288,eb_01,2022.2.4,120.01253410530664,
,,,0,0,0,0,15,0,15,0,,,,,,,,,,,,,,,,,,,,,,,,,,,,,,,,,,,,,,,,,,,,,,,,,,,,,,,,,,,279817,001,2010-10-14_16h05.54.288,eb_01,2022.2.4,120.01253410530664,
8,stimuli/8.png,l,0,0,0,0,16,0,16,0,0,0,0,0,,,,,,,,,,,,,,,,,,214.40523225805373,214.40523225805373,214.40523225805373,214.40523225805373,l,1,0.517003856410156,214.94694603838434,214.94694603838434,214.94694603838434,,,,,,,,,,,,,,,,,,,,,,,,,,,,279817,001,2010-10-14_16h05.54.288,eb_01,2022.2.4,120.01253410530664,
,,,0,0,0,0,16,0,16,0,,,,,,,,,,,,,,,,,,,,,,,,,,,,,,,,,,,,,,,,,,,,,,,,,,,,,,,,,,,279817,001,2010-10-14_16h05.54.288,eb_01,2022.2.4,120.01253410530664,
6,stimuli/6.png,s,0,0,0,0,17,0,17,0,0,0,0,0,,,,,,,,,,,,,,,,,,215.97203425387852,215.97203425387852,215.97203425387852,215.97203425387852,s,1,0.46212732793355826,216.46374395924795,216.46374395924795,216.46374395924795,,,,,,,,,,,,,,,,,,,,,,,,,,,,279817,001,2010-10-14_16h05.54.288,eb_01,2022.2.4,120.01253410530664,
,,,0,0,0,0,17,0,17,0,,,,,,,,,,,,,,,,,,,,,,,,,,,,,,,,,,,,,,,,,,,,,,,,,,,,,,,,,,,279817,001,2010-10-14_16h05.54.288,eb_01,2022.2.4,120.01253410530664,
9,stimuli/9.png,l,0,0,0,0,18,0,18,0,0,0,0,0,,,,,,,,,,,,,,,,,,217.47219031002896,217.47219031002896,217.47219031002896,217.47219031002896,l,1,0.5300443555606762,218.03054082363087,218.03054082363087,218.03054082363087,,,,,,,,,,,,,,,,,,,,,,,,,,,,279817,001,2010-10-14_16h05.54.288,eb_01,2022.2.4,120.01253410530664,
,,,0,0,0,0,18,0,18,0,,,,,,,,,,,,,,,,,,,,,,,,,,,,,,,,,,,,,,,,,,,,,,,,,,,,,,,,,,,279817,001,2010-10-14_16h05.54.288,eb_01,2022.2.4,120.01253410530664,
5,stimuli/5.png,s,0,0,0,0,19,0,19,0,0,0,0,0,,,,,,,,,,,,,,,,,,219.0306295673654,219.0306295673654,219.0306295673654,219.0306295673654,s,1,0.3876761656574672,219.43900860572467,219.43900860572467,219.43900860572467,,,,,,,,,,,,,,,,,,,,,,,,,,,,279817,001,2010-10-14_16h05.54.288,eb_01,2022.2.4,120.01253410530664,
,,,0,0,0,0,19,0,19,0,,,,,,,,,,,,,,,,,,,,,,,,,,,,,,,,,,,,,,,,,,,,,,,,,,,,,,,,,,,279817,001,2010-10-14_16h05.54.288,eb_01,2022.2.4,120.01253410530664,
6,stimuli/6.png,s,0,0,0,0,20,0,20,0,0,0,0,0,,,,,,,,,,,,,,,,,,220.4640847472474,220.4640847472474,220.4640847472474,220.4640847472474,s,1,0.5861862368619768,221.08080177246302,221.08080177246302,221.08080177246302,,,,,,,,,,,,,,,,,,,,,,,,,,,,279817,001,2010-10-14_16h05.54.288,eb_01,2022.2.4,120.01253410530664,
,,,0,0,0,0,20,0,20,0,,,,,,,,,,,,,,,,,,,,,,,,,,,,,,,,,,,,,,,,,,,,,,,,,,,,,,,,,,,279817,001,2010-10-14_16h05.54.288,eb_01,2022.2.4,120.01253410530664,
5,stimuli/5.png,s,0,0,0,0,21,0,21,0,0,0,0,0,,,,,,,,,,,,,,,,,,222.08089021434716,222.08089021434716,222.08089021434716,222.08089021434716,s,1,0.561423415056197,222.66425257553055,222.66425257553055,222.66425257553055,,,,,,,,,,,,,,,,,,,,,,,,,,,,279817,001,2010-10-14_16h05.54.288,eb_01,2022.2.4,120.01253410530664,
,,,0,0,0,0,21,0,21,0,,,,,,,,,,,,,,,,,,,,,,,,,,,,,,,,,,,,,,,,,,,,,,,,,,,,,,,,,,,279817,001,2010-10-14_16h05.54.288,eb_01,2022.2.4,120.01253410530664,
9,stimuli/9.png,l,0,0,0,0,22,0,22,0,0,0,0,0,,,,,,,,,,,,,,,,,,223.68102574473596,223.68102574473596,223.68102574473596,223.68102574473596,l,1,0.425470129281166,224.16442704451038,224.16442704451038,224.16442704451038,,,,,,,,,,,,,,,,,,,,,,,,,,,,279817,001,2010-10-14_16h05.54.288,eb_01,2022.2.4,120.01253410530664,
,,,0,0,0,0,22,0,22,0,,,,,,,,,,,,,,,,,,,,,,,,,,,,,,,,,,,,,,,,,,,,,,,,,,,,,,,,,,,279817,001,2010-10-14_16h05.54.288,eb_01,2022.2.4,120.01253410530664,
6,stimuli/6.png,s,0,0,0,0,23,0,23,0,0,0,0,0,,,,,,,,,,,,,,,,,,225.18115372890315,225.18115372890315,225.18115372890315,225.18115372890315,s,1,0.4692401079373667,225.68119327117165,225.68119327117165,225.68119327117165,,,,,,,,,,,,,,,,,,,,,,,,,,,,279817,001,2010-10-14_16h05.54.288,eb_01,2022.2.4,120.01253410530664,
,,,0,0,0,0,23,0,23,0,,,,,,,,,,,,,,,,,,,,,,,,,,,,,,,,,,,,,,,,,,,,,,,,,,,,,,,,,,,279817,001,2010-10-14_16h05.54.288,eb_01,2022.2.4,120.01253410530664,
9,stimuli/9.png,l,0,0,0,0,24,0,24,0,0,0,0,0,,,,,,,,,,,,,,,,,,226.68961668141128,226.68961668141128,226.68961668141128,226.68961668141128,s,0,0.40879445742757525,227.131312652622,227.131312652622,227.131312652622,,,,,,,,,,,,,,,,,,,,,,,,,,,,279817,001,2010-10-14_16h05.54.288,eb_01,2022.2.4,120.01253410530664,
,,,0,0,0,0,24,0,24,0,,,,,,,,,,,,,,,,,,,,,,,,,,,,,,,,,,,,,,,,,,,,,,,,,,,,,,,,,,,279817,001,2010-10-14_16h05.54.288,eb_01,2022.2.4,120.01253410530664,
5,stimuli/5.png,s,0,0,0,0,25,0,25,0,0,0,0,0,,,,,,,,,,,,,,,,,,228.13143731643504,228.13143731643504,228.13143731643504,228.13143731643504,s,1,0.5980253752641147,228.74814015472657,228.74814015472657,228.74814015472657,,,,,,,,,,,,,,,,,,,,,,,,,,,,279817,001,2010-10-14_16h05.54.288,eb_01,2022.2.4,120.01253410530664,
,,,0,0,0,0,25,0,25,0,,,,,,,,,,,,,,,,,,,,,,,,,,,,,,,,,,,,,,,,,,,,,,,,,,,,,,,,,,,279817,001,2010-10-14_16h05.54.288,eb_01,2022.2.4,120.01253410530664,
9,stimuli/9.png,l,0,0,0,0,26,0,26,0,0,0,0,0,,,,,,,,,,,,,,,,,,229.76487257426197,229.76487257426197,229.76487257426197,229.76487257426197,l,1,0.46059725317172706,230.25659616470512,230.25659616470512,230.25659616470512,,,,,,,,,,,,,,,,,,,,,,,,,,,,279817,001,2010-10-14_16h05.54.288,eb_01,2022.2.4,120.01253410530664,
,,,0,0,0,0,26,0,26,0,,,,,,,,,,,,,,,,,,,,,,,,,,,,,,,,,,,,,,,,,,,,,,,,,,,,,,,,,,,279817,001,2010-10-14_16h05.54.288,eb_01,2022.2.4,120.01253410530664,
8,stimuli/8.png,l,0,0,0,0,27,0,27,0,0,0,0,0,,,,,,,,,,,,,,,,,,231.25665532718995,231.25665532718995,231.25665532718995,231.25665532718995,l,1,0.4888322489860002,231.7650443265884,231.7650443265884,231.7650443265884,,,,,,,,,,,,,,,,,,,,,,,,,,,,279817,001,2010-10-14_16h05.54.288,eb_01,2022.2.4,120.01253410530664,
,,,0,0,0,0,27,0,27,0,,,,,,,,,,,,,,,,,,,,,,,,,,,,,,,,,,,,,,,,,,,,,,,,,,,,,,,,,,,279817,001,2010-10-14_16h05.54.288,eb_01,2022.2.4,120.01253410530664,
6,stimuli/6.png,s,0,0,0,0,28,0,28,0,0,0,0,0,,,,,,,,,,,,,,,,,,232.7901334476337,232.7901334476337,232.7901334476337,232.7901334476337,s,1,0.48356618380057625,233.2985278803244,233.2985278803244,233.2985278803244,,,,,,,,,,,,,,,,,,,,,,,,,,,,279817,001,2010-10-14_16h05.54.288,eb_01,2022.2.4,120.01253410530664,
,,,0,0,0,0,28,0,28,0,,,,,,,,,,,,,,,,,,,,,,,,,,,,,,,,,,,,,,,,,,,,,,,,,,,,,,,,,,,279817,001,2010-10-14_16h05.54.288,eb_01,2022.2.4,120.01253410530664,
9,stimuli/9.png,l,0,0,0,0,29,0,29,0,0,0,0,0,,,,,,,,,,,,,,,,,,234.30692774630734,234.30692774630734,234.30692774630734,234.30692774630734,l,1,0.5266349662269931,234.8653102559474,234.8653102559474,234.8653102559474,,,,,,,,,,,,,,,,,,,,,,,,,,,,279817,001,2010-10-14_16h05.54.288,eb_01,2022.2.4,120.01253410530664,
,,,0,0,0,0,29,0,29,0,,,,,,,,,,,,,,,,,,,,,,,,,,,,,,,,,,,,,,,,,,,,,,,,,,,,,,,,,,,279817,001,2010-10-14_16h05.54.288,eb_01,2022.2.4,120.01253410530664,
5,stimuli/5.png,s,0,0,0,0,30,0,30,0,0,0,0,0,,,,,,,,,,,,,,,,,,235.86539899968193,235.86539899968193,235.86539899968193,235.86539899968193,s,1,0.40024306303530466,236.29043408967846,236.29043408967846,236.29043408967846,,,,,,,,,,,,,,,,,,,,,,,,,,,,279817,001,2010-10-14_16h05.54.288,eb_01,2022.2.4,120.01253410530664,
,,,0,0,0,0,30,0,30,0,,,,,,,,,,,,,,,,,,,,,,,,,,,,,,,,,,,,,,,,,,,,,,,,,,,,,,,,,,,279817,001,2010-10-14_16h05.54.288,eb_01,2022.2.4,120.01253410530664,
9,stimuli/9.png,l,0,0,0,0,31,0,31,0,0,0,0,0,,,,,,,,,,,,,,,,,,237.30716832030157,237.30716832030157,237.30716832030157,237.30716832030157,l,1,0.5104516108112875,237.84887817659182,237.84887817659182,237.84887817659182,,,,,,,,,,,,,,,,,,,,,,,,,,,,279817,001,2010-10-14_16h05.54.288,eb_01,2022.2.4,120.01253410530664,
,,,0,0,0,0,31,0,31,0,,,,,,,,,,,,,,,,,,,,,,,,,,,,,,,,,,,,,,,,,,,,,,,,,,,,,,,,,,,279817,001,2010-10-14_16h05.54.288,eb_01,2022.2.4,120.01253410530664,
8,stimuli/8.png,l,0,0,0,0,32,0,32,0,0,0,0,0,,,,,,,,,,,,,,,,,,238.84896812772786,238.84896812772786,238.84896812772786,238.84896812772786,l,1,0.5607146725815255,239.43235403316794,239.43235403316794,239.43235403316794,,,,,,,,,,,,,,,,,,,,,,,,,,,,279817,001,2010-10-14_16h05.54.288,eb_01,2022.2.4,120.01253410530664,
,,,0,0,0,0,32,0,32,0,,,,,,,,,,,,,,,,,,,,,,,,,,,,,,,,,,,,,,,,,,,,,,,,,,,,,,,,,,,279817,001,2010-10-14_16h05.54.288,eb_01,2022.2.4,120.01253410530664,
6,stimuli/6.png,s,0,0,0,0,33,0,33,0,0,0,0,0,,,,,,,,,,,,,,,,,,240.4574365135195,240.4574365135195,240.4574365135195,240.4574365135195,s,1,0.5362328726041596,241.02417119692836,241.02417119692836,241.02417119692836,,,,,,,,,,,,,,,,,,,,,,,,,,,,279817,001,2010-10-14_16h05.54.288,eb_01,2022.2.4,120.01253410530664,
,,,0,0,0,0,33,0,33,0,,,,,,,,,,,,,,,,,,,,,,,,,,,,,,,,,,,,,,,,,,,,,,,,,,,,,,,,,,,279817,001,2010-10-14_16h05.54.288,eb_01,2022.2.4,120.01253410530664,
9,stimuli/9.png,l,0,0,0,0,34,0,34,0,0,0,0,0,,,,,,,,,,,,,,,,,,242.03257528880204,242.03257528880204,242.03257528880204,242.03257528880204,l,1,0.40018239129858557,242.45760343625443,242.45760343625443,242.45760343625443,,,,,,,,,,,,,,,,,,,,,,,,,,,,279817,001,2010-10-14_16h05.54.288,eb_01,2022.2.4,120.01253410530664,
,,,0,0,0,0,34,0,34,0,,,,,,,,,,,,,,,,,,,,,,,,,,,,,,,,,,,,,,,,,,,,,,,,,,,,,,,,,,,279817,001,2010-10-14_16h05.54.288,eb_01,2022.2.4,120.01253410530664,
5,stimuli/5.png,s,0,0,0,0,35,0,35,0,0,0,0,0,,,,,,,,,,,,,,,,,,243.45769459479197,243.45769459479197,243.45769459479197,243.45769459479197,s,1,0.47904508300416637,243.95773323150934,243.95773323150934,243.95773323150934,,,,,,,,,,,,,,,,,,,,,,,,,,,,279817,001,2010-10-14_16h05.54.288,eb_01,2022.2.4,120.01253410530664,
,,,0,0,0,0,35,0,35,0,,,,,,,,,,,,,,,,,,,,,,,,,,,,,,,,,,,,,,,,,,,,,,,,,,,,,,,,,,,279817,001,2010-10-14_16h05.54.288,eb_01,2022.2.4,120.01253410530664,
9,stimuli/9.png,l,0,0,0,0,36,0,36,0,0,0,0,0,,,,,,,,,,,,,,,,,,244.9745085136674,244.9745085136674,244.9745085136674,244.9745085136674,l,1,0.3702519072248833,245.37453990601352,245.37453990601352,245.37453990601352,,,,,,,,,,,,,,,,,,,,,,,,,,,,279817,001,2010-10-14_16h05.54.288,eb_01,2022.2.4,120.01253410530664,
,,,0,0,0,0,36,0,36,0,,,,,,,,,,,,,,,,,,,,,,,,,,,,,,,,,,,,,,,,,,,,,,,,,,,,,,,,,,,279817,001,2010-10-14_16h05.54.288,eb_01,2022.2.4,120.01253410530664,
6,stimuli/6.png,s,0,0,0,0,37,0,37,0,0,0,0,0,,,,,,,,,,,,,,,,,,246.39129436055373,246.39129436055373,246.39129436055373,246.39129436055373,s,1,0.37749206768057775,246.7996453269152,246.7996453269152,246.7996453269152,,,,,,,,,,,,,,,,,,,,,,,,,,,,279817,001,2010-10-14_16h05.54.288,eb_01,2022.2.4,120.01253410530664,
,,,0,0,0,0,37,0,37,0,,,,,,,,,,,,,,,,,,,,,,,,,,,,,,,,,,,,,,,,,,,,,,,,,,,,,,,,,,,279817,001,2010-10-14_16h05.54.288,eb_01,2022.2.4,120.01253410530664,
8,stimuli/8.png,l,0,0,0,0,38,0,38,0,0,0,0,0,,,,,,,,,,,,,,,,,,247.8080799055897,247.8080799055897,247.8080799055897,247.8080799055897,l,1,0.37676340315374546,248.20809529990947,248.20809529990947,248.20809529990947,,,,,,,,,,,,,,,,,,,,,,,,,,,,279817,001,2010-10-14_16h05.54.288,eb_01,2022.2.4,120.01253410530664,
,,,0,0,0,0,38,0,38,0,,,,,,,,,,,,,,,,,,,,,,,,,,,,,,,,,,,,,,,,,,,,,,,,,,,,,,,,,,,279817,001,2010-10-14_16h05.54.288,eb_01,2022.2.4,120.01253410530664,
6,stimuli/6.png,s,0,0,0,0,39,0,39,0,0,0,0,0,,,,,,,,,,,,,,,,,,249.23322003918292,249.23322003918292,249.23322003918292,249.23322003918292,s,1,0.4076579943211982,249.6665704773186,249.6665704773186,249.6665704773186,,,,,,,,,,,,,,,,,,,,,,,,,,,,279817,001,2010-10-14_16h05.54.288,eb_01,2022.2.4,120.01253410530664,
,,,0,0,0,0,39,0,39,0,,,,,,,,,,,,,,,,,,,,,,,,,,,,,,,,,,,,,,,,,,,,,,,,,,,,,,,,,,,279817,001,2010-10-14_16h05.54.288,eb_01,2022.2.4,120.01253410530664,
8,stimuli/8.png,l,0,0,0,0,40,0,40,0,0,0,0,0,,,,,,,,,,,,,,,,,,250.6666420156398,250.6666420156398,250.6666420156398,250.6666420156398,l,1,0.3742333012196468,251.05837375600822,251.05837375600822,251.05837375600822,,,,,,,,,,,,,,,,,,,,,,,,,,,,279817,001,2010-10-14_16h05.54.288,eb_01,2022.2.4,120.01253410530664,
,,,0,0,0,0,40,0,40,0,,,,,,,,,,,,,,,,,,,,,,,,,,,,,,,,,,,,,,,,,,,,,,,,,,,,,,,,,,,279817,001,2010-10-14_16h05.54.288,eb_01,2022.2.4,120.01253410530664,
6,stimuli/6.png,s,0,0,0,0,41,0,41,0,0,0,0,0,,,,,,,,,,,,,,,,,,252.08344386053795,252.08344386053795,252.08344386053795,252.08344386053795,s,1,0.46946981534711085,252.5834728380869,252.5834728380869,252.5834728380869,,,,,,,,,,,,,,,,,,,,,,,,,,,,279817,001,2010-10-14_16h05.54.288,eb_01,2022.2.4,120.01253410530664,
,,,0,0,0,0,41,0,41,0,,,,,,,,,,,,,,,,,,,,,,,,,,,,,,,,,,,,,,,,,,,,,,,,,,,,,,,,,,,279817,001,2010-10-14_16h05.54.288,eb_01,2022.2.4,120.01253410530664,
5,stimuli/5.png,s,0,0,0,0,42,0,42,0,0,0,0,0,,,,,,,,,,,,,,,,,,253.58356067627028,253.58356067627028,253.58356067627028,253.58356067627028,s,1,0.5213746361841913,254.12531098038016,254.12531098038016,254.12531098038016,,,,,,,,,,,,,,,,,,,,,,,,,,,,279817,001,2010-10-14_16h05.54.288,eb_01,2022.2.4,120.01253410530664,
,,,0,0,0,0,42,0,42,0,,,,,,,,,,,,,,,,,,,,,,,,,,,,,,,,,,,,,,,,,,,,,,,,,,,,,,,,,,,279817,001,2010-10-14_16h05.54.288,eb_01,2022.2.4,120.01253410530664,
6,stimuli/6.png,s,0,0,0,0,43,0,43,0,0,0,0,0,,,,,,,,,,,,,,,,,,255.15035512586473,255.15035512586473,255.15035512586473,255.15035512586473,s,1,0.7786532824538881,255.95879061007872,255.95879061007872,255.95879061007872,,,,,,,,,,,,,,,,,,,,,,,,,,,,279817,001,2010-10-14_16h05.54.288,eb_01,2022.2.4,120.01253410530664,
,,,0,0,0,0,43,0,43,0,,,,,,,,,,,,,,,,,,,,,,,,,,,,,,,,,,,,,,,,,,,,,,,,,,,,,,,,,,,279817,001,2010-10-14_16h05.54.288,eb_01,2022.2.4,120.01253410530664,
8,stimuli/8.png,l,0,0,0,0,44,0,44,0,0,0,0,0,,,,,,,,,,,,,,,,,,256.9588648650388,256.9588648650388,256.9588648650388,256.9588648650388,l,1,0.5532275992882205,257.5339278760948,257.5339278760948,257.5339278760948,,,,,,,,,,,,,,,,,,,,,,,,,,,,279817,001,2010-10-14_16h05.54.288,eb_01,2022.2.4,120.01253410530664,
,,,0,0,0,0,44,0,44,0,,,,,,,,,,,,,,,,,,,,,,,,,,,,,,,,,,,,,,,,,,,,,,,,,,,,,,,,,,,279817,001,2010-10-14_16h05.54.288,eb_01,2022.2.4,120.01253410530664,
6,stimuli/6.png,s,0,0,0,0,45,0,45,0,0,0,0,0,,,,,,,,,,,,,,,,,,258.5589967732376,258.5589967732376,258.5589967732376,258.5589967732376,s,1,0.4570622944593197,259.04235581407556,259.04235581407556,259.04235581407556,,,,,,,,,,,,,,,,,,,,,,,,,,,,279817,001,2010-10-14_16h05.54.288,eb_01,2022.2.4,120.01253410530664,
,,,0,0,0,0,45,0,45,0,,,,,,,,,,,,,,,,,,,,,,,,,,,,,,,,,,,,,,,,,,,,,,,,,,,,,,,,,,,279817,001,2010-10-14_16h05.54.288,eb_01,2022.2.4,120.01253410530664,
5,stimuli/5.png,s,0,0,0,0,46,0,46,0,0,0,0,0,,,,,,,,,,,,,,,,,,260.04247806310013,260.04247806310013,260.04247806310013,260.04247806310013,s,1,0.4855970267672092,260.55083446275967,260.55083446275967,260.55083446275967,,,,,,,,,,,,,,,,,,,,,,,,,,,,279817,001,2010-10-14_16h05.54.288,eb_01,2022.2.4,120.01253410530664,
,,,0,0,0,0,46,0,46,0,,,,,,,,,,,,,,,,,,,,,,,,,,,,,,,,,,,,,,,,,,,,,,,,,,,,,,,,,,,279817,001,2010-10-14_16h05.54.288,eb_01,2022.2.4,120.01253410530664,
6,stimuli/6.png,s,0,0,0,0,47,0,47,0,0,0,0,0,,,,,,,,,,,,,,,,,,261.57595075025165,261.57595075025165,261.57595075025165,261.57595075025165,s,1,0.4881449378299294,262.0926203850977,262.0926203850977,262.0926203850977,,,,,,,,,,,,,,,,,,,,,,,,,,,,279817,001,2010-10-14_16h05.54.288,eb_01,2022.2.4,120.01253410530664,
,,,0,0,0,0,47,0,47,0,,,,,,,,,,,,,,,,,,,,,,,,,,,,,,,,,,,,,,,,,,,,,,,,,,,,,,,,,,,279817,001,2010-10-14_16h05.54.288,eb_01,2022.2.4,120.01253410530664,
5,stimuli/5.png,s,0,0,0,0,48,0,48,0,0,0,0,0,,,,,,,,,,,,,,,,,,263.09272059911746,263.09272059911746,263.09272059911746,263.09272059911746,s,1,0.4754005529830465,263.5927631598897,263.5927631598897,263.5927631598897,,,,,,,,,,,,,,,,,,,,,,,,,,,,279817,001,2010-10-14_16h05.54.288,eb_01,2022.2.4,120.01253410530664,
,,,0,0,0,0,48,0,48,0,,,,,,,,,,,,,,,,,,,,,,,,,,,,,,,,,,,,,,,,,,,,,,,,,,,,,,,,,,,279817,001,2010-10-14_16h05.54.288,eb_01,2022.2.4,120.01253410530664,
9,stimuli/9.png,l,0,0,0,0,49,0,49,0,0,0,0,0,,,,,,,,,,,,,,,,,,264.6094995034655,264.6094995034655,264.6094995034655,264.6094995034655,l,1,0.478671393415425,265.11789031395165,265.11789031395165,265.11789031395165,,,,,,,,,,,,,,,,,,,,,,,,,,,,279817,001,2010-10-14_16h05.54.288,eb_01,2022.2.4,120.01253410530664,
,,,0,0,0,0,49,0,49,0,,,,,,,,,,,,,,,,,,,,,,,,,,,,,,,,,,,,,,,,,,,,,,,,,,,,,,,,,,,279817,001,2010-10-14_16h05.54.288,eb_01,2022.2.4,120.01253410530664,
8,stimuli/8.png,l,0,0,0,0,50,0,50,0,0,0,0,0,,,,,,,,,,,,,,,,,,266.11796185227286,266.11796185227286,266.11796185227286,266.11796185227286,l,1,0.33022727631032467,266.46800607322075,266.46800607322075,266.46800607322075,,,,,,,,,,,,,,,,,,,,,,,,,,,,279817,001,2010-10-14_16h05.54.288,eb_01,2022.2.4,120.01253410530664,
,,,0,0,0,0,50,0,50,0,,,,,,,,,,,,,,,,,,,,,,,,,,,,,,,,,,,,,,,,,,,,,,,,,,,,,,,,,,,279817,001,2010-10-14_16h05.54.288,eb_01,2022.2.4,120.01253410530664,
3,stimuli/3.png,l,0,0,0,0,51,0,51,0,0,0,0,0,,,,,,,,,,,,,,,,,,267.47642435200396,267.47642435200396,267.47642435200396,267.47642435200396,s,0,0.37181669467827305,267.86813828327286,267.86813828327286,267.86813828327286,,,,,,,,,,,,,,,,,,,,,,,,,,,,279817,001,2010-10-14_16h05.54.288,eb_01,2022.2.4,120.01253410530664,
,,,0,0,0,0,51,0,51,0,,,,,,,,,,,,,,,,,,,,,,,,,,,,,,,,,,,,,,,,,,,,,,,,,,,,,,,,,,,279817,001,2010-10-14_16h05.54.288,eb_01,2022.2.4,120.01253410530664,
4,stimuli/4.png,l,0,0,0,0,52,0,52,0,0,0,0,0,,,,,,,,,,,,,,,,,,268.8848957563023,268.8848957563023,268.8848957563023,268.8848957563023,l,1,0.9553764653974213,269.85998382087564,269.85998382087564,269.85998382087564,,,,,,,,,,,,,,,,,,,,,,,,,,,,279817,001,2010-10-14_16h05.54.288,eb_01,2022.2.4,120.01253410530664,
,,,0,0,0,0,52,0,52,0,,,,,,,,,,,,,,,,,,,,,,,,,,,,,,,,,,,,,,,,,,,,,,,,,,,,,,,,,,,279817,001,2010-10-14_16h05.54.288,eb_01,2022.2.4,120.01253410530664,
3,stimuli/3.png,l,0,0,0,0,53,0,53,0,0,0,0,0,,,,,,,,,,,,,,,,,,270.86838912013627,270.86838912013627,270.86838912013627,270.86838912013627,l,1,0.5958994497195818,271.4767787232413,271.4767787232413,271.4767787232413,272.4851873428561,272.4851873428561,272.4851873428561,,,,,,,,,,,,,,,,,,,,,,,,,279817,001,2010-10-14_16h05.54.288,eb_01,2022.2.4,120.01253410530664,
,,,0,0,0,0,53,0,53,0,,,,,,,,,,,,,,,,,,,,,,,,,,,,,,,,,,,,,,,,,,,,,,,,,,,,,,,,,,,279817,001,2010-10-14_16h05.54.288,eb_01,2022.2.4,120.01253410530664,
2,stimuli/2.png,s,0,0,0,0,54,0,54,0,0,0,0,0,,,,,,,,,,,,,,,,,,272.4851873428561,272.4851873428561,272.4851873428561,272.4851873428561,l,0,0.8031658710824559,273.3102390345739,273.3102390345739,273.3102390345739,,,,,,,,,,,,,,,,,,,,,,,,,,,,279817,001,2010-10-14_16h05.54.288,eb_01,2022.2.4,120.01253410530664,
,,,0,0,0,0,54,0,54,0,,,,,,,,,,,,,,,,,,,,,,,,,,,,,,,,,,,,,,,,,,,,,,,,,,,,,,,,,,,279817,001,2010-10-14_16h05.54.288,eb_01,2022.2.4,120.01253410530664,
3,stimuli/3.png,l,0,0,0,0,55,0,55,0,0,0,0,0,,,,,,,,,,,,,,,,,,274.31868176316493,274.31868176316493,274.31868176316493,274.31868176316493,l,1,0.8087057137017837,275.1520989100245,275.1520989100245,275.1520989100245,,,,,,,,,,,,,,,,,,,,,,,,,,,,279817,001,2010-10-14_16h05.54.288,eb_01,2022.2.4,120.01253410530664,
,,,0,0,0,0,55,0,55,0,,,,,,,,,,,,,,,,,,,,,,,,,,,,,,,,,,,,,,,,,,,,,,,,,,,,,,,,,,,279817,001,2010-10-14_16h05.54.288,eb_01,2022.2.4,120.01253410530664,
4,stimuli/4.png,l,0,0,0,0,56,0,56,0,0,0,0,0,,,,,,,,,,,,,,,,,,276.1688406868925,276.1688406868925,276.1688406868925,276.1688406868925,l,1,0.6705682454339694,276.86054556266754,276.86054556266754,276.86054556266754,,,,,,,,,,,,,,,,,,,,,,,,,,,,279817,001,2010-10-14_16h05.54.288,eb_01,2022.2.4,120.01253410530664,
,,,0,0,0,0,56,0,56,0,,,,,,,,,,,,,,,,,,,,,,,,,,,,,,,,,,,,,,,,,,,,,,,,,,,,,,,,,,,279817,001,2010-10-14_16h05.54.288,eb_01,2022.2.4,120.01253410530664,
3,stimuli/3.png,l,0,0,0,0,57,0,57,0,0,0,0,0,,,,,,,,,,,,,,,,,,277.8689638414653,277.8689638414653,277.8689638414653,277.8689638414653,l,1,0.5304781131853815,278.4190297955647,278.4190297955647,278.4190297955647,,,,,,,,,,,,,,,,,,,,,,,,,,,,279817,001,2010-10-14_16h05.54.288,eb_01,2022.2.4,120.01253410530664,
,,,0,0,0,0,57,0,57,0,,,,,,,,,,,,,,,,,,,,,,,,,,,,,,,,,,,,,,,,,,,,,,,,,,,,,,,,,,,279817,001,2010-10-14_16h05.54.288,eb_01,2022.2.4,120.01253410530664,
8,stimuli/8.png,l,0,0,0,0,58,0,58,0,0,0,0,0,,,,,,,,,,,,,,,,,,279.4274764481961,279.4274764481961,279.4274764481961,279.4274764481961,l,1,0.6199840158515144,280.0691609491332,280.0691609491332,280.0691609491332,,,,,,,,,,,,,,,,,,,,,,,,,,,,279817,001,2010-10-14_16h05.54.288,eb_01,2022.2.4,120.01253410530664,
,,,0,0,0,0,58,0,58,0,,,,,,,,,,,,,,,,,,,,,,,,,,,,,,,,,,,,,,,,,,,,,,,,,,,,,,,,,,,279817,001,2010-10-14_16h05.54.288,eb_01,2022.2.4,120.01253410530664,
9,stimuli/9.png,l,0,0,0,0,59,0,59,0,0,0,0,0,,,,,,,,,,,,,,,,,,281.0859274776594,281.0859274776594,281.0859274776594,281.0859274776594,l,1,0.5135932596895145,281.6276638966956,281.6276638966956,281.6276638966956,,,,,,,,,,,,,,,,,,,,,,,,,,,,279817,001,2010-10-14_16h05.54.288,eb_01,2022.2.4,120.01253410530664,
,,,0,0,0,0,59,0,59,0,,,,,,,,,,,,,,,,,,,,,,,,,,,,,,,,,,,,,,,,,,,,,,,,,,,,,,,,,,,279817,001,2010-10-14_16h05.54.288,eb_01,2022.2.4,120.01253410530664,
6,stimuli/6.png,s,0,0,0,0,60,0,60,0,0,0,0,0,,,,,,,,,,,,,,,,,,282.6443881662999,282.6443881662999,282.6443881662999,282.6443881662999,s,1,0.4911640358332079,283.1610801380157,283.1610801380157,283.1610801380157,,,,,,,,,,,,,,,,,,,,,,,,,,,,279817,001,2010-10-14_16h05.54.288,eb_01,2022.2.4,120.01253410530664,
,,,0,0,0,0,60,0,60,0,,,,,,,,,,,,,,,,,,,,,,,,,,,,,,,,,,,,,,,,,,,,,,,,,,,,,,,,,,,279817,001,2010-10-14_16h05.54.288,eb_01,2022.2.4,120.01253410530664,
8,stimuli/8.png,l,0,0,0,0,61,0,61,0,0,0,0,0,,,,,,,,,,,,,,,,,,284.16117008913716,284.16117008913716,284.16117008913716,284.16117008913716,l,1,0.5103975797683233,284.6945658046898,284.6945658046898,284.6945658046898,,,,,,,,,,,,,,,,,,,,,,,,,,,,279817,001,2010-10-14_16h05.54.288,eb_01,2022.2.4,120.01253410530664,
,,,0,0,0,0,61,0,61,0,,,,,,,,,,,,,,,,,,,,,,,,,,,,,,,,,,,,,,,,,,,,,,,,,,,,,,,,,,,279817,001,2010-10-14_16h05.54.288,eb_01,2022.2.4,120.01253410530664,
9,stimuli/9.png,l,0,0,0,0,62,0,62,0,0,0,0,0,,,,,,,,,,,,,,,,,,285.71131935367885,285.71131935367885,285.71131935367885,285.71131935367885,l,1,0.5042984101601178,286.24468729908403,286.24468729908403,286.24468729908403,,,,,,,,,,,,,,,,,,,,,,,,,,,,279817,001,2010-10-14_16h05.54.288,eb_01,2022.2.4,120.01253410530664,
,,,0,0,0,0,62,0,62,0,,,,,,,,,,,,,,,,,,,,,,,,,,,,,,,,,,,,,,,,,,,,,,,,,,,,,,,,,,,279817,001,2010-10-14_16h05.54.288,eb_01,2022.2.4,120.01253410530664,
5,stimuli/5.png,s,0,0,0,0,63,0,63,0,0,0,0,0,,,,,,,,,,,,,,,,,,287.24476698733633,287.24476698733633,287.24476698733633,287.24476698733633,s,1,0.5388767717668088,287.8031591561594,287.8031591561594,287.8031591561594,,,,,,,,,,,,,,,,,,,,,,,,,,,,279817,001,2010-10-14_16h05.54.288,eb_01,2022.2.4,120.01253410530664,
,,,0,0,0,0,63,0,63,0,,,,,,,,,,,,,,,,,,,,,,,,,,,,,,,,,,,,,,,,,,,,,,,,,,,,,,,,,,,279817,001,2010-10-14_16h05.54.288,eb_01,2022.2.4,120.01253410530664,
6,stimuli/6.png,s,0,0,0,0,64,0,64,0,0,0,0,0,,,,,,,,,,,,,,,,,,288.8282328828791,288.8282328828791,288.8282328828791,288.8282328828791,s,1,0.594472305601812,289.45328880049055,289.45328880049055,289.45328880049055,,,,,,,,,,,,,,,,,,,,,,,,,,,,279817,001,2010-10-14_16h05.54.288,eb_01,2022.2.4,120.01253410530664,
,,,0,0,0,0,64,0,64,0,,,,,,,,,,,,,,,,,,,,,,,,,,,,,,,,,,,,,,,,,,,,,,,,,,,,,,,,,,,279817,001,2010-10-14_16h05.54.288,eb_01,2022.2.4,120.01253410530664,
9,stimuli/9.png,l,0,0,0,0,65,0,65,0,0,0,0,0,,,,,,,,,,,,,,,,,,290.461712512566,290.461712512566,290.461712512566,290.461712512566,l,1,1.0969770521915052,291.58682517787383,291.58682517787383,291.58682517787383,,,,,,,,,,,,,,,,,,,,,,,,,,,,279817,001,2010-10-14_16h05.54.288,eb_01,2022.2.4,120.01253410530664,
,,,0,0,0,0,65,0,65,0,,,,,,,,,,,,,,,,,,,,,,,,,,,,,,,,,,,,,,,,,,,,,,,,,,,,,,,,,,,279817,001,2010-10-14_16h05.54.288,eb_01,2022.2.4,120.01253410530664,
8,stimuli/8.png,l,0,0,0,0,66,0,66,0,0,0,0,0,,,,,,,,,,,,,,,,,,292.58689399954164,292.58689399954164,292.58689399954164,292.58689399954164,l,1,0.6358148111321498,293.2452740943845,293.2452740943845,293.2452740943845,,,,,,,,,,,,,,,,,,,,,,,,,,,,279817,001,2010-10-14_16h05.54.288,eb_01,2022.2.4,120.01253410530664,
,,,0,0,0,0,66,0,66,0,,,,,,,,,,,,,,,,,,,,,,,,,,,,,,,,,,,,,,,,,,,,,,,,,,,,,,,,,,,279817,001,2010-10-14_16h05.54.288,eb_01,2022.2.4,120.01253410530664,
9,stimuli/9.png,l,0,0,0,0,67,0,67,0,0,0,0,0,,,,,,,,,,,,,,,,,,294.2620309637132,294.2620309637132,294.2620309637132,294.2620309637132,l,1,0.5367390741012059,294.8287614212313,294.8287614212313,294.8287614212313,,,,,,,,,,,,,,,,,,,,,,,,,,,,279817,001,2010-10-14_16h05.54.288,eb_01,2022.2.4,120.01253410530664,
,,,0,0,0,0,67,0,67,0,,,,,,,,,,,,,,,,,,,,,,,,,,,,,,,,,,,,,,,,,,,,,,,,,,,,,,,,,,,279817,001,2010-10-14_16h05.54.288,eb_01,2022.2.4,120.01253410530664,
6,stimuli/6.png,s,0,0,0,0,68,0,68,0,0,0,0,0,,,,,,,,,,,,,,,,,,295.84551376283343,295.84551376283343,295.84551376283343,295.84551376283343,s,1,0.5053331499948399,296.3789399651723,296.3789399651723,296.3789399651723,,,,,,,,,,,,,,,,,,,,,,,,,,,,279817,001,2010-10-14_16h05.54.288,eb_01,2022.2.4,120.01253410530664,
,,,0,0,0,0,68,0,68,0,,,,,,,,,,,,,,,,,,,,,,,,,,,,,,,,,,,,,,,,,,,,,,,,,,,,,,,,,,,279817,001,2010-10-14_16h05.54.288,eb_01,2022.2.4,120.01253410530664,
8,stimuli/8.png,l,0,0,0,0,69,0,69,0,0,0,0,0,,,,,,,,,,,,,,,,,,297.3789653205167,297.3789653205167,297.3789653205167,297.3789653205167,l,1,0.4998678641859442,297.8956886845699,297.8956886845699,297.8956886845699,,,,,,,,,,,,,,,,,,,,,,,,,,,,279817,001,2010-10-14_16h05.54.288,eb_01,2022.2.4,120.01253410530664,
,,,0,0,0,0,69,0,69,0,,,,,,,,,,,,,,,,,,,,,,,,,,,,,,,,,,,,,,,,,,,,,,,,,,,,,,,,,,,279817,001,2010-10-14_16h05.54.288,eb_01,2022.2.4,120.01253410530664,
3,stimuli/3.png,l,0,0,0,0,70,0,70,0,0,0,0,0,,,,,,,,,,,,,,,,,,298.9040948893962,298.9040948893962,298.9040948893962,298.9040948893962,l,1,0.7667987497261493,299.679160013402,299.679160013402,299.679160013402,300.6959298622678,300.6959298622678,300.6959298622678,,,,,,,,,,,,,,,,,,,,,,,,,279817,001,2010-10-14_16h05.54.288,eb_01,2022.2.4,120.01253410530664,
,,,0,0,0,0,70,0,70,0,,,,,,,,,,,,,,,,,,,,,,,,,,,,,,,,,,,,,,,,,,,,,,,,,,,,,,,,,,,279817,001,2010-10-14_16h05.54.288,eb_01,2022.2.4,120.01253410530664,
8,stimuli/8.png,l,0,0,0,0,71,0,71,0,0,0,0,0,,,,,,,,,,,,,,,,,,300.6959298622678,300.6959298622678,300.6959298622678,300.6959298622678,l,1,0.47898169462860096,301.1959769507812,301.1959769507812,301.1959769507812,,,,,,,,,,,,,,,,,,,,,,,,,,,,279817,001,2010-10-14_16h05.54.288,eb_01,2022.2.4,120.01253410530664,
,,,0,0,0,0,71,0,71,0,,,,,,,,,,,,,,,,,,,,,,,,,,,,,,,,,,,,,,,,,,,,,,,,,,,,,,,,,,,279817,001,2010-10-14_16h05.54.288,eb_01,2022.2.4,120.01253410530664,
3,stimuli/3.png,l,0,0,0,0,72,0,72,0,0,0,0,0,,,,,,,,,,,,,,,,,,302.2044181701349,302.2044181701349,302.2044181701349,302.2044181701349,l,1,0.44251134077785537,302.66274996906577,302.66274996906577,302.66274996906577,303.67117005895125,303.67117005895125,303.67117005895125,,,,,,,,,,,,,,,,,,,,,,,,,279817,001,2010-10-14_16h05.54.288,eb_01,2022.2.4,120.01253410530664,
,,,0,0,0,0,72,0,72,0,,,,,,,,,,,,,,,,,,,,,,,,,,,,,,,,,,,,,,,,,,,,,,,,,,,,,,,,,,,279817,001,2010-10-14_16h05.54.288,eb_01,2022.2.4,120.01253410530664,
8,stimuli/8.png,l,0,0,0,0,73,0,73,0,0,0,0,0,,,,,,,,,,,,,,,,,,303.67117005895125,303.67117005895125,303.67117005895125,303.67117005895125,l,1,0.49487889678857755,304.187922098703,304.187922098703,304.187922098703,,,,,,,,,,,,,,,,,,,,,,,,,,,,279817,001,2010-10-14_16h05.54.288,eb_01,2022.2.4,120.01253410530664,
,,,0,0,0,0,73,0,73,0,,,,,,,,,,,,,,,,,,,,,,,,,,,,,,,,,,,,,,,,,,,,,,,,,,,,,,,,,,,279817,001,2010-10-14_16h05.54.288,eb_01,2022.2.4,120.01253410530664,
9,stimuli/9.png,l,0,0,0,0,74,0,74,0,0,0,0,0,,,,,,,,,,,,,,,,,,305.20463338877016,305.20463338877016,305.20463338877016,305.20463338877016,l,1,0.5853567546291742,305.82137878783396,305.82137878783396,305.82137878783396,,,,,,,,,,,,,,,,,,,,,,,,,,,,279817,001,2010-10-14_16h05.54.288,eb_01,2022.2.4,120.01253410530664,
,,,0,0,0,0,74,0,74,0,,,,,,,,,,,,,,,,,,,,,,,,,,,,,,,,,,,,,,,,,,,,,,,,,,,,,,,,,,,279817,001,2010-10-14_16h05.54.288,eb_01,2022.2.4,120.01253410530664,
5,stimuli/5.png,s,0,0,0,0,75,0,75,0,0,0,0,0,,,,,,,,,,,,,,,,,,306.8214379503188,306.8214379503188,306.8214379503188,306.8214379503188,s,1,0.41660813181078993,307.25482159189414,307.25482159189414,307.25482159189414,,,,,,,,,,,,,,,,,,,,,,,,,,,,279817,001,2010-10-14_16h05.54.288,eb_01,2022.2.4,120.01253410530664,
,,,0,0,0,0,75,0,75,0,,,,,,,,,,,,,,,,,,,,,,,,,,,,,,,,,,,,,,,,,,,,,,,,,,,,,,,,,,,279817,001,2010-10-14_16h05.54.288,eb_01,2022.2.4,120.01253410530664,
6,stimuli/6.png,s,0,0,0,0,76,0,76,0,0,0,0,0,,,,,,,,,,,,,,,,,,308.27992791835277,308.27992791835277,308.27992791835277,308.27992791835277,s,1,0.5021238868357614,308.8133015989006,308.8133015989006,308.8133015989006,,,,,,,,,,,,,,,,,,,,,,,,,,,,279817,001,2010-10-14_16h05.54.288,eb_01,2022.2.4,120.01253410530664,
,,,0,0,0,0,76,0,76,0,,,,,,,,,,,,,,,,,,,,,,,,,,,,,,,,,,,,,,,,,,,,,,,,,,,,,,,,,,,279817,001,2010-10-14_16h05.54.288,eb_01,2022.2.4,120.01253410530664,
5,stimuli/5.png,s,0,0,0,0,77,0,77,0,0,0,0,0,,,,,,,,,,,,,,,,,,309.81340362400806,309.81340362400806,309.81340362400806,309.81340362400806,s,1,0.5686847049801145,310.4050934073166,310.4050934073166,310.4050934073166,,,,,,,,,,,,,,,,,,,,,,,,,,,,279817,001,2010-10-14_16h05.54.288,eb_01,2022.2.4,120.01253410530664,
,,,0,0,0,0,77,0,77,0,,,,,,,,,,,,,,,,,,,,,,,,,,,,,,,,,,,,,,,,,,,,,,,,,,,,,,,,,,,279817,001,2010-10-14_16h05.54.288,eb_01,2022.2.4,120.01253410530664,
6,stimuli/6.png,s,0,0,0,0,78,0,78,0,0,0,0,0,,,,,,,,,,,,,,,,,,311.43020607260405,311.43020607260405,311.43020607260405,311.43020607260405,s,1,0.4159036152414046,311.8718697459408,311.8718697459408,311.8718697459408,,,,,,,,,,,,,,,,,,,,,,,,,,,,279817,001,2010-10-14_16h05.54.288,eb_01,2022.2.4,120.01253410530664,
,,,0,0,0,0,78,0,78,0,,,,,,,,,,,,,,,,,,,,,,,,,,,,,,,,,,,,,,,,,,,,,,,,,,,,,,,,,,,279817,001,2010-10-14_16h05.54.288,eb_01,2022.2.4,120.01253410530664,
8,stimuli/8.png,l,0,0,0,0,79,0,79,0,0,0,0,0,,,,,,,,,,,,,,,,,,312.8719572822738,312.8719572822738,312.8719572822738,312.8719572822738,l,1,0.4861886516591767,313.38034265948227,313.38034265948227,313.38034265948227,,,,,,,,,,,,,,,,,,,,,,,,,,,,279817,001,2010-10-14_16h05.54.288,eb_01,2022.2.4,120.01253410530664,
,,,0,0,0,0,79,0,79,0,,,,,,,,,,,,,,,,,,,,,,,,,,,,,,,,,,,,,,,,,,,,,,,,,,,,,,,,,,,279817,001,2010-10-14_16h05.54.288,eb_01,2022.2.4,120.01253410530664,
3,stimuli/3.png,l,0,0,0,0,80,0,80,0,0,0,0,0,,,,,,,,,,,,,,,,,,314.3887669752585,314.3887669752585,314.3887669752585,314.3887669752585,l,1,0.5374251778557664,314.9388154220942,314.9388154220942,314.9388154220942,315.9472189102671,315.9472189102671,315.9472189102671,,,,,,,,,,,,,,,,,,,,,,,,,279817,001,2010-10-14_16h05.54.288,eb_01,2022.2.4,120.01253410530664,
,,,0,0,0,0,80,0,80,0,,,,,,,,,,,,,,,,,,,,,,,,,,,,,,,,,,,,,,,,,,,,,,,,,,,,,,,,,,,279817,001,2010-10-14_16h05.54.288,eb_01,2022.2.4,120.01253410530664,
8,stimuli/8.png,l,0,0,0,0,81,0,81,0,0,0,0,0,,,,,,,,,,,,,,,,,,315.9472189102671,315.9472189102671,315.9472189102671,315.9472189102671,l,1,0.570962460784358,316.53897268565197,316.53897268565197,316.53897268565197,,,,,,,,,,,,,,,,,,,,,,,,,,,,279817,001,2010-10-14_16h05.54.288,eb_01,2022.2.4,120.01253410530664,
,,,0,0,0,0,81,0,81,0,,,,,,,,,,,,,,,,,,,,,,,,,,,,,,,,,,,,,,,,,,,,,,,,,,,,,,,,,,,279817,001,2010-10-14_16h05.54.288,eb_01,2022.2.4,120.01253410530664,
6,stimuli/6.png,s,0,0,0,0,82,0,82,0,0,0,0,0,,,,,,,,,,,,,,,,,,317.5640699566284,317.5640699566284,317.5640699566284,317.5640699566284,s,1,0.9461745854787296,318.5391408157884,318.5391408157884,318.5391408157884,,,,,,,,,,,,,,,,,,,,,,,,,,,,279817,001,2010-10-14_16h05.54.288,eb_01,2022.2.4,120.01253410530664,
,,,0,0,0,0,82,0,82,0,,,,,,,,,,,,,,,,,,,,,,,,,,,,,,,,,,,,,,,,,,,,,,,,,,,,,,,,,,,279817,001,2010-10-14_16h05.54.288,eb_01,2022.2.4,120.01253410530664,
5,stimuli/5.png,s,0,0,0,0,83,0,83,0,0,0,0,0,,,,,,,,,,,,,,,,,,319.5392051097151,319.5392051097151,319.5392051097151,319.5392051097151,s,1,0.6421738731005462,320.20594130236714,320.20594130236714,320.20594130236714,,,,,,,,,,,,,,,,,,,,,,,,,,,,279817,001,2010-10-14_16h05.54.288,eb_01,2022.2.4,120.01253410530664,
,,,0,0,0,0,83,0,83,0,,,,,,,,,,,,,,,,,,,,,,,,,,,,,,,,,,,,,,,,,,,,,,,,,,,,,,,,,,,279817,001,2010-10-14_16h05.54.288,eb_01,2022.2.4,120.01253410530664,
6,stimuli/6.png,s,0,0,0,0,84,0,84,0,0,0,0,0,,,,,,,,,,,,,,,,,,321.23103736594203,321.23103736594203,321.23103736594203,321.23103736594203,s,1,0.5022790374496253,321.76440017990535,321.76440017990535,321.76440017990535,,,,,,,,,,,,,,,,,,,,,,,,,,,,279817,001,2010-10-14_16h05.54.288,eb_01,2022.2.4,120.01253410530664,
,,,0,0,0,0,84,0,84,0,,,,,,,,,,,,,,,,,,,,,,,,,,,,,,,,,,,,,,,,,,,,,,,,,,,,,,,,,,,279817,001,2010-10-14_16h05.54.288,eb_01,2022.2.4,120.01253410530664,
9,stimuli/9.png,l,0,0,0,0,85,0,85,0,0,0,0,0,,,,,,,,,,,,,,,,,,322.7728021588264,322.7728021588264,322.7728021588264,322.7728021588264,l,1,0.4805416525050532,323.2811757639138,323.2811757639138,323.2811757639138,,,,,,,,,,,,,,,,,,,,,,,,,,,,279817,001,2010-10-14_16h05.54.288,eb_01,2022.2.4,120.01253410530664,
,,,0,0,0,0,85,0,85,0,,,,,,,,,,,,,,,,,,,,,,,,,,,,,,,,,,,,,,,,,,,,,,,,,,,,,,,,,,,279817,001,2010-10-14_16h05.54.288,eb_01,2022.2.4,120.01253410530664,
5,stimuli/5.png,s,0,0,0,0,86,0,86,0,0,0,0,0,,,,,,,,,,,,,,,,,,324.28126390394755,324.28126390394755,324.28126390394755,324.28126390394755,s,1,0.5161100802506553,324.8146686749824,324.8146686749824,324.8146686749824,,,,,,,,,,,,,,,,,,,,,,,,,,,,279817,001,2010-10-14_16h05.54.288,eb_01,2022.2.4,120.01253410530664,
,,,0,0,0,0,86,0,86,0,,,,,,,,,,,,,,,,,,,,,,,,,,,,,,,,,,,,,,,,,,,,,,,,,,,,,,,,,,,279817,001,2010-10-14_16h05.54.288,eb_01,2022.2.4,120.01253410530664,
9,stimuli/9.png,l,0,0,0,0,87,0,87,0,0,0,0,0,,,,,,,,,,,,,,,,,,325.83141015,325.83141015,325.83141015,325.83141015,l,1,0.5179827541142004,326.38148485773127,326.38148485773127,326.38148485773127,,,,,,,,,,,,,,,,,,,,,,,,,,,,279817,001,2010-10-14_16h05.54.288,eb_01,2022.2.4,120.01253410530664,
,,,0,0,0,0,87,0,87,0,,,,,,,,,,,,,,,,,,,,,,,,,,,,,,,,,,,,,,,,,,,,,,,,,,,,,,,,,,,279817,001,2010-10-14_16h05.54.288,eb_01,2022.2.4,120.01253410530664,
8,stimuli/8.png,l,0,0,0,0,88,0,88,0,0,0,0,0,,,,,,,,,,,,,,,,,,327.38988925144076,327.38988925144076,327.38988925144076,327.38988925144076,l,1,0.5115651333617279,327.923240293283,327.923240293283,327.923240293283,,,,,,,,,,,,,,,,,,,,,,,,,,,,279817,001,2010-10-14_16h05.54.288,eb_01,2022.2.4,120.01253410530664,
,,,0,0,0,0,88,0,88,0,,,,,,,,,,,,,,,,,,,,,,,,,,,,,,,,,,,,,,,,,,,,,,,,,,,,,,,,,,,279817,001,2010-10-14_16h05.54.288,eb_01,2022.2.4,120.01253410530664,
3,stimuli/3.png,l,0,0,0,0,89,0,89,0,0,0,0,0,,,,,,,,,,,,,,,,,,328.9316815126367,328.9316815126367,328.9316815126367,328.9316815126367,l,1,0.5618137063720496,329.50674724034616,329.50674724034616,329.50674724034616,330.51515253962134,330.51515253962134,330.51515253962134,,,,,,,,,,,,,,,,,,,,,,,,,279817,001,2010-10-14_16h05.54.288,eb_01,2022.2.4,120.01253410530664,
,,,0,0,0,0,89,0,89,0,,,,,,,,,,,,,,,,,,,,,,,,,,,,,,,,,,,,,,,,,,,,,,,,,,,,,,,,,,,279817,001,2010-10-14_16h05.54.288,eb_01,2022.2.4,120.01253410530664,
8,stimuli/8.png,l,0,0,0,0,90,0,90,0,0,0,0,0,,,,,,,,,,,,,,,,,,330.51515253962134,330.51515253962134,330.51515253962134,330.51515253962134,l,1,0.4023439350858098,330.94016438721155,330.94016438721155,330.94016438721155,,,,,,,,,,,,,,,,,,,,,,,,,,,,279817,001,2010-10-14_16h05.54.288,eb_01,2022.2.4,120.01253410530664,
,,,0,0,0,0,90,0,90,0,,,,,,,,,,,,,,,,,,,,,,,,,,,,,,,,,,,,,,,,,,,,,,,,,,,,,,,,,,,279817,001,2010-10-14_16h05.54.288,eb_01,2022.2.4,120.01253410530664,
3,stimuli/3.png,l,0,0,0,0,91,0,91,0,0,0,0,0,,,,,,,,,,,,,,,,,,331.94860651210183,331.94860651210183,331.94860651210183,331.94860651210183,l,1,0.8569177085882984,332.81535779722617,332.81535779722617,332.81535779722617,333.82377728342544,333.82377728342544,333.82377728342544,,,,,,,,,,,,,,,,,,,,,,,,,279817,001,2010-10-14_16h05.54.288,eb_01,2022.2.4,120.01253410530664,
,,,0,0,0,0,91,0,91,0,,,,,,,,,,,,,,,,,,,,,,,,,,,,,,,,,,,,,,,,,,,,,,,,,,,,,,,,,,,279817,001,2010-10-14_16h05.54.288,eb_01,2022.2.4,120.01253410530664,
8,stimuli/8.png,l,0,0,0,0,92,0,92,0,0,0,0,0,,,,,,,,,,,,,,,,,,333.82377728342544,333.82377728342544,333.82377728342544,333.82377728342544,l,1,0.4618019342451589,334.30712425029196,334.30712425029196,334.30712425029196,,,,,,,,,,,,,,,,,,,,,,,,,,,,279817,001,2010-10-14_16h05.54.288,eb_01,2022.2.4,120.01253410530664,
,,,0,0,0,0,92,0,92,0,,,,,,,,,,,,,,,,,,,,,,,,,,,,,,,,,,,,,,,,,,,,,,,,,,,,,,,,,,,279817,001,2010-10-14_16h05.54.288,eb_01,2022.2.4,120.01253410530664,
6,stimuli/6.png,s,0,0,0,0,93,0,93,0,0,0,0,0,,,,,,,,,,,,,,,,,,335.3322293693491,335.3322293693491,335.3322293693491,335.3322293693491,s,1,0.497368852753425,335.85729072024697,335.85729072024697,335.85729072024697,,,,,,,,,,,,,,,,,,,,,,,,,,,,279817,001,2010-10-14_16h05.54.288,eb_01,2022.2.4,120.01253410530664,
,,,0,0,0,0,93,0,93,0,,,,,,,,,,,,,,,,,,,,,,,,,,,,,,,,,,,,,,,,,,,,,,,,,,,,,,,,,,,279817,001,2010-10-14_16h05.54.288,eb_01,2022.2.4,120.01253410530664,
5,stimuli/5.png,s,0,0,0,0,94,0,94,0,0,0,0,0,,,,,,,,,,,,,,,,,,336.8573716159008,336.8573716159008,336.8573716159008,336.8573716159008,s,1,0.555248481236049,337.4324412676506,337.4324412676506,337.4324412676506,,,,,,,,,,,,,,,,,,,,,,,,,,,,279817,001,2010-10-14_16h05.54.288,eb_01,2022.2.4,120.01253410530664,
,,,0,0,0,0,94,0,94,0,,,,,,,,,,,,,,,,,,,,,,,,,,,,,,,,,,,,,,,,,,,,,,,,,,,,,,,,,,,279817,001,2010-10-14_16h05.54.288,eb_01,2022.2.4,120.01253410530664,
9,stimuli/9.png,l,0,0,0,0,95,0,95,0,0,0,0,0,,,,,,,,,,,,,,,,,,338.44917127238296,338.44917127238296,338.44917127238296,338.44917127238296,l,1,0.46750054965377785,338.9492123239179,338.9492123239179,338.9492123239179,,,,,,,,,,,,,,,,,,,,,,,,,,,,279817,001,2010-10-14_16h05.54.288,eb_01,2022.2.4,120.01253410530664,
,,,0,0,0,0,95,0,95,0,,,,,,,,,,,,,,,,,,,,,,,,,,,,,,,,,,,,,,,,,,,,,,,,,,,,,,,,,,,279817,001,2010-10-14_16h05.54.288,eb_01,2022.2.4,120.01253410530664,
5,stimuli/5.png,s,0,0,0,0,96,0,96,0,0,0,0,0,,,,,,,,,,,,,,,,,,339.949273297505,339.949273297505,339.949273297505,339.949273297505,s,1,0.4714351569855353,340.4410056415654,340.4410056415654,340.4410056415654,,,,,,,,,,,,,,,,,,,,,,,,,,,,279817,001,2010-10-14_16h05.54.288,eb_01,2022.2.4,120.01253410530664,
,,,0,0,0,0,96,0,96,0,,,,,,,,,,,,,,,,,,,,,,,,,,,,,,,,,,,,,,,,,,,,,,,,,,,,,,,,,,,279817,001,2010-10-14_16h05.54.288,eb_01,2022.2.4,120.01253410530664,
9,stimuli/9.png,l,0,0,0,0,97,0,97,0,0,0,0,0,,,,,,,,,,,,,,,,,,341.4577712645405,341.4577712645405,341.4577712645405,341.4577712645405,l,1,0.4429484187567141,341.9328351811564,341.9328351811564,341.9328351811564,,,,,,,,,,,,,,,,,,,,,,,,,,,,279817,001,2010-10-14_16h05.54.288,eb_01,2022.2.4,120.01253410530664,
,,,0,0,0,0,97,0,97,0,,,,,,,,,,,,,,,,,,,,,,,,,,,,,,,,,,,,,,,,,,,,,,,,,,,,,,,,,,,279817,001,2010-10-14_16h05.54.288,eb_01,2022.2.4,120.01253410530664,
8,stimuli/8.png,l,0,0,0,0,98,0,98,0,0,0,0,0,,,,,,,,,,,,,,,,,,342.93291698236135,342.93291698236135,342.93291698236135,342.93291698236135,l,1,0.4718360130354995,343.42457899551664,343.42457899551664,343.42457899551664,,,,,,,,,,,,,,,,,,,,,,,,,,,,279817,001,2010-10-14_16h05.54.288,eb_01,2022.2.4,120.01253410530664,
,,,0,0,0,0,98,0,98,0,,,,,,,,,,,,,,,,,,,,,,,,,,,,,,,,,,,,,,,,,,,,,,,,,,,,,,,,,,,279817,001,2010-10-14_16h05.54.288,eb_01,2022.2.4,120.01253410530664,
6,stimuli/6.png,s,0,0,0,0,99,0,99,0,0,0,0,0,,,,,,,,,,,,,,,,,,344.44968260532187,344.44968260532187,344.44968260532187,344.44968260532187,s,1,0.5151160900859395,344.9913894431229,344.9913894431229,344.9913894431229,,,,,,,,,,,,,,,,,,,,,,,,,,,,279817,001,2010-10-14_16h05.54.288,eb_01,2022.2.4,120.01253410530664,
,,,0,0,0,0,99,0,99,0,,,,,,,,,,,,,,,,,,,,,,,,,,,,,,,,,,,,,,,,,,,,,,,,,,,,,,,,,,,279817,001,2010-10-14_16h05.54.288,eb_01,2022.2.4,120.01253410530664,
,,,0,0,0,0,,,,,,,,,,,,,,,,,,,,,,,,,,,,,,,,,,,,,,,345.9831386907608,345.9831386907608,return,6.140840604173718,,,,,,,,,,,,,,,,,,,,,279817,001,2010-10-14_16h05.54.288,eb_01,2022.2.4,120.01253410530664,
8,stimuli/8.png,l,1,0,1,0,0,0,0,0,0,0,0,0,,,,,,,,,,,,,,,,,,352.150313772494,352.150313772494,352.150313772494,352.150313772494,l,1,1.2776375591056421,353.45045201953326,353.45045201953326,353.45045201953326,,,,,,,,,,,,,,,,,,,,,,,,,,,,279817,001,2010-10-14_16h05.54.288,eb_01,2022.2.4,120.01253410530664,
,,,1,0,1,0,0,0,0,0,,,,,,,,,,,,,,,,,,,,,,,,,,,,,,,,,,,,,,,,,,,,,,,,,,,,,,,,,,,279817,001,2010-10-14_16h05.54.288,eb_01,2022.2.4,120.01253410530664,
3,stimuli/3.png,l,1,0,1,0,1,0,1,0,0,0,0,0,,,,,,,,,,,,,,,,,,354.45887301496987,354.45887301496987,354.45887301496987,354.45887301496987,l,1,0.5451280734996544,355.0172579393984,355.0172579393984,355.0172579393984,356.0256771237473,356.0256771237473,356.0256771237473,,,,,,,,,,,,,,,,,,,,,,,,,279817,001,2010-10-14_16h05.54.288,eb_01,2022.2.4,120.01253410530664,
,,,1,0,1,0,1,0,1,0,,,,,,,,,,,,,,,,,,,,,,,,,,,,,,,,,,,,,,,,,,,,,,,,,,,,,,,,,,,279817,001,2010-10-14_16h05.54.288,eb_01,2022.2.4,120.01253410530664,
8,stimuli/8.png,l,1,0,1,0,2,0,2,0,0,0,0,0,,,,,,,,,,,,,,,,,,356.0256771237473,356.0256771237473,356.0256771237473,356.0256771237473,l,1,0.4503382965340279,356.5007021017809,356.5007021017809,356.5007021017809,,,,,,,,,,,,,,,,,,,,,,,,,,,,279817,001,2010-10-14_16h05.54.288,eb_01,2022.2.4,120.01253410530664,
,,,1,0,1,0,2,0,2,0,,,,,,,,,,,,,,,,,,,,,,,,,,,,,,,,,,,,,,,,,,,,,,,,,,,,,,,,,,,279817,001,2010-10-14_16h05.54.288,eb_01,2022.2.4,120.01253410530664,
3,stimuli/3.png,l,1,0,1,0,3,0,3,0,0,0,0,0,,,,,,,,,,,,,,,,,,357.509147245175,357.509147245175,357.509147245175,357.509147245175,l,1,0.47088428179267794,357.99251835999894,357.99251835999894,357.99251835999894,359.0009028316563,359.0009028316563,359.0009028316563,,,,,,,,,,,,,,,,,,,,,,,,,279817,001,2010-10-14_16h05.54.288,eb_01,2022.2.4,120.01253410530664,
,,,1,0,1,0,3,0,3,0,,,,,,,,,,,,,,,,,,,,,,,,,,,,,,,,,,,,,,,,,,,,,,,,,,,,,,,,,,,279817,001,2010-10-14_16h05.54.288,eb_01,2022.2.4,120.01253410530664,
2,stimuli/2.png,s,1,0,1,0,4,0,4,0,0,0,0,0,,,,,,,,,,,,,,,,,,359.0009028316563,359.0009028316563,359.0009028316563,359.0009028316563,s,1,1.0191497040214017,360.0343531819526,360.0343531819526,360.0343531819526,361.0427448979899,361.0427448979899,361.0427448979899,,,,,,,,,,,,,,,,,,,,,,,,,279817,001,2010-10-14_16h05.54.288,eb_01,2022.2.4,120.01253410530664,
,,,1,0,1,0,4,0,4,0,,,,,,,,,,,,,,,,,,,,,,,,,,,,,,,,,,,,,,,,,,,,,,,,,,,,,,,,,,,279817,001,2010-10-14_16h05.54.288,eb_01,2022.2.4,120.01253410530664,
3,stimuli/3.png,l,1,0,1,0,5,0,5,0,0,0,0,0,,,,,,,,,,,,,,,,,,361.0427448979899,361.0427448979899,361.0427448979899,361.0427448979899,l,1,0.5373868429742288,361.5927906281868,361.5927906281868,361.5927906281868,362.60957707876514,362.60957707876514,362.60957707876514,,,,,,,,,,,,,,,,,,,,,,,,,279817,001,2010-10-14_16h05.54.288,eb_01,2022.2.4,120.01253410530664,
,,,1,0,1,0,5,0,5,0,,,,,,,,,,,,,,,,,,,,,,,,,,,,,,,,,,,,,,,,,,,,,,,,,,,,,,,,,,,279817,001,2010-10-14_16h05.54.288,eb_01,2022.2.4,120.01253410530664,
4,stimuli/4.png,l,1,0,1,0,6,0,6,0,0,0,0,0,,,,,,,,,,,,,,,,,,362.60957707876514,362.60957707876514,362.60957707876514,362.60957707876514,l,1,0.9145600834162906,363.542993018229,363.542993018229,363.542993018229,,,,,,,,,,,,,,,,,,,,,,,,,,,,279817,001,2010-10-14_16h05.54.288,eb_01,2022.2.4,120.01253410530664,
,,,1,0,1,0,6,0,6,0,,,,,,,,,,,,,,,,,,,,,,,,,,,,,,,,,,,,,,,,,,,,,,,,,,,,,,,,,,,279817,001,2010-10-14_16h05.54.288,eb_01,2022.2.4,120.01253410530664,
3,stimuli/3.png,l,1,0,1,0,7,0,7,0,0,0,0,0,,,,,,,,,,,,,,,,,,364.55141491921677,364.55141491921677,364.55141491921677,364.55141491921677,l,1,0.5248199455963913,365.0847858831112,365.0847858831112,365.0847858831112,366.1015074360621,366.1015074360621,366.1015074360621,,,,,,,,,,,,,,,,,,,,,,,,,279817,001,2010-10-14_16h05.54.288,eb_01,2022.2.4,120.01253410530664,
,,,1,0,1,0,7,0,7,0,,,,,,,,,,,,,,,,,,,,,,,,,,,,,,,,,,,,,,,,,,,,,,,,,,,,,,,,,,,279817,001,2010-10-14_16h05.54.288,eb_01,2022.2.4,120.01253410530664,
4,stimuli/4.png,l,1,0,1,0,8,0,8,0,0,0,0,0,,,,,,,,,,,,,,,,,,366.1015074360621,366.1015074360621,366.1015074360621,366.1015074360621,l,1,0.7027109839837067,366.8265733146982,366.8265733146982,366.8265733146982,,,,,,,,,,,,,,,,,,,,,,,,,,,,279817,001,2010-10-14_16h05.54.288,eb_01,2022.2.4,120.01253410530664,
,,,1,0,1,0,8,0,8,0,,,,,,,,,,,,,,,,,,,,,,,,,,,,,,,,,,,,,,,,,,,,,,,,,,,,,,,,,,,279817,001,2010-10-14_16h05.54.288,eb_01,2022.2.4,120.01253410530664,
3,stimuli/3.png,l,1,0,1,0,9,0,9,0,0,0,0,0,,,,,,,,,,,,,,,,,,367.83501966549375,367.83501966549375,367.83501966549375,367.83501966549375,l,1,0.4322828709409805,368.2850687160244,368.2850687160244,368.2850687160244,,,,,,,,,,,,,,,,,,,,,,,,,,,,279817,001,2010-10-14_16h05.54.288,eb_01,2022.2.4,120.01253410530664,
,,,1,0,1,0,9,0,9,0,,,,,,,,,,,,,,,,,,,,,,,,,,,,,,,,,,,,,,,,,,,,,,,,,,,,,,,,,,,279817,001,2010-10-14_16h05.54.288,eb_01,2022.2.4,120.01253410530664,
8,stimuli/8.png,l,1,0,1,0,10,0,10,0,0,0,0,0,,,,,,,,,,,,,,,,,,369.2934785430407,369.2934785430407,369.2934785430407,369.2934785430407,l,1,0.3898208058672026,369.70185124257114,369.70185124257114,369.70185124257114,,,,,,,,,,,,,,,,,,,,,,,,,,,,279817,001,2010-10-14_16h05.54.288,eb_01,2022.2.4,120.01253410530664,
,,,1,0,1,0,10,0,10,0,,,,,,,,,,,,,,,,,,,,,,,,,,,,,,,,,,,,,,,,,,,,,,,,,,,,,,,,,,,279817,001,2010-10-14_16h05.54.288,eb_01,2022.2.4,120.01253410530664,
9,stimuli/9.png,l,1,0,1,0,11,0,11,0,0,0,0,0,,,,,,,,,,,,,,,,,,370.7186066026625,370.7186066026625,370.7186066026625,370.7186066026625,l,1,0.5088506014290033,371.26031162936124,371.26031162936124,371.26031162936124,,,,,,,,,,,,,,,,,,,,,,,,,,,,279817,001,2010-10-14_16h05.54.288,eb_01,2022.2.4,120.01253410530664,
,,,1,0,1,0,11,0,11,0,,,,,,,,,,,,,,,,,,,,,,,,,,,,,,,,,,,,,,,,,,,,,,,,,,,,,,,,,,,279817,001,2010-10-14_16h05.54.288,eb_01,2022.2.4,120.01253410530664,
8,stimuli/8.png,l,1,0,1,0,12,0,12,0,0,0,0,0,,,,,,,,,,,,,,,,,,372.260409428578,372.260409428578,372.260409428578,372.260409428578,l,1,0.4309148893225938,372.7104448958853,372.7104448958853,372.7104448958853,,,,,,,,,,,,,,,,,,,,,,,,,,,,279817,001,2010-10-14_16h05.54.288,eb_01,2022.2.4,120.01253410530664,
,,,1,0,1,0,12,0,12,0,,,,,,,,,,,,,,,,,,,,,,,,,,,,,,,,,,,,,,,,,,,,,,,,,,,,,,,,,,,279817,001,2010-10-14_16h05.54.288,eb_01,2022.2.4,120.01253410530664,
3,stimuli/3.png,l,1,0,1,0,13,0,13,0,0,0,0,0,,,,,,,,,,,,,,,,,,373.71886045802967,373.71886045802967,373.71886045802967,373.71886045802967,l,1,0.5325119746703422,374.26056971061917,374.26056971061917,374.26056971061917,375.2689882912673,375.2689882912673,375.2689882912673,,,,,,,,,,,,,,,,,,,,,,,,,279817,001,2010-10-14_16h05.54.288,eb_01,2022.2.4,120.01253410530664,
,,,1,0,1,0,13,0,13,0,,,,,,,,,,,,,,,,,,,,,,,,,,,,,,,,,,,,,,,,,,,,,,,,,,,,,,,,,,,279817,001,2010-10-14_16h05.54.288,eb_01,2022.2.4,120.01253410530664,
2,stimuli/2.png,s,1,0,1,0,14,0,14,0,0,0,0,0,,,,,,,,,,,,,,,,,,375.2689882912673,375.2689882912673,375.2689882912673,375.2689882912673,s,1,0.5984138554922538,375.8773944960849,375.8773944960849,375.8773944960849,376.90246158211085,376.90246158211085,376.90246158211085,,,,,,,,,,,,,,,,,,,,,,,,,279817,001,2010-10-14_16h05.54.288,eb_01,2022.2.4,120.01253410530664,
,,,1,0,1,0,14,0,14,0,,,,,,,,,,,,,,,,,,,,,,,,,,,,,,,,,,,,,,,,,,,,,,,,,,,,,,,,,,,279817,001,2010-10-14_16h05.54.288,eb_01,2022.2.4,120.01253410530664,
1,stimuli/1.png,s,1,0,1,0,15,0,15,0,0,0,0,0,,,,,,,,,,,,,,,,,,376.90246158211085,376.90246158211085,376.90246158211085,376.90246158211085,s,1,1.405006850764039,378.3359170638578,378.3359170638578,378.3359170638578,,,,,,,,,,,,,,,,,,,,,,,,,,,,279817,001,2010-10-14_16h05.54.288,eb_01,2022.2.4,120.01253410530664,
,,,1,0,1,0,15,0,15,0,,,,,,,,,,,,,,,,,,,,,,,,,,,,,,,,,,,,,,,,,,,,,,,,,,,,,,,,,,,279817,001,2010-10-14_16h05.54.288,eb_01,2022.2.4,120.01253410530664,
4,stimuli/4.png,l,1,0,1,0,16,0,16,0,0,0,0,0,,,,,,,,,,,,,,,,,,379.3443238723703,379.3443238723703,379.3443238723703,379.3443238723703,l,1,0.8511563084903173,380.2194206905697,380.2194206905697,380.2194206905697,,,,,,,,,,,,,,,,,,,,,,,,,,,,279817,001,2010-10-14_16h05.54.288,eb_01,2022.2.4,120.01253410530664,
,,,1,0,1,0,16,0,16,0,,,,,,,,,,,,,,,,,,,,,,,,,,,,,,,,,,,,,,,,,,,,,,,,,,,,,,,,,,,279817,001,2010-10-14_16h05.54.288,eb_01,2022.2.4,120.01253410530664,
2,stimuli/2.png,s,1,0,1,0,17,0,17,0,0,0,0,0,,,,,,,,,,,,,,,,,,381.22780244558817,381.22780244558817,381.22780244558817,381.22780244558817,s,1,0.6388218351785326,381.87789466058894,381.87789466058894,381.87789466058894,382.8946545484214,382.8946545484214,382.8946545484214,,,,,,,,,,,,,,,,,,,,,,,,,279817,001,2010-10-14_16h05.54.288,eb_01,2022.2.4,120.01253410530664,
,,,1,0,1,0,17,0,17,0,,,,,,,,,,,,,,,,,,,,,,,,,,,,,,,,,,,,,,,,,,,,,,,,,,,,,,,,,,,279817,001,2010-10-14_16h05.54.288,eb_01,2022.2.4,120.01253410530664,
4,stimuli/4.png,l,1,0,1,0,18,0,18,0,0,0,0,0,,,,,,,,,,,,,,,,,,382.8946545484214,382.8946545484214,382.8946545484214,382.8946545484214,l,1,0.5399347540223971,383.4530319266196,383.4530319266196,383.4530319266196,,,,,,,,,,,,,,,,,,,,,,,,,,,,279817,001,2010-10-14_16h05.54.288,eb_01,2022.2.4,120.01253410530664,
,,,1,0,1,0,18,0,18,0,,,,,,,,,,,,,,,,,,,,,,,,,,,,,,,,,,,,,,,,,,,,,,,,,,,,,,,,,,,279817,001,2010-10-14_16h05.54.288,eb_01,2022.2.4,120.01253410530664,
2,stimuli/2.png,s,1,0,1,0,19,0,19,0,0,0,0,0,,,,,,,,,,,,,,,,,,384.4614296796499,384.4614296796499,384.4614296796499,384.4614296796499,s,1,0.6371734354179353,385.11148718197364,385.11148718197364,385.11148718197364,386.13660165836336,386.13660165836336,386.13660165836336,,,,,,,,,,,,,,,,,,,,,,,,,279817,001,2010-10-14_16h05.54.288,eb_01,2022.2.4,120.01253410530664,
,,,1,0,1,0,19,0,19,0,,,,,,,,,,,,,,,,,,,,,,,,,,,,,,,,,,,,,,,,,,,,,,,,,,,,,,,,,,,279817,001,2010-10-14_16h05.54.288,eb_01,2022.2.4,120.01253410530664,
1,stimuli/1.png,s,1,0,1,0,20,0,20,0,0,0,0,0,,,,,,,,,,,,,,,,,,386.13660165836336,386.13660165836336,386.13660165836336,386.13660165836336,s,1,0.7780296615237603,386.9449885448121,386.9449885448121,386.9449885448121,,,,,,,,,,,,,,,,,,,,,,,,,,,,279817,001,2010-10-14_16h05.54.288,eb_01,2022.2.4,120.01253410530664,
,,,1,0,1,0,20,0,20,0,,,,,,,,,,,,,,,,,,,,,,,,,,,,,,,,,,,,,,,,,,,,,,,,,,,,,,,,,,,279817,001,2010-10-14_16h05.54.288,eb_01,2022.2.4,120.01253410530664,
4,stimuli/4.png,l,1,0,1,0,21,0,21,0,0,0,0,0,,,,,,,,,,,,,,,,,,387.9534062199091,387.9534062199091,387.9534062199091,387.9534062199091,l,1,0.5852674071938964,388.5617605066218,388.5617605066218,388.5617605066218,,,,,,,,,,,,,,,,,,,,,,,,,,,,279817,001,2010-10-14_16h05.54.288,eb_01,2022.2.4,120.01253410530664,
,,,1,0,1,0,21,0,21,0,,,,,,,,,,,,,,,,,,,,,,,,,,,,,,,,,,,,,,,,,,,,,,,,,,,,,,,,,,,279817,001,2010-10-14_16h05.54.288,eb_01,2022.2.4,120.01253410530664,
2,stimuli/2.png,s,1,0,1,0,22,0,22,0,0,0,0,0,,,,,,,,,,,,,,,,,,389.570218629553,389.570218629553,389.570218629553,389.570218629553,s,1,0.7124776241835207,390.2952467770083,390.2952467770083,390.2952467770083,391.3036674705945,391.3036674705945,391.3036674705945,,,,,,,,,,,,,,,,,,,,,,,,,279817,001,2010-10-14_16h05.54.288,eb_01,2022.2.4,120.01253410530664,
,,,1,0,1,0,22,0,22,0,,,,,,,,,,,,,,,,,,,,,,,,,,,,,,,,,,,,,,,,,,,,,,,,,,,,,,,,,,,279817,001,2010-10-14_16h05.54.288,eb_01,2022.2.4,120.01253410530664,
3,stimuli/3.png,l,1,0,1,0,23,0,23,0,0,0,0,0,,,,,,,,,,,,,,,,,,391.3036674705945,391.3036674705945,391.3036674705945,391.3036674705945,l,1,0.4671036176441703,391.7870428113092,391.7870428113092,391.7870428113092,392.8038081324339,392.8038081324339,392.8038081324339,,,,,,,,,,,,,,,,,,,,,,,,,279817,001,2010-10-14_16h05.54.288,eb_01,2022.2.4,120.01253410530664,
,,,1,0,1,0,23,0,23,0,,,,,,,,,,,,,,,,,,,,,,,,,,,,,,,,,,,,,,,,,,,,,,,,,,,,,,,,,,,279817,001,2010-10-14_16h05.54.288,eb_01,2022.2.4,120.01253410530664,
8,stimuli/8.png,l,1,0,1,0,24,0,24,0,0,0,0,0,,,,,,,,,,,,,,,,,,392.8038081324339,392.8038081324339,392.8038081324339,392.8038081324339,l,1,0.6549683649645885,393.47887506753614,393.47887506753614,393.47887506753614,,,,,,,,,,,,,,,,,,,,,,,,,,,,279817,001,2010-10-14_16h05.54.288,eb_01,2022.2.4,120.01253410530664,
,,,1,0,1,0,24,0,24,0,,,,,,,,,,,,,,,,,,,,,,,,,,,,,,,,,,,,,,,,,,,,,,,,,,,,,,,,,,,279817,001,2010-10-14_16h05.54.288,eb_01,2022.2.4,120.01253410530664,
9,stimuli/9.png,l,1,0,1,0,25,0,25,0,0,0,0,0,,,,,,,,,,,,,,,,,,394.4956234850979,394.4956234850979,394.4956234850979,394.4956234850979,l,1,0.571184923814144,395.09568385499006,395.09568385499006,395.09568385499006,,,,,,,,,,,,,,,,,,,,,,,,,,,,279817,001,2010-10-14_16h05.54.288,eb_01,2022.2.4,120.01253410530664,
,,,1,0,1,0,25,0,25,0,,,,,,,,,,,,,,,,,,,,,,,,,,,,,,,,,,,,,,,,,,,,,,,,,,,,,,,,,,,279817,001,2010-10-14_16h05.54.288,eb_01,2022.2.4,120.01253410530664,
6,stimuli/6.png,s,1,0,1,0,26,0,26,0,0,0,0,0,,,,,,,,,,,,,,,,,,396.1124410261691,396.1124410261691,396.1124410261691,396.1124410261691,s,1,0.49036624778818805,396.62914597740746,396.62914597740746,396.62914597740746,,,,,,,,,,,,,,,,,,,,,,,,,,,,279817,001,2010-10-14_16h05.54.288,eb_01,2022.2.4,120.01253410530664,
,,,1,0,1,0,26,0,26,0,,,,,,,,,,,,,,,,,,,,,,,,,,,,,,,,,,,,,,,,,,,,,,,,,,,,,,,,,,,279817,001,2010-10-14_16h05.54.288,eb_01,2022.2.4,120.01253410530664,
9,stimuli/9.png,l,1,0,1,0,27,0,27,0,0,0,0,0,,,,,,,,,,,,,,,,,,397.63757029318367,397.63757029318367,397.63757029318367,397.63757029318367,l,1,0.533283501805272,398.19594133255305,398.19594133255305,398.19594133255305,,,,,,,,,,,,,,,,,,,,,,,,,,,,279817,001,2010-10-14_16h05.54.288,eb_01,2022.2.4,120.01253410530664,
,,,1,0,1,0,27,0,27,0,,,,,,,,,,,,,,,,,,,,,,,,,,,,,,,,,,,,,,,,,,,,,,,,,,,,,,,,,,,279817,001,2010-10-14_16h05.54.288,eb_01,2022.2.4,120.01253410530664,
5,stimuli/5.png,s,1,0,1,0,28,0,28,0,0,0,0,0,,,,,,,,,,,,,,,,,,399.1960460742994,399.1960460742994,399.1960460742994,399.1960460742994,s,1,0.46183936357556377,399.67941930206143,399.67941930206143,399.67941930206143,,,,,,,,,,,,,,,,,,,,,,,,,,,,279817,001,2010-10-14_16h05.54.288,eb_01,2022.2.4,120.01253410530664,
,,,1,0,1,0,28,0,28,0,,,,,,,,,,,,,,,,,,,,,,,,,,,,,,,,,,,,,,,,,,,,,,,,,,,,,,,,,,,279817,001,2010-10-14_16h05.54.288,eb_01,2022.2.4,120.01253410530664,
6,stimuli/6.png,s,1,0,1,0,29,0,29,0,0,0,0,0,,,,,,,,,,,,,,,,,,400.7045090268075,400.7045090268075,400.7045090268075,400.7045090268075,s,1,0.48142214729159605,401.21290255394706,401.21290255394706,401.21290255394706,,,,,,,,,,,,,,,,,,,,,,,,,,,,279817,001,2010-10-14_16h05.54.288,eb_01,2022.2.4,120.01253410530664,
,,,1,0,1,0,29,0,29,0,,,,,,,,,,,,,,,,,,,,,,,,,,,,,,,,,,,,,,,,,,,,,,,,,,,,,,,,,,,279817,001,2010-10-14_16h05.54.288,eb_01,2022.2.4,120.01253410530664,
9,stimuli/9.png,l,1,0,1,0,30,0,30,0,0,0,0,0,,,,,,,,,,,,,,,,,,402.2212945718493,402.2212945718493,402.2212945718493,402.2212945718493,l,1,0.41264726356894244,402.6629682062048,402.6629682062048,402.6629682062048,,,,,,,,,,,,,,,,,,,,,,,,,,,,279817,001,2010-10-14_16h05.54.288,eb_01,2022.2.4,120.01253410530664,
,,,1,0,1,0,30,0,30,0,,,,,,,,,,,,,,,,,,,,,,,,,,,,,,,,,,,,,,,,,,,,,,,,,,,,,,,,,,,279817,001,2010-10-14_16h05.54.288,eb_01,2022.2.4,120.01253410530664,
8,stimuli/8.png,l,1,0,1,0,31,0,31,0,0,0,0,0,,,,,,,,,,,,,,,,,,403.6630654017208,403.6630654017208,403.6630654017208,403.6630654017208,l,1,0.45092599737108685,404.1381386756693,404.1381386756693,404.1381386756693,,,,,,,,,,,,,,,,,,,,,,,,,,,,279817,001,2010-10-14_16h05.54.288,eb_01,2022.2.4,120.01253410530664,
,,,1,0,1,0,31,0,31,0,,,,,,,,,,,,,,,,,,,,,,,,,,,,,,,,,,,,,,,,,,,,,,,,,,,,,,,,,,,279817,001,2010-10-14_16h05.54.288,eb_01,2022.2.4,120.01253410530664,
3,stimuli/3.png,l,1,0,1,0,32,0,32,0,0,0,0,0,,,,,,,,,,,,,,,,,,405.1465533322771,405.1465533322771,405.1465533322771,405.1465533322771,s,0,0.4394201007380616,405.6049246734765,405.6049246734765,405.6049246734765,,,,,,,,,,,,,,,,,,,,,,,,,,,,279817,001,2010-10-14_16h05.54.288,eb_01,2022.2.4,120.01253410530664,
,,,1,0,1,0,32,0,32,0,,,,,,,,,,,,,,,,,,,,,,,,,,,,,,,,,,,,,,,,,,,,,,,,,,,,,,,,,,,279817,001,2010-10-14_16h05.54.288,eb_01,2022.2.4,120.01253410530664,
8,stimuli/8.png,l,1,0,1,0,33,0,33,0,0,0,0,0,,,,,,,,,,,,,,,,,,406.6133142765757,406.6133142765757,406.6133142765757,406.6133142765757,l,1,0.5407074885733891,407.17172516006394,407.17172516006394,407.17172516006394,,,,,,,,,,,,,,,,,,,,,,,,,,,,279817,001,2010-10-14_16h05.54.288,eb_01,2022.2.4,120.01253410530664,
,,,1,0,1,0,33,0,33,0,,,,,,,,,,,,,,,,,,,,,,,,,,,,,,,,,,,,,,,,,,,,,,,,,,,,,,,,,,,279817,001,2010-10-14_16h05.54.288,eb_01,2022.2.4,120.01253410530664,
9,stimuli/9.png,l,1,0,1,0,34,0,34,0,0,0,0,0,,,,,,,,,,,,,,,,,,408.1884446000622,408.1884446000622,408.1884446000622,408.1884446000622,l,1,0.6296281051909318,408.8468340522377,408.8468340522377,408.8468340522377,,,,,,,,,,,,,,,,,,,,,,,,,,,,279817,001,2010-10-14_16h05.54.288,eb_01,2022.2.4,120.01253410530664,
,,,1,0,1,0,34,0,34,0,,,,,,,,,,,,,,,,,,,,,,,,,,,,,,,,,,,,,,,,,,,,,,,,,,,,,,,,,,,279817,001,2010-10-14_16h05.54.288,eb_01,2022.2.4,120.01253410530664,
6,stimuli/6.png,s,1,0,1,0,35,0,35,0,0,0,0,0,,,,,,,,,,,,,,,,,,409.8635863938398,409.8635863938398,409.8635863938398,409.8635863938398,s,1,0.5625230525329243,410.45530726763536,410.45530726763536,410.45530726763536,,,,,,,,,,,,,,,,,,,,,,,,,,,,279817,001,2010-10-14_16h05.54.288,eb_01,2022.2.4,120.01253410530664,
,,,1,0,1,0,35,0,35,0,,,,,,,,,,,,,,,,,,,,,,,,,,,,,,,,,,,,,,,,,,,,,,,,,,,,,,,,,,,279817,001,2010-10-14_16h05.54.288,eb_01,2022.2.4,120.01253410530664,
8,stimuli/8.png,l,1,0,1,0,36,0,36,0,0,0,0,0,,,,,,,,,,,,,,,,,,411.45539359656686,411.45539359656686,411.45539359656686,411.45539359656686,l,1,0.5307558146596421,412.0054640784074,412.0054640784074,412.0054640784074,,,,,,,,,,,,,,,,,,,,,,,,,,,,279817,001,2010-10-14_16h05.54.288,eb_01,2022.2.4,120.01253410530664,
,,,1,0,1,0,36,0,36,0,,,,,,,,,,,,,,,,,,,,,,,,,,,,,,,,,,,,,,,,,,,,,,,,,,,,,,,,,,,279817,001,2010-10-14_16h05.54.288,eb_01,2022.2.4,120.01253410530664,
9,stimuli/9.png,l,1,0,1,0,37,0,37,0,0,0,0,0,,,,,,,,,,,,,,,,,,413.0222254754917,413.0222254754917,413.0222254754917,413.0222254754917,l,1,1.2670034036418656,414.32233021724096,414.32233021724096,414.32233021724096,,,,,,,,,,,,,,,,,,,,,,,,,,,,279817,001,2010-10-14_16h05.54.288,eb_01,2022.2.4,120.01253410530664,
,,,1,0,1,0,37,0,37,0,,,,,,,,,,,,,,,,,,,,,,,,,,,,,,,,,,,,,,,,,,,,,,,,,,,,,,,,,,,279817,001,2010-10-14_16h05.54.288,eb_01,2022.2.4,120.01253410530664,
6,stimuli/6.png,s,1,0,1,0,38,0,38,0,0,0,0,0,,,,,,,,,,,,,,,,,,415.33908618103305,415.33908618103305,415.33908618103305,415.33908618103305,s,1,0.6701076231984189,416.0391338732443,416.0391338732443,416.0391338732443,,,,,,,,,,,,,,,,,,,,,,,,,,,,279817,001,2010-10-14_16h05.54.288,eb_01,2022.2.4,120.01253410530664,
,,,1,0,1,0,38,0,38,0,,,,,,,,,,,,,,,,,,,,,,,,,,,,,,,,,,,,,,,,,,,,,,,,,,,,,,,,,,,279817,001,2010-10-14_16h05.54.288,eb_01,2022.2.4,120.01253410530664,
8,stimuli/8.png,l,1,0,1,0,39,0,39,0,0,0,0,0,,,,,,,,,,,,,,,,,,417.03921537259885,417.03921537259885,417.03921537259885,417.03921537259885,l,1,0.498028997448273,417.5559115701908,417.5559115701908,417.5559115701908,,,,,,,,,,,,,,,,,,,,,,,,,,,,279817,001,2010-10-14_16h05.54.288,eb_01,2022.2.4,120.01253410530664,
,,,1,0,1,0,39,0,39,0,,,,,,,,,,,,,,,,,,,,,,,,,,,,,,,,,,,,,,,,,,,,,,,,,,,,,,,,,,,279817,001,2010-10-14_16h05.54.288,eb_01,2022.2.4,120.01253410530664,
9,stimuli/9.png,l,1,0,1,0,40,0,40,0,0,0,0,0,,,,,,,,,,,,,,,,,,418.57267628761474,418.57267628761474,418.57267628761474,418.57267628761474,l,1,0.47657535097096115,419.081045364961,419.081045364961,419.081045364961,,,,,,,,,,,,,,,,,,,,,,,,,,,,279817,001,2010-10-14_16h05.54.288,eb_01,2022.2.4,120.01253410530664,
,,,1,0,1,0,40,0,40,0,,,,,,,,,,,,,,,,,,,,,,,,,,,,,,,,,,,,,,,,,,,,,,,,,,,,,,,,,,,279817,001,2010-10-14_16h05.54.288,eb_01,2022.2.4,120.01253410530664,
5,stimuli/5.png,s,1,0,1,0,41,0,41,0,0,0,0,0,,,,,,,,,,,,,,,,,,420.0811775750044,420.0811775750044,420.0811775750044,420.0811775750044,s,1,0.46411440274096094,420.56453661584237,420.56453661584237,420.56453661584237,,,,,,,,,,,,,,,,,,,,,,,,,,,,279817,001,2010-10-14_16h05.54.288,eb_01,2022.2.4,120.01253410530664,
,,,1,0,1,0,41,0,41,0,,,,,,,,,,,,,,,,,,,,,,,,,,,,,,,,,,,,,,,,,,,,,,,,,,,,,,,,,,,279817,001,2010-10-14_16h05.54.288,eb_01,2022.2.4,120.01253410530664,
6,stimuli/6.png,s,1,0,1,0,42,0,42,0,0,0,0,0,,,,,,,,,,,,,,,,,,421.5896251332015,421.5896251332015,421.5896251332015,421.5896251332015,s,1,0.5717294601927279,422.18968852158287,422.18968852158287,422.18968852158287,,,,,,,,,,,,,,,,,,,,,,,,,,,,279817,001,2010-10-14_16h05.54.288,eb_01,2022.2.4,120.01253410530664,
,,,1,0,1,0,42,0,42,0,,,,,,,,,,,,,,,,,,,,,,,,,,,,,,,,,,,,,,,,,,,,,,,,,,,,,,,,,,,279817,001,2010-10-14_16h05.54.288,eb_01,2022.2.4,120.01253410530664,
5,stimuli/5.png,s,1,0,1,0,43,0,43,0,0,0,0,0,,,,,,,,,,,,,,,,,,423.1897663987329,423.1897663987329,423.1897663987329,423.1897663987329,s,1,0.4916128859476885,423.6981218928413,423.6981218928413,423.6981218928413,,,,,,,,,,,,,,,,,,,,,,,,,,,,279817,001,2010-10-14_16h05.54.288,eb_01,2022.2.4,120.01253410530664,
,,,1,0,1,0,43,0,43,0,,,,,,,,,,,,,,,,,,,,,,,,,,,,,,,,,,,,,,,,,,,,,,,,,,,,,,,,,,,279817,001,2010-10-14_16h05.54.288,eb_01,2022.2.4,120.01253410530664,
9,stimuli/9.png,l,1,0,1,0,44,0,44,0,0,0,0,0,,,,,,,,,,,,,,,,,,424.71484586059523,424.71484586059523,424.71484586059523,424.71484586059523,l,1,0.41456823334738147,425.15658559997973,425.15658559997973,425.15658559997973,,,,,,,,,,,,,,,,,,,,,,,,,,,,279817,001,2010-10-14_16h05.54.288,eb_01,2022.2.4,120.01253410530664,
,,,1,0,1,0,44,0,44,0,,,,,,,,,,,,,,,,,,,,,,,,,,,,,,,,,,,,,,,,,,,,,,,,,,,,,,,,,,,279817,001,2010-10-14_16h05.54.288,eb_01,2022.2.4,120.01253410530664,
5,stimuli/5.png,s,1,0,1,0,45,0,45,0,0,0,0,0,,,,,,,,,,,,,,,,,,426.15666377898015,426.15666377898015,426.15666377898015,426.15666377898015,s,1,0.5967582113516983,426.7734103854309,426.7734103854309,426.7734103854309,,,,,,,,,,,,,,,,,,,,,,,,,,,,279817,001,2010-10-14_16h05.54.288,eb_01,2022.2.4,120.01253410530664,
,,,1,0,1,0,45,0,45,0,,,,,,,,,,,,,,,,,,,,,,,,,,,,,,,,,,,,,,,,,,,,,,,,,,,,,,,,,,,279817,001,2010-10-14_16h05.54.288,eb_01,2022.2.4,120.01253410530664,
9,stimuli/9.png,l,1,0,1,0,46,0,46,0,0,0,0,0,,,,,,,,,,,,,,,,,,427.79011080892815,427.79011080892815,427.79011080892815,427.79011080892815,l,1,0.4033186068991199,428.2235427464184,428.2235427464184,428.2235427464184,,,,,,,,,,,,,,,,,,,,,,,,,,,,279817,001,2010-10-14_16h05.54.288,eb_01,2022.2.4,120.01253410530664,
,,,1,0,1,0,46,0,46,0,,,,,,,,,,,,,,,,,,,,,,,,,,,,,,,,,,,,,,,,,,,,,,,,,,,,,,,,,,,279817,001,2010-10-14_16h05.54.288,eb_01,2022.2.4,120.01253410530664,
5,stimuli/5.png,s,1,0,1,0,47,0,47,0,0,0,0,0,,,,,,,,,,,,,,,,,,429.2236070403451,429.2236070403451,429.2236070403451,429.2236070403451,s,1,0.5138809221971314,429.7569722690969,429.7569722690969,429.7569722690969,,,,,,,,,,,,,,,,,,,,,,,,,,,,279817,001,2010-10-14_16h05.54.288,eb_01,2022.2.4,120.01253410530664,
,,,1,0,1,0,47,0,47,0,,,,,,,,,,,,,,,,,,,,,,,,,,,,,,,,,,,,,,,,,,,,,,,,,,,,,,,,,,,279817,001,2010-10-14_16h05.54.288,eb_01,2022.2.4,120.01253410530664,
6,stimuli/6.png,s,1,0,1,0,48,0,48,0,0,0,0,0,,,,,,,,,,,,,,,,,,430.78207769000437,430.78207769000437,430.78207769000437,430.78207769000437,s,1,0.538451465923572,431.348772227444,431.348772227444,431.348772227444,,,,,,,,,,,,,,,,,,,,,,,,,,,,279817,001,2010-10-14_16h05.54.288,eb_01,2022.2.4,120.01253410530664,
,,,1,0,1,0,48,0,48,0,,,,,,,,,,,,,,,,,,,,,,,,,,,,,,,,,,,,,,,,,,,,,,,,,,,,,,,,,,,279817,001,2010-10-14_16h05.54.288,eb_01,2022.2.4,120.01253410530664,
9,stimuli/9.png,l,1,0,1,0,49,0,49,0,0,0,0,0,,,,,,,,,,,,,,,,,,432.3571684712224,432.3571684712224,432.3571684712224,432.3571684712224,l,1,1.0834164664847776,433.4656866621808,433.4656866621808,433.4656866621808,,,,,,,,,,,,,,,,,,,,,,,,,,,,279817,001,2010-10-14_16h05.54.288,eb_01,2022.2.4,120.01253410530664,
,,,1,0,1,0,49,0,49,0,,,,,,,,,,,,,,,,,,,,,,,,,,,,,,,,,,,,,,,,,,,,,,,,,,,,,,,,,,,279817,001,2010-10-14_16h05.54.288,eb_01,2022.2.4,120.01253410530664,
8,stimuli/8.png,l,1,0,1,0,50,0,50,0,0,0,0,0,,,,,,,,,,,,,,,,,,434.465711413839,434.465711413839,434.465711413839,434.465711413839,l,1,0.5429091783298645,435.0324086679175,435.0324086679175,435.0324086679175,,,,,,,,,,,,,,,,,,,,,,,,,,,,279817,001,2010-10-14_16h05.54.288,eb_01,2022.2.4,120.01253410530664,
,,,1,0,1,0,50,0,50,0,,,,,,,,,,,,,,,,,,,,,,,,,,,,,,,,,,,,,,,,,,,,,,,,,,,,,,,,,,,279817,001,2010-10-14_16h05.54.288,eb_01,2022.2.4,120.01253410530664,
6,stimuli/6.png,s,1,0,1,0,51,0,51,0,0,0,0,0,,,,,,,,,,,,,,,,,,436.057510466635,436.057510466635,436.057510466635,436.057510466635,s,1,0.5591347926674644,436.6492274163902,436.6492274163902,436.6492274163902,,,,,,,,,,,,,,,,,,,,,,,,,,,,279817,001,2010-10-14_16h05.54.288,eb_01,2022.2.4,120.01253410530664,
,,,1,0,1,0,51,0,51,0,,,,,,,,,,,,,,,,,,,,,,,,,,,,,,,,,,,,,,,,,,,,,,,,,,,,,,,,,,,279817,001,2010-10-14_16h05.54.288,eb_01,2022.2.4,120.01253410530664,
5,stimuli/5.png,s,1,0,1,0,52,0,52,0,0,0,0,0,,,,,,,,,,,,,,,,,,437.6493028787372,437.6493028787372,437.6493028787372,437.6493028787372,s,1,0.5593871387973195,438.2327165543393,438.2327165543393,438.2327165543393,,,,,,,,,,,,,,,,,,,,,,,,,,,,279817,001,2010-10-14_16h05.54.288,eb_01,2022.2.4,120.01253410530664,
,,,1,0,1,0,52,0,52,0,,,,,,,,,,,,,,,,,,,,,,,,,,,,,,,,,,,,,,,,,,,,,,,,,,,,,,,,,,,279817,001,2010-10-14_16h05.54.288,eb_01,2022.2.4,120.01253410530664,
9,stimuli/9.png,l,1,0,1,0,53,0,53,0,0,0,0,0,,,,,,,,,,,,,,,,,,439.2494242222165,439.2494242222165,439.2494242222165,439.2494242222165,l,1,0.4632849204936065,439.74116833841254,439.74116833841254,439.74116833841254,,,,,,,,,,,,,,,,,,,,,,,,,,,,279817,001,2010-10-14_16h05.54.288,eb_01,2022.2.4,120.01253410530664,
,,,1,0,1,0,53,0,53,0,,,,,,,,,,,,,,,,,,,,,,,,,,,,,,,,,,,,,,,,,,,,,,,,,,,,,,,,,,,279817,001,2010-10-14_16h05.54.288,eb_01,2022.2.4,120.01253410530664,
5,stimuli/5.png,s,1,0,1,0,54,0,54,0,0,0,0,0,,,,,,,,,,,,,,,,,,440.7412314249377,440.7412314249377,440.7412314249377,440.7412314249377,s,1,0.6115334391652141,441.3746301589854,441.3746301589854,441.3746301589854,,,,,,,,,,,,,,,,,,,,,,,,,,,,279817,001,2010-10-14_16h05.54.288,eb_01,2022.2.4,120.01253410530664,
,,,1,0,1,0,54,0,54,0,,,,,,,,,,,,,,,,,,,,,,,,,,,,,,,,,,,,,,,,,,,,,,,,,,,,,,,,,,,279817,001,2010-10-14_16h05.54.288,eb_01,2022.2.4,120.01253410530664,
6,stimuli/6.png,s,1,0,1,0,55,0,55,0,0,0,0,0,,,,,,,,,,,,,,,,,,442.39976184080297,442.39976184080297,442.39976184080297,442.39976184080297,s,1,0.5369805536465719,442.966466037411,442.966466037411,442.966466037411,,,,,,,,,,,,,,,,,,,,,,,,,,,,279817,001,2010-10-14_16h05.54.288,eb_01,2022.2.4,120.01253410530664,
,,,1,0,1,0,55,0,55,0,,,,,,,,,,,,,,,,,,,,,,,,,,,,,,,,,,,,,,,,,,,,,,,,,,,,,,,,,,,279817,001,2010-10-14_16h05.54.288,eb_01,2022.2.4,120.01253410530664,
5,stimuli/5.png,s,1,0,1,0,56,0,56,0,0,0,0,0,,,,,,,,,,,,,,,,,,443.96648867611657,443.96648867611657,443.96648867611657,443.96648867611657,s,1,0.4902841447474202,444.474903030874,444.474903030874,444.474903030874,,,,,,,,,,,,,,,,,,,,,,,,,,,,279817,001,2010-10-14_16h05.54.288,eb_01,2022.2.4,120.01253410530664,
,,,1,0,1,0,56,0,56,0,,,,,,,,,,,,,,,,,,,,,,,,,,,,,,,,,,,,,,,,,,,,,,,,,,,,,,,,,,,279817,001,2010-10-14_16h05.54.288,eb_01,2022.2.4,120.01253410530664,
9,stimuli/9.png,l,1,0,1,0,57,0,57,0,0,0,0,0,,,,,,,,,,,,,,,,,,445.49162398012413,445.49162398012413,445.49162398012413,445.49162398012413,l,1,0.4842094249324873,446.00838084946736,446.00838084946736,446.00838084946736,,,,,,,,,,,,,,,,,,,,,,,,,,,,279817,001,2010-10-14_16h05.54.288,eb_01,2022.2.4,120.01253410530664,
,,,1,0,1,0,57,0,57,0,,,,,,,,,,,,,,,,,,,,,,,,,,,,,,,,,,,,,,,,,,,,,,,,,,,,,,,,,,,279817,001,2010-10-14_16h05.54.288,eb_01,2022.2.4,120.01253410530664,
5,stimuli/5.png,s,1,0,1,0,58,0,58,0,0,0,0,0,,,,,,,,,,,,,,,,,,447.0084164676955,447.0084164676955,447.0084164676955,447.0084164676955,s,1,0.49545150516496506,447.5251878258132,447.5251878258132,447.5251878258132,,,,,,,,,,,,,,,,,,,,,,,,,,,,279817,001,2010-10-14_16h05.54.288,eb_01,2022.2.4,120.01253410530664,
,,,1,0,1,0,58,0,58,0,,,,,,,,,,,,,,,,,,,,,,,,,,,,,,,,,,,,,,,,,,,,,,,,,,,,,,,,,,,279817,001,2010-10-14_16h05.54.288,eb_01,2022.2.4,120.01253410530664,
6,stimuli/6.png,s,1,0,1,0,59,0,59,0,0,0,0,0,,,,,,,,,,,,,,,,,,448.55027634315775,448.55027634315775,448.55027634315775,448.55027634315775,s,1,0.41761962925374974,449.0003175456077,449.0003175456077,449.0003175456077,,,,,,,,,,,,,,,,,,,,,,,,,,,,279817,001,2010-10-14_16h05.54.288,eb_01,2022.2.4,120.01253410530664,
,,,1,0,1,0,59,0,59,0,,,,,,,,,,,,,,,,,,,,,,,,,,,,,,,,,,,,,,,,,,,,,,,,,,,,,,,,,,,279817,001,2010-10-14_16h05.54.288,eb_01,2022.2.4,120.01253410530664,
5,stimuli/5.png,s,1,0,1,0,60,0,60,0,0,0,0,0,,,,,,,,,,,,,,,,,,450.00870292281616,450.00870292281616,450.00870292281616,450.00870292281616,s,1,0.47122265498910565,450.50041202448483,450.50041202448483,450.50041202448483,,,,,,,,,,,,,,,,,,,,,,,,,,,,279817,001,2010-10-14_16h05.54.288,eb_01,2022.2.4,120.01253410530664,
,,,1,0,1,0,60,0,60,0,,,,,,,,,,,,,,,,,,,,,,,,,,,,,,,,,,,,,,,,,,,,,,,,,,,,,,,,,,,279817,001,2010-10-14_16h05.54.288,eb_01,2022.2.4,120.01253410530664,
9,stimuli/9.png,l,1,0,1,0,61,0,61,0,0,0,0,0,,,,,,,,,,,,,,,,,,451.51714293476834,451.51714293476834,451.51714293476834,451.51714293476834,l,1,0.5388079500989988,452.0839159530442,452.0839159530442,452.0839159530442,,,,,,,,,,,,,,,,,,,,,,,,,,,,279817,001,2010-10-14_16h05.54.288,eb_01,2022.2.4,120.01253410530664,
,,,1,0,1,0,61,0,61,0,,,,,,,,,,,,,,,,,,,,,,,,,,,,,,,,,,,,,,,,,,,,,,,,,,,,,,,,,,,279817,001,2010-10-14_16h05.54.288,eb_01,2022.2.4,120.01253410530664,
5,stimuli/5.png,s,1,0,1,0,62,0,62,0,0,0,0,0,,,,,,,,,,,,,,,,,,453.08395881566685,453.08395881566685,453.08395881566685,453.08395881566685,s,1,0.4680308991082711,453.5756730487774,453.5756730487774,453.5756730487774,,,,,,,,,,,,,,,,,,,,,,,,,,,,279817,001,2010-10-14_16h05.54.288,eb_01,2022.2.4,120.01253410530664,
,,,1,0,1,0,62,0,62,0,,,,,,,,,,,,,,,,,,,,,,,,,,,,,,,,,,,,,,,,,,,,,,,,,,,,,,,,,,,279817,001,2010-10-14_16h05.54.288,eb_01,2022.2.4,120.01253410530664,
9,stimuli/9.png,l,1,0,1,0,63,0,63,0,0,0,0,0,,,,,,,,,,,,,,,,,,454.5924054683128,454.5924054683128,454.5924054683128,454.5924054683128,l,1,0.4875853089761222,455.1091750153282,455.1091750153282,455.1091750153282,,,,,,,,,,,,,,,,,,,,,,,,,,,,279817,001,2010-10-14_16h05.54.288,eb_01,2022.2.4,120.01253410530664,
,,,1,0,1,0,63,0,63,0,,,,,,,,,,,,,,,,,,,,,,,,,,,,,,,,,,,,,,,,,,,,,,,,,,,,,,,,,,,279817,001,2010-10-14_16h05.54.288,eb_01,2022.2.4,120.01253410530664,
8,stimuli/8.png,l,1,0,1,0,64,0,64,0,0,0,0,0,,,,,,,,,,,,,,,,,,456.1092133501952,456.1092133501952,456.1092133501952,456.1092133501952,l,1,0.6108083968283609,456.7426132916444,456.7426132916444,456.7426132916444,,,,,,,,,,,,,,,,,,,,,,,,,,,,279817,001,2010-10-14_16h05.54.288,eb_01,2022.2.4,120.01253410530664,
,,,1,0,1,0,64,0,64,0,,,,,,,,,,,,,,,,,,,,,,,,,,,,,,,,,,,,,,,,,,,,,,,,,,,,,,,,,,,279817,001,2010-10-14_16h05.54.288,eb_01,2022.2.4,120.01253410530664,
3,stimuli/3.png,l,1,0,1,0,65,0,65,0,0,0,0,0,,,,,,,,,,,,,,,,,,457.7510013854917,457.7510013854917,457.7510013854917,457.7510013854917,l,1,0.5691235940466868,458.3427485201828,458.3427485201828,458.3427485201828,,,,,,,,,,,,,,,,,,,,,,,,,,,,279817,001,2010-10-14_16h05.54.288,eb_01,2022.2.4,120.01253410530664,
,,,1,0,1,0,65,0,65,0,,,,,,,,,,,,,,,,,,,,,,,,,,,,,,,,,,,,,,,,,,,,,,,,,,,,,,,,,,,279817,001,2010-10-14_16h05.54.288,eb_01,2022.2.4,120.01253410530664,
4,stimuli/4.png,l,1,0,1,0,66,0,66,0,0,0,0,0,,,,,,,,,,,,,,,,,,459.35950388027413,459.35950388027413,459.35950388027413,459.35950388027413,l,1,0.8005669474805472,460.1846126215387,460.1846126215387,460.1846126215387,,,,,,,,,,,,,,,,,,,,,,,,,,,,279817,001,2010-10-14_16h05.54.288,eb_01,2022.2.4,120.01253410530664,
,,,1,0,1,0,66,0,66,0,,,,,,,,,,,,,,,,,,,,,,,,,,,,,,,,,,,,,,,,,,,,,,,,,,,,,,,,,,,279817,001,2010-10-14_16h05.54.288,eb_01,2022.2.4,120.01253410530664,
3,stimuli/3.png,l,1,0,1,0,67,0,67,0,0,0,0,0,,,,,,,,,,,,,,,,,,461.1930257688946,461.1930257688946,461.1930257688946,461.1930257688946,l,1,0.566141321673058,461.7680087898625,461.7680087898625,461.7680087898625,462.776466007228,462.776466007228,462.776466007228,,,,,,,,,,,,,,,,,,,,,,,,,279817,001,2010-10-14_16h05.54.288,eb_01,2022.2.4,120.01253410530664,
,,,1,0,1,0,67,0,67,0,,,,,,,,,,,,,,,,,,,,,,,,,,,,,,,,,,,,,,,,,,,,,,,,,,,,,,,,,,,279817,001,2010-10-14_16h05.54.288,eb_01,2022.2.4,120.01253410530664,
2,stimuli/2.png,s,1,0,1,0,68,0,68,0,0,0,0,0,,,,,,,,,,,,,,,,,,462.776466007228,462.776466007228,462.776466007228,462.776466007228,s,1,0.606720449985005,463.3931788065529,463.3931788065529,463.3931788065529,464.4183135068597,464.4183135068597,464.4183135068597,,,,,,,,,,,,,,,,,,,,,,,,,279817,001,2010-10-14_16h05.54.288,eb_01,2022.2.4,120.01253410530664,
,,,1,0,1,0,68,0,68,0,,,,,,,,,,,,,,,,,,,,,,,,,,,,,,,,,,,,,,,,,,,,,,,,,,,,,,,,,,,279817,001,2010-10-14_16h05.54.288,eb_01,2022.2.4,120.01253410530664,
1,stimuli/1.png,s,1,0,1,0,69,0,69,0,0,0,0,0,,,,,,,,,,,,,,,,,,464.4183135068597,464.4183135068597,464.4183135068597,464.4183135068597,s,1,0.9728970137948636,465.41836693421646,465.41836693421646,465.41836693421646,,,,,,,,,,,,,,,,,,,,,,,,,,,,279817,001,2010-10-14_16h05.54.288,eb_01,2022.2.4,120.01253410530664,
,,,1,0,1,0,69,0,69,0,,,,,,,,,,,,,,,,,,,,,,,,,,,,,,,,,,,,,,,,,,,,,,,,,,,,,,,,,,,279817,001,2010-10-14_16h05.54.288,eb_01,2022.2.4,120.01253410530664,
4,stimuli/4.png,l,1,0,1,0,70,0,70,0,0,0,0,0,,,,,,,,,,,,,,,,,,466.42679366478114,466.42679366478114,466.42679366478114,466.42679366478114,l,1,0.47643378359498456,466.92681962384086,466.92681962384086,466.92681962384086,,,,,,,,,,,,,,,,,,,,,,,,,,,,279817,001,2010-10-14_16h05.54.288,eb_01,2022.2.4,120.01253410530664,
,,,1,0,1,0,70,0,70,0,,,,,,,,,,,,,,,,,,,,,,,,,,,,,,,,,,,,,,,,,,,,,,,,,,,,,,,,,,,279817,001,2010-10-14_16h05.54.288,eb_01,2022.2.4,120.01253410530664,
3,stimuli/3.png,l,1,0,1,0,71,0,71,0,0,0,0,0,,,,,,,,,,,,,,,,,,467.9352388081752,467.9352388081752,467.9352388081752,467.9352388081752,l,1,0.48802329249156173,468.43528287819936,468.43528287819936,468.43528287819936,469.4437059865886,469.4437059865886,469.4437059865886,,,,,,,,,,,,,,,,,,,,,,,,,279817,001,2010-10-14_16h05.54.288,eb_01,2022.2.4,120.01253410530664,
,,,1,0,1,0,71,0,71,0,,,,,,,,,,,,,,,,,,,,,,,,,,,,,,,,,,,,,,,,,,,,,,,,,,,,,,,,,,,279817,001,2010-10-14_16h05.54.288,eb_01,2022.2.4,120.01253410530664,
2,stimuli/2.png,s,1,0,1,0,72,0,72,0,0,0,0,0,,,,,,,,,,,,,,,,,,469.4437059865886,469.4437059865886,469.4437059865886,469.4437059865886,s,1,0.4996390623273328,469.9520439734333,469.9520439734333,469.9520439734333,470.96047160954913,470.96047160954913,470.96047160954913,,,,,,,,,,,,,,,,,,,,,,,,,279817,001,2010-10-14_16h05.54.288,eb_01,2022.2.4,120.01253410530664,
,,,1,0,1,0,72,0,72,0,,,,,,,,,,,,,,,,,,,,,,,,,,,,,,,,,,,,,,,,,,,,,,,,,,,,,,,,,,,279817,001,2010-10-14_16h05.54.288,eb_01,2022.2.4,120.01253410530664,
3,stimuli/3.png,l,1,0,1,0,73,0,73,0,0,0,0,0,,,,,,,,,,,,,,,,,,470.96047160954913,470.96047160954913,470.96047160954913,470.96047160954913,l,1,0.7108582019864116,471.6938926804578,471.6938926804578,471.6938926804578,,,,,,,,,,,,,,,,,,,,,,,,,,,,279817,001,2010-10-14_16h05.54.288,eb_01,2022.2.4,120.01253410530664,
,,,1,0,1,0,73,0,73,0,,,,,,,,,,,,,,,,,,,,,,,,,,,,,,,,,,,,,,,,,,,,,,,,,,,,,,,,,,,279817,001,2010-10-14_16h05.54.288,eb_01,2022.2.4,120.01253410530664,
2,stimuli/2.png,s,1,0,1,0,74,0,74,0,0,0,0,0,,,,,,,,,,,,,,,,,,472.70231790178514,472.70231790178514,472.70231790178514,472.70231790178514,s,1,0.5690701667044777,473.2856808666693,473.2856808666693,473.2856808666693,474.31078719314246,474.31078719314246,474.31078719314246,,,,,,,,,,,,,,,,,,,,,,,,,279817,001,2010-10-14_16h05.54.288,eb_01,2022.2.4,120.01253410530664,
,,,1,0,1,0,74,0,74,0,,,,,,,,,,,,,,,,,,,,,,,,,,,,,,,,,,,,,,,,,,,,,,,,,,,,,,,,,,,279817,001,2010-10-14_16h05.54.288,eb_01,2022.2.4,120.01253410530664,
1,stimuli/1.png,s,1,0,1,0,75,0,75,0,0,0,0,0,,,,,,,,,,,,,,,,,,474.31078719314246,474.31078719314246,474.31078719314246,474.31078719314246,s,1,0.5206082404765766,474.8608326214744,474.8608326214744,474.8608326214744,,,,,,,,,,,,,,,,,,,,,,,,,,,,279817,001,2010-10-14_16h05.54.288,eb_01,2022.2.4,120.01253410530664,
,,,1,0,1,0,75,0,75,0,,,,,,,,,,,,,,,,,,,,,,,,,,,,,,,,,,,,,,,,,,,,,,,,,,,,,,,,,,,279817,001,2010-10-14_16h05.54.288,eb_01,2022.2.4,120.01253410530664,
4,stimuli/4.png,l,1,0,1,0,76,0,76,0,0,0,0,0,,,,,,,,,,,,,,,,,,475.86925572986365,475.86925572986365,475.86925572986365,475.86925572986365,l,1,0.522171820528456,476.4109498899779,476.4109498899779,476.4109498899779,,,,,,,,,,,,,,,,,,,,,,,,,,,,279817,001,2010-10-14_16h05.54.288,eb_01,2022.2.4,120.01253410530664,
,,,1,0,1,0,76,0,76,0,,,,,,,,,,,,,,,,,,,,,,,,,,,,,,,,,,,,,,,,,,,,,,,,,,,,,,,,,,,279817,001,2010-10-14_16h05.54.288,eb_01,2022.2.4,120.01253410530664,
3,stimuli/3.png,l,1,0,1,0,77,0,77,0,0,0,0,0,,,,,,,,,,,,,,,,,,477.4194122387853,477.4194122387853,477.4194122387853,477.4194122387853,l,1,0.6671147860761266,478.10276011120004,478.10276011120004,478.10276011120004,479.11119801021414,479.11119801021414,479.11119801021414,,,,,,,,,,,,,,,,,,,,,,,,,279817,001,2010-10-14_16h05.54.288,eb_01,2022.2.4,120.01253410530664,
,,,1,0,1,0,77,0,77,0,,,,,,,,,,,,,,,,,,,,,,,,,,,,,,,,,,,,,,,,,,,,,,,,,,,,,,,,,,,279817,001,2010-10-14_16h05.54.288,eb_01,2022.2.4,120.01253410530664,
2,stimuli/2.png,s,1,0,1,0,78,0,78,0,0,0,0,0,,,,,,,,,,,,,,,,,,479.11119801021414,479.11119801021414,479.11119801021414,479.11119801021414,s,1,0.4712649139109999,479.59459991367476,479.59459991367476,479.59459991367476,480.611356783018,480.611356783018,480.611356783018,,,,,,,,,,,,,,,,,,,,,,,,,279817,001,2010-10-14_16h05.54.288,eb_01,2022.2.4,120.01253410530664,
,,,1,0,1,0,78,0,78,0,,,,,,,,,,,,,,,,,,,,,,,,,,,,,,,,,,,,,,,,,,,,,,,,,,,,,,,,,,,279817,001,2010-10-14_16h05.54.288,eb_01,2022.2.4,120.01253410530664,
4,stimuli/4.png,l,1,0,1,0,79,0,79,0,0,0,0,0,,,,,,,,,,,,,,,,,,480.611356783018,480.611356783018,480.611356783018,480.611356783018,l,1,0.5071931462007342,481.1363894582173,481.1363894582173,481.1363894582173,,,,,,,,,,,,,,,,,,,,,,,,,,,,279817,001,2010-10-14_16h05.54.288,eb_01,2022.2.4,120.01253410530664,
,,,1,0,1,0,79,0,79,0,,,,,,,,,,,,,,,,,,,,,,,,,,,,,,,,,,,,,,,,,,,,,,,,,,,,,,,,,,,279817,001,2010-10-14_16h05.54.288,eb_01,2022.2.4,120.01253410530664,
2,stimuli/2.png,s,1,0,1,0,80,0,80,0,0,0,0,0,,,,,,,,,,,,,,,,,,482.1447905315872,482.1447905315872,482.1447905315872,482.1447905315872,s,1,0.5257849582267227,482.6865148766519,482.6865148766519,482.6865148766519,483.69490417790075,483.69490417790075,483.69490417790075,,,,,,,,,,,,,,,,,,,,,,,,,279817,001,2010-10-14_16h05.54.288,eb_01,2022.2.4,120.01253410530664,
,,,1,0,1,0,80,0,80,0,,,,,,,,,,,,,,,,,,,,,,,,,,,,,,,,,,,,,,,,,,,,,,,,,,,,,,,,,,,279817,001,2010-10-14_16h05.54.288,eb_01,2022.2.4,120.01253410530664,
3,stimuli/3.png,l,1,0,1,0,81,0,81,0,0,0,0,0,,,,,,,,,,,,,,,,,,483.69490417790075,483.69490417790075,483.69490417790075,483.69490417790075,l,1,0.4797257534810342,484.1949434183334,484.1949434183334,484.1949434183334,,,,,,,,,,,,,,,,,,,,,,,,,,,,279817,001,2010-10-14_16h05.54.288,eb_01,2022.2.4,120.01253410530664,
,,,1,0,1,0,81,0,81,0,,,,,,,,,,,,,,,,,,,,,,,,,,,,,,,,,,,,,,,,,,,,,,,,,,,,,,,,,,,279817,001,2010-10-14_16h05.54.288,eb_01,2022.2.4,120.01253410530664,
2,stimuli/2.png,s,1,0,1,0,82,0,82,0,0,0,0,0,,,,,,,,,,,,,,,,,,485.20336562117154,485.20336562117154,485.20336562117154,485.20336562117154,s,1,0.5952722065994749,485.8117778629676,485.8117778629676,485.8117778629676,486.8201716919575,486.8201716919575,486.8201716919575,,,,,,,,,,,,,,,,,,,,,,,,,279817,001,2010-10-14_16h05.54.288,eb_01,2022.2.4,120.01253410530664,
,,,1,0,1,0,82,0,82,0,,,,,,,,,,,,,,,,,,,,,,,,,,,,,,,,,,,,,,,,,,,,,,,,,,,,,,,,,,,279817,001,2010-10-14_16h05.54.288,eb_01,2022.2.4,120.01253410530664,
3,stimuli/3.png,l,1,0,1,0,83,0,83,0,0,0,0,0,,,,,,,,,,,,,,,,,,486.8201716919575,486.8201716919575,486.8201716919575,486.8201716919575,l,1,0.4984790549642639,487.33691105403705,487.33691105403705,487.33691105403705,,,,,,,,,,,,,,,,,,,,,,,,,,,,279817,001,2010-10-14_16h05.54.288,eb_01,2022.2.4,120.01253410530664,
,,,1,0,1,0,83,0,83,0,,,,,,,,,,,,,,,,,,,,,,,,,,,,,,,,,,,,,,,,,,,,,,,,,,,,,,,,,,,279817,001,2010-10-14_16h05.54.288,eb_01,2022.2.4,120.01253410530664,
8,stimuli/8.png,l,1,0,1,0,84,0,84,0,0,0,0,0,,,,,,,,,,,,,,,,,,488.345339595704,488.345339595704,488.345339595704,488.345339595704,l,1,0.5173612461512676,488.8870159467042,488.8870159467042,488.8870159467042,,,,,,,,,,,,,,,,,,,,,,,,,,,,279817,001,2010-10-14_16h05.54.288,eb_01,2022.2.4,120.01253410530664,
,,,1,0,1,0,84,0,84,0,,,,,,,,,,,,,,,,,,,,,,,,,,,,,,,,,,,,,,,,,,,,,,,,,,,,,,,,,,,279817,001,2010-10-14_16h05.54.288,eb_01,2022.2.4,120.01253410530664,
3,stimuli/3.png,l,1,0,1,0,85,0,85,0,0,0,0,0,,,,,,,,,,,,,,,,,,489.8954348292027,489.8954348292027,489.8954348292027,489.8954348292027,l,1,0.5193256822531112,490.4371615890559,490.4371615890559,490.4371615890559,,,,,,,,,,,,,,,,,,,,,,,,,,,,279817,001,2010-10-14_16h05.54.288,eb_01,2022.2.4,120.01253410530664,
,,,1,0,1,0,85,0,85,0,,,,,,,,,,,,,,,,,,,,,,,,,,,,,,,,,,,,,,,,,,,,,,,,,,,,,,,,,,,279817,001,2010-10-14_16h05.54.288,eb_01,2022.2.4,120.01253410530664,
2,stimuli/2.png,s,1,0,1,0,86,0,86,0,0,0,0,0,,,,,,,,,,,,,,,,,,491.4455868103978,491.4455868103978,491.4455868103978,491.4455868103978,s,1,0.5682452121982351,492.0289660751441,492.0289660751441,492.0289660751441,493.045744073941,493.045744073941,493.045744073941,,,,,,,,,,,,,,,,,,,,,,,,,279817,001,2010-10-14_16h05.54.288,eb_01,2022.2.4,120.01253410530664,
,,,1,0,1,0,86,0,86,0,,,,,,,,,,,,,,,,,,,,,,,,,,,,,,,,,,,,,,,,,,,,,,,,,,,,,,,,,,,279817,001,2010-10-14_16h05.54.288,eb_01,2022.2.4,120.01253410530664,
4,stimuli/4.png,l,1,0,1,0,87,0,87,0,0,0,0,0,,,,,,,,,,,,,,,,,,493.045744073941,493.045744073941,493.045744073941,493.045744073941,l,1,0.5280358494346729,493.5957756172138,493.5957756172138,493.5957756172138,,,,,,,,,,,,,,,,,,,,,,,,,,,,279817,001,2010-10-14_16h05.54.288,eb_01,2022.2.4,120.01253410530664,
,,,1,0,1,0,87,0,87,0,,,,,,,,,,,,,,,,,,,,,,,,,,,,,,,,,,,,,,,,,,,,,,,,,,,,,,,,,,,279817,001,2010-10-14_16h05.54.288,eb_01,2022.2.4,120.01253410530664,
2,stimuli/2.png,s,1,0,1,0,88,0,88,0,0,0,0,0,,,,,,,,,,,,,,,,,,494.6041884627193,494.6041884627193,494.6041884627193,494.6041884627193,s,1,0.553629662739695,495.17930580668326,495.17930580668326,495.17930580668326,,,,,,,,,,,,,,,,,,,,,,,,,,,,279817,001,2010-10-14_16h05.54.288,eb_01,2022.2.4,120.01253410530664,
,,,1,0,1,0,88,0,88,0,,,,,,,,,,,,,,,,,,,,,,,,,,,,,,,,,,,,,,,,,,,,,,,,,,,,,,,,,,,279817,001,2010-10-14_16h05.54.288,eb_01,2022.2.4,120.01253410530664,
4,stimuli/4.png,l,1,0,1,0,89,0,89,0,0,0,0,0,,,,,,,,,,,,,,,,,,496.1959986839356,496.1959986839356,496.1959986839356,496.1959986839356,l,1,0.713844398414949,496.929371157079,496.929371157079,496.929371157079,,,,,,,,,,,,,,,,,,,,,,,,,,,,279817,001,2010-10-14_16h05.54.288,eb_01,2022.2.4,120.01253410530664,
,,,1,0,1,0,89,0,89,0,,,,,,,,,,,,,,,,,,,,,,,,,,,,,,,,,,,,,,,,,,,,,,,,,,,,,,,,,,,279817,001,2010-10-14_16h05.54.288,eb_01,2022.2.4,120.01253410530664,
3,stimuli/3.png,l,1,0,1,0,90,0,90,0,0,0,0,0,,,,,,,,,,,,,,,,,,497.93780694314046,497.93780694314046,497.93780694314046,497.93780694314046,l,1,0.46006569630117156,498.4128295063856,498.4128295063856,498.4128295063856,499.42126680169895,499.42126680169895,499.42126680169895,,,,,,,,,,,,,,,,,,,,,,,,,279817,001,2010-10-14_16h05.54.288,eb_01,2022.2.4,120.01253410530664,
,,,1,0,1,0,90,0,90,0,,,,,,,,,,,,,,,,,,,,,,,,,,,,,,,,,,,,,,,,,,,,,,,,,,,,,,,,,,,279817,001,2010-10-14_16h05.54.288,eb_01,2022.2.4,120.01253410530664,
2,stimuli/2.png,s,1,0,1,0,91,0,91,0,0,0,0,0,,,,,,,,,,,,,,,,,,499.42126680169895,499.42126680169895,499.42126680169895,499.42126680169895,s,1,0.5206221255502896,499.9546637246385,499.9546637246385,499.9546637246385,500.9630641943222,500.9630641943222,500.9630641943222,,,,,,,,,,,,,,,,,,,,,,,,,279817,001,2010-10-14_16h05.54.288,eb_01,2022.2.4,120.01253410530664,
,,,1,0,1,0,91,0,91,0,,,,,,,,,,,,,,,,,,,,,,,,,,,,,,,,,,,,,,,,,,,,,,,,,,,,,,,,,,,279817,001,2010-10-14_16h05.54.288,eb_01,2022.2.4,120.01253410530664,
3,stimuli/3.png,l,1,0,1,0,92,0,92,0,0,0,0,0,,,,,,,,,,,,,,,,,,500.9630641943222,500.9630641943222,500.9630641943222,500.9630641943222,l,1,0.5868557389039779,501.56313754373696,501.56313754373696,501.56313754373696,502.5715564262209,502.5715564262209,502.5715564262209,,,,,,,,,,,,,,,,,,,,,,,,,279817,001,2010-10-14_16h05.54.288,eb_01,2022.2.4,120.01253410530664,
,,,1,0,1,0,92,0,92,0,,,,,,,,,,,,,,,,,,,,,,,,,,,,,,,,,,,,,,,,,,,,,,,,,,,,,,,,,,,279817,001,2010-10-14_16h05.54.288,eb_01,2022.2.4,120.01253410530664,
2,stimuli/2.png,s,1,0,1,0,93,0,93,0,0,0,0,0,,,,,,,,,,,,,,,,,,502.5715564262209,502.5715564262209,502.5715564262209,502.5715564262209,s,1,0.5784208583936561,503.1632715648884,503.1632715648884,503.1632715648884,504.1800051918108,504.1800051918108,504.1800051918108,,,,,,,,,,,,,,,,,,,,,,,,,279817,001,2010-10-14_16h05.54.288,eb_01,2022.2.4,120.01253410530664,
,,,1,0,1,0,93,0,93,0,,,,,,,,,,,,,,,,,,,,,,,,,,,,,,,,,,,,,,,,,,,,,,,,,,,,,,,,,,,279817,001,2010-10-14_16h05.54.288,eb_01,2022.2.4,120.01253410530664,
4,stimuli/4.png,l,1,0,1,0,94,0,94,0,0,0,0,0,,,,,,,,,,,,,,,,,,504.1800051918108,504.1800051918108,504.1800051918108,504.1800051918108,l,1,0.5939947798033245,504.79670863380306,504.79670863380306,504.79670863380306,,,,,,,,,,,,,,,,,,,,,,,,,,,,279817,001,2010-10-14_16h05.54.288,eb_01,2022.2.4,120.01253410530664,
,,,1,0,1,0,94,0,94,0,,,,,,,,,,,,,,,,,,,,,,,,,,,,,,,,,,,,,,,,,,,,,,,,,,,,,,,,,,,279817,001,2010-10-14_16h05.54.288,eb_01,2022.2.4,120.01253410530664,
1,stimuli/1.png,s,1,0,1,0,95,0,95,0,0,0,0,0,,,,,,,,,,,,,,,,,,505.8217944345088,505.8217944345088,505.8217944345088,505.8217944345088,s,1,0.5362573223974323,506.38852519386273,506.38852519386273,506.38852519386273,,,,,,,,,,,,,,,,,,,,,,,,,,,,279817,001,2010-10-14_16h05.54.288,eb_01,2022.2.4,120.01253410530664,
,,,1,0,1,0,95,0,95,0,,,,,,,,,,,,,,,,,,,,,,,,,,,,,,,,,,,,,,,,,,,,,,,,,,,,,,,,,,,279817,001,2010-10-14_16h05.54.288,eb_01,2022.2.4,120.01253410530664,
4,stimuli/4.png,l,1,0,1,0,96,0,96,0,0,0,0,0,,,,,,,,,,,,,,,,,,507.39694558561314,507.39694558561314,507.39694558561314,507.39694558561314,l,1,0.6161635075986851,508.03035488438036,508.03035488438036,508.03035488438036,,,,,,,,,,,,,,,,,,,,,,,,,,,,279817,001,2010-10-14_16h05.54.288,eb_01,2022.2.4,120.01253410530664,
,,,1,0,1,0,96,0,96,0,,,,,,,,,,,,,,,,,,,,,,,,,,,,,,,,,,,,,,,,,,,,,,,,,,,,,,,,,,,279817,001,2010-10-14_16h05.54.288,eb_01,2022.2.4,120.01253410530664,
2,stimuli/2.png,s,1,0,1,0,97,0,97,0,0,0,0,0,,,,,,,,,,,,,,,,,,509.03877467241546,509.03877467241546,509.03877467241546,509.03877467241546,s,1,0.5663544273556909,509.61380297080905,509.61380297080905,509.61380297080905,510.6222109867231,510.6222109867231,510.6222109867231,,,,,,,,,,,,,,,,,,,,,,,,,279817,001,2010-10-14_16h05.54.288,eb_01,2022.2.4,120.01253410530664,
,,,1,0,1,0,97,0,97,0,,,,,,,,,,,,,,,,,,,,,,,,,,,,,,,,,,,,,,,,,,,,,,,,,,,,,,,,,,,279817,001,2010-10-14_16h05.54.288,eb_01,2022.2.4,120.01253410530664,
3,stimuli/3.png,l,1,0,1,0,98,0,98,0,0,0,0,0,,,,,,,,,,,,,,,,,,510.6222109867231,510.6222109867231,510.6222109867231,510.6222109867231,l,1,0.4869330123474356,511.12226018817455,511.12226018817455,511.12226018817455,512.130702011229,512.130702011229,512.130702011229,,,,,,,,,,,,,,,,,,,,,,,,,279817,001,2010-10-14_16h05.54.288,eb_01,2022.2.4,120.01253410530664,
,,,1,0,1,0,98,0,98,0,,,,,,,,,,,,,,,,,,,,,,,,,,,,,,,,,,,,,,,,,,,,,,,,,,,,,,,,,,,279817,001,2010-10-14_16h05.54.288,eb_01,2022.2.4,120.01253410530664,
8,stimuli/8.png,l,1,0,1,0,99,0,99,0,0,0,0,0,,,,,,,,,,,,,,,,,,512.130702011229,512.130702011229,512.130702011229,512.130702011229,l,1,0.3544796707428759,512.5057149152854,512.5057149152854,512.5057149152854,,,,,,,,,,,,,,,,,,,,,,,,,,,,279817,001,2010-10-14_16h05.54.288,eb_01,2022.2.4,120.01253410530664,
,,,1,0,1,0,99,0,99,0,,,,,,,,,,,,,,,,,,,,,,,,,,,,,,,,,,,,,,,,,,,,,,,,,,,,,,,,,,,279817,001,2010-10-14_16h05.54.288,eb_01,2022.2.4,120.01253410530664,
,,,1,0,1,0,,,,,,,,,,,,,,,,,,,,,,,,,,,,,,,,,,,,,,,513.505777096274,513.505777096274,return,1.515427598686074,,,,,,,,,,,,,,,,,,,,,279817,001,2010-10-14_16h05.54.288,eb_01,2022.2.4,120.01253410530664,
9,stimuli/9.png,l,2,0,2,0,0,0,0,0,0,0,0,0,,,,,,,,,,,,,,,,,,515.0559345107467,515.0559345107467,515.0559345107467,515.0559345107467,l,1,0.8293383297423134,515.9143278869742,515.9143278869742,515.9143278869742,,,,,,,,,,,,,,,,,,,,,,,,,,,,279817,001,2010-10-14_16h05.54.288,eb_01,2022.2.4,120.01253410530664,
,,,2,0,2,0,0,0,0,0,,,,,,,,,,,,,,,,,,,,,,,,,,,,,,,,,,,,,,,,,,,,,,,,,,,,,,,,,,,279817,001,2010-10-14_16h05.54.288,eb_01,2022.2.4,120.01253410530664,
8,stimuli/8.png,l,2,0,2,0,1,0,1,0,0,0,0,0,,,,,,,,,,,,,,,,,,516.9144401749509,516.9144401749509,516.9144401749509,516.9144401749509,l,1,0.6668198792031035,517.597801630589,517.597801630589,517.597801630589,,,,,,,,,,,,,,,,,,,,,,,,,,,,279817,001,2010-10-14_16h05.54.288,eb_01,2022.2.4,120.01253410530664,
,,,2,0,2,0,1,0,1,0,,,,,,,,,,,,,,,,,,,,,,,,,,,,,,,,,,,,,,,,,,,,,,,,,,,,,,,,,,,279817,001,2010-10-14_16h05.54.288,eb_01,2022.2.4,120.01253410530664,
3,stimuli/3.png,l,2,0,2,0,2,0,2,0,0,0,0,0,,,,,,,,,,,,,,,,,,518.6062386240519,518.6062386240519,518.6062386240519,518.6062386240519,l,1,0.6710647877480369,519.2896305664908,519.2896305664908,519.2896305664908,520.2980524674786,520.2980524674786,520.2980524674786,,,,,,,,,,,,,,,,,,,,,,,,,279817,001,2010-10-14_16h05.54.288,eb_01,2022.2.4,120.01253410530664,
,,,2,0,2,0,2,0,2,0,,,,,,,,,,,,,,,,,,,,,,,,,,,,,,,,,,,,,,,,,,,,,,,,,,,,,,,,,,,279817,001,2010-10-14_16h05.54.288,eb_01,2022.2.4,120.01253410530664,
2,stimuli/2.png,s,2,0,2,0,3,0,3,0,0,0,0,0,,,,,,,,,,,,,,,,,,520.2980524674786,520.2980524674786,520.2980524674786,520.2980524674786,s,1,0.5072601567808306,520.8147643612465,520.8147643612465,520.8147643612465,521.831517004699,521.831517004699,521.831517004699,,,,,,,,,,,,,,,,,,,,,,,,,279817,001,2010-10-14_16h05.54.288,eb_01,2022.2.4,120.01253410530664,
,,,2,0,2,0,3,0,3,0,,,,,,,,,,,,,,,,,,,,,,,,,,,,,,,,,,,,,,,,,,,,,,,,,,,,,,,,,,,279817,001,2010-10-14_16h05.54.288,eb_01,2022.2.4,120.01253410530664,
4,stimuli/4.png,l,2,0,2,0,4,0,4,0,0,0,0,0,,,,,,,,,,,,,,,,,,521.831517004699,521.831517004699,521.831517004699,521.831517004699,l,1,0.5169552586594364,522.3732549329725,522.3732549329725,522.3732549329725,,,,,,,,,,,,,,,,,,,,,,,,,,,,279817,001,2010-10-14_16h05.54.288,eb_01,2022.2.4,120.01253410530664,
,,,2,0,2,0,4,0,4,0,,,,,,,,,,,,,,,,,,,,,,,,,,,,,,,,,,,,,,,,,,,,,,,,,,,,,,,,,,,279817,001,2010-10-14_16h05.54.288,eb_01,2022.2.4,120.01253410530664,
1,stimuli/1.png,s,2,0,2,0,5,0,5,0,0,0,0,0,,,,,,,,,,,,,,,,,,523.3983500910108,523.3983500910108,523.3983500910108,523.3983500910108,s,1,0.5819841909251409,524.0067206776002,524.0067206776002,524.0067206776002,,,,,,,,,,,,,,,,,,,,,,,,,,,,279817,001,2010-10-14_16h05.54.288,eb_01,2022.2.4,120.01253410530664,
,,,2,0,2,0,5,0,5,0,,,,,,,,,,,,,,,,,,,,,,,,,,,,,,,,,,,,,,,,,,,,,,,,,,,,,,,,,,,279817,001,2010-10-14_16h05.54.288,eb_01,2022.2.4,120.01253410530664,
4,stimuli/4.png,l,2,0,2,0,6,0,6,0,0,0,0,0,,,,,,,,,,,,,,,,,,525.0151024326042,525.0151024326042,525.0151024326042,525.0151024326042,l,1,0.5733057179313619,525.6068374933238,525.6068374933238,525.6068374933238,,,,,,,,,,,,,,,,,,,,,,,,,,,,279817,001,2010-10-14_16h05.54.288,eb_01,2022.2.4,120.01253410530664,
,,,2,0,2,0,6,0,6,0,,,,,,,,,,,,,,,,,,,,,,,,,,,,,,,,,,,,,,,,,,,,,,,,,,,,,,,,,,,279817,001,2010-10-14_16h05.54.288,eb_01,2022.2.4,120.01253410530664,
3,stimuli/3.png,l,2,0,2,0,7,0,7,0,0,0,0,0,,,,,,,,,,,,,,,,,,526.6152732793853,526.6152732793853,526.6152732793853,526.6152732793853,l,1,0.5011863425170304,527.1319712880795,527.1319712880795,527.1319712880795,528.1403946983191,528.1403946983191,528.1403946983191,,,,,,,,,,,,,,,,,,,,,,,,,279817,001,2010-10-14_16h05.54.288,eb_01,2022.2.4,120.01253410530664,
,,,2,0,2,0,7,0,7,0,,,,,,,,,,,,,,,,,,,,,,,,,,,,,,,,,,,,,,,,,,,,,,,,,,,,,,,,,,,279817,001,2010-10-14_16h05.54.288,eb_01,2022.2.4,120.01253410530664,
8,stimuli/8.png,l,2,0,2,0,8,0,8,0,0,0,0,0,,,,,,,,,,,,,,,,,,528.1403946983191,528.1403946983191,528.1403946983191,528.1403946983191,l,1,0.5520832881011302,528.7154184689571,528.7154184689571,528.7154184689571,,,,,,,,,,,,,,,,,,,,,,,,,,,,279817,001,2010-10-14_16h05.54.288,eb_01,2022.2.4,120.01253410530664,
