index,stimulus,correct_answer,block.thisRepN,block.thisTrialN,block.thisN,block.thisIndex,trial.thisRepN,trial.thisTrialN,trial.thisN,trial.thisIndex,display_row.thisRepN,display_row.thisTrialN,display_row.thisN,display_row.thisIndex,pair_questions.thisRepN,pair_questions.thisTrialN,pair_questions.thisN,pair_questions.thisIndex,welcome_text.started,instructions_0_keypress.started,instructions_0_keypress.keys,instructions_0_keypress.rt,instructions_1_keypress.started,instructions_1_text.started,instructions_1_keypress.keys,instructions_1_keypress.rt,instructions_2_keypress.started,instructions_2_text.started,instructions_2_keypress.keys,instructions_2_keypress.rt,text_countdown.started,image.started,size_question.started,size_resp.started,keypress_options.started,size_resp.keys,size_resp.corr,size_resp.rt,fb_image.started,fb.started,fb_size_question.started,fb_image.stopped,fb.stopped,fb_size_question.stopped,block_break_text.started,block_break_keypress.started,block_break_keypress.keys,block_break_keypress.rt,seq_reveal.started,seq_reveal_adv.started,seq_reveal_adv.keys,seq_reveal_adv.rt,instruction_2afc_text.started,instruction_2afc_keypress.started,instruction_2afc_keypress.keys,instruction_2afc_keypress.rt,dist_2afc_test.started,dist_2afc_resp.started,text.started,stim_00.started,stim_01.started,stim_10.started,stim_11.started,dist_2afc_resp.keys,dist_2afc_resp.rt,graph.started,debrief_text.started,debriefing_title.started,participant,session,date,expName,psychopyVersion,frameRate,
,,,,,,,,,,,,,,,,,,,68.65466949237089,68.65466949237089,return,19.370764770999813,,,,,,,,,,,,,,,,,,,,,,,,,,,,,,,,,,,,,,,,,,,,,,,476986,001,2023-03-01_16h26.30.579,eb_01,2022.2.4,99.88780814302307,
,,,,,,,,,,,,,,,,,,,,,,,88.03629759737305,88.03629759737305,return,18.548403886234155,,,,,,,,,,,,,,,,,,,,,,,,,,,,,,,,,,,,,,,,,,,476986,001,2023-03-01_16h26.30.579,eb_01,2022.2.4,99.88780814302307,
,,,,,,,,,,,,,,,,,,,,,,,,,,,106.59752773912987,106.59752773912987,space,8.514339364890475,,,,,,,,,,,,,,,,,,,,,,,,,,,,,,,,,,,,,,,476986,001,2023-03-01_16h26.30.579,eb_01,2022.2.4,99.88780814302307,
8,stimuli/8.png,l,0,0,0,0,0,0,0,0,0,0,0,0,,,,,,,,,,,,,,,,,115.13266457767168,120.14571892641834,120.14571892641834,120.14571892641834,120.14571892641834,l,1,0.8302628752462624,120.9962265905051,120.9962265905051,120.9962265905051,,,,,,,,,,,,,,,,,,,,,,,,,,,,476986,001,2023-03-01_16h26.30.579,eb_01,2022.2.4,99.88780814302307,
,,,0,0,0,0,0,0,0,0,,,,,,,,,,,,,,,,,,,,,,,,,,,,,,,,,,,,,,,,,,,,,,,,,,,,,,,,,,,476986,001,2023-03-01_16h26.30.579,eb_01,2022.2.4,99.88780814302307,
9,stimuli/9.png,l,0,0,0,0,1,0,1,0,0,0,0,0,,,,,,,,,,,,,,,,,,122.01686850779879,122.01686850779879,122.01686850779879,122.01686850779879,l,1,1.1671512809043634,123.20724714368043,123.20724714368043,123.20724714368043,,,,,,,,,,,,,,,,,,,,,,,,,,,,476986,001,2023-03-01_16h26.30.579,eb_01,2022.2.4,99.88780814302307,
,,,0,0,0,0,1,0,1,0,,,,,,,,,,,,,,,,,,,,,,,,,,,,,,,,,,,,,,,,,,,,,,,,,,,,,,,,,,,476986,001,2023-03-01_16h26.30.579,eb_01,2022.2.4,99.88780814302307,
8,stimuli/8.png,l,0,0,0,0,2,0,2,0,0,0,0,0,,,,,,,,,,,,,,,,,,124.21817617635679,124.21817617635679,124.21817617635679,124.21817617635679,l,1,0.8049100066673418,125.04861513366268,125.04861513366268,125.04861513366268,,,,,,,,,,,,,,,,,,,,,,,,,,,,476986,001,2023-03-01_16h26.30.579,eb_01,2022.2.4,99.88780814302307,
,,,0,0,0,0,2,0,2,0,,,,,,,,,,,,,,,,,,,,,,,,,,,,,,,,,,,,,,,,,,,,,,,,,,,,,,,,,,,476986,001,2023-03-01_16h26.30.579,eb_01,2022.2.4,99.88780814302307,
9,stimuli/9.png,l,0,0,0,0,3,0,3,0,0,0,0,0,,,,,,,,,,,,,,,,,,126.0693002153057,126.0693002153057,126.0693002153057,126.0693002153057,l,1,0.7697866003945819,126.8594668327205,126.8594668327205,126.8594668327205,,,,,,,,,,,,,,,,,,,,,,,,,,,,476986,001,2023-03-01_16h26.30.579,eb_01,2022.2.4,99.88780814302307,
,,,0,0,0,0,3,0,3,0,,,,,,,,,,,,,,,,,,,,,,,,,,,,,,,,,,,,,,,,,,,,,,,,,,,,,,,,,,,476986,001,2023-03-01_16h26.30.579,eb_01,2022.2.4,99.88780814302307,
6,stimuli/6.png,s,0,0,0,0,4,0,4,0,0,0,0,0,,,,,,,,,,,,,,,,,,127.88040486350292,127.88040486350292,127.88040486350292,127.88040486350292,s,1,0.758700908285391,128.67084978533967,128.67084978533967,128.67084978533967,,,,,,,,,,,,,,,,,,,,,,,,,,,,476986,001,2023-03-01_16h26.30.579,eb_01,2022.2.4,99.88780814302307,
,,,0,0,0,0,4,0,4,0,,,,,,,,,,,,,,,,,,,,,,,,,,,,,,,,,,,,,,,,,,,,,,,,,,,,,,,,,,,476986,001,2023-03-01_16h26.30.579,eb_01,2022.2.4,99.88780814302307,
8,stimuli/8.png,l,0,0,0,0,5,0,5,0,0,0,0,0,,,,,,,,,,,,,,,,,,129.67151053194902,129.67151053194902,129.67151053194902,129.67151053194902,l,1,0.543616567258141,130.24179703759728,130.24179703759728,130.24179703759728,,,,,,,,,,,,,,,,,,,,,,,,,,,,476986,001,2023-03-01_16h26.30.579,eb_01,2022.2.4,99.88780814302307,
,,,0,0,0,0,5,0,5,0,,,,,,,,,,,,,,,,,,,,,,,,,,,,,,,,,,,,,,,,,,,,,,,,,,,,,,,,,,,476986,001,2023-03-01_16h26.30.579,eb_01,2022.2.4,99.88780814302307,
3,stimuli/3.png,l,0,0,0,0,6,0,6,0,0,0,0,0,,,,,,,,,,,,,,,,,,131.25240731813756,131.25240731813756,131.25240731813756,131.25240731813756,l,1,0.7307521416587406,132.00253915051871,132.00253915051871,132.00253915051871,133.01350289578113,133.01350289578113,133.01350289578113,,,,,,,,,,,,,,,,,,,,,,,,,476986,001,2023-03-01_16h26.30.579,eb_01,2022.2.4,99.88780814302307,
,,,0,0,0,0,6,0,6,0,,,,,,,,,,,,,,,,,,,,,,,,,,,,,,,,,,,,,,,,,,,,,,,,,,,,,,,,,,,476986,001,2023-03-01_16h26.30.579,eb_01,2022.2.4,99.88780814302307,
2,stimuli/2.png,s,0,0,0,0,7,0,7,0,0,0,0,0,,,,,,,,,,,,,,,,,,133.01350289578113,133.01350289578113,133.01350289578113,133.01350289578113,s,1,0.8817075377883157,133.91372502617742,133.91372502617742,133.91372502617742,134.93467875308488,134.93467875308488,134.93467875308488,,,,,,,,,,,,,,,,,,,,,,,,,476986,001,2023-03-01_16h26.30.579,eb_01,2022.2.4,99.88780814302307,
,,,0,0,0,0,7,0,7,0,,,,,,,,,,,,,,,,,,,,,,,,,,,,,,,,,,,,,,,,,,,,,,,,,,,,,,,,,,,476986,001,2023-03-01_16h26.30.579,eb_01,2022.2.4,99.88780814302307,
1,stimuli/1.png,s,0,0,0,0,8,0,8,0,0,0,0,0,,,,,,,,,,,,,,,,,,134.93467875308488,134.93467875308488,134.93467875308488,134.93467875308488,s,1,1.0485431893721398,136.01532243921247,136.01532243921247,136.01532243921247,,,,,,,,,,,,,,,,,,,,,,,,,,,,476986,001,2023-03-01_16h26.30.579,eb_01,2022.2.4,99.88780814302307,
,,,0,0,0,0,8,0,8,0,,,,,,,,,,,,,,,,,,,,,,,,,,,,,,,,,,,,,,,,,,,,,,,,,,,,,,,,,,,476986,001,2023-03-01_16h26.30.579,eb_01,2022.2.4,99.88780814302307,
2,stimuli/2.png,s,0,0,0,0,9,0,9,0,0,0,0,0,,,,,,,,,,,,,,,,,,137.0159279475265,137.0159279475265,137.0159279475265,137.0159279475265,s,1,0.7113631979518686,137.74635540440067,137.74635540440067,137.74635540440067,138.76698162556931,138.76698162556931,138.76698162556931,,,,,,,,,,,,,,,,,,,,,,,,,476986,001,2023-03-01_16h26.30.579,eb_01,2022.2.4,99.88780814302307,
,,,0,0,0,0,9,0,9,0,,,,,,,,,,,,,,,,,,,,,,,,,,,,,,,,,,,,,,,,,,,,,,,,,,,,,,,,,,,476986,001,2023-03-01_16h26.30.579,eb_01,2022.2.4,99.88780814302307,
1,stimuli/1.png,s,0,0,0,0,10,0,10,0,0,0,0,0,,,,,,,,,,,,,,,,,,138.76698162556931,138.76698162556931,138.76698162556931,138.76698162556931,s,1,0.6322963689708558,139.43739101378378,139.43739101378378,139.43739101378378,,,,,,,,,,,,,,,,,,,,,,,,,,,,476986,001,2023-03-01_16h26.30.579,eb_01,2022.2.4,99.88780814302307,
,,,0,0,0,0,10,0,10,0,,,,,,,,,,,,,,,,,,,,,,,,,,,,,,,,,,,,,,,,,,,,,,,,,,,,,,,,,,,476986,001,2023-03-01_16h26.30.579,eb_01,2022.2.4,99.88780814302307,
4,stimuli/4.png,l,0,0,0,0,11,0,11,0,0,0,0,0,,,,,,,,,,,,,,,,,,140.43767324223518,140.43767324223518,140.43767324223518,140.43767324223518,l,1,1.0486379698340897,141.5086402655761,141.5086402655761,141.5086402655761,,,,,,,,,,,,,,,,,,,,,,,,,,,,476986,001,2023-03-01_16h26.30.579,eb_01,2022.2.4,99.88780814302307,
,,,0,0,0,0,11,0,11,0,,,,,,,,,,,,,,,,,,,,,,,,,,,,,,,,,,,,,,,,,,,,,,,,,,,,,,,,,,,476986,001,2023-03-01_16h26.30.579,eb_01,2022.2.4,99.88780814302307,
2,stimuli/2.png,s,0,0,0,0,12,0,12,0,0,0,0,0,,,,,,,,,,,,,,,,,,142.5192173427713,142.5192173427713,142.5192173427713,142.5192173427713,s,1,0.7591373813811515,143.28941033571755,143.28941033571755,143.28941033571755,144.29999435542777,144.29999435542777,144.29999435542777,,,,,,,,,,,,,,,,,,,,,,,,,476986,001,2023-03-01_16h26.30.579,eb_01,2022.2.4,99.88780814302307,
,,,0,0,0,0,12,0,12,0,,,,,,,,,,,,,,,,,,,,,,,,,,,,,,,,,,,,,,,,,,,,,,,,,,,,,,,,,,,476986,001,2023-03-01_16h26.30.579,eb_01,2022.2.4,99.88780814302307,
4,stimuli/4.png,l,0,0,0,0,13,0,13,0,0,0,0,0,,,,,,,,,,,,,,,,,,144.29999435542777,144.29999435542777,144.29999435542777,144.29999435542777,l,1,0.6743846301069425,145.00075431967707,145.00075431967707,145.00075431967707,,,,,,,,,,,,,,,,,,,,,,,,,,,,476986,001,2023-03-01_16h26.30.579,eb_01,2022.2.4,99.88780814302307,
,,,0,0,0,0,13,0,13,0,,,,,,,,,,,,,,,,,,,,,,,,,,,,,,,,,,,,,,,,,,,,,,,,,,,,,,,,,,,476986,001,2023-03-01_16h26.30.579,eb_01,2022.2.4,99.88780814302307,
3,stimuli/3.png,l,0,0,0,0,14,0,14,0,0,0,0,0,,,,,,,,,,,,,,,,,,146.01138633332084,146.01138633332084,146.01138633332084,146.01138633332084,l,1,0.7710247833965695,146.80152397326674,146.80152397326674,146.80152397326674,147.81250130171975,147.81250130171975,147.81250130171975,,,,,,,,,,,,,,,,,,,,,,,,,476986,001,2023-03-01_16h26.30.579,eb_01,2022.2.4,99.88780814302307,
,,,0,0,0,0,14,0,14,0,,,,,,,,,,,,,,,,,,,,,,,,,,,,,,,,,,,,,,,,,,,,,,,,,,,,,,,,,,,476986,001,2023-03-01_16h26.30.579,eb_01,2022.2.4,99.88780814302307,
8,stimuli/8.png,l,0,0,0,0,15,0,15,0,0,0,0,0,,,,,,,,,,,,,,,,,,147.81250130171975,147.81250130171975,147.81250130171975,147.81250130171975,l,1,0.6259391353632964,148.462850736767,148.462850736767,148.462850736767,,,,,,,,,,,,,,,,,,,,,,,,,,,,476986,001,2023-03-01_16h26.30.579,eb_01,2022.2.4,99.88780814302307,
,,,0,0,0,0,15,0,15,0,,,,,,,,,,,,,,,,,,,,,,,,,,,,,,,,,,,,,,,,,,,,,,,,,,,,,,,,,,,476986,001,2023-03-01_16h26.30.579,eb_01,2022.2.4,99.88780814302307,
3,stimuli/3.png,l,0,0,0,0,16,0,16,0,0,0,0,0,,,,,,,,,,,,,,,,,,149.47347067646115,149.47347067646115,149.47347067646115,149.47347067646115,l,1,0.7249913609084615,150.2135880774622,150.2135880774622,150.2135880774622,151.22451620459105,151.22451620459105,151.22451620459105,,,,,,,,,,,,,,,,,,,,,,,,,476986,001,2023-03-01_16h26.30.579,eb_01,2022.2.4,99.88780814302307,
,,,0,0,0,0,16,0,16,0,,,,,,,,,,,,,,,,,,,,,,,,,,,,,,,,,,,,,,,,,,,,,,,,,,,,,,,,,,,476986,001,2023-03-01_16h26.30.579,eb_01,2022.2.4,99.88780814302307,
2,stimuli/2.png,s,0,0,0,0,17,0,17,0,0,0,0,0,,,,,,,,,,,,,,,,,,151.22451620459105,151.22451620459105,151.22451620459105,151.22451620459105,s,1,0.9820097184347105,152.22479450900937,152.22479450900937,152.22479450900937,153.23573350268998,153.23573350268998,153.23573350268998,,,,,,,,,,,,,,,,,,,,,,,,,476986,001,2023-03-01_16h26.30.579,eb_01,2022.2.4,99.88780814302307,
,,,0,0,0,0,17,0,17,0,,,,,,,,,,,,,,,,,,,,,,,,,,,,,,,,,,,,,,,,,,,,,,,,,,,,,,,,,,,476986,001,2023-03-01_16h26.30.579,eb_01,2022.2.4,99.88780814302307,
3,stimuli/3.png,l,0,0,0,0,18,0,18,0,0,0,0,0,,,,,,,,,,,,,,,,,,153.23573350268998,153.23573350268998,153.23573350268998,153.23573350268998,l,1,0.6188124896470981,153.86577546870103,153.86577546870103,153.86577546870103,154.87670601061836,154.87670601061836,154.87670601061836,,,,,,,,,,,,,,,,,,,,,,,,,476986,001,2023-03-01_16h26.30.579,eb_01,2022.2.4,99.88780814302307,
,,,0,0,0,0,18,0,18,0,,,,,,,,,,,,,,,,,,,,,,,,,,,,,,,,,,,,,,,,,,,,,,,,,,,,,,,,,,,476986,001,2023-03-01_16h26.30.579,eb_01,2022.2.4,99.88780814302307,
8,stimuli/8.png,l,0,0,0,0,19,0,19,0,0,0,0,0,,,,,,,,,,,,,,,,,,154.87670601061836,154.87670601061836,154.87670601061836,154.87670601061836,l,1,0.6018555402006314,155.50711230790694,155.50711230790694,155.50711230790694,,,,,,,,,,,,,,,,,,,,,,,,,,,,476986,001,2023-03-01_16h26.30.579,eb_01,2022.2.4,99.88780814302307,
,,,0,0,0,0,19,0,19,0,,,,,,,,,,,,,,,,,,,,,,,,,,,,,,,,,,,,,,,,,,,,,,,,,,,,,,,,,,,476986,001,2023-03-01_16h26.30.579,eb_01,2022.2.4,99.88780814302307,
3,stimuli/3.png,l,0,0,0,0,20,0,20,0,0,0,0,0,,,,,,,,,,,,,,,,,,156.51769934610275,156.51769934610275,156.51769934610275,156.51769934610275,l,1,0.7038839930573886,157.23783104868926,157.23783104868926,157.23783104868926,158.24876008136562,158.24876008136562,158.24876008136562,,,,,,,,,,,,,,,,,,,,,,,,,476986,001,2023-03-01_16h26.30.579,eb_01,2022.2.4,99.88780814302307,
,,,0,0,0,0,20,0,20,0,,,,,,,,,,,,,,,,,,,,,,,,,,,,,,,,,,,,,,,,,,,,,,,,,,,,,,,,,,,476986,001,2023-03-01_16h26.30.579,eb_01,2022.2.4,99.88780814302307,
2,stimuli/2.png,s,0,0,0,0,21,0,21,0,0,0,0,0,,,,,,,,,,,,,,,,,,158.24876008136562,158.24876008136562,158.24876008136562,158.24876008136562,s,1,0.6528640315045777,158.9188522266886,158.9188522266886,158.9188522266886,159.9294477166477,159.9294477166477,159.9294477166477,,,,,,,,,,,,,,,,,,,,,,,,,476986,001,2023-03-01_16h26.30.579,eb_01,2022.2.4,99.88780814302307,
,,,0,0,0,0,21,0,21,0,,,,,,,,,,,,,,,,,,,,,,,,,,,,,,,,,,,,,,,,,,,,,,,,,,,,,,,,,,,476986,001,2023-03-01_16h26.30.579,eb_01,2022.2.4,99.88780814302307,
4,stimuli/4.png,l,0,0,0,0,22,0,22,0,0,0,0,0,,,,,,,,,,,,,,,,,,159.9294477166477,159.9294477166477,159.9294477166477,159.9294477166477,l,1,0.7402039272274124,160.69023903089692,160.69023903089692,160.69023903089692,,,,,,,,,,,,,,,,,,,,,,,,,,,,476986,001,2023-03-01_16h26.30.579,eb_01,2022.2.4,99.88780814302307,
,,,0,0,0,0,22,0,22,0,,,,,,,,,,,,,,,,,,,,,,,,,,,,,,,,,,,,,,,,,,,,,,,,,,,,,,,,,,,476986,001,2023-03-01_16h26.30.579,eb_01,2022.2.4,99.88780814302307,
3,stimuli/3.png,l,0,0,0,0,23,0,23,0,0,0,0,0,,,,,,,,,,,,,,,,,,161.70080946742019,161.70080946742019,161.70080946742019,161.70080946742019,l,1,0.6809178414550843,162.40095064201523,162.40095064201523,162.40095064201523,163.41153496357583,163.41153496357583,163.41153496357583,,,,,,,,,,,,,,,,,,,,,,,,,476986,001,2023-03-01_16h26.30.579,eb_01,2022.2.4,99.88780814302307,
,,,0,0,0,0,23,0,23,0,,,,,,,,,,,,,,,,,,,,,,,,,,,,,,,,,,,,,,,,,,,,,,,,,,,,,,,,,,,476986,001,2023-03-01_16h26.30.579,eb_01,2022.2.4,99.88780814302307,
4,stimuli/4.png,l,0,0,0,0,24,0,24,0,0,0,0,0,,,,,,,,,,,,,,,,,,163.41153496357583,163.41153496357583,163.41153496357583,163.41153496357583,l,1,0.5942220906654256,164.03226761656333,164.03226761656333,164.03226761656333,,,,,,,,,,,,,,,,,,,,,,,,,,,,476986,001,2023-03-01_16h26.30.579,eb_01,2022.2.4,99.88780814302307,
,,,0,0,0,0,24,0,24,0,,,,,,,,,,,,,,,,,,,,,,,,,,,,,,,,,,,,,,,,,,,,,,,,,,,,,,,,,,,476986,001,2023-03-01_16h26.30.579,eb_01,2022.2.4,99.88780814302307,
1,stimuli/1.png,s,0,0,0,0,25,0,25,0,0,0,0,0,,,,,,,,,,,,,,,,,,165.052850673379,165.052850673379,165.052850673379,165.052850673379,s,1,0.6088904239404656,165.69322884139183,165.69322884139183,165.69322884139183,,,,,,,,,,,,,,,,,,,,,,,,,,,,476986,001,2023-03-01_16h26.30.579,eb_01,2022.2.4,99.88780814302307,
,,,0,0,0,0,25,0,25,0,,,,,,,,,,,,,,,,,,,,,,,,,,,,,,,,,,,,,,,,,,,,,,,,,,,,,,,,,,,476986,001,2023-03-01_16h26.30.579,eb_01,2022.2.4,99.88780814302307,
2,stimuli/2.png,s,0,0,0,0,26,0,26,0,0,0,0,0,,,,,,,,,,,,,,,,,,166.69387147708403,166.69387147708403,166.69387147708403,166.69387147708403,s,1,0.8319634903200495,167.54405223912545,167.54405223912545,167.54405223912545,168.55467942318865,168.55467942318865,168.55467942318865,,,,,,,,,,,,,,,,,,,,,,,,,476986,001,2023-03-01_16h26.30.579,eb_01,2022.2.4,99.88780814302307,
,,,0,0,0,0,26,0,26,0,,,,,,,,,,,,,,,,,,,,,,,,,,,,,,,,,,,,,,,,,,,,,,,,,,,,,,,,,,,476986,001,2023-03-01_16h26.30.579,eb_01,2022.2.4,99.88780814302307,
4,stimuli/4.png,l,0,0,0,0,27,0,27,0,0,0,0,0,,,,,,,,,,,,,,,,,,168.55467942318865,168.55467942318865,168.55467942318865,168.55467942318865,l,1,0.6991419513688015,169.27540516384397,169.27540516384397,169.27540516384397,,,,,,,,,,,,,,,,,,,,,,,,,,,,476986,001,2023-03-01_16h26.30.579,eb_01,2022.2.4,99.88780814302307,
,,,0,0,0,0,27,0,27,0,,,,,,,,,,,,,,,,,,,,,,,,,,,,,,,,,,,,,,,,,,,,,,,,,,,,,,,,,,,476986,001,2023-03-01_16h26.30.579,eb_01,2022.2.4,99.88780814302307,
1,stimuli/1.png,s,0,0,0,0,28,0,28,0,0,0,0,0,,,,,,,,,,,,,,,,,,170.29570116262767,170.29570116262767,170.29570116262767,170.29570116262767,s,1,0.702104595493438,171.03647659359922,171.03647659359922,171.03647659359922,,,,,,,,,,,,,,,,,,,,,,,,,,,,476986,001,2023-03-01_16h26.30.579,eb_01,2022.2.4,99.88780814302307,
,,,0,0,0,0,28,0,28,0,,,,,,,,,,,,,,,,,,,,,,,,,,,,,,,,,,,,,,,,,,,,,,,,,,,,,,,,,,,476986,001,2023-03-01_16h26.30.579,eb_01,2022.2.4,99.88780814302307,
2,stimuli/2.png,s,0,0,0,0,29,0,29,0,0,0,0,0,,,,,,,,,,,,,,,,,,172.03707485754785,172.03707485754785,172.03707485754785,172.03707485754785,s,1,0.9678177022688033,173.01737138758835,173.01737138758835,173.01737138758835,174.02800460862272,174.02800460862272,174.02800460862272,,,,,,,,,,,,,,,,,,,,,,,,,476986,001,2023-03-01_16h26.30.579,eb_01,2022.2.4,99.88780814302307,
,,,0,0,0,0,29,0,29,0,,,,,,,,,,,,,,,,,,,,,,,,,,,,,,,,,,,,,,,,,,,,,,,,,,,,,,,,,,,476986,001,2023-03-01_16h26.30.579,eb_01,2022.2.4,99.88780814302307,
4,stimuli/4.png,l,0,0,0,0,30,0,30,0,0,0,0,0,,,,,,,,,,,,,,,,,,174.02800460862272,174.02800460862272,174.02800460862272,174.02800460862272,l,1,0.8409166219826147,174.88880500851155,174.88880500851155,174.88880500851155,,,,,,,,,,,,,,,,,,,,,,,,,,,,476986,001,2023-03-01_16h26.30.579,eb_01,2022.2.4,99.88780814302307,
,,,0,0,0,0,30,0,30,0,,,,,,,,,,,,,,,,,,,,,,,,,,,,,,,,,,,,,,,,,,,,,,,,,,,,,,,,,,,476986,001,2023-03-01_16h26.30.579,eb_01,2022.2.4,99.88780814302307,
1,stimuli/1.png,s,0,0,0,0,31,0,31,0,0,0,0,0,,,,,,,,,,,,,,,,,,175.90946292378067,175.90946292378067,175.90946292378067,175.90946292378067,s,1,0.6154643848458363,176.54949668253175,176.54949668253175,176.54949668253175,,,,,,,,,,,,,,,,,,,,,,,,,,,,476986,001,2023-03-01_16h26.30.579,eb_01,2022.2.4,99.88780814302307,
,,,0,0,0,0,31,0,31,0,,,,,,,,,,,,,,,,,,,,,,,,,,,,,,,,,,,,,,,,,,,,,,,,,,,,,,,,,,,476986,001,2023-03-01_16h26.30.579,eb_01,2022.2.4,99.88780814302307,
2,stimuli/2.png,s,0,0,0,0,32,0,32,0,0,0,0,0,,,,,,,,,,,,,,,,,,177.56045318342876,177.56045318342876,177.56045318342876,177.56045318342876,s,1,0.7725198395710322,178.35059203077253,178.35059203077253,178.35059203077253,179.37155270019866,179.37155270019866,179.37155270019866,,,,,,,,,,,,,,,,,,,,,,,,,476986,001,2023-03-01_16h26.30.579,eb_01,2022.2.4,99.88780814302307,
,,,0,0,0,0,32,0,32,0,,,,,,,,,,,,,,,,,,,,,,,,,,,,,,,,,,,,,,,,,,,,,,,,,,,,,,,,,,,476986,001,2023-03-01_16h26.30.579,eb_01,2022.2.4,99.88780814302307,
1,stimuli/1.png,s,0,0,0,0,33,0,33,0,0,0,0,0,,,,,,,,,,,,,,,,,,179.37155270019866,179.37155270019866,179.37155270019866,179.37155270019866,s,1,1.0094429276359733,180.41214892365315,180.41214892365315,180.41214892365315,,,,,,,,,,,,,,,,,,,,,,,,,,,,476986,001,2023-03-01_16h26.30.579,eb_01,2022.2.4,99.88780814302307,
,,,0,0,0,0,33,0,33,0,,,,,,,,,,,,,,,,,,,,,,,,,,,,,,,,,,,,,,,,,,,,,,,,,,,,,,,,,,,476986,001,2023-03-01_16h26.30.579,eb_01,2022.2.4,99.88780814302307,
2,stimuli/2.png,s,0,0,0,0,34,0,34,0,0,0,0,0,,,,,,,,,,,,,,,,,,181.4127785798555,181.4127785798555,181.4127785798555,181.4127785798555,s,1,1.088270692518563,182.51314445055687,182.51314445055687,182.51314445055687,183.52406986104688,183.52406986104688,183.52406986104688,,,,,,,,,,,,,,,,,,,,,,,,,476986,001,2023-03-01_16h26.30.579,eb_01,2022.2.4,99.88780814302307,
,,,0,0,0,0,34,0,34,0,,,,,,,,,,,,,,,,,,,,,,,,,,,,,,,,,,,,,,,,,,,,,,,,,,,,,,,,,,,476986,001,2023-03-01_16h26.30.579,eb_01,2022.2.4,99.88780814302307,
3,stimuli/3.png,l,0,0,0,0,35,0,35,0,0,0,0,0,,,,,,,,,,,,,,,,,,183.52406986104688,183.52406986104688,183.52406986104688,183.52406986104688,l,1,0.6410050032573054,184.1841276529849,184.1841276529849,184.1841276529849,185.19475332780348,185.19475332780348,185.19475332780348,,,,,,,,,,,,,,,,,,,,,,,,,476986,001,2023-03-01_16h26.30.579,eb_01,2022.2.4,99.88780814302307,
,,,0,0,0,0,35,0,35,0,,,,,,,,,,,,,,,,,,,,,,,,,,,,,,,,,,,,,,,,,,,,,,,,,,,,,,,,,,,476986,001,2023-03-01_16h26.30.579,eb_01,2022.2.4,99.88780814302307,
4,stimuli/4.png,l,0,0,0,0,36,0,36,0,0,0,0,0,,,,,,,,,,,,,,,,,,185.19475332780348,185.19475332780348,185.19475332780348,185.19475332780348,l,1,0.7463281337040826,185.96555122536665,185.96555122536665,185.96555122536665,,,,,,,,,,,,,,,,,,,,,,,,,,,,476986,001,2023-03-01_16h26.30.579,eb_01,2022.2.4,99.88780814302307,
,,,0,0,0,0,36,0,36,0,,,,,,,,,,,,,,,,,,,,,,,,,,,,,,,,,,,,,,,,,,,,,,,,,,,,,,,,,,,476986,001,2023-03-01_16h26.30.579,eb_01,2022.2.4,99.88780814302307,
2,stimuli/2.png,s,0,0,0,0,37,0,37,0,0,0,0,0,,,,,,,,,,,,,,,,,,186.97615124305594,186.97615124305594,186.97615124305594,186.97615124305594,s,1,0.6839960935903946,187.6762848714352,187.6762848714352,187.6762848714352,188.69724735195632,188.69724735195632,188.69724735195632,,,,,,,,,,,,,,,,,,,,,,,,,476986,001,2023-03-01_16h26.30.579,eb_01,2022.2.4,99.88780814302307,
,,,0,0,0,0,37,0,37,0,,,,,,,,,,,,,,,,,,,,,,,,,,,,,,,,,,,,,,,,,,,,,,,,,,,,,,,,,,,476986,001,2023-03-01_16h26.30.579,eb_01,2022.2.4,99.88780814302307,
1,stimuli/1.png,s,0,0,0,0,38,0,38,0,0,0,0,0,,,,,,,,,,,,,,,,,,188.69724735195632,188.69724735195632,188.69724735195632,188.69724735195632,s,1,0.6189335309391026,189.34763783841117,189.34763783841117,189.34763783841117,,,,,,,,,,,,,,,,,,,,,,,,,,,,476986,001,2023-03-01_16h26.30.579,eb_01,2022.2.4,99.88780814302307,
,,,0,0,0,0,38,0,38,0,,,,,,,,,,,,,,,,,,,,,,,,,,,,,,,,,,,,,,,,,,,,,,,,,,,,,,,,,,,476986,001,2023-03-01_16h26.30.579,eb_01,2022.2.4,99.88780814302307,
4,stimuli/4.png,l,0,0,0,0,39,0,39,0,0,0,0,0,,,,,,,,,,,,,,,,,,190.34788716536423,190.34788716536423,190.34788716536423,190.34788716536423,l,1,0.7523273748593056,191.12867293163436,191.12867293163436,191.12867293163436,,,,,,,,,,,,,,,,,,,,,,,,,,,,476986,001,2023-03-01_16h26.30.579,eb_01,2022.2.4,99.88780814302307,
,,,0,0,0,0,39,0,39,0,,,,,,,,,,,,,,,,,,,,,,,,,,,,,,,,,,,,,,,,,,,,,,,,,,,,,,,,,,,476986,001,2023-03-01_16h26.30.579,eb_01,2022.2.4,99.88780814302307,
1,stimuli/1.png,s,0,0,0,0,40,0,40,0,0,0,0,0,,,,,,,,,,,,,,,,,,192.14925508290253,192.14925508290253,192.14925508290253,192.14925508290253,s,1,0.5749937304208288,192.75965968380115,192.75965968380115,192.75965968380115,,,,,,,,,,,,,,,,,,,,,,,,,,,,476986,001,2023-03-01_16h26.30.579,eb_01,2022.2.4,99.88780814302307,
,,,0,0,0,0,40,0,40,0,,,,,,,,,,,,,,,,,,,,,,,,,,,,,,,,,,,,,,,,,,,,,,,,,,,,,,,,,,,476986,001,2023-03-01_16h26.30.579,eb_01,2022.2.4,99.88780814302307,
4,stimuli/4.png,l,0,0,0,0,41,0,41,0,0,0,0,0,,,,,,,,,,,,,,,,,,193.75994221409928,193.75994221409928,193.75994221409928,193.75994221409928,l,1,0.7403231574280653,194.5207664298432,194.5207664298432,194.5207664298432,,,,,,,,,,,,,,,,,,,,,,,,,,,,476986,001,2023-03-01_16h26.30.579,eb_01,2022.2.4,99.88780814302307,
,,,0,0,0,0,41,0,41,0,,,,,,,,,,,,,,,,,,,,,,,,,,,,,,,,,,,,,,,,,,,,,,,,,,,,,,,,,,,476986,001,2023-03-01_16h26.30.579,eb_01,2022.2.4,99.88780814302307,
2,stimuli/2.png,s,0,0,0,0,42,0,42,0,0,0,0,0,,,,,,,,,,,,,,,,,,195.53133264048665,195.53133264048665,195.53133264048665,195.53133264048665,s,1,0.6409582167216286,196.19143238937977,196.19143238937977,196.19143238937977,197.2023490462634,197.2023490462634,197.2023490462634,,,,,,,,,,,,,,,,,,,,,,,,,476986,001,2023-03-01_16h26.30.579,eb_01,2022.2.4,99.88780814302307,
,,,0,0,0,0,42,0,42,0,,,,,,,,,,,,,,,,,,,,,,,,,,,,,,,,,,,,,,,,,,,,,,,,,,,,,,,,,,,476986,001,2023-03-01_16h26.30.579,eb_01,2022.2.4,99.88780814302307,
3,stimuli/3.png,l,0,0,0,0,43,0,43,0,0,0,0,0,,,,,,,,,,,,,,,,,,197.2023490462634,197.2023490462634,197.2023490462634,197.2023490462634,l,1,0.5699428976040508,197.78237499920579,197.78237499920579,197.78237499920579,198.79297863907777,198.79297863907777,198.79297863907777,,,,,,,,,,,,,,,,,,,,,,,,,476986,001,2023-03-01_16h26.30.579,eb_01,2022.2.4,99.88780814302307,
,,,0,0,0,0,43,0,43,0,,,,,,,,,,,,,,,,,,,,,,,,,,,,,,,,,,,,,,,,,,,,,,,,,,,,,,,,,,,476986,001,2023-03-01_16h26.30.579,eb_01,2022.2.4,99.88780814302307,
4,stimuli/4.png,l,0,0,0,0,44,0,44,0,0,0,0,0,,,,,,,,,,,,,,,,,,198.79297863907777,198.79297863907777,198.79297863907777,198.79297863907777,l,1,0.835323669063655,199.65383035322884,199.65383035322884,199.65383035322884,,,,,,,,,,,,,,,,,,,,,,,,,,,,476986,001,2023-03-01_16h26.30.579,eb_01,2022.2.4,99.88780814302307,
,,,0,0,0,0,44,0,44,0,,,,,,,,,,,,,,,,,,,,,,,,,,,,,,,,,,,,,,,,,,,,,,,,,,,,,,,,,,,476986,001,2023-03-01_16h26.30.579,eb_01,2022.2.4,99.88780814302307,
2,stimuli/2.png,s,0,0,0,0,45,0,45,0,0,0,0,0,,,,,,,,,,,,,,,,,,200.66444304856122,200.66444304856122,200.66444304856122,200.66444304856122,s,1,0.6039189773109683,201.28449352368625,201.28449352368625,201.28449352368625,202.2954165193878,202.2954165193878,202.2954165193878,,,,,,,,,,,,,,,,,,,,,,,,,476986,001,2023-03-01_16h26.30.579,eb_01,2022.2.4,99.88780814302307,
,,,0,0,0,0,45,0,45,0,,,,,,,,,,,,,,,,,,,,,,,,,,,,,,,,,,,,,,,,,,,,,,,,,,,,,,,,,,,476986,001,2023-03-01_16h26.30.579,eb_01,2022.2.4,99.88780814302307,
3,stimuli/3.png,l,0,0,0,0,46,0,46,0,0,0,0,0,,,,,,,,,,,,,,,,,,202.2954165193878,202.2954165193878,202.2954165193878,202.2954165193878,l,1,0.8599412344192388,203.19598396459332,203.19598396459332,203.19598396459332,,,,,,,,,,,,,,,,,,,,,,,,,,,,476986,001,2023-03-01_16h26.30.579,eb_01,2022.2.4,99.88780814302307,
,,,0,0,0,0,46,0,46,0,,,,,,,,,,,,,,,,,,,,,,,,,,,,,,,,,,,,,,,,,,,,,,,,,,,,,,,,,,,476986,001,2023-03-01_16h26.30.579,eb_01,2022.2.4,99.88780814302307,
2,stimuli/2.png,s,0,0,0,0,47,0,47,0,0,0,0,0,,,,,,,,,,,,,,,,,,204.2065897174034,204.2065897174034,204.2065897174034,204.2065897174034,s,1,0.7968406877407688,205.0167444480212,205.0167444480212,205.0167444480212,206.02767710288026,206.02767710288026,206.02767710288026,,,,,,,,,,,,,,,,,,,,,,,,,476986,001,2023-03-01_16h26.30.579,eb_01,2022.2.4,99.88780814302307,
,,,0,0,0,0,47,0,47,0,,,,,,,,,,,,,,,,,,,,,,,,,,,,,,,,,,,,,,,,,,,,,,,,,,,,,,,,,,,476986,001,2023-03-01_16h26.30.579,eb_01,2022.2.4,99.88780814302307,
3,stimuli/3.png,l,0,0,0,0,48,0,48,0,0,0,0,0,,,,,,,,,,,,,,,,,,206.02767710288026,206.02767710288026,206.02767710288026,206.02767710288026,l,1,0.919783929031837,206.95793467935437,206.95793467935437,206.95793467935437,207.968830508682,207.968830508682,207.968830508682,,,,,,,,,,,,,,,,,,,,,,,,,476986,001,2023-03-01_16h26.30.579,eb_01,2022.2.4,99.88780814302307,
,,,0,0,0,0,48,0,48,0,,,,,,,,,,,,,,,,,,,,,,,,,,,,,,,,,,,,,,,,,,,,,,,,,,,,,,,,,,,476986,001,2023-03-01_16h26.30.579,eb_01,2022.2.4,99.88780814302307,
2,stimuli/2.png,s,0,0,0,0,49,0,49,0,0,0,0,0,,,,,,,,,,,,,,,,,,207.968830508682,207.968830508682,207.968830508682,207.968830508682,s,1,0.8907352260612242,208.87909755716828,208.87909755716828,208.87909755716828,209.90004826559016,209.90004826559016,209.90004826559016,,,,,,,,,,,,,,,,,,,,,,,,,476986,001,2023-03-01_16h26.30.579,eb_01,2022.2.4,99.88780814302307,
,,,0,0,0,0,49,0,49,0,,,,,,,,,,,,,,,,,,,,,,,,,,,,,,,,,,,,,,,,,,,,,,,,,,,,,,,,,,,476986,001,2023-03-01_16h26.30.579,eb_01,2022.2.4,99.88780814302307,
1,stimuli/1.png,s,0,0,0,0,50,0,50,0,0,0,0,0,,,,,,,,,,,,,,,,,,209.90004826559016,209.90004826559016,209.90004826559016,209.90004826559016,s,1,0.6314723222567409,210.57048059430235,210.57048059430235,210.57048059430235,,,,,,,,,,,,,,,,,,,,,,,,,,,,476986,001,2023-03-01_16h26.30.579,eb_01,2022.2.4,99.88780814302307,
,,,0,0,0,0,50,0,50,0,,,,,,,,,,,,,,,,,,,,,,,,,,,,,,,,,,,,,,,,,,,,,,,,,,,,,,,,,,,476986,001,2023-03-01_16h26.30.579,eb_01,2022.2.4,99.88780814302307,
2,stimuli/2.png,s,0,0,0,0,51,0,51,0,0,0,0,0,,,,,,,,,,,,,,,,,,211.57108881925524,211.57108881925524,211.57108881925524,211.57108881925524,s,1,0.6405187251439202,212.23112940581996,212.23112940581996,212.23112940581996,213.2517583436238,213.2517583436238,213.2517583436238,,,,,,,,,,,,,,,,,,,,,,,,,476986,001,2023-03-01_16h26.30.579,eb_01,2022.2.4,99.88780814302307,
,,,0,0,0,0,51,0,51,0,,,,,,,,,,,,,,,,,,,,,,,,,,,,,,,,,,,,,,,,,,,,,,,,,,,,,,,,,,,476986,001,2023-03-01_16h26.30.579,eb_01,2022.2.4,99.88780814302307,
1,stimuli/1.png,s,0,0,0,0,52,0,52,0,0,0,0,0,,,,,,,,,,,,,,,,,,213.2517583436238,213.2517583436238,213.2517583436238,213.2517583436238,s,1,0.6077769044131855,213.8821281172277,213.8821281172277,213.8821281172277,,,,,,,,,,,,,,,,,,,,,,,,,,,,476986,001,2023-03-01_16h26.30.579,eb_01,2022.2.4,99.88780814302307,
,,,0,0,0,0,52,0,52,0,,,,,,,,,,,,,,,,,,,,,,,,,,,,,,,,,,,,,,,,,,,,,,,,,,,,,,,,,,,476986,001,2023-03-01_16h26.30.579,eb_01,2022.2.4,99.88780814302307,
2,stimuli/2.png,s,0,0,0,0,53,0,53,0,0,0,0,0,,,,,,,,,,,,,,,,,,214.88308376993155,214.88308376993155,214.88308376993155,214.88308376993155,s,1,0.6245394633515389,215.52347401189036,215.52347401189036,215.52347401189036,216.5337447127422,216.5337447127422,216.5337447127422,,,,,,,,,,,,,,,,,,,,,,,,,476986,001,2023-03-01_16h26.30.579,eb_01,2022.2.4,99.88780814302307,
,,,0,0,0,0,53,0,53,0,,,,,,,,,,,,,,,,,,,,,,,,,,,,,,,,,,,,,,,,,,,,,,,,,,,,,,,,,,,476986,001,2023-03-01_16h26.30.579,eb_01,2022.2.4,99.88780814302307,
3,stimuli/3.png,l,0,0,0,0,54,0,54,0,0,0,0,0,,,,,,,,,,,,,,,,,,216.5337447127422,216.5337447127422,216.5337447127422,216.5337447127422,l,1,0.661882362466713,217.21414770478805,217.21414770478805,217.21414770478805,,,,,,,,,,,,,,,,,,,,,,,,,,,,476986,001,2023-03-01_16h26.30.579,eb_01,2022.2.4,99.88780814302307,
,,,0,0,0,0,54,0,54,0,,,,,,,,,,,,,,,,,,,,,,,,,,,,,,,,,,,,,,,,,,,,,,,,,,,,,,,,,,,476986,001,2023-03-01_16h26.30.579,eb_01,2022.2.4,99.88780814302307,
8,stimuli/8.png,l,0,0,0,0,55,0,55,0,0,0,0,0,,,,,,,,,,,,,,,,,,218.22476885187643,218.22476885187643,218.22476885187643,218.22476885187643,l,1,0.6659159654627729,218.91549838676656,218.91549838676656,218.91549838676656,,,,,,,,,,,,,,,,,,,,,,,,,,,,476986,001,2023-03-01_16h26.30.579,eb_01,2022.2.4,99.88780814302307,
,,,0,0,0,0,55,0,55,0,,,,,,,,,,,,,,,,,,,,,,,,,,,,,,,,,,,,,,,,,,,,,,,,,,,,,,,,,,,476986,001,2023-03-01_16h26.30.579,eb_01,2022.2.4,99.88780814302307,
6,stimuli/6.png,s,0,0,0,0,56,0,56,0,0,0,0,0,,,,,,,,,,,,,,,,,,219.9361312486035,219.9361312486035,219.9361312486035,219.9361312486035,s,1,0.8905849054535793,220.85662130586206,220.85662130586206,220.85662130586206,,,,,,,,,,,,,,,,,,,,,,,,,,,,476986,001,2023-03-01_16h26.30.579,eb_01,2022.2.4,99.88780814302307,
,,,0,0,0,0,56,0,56,0,,,,,,,,,,,,,,,,,,,,,,,,,,,,,,,,,,,,,,,,,,,,,,,,,,,,,,,,,,,476986,001,2023-03-01_16h26.30.579,eb_01,2022.2.4,99.88780814302307,
5,stimuli/5.png,s,0,0,0,0,57,0,57,0,0,0,0,0,,,,,,,,,,,,,,,,,,221.85724190660767,221.85724190660767,221.85724190660767,221.85724190660767,s,1,0.7615014597067784,222.64772576691394,222.64772576691394,222.64772576691394,,,,,,,,,,,,,,,,,,,,,,,,,,,,476986,001,2023-03-01_16h26.30.579,eb_01,2022.2.4,99.88780814302307,
,,,0,0,0,0,57,0,57,0,,,,,,,,,,,,,,,,,,,,,,,,,,,,,,,,,,,,,,,,,,,,,,,,,,,,,,,,,,,476986,001,2023-03-01_16h26.30.579,eb_01,2022.2.4,99.88780814302307,
9,stimuli/9.png,l,0,0,0,0,58,0,58,0,0,0,0,0,,,,,,,,,,,,,,,,,,223.66838790806287,223.66838790806287,223.66838790806287,223.66838790806287,l,1,0.6463860584553913,224.33845379255945,224.33845379255945,224.33845379255945,,,,,,,,,,,,,,,,,,,,,,,,,,,,476986,001,2023-03-01_16h26.30.579,eb_01,2022.2.4,99.88780814302307,
,,,0,0,0,0,58,0,58,0,,,,,,,,,,,,,,,,,,,,,,,,,,,,,,,,,,,,,,,,,,,,,,,,,,,,,,,,,,,476986,001,2023-03-01_16h26.30.579,eb_01,2022.2.4,99.88780814302307,
6,stimuli/6.png,s,0,0,0,0,59,0,59,0,0,0,0,0,,,,,,,,,,,,,,,,,,225.35939786031304,225.35939786031304,225.35939786031304,225.35939786031304,s,1,1.2834058588159678,226.6801446096324,226.6801446096324,226.6801446096324,,,,,,,,,,,,,,,,,,,,,,,,,,,,476986,001,2023-03-01_16h26.30.579,eb_01,2022.2.4,99.88780814302307,
,,,0,0,0,0,59,0,59,0,,,,,,,,,,,,,,,,,,,,,,,,,,,,,,,,,,,,,,,,,,,,,,,,,,,,,,,,,,,476986,001,2023-03-01_16h26.30.579,eb_01,2022.2.4,99.88780814302307,
5,stimuli/5.png,s,0,0,0,0,60,0,60,0,0,0,0,0,,,,,,,,,,,,,,,,,,227.68082980598047,227.68082980598047,227.68082980598047,227.68082980598047,s,1,0.5939938931151119,228.30120265542064,228.30120265542064,228.30120265542064,,,,,,,,,,,,,,,,,,,,,,,,,,,,476986,001,2023-03-01_16h26.30.579,eb_01,2022.2.4,99.88780814302307,
,,,0,0,0,0,60,0,60,0,,,,,,,,,,,,,,,,,,,,,,,,,,,,,,,,,,,,,,,,,,,,,,,,,,,,,,,,,,,476986,001,2023-03-01_16h26.30.579,eb_01,2022.2.4,99.88780814302307,
6,stimuli/6.png,s,0,0,0,0,61,0,61,0,0,0,0,0,,,,,,,,,,,,,,,,,,229.32187415388034,229.32187415388034,229.32187415388034,229.32187415388034,s,1,0.7849629448792257,230.14236448279917,230.14236448279917,230.14236448279917,,,,,,,,,,,,,,,,,,,,,,,,,,,,476986,001,2023-03-01_16h26.30.579,eb_01,2022.2.4,99.88780814302307,
,,,0,0,0,0,61,0,61,0,,,,,,,,,,,,,,,,,,,,,,,,,,,,,,,,,,,,,,,,,,,,,,,,,,,,,,,,,,,476986,001,2023-03-01_16h26.30.579,eb_01,2022.2.4,99.88780814302307,
5,stimuli/5.png,s,0,0,0,0,62,0,62,0,0,0,0,0,,,,,,,,,,,,,,,,,,231.14291022509133,231.14291022509133,231.14291022509133,231.14291022509133,s,1,0.7239780551171862,231.89333998204893,231.89333998204893,231.89333998204893,,,,,,,,,,,,,,,,,,,,,,,,,,,,476986,001,2023-03-01_16h26.30.579,eb_01,2022.2.4,99.88780814302307,
,,,0,0,0,0,62,0,62,0,,,,,,,,,,,,,,,,,,,,,,,,,,,,,,,,,,,,,,,,,,,,,,,,,,,,,,,,,,,476986,001,2023-03-01_16h26.30.579,eb_01,2022.2.4,99.88780814302307,
9,stimuli/9.png,l,0,0,0,0,63,0,63,0,0,0,0,0,,,,,,,,,,,,,,,,,,232.92360030534837,232.92360030534837,232.92360030534837,232.92360030534837,l,1,0.8543594498951279,233.80420861481616,233.80420861481616,233.80420861481616,,,,,,,,,,,,,,,,,,,,,,,,,,,,476986,001,2023-03-01_16h26.30.579,eb_01,2022.2.4,99.88780814302307,
,,,0,0,0,0,63,0,63,0,,,,,,,,,,,,,,,,,,,,,,,,,,,,,,,,,,,,,,,,,,,,,,,,,,,,,,,,,,,476986,001,2023-03-01_16h26.30.579,eb_01,2022.2.4,99.88780814302307,
6,stimuli/6.png,s,0,0,0,0,64,0,64,0,0,0,0,0,,,,,,,,,,,,,,,,,,234.82513879753606,234.82513879753606,234.82513879753606,234.82513879753606,s,1,0.5928142687407671,235.45552970054268,235.45552970054268,235.45552970054268,,,,,,,,,,,,,,,,,,,,,,,,,,,,476986,001,2023-03-01_16h26.30.579,eb_01,2022.2.4,99.88780814302307,
,,,0,0,0,0,64,0,64,0,,,,,,,,,,,,,,,,,,,,,,,,,,,,,,,,,,,,,,,,,,,,,,,,,,,,,,,,,,,476986,001,2023-03-01_16h26.30.579,eb_01,2022.2.4,99.88780814302307,
8,stimuli/8.png,l,0,0,0,0,65,0,65,0,0,0,0,0,,,,,,,,,,,,,,,,,,236.45614034028404,236.45614034028404,236.45614034028404,236.45614034028404,l,1,0.6338397209183313,237.11650631965313,237.11650631965313,237.11650631965313,,,,,,,,,,,,,,,,,,,,,,,,,,,,476986,001,2023-03-01_16h26.30.579,eb_01,2022.2.4,99.88780814302307,
,,,0,0,0,0,65,0,65,0,,,,,,,,,,,,,,,,,,,,,,,,,,,,,,,,,,,,,,,,,,,,,,,,,,,,,,,,,,,476986,001,2023-03-01_16h26.30.579,eb_01,2022.2.4,99.88780814302307,
3,stimuli/3.png,l,0,0,0,0,66,0,66,0,0,0,0,0,,,,,,,,,,,,,,,,,,238.1271319944717,238.1271319944717,238.1271319944717,238.1271319944717,l,1,0.6588910427271912,238.79724013777377,238.79724013777377,238.79724013777377,239.807832911094,239.807832911094,239.807832911094,,,,,,,,,,,,,,,,,,,,,,,,,476986,001,2023-03-01_16h26.30.579,eb_01,2022.2.4,99.88780814302307,
,,,0,0,0,0,66,0,66,0,,,,,,,,,,,,,,,,,,,,,,,,,,,,,,,,,,,,,,,,,,,,,,,,,,,,,,,,,,,476986,001,2023-03-01_16h26.30.579,eb_01,2022.2.4,99.88780814302307,
4,stimuli/4.png,l,0,0,0,0,67,0,67,0,0,0,0,0,,,,,,,,,,,,,,,,,,239.807832911094,239.807832911094,239.807832911094,239.807832911094,l,1,1.1782520654378459,241.00889849706437,241.00889849706437,241.00889849706437,,,,,,,,,,,,,,,,,,,,,,,,,,,,476986,001,2023-03-01_16h26.30.579,eb_01,2022.2.4,99.88780814302307,
,,,0,0,0,0,67,0,67,0,,,,,,,,,,,,,,,,,,,,,,,,,,,,,,,,,,,,,,,,,,,,,,,,,,,,,,,,,,,476986,001,2023-03-01_16h26.30.579,eb_01,2022.2.4,99.88780814302307,
3,stimuli/3.png,l,0,0,0,0,68,0,68,0,0,0,0,0,,,,,,,,,,,,,,,,,,242.01950364617733,242.01950364617733,242.01950364617733,242.01950364617733,l,1,1.1506096751509176,243.17987581344278,243.17987581344278,243.17987581344278,244.1908271829161,244.1908271829161,244.1908271829161,,,,,,,,,,,,,,,,,,,,,,,,,476986,001,2023-03-01_16h26.30.579,eb_01,2022.2.4,99.88780814302307,
,,,0,0,0,0,68,0,68,0,,,,,,,,,,,,,,,,,,,,,,,,,,,,,,,,,,,,,,,,,,,,,,,,,,,,,,,,,,,476986,001,2023-03-01_16h26.30.579,eb_01,2022.2.4,99.88780814302307,
8,stimuli/8.png,l,0,0,0,0,69,0,69,0,0,0,0,0,,,,,,,,,,,,,,,,,,244.1908271829161,244.1908271829161,244.1908271829161,244.1908271829161,l,1,0.6512871743580035,244.8712377211741,244.8712377211741,244.8712377211741,,,,,,,,,,,,,,,,,,,,,,,,,,,,476986,001,2023-03-01_16h26.30.579,eb_01,2022.2.4,99.88780814302307,
,,,0,0,0,0,69,0,69,0,,,,,,,,,,,,,,,,,,,,,,,,,,,,,,,,,,,,,,,,,,,,,,,,,,,,,,,,,,,476986,001,2023-03-01_16h26.30.579,eb_01,2022.2.4,99.88780814302307,
3,stimuli/3.png,l,0,0,0,0,70,0,70,0,0,0,0,0,,,,,,,,,,,,,,,,,,245.88182174088433,245.88182174088433,245.88182174088433,245.88182174088433,l,1,0.6323446647475066,246.5319088694887,246.5319088694887,246.5319088694887,247.54253816648998,247.54253816648998,247.54253816648998,,,,,,,,,,,,,,,,,,,,,,,,,476986,001,2023-03-01_16h26.30.579,eb_01,2022.2.4,99.88780814302307,
,,,0,0,0,0,70,0,70,0,,,,,,,,,,,,,,,,,,,,,,,,,,,,,,,,,,,,,,,,,,,,,,,,,,,,,,,,,,,476986,001,2023-03-01_16h26.30.579,eb_01,2022.2.4,99.88780814302307,
8,stimuli/8.png,l,0,0,0,0,71,0,71,0,0,0,0,0,,,,,,,,,,,,,,,,,,247.54253816648998,247.54253816648998,247.54253816648998,247.54253816648998,l,1,0.6836230087101285,248.25328086801892,248.25328086801892,248.25328086801892,,,,,,,,,,,,,,,,,,,,,,,,,,,,476986,001,2023-03-01_16h26.30.579,eb_01,2022.2.4,99.88780814302307,
,,,0,0,0,0,71,0,71,0,,,,,,,,,,,,,,,,,,,,,,,,,,,,,,,,,,,,,,,,,,,,,,,,,,,,,,,,,,,476986,001,2023-03-01_16h26.30.579,eb_01,2022.2.4,99.88780814302307,
3,stimuli/3.png,l,0,0,0,0,72,0,72,0,0,0,0,0,,,,,,,,,,,,,,,,,,249.26387152840107,249.26387152840107,249.26387152840107,249.26387152840107,l,1,0.5773312460660236,249.85390497020853,249.85390497020853,249.85390497020853,250.86453788939252,250.86453788939252,250.86453788939252,,,,,,,,,,,,,,,,,,,,,,,,,476986,001,2023-03-01_16h26.30.579,eb_01,2022.2.4,99.88780814302307,
,,,0,0,0,0,72,0,72,0,,,,,,,,,,,,,,,,,,,,,,,,,,,,,,,,,,,,,,,,,,,,,,,,,,,,,,,,,,,476986,001,2023-03-01_16h26.30.579,eb_01,2022.2.4,99.88780814302307,
4,stimuli/4.png,l,0,0,0,0,73,0,73,0,0,0,0,0,,,,,,,,,,,,,,,,,,250.86453788939252,250.86453788939252,250.86453788939252,250.86453788939252,l,1,0.8166968931000156,251.70536828699915,251.70536828699915,251.70536828699915,,,,,,,,,,,,,,,,,,,,,,,,,,,,476986,001,2023-03-01_16h26.30.579,eb_01,2022.2.4,99.88780814302307,
,,,0,0,0,0,73,0,73,0,,,,,,,,,,,,,,,,,,,,,,,,,,,,,,,,,,,,,,,,,,,,,,,,,,,,,,,,,,,476986,001,2023-03-01_16h26.30.579,eb_01,2022.2.4,99.88780814302307,
2,stimuli/2.png,s,0,0,0,0,74,0,74,0,0,0,0,0,,,,,,,,,,,,,,,,,,252.71598430266386,252.71598430266386,252.71598430266386,252.71598430266386,s,1,0.7412890729865467,253.47612000172376,253.47612000172376,253.47612000172376,254.4970755397262,254.4970755397262,254.4970755397262,,,,,,,,,,,,,,,,,,,,,,,,,476986,001,2023-03-01_16h26.30.579,eb_01,2022.2.4,99.88780814302307,
,,,0,0,0,0,74,0,74,0,,,,,,,,,,,,,,,,,,,,,,,,,,,,,,,,,,,,,,,,,,,,,,,,,,,,,,,,,,,476986,001,2023-03-01_16h26.30.579,eb_01,2022.2.4,99.88780814302307,
1,stimuli/1.png,s,0,0,0,0,75,0,75,0,0,0,0,0,,,,,,,,,,,,,,,,,,254.4970755397262,254.4970755397262,254.4970755397262,254.4970755397262,s,1,0.7202339249415672,255.2475225020571,255.2475225020571,255.2475225020571,,,,,,,,,,,,,,,,,,,,,,,,,,,,476986,001,2023-03-01_16h26.30.579,eb_01,2022.2.4,99.88780814302307,
,,,0,0,0,0,75,0,75,0,,,,,,,,,,,,,,,,,,,,,,,,,,,,,,,,,,,,,,,,,,,,,,,,,,,,,,,,,,,476986,001,2023-03-01_16h26.30.579,eb_01,2022.2.4,99.88780814302307,
4,stimuli/4.png,l,0,0,0,0,76,0,76,0,0,0,0,0,,,,,,,,,,,,,,,,,,256.24778601589423,256.24778601589423,256.24778601589423,256.24778601589423,l,1,0.865563466653839,257.13866019664056,257.13866019664056,257.13866019664056,,,,,,,,,,,,,,,,,,,,,,,,,,,,476986,001,2023-03-01_16h26.30.579,eb_01,2022.2.4,99.88780814302307,
,,,0,0,0,0,76,0,76,0,,,,,,,,,,,,,,,,,,,,,,,,,,,,,,,,,,,,,,,,,,,,,,,,,,,,,,,,,,,476986,001,2023-03-01_16h26.30.579,eb_01,2022.2.4,99.88780814302307,
2,stimuli/2.png,s,0,0,0,0,77,0,77,0,0,0,0,0,,,,,,,,,,,,,,,,,,258.14927711785276,258.14927711785276,258.14927711785276,258.14927711785276,s,1,0.7720999681514513,258.9394099282217,258.9394099282217,258.9394099282217,259.95039661398187,259.95039661398187,259.95039661398187,,,,,,,,,,,,,,,,,,,,,,,,,476986,001,2023-03-01_16h26.30.579,eb_01,2022.2.4,99.88780814302307,
,,,0,0,0,0,77,0,77,0,,,,,,,,,,,,,,,,,,,,,,,,,,,,,,,,,,,,,,,,,,,,,,,,,,,,,,,,,,,476986,001,2023-03-01_16h26.30.579,eb_01,2022.2.4,99.88780814302307,
3,stimuli/3.png,l,0,0,0,0,78,0,78,0,0,0,0,0,,,,,,,,,,,,,,,,,,259.95039661398187,259.95039661398187,259.95039661398187,259.95039661398187,l,1,1.2910447416252282,261.2608406664913,261.2608406664913,261.2608406664913,262.2717425327901,262.2717425327901,262.2717425327901,,,,,,,,,,,,,,,,,,,,,,,,,476986,001,2023-03-01_16h26.30.579,eb_01,2022.2.4,99.88780814302307,
,,,0,0,0,0,78,0,78,0,,,,,,,,,,,,,,,,,,,,,,,,,,,,,,,,,,,,,,,,,,,,,,,,,,,,,,,,,,,476986,001,2023-03-01_16h26.30.579,eb_01,2022.2.4,99.88780814302307,
2,stimuli/2.png,s,0,0,0,0,79,0,79,0,0,0,0,0,,,,,,,,,,,,,,,,,,262.2717425327901,262.2717425327901,262.2717425327901,262.2717425327901,s,1,0.7937041788209172,263.08195974607224,263.08195974607224,263.08195974607224,264.10297837043254,264.10297837043254,264.10297837043254,,,,,,,,,,,,,,,,,,,,,,,,,476986,001,2023-03-01_16h26.30.579,eb_01,2022.2.4,99.88780814302307,
,,,0,0,0,0,79,0,79,0,,,,,,,,,,,,,,,,,,,,,,,,,,,,,,,,,,,,,,,,,,,,,,,,,,,,,,,,,,,476986,001,2023-03-01_16h26.30.579,eb_01,2022.2.4,99.88780814302307,
1,stimuli/1.png,s,0,0,0,0,80,0,80,0,0,0,0,0,,,,,,,,,,,,,,,,,,264.10297837043254,264.10297837043254,264.10297837043254,264.10297837043254,s,1,0.6184919264233031,264.7532692468485,264.7532692468485,264.7532692468485,,,,,,,,,,,,,,,,,,,,,,,,,,,,476986,001,2023-03-01_16h26.30.579,eb_01,2022.2.4,99.88780814302307,
,,,0,0,0,0,80,0,80,0,,,,,,,,,,,,,,,,,,,,,,,,,,,,,,,,,,,,,,,,,,,,,,,,,,,,,,,,,,,476986,001,2023-03-01_16h26.30.579,eb_01,2022.2.4,99.88780814302307,
4,stimuli/4.png,l,0,0,0,0,81,0,81,0,0,0,0,0,,,,,,,,,,,,,,,,,,265.75355389008837,265.75355389008837,265.75355389008837,265.75355389008837,l,1,0.7989560428104596,266.57440583364587,266.57440583364587,266.57440583364587,,,,,,,,,,,,,,,,,,,,,,,,,,,,476986,001,2023-03-01_16h26.30.579,eb_01,2022.2.4,99.88780814302307,
,,,0,0,0,0,81,0,81,0,,,,,,,,,,,,,,,,,,,,,,,,,,,,,,,,,,,,,,,,,,,,,,,,,,,,,,,,,,,476986,001,2023-03-01_16h26.30.579,eb_01,2022.2.4,99.88780814302307,
3,stimuli/3.png,l,0,0,0,0,82,0,82,0,0,0,0,0,,,,,,,,,,,,,,,,,,267.5850010217546,267.5850010217546,267.5850010217546,267.5850010217546,l,1,0.7915544130046328,268.39515665791987,268.39515665791987,268.39515665791987,269.4057738809788,269.4057738809788,269.4057738809788,,,,,,,,,,,,,,,,,,,,,,,,,476986,001,2023-03-01_16h26.30.579,eb_01,2022.2.4,99.88780814302307,
,,,0,0,0,0,82,0,82,0,,,,,,,,,,,,,,,,,,,,,,,,,,,,,,,,,,,,,,,,,,,,,,,,,,,,,,,,,,,476986,001,2023-03-01_16h26.30.579,eb_01,2022.2.4,99.88780814302307,
2,stimuli/2.png,s,0,0,0,0,83,0,83,0,0,0,0,0,,,,,,,,,,,,,,,,,,269.4057738809788,269.4057738809788,269.4057738809788,269.4057738809788,s,1,1.1067885011325416,270.52645808726083,270.52645808726083,270.52645808726083,271.54740456980653,271.54740456980653,271.54740456980653,,,,,,,,,,,,,,,,,,,,,,,,,476986,001,2023-03-01_16h26.30.579,eb_01,2022.2.4,99.88780814302307,
,,,0,0,0,0,83,0,83,0,,,,,,,,,,,,,,,,,,,,,,,,,,,,,,,,,,,,,,,,,,,,,,,,,,,,,,,,,,,476986,001,2023-03-01_16h26.30.579,eb_01,2022.2.4,99.88780814302307,
1,stimuli/1.png,s,0,0,0,0,84,0,84,0,0,0,0,0,,,,,,,,,,,,,,,,,,271.54740456980653,271.54740456980653,271.54740456980653,271.54740456980653,s,1,0.5491862778362702,272.1277716116783,272.1277716116783,272.1277716116783,,,,,,,,,,,,,,,,,,,,,,,,,,,,476986,001,2023-03-01_16h26.30.579,eb_01,2022.2.4,99.88780814302307,
,,,0,0,0,0,84,0,84,0,,,,,,,,,,,,,,,,,,,,,,,,,,,,,,,,,,,,,,,,,,,,,,,,,,,,,,,,,,,476986,001,2023-03-01_16h26.30.579,eb_01,2022.2.4,99.88780814302307,
2,stimuli/2.png,s,0,0,0,0,85,0,85,0,0,0,0,0,,,,,,,,,,,,,,,,,,273.12836172571406,273.12836172571406,273.12836172571406,273.12836172571406,s,1,0.7362871396471746,273.87850683943543,273.87850683943543,273.87850683943543,274.8994370221517,274.8994370221517,274.8994370221517,,,,,,,,,,,,,,,,,,,,,,,,,476986,001,2023-03-01_16h26.30.579,eb_01,2022.2.4,99.88780814302307,
,,,0,0,0,0,85,0,85,0,,,,,,,,,,,,,,,,,,,,,,,,,,,,,,,,,,,,,,,,,,,,,,,,,,,,,,,,,,,476986,001,2023-03-01_16h26.30.579,eb_01,2022.2.4,99.88780814302307,
1,stimuli/1.png,s,0,0,0,0,86,0,86,0,0,0,0,0,,,,,,,,,,,,,,,,,,274.8994370221517,274.8994370221517,274.8994370221517,274.8994370221517,s,1,0.8132268414628925,275.74993351783996,275.74993351783996,275.74993351783996,,,,,,,,,,,,,,,,,,,,,,,,,,,,476986,001,2023-03-01_16h26.30.579,eb_01,2022.2.4,99.88780814302307,
,,,0,0,0,0,86,0,86,0,,,,,,,,,,,,,,,,,,,,,,,,,,,,,,,,,,,,,,,,,,,,,,,,,,,,,,,,,,,476986,001,2023-03-01_16h26.30.579,eb_01,2022.2.4,99.88780814302307,
2,stimuli/2.png,s,0,0,0,0,87,0,87,0,0,0,0,0,,,,,,,,,,,,,,,,,,276.75055381673883,276.75055381673883,276.75055381673883,276.75055381673883,s,1,0.6341276844941603,277.4006294750943,277.4006294750943,277.4006294750943,278.42125237592336,278.42125237592336,278.42125237592336,,,,,,,,,,,,,,,,,,,,,,,,,476986,001,2023-03-01_16h26.30.579,eb_01,2022.2.4,99.88780814302307,
,,,0,0,0,0,87,0,87,0,,,,,,,,,,,,,,,,,,,,,,,,,,,,,,,,,,,,,,,,,,,,,,,,,,,,,,,,,,,476986,001,2023-03-01_16h26.30.579,eb_01,2022.2.4,99.88780814302307,
1,stimuli/1.png,s,0,0,0,0,88,0,88,0,0,0,0,0,,,,,,,,,,,,,,,,,,278.42125237592336,278.42125237592336,278.42125237592336,278.42125237592336,s,1,0.6994640238372085,279.15201790324136,279.15201790324136,279.15201790324136,,,,,,,,,,,,,,,,,,,,,,,,,,,,476986,001,2023-03-01_16h26.30.579,eb_01,2022.2.4,99.88780814302307,
,,,0,0,0,0,88,0,88,0,,,,,,,,,,,,,,,,,,,,,,,,,,,,,,,,,,,,,,,,,,,,,,,,,,,,,,,,,,,476986,001,2023-03-01_16h26.30.579,eb_01,2022.2.4,99.88780814302307,
4,stimuli/4.png,l,0,0,0,0,89,0,89,0,0,0,0,0,,,,,,,,,,,,,,,,,,280.1523001316964,280.1523001316964,280.1523001316964,280.1523001316964,l,1,0.6234790691814851,280.80301570910524,280.80301570910524,280.80301570910524,,,,,,,,,,,,,,,,,,,,,,,,,,,,476986,001,2023-03-01_16h26.30.579,eb_01,2022.2.4,99.88780814302307,
,,,0,0,0,0,89,0,89,0,,,,,,,,,,,,,,,,,,,,,,,,,,,,,,,,,,,,,,,,,,,,,,,,,,,,,,,,,,,476986,001,2023-03-01_16h26.30.579,eb_01,2022.2.4,99.88780814302307,
3,stimuli/3.png,l,0,0,0,0,90,0,90,0,0,0,0,0,,,,,,,,,,,,,,,,,,281.81362448040454,281.81362448040454,281.81362448040454,281.81362448040454,l,1,0.7221337601040432,282.553778405083,282.553778405083,282.553778405083,283.5646887231451,283.5646887231451,283.5646887231451,,,,,,,,,,,,,,,,,,,,,,,,,476986,001,2023-03-01_16h26.30.579,eb_01,2022.2.4,99.88780814302307,
,,,0,0,0,0,90,0,90,0,,,,,,,,,,,,,,,,,,,,,,,,,,,,,,,,,,,,,,,,,,,,,,,,,,,,,,,,,,,476986,001,2023-03-01_16h26.30.579,eb_01,2022.2.4,99.88780814302307,
2,stimuli/2.png,s,0,0,0,0,91,0,91,0,0,0,0,0,,,,,,,,,,,,,,,,,,283.5646887231451,283.5646887231451,283.5646887231451,283.5646887231451,s,1,1.0431485509870981,284.62499807571294,284.62499807571294,284.62499807571294,285.63561469507476,285.63561469507476,285.63561469507476,,,,,,,,,,,,,,,,,,,,,,,,,476986,001,2023-03-01_16h26.30.579,eb_01,2022.2.4,99.88780814302307,
,,,0,0,0,0,91,0,91,0,,,,,,,,,,,,,,,,,,,,,,,,,,,,,,,,,,,,,,,,,,,,,,,,,,,,,,,,,,,476986,001,2023-03-01_16h26.30.579,eb_01,2022.2.4,99.88780814302307,
4,stimuli/4.png,l,0,0,0,0,92,0,92,0,0,0,0,0,,,,,,,,,,,,,,,,,,285.63561469507476,285.63561469507476,285.63561469507476,285.63561469507476,l,1,0.644216974331357,286.30634464651666,286.30634464651666,286.30634464651666,,,,,,,,,,,,,,,,,,,,,,,,,,,,476986,001,2023-03-01_16h26.30.579,eb_01,2022.2.4,99.88780814302307,
,,,0,0,0,0,92,0,92,0,,,,,,,,,,,,,,,,,,,,,,,,,,,,,,,,,,,,,,,,,,,,,,,,,,,,,,,,,,,476986,001,2023-03-01_16h26.30.579,eb_01,2022.2.4,99.88780814302307,
2,stimuli/2.png,s,0,0,0,0,93,0,93,0,0,0,0,0,,,,,,,,,,,,,,,,,,287.31696760470004,287.31696760470004,287.31696760470004,287.31696760470004,s,1,0.7228769113826274,288.05710070182613,288.05710070182613,288.05710070182613,289.06768109935365,289.06768109935365,289.06768109935365,,,,,,,,,,,,,,,,,,,,,,,,,476986,001,2023-03-01_16h26.30.579,eb_01,2022.2.4,99.88780814302307,
,,,0,0,0,0,93,0,93,0,,,,,,,,,,,,,,,,,,,,,,,,,,,,,,,,,,,,,,,,,,,,,,,,,,,,,,,,,,,476986,001,2023-03-01_16h26.30.579,eb_01,2022.2.4,99.88780814302307,
4,stimuli/4.png,l,0,0,0,0,94,0,94,0,0,0,0,0,,,,,,,,,,,,,,,,,,289.06768109935365,289.06768109935365,289.06768109935365,289.06768109935365,l,1,0.7242204395552108,289.81848424304917,289.81848424304917,289.81848424304917,,,,,,,,,,,,,,,,,,,,,,,,,,,,476986,001,2023-03-01_16h26.30.579,eb_01,2022.2.4,99.88780814302307,
,,,0,0,0,0,94,0,94,0,,,,,,,,,,,,,,,,,,,,,,,,,,,,,,,,,,,,,,,,,,,,,,,,,,,,,,,,,,,476986,001,2023-03-01_16h26.30.579,eb_01,2022.2.4,99.88780814302307,
3,stimuli/3.png,l,0,0,0,0,95,0,95,0,0,0,0,0,,,,,,,,,,,,,,,,,,290.82909090140674,290.82909090140674,290.82909090140674,290.82909090140674,l,1,0.5868427976602106,291.4291505466899,291.4291505466899,291.4291505466899,292.4397632420223,292.4397632420223,292.4397632420223,,,,,,,,,,,,,,,,,,,,,,,,,476986,001,2023-03-01_16h26.30.579,eb_01,2022.2.4,99.88780814302307,
,,,0,0,0,0,95,0,95,0,,,,,,,,,,,,,,,,,,,,,,,,,,,,,,,,,,,,,,,,,,,,,,,,,,,,,,,,,,,476986,001,2023-03-01_16h26.30.579,eb_01,2022.2.4,99.88780814302307,
4,stimuli/4.png,l,0,0,0,0,96,0,96,0,0,0,0,0,,,,,,,,,,,,,,,,,,292.4397632420223,292.4397632420223,292.4397632420223,292.4397632420223,l,1,1.3522502827217977,293.82091140773264,293.82091140773264,293.82091140773264,,,,,,,,,,,,,,,,,,,,,,,,,,,,476986,001,2023-03-01_16h26.30.579,eb_01,2022.2.4,99.88780814302307,
,,,0,0,0,0,96,0,96,0,,,,,,,,,,,,,,,,,,,,,,,,,,,,,,,,,,,,,,,,,,,,,,,,,,,,,,,,,,,476986,001,2023-03-01_16h26.30.579,eb_01,2022.2.4,99.88780814302307,
3,stimuli/3.png,l,0,0,0,0,97,0,97,0,0,0,0,0,,,,,,,,,,,,,,,,,,294.8315219901233,294.8315219901233,294.8315219901233,294.8315219901233,l,1,1.0804754521304858,295.9218713165028,295.9218713165028,295.9218713165028,296.932820271184,296.932820271184,296.932820271184,,,,,,,,,,,,,,,,,,,,,,,,,476986,001,2023-03-01_16h26.30.579,eb_01,2022.2.4,99.88780814302307,
,,,0,0,0,0,97,0,97,0,,,,,,,,,,,,,,,,,,,,,,,,,,,,,,,,,,,,,,,,,,,,,,,,,,,,,,,,,,,476986,001,2023-03-01_16h26.30.579,eb_01,2022.2.4,99.88780814302307,
8,stimuli/8.png,l,0,0,0,0,98,0,98,0,0,0,0,0,,,,,,,,,,,,,,,,,,296.932820271184,296.932820271184,296.932820271184,296.932820271184,l,1,0.6982297648646636,297.65323269298096,297.65323269298096,297.65323269298096,,,,,,,,,,,,,,,,,,,,,,,,,,,,476986,001,2023-03-01_16h26.30.579,eb_01,2022.2.4,99.88780814302307,
,,,0,0,0,0,98,0,98,0,,,,,,,,,,,,,,,,,,,,,,,,,,,,,,,,,,,,,,,,,,,,,,,,,,,,,,,,,,,476986,001,2023-03-01_16h26.30.579,eb_01,2022.2.4,99.88780814302307,
9,stimuli/9.png,l,0,0,0,0,99,0,99,0,0,0,0,0,,,,,,,,,,,,,,,,,,298.6738616307848,298.6738616307848,298.6738616307848,298.6738616307848,l,1,1.109238002616621,299.8042508736253,299.8042508736253,299.8042508736253,,,,,,,,,,,,,,,,,,,,,,,,,,,,476986,001,2023-03-01_16h26.30.579,eb_01,2022.2.4,99.88780814302307,
,,,0,0,0,0,99,0,99,0,,,,,,,,,,,,,,,,,,,,,,,,,,,,,,,,,,,,,,,,,,,,,,,,,,,,,,,,,,,476986,001,2023-03-01_16h26.30.579,eb_01,2022.2.4,99.88780814302307,
,,,0,0,0,0,,,,,,,,,,,,,,,,,,,,,,,,,,,,,,,,,,,,,,,300.8051325734159,300.8051325734159,return,11.889154444885207,,,,,,,,,,,,,,,,,,,,,476986,001,2023-03-01_16h26.30.579,eb_01,2022.2.4,99.88780814302307,
5,stimuli/5.png,s,1,0,1,0,0,0,0,0,0,0,0,0,,,,,,,,,,,,,,,,,,312.72204995050924,312.72204995050924,312.72204995050924,312.72204995050924,s,1,1.6123034261872817,314.3633590196405,314.3633590196405,314.3633590196405,,,,,,,,,,,,,,,,,,,,,,,,,,,,476986,001,2023-03-01_16h26.30.579,eb_01,2022.2.4,99.88780814302307,
,,,1,0,1,0,0,0,0,0,,,,,,,,,,,,,,,,,,,,,,,,,,,,,,,,,,,,,,,,,,,,,,,,,,,,,,,,,,,476986,001,2023-03-01_16h26.30.579,eb_01,2022.2.4,99.88780814302307,
9,stimuli/9.png,l,1,0,1,0,1,0,1,0,0,0,0,0,,,,,,,,,,,,,,,,,,315.38399037223644,315.38399037223644,315.38399037223644,315.38399037223644,l,1,0.5983821682311827,316.0040499028182,316.0040499028182,316.0040499028182,,,,,,,,,,,,,,,,,,,,,,,,,,,,476986,001,2023-03-01_16h26.30.579,eb_01,2022.2.4,99.88780814302307,
,,,1,0,1,0,1,0,1,0,,,,,,,,,,,,,,,,,,,,,,,,,,,,,,,,,,,,,,,,,,,,,,,,,,,,,,,,,,,476986,001,2023-03-01_16h26.30.579,eb_01,2022.2.4,99.88780814302307,
5,stimuli/5.png,s,1,0,1,0,2,0,2,0,0,0,0,0,,,,,,,,,,,,,,,,,,317.0149994612002,317.0149994612002,317.0149994612002,317.0149994612002,s,1,0.6153680951392744,317.65536555526705,317.65536555526705,317.65536555526705,,,,,,,,,,,,,,,,,,,,,,,,,,,,476986,001,2023-03-01_16h26.30.579,eb_01,2022.2.4,99.88780814302307,
,,,1,0,1,0,2,0,2,0,,,,,,,,,,,,,,,,,,,,,,,,,,,,,,,,,,,,,,,,,,,,,,,,,,,,,,,,,,,476986,001,2023-03-01_16h26.30.579,eb_01,2022.2.4,99.88780814302307,
9,stimuli/9.png,l,1,0,1,0,3,0,3,0,0,0,0,0,,,,,,,,,,,,,,,,,,318.67598996534434,318.67598996534434,318.67598996534434,318.67598996534434,l,1,0.6264468447297986,319.3260635107581,319.3260635107581,319.3260635107581,,,,,,,,,,,,,,,,,,,,,,,,,,,,476986,001,2023-03-01_16h26.30.579,eb_01,2022.2.4,99.88780814302307,
,,,1,0,1,0,3,0,3,0,,,,,,,,,,,,,,,,,,,,,,,,,,,,,,,,,,,,,,,,,,,,,,,,,,,,,,,,,,,476986,001,2023-03-01_16h26.30.579,eb_01,2022.2.4,99.88780814302307,
5,stimuli/5.png,s,1,0,1,0,4,0,4,0,0,0,0,0,,,,,,,,,,,,,,,,,,320.33699465637255,320.33699465637255,320.33699465637255,320.33699465637255,s,1,0.8294445636565797,321.187509262978,321.187509262978,321.187509262978,,,,,,,,,,,,,,,,,,,,,,,,,,,,476986,001,2023-03-01_16h26.30.579,eb_01,2022.2.4,99.88780814302307,
,,,1,0,1,0,4,0,4,0,,,,,,,,,,,,,,,,,,,,,,,,,,,,,,,,,,,,,,,,,,,,,,,,,,,,,,,,,,,476986,001,2023-03-01_16h26.30.579,eb_01,2022.2.4,99.88780814302307,
6,stimuli/6.png,s,1,0,1,0,5,0,5,0,0,0,0,0,,,,,,,,,,,,,,,,,,322.20814997287744,322.20814997287744,322.20814997287744,322.20814997287744,s,1,0.6943356159281393,322.9385901073947,322.9385901073947,322.9385901073947,,,,,,,,,,,,,,,,,,,,,,,,,,,,476986,001,2023-03-01_16h26.30.579,eb_01,2022.2.4,99.88780814302307,
,,,1,0,1,0,5,0,5,0,,,,,,,,,,,,,,,,,,,,,,,,,,,,,,,,,,,,,,,,,,,,,,,,,,,,,,,,,,,476986,001,2023-03-01_16h26.30.579,eb_01,2022.2.4,99.88780814302307,
8,stimuli/8.png,l,1,0,1,0,6,0,6,0,0,0,0,0,,,,,,,,,,,,,,,,,,323.9391862584016,323.9391862584016,323.9391862584016,323.9391862584016,l,1,0.6353272308770102,324.5995794041446,324.5995794041446,324.5995794041446,,,,,,,,,,,,,,,,,,,,,,,,,,,,476986,001,2023-03-01_16h26.30.579,eb_01,2022.2.4,99.88780814302307,
,,,1,0,1,0,6,0,6,0,,,,,,,,,,,,,,,,,,,,,,,,,,,,,,,,,,,,,,,,,,,,,,,,,,,,,,,,,,,476986,001,2023-03-01_16h26.30.579,eb_01,2022.2.4,99.88780814302307,
6,stimuli/6.png,s,1,0,1,0,7,0,7,0,0,0,0,0,,,,,,,,,,,,,,,,,,325.6198850620822,325.6198850620822,325.6198850620822,325.6198850620822,s,1,1.0426631784212077,326.70086591310974,326.70086591310974,326.70086591310974,,,,,,,,,,,,,,,,,,,,,,,,,,,,476986,001,2023-03-01_16h26.30.579,eb_01,2022.2.4,99.88780814302307,
,,,1,0,1,0,7,0,7,0,,,,,,,,,,,,,,,,,,,,,,,,,,,,,,,,,,,,,,,,,,,,,,,,,,,,,,,,,,,476986,001,2023-03-01_16h26.30.579,eb_01,2022.2.4,99.88780814302307,
9,stimuli/9.png,l,1,0,1,0,8,0,8,0,0,0,0,0,,,,,,,,,,,,,,,,,,327.7114722696206,327.7114722696206,327.7114722696206,327.7114722696206,l,1,0.6861208059672208,328.42158591864063,328.42158591864063,328.42158591864063,,,,,,,,,,,,,,,,,,,,,,,,,,,,476986,001,2023-03-01_16h26.30.579,eb_01,2022.2.4,99.88780814302307,
,,,1,0,1,0,8,0,8,0,,,,,,,,,,,,,,,,,,,,,,,,,,,,,,,,,,,,,,,,,,,,,,,,,,,,,,,,,,,476986,001,2023-03-01_16h26.30.579,eb_01,2022.2.4,99.88780814302307,
6,stimuli/6.png,s,1,0,1,0,9,0,9,0,0,0,0,0,,,,,,,,,,,,,,,,,,329.44252304387555,329.44252304387555,329.44252304387555,329.44252304387555,s,1,0.7550751027665683,330.23300086721065,330.23300086721065,330.23300086721065,,,,,,,,,,,,,,,,,,,,,,,,,,,,476986,001,2023-03-01_16h26.30.579,eb_01,2022.2.4,99.88780814302307,
,,,1,0,1,0,9,0,9,0,,,,,,,,,,,,,,,,,,,,,,,,,,,,,,,,,,,,,,,,,,,,,,,,,,,,,,,,,,,476986,001,2023-03-01_16h26.30.579,eb_01,2022.2.4,99.88780814302307,
9,stimuli/9.png,l,1,0,1,0,10,0,10,0,0,0,0,0,,,,,,,,,,,,,,,,,,331.24363952151907,331.24363952151907,331.24363952151907,331.24363952151907,l,1,0.6259819978658925,331.89372725382054,331.89372725382054,331.89372725382054,,,,,,,,,,,,,,,,,,,,,,,,,,,,476986,001,2023-03-01_16h26.30.579,eb_01,2022.2.4,99.88780814302307,
,,,1,0,1,0,10,0,10,0,,,,,,,,,,,,,,,,,,,,,,,,,,,,,,,,,,,,,,,,,,,,,,,,,,,,,,,,,,,476986,001,2023-03-01_16h26.30.579,eb_01,2022.2.4,99.88780814302307,
5,stimuli/5.png,s,1,0,1,0,11,0,11,0,0,0,0,0,,,,,,,,,,,,,,,,,,332.90460406668353,332.90460406668353,332.90460406668353,332.90460406668353,s,1,0.5170732077640423,333.4449499067123,333.4449499067123,333.4449499067123,,,,,,,,,,,,,,,,,,,,,,,,,,,,476986,001,2023-03-01_16h26.30.579,eb_01,2022.2.4,99.88780814302307,
,,,1,0,1,0,11,0,11,0,,,,,,,,,,,,,,,,,,,,,,,,,,,,,,,,,,,,,,,,,,,,,,,,,,,,,,,,,,,476986,001,2023-03-01_16h26.30.579,eb_01,2022.2.4,99.88780814302307,
6,stimuli/6.png,s,1,0,1,0,12,0,12,0,0,0,0,0,,,,,,,,,,,,,,,,,,334.4656217070187,334.4656217070187,334.4656217070187,334.4656217070187,s,1,0.812064120607829,335.31611186388545,335.31611186388545,335.31611186388545,,,,,,,,,,,,,,,,,,,,,,,,,,,,476986,001,2023-03-01_16h26.30.579,eb_01,2022.2.4,99.88780814302307,
,,,1,0,1,0,12,0,12,0,,,,,,,,,,,,,,,,,,,,,,,,,,,,,,,,,,,,,,,,,,,,,,,,,,,,,,,,,,,476986,001,2023-03-01_16h26.30.579,eb_01,2022.2.4,99.88780814302307,
9,stimuli/9.png,l,1,0,1,0,13,0,13,0,0,0,0,0,,,,,,,,,,,,,,,,,,336.32670886308915,336.32670886308915,336.32670886308915,336.32670886308915,l,1,0.718995440089202,337.0668473934893,337.0668473934893,337.0668473934893,,,,,,,,,,,,,,,,,,,,,,,,,,,,476986,001,2023-03-01_16h26.30.579,eb_01,2022.2.4,99.88780814302307,
,,,1,0,1,0,13,0,13,0,,,,,,,,,,,,,,,,,,,,,,,,,,,,,,,,,,,,,,,,,,,,,,,,,,,,,,,,,,,476986,001,2023-03-01_16h26.30.579,eb_01,2022.2.4,99.88780814302307,
5,stimuli/5.png,s,1,0,1,0,14,0,14,0,0,0,0,0,,,,,,,,,,,,,,,,,,338.07779785741513,338.07779785741513,338.07779785741513,338.07779785741513,s,1,0.6239514622575371,338.7281475943091,338.7281475943091,338.7281475943091,,,,,,,,,,,,,,,,,,,,,,,,,,,,476986,001,2023-03-01_16h26.30.579,eb_01,2022.2.4,99.88780814302307,
,,,1,0,1,0,14,0,14,0,,,,,,,,,,,,,,,,,,,,,,,,,,,,,,,,,,,,,,,,,,,,,,,,,,,,,,,,,,,476986,001,2023-03-01_16h26.30.579,eb_01,2022.2.4,99.88780814302307,
9,stimuli/9.png,l,1,0,1,0,15,0,15,0,0,0,0,0,,,,,,,,,,,,,,,,,,339.74877532471874,339.74877532471874,339.74877532471874,339.74877532471874,l,1,0.8330202623074001,340.6089496905879,340.6089496905879,340.6089496905879,,,,,,,,,,,,,,,,,,,,,,,,,,,,476986,001,2023-03-01_16h26.30.579,eb_01,2022.2.4,99.88780814302307,
,,,1,0,1,0,15,0,15,0,,,,,,,,,,,,,,,,,,,,,,,,,,,,,,,,,,,,,,,,,,,,,,,,,,,,,,,,,,,476986,001,2023-03-01_16h26.30.579,eb_01,2022.2.4,99.88780814302307,
5,stimuli/5.png,s,1,0,1,0,16,0,16,0,0,0,0,0,,,,,,,,,,,,,,,,,,341.6199191709784,341.6199191709784,341.6199191709784,341.6199191709784,s,1,0.8809707253312808,342.53045214809026,342.53045214809026,342.53045214809026,,,,,,,,,,,,,,,,,,,,,,,,,,,,476986,001,2023-03-01_16h26.30.579,eb_01,2022.2.4,99.88780814302307,
,,,1,0,1,0,16,0,16,0,,,,,,,,,,,,,,,,,,,,,,,,,,,,,,,,,,,,,,,,,,,,,,,,,,,,,,,,,,,476986,001,2023-03-01_16h26.30.579,eb_01,2022.2.4,99.88780814302307,
9,stimuli/9.png,l,1,0,1,0,17,0,17,0,0,0,0,0,,,,,,,,,,,,,,,,,,343.5510810858941,343.5510810858941,343.5510810858941,343.5510810858941,l,1,1.413796610901045,344.9916312472451,344.9916312472451,344.9916312472451,,,,,,,,,,,,,,,,,,,,,,,,,,,,476986,001,2023-03-01_16h26.30.579,eb_01,2022.2.4,99.88780814302307,
,,,1,0,1,0,17,0,17,0,,,,,,,,,,,,,,,,,,,,,,,,,,,,,,,,,,,,,,,,,,,,,,,,,,,,,,,,,,,476986,001,2023-03-01_16h26.30.579,eb_01,2022.2.4,99.88780814302307,
8,stimuli/8.png,l,1,0,1,0,18,0,18,0,0,0,0,0,,,,,,,,,,,,,,,,,,346.00256541134513,346.00256541134513,346.00256541134513,346.00256541134513,l,1,0.7143397271065623,346.7430202790929,346.7430202790929,346.7430202790929,,,,,,,,,,,,,,,,,,,,,,,,,,,,476986,001,2023-03-01_16h26.30.579,eb_01,2022.2.4,99.88780814302307,
,,,1,0,1,0,18,0,18,0,,,,,,,,,,,,,,,,,,,,,,,,,,,,,,,,,,,,,,,,,,,,,,,,,,,,,,,,,,,476986,001,2023-03-01_16h26.30.579,eb_01,2022.2.4,99.88780814302307,
9,stimuli/9.png,l,1,0,1,0,19,0,19,0,0,0,0,0,,,,,,,,,,,,,,,,,,347.7636555557183,347.7636555557183,347.7636555557183,347.7636555557183,l,1,1.161272175500926,348.9540815818291,348.9540815818291,348.9540815818291,,,,,,,,,,,,,,,,,,,,,,,,,,,,476986,001,2023-03-01_16h26.30.579,eb_01,2022.2.4,99.88780814302307,
,,,1,0,1,0,19,0,19,0,,,,,,,,,,,,,,,,,,,,,,,,,,,,,,,,,,,,,,,,,,,,,,,,,,,,,,,,,,,476986,001,2023-03-01_16h26.30.579,eb_01,2022.2.4,99.88780814302307,
5,stimuli/5.png,s,1,0,1,0,20,0,20,0,0,0,0,0,,,,,,,,,,,,,,,,,,349.9649692612438,349.9649692612438,349.9649692612438,349.9649692612438,s,1,1.1279888383614889,351.11566597311685,351.11566597311685,351.11566597311685,,,,,,,,,,,,,,,,,,,,,,,,,,,,476986,001,2023-03-01_16h26.30.579,eb_01,2022.2.4,99.88780814302307,
,,,1,0,1,0,20,0,20,0,,,,,,,,,,,,,,,,,,,,,,,,,,,,,,,,,,,,,,,,,,,,,,,,,,,,,,,,,,,476986,001,2023-03-01_16h26.30.579,eb_01,2022.2.4,99.88780814302307,
9,stimuli/9.png,l,1,0,1,0,21,0,21,0,0,0,0,0,,,,,,,,,,,,,,,,,,352.1362882702524,352.1362882702524,352.1362882702524,352.1362882702524,l,1,0.9167292210840969,353.0765201322429,353.0765201322429,353.0765201322429,,,,,,,,,,,,,,,,,,,,,,,,,,,,476986,001,2023-03-01_16h26.30.579,eb_01,2022.2.4,99.88780814302307,
,,,1,0,1,0,21,0,21,0,,,,,,,,,,,,,,,,,,,,,,,,,,,,,,,,,,,,,,,,,,,,,,,,,,,,,,,,,,,476986,001,2023-03-01_16h26.30.579,eb_01,2022.2.4,99.88780814302307,
8,stimuli/8.png,l,1,0,1,0,22,0,22,0,0,0,0,0,,,,,,,,,,,,,,,,,,354.0875158734634,354.0875158734634,354.0875158734634,354.0875158734634,l,1,0.6055148509185528,354.7178497270834,354.7178497270834,354.7178497270834,,,,,,,,,,,,,,,,,,,,,,,,,,,,476986,001,2023-03-01_16h26.30.579,eb_01,2022.2.4,99.88780814302307,
,,,1,0,1,0,22,0,22,0,,,,,,,,,,,,,,,,,,,,,,,,,,,,,,,,,,,,,,,,,,,,,,,,,,,,,,,,,,,476986,001,2023-03-01_16h26.30.579,eb_01,2022.2.4,99.88780814302307,
6,stimuli/6.png,s,1,0,1,0,23,0,23,0,0,0,0,0,,,,,,,,,,,,,,,,,,355.738474137157,355.738474137157,355.738474137157,355.738474137157,s,1,0.8907497147920367,356.65903029925903,356.65903029925903,356.65903029925903,,,,,,,,,,,,,,,,,,,,,,,,,,,,476986,001,2023-03-01_16h26.30.579,eb_01,2022.2.4,99.88780814302307,
,,,1,0,1,0,23,0,23,0,,,,,,,,,,,,,,,,,,,,,,,,,,,,,,,,,,,,,,,,,,,,,,,,,,,,,,,,,,,476986,001,2023-03-01_16h26.30.579,eb_01,2022.2.4,99.88780814302307,
8,stimuli/8.png,l,1,0,1,0,24,0,24,0,0,0,0,0,,,,,,,,,,,,,,,,,,357.65964063715364,357.65964063715364,357.65964063715364,357.65964063715364,l,1,0.7684949901849905,358.4501109142693,358.4501109142693,358.4501109142693,,,,,,,,,,,,,,,,,,,,,,,,,,,,476986,001,2023-03-01_16h26.30.579,eb_01,2022.2.4,99.88780814302307,
,,,1,0,1,0,24,0,24,0,,,,,,,,,,,,,,,,,,,,,,,,,,,,,,,,,,,,,,,,,,,,,,,,,,,,,,,,,,,476986,001,2023-03-01_16h26.30.579,eb_01,2022.2.4,99.88780814302307,
6,stimuli/6.png,s,1,0,1,0,25,0,25,0,0,0,0,0,,,,,,,,,,,,,,,,,,359.4707477001393,359.4707477001393,359.4707477001393,359.4707477001393,s,1,0.7493777102281456,360.2512083754518,360.2512083754518,360.2512083754518,,,,,,,,,,,,,,,,,,,,,,,,,,,,476986,001,2023-03-01_16h26.30.579,eb_01,2022.2.4,99.88780814302307,
,,,1,0,1,0,25,0,25,0,,,,,,,,,,,,,,,,,,,,,,,,,,,,,,,,,,,,,,,,,,,,,,,,,,,,,,,,,,,476986,001,2023-03-01_16h26.30.579,eb_01,2022.2.4,99.88780814302307,
5,stimuli/5.png,s,1,0,1,0,26,0,26,0,0,0,0,0,,,,,,,,,,,,,,,,,,361.2518322965334,361.2518322965334,361.2518322965334,361.2518322965334,s,1,0.6483323783031665,361.92223806256516,361.92223806256516,361.92223806256516,,,,,,,,,,,,,,,,,,,,,,,,,,,,476986,001,2023-03-01_16h26.30.579,eb_01,2022.2.4,99.88780814302307,
,,,1,0,1,0,26,0,26,0,,,,,,,,,,,,,,,,,,,,,,,,,,,,,,,,,,,,,,,,,,,,,,,,,,,,,,,,,,,476986,001,2023-03-01_16h26.30.579,eb_01,2022.2.4,99.88780814302307,
9,stimuli/9.png,l,1,0,1,0,27,0,27,0,0,0,0,0,,,,,,,,,,,,,,,,,,362.94281357316504,362.94281357316504,362.94281357316504,362.94281357316504,l,1,0.9093656242112047,363.87308835501244,363.87308835501244,363.87308835501244,,,,,,,,,,,,,,,,,,,,,,,,,,,,476986,001,2023-03-01_16h26.30.579,eb_01,2022.2.4,99.88780814302307,
,,,1,0,1,0,27,0,27,0,,,,,,,,,,,,,,,,,,,,,,,,,,,,,,,,,,,,,,,,,,,,,,,,,,,,,,,,,,,476986,001,2023-03-01_16h26.30.579,eb_01,2022.2.4,99.88780814302307,
5,stimuli/5.png,s,1,0,1,0,28,0,28,0,0,0,0,0,,,,,,,,,,,,,,,,,,364.8840191987765,364.8840191987765,364.8840191987765,364.8840191987765,s,1,0.7281991061026929,365.6344655574103,365.6344655574103,365.6344655574103,,,,,,,,,,,,,,,,,,,,,,,,,,,,476986,001,2023-03-01_16h26.30.579,eb_01,2022.2.4,99.88780814302307,
,,,1,0,1,0,28,0,28,0,,,,,,,,,,,,,,,,,,,,,,,,,,,,,,,,,,,,,,,,,,,,,,,,,,,,,,,,,,,476986,001,2023-03-01_16h26.30.579,eb_01,2022.2.4,99.88780814302307,
6,stimuli/6.png,s,1,0,1,0,29,0,29,0,0,0,0,0,,,,,,,,,,,,,,,,,,366.65477242274574,366.65477242274574,366.65477242274574,366.65477242274574,s,1,1.5254975006610039,368.21604180482245,368.21604180482245,368.21604180482245,,,,,,,,,,,,,,,,,,,,,,,,,,,,476986,001,2023-03-01_16h26.30.579,eb_01,2022.2.4,99.88780814302307,
,,,1,0,1,0,29,0,29,0,,,,,,,,,,,,,,,,,,,,,,,,,,,,,,,,,,,,,,,,,,,,,,,,,,,,,,,,,,,476986,001,2023-03-01_16h26.30.579,eb_01,2022.2.4,99.88780814302307,
9,stimuli/9.png,l,1,0,1,0,30,0,30,0,0,0,0,0,,,,,,,,,,,,,,,,,,369.22663729478154,369.22663729478154,369.22663729478154,369.22663729478154,l,1,0.8256865484436275,370.07682922522145,370.07682922522145,370.07682922522145,,,,,,,,,,,,,,,,,,,,,,,,,,,,476986,001,2023-03-01_16h26.30.579,eb_01,2022.2.4,99.88780814302307,
,,,1,0,1,0,30,0,30,0,,,,,,,,,,,,,,,,,,,,,,,,,,,,,,,,,,,,,,,,,,,,,,,,,,,,,,,,,,,476986,001,2023-03-01_16h26.30.579,eb_01,2022.2.4,99.88780814302307,
5,stimuli/5.png,s,1,0,1,0,31,0,31,0,0,0,0,0,,,,,,,,,,,,,,,,,,371.0877805946948,371.0877805946948,371.0877805946948,371.0877805946948,s,1,1.3565787918087153,372.46861604524383,372.46861604524383,372.46861604524383,,,,,,,,,,,,,,,,,,,,,,,,,,,,476986,001,2023-03-01_16h26.30.579,eb_01,2022.2.4,99.88780814302307,
,,,1,0,1,0,31,0,31,0,,,,,,,,,,,,,,,,,,,,,,,,,,,,,,,,,,,,,,,,,,,,,,,,,,,,,,,,,,,476986,001,2023-03-01_16h26.30.579,eb_01,2022.2.4,99.88780814302307,
9,stimuli/9.png,l,1,0,1,0,32,0,32,0,0,0,0,0,,,,,,,,,,,,,,,,,,373.4892298906161,373.4892298906161,373.4892298906161,373.4892298906161,l,1,0.882166347677412,374.3994643394508,374.3994643394508,374.3994643394508,,,,,,,,,,,,,,,,,,,,,,,,,,,,476986,001,2023-03-01_16h26.30.579,eb_01,2022.2.4,99.88780814302307,
,,,1,0,1,0,32,0,32,0,,,,,,,,,,,,,,,,,,,,,,,,,,,,,,,,,,,,,,,,,,,,,,,,,,,,,,,,,,,476986,001,2023-03-01_16h26.30.579,eb_01,2022.2.4,99.88780814302307,
6,stimuli/6.png,s,1,0,1,0,33,0,33,0,0,0,0,0,,,,,,,,,,,,,,,,,,375.4204201793036,375.4204201793036,375.4204201793036,375.4204201793036,s,1,0.8789824485284043,376.330964324814,376.330964324814,376.330964324814,,,,,,,,,,,,,,,,,,,,,,,,,,,,476986,001,2023-03-01_16h26.30.579,eb_01,2022.2.4,99.88780814302307,
,,,1,0,1,0,33,0,33,0,,,,,,,,,,,,,,,,,,,,,,,,,,,,,,,,,,,,,,,,,,,,,,,,,,,,,,,,,,,476986,001,2023-03-01_16h26.30.579,eb_01,2022.2.4,99.88780814302307,
9,stimuli/9.png,l,1,0,1,0,34,0,34,0,0,0,0,0,,,,,,,,,,,,,,,,,,377.34157762383984,377.34157762383984,377.34157762383984,377.34157762383984,l,1,0.6058957838649803,377.9716063085143,377.9716063085143,377.9716063085143,,,,,,,,,,,,,,,,,,,,,,,,,,,,476986,001,2023-03-01_16h26.30.579,eb_01,2022.2.4,99.88780814302307,
,,,1,0,1,0,34,0,34,0,,,,,,,,,,,,,,,,,,,,,,,,,,,,,,,,,,,,,,,,,,,,,,,,,,,,,,,,,,,476986,001,2023-03-01_16h26.30.579,eb_01,2022.2.4,99.88780814302307,
6,stimuli/6.png,s,1,0,1,0,35,0,35,0,0,0,0,0,,,,,,,,,,,,,,,,,,378.99257935373316,378.99257935373316,378.99257935373316,378.99257935373316,s,1,0.7068837645565509,379.7330257697213,379.7330257697213,379.7330257697213,,,,,,,,,,,,,,,,,,,,,,,,,,,,476986,001,2023-03-01_16h26.30.579,eb_01,2022.2.4,99.88780814302307,
,,,1,0,1,0,35,0,35,0,,,,,,,,,,,,,,,,,,,,,,,,,,,,,,,,,,,,,,,,,,,,,,,,,,,,,,,,,,,476986,001,2023-03-01_16h26.30.579,eb_01,2022.2.4,99.88780814302307,
8,stimuli/8.png,l,1,0,1,0,36,0,36,0,0,0,0,0,,,,,,,,,,,,,,,,,,380.7336339946705,380.7336339946705,380.7336339946705,380.7336339946705,l,1,0.5658760912592697,381.3240230141455,381.3240230141455,381.3240230141455,,,,,,,,,,,,,,,,,,,,,,,,,,,,476986,001,2023-03-01_16h26.30.579,eb_01,2022.2.4,99.88780814302307,
,,,1,0,1,0,36,0,36,0,,,,,,,,,,,,,,,,,,,,,,,,,,,,,,,,,,,,,,,,,,,,,,,,,,,,,,,,,,,476986,001,2023-03-01_16h26.30.579,eb_01,2022.2.4,99.88780814302307,
6,stimuli/6.png,s,1,0,1,0,37,0,37,0,0,0,0,0,,,,,,,,,,,,,,,,,,382.34461180608196,382.34461180608196,382.34461180608196,382.34461180608196,s,1,0.8029473870010406,383.18513401625387,383.18513401625387,383.18513401625387,,,,,,,,,,,,,,,,,,,,,,,,,,,,476986,001,2023-03-01_16h26.30.579,eb_01,2022.2.4,99.88780814302307,
,,,1,0,1,0,37,0,37,0,,,,,,,,,,,,,,,,,,,,,,,,,,,,,,,,,,,,,,,,,,,,,,,,,,,,,,,,,,,476986,001,2023-03-01_16h26.30.579,eb_01,2022.2.4,99.88780814302307,
8,stimuli/8.png,l,1,0,1,0,38,0,38,0,0,0,0,0,,,,,,,,,,,,,,,,,,384.1857271487752,384.1857271487752,384.1857271487752,384.1857271487752,l,1,0.7058381609640492,384.9161328725495,384.9161328725495,384.9161328725495,,,,,,,,,,,,,,,,,,,,,,,,,,,,476986,001,2023-03-01_16h26.30.579,eb_01,2022.2.4,99.88780814302307,
,,,1,0,1,0,38,0,38,0,,,,,,,,,,,,,,,,,,,,,,,,,,,,,,,,,,,,,,,,,,,,,,,,,,,,,,,,,,,476986,001,2023-03-01_16h26.30.579,eb_01,2022.2.4,99.88780814302307,
6,stimuli/6.png,s,1,0,1,0,39,0,39,0,0,0,0,0,,,,,,,,,,,,,,,,,,385.9367708658101,385.9367708658101,385.9367708658101,385.9367708658101,s,1,0.5708070901782776,386.5471555447002,386.5471555447002,386.5471555447002,,,,,,,,,,,,,,,,,,,,,,,,,,,,476986,001,2023-03-01_16h26.30.579,eb_01,2022.2.4,99.88780814302307,
,,,1,0,1,0,39,0,39,0,,,,,,,,,,,,,,,,,,,,,,,,,,,,,,,,,,,,,,,,,,,,,,,,,,,,,,,,,,,476986,001,2023-03-01_16h26.30.579,eb_01,2022.2.4,99.88780814302307,
9,stimuli/9.png,l,1,0,1,0,40,0,40,0,0,0,0,0,,,,,,,,,,,,,,,,,,387.55776039196644,387.55776039196644,387.55776039196644,387.55776039196644,l,1,0.7658426464367949,388.3479267075345,388.3479267075345,388.3479267075345,,,,,,,,,,,,,,,,,,,,,,,,,,,,476986,001,2023-03-01_16h26.30.579,eb_01,2022.2.4,99.88780814302307,
,,,1,0,1,0,40,0,40,0,,,,,,,,,,,,,,,,,,,,,,,,,,,,,,,,,,,,,,,,,,,,,,,,,,,,,,,,,,,476986,001,2023-03-01_16h26.30.579,eb_01,2022.2.4,99.88780814302307,
5,stimuli/5.png,s,1,0,1,0,41,0,41,0,0,0,0,0,,,,,,,,,,,,,,,,,,389.35888441582574,389.35888441582574,389.35888441582574,389.35888441582574,s,1,0.6037680530025682,389.989256000521,389.989256000521,389.989256000521,,,,,,,,,,,,,,,,,,,,,,,,,,,,476986,001,2023-03-01_16h26.30.579,eb_01,2022.2.4,99.88780814302307,
,,,1,0,1,0,41,0,41,0,,,,,,,,,,,,,,,,,,,,,,,,,,,,,,,,,,,,,,,,,,,,,,,,,,,,,,,,,,,476986,001,2023-03-01_16h26.30.579,eb_01,2022.2.4,99.88780814302307,
6,stimuli/6.png,s,1,0,1,0,42,0,42,0,0,0,0,0,,,,,,,,,,,,,,,,,,391.00954807527523,391.00954807527523,391.00954807527523,391.00954807527523,s,1,0.7131335400554235,391.7603331080536,391.7603331080536,391.7603331080536,,,,,,,,,,,,,,,,,,,,,,,,,,,,476986,001,2023-03-01_16h26.30.579,eb_01,2022.2.4,99.88780814302307,
,,,1,0,1,0,42,0,42,0,,,,,,,,,,,,,,,,,,,,,,,,,,,,,,,,,,,,,,,,,,,,,,,,,,,,,,,,,,,476986,001,2023-03-01_16h26.30.579,eb_01,2022.2.4,99.88780814302307,
8,stimuli/8.png,l,1,0,1,0,43,0,43,0,0,0,0,0,,,,,,,,,,,,,,,,,,392.7609292590605,392.7609292590605,392.7609292590605,392.7609292590605,l,1,0.6737957234654459,393.4613469269825,393.4613469269825,393.4613469269825,,,,,,,,,,,,,,,,,,,,,,,,,,,,476986,001,2023-03-01_16h26.30.579,eb_01,2022.2.4,99.88780814302307,
,,,1,0,1,0,43,0,43,0,,,,,,,,,,,,,,,,,,,,,,,,,,,,,,,,,,,,,,,,,,,,,,,,,,,,,,,,,,,476986,001,2023-03-01_16h26.30.579,eb_01,2022.2.4,99.88780814302307,
9,stimuli/9.png,l,1,0,1,0,44,0,44,0,0,0,0,0,,,,,,,,,,,,,,,,,,394.4819438688355,394.4819438688355,394.4819438688355,394.4819438688355,l,1,0.8488084539312695,395.35215953061197,395.35215953061197,395.35215953061197,,,,,,,,,,,,,,,,,,,,,,,,,,,,476986,001,2023-03-01_16h26.30.579,eb_01,2022.2.4,99.88780814302307,
,,,1,0,1,0,44,0,44,0,,,,,,,,,,,,,,,,,,,,,,,,,,,,,,,,,,,,,,,,,,,,,,,,,,,,,,,,,,,476986,001,2023-03-01_16h26.30.579,eb_01,2022.2.4,99.88780814302307,
6,stimuli/6.png,s,1,0,1,0,45,0,45,0,0,0,0,0,,,,,,,,,,,,,,,,,,396.3731262370129,396.3731262370129,396.3731262370129,396.3731262370129,s,1,0.7576661712482746,397.16360647513284,397.16360647513284,397.16360647513284,,,,,,,,,,,,,,,,,,,,,,,,,,,,476986,001,2023-03-01_16h26.30.579,eb_01,2022.2.4,99.88780814302307,
,,,1,0,1,0,45,0,45,0,,,,,,,,,,,,,,,,,,,,,,,,,,,,,,,,,,,,,,,,,,,,,,,,,,,,,,,,,,,476986,001,2023-03-01_16h26.30.579,eb_01,2022.2.4,99.88780814302307,
9,stimuli/9.png,l,1,0,1,0,46,0,46,0,0,0,0,0,,,,,,,,,,,,,,,,,,398.17429342522155,398.17429342522155,398.17429342522155,398.17429342522155,l,1,0.6925450499657018,398.8943095197901,398.8943095197901,398.8943095197901,,,,,,,,,,,,,,,,,,,,,,,,,,,,476986,001,2023-03-01_16h26.30.579,eb_01,2022.2.4,99.88780814302307,
,,,1,0,1,0,46,0,46,0,,,,,,,,,,,,,,,,,,,,,,,,,,,,,,,,,,,,,,,,,,,,,,,,,,,,,,,,,,,476986,001,2023-03-01_16h26.30.579,eb_01,2022.2.4,99.88780814302307,
6,stimuli/6.png,s,1,0,1,0,47,0,47,0,0,0,0,0,,,,,,,,,,,,,,,,,,399.9153142591167,399.9153142591167,399.9153142591167,399.9153142591167,s,1,0.6155347155763593,400.56564437584893,400.56564437584893,400.56564437584893,,,,,,,,,,,,,,,,,,,,,,,,,,,,476986,001,2023-03-01_16h26.30.579,eb_01,2022.2.4,99.88780814302307,
,,,1,0,1,0,47,0,47,0,,,,,,,,,,,,,,,,,,,,,,,,,,,,,,,,,,,,,,,,,,,,,,,,,,,,,,,,,,,476986,001,2023-03-01_16h26.30.579,eb_01,2022.2.4,99.88780814302307,
8,stimuli/8.png,l,1,0,1,0,48,0,48,0,0,0,0,0,,,,,,,,,,,,,,,,,,401.5663368165624,401.5663368165624,401.5663368165624,401.5663368165624,l,1,0.6925498795426392,402.28663513958236,402.28663513958236,402.28663513958236,,,,,,,,,,,,,,,,,,,,,,,,,,,,476986,001,2023-03-01_16h26.30.579,eb_01,2022.2.4,99.88780814302307,
,,,1,0,1,0,48,0,48,0,,,,,,,,,,,,,,,,,,,,,,,,,,,,,,,,,,,,,,,,,,,,,,,,,,,,,,,,,,,476986,001,2023-03-01_16h26.30.579,eb_01,2022.2.4,99.88780814302307,
3,stimuli/3.png,l,1,0,1,0,49,0,49,0,0,0,0,0,,,,,,,,,,,,,,,,,,403.29733355991993,403.29733355991993,403.29733355991993,403.29733355991993,l,1,0.7455647585702536,404.05743454639014,404.05743454639014,404.05743454639014,405.0680502602081,405.0680502602081,405.0680502602081,,,,,,,,,,,,,,,,,,,,,,,,,476986,001,2023-03-01_16h26.30.579,eb_01,2022.2.4,99.88780814302307,
,,,1,0,1,0,49,0,49,0,,,,,,,,,,,,,,,,,,,,,,,,,,,,,,,,,,,,,,,,,,,,,,,,,,,,,,,,,,,476986,001,2023-03-01_16h26.30.579,eb_01,2022.2.4,99.88780814302307,
8,stimuli/8.png,l,1,0,1,0,50,0,50,0,0,0,0,0,,,,,,,,,,,,,,,,,,405.0680502602081,405.0680502602081,405.0680502602081,405.0680502602081,l,1,0.7418909591178817,405.83885147810724,405.83885147810724,405.83885147810724,,,,,,,,,,,,,,,,,,,,,,,,,,,,476986,001,2023-03-01_16h26.30.579,eb_01,2022.2.4,99.88780814302307,
,,,1,0,1,0,50,0,50,0,,,,,,,,,,,,,,,,,,,,,,,,,,,,,,,,,,,,,,,,,,,,,,,,,,,,,,,,,,,476986,001,2023-03-01_16h26.30.579,eb_01,2022.2.4,99.88780814302307,
3,stimuli/3.png,l,1,0,1,0,51,0,51,0,0,0,0,0,,,,,,,,,,,,,,,,,,406.8494928490545,406.8494928490545,406.8494928490545,406.8494928490545,l,1,0.6724648729395994,407.5395782390078,407.5395782390078,407.5395782390078,408.5501936509754,408.5501936509754,408.5501936509754,,,,,,,,,,,,,,,,,,,,,,,,,476986,001,2023-03-01_16h26.30.579,eb_01,2022.2.4,99.88780814302307,
,,,1,0,1,0,51,0,51,0,,,,,,,,,,,,,,,,,,,,,,,,,,,,,,,,,,,,,,,,,,,,,,,,,,,,,,,,,,,476986,001,2023-03-01_16h26.30.579,eb_01,2022.2.4,99.88780814302307,
4,stimuli/4.png,l,1,0,1,0,52,0,52,0,0,0,0,0,,,,,,,,,,,,,,,,,,408.5501936509754,408.5501936509754,408.5501936509754,408.5501936509754,l,1,0.8199001105640491,409.3909917507772,409.3909917507772,409.3909917507772,,,,,,,,,,,,,,,,,,,,,,,,,,,,476986,001,2023-03-01_16h26.30.579,eb_01,2022.2.4,99.88780814302307,
,,,1,0,1,0,52,0,52,0,,,,,,,,,,,,,,,,,,,,,,,,,,,,,,,,,,,,,,,,,,,,,,,,,,,,,,,,,,,476986,001,2023-03-01_16h26.30.579,eb_01,2022.2.4,99.88780814302307,
3,stimuli/3.png,l,1,0,1,0,53,0,53,0,0,0,0,0,,,,,,,,,,,,,,,,,,410.4016207459317,410.4016207459317,410.4016207459317,410.4016207459317,l,1,0.5844186514623289,411.001663789546,411.001663789546,411.001663789546,412.0125807482764,412.0125807482764,412.0125807482764,,,,,,,,,,,,,,,,,,,,,,,,,476986,001,2023-03-01_16h26.30.579,eb_01,2022.2.4,99.88780814302307,
,,,1,0,1,0,53,0,53,0,,,,,,,,,,,,,,,,,,,,,,,,,,,,,,,,,,,,,,,,,,,,,,,,,,,,,,,,,,,476986,001,2023-03-01_16h26.30.579,eb_01,2022.2.4,99.88780814302307,
2,stimuli/2.png,s,1,0,1,0,54,0,54,0,0,0,0,0,,,,,,,,,,,,,,,,,,412.0125807482764,412.0125807482764,412.0125807482764,412.0125807482764,s,1,0.6294737826028722,412.65266219910336,412.65266219910336,412.65266219910336,413.6632625186394,413.6632625186394,413.6632625186394,,,,,,,,,,,,,,,,,,,,,,,,,476986,001,2023-03-01_16h26.30.579,eb_01,2022.2.4,99.88780814302307,
,,,1,0,1,0,54,0,54,0,,,,,,,,,,,,,,,,,,,,,,,,,,,,,,,,,,,,,,,,,,,,,,,,,,,,,,,,,,,476986,001,2023-03-01_16h26.30.579,eb_01,2022.2.4,99.88780814302307,
4,stimuli/4.png,l,1,0,1,0,55,0,55,0,0,0,0,0,,,,,,,,,,,,,,,,,,413.6632625186394,413.6632625186394,413.6632625186394,413.6632625186394,l,1,0.7148208737926325,414.4040533438929,414.4040533438929,414.4040533438929,,,,,,,,,,,,,,,,,,,,,,,,,,,,476986,001,2023-03-01_16h26.30.579,eb_01,2022.2.4,99.88780814302307,
,,,1,0,1,0,55,0,55,0,,,,,,,,,,,,,,,,,,,,,,,,,,,,,,,,,,,,,,,,,,,,,,,,,,,,,,,,,,,476986,001,2023-03-01_16h26.30.579,eb_01,2022.2.4,99.88780814302307,
3,stimuli/3.png,l,1,0,1,0,56,0,56,0,0,0,0,0,,,,,,,,,,,,,,,,,,415.41464883385197,415.41464883385197,415.41464883385197,415.41464883385197,l,1,0.619446371729282,416.0447255124527,416.0447255124527,416.0447255124527,417.0556485081579,417.0556485081579,417.0556485081579,,,,,,,,,,,,,,,,,,,,,,,,,476986,001,2023-03-01_16h26.30.579,eb_01,2022.2.4,99.88780814302307,
,,,1,0,1,0,56,0,56,0,,,,,,,,,,,,,,,,,,,,,,,,,,,,,,,,,,,,,,,,,,,,,,,,,,,,,,,,,,,476986,001,2023-03-01_16h26.30.579,eb_01,2022.2.4,99.88780814302307,
8,stimuli/8.png,l,1,0,1,0,57,0,57,0,0,0,0,0,,,,,,,,,,,,,,,,,,417.0556485081579,417.0556485081579,417.0556485081579,417.0556485081579,l,1,0.8825004940918006,417.96624517532473,417.96624517532473,417.96624517532473,,,,,,,,,,,,,,,,,,,,,,,,,,,,476986,001,2023-03-01_16h26.30.579,eb_01,2022.2.4,99.88780814302307,
,,,1,0,1,0,57,0,57,0,,,,,,,,,,,,,,,,,,,,,,,,,,,,,,,,,,,,,,,,,,,,,,,,,,,,,,,,,,,476986,001,2023-03-01_16h26.30.579,eb_01,2022.2.4,99.88780814302307,
9,stimuli/9.png,l,1,0,1,0,58,0,58,0,0,0,0,0,,,,,,,,,,,,,,,,,,418.98682853398714,418.98682853398714,418.98682853398714,418.98682853398714,l,1,0.7593290552467806,419.7669734756564,419.7669734756564,419.7669734756564,,,,,,,,,,,,,,,,,,,,,,,,,,,,476986,001,2023-03-01_16h26.30.579,eb_01,2022.2.4,99.88780814302307,
,,,1,0,1,0,58,0,58,0,,,,,,,,,,,,,,,,,,,,,,,,,,,,,,,,,,,,,,,,,,,,,,,,,,,,,,,,,,,476986,001,2023-03-01_16h26.30.579,eb_01,2022.2.4,99.88780814302307,
8,stimuli/8.png,l,1,0,1,0,59,0,59,0,0,0,0,0,,,,,,,,,,,,,,,,,,420.77791488412186,420.77791488412186,420.77791488412186,420.77791488412186,l,1,0.7752820562127454,421.57839174455876,421.57839174455876,421.57839174455876,,,,,,,,,,,,,,,,,,,,,,,,,,,,476986,001,2023-03-01_16h26.30.579,eb_01,2022.2.4,99.88780814302307,
,,,1,0,1,0,59,0,59,0,,,,,,,,,,,,,,,,,,,,,,,,,,,,,,,,,,,,,,,,,,,,,,,,,,,,,,,,,,,476986,001,2023-03-01_16h26.30.579,eb_01,2022.2.4,99.88780814302307,
3,stimuli/3.png,l,1,0,1,0,60,0,60,0,0,0,0,0,,,,,,,,,,,,,,,,,,422.58901681568386,422.58901681568386,422.58901681568386,422.58901681568386,l,1,0.6602140451941523,423.25910533882416,423.25910533882416,423.25910533882416,424.2700174679776,424.2700174679776,424.2700174679776,,,,,,,,,,,,,,,,,,,,,,,,,476986,001,2023-03-01_16h26.30.579,eb_01,2022.2.4,99.88780814302307,
,,,1,0,1,0,60,0,60,0,,,,,,,,,,,,,,,,,,,,,,,,,,,,,,,,,,,,,,,,,,,,,,,,,,,,,,,,,,,476986,001,2023-03-01_16h26.30.579,eb_01,2022.2.4,99.88780814302307,
2,stimuli/2.png,s,1,0,1,0,61,0,61,0,0,0,0,0,,,,,,,,,,,,,,,,,,424.2700174679776,424.2700174679776,424.2700174679776,424.2700174679776,s,1,0.6752421820092422,424.9601273076696,424.9601273076696,424.9601273076696,425.9807490011044,425.9807490011044,425.9807490011044,,,,,,,,,,,,,,,,,,,,,,,,,476986,001,2023-03-01_16h26.30.579,eb_01,2022.2.4,99.88780814302307,
,,,1,0,1,0,61,0,61,0,,,,,,,,,,,,,,,,,,,,,,,,,,,,,,,,,,,,,,,,,,,,,,,,,,,,,,,,,,,476986,001,2023-03-01_16h26.30.579,eb_01,2022.2.4,99.88780814302307,
1,stimuli/1.png,s,1,0,1,0,62,0,62,0,0,0,0,0,,,,,,,,,,,,,,,,,,425.9807490011044,425.9807490011044,425.9807490011044,425.9807490011044,s,1,0.5645473536751524,426.581129209615,426.581129209615,426.581129209615,,,,,,,,,,,,,,,,,,,,,,,,,,,,476986,001,2023-03-01_16h26.30.579,eb_01,2022.2.4,99.88780814302307,
,,,1,0,1,0,62,0,62,0,,,,,,,,,,,,,,,,,,,,,,,,,,,,,,,,,,,,,,,,,,,,,,,,,,,,,,,,,,,476986,001,2023-03-01_16h26.30.579,eb_01,2022.2.4,99.88780814302307,
4,stimuli/4.png,l,1,0,1,0,63,0,63,0,0,0,0,0,,,,,,,,,,,,,,,,,,427.581701514584,427.581701514584,427.581701514584,427.581701514584,l,1,0.6756366981462634,428.282465101016,428.282465101016,428.282465101016,,,,,,,,,,,,,,,,,,,,,,,,,,,,476986,001,2023-03-01_16h26.30.579,eb_01,2022.2.4,99.88780814302307,
,,,1,0,1,0,63,0,63,0,,,,,,,,,,,,,,,,,,,,,,,,,,,,,,,,,,,,,,,,,,,,,,,,,,,,,,,,,,,476986,001,2023-03-01_16h26.30.579,eb_01,2022.2.4,99.88780814302307,
3,stimuli/3.png,l,1,0,1,0,64,0,64,0,0,0,0,0,,,,,,,,,,,,,,,,,,429.2930765889505,429.2930765889505,429.2930765889505,429.2930765889505,l,1,0.9562867834647477,430.2633426896318,430.2633426896318,430.2633426896318,431.2742656853334,431.2742656853334,431.2742656853334,,,,,,,,,,,,,,,,,,,,,,,,,476986,001,2023-03-01_16h26.30.579,eb_01,2022.2.4,99.88780814302307,
,,,1,0,1,0,64,0,64,0,,,,,,,,,,,,,,,,,,,,,,,,,,,,,,,,,,,,,,,,,,,,,,,,,,,,,,,,,,,476986,001,2023-03-01_16h26.30.579,eb_01,2022.2.4,99.88780814302307,
2,stimuli/2.png,s,1,0,1,0,65,0,65,0,0,0,0,0,,,,,,,,,,,,,,,,,,431.2742656853334,431.2742656853334,431.2742656853334,431.2742656853334,s,1,0.7271637653648213,432.01440723422274,432.01440723422274,432.01440723422274,433.0353500945821,433.0353500945821,433.0353500945821,,,,,,,,,,,,,,,,,,,,,,,,,476986,001,2023-03-01_16h26.30.579,eb_01,2022.2.4,99.88780814302307,
,,,1,0,1,0,65,0,65,0,,,,,,,,,,,,,,,,,,,,,,,,,,,,,,,,,,,,,,,,,,,,,,,,,,,,,,,,,,,476986,001,2023-03-01_16h26.30.579,eb_01,2022.2.4,99.88780814302307,
1,stimuli/1.png,s,1,0,1,0,66,0,66,0,0,0,0,0,,,,,,,,,,,,,,,,,,433.0353500945821,433.0353500945821,433.0353500945821,433.0353500945821,s,1,0.5340597383728891,433.60569485701126,433.60569485701126,433.60569485701126,,,,,,,,,,,,,,,,,,,,,,,,,,,,476986,001,2023-03-01_16h26.30.579,eb_01,2022.2.4,99.88780814302307,
,,,1,0,1,0,66,0,66,0,,,,,,,,,,,,,,,,,,,,,,,,,,,,,,,,,,,,,,,,,,,,,,,,,,,,,,,,,,,476986,001,2023-03-01_16h26.30.579,eb_01,2022.2.4,99.88780814302307,
4,stimuli/4.png,l,1,0,1,0,67,0,67,0,0,0,0,0,,,,,,,,,,,,,,,,,,434.6059625967282,434.6059625967282,434.6059625967282,434.6059625967282,l,1,0.6914816373064241,435.32673693501056,435.32673693501056,435.32673693501056,,,,,,,,,,,,,,,,,,,,,,,,,,,,476986,001,2023-03-01_16h26.30.579,eb_01,2022.2.4,99.88780814302307,
,,,1,0,1,0,67,0,67,0,,,,,,,,,,,,,,,,,,,,,,,,,,,,,,,,,,,,,,,,,,,,,,,,,,,,,,,,,,,476986,001,2023-03-01_16h26.30.579,eb_01,2022.2.4,99.88780814302307,
3,stimuli/3.png,l,1,0,1,0,68,0,68,0,0,0,0,0,,,,,,,,,,,,,,,,,,436.337344498912,436.337344498912,436.337344498912,436.337344498912,l,1,0.599125319509767,436.94739623878195,436.94739623878195,436.94739623878195,437.9580143673884,437.9580143673884,437.9580143673884,,,,,,,,,,,,,,,,,,,,,,,,,476986,001,2023-03-01_16h26.30.579,eb_01,2022.2.4,99.88780814302307,
,,,1,0,1,0,68,0,68,0,,,,,,,,,,,,,,,,,,,,,,,,,,,,,,,,,,,,,,,,,,,,,,,,,,,,,,,,,,,476986,001,2023-03-01_16h26.30.579,eb_01,2022.2.4,99.88780814302307,
4,stimuli/4.png,l,1,0,1,0,69,0,69,0,0,0,0,0,,,,,,,,,,,,,,,,,,437.9580143673884,437.9580143673884,437.9580143673884,437.9580143673884,l,1,0.7305037202495441,438.7088072482293,438.7088072482293,438.7088072482293,,,,,,,,,,,,,,,,,,,,,,,,,,,,476986,001,2023-03-01_16h26.30.579,eb_01,2022.2.4,99.88780814302307,
,,,1,0,1,0,69,0,69,0,,,,,,,,,,,,,,,,,,,,,,,,,,,,,,,,,,,,,,,,,,,,,,,,,,,,,,,,,,,476986,001,2023-03-01_16h26.30.579,eb_01,2022.2.4,99.88780814302307,
1,stimuli/1.png,s,1,0,1,0,70,0,70,0,0,0,0,0,,,,,,,,,,,,,,,,,,439.72938879580033,439.72938879580033,439.72938879580033,439.72938879580033,s,1,0.5191586798173375,440.2797378988107,440.2797378988107,440.2797378988107,,,,,,,,,,,,,,,,,,,,,,,,,,,,476986,001,2023-03-01_16h26.30.579,eb_01,2022.2.4,99.88780814302307,
,,,1,0,1,0,70,0,70,0,,,,,,,,,,,,,,,,,,,,,,,,,,,,,,,,,,,,,,,,,,,,,,,,,,,,,,,,,,,476986,001,2023-03-01_16h26.30.579,eb_01,2022.2.4,99.88780814302307,
2,stimuli/2.png,s,1,0,1,0,71,0,71,0,0,0,0,0,,,,,,,,,,,,,,,,,,441.28035155703765,441.28035155703765,441.28035155703765,441.28035155703765,s,1,0.5761854287375172,441.870375641538,441.870375641538,441.870375641538,442.8910039756447,442.8910039756447,442.8910039756447,,,,,,,,,,,,,,,,,,,,,,,,,476986,001,2023-03-01_16h26.30.579,eb_01,2022.2.4,99.88780814302307,
,,,1,0,1,0,71,0,71,0,,,,,,,,,,,,,,,,,,,,,,,,,,,,,,,,,,,,,,,,,,,,,,,,,,,,,,,,,,,476986,001,2023-03-01_16h26.30.579,eb_01,2022.2.4,99.88780814302307,
1,stimuli/1.png,s,1,0,1,0,72,0,72,0,0,0,0,0,,,,,,,,,,,,,,,,,,442.8910039756447,442.8910039756447,442.8910039756447,442.8910039756447,s,1,1.0455986561682948,443.9719706397882,443.9719706397882,443.9719706397882,,,,,,,,,,,,,,,,,,,,,,,,,,,,476986,001,2023-03-01_16h26.30.579,eb_01,2022.2.4,99.88780814302307,
,,,1,0,1,0,72,0,72,0,,,,,,,,,,,,,,,,,,,,,,,,,,,,,,,,,,,,,,,,,,,,,,,,,,,,,,,,,,,476986,001,2023-03-01_16h26.30.579,eb_01,2022.2.4,99.88780814302307,
4,stimuli/4.png,l,1,0,1,0,73,0,73,0,0,0,0,0,,,,,,,,,,,,,,,,,,444.9722607163021,444.9722607163021,444.9722607163021,444.9722607163021,l,1,0.4443584809632739,445.4428671512942,445.4428671512942,445.4428671512942,,,,,,,,,,,,,,,,,,,,,,,,,,,,476986,001,2023-03-01_16h26.30.579,eb_01,2022.2.4,99.88780814302307,
,,,1,0,1,0,73,0,73,0,,,,,,,,,,,,,,,,,,,,,,,,,,,,,,,,,,,,,,,,,,,,,,,,,,,,,,,,,,,476986,001,2023-03-01_16h26.30.579,eb_01,2022.2.4,99.88780814302307,
2,stimuli/2.png,s,1,0,1,0,74,0,74,0,0,0,0,0,,,,,,,,,,,,,,,,,,446.4534825632618,446.4534825632618,446.4534825632618,446.4534825632618,s,1,0.7551647518084792,447.2236387306766,447.2236387306766,447.2236387306766,448.2345415025229,448.2345415025229,448.2345415025229,,,,,,,,,,,,,,,,,,,,,,,,,476986,001,2023-03-01_16h26.30.579,eb_01,2022.2.4,99.88780814302307,
,,,1,0,1,0,74,0,74,0,,,,,,,,,,,,,,,,,,,,,,,,,,,,,,,,,,,,,,,,,,,,,,,,,,,,,,,,,,,476986,001,2023-03-01_16h26.30.579,eb_01,2022.2.4,99.88780814302307,
3,stimuli/3.png,l,1,0,1,0,75,0,75,0,0,0,0,0,,,,,,,,,,,,,,,,,,448.2345415025229,448.2345415025229,448.2345415025229,448.2345415025229,l,1,0.6061586940086272,448.8546143144449,448.8546143144449,448.8546143144449,449.86524210220523,449.86524210220523,449.86524210220523,,,,,,,,,,,,,,,,,,,,,,,,,476986,001,2023-03-01_16h26.30.579,eb_01,2022.2.4,99.88780814302307,
,,,1,0,1,0,75,0,75,0,,,,,,,,,,,,,,,,,,,,,,,,,,,,,,,,,,,,,,,,,,,,,,,,,,,,,,,,,,,476986,001,2023-03-01_16h26.30.579,eb_01,2022.2.4,99.88780814302307,
4,stimuli/4.png,l,1,0,1,0,76,0,76,0,0,0,0,0,,,,,,,,,,,,,,,,,,449.86524210220523,449.86524210220523,449.86524210220523,449.86524210220523,l,1,0.8234498502351926,450.71606097220865,450.71606097220865,450.71606097220865,,,,,,,,,,,,,,,,,,,,,,,,,,,,476986,001,2023-03-01_16h26.30.579,eb_01,2022.2.4,99.88780814302307,
,,,1,0,1,0,76,0,76,0,,,,,,,,,,,,,,,,,,,,,,,,,,,,,,,,,,,,,,,,,,,,,,,,,,,,,,,,,,,476986,001,2023-03-01_16h26.30.579,eb_01,2022.2.4,99.88780814302307,
1,stimuli/1.png,s,1,0,1,0,77,0,77,0,0,0,0,0,,,,,,,,,,,,,,,,,,451.73670590799156,451.73670590799156,451.73670590799156,451.73670590799156,s,1,0.6550237583178387,452.42708831697746,452.42708831697746,452.42708831697746,,,,,,,,,,,,,,,,,,,,,,,,,,,,476986,001,2023-03-01_16h26.30.579,eb_01,2022.2.4,99.88780814302307,
,,,1,0,1,0,77,0,77,0,,,,,,,,,,,,,,,,,,,,,,,,,,,,,,,,,,,,,,,,,,,,,,,,,,,,,,,,,,,476986,001,2023-03-01_16h26.30.579,eb_01,2022.2.4,99.88780814302307,
4,stimuli/4.png,l,1,0,1,0,78,0,78,0,0,0,0,0,,,,,,,,,,,,,,,,,,453.4377477988419,453.4377477988419,453.4377477988419,453.4377477988419,l,1,0.6899986550779431,454.14814126152487,454.14814126152487,454.14814126152487,,,,,,,,,,,,,,,,,,,,,,,,,,,,476986,001,2023-03-01_16h26.30.579,eb_01,2022.2.4,99.88780814302307,
,,,1,0,1,0,78,0,78,0,,,,,,,,,,,,,,,,,,,,,,,,,,,,,,,,,,,,,,,,,,,,,,,,,,,,,,,,,,,476986,001,2023-03-01_16h26.30.579,eb_01,2022.2.4,99.88780814302307,
1,stimuli/1.png,s,1,0,1,0,79,0,79,0,0,0,0,0,,,,,,,,,,,,,,,,,,455.1687653697518,455.1687653697518,455.1687653697518,455.1687653697518,s,1,0.5670526971516665,455.7691476912041,455.7691476912041,455.7691476912041,,,,,,,,,,,,,,,,,,,,,,,,,,,,476986,001,2023-03-01_16h26.30.579,eb_01,2022.2.4,99.88780814302307,
,,,1,0,1,0,79,0,79,0,,,,,,,,,,,,,,,,,,,,,,,,,,,,,,,,,,,,,,,,,,,,,,,,,,,,,,,,,,,476986,001,2023-03-01_16h26.30.579,eb_01,2022.2.4,99.88780814302307,
4,stimuli/4.png,l,1,0,1,0,80,0,80,0,0,0,0,0,,,,,,,,,,,,,,,,,,456.76939882924853,456.76939882924853,456.76939882924853,456.76939882924853,l,1,0.6384483455185546,457.43015690996253,457.43015690996253,457.43015690996253,,,,,,,,,,,,,,,,,,,,,,,,,,,,476986,001,2023-03-01_16h26.30.579,eb_01,2022.2.4,99.88780814302307,
,,,1,0,1,0,80,0,80,0,,,,,,,,,,,,,,,,,,,,,,,,,,,,,,,,,,,,,,,,,,,,,,,,,,,,,,,,,,,476986,001,2023-03-01_16h26.30.579,eb_01,2022.2.4,99.88780814302307,
3,stimuli/3.png,l,1,0,1,0,81,0,81,0,0,0,0,0,,,,,,,,,,,,,,,,,,458.44075300361874,458.44075300361874,458.44075300361874,458.44075300361874,l,1,0.5670943522563903,459.0208067266358,459.0208067266358,459.0208067266358,460.0317107058727,460.0317107058727,460.0317107058727,,,,,,,,,,,,,,,,,,,,,,,,,476986,001,2023-03-01_16h26.30.579,eb_01,2022.2.4,99.88780814302307,
,,,1,0,1,0,81,0,81,0,,,,,,,,,,,,,,,,,,,,,,,,,,,,,,,,,,,,,,,,,,,,,,,,,,,,,,,,,,,476986,001,2023-03-01_16h26.30.579,eb_01,2022.2.4,99.88780814302307,
2,stimuli/2.png,s,1,0,1,0,82,0,82,0,0,0,0,0,,,,,,,,,,,,,,,,,,460.0317107058727,460.0317107058727,460.0317107058727,460.0317107058727,s,1,0.584137932251906,460.6317474106654,460.6317474106654,460.6317474106654,461.642373085484,461.642373085484,461.642373085484,,,,,,,,,,,,,,,,,,,,,,,,,476986,001,2023-03-01_16h26.30.579,eb_01,2022.2.4,99.88780814302307,
,,,1,0,1,0,82,0,82,0,,,,,,,,,,,,,,,,,,,,,,,,,,,,,,,,,,,,,,,,,,,,,,,,,,,,,,,,,,,476986,001,2023-03-01_16h26.30.579,eb_01,2022.2.4,99.88780814302307,
4,stimuli/4.png,l,1,0,1,0,83,0,83,0,0,0,0,0,,,,,,,,,,,,,,,,,,461.642373085484,461.642373085484,461.642373085484,461.642373085484,l,1,0.6295359634168562,462.2930832296224,462.2930832296224,462.2930832296224,,,,,,,,,,,,,,,,,,,,,,,,,,,,476986,001,2023-03-01_16h26.30.579,eb_01,2022.2.4,99.88780814302307,
,,,1,0,1,0,83,0,83,0,,,,,,,,,,,,,,,,,,,,,,,,,,,,,,,,,,,,,,,,,,,,,,,,,,,,,,,,,,,476986,001,2023-03-01_16h26.30.579,eb_01,2022.2.4,99.88780814302307,
2,stimuli/2.png,s,1,0,1,0,84,0,84,0,0,0,0,0,,,,,,,,,,,,,,,,,,463.30369471755694,463.30369471755694,463.30369471755694,463.30369471755694,s,1,0.5442664473193872,463.86369633546565,463.86369633546565,463.86369633546565,464.8743319712885,464.8743319712885,464.8743319712885,,,,,,,,,,,,,,,,,,,,,,,,,476986,001,2023-03-01_16h26.30.579,eb_01,2022.2.4,99.88780814302307,
,,,1,0,1,0,84,0,84,0,,,,,,,,,,,,,,,,,,,,,,,,,,,,,,,,,,,,,,,,,,,,,,,,,,,,,,,,,,,476986,001,2023-03-01_16h26.30.579,eb_01,2022.2.4,99.88780814302307,
4,stimuli/4.png,l,1,0,1,0,85,0,85,0,0,0,0,0,,,,,,,,,,,,,,,,,,464.8743319712885,464.8743319712885,464.8743319712885,464.8743319712885,l,1,0.6536331417664769,465.5550609598358,465.5550609598358,465.5550609598358,,,,,,,,,,,,,,,,,,,,,,,,,,,,476986,001,2023-03-01_16h26.30.579,eb_01,2022.2.4,99.88780814302307,
,,,1,0,1,0,85,0,85,0,,,,,,,,,,,,,,,,,,,,,,,,,,,,,,,,,,,,,,,,,,,,,,,,,,,,,,,,,,,476986,001,2023-03-01_16h26.30.579,eb_01,2022.2.4,99.88780814302307,
3,stimuli/3.png,l,1,0,1,0,86,0,86,0,0,0,0,0,,,,,,,,,,,,,,,,,,466.5653712028543,466.5653712028543,466.5653712028543,466.5653712028543,l,1,0.8346318320436694,467.41584898393194,467.41584898393194,467.41584898393194,,,,,,,,,,,,,,,,,,,,,,,,,,,,476986,001,2023-03-01_16h26.30.579,eb_01,2022.2.4,99.88780814302307,
,,,1,0,1,0,86,0,86,0,,,,,,,,,,,,,,,,,,,,,,,,,,,,,,,,,,,,,,,,,,,,,,,,,,,,,,,,,,,476986,001,2023-03-01_16h26.30.579,eb_01,2022.2.4,99.88780814302307,
4,stimuli/4.png,l,1,0,1,0,87,0,87,0,0,0,0,0,,,,,,,,,,,,,,,,,,468.4264873363936,468.4264873363936,468.4264873363936,468.4264873363936,l,1,0.74857630216502,469.1972408622096,469.1972408622096,469.1972408622096,,,,,,,,,,,,,,,,,,,,,,,,,,,,476986,001,2023-03-01_16h26.30.579,eb_01,2022.2.4,99.88780814302307,
,,,1,0,1,0,87,0,87,0,,,,,,,,,,,,,,,,,,,,,,,,,,,,,,,,,,,,,,,,,,,,,,,,,,,,,,,,,,,476986,001,2023-03-01_16h26.30.579,eb_01,2022.2.4,99.88780814302307,
1,stimuli/1.png,s,1,0,1,0,88,0,88,0,0,0,0,0,,,,,,,,,,,,,,,,,,470.2178767425321,470.2178767425321,470.2178767425321,470.2178767425321,s,1,0.7332161318736325,470.9883552842657,470.9883552842657,470.9883552842657,,,,,,,,,,,,,,,,,,,,,,,,,,,,476986,001,2023-03-01_16h26.30.579,eb_01,2022.2.4,99.88780814302307,
,,,1,0,1,0,88,0,88,0,,,,,,,,,,,,,,,,,,,,,,,,,,,,,,,,,,,,,,,,,,,,,,,,,,,,,,,,,,,476986,001,2023-03-01_16h26.30.579,eb_01,2022.2.4,99.88780814302307,
2,stimuli/2.png,s,1,0,1,0,89,0,89,0,0,0,0,0,,,,,,,,,,,,,,,,,,471.9889677350984,471.9889677350984,471.9889677350984,471.9889677350984,s,1,0.6501356219050649,472.64903609173416,472.64903609173416,472.64903609173416,473.65995667264724,473.65995667264724,473.65995667264724,,,,,,,,,,,,,,,,,,,,,,,,,476986,001,2023-03-01_16h26.30.579,eb_01,2022.2.4,99.88780814302307,
,,,1,0,1,0,89,0,89,0,,,,,,,,,,,,,,,,,,,,,,,,,,,,,,,,,,,,,,,,,,,,,,,,,,,,,,,,,,,476986,001,2023-03-01_16h26.30.579,eb_01,2022.2.4,99.88780814302307,
3,stimuli/3.png,l,1,0,1,0,90,0,90,0,0,0,0,0,,,,,,,,,,,,,,,,,,473.65995667264724,473.65995667264724,473.65995667264724,473.65995667264724,l,1,0.8512175076975836,474.5301853139172,474.5301853139172,474.5301853139172,475.54112974087184,475.54112974087184,475.54112974087184,,,,,,,,,,,,,,,,,,,,,,,,,476986,001,2023-03-01_16h26.30.579,eb_01,2022.2.4,99.88780814302307,
,,,1,0,1,0,90,0,90,0,,,,,,,,,,,,,,,,,,,,,,,,,,,,,,,,,,,,,,,,,,,,,,,,,,,,,,,,,,,476986,001,2023-03-01_16h26.30.579,eb_01,2022.2.4,99.88780814302307,
2,stimuli/2.png,s,1,0,1,0,91,0,91,0,0,0,0,0,,,,,,,,,,,,,,,,,,475.54112974087184,475.54112974087184,475.54112974087184,475.54112974087184,s,1,0.6339897396792367,476.1912147565308,476.1912147565308,476.1912147565308,477.2021184339246,477.2021184339246,477.2021184339246,,,,,,,,,,,,,,,,,,,,,,,,,476986,001,2023-03-01_16h26.30.579,eb_01,2022.2.4,99.88780814302307,
,,,1,0,1,0,91,0,91,0,,,,,,,,,,,,,,,,,,,,,,,,,,,,,,,,,,,,,,,,,,,,,,,,,,,,,,,,,,,476986,001,2023-03-01_16h26.30.579,eb_01,2022.2.4,99.88780814302307,
3,stimuli/3.png,l,1,0,1,0,92,0,92,0,0,0,0,0,,,,,,,,,,,,,,,,,,477.2021184339246,477.2021184339246,477.2021184339246,477.2021184339246,l,1,0.6291049235987884,477.8421835849258,477.8421835849258,477.8421835849258,478.85277937673527,478.85277937673527,478.85277937673527,,,,,,,,,,,,,,,,,,,,,,,,,476986,001,2023-03-01_16h26.30.579,eb_01,2022.2.4,99.88780814302307,
,,,1,0,1,0,92,0,92,0,,,,,,,,,,,,,,,,,,,,,,,,,,,,,,,,,,,,,,,,,,,,,,,,,,,,,,,,,,,476986,001,2023-03-01_16h26.30.579,eb_01,2022.2.4,99.88780814302307,
8,stimuli/8.png,l,1,0,1,0,93,0,93,0,0,0,0,0,,,,,,,,,,,,,,,,,,478.85277937673527,478.85277937673527,478.85277937673527,478.85277937673527,l,1,0.922445630087168,479.80370996091006,479.80370996091006,479.80370996091006,,,,,,,,,,,,,,,,,,,,,,,,,,,,476986,001,2023-03-01_16h26.30.579,eb_01,2022.2.4,99.88780814302307,
,,,1,0,1,0,93,0,93,0,,,,,,,,,,,,,,,,,,,,,,,,,,,,,,,,,,,,,,,,,,,,,,,,,,,,,,,,,,,476986,001,2023-03-01_16h26.30.579,eb_01,2022.2.4,99.88780814302307,
6,stimuli/6.png,s,1,0,1,0,94,0,94,0,0,0,0,0,,,,,,,,,,,,,,,,,,480.82432018410327,480.82432018410327,480.82432018410327,480.82432018410327,s,1,0.670944461482577,481.53473507803574,481.53473507803574,481.53473507803574,,,,,,,,,,,,,,,,,,,,,,,,,,,,476986,001,2023-03-01_16h26.30.579,eb_01,2022.2.4,99.88780814302307,
,,,1,0,1,0,94,0,94,0,,,,,,,,,,,,,,,,,,,,,,,,,,,,,,,,,,,,,,,,,,,,,,,,,,,,,,,,,,,476986,001,2023-03-01_16h26.30.579,eb_01,2022.2.4,99.88780814302307,
8,stimuli/8.png,l,1,0,1,0,95,0,95,0,0,0,0,0,,,,,,,,,,,,,,,,,,482.53534028450304,482.53534028450304,482.53534028450304,482.53534028450304,l,1,0.559004507624195,483.1157357001466,483.1157357001466,483.1157357001466,,,,,,,,,,,,,,,,,,,,,,,,,,,,476986,001,2023-03-01_16h26.30.579,eb_01,2022.2.4,99.88780814302307,
,,,1,0,1,0,95,0,95,0,,,,,,,,,,,,,,,,,,,,,,,,,,,,,,,,,,,,,,,,,,,,,,,,,,,,,,,,,,,476986,001,2023-03-01_16h26.30.579,eb_01,2022.2.4,99.88780814302307,
6,stimuli/6.png,s,1,0,1,0,96,0,96,0,0,0,0,0,,,,,,,,,,,,,,,,,,484.1363220772946,484.1363220772946,484.1363220772946,484.1363220772946,s,1,0.6539494791140896,484.8267340674465,484.8267340674465,484.8267340674465,,,,,,,,,,,,,,,,,,,,,,,,,,,,476986,001,2023-03-01_16h26.30.579,eb_01,2022.2.4,99.88780814302307,
,,,1,0,1,0,96,0,96,0,,,,,,,,,,,,,,,,,,,,,,,,,,,,,,,,,,,,,,,,,,,,,,,,,,,,,,,,,,,476986,001,2023-03-01_16h26.30.579,eb_01,2022.2.4,99.88780814302307,
8,stimuli/8.png,l,1,0,1,0,97,0,97,0,0,0,0,0,,,,,,,,,,,,,,,,,,485.8273341424865,485.8273341424865,485.8273341424865,485.8273341424865,l,1,0.723080055500759,486.57781491186324,486.57781491186324,486.57781491186324,,,,,,,,,,,,,,,,,,,,,,,,,,,,476986,001,2023-03-01_16h26.30.579,eb_01,2022.2.4,99.88780814302307,
,,,1,0,1,0,97,0,97,0,,,,,,,,,,,,,,,,,,,,,,,,,,,,,,,,,,,,,,,,,,,,,,,,,,,,,,,,,,,476986,001,2023-03-01_16h26.30.579,eb_01,2022.2.4,99.88780814302307,
6,stimuli/6.png,s,1,0,1,0,98,0,98,0,0,0,0,0,,,,,,,,,,,,,,,,,,487.5984215128701,487.5984215128701,487.5984215128701,487.5984215128701,s,1,0.6079438266933721,488.23880390676277,488.23880390676277,488.23880390676277,,,,,,,,,,,,,,,,,,,,,,,,,,,,476986,001,2023-03-01_16h26.30.579,eb_01,2022.2.4,99.88780814302307,
,,,1,0,1,0,98,0,98,0,,,,,,,,,,,,,,,,,,,,,,,,,,,,,,,,,,,,,,,,,,,,,,,,,,,,,,,,,,,476986,001,2023-03-01_16h26.30.579,eb_01,2022.2.4,99.88780814302307,
9,stimuli/9.png,l,1,0,1,0,99,0,99,0,0,0,0,0,,,,,,,,,,,,,,,,,,489.24942777049364,489.24942777049364,489.24942777049364,489.24942777049364,l,1,0.748985005182476,490.01957971202864,490.01957971202864,490.01957971202864,,,,,,,,,,,,,,,,,,,,,,,,,,,,476986,001,2023-03-01_16h26.30.579,eb_01,2022.2.4,99.88780814302307,
,,,1,0,1,0,99,0,99,0,,,,,,,,,,,,,,,,,,,,,,,,,,,,,,,,,,,,,,,,,,,,,,,,,,,,,,,,,,,476986,001,2023-03-01_16h26.30.579,eb_01,2022.2.4,99.88780814302307,
,,,1,0,1,0,,,,,,,,,,,,,,,,,,,,,,,,,,,,,,,,,,,,,,,491.0204858615616,491.0204858615616,return,23.144330922183144,,,,,,,,,,,,,,,,,,,,,476986,001,2023-03-01_16h26.30.579,eb_01,2022.2.4,99.88780814302307,
8,stimuli/8.png,l,2,0,2,0,0,0,0,0,0,0,0,0,,,,,,,,,,,,,,,,,,514.1942193576106,514.1942193576106,514.1942193576106,514.1942193576106,l,1,1.3626474581469665,515.585383765796,515.585383765796,515.585383765796,,,,,,,,,,,,,,,,,,,,,,,,,,,,476986,001,2023-03-01_16h26.30.579,eb_01,2022.2.4,99.88780814302307,
,,,2,0,2,0,0,0,0,0,,,,,,,,,,,,,,,,,,,,,,,,,,,,,,,,,,,,,,,,,,,,,,,,,,,,,,,,,,,476986,001,2023-03-01_16h26.30.579,eb_01,2022.2.4,99.88780814302307,
3,stimuli/3.png,l,2,0,2,0,1,0,1,0,0,0,0,0,,,,,,,,,,,,,,,,,,516.5959792557551,516.5959792557551,516.5959792557551,516.5959792557551,l,1,0.5609254721857724,517.176016377096,517.176016377096,517.176016377096,518.1866381278851,518.1866381278851,518.1866381278851,,,,,,,,,,,,,,,,,,,,,,,,,476986,001,2023-03-01_16h26.30.579,eb_01,2022.2.4,99.88780814302307,
,,,2,0,2,0,1,0,1,0,,,,,,,,,,,,,,,,,,,,,,,,,,,,,,,,,,,,,,,,,,,,,,,,,,,,,,,,,,,476986,001,2023-03-01_16h26.30.579,eb_01,2022.2.4,99.88780814302307,
4,stimuli/4.png,l,2,0,2,0,2,0,2,0,0,0,0,0,,,,,,,,,,,,,,,,,,518.1866381278851,518.1866381278851,518.1866381278851,518.1866381278851,l,1,0.9062469243544911,519.1175160032581,519.1175160032581,519.1175160032581,,,,,,,,,,,,,,,,,,,,,,,,,,,,476986,001,2023-03-01_16h26.30.579,eb_01,2022.2.4,99.88780814302307,
,,,2,0,2,0,2,0,2,0,,,,,,,,,,,,,,,,,,,,,,,,,,,,,,,,,,,,,,,,,,,,,,,,,,,,,,,,,,,476986,001,2023-03-01_16h26.30.579,eb_01,2022.2.4,99.88780814302307,
2,stimuli/2.png,s,2,0,2,0,3,0,3,0,0,0,0,0,,,,,,,,,,,,,,,,,,520.1281335281637,520.1281335281637,520.1281335281637,520.1281335281637,s,1,0.8127930850059784,520.9583328176741,520.9583328176741,520.9583328176741,521.9692458523714,521.9692458523714,521.9692458523714,,,,,,,,,,,,,,,,,,,,,,,,,476986,001,2023-03-01_16h26.30.579,eb_01,2022.2.4,99.88780814302307,
,,,2,0,2,0,3,0,3,0,,,,,,,,,,,,,,,,,,,,,,,,,,,,,,,,,,,,,,,,,,,,,,,,,,,,,,,,,,,476986,001,2023-03-01_16h26.30.579,eb_01,2022.2.4,99.88780814302307,
3,stimuli/3.png,l,2,0,2,0,4,0,4,0,0,0,0,0,,,,,,,,,,,,,,,,,,521.9692458523714,521.9692458523714,521.9692458523714,521.9692458523714,l,1,0.5237153864582069,522.5092457738901,522.5092457738901,522.5092457738901,523.5201889934506,523.5201889934506,523.5201889934506,,,,,,,,,,,,,,,,,,,,,,,,,476986,001,2023-03-01_16h26.30.579,eb_01,2022.2.4,99.88780814302307,
,,,2,0,2,0,4,0,4,0,,,,,,,,,,,,,,,,,,,,,,,,,,,,,,,,,,,,,,,,,,,,,,,,,,,,,,,,,,,476986,001,2023-03-01_16h26.30.579,eb_01,2022.2.4,99.88780814302307,
2,stimuli/2.png,s,2,0,2,0,5,0,5,0,0,0,0,0,,,,,,,,,,,,,,,,,,523.5201889934506,523.5201889934506,523.5201889934506,523.5201889934506,s,1,0.6608138183837582,524.2002605557209,524.2002605557209,524.2002605557209,525.211245430386,525.211245430386,525.211245430386,,,,,,,,,,,,,,,,,,,,,,,,,476986,001,2023-03-01_16h26.30.579,eb_01,2022.2.4,99.88780814302307,
