index,stimulus,correct_answer,block.thisRepN,block.thisTrialN,block.thisN,block.thisIndex,trial.thisRepN,trial.thisTrialN,trial.thisN,trial.thisIndex,display_row.thisRepN,display_row.thisTrialN,display_row.thisN,display_row.thisIndex,pair_questions.thisRepN,pair_questions.thisTrialN,pair_questions.thisN,pair_questions.thisIndex,welcome_text.started,instructions_0_keypress.started,instructions_0_keypress.keys,instructions_0_keypress.rt,instructions_1_keypress.started,instructions_1_text.started,instructions_1_keypress.keys,instructions_1_keypress.rt,instructions_2_keypress.started,instructions_2_text.started,instructions_2_keypress.keys,instructions_2_keypress.rt,text_countdown.started,image.started,size_question.started,size_resp.started,keypress_options.started,size_resp.keys,size_resp.corr,size_resp.rt,fb_image.started,fb.started,fb_size_question.started,fb_image.stopped,fb.stopped,fb_size_question.stopped,block_break_text.started,block_break_keypress.started,block_break_keypress.keys,block_break_keypress.rt,seq_reveal.started,seq_reveal_adv.started,seq_reveal_adv.keys,seq_reveal_adv.rt,instruction_2afc_text.started,instruction_2afc_keypress.started,instruction_2afc_keypress.keys,instruction_2afc_keypress.rt,dist_2afc_test.started,dist_2afc_resp.started,text.started,stim_00.started,stim_01.started,stim_10.started,stim_11.started,dist_2afc_resp.keys,dist_2afc_resp.rt,graph.started,debrief_text.started,debriefing_title.started,participant,session,date,expName,psychopyVersion,frameRate,
,,,,,,,,,,,,,,,,,,,38.02692915235093,38.02692915235093,return,63.7250849240736,,,,,,,,,,,,,,,,,,,,,,,,,,,,,,,,,,,,,,,,,,,,,,,573883,001,2023-03-01_16h13.07.348,eb_01,2022.2.4,120.00829556849008,
,,,,,,,,,,,,,,,,,,,,,,,101.76673646577183,101.76673646577183,return,9.352642660775018,,,,,,,,,,,,,,,,,,,,,,,,,,,,,,,,,,,,,,,,,,,573883,001,2023-03-01_16h13.07.348,eb_01,2022.2.4,120.00829556849008,
,,,,,,,,,,,,,,,,,,,,,,,,,,,111.13434692459123,111.13434692459123,space,13.960689047544292,,,,,,,,,,,,,,,,,,,,,,,,,,,,,,,,,,,,,,,573883,001,2023-03-01_16h13.07.348,eb_01,2022.2.4,120.00829556849008,
1,stimuli/1.png,s,0,0,0,0,0,0,0,0,0,0,0,0,,,,,,,,,,,,,,,,,125.11914879102551,130.13631472201814,130.13631472201814,130.13631472201814,130.13631472201814,l,0,2.126934877029271,132.30321286171238,132.30321286171238,132.30321286171238,,,,,,,,,,,,,,,,,,,,,,,,,,,,573883,001,2023-03-01_16h13.07.348,eb_01,2022.2.4,120.00829556849008,
,,,0,0,0,0,0,0,0,0,,,,,,,,,,,,,,,,,,,,,,,,,,,,,,,,,,,,,,,,,,,,,,,,,,,,,,,,,,,573883,001,2023-03-01_16h13.07.348,eb_01,2022.2.4,120.00829556849008,
2,stimuli/2.png,s,0,0,0,0,1,0,1,0,0,0,0,0,,,,,,,,,,,,,,,,,,133.29501264926512,133.29501264926512,133.29501264926512,133.29501264926512,l,0,1.3283411624506698,134.63679059755668,134.63679059755668,134.63679059755668,135.64522716303327,135.64522716303327,135.64522716303327,,,,,,,,,,,,,,,,,,,,,,,,,573883,001,2023-03-01_16h13.07.348,eb_01,2022.2.4,120.00829556849008,
,,,0,0,0,0,1,0,1,0,,,,,,,,,,,,,,,,,,,,,,,,,,,,,,,,,,,,,,,,,,,,,,,,,,,,,,,,,,,573883,001,2023-03-01_16h13.07.348,eb_01,2022.2.4,120.00829556849008,
3,stimuli/3.png,l,0,0,0,0,2,0,2,0,0,0,0,0,,,,,,,,,,,,,,,,,,135.64522716303327,135.64522716303327,135.64522716303327,135.64522716303327,l,1,0.6822208083503938,136.34530905648717,136.34530905648717,136.34530905648717,,,,,,,,,,,,,,,,,,,,,,,,,,,,573883,001,2023-03-01_16h13.07.348,eb_01,2022.2.4,120.00829556849008,
,,,0,0,0,0,2,0,2,0,,,,,,,,,,,,,,,,,,,,,,,,,,,,,,,,,,,,,,,,,,,,,,,,,,,,,,,,,,,573883,001,2023-03-01_16h13.07.348,eb_01,2022.2.4,120.00829556849008,
4,stimuli/4.png,l,0,0,0,0,3,0,3,0,0,0,0,0,,,,,,,,,,,,,,,,,,137.36208378247102,137.36208378247102,137.36208378247102,137.36208378247102,l,1,0.8364283299306408,138.22050650785968,138.22050650785968,138.22050650785968,,,,,,,,,,,,,,,,,,,,,,,,,,,,573883,001,2023-03-01_16h13.07.348,eb_01,2022.2.4,120.00829556849008,
,,,0,0,0,0,3,0,3,0,,,,,,,,,,,,,,,,,,,,,,,,,,,,,,,,,,,,,,,,,,,,,,,,,,,,,,,,,,,573883,001,2023-03-01_16h13.07.348,eb_01,2022.2.4,120.00829556849008,
2,stimuli/2.png,s,0,0,0,0,4,0,4,0,0,0,0,0,,,,,,,,,,,,,,,,,,139.2289554494164,139.2289554494164,139.2289554494164,139.2289554494164,s,1,0.6495953367375478,139.8873284289839,139.8873284289839,139.8873284289839,140.89576952229254,140.89576952229254,140.89576952229254,,,,,,,,,,,,,,,,,,,,,,,,,573883,001,2023-03-01_16h13.07.348,eb_01,2022.2.4,120.00829556849008,
,,,0,0,0,0,4,0,4,0,,,,,,,,,,,,,,,,,,,,,,,,,,,,,,,,,,,,,,,,,,,,,,,,,,,,,,,,,,,573883,001,2023-03-01_16h13.07.348,eb_01,2022.2.4,120.00829556849008,
3,stimuli/3.png,l,0,0,0,0,5,0,5,0,0,0,0,0,,,,,,,,,,,,,,,,,,140.89576952229254,140.89576952229254,140.89576952229254,140.89576952229254,l,1,0.5668769086587417,141.47918206760005,141.47918206760005,141.47918206760005,,,,,,,,,,,,,,,,,,,,,,,,,,,,573883,001,2023-03-01_16h13.07.348,eb_01,2022.2.4,120.00829556849008,
,,,0,0,0,0,5,0,5,0,,,,,,,,,,,,,,,,,,,,,,,,,,,,,,,,,,,,,,,,,,,,,,,,,,,,,,,,,,,573883,001,2023-03-01_16h13.07.348,eb_01,2022.2.4,120.00829556849008,
2,stimuli/2.png,s,0,0,0,0,6,0,6,0,0,0,0,0,,,,,,,,,,,,,,,,,,142.48762406647438,142.48762406647438,142.48762406647438,142.48762406647438,s,1,0.6710657302755862,143.1710085090126,143.1710085090126,143.1710085090126,144.1961238103504,144.1961238103504,144.1961238103504,,,,,,,,,,,,,,,,,,,,,,,,,573883,001,2023-03-01_16h13.07.348,eb_01,2022.2.4,120.00829556849008,
,,,0,0,0,0,6,0,6,0,,,,,,,,,,,,,,,,,,,,,,,,,,,,,,,,,,,,,,,,,,,,,,,,,,,,,,,,,,,573883,001,2023-03-01_16h13.07.348,eb_01,2022.2.4,120.00829556849008,
1,stimuli/1.png,s,0,0,0,0,7,0,7,0,0,0,0,0,,,,,,,,,,,,,,,,,,144.1961238103504,144.1961238103504,144.1961238103504,144.1961238103504,s,1,0.5946268067054916,144.8211809742752,144.8211809742752,144.8211809742752,,,,,,,,,,,,,,,,,,,,,,,,,,,,573883,001,2023-03-01_16h13.07.348,eb_01,2022.2.4,120.00829556849008,
,,,0,0,0,0,7,0,7,0,,,,,,,,,,,,,,,,,,,,,,,,,,,,,,,,,,,,,,,,,,,,,,,,,,,,,,,,,,,573883,001,2023-03-01_16h13.07.348,eb_01,2022.2.4,120.00829556849008,
2,stimuli/2.png,s,0,0,0,0,8,0,8,0,0,0,0,0,,,,,,,,,,,,,,,,,,145.82130352770037,145.82130352770037,145.82130352770037,145.82130352770037,s,1,0.48151030036024167,146.31302739854073,146.31302739854073,146.31302739854073,147.33814028503184,147.33814028503184,147.33814028503184,,,,,,,,,,,,,,,,,,,,,,,,,573883,001,2023-03-01_16h13.07.348,eb_01,2022.2.4,120.00829556849008,
,,,0,0,0,0,8,0,8,0,,,,,,,,,,,,,,,,,,,,,,,,,,,,,,,,,,,,,,,,,,,,,,,,,,,,,,,,,,,573883,001,2023-03-01_16h13.07.348,eb_01,2022.2.4,120.00829556849008,
1,stimuli/1.png,s,0,0,0,0,9,0,9,0,0,0,0,0,,,,,,,,,,,,,,,,,,147.33814028503184,147.33814028503184,147.33814028503184,147.33814028503184,s,1,0.44473310519606457,147.81315704556982,147.81315704556982,147.81315704556982,,,,,,,,,,,,,,,,,,,,,,,,,,,,573883,001,2023-03-01_16h13.07.348,eb_01,2022.2.4,120.00829556849008,
,,,0,0,0,0,9,0,9,0,,,,,,,,,,,,,,,,,,,,,,,,,,,,,,,,,,,,,,,,,,,,,,,,,,,,,,,,,,,573883,001,2023-03-01_16h13.07.348,eb_01,2022.2.4,120.00829556849008,
2,stimuli/2.png,s,0,0,0,0,10,0,10,0,0,0,0,0,,,,,,,,,,,,,,,,,,148.81324850785313,148.81324850785313,148.81324850785313,148.81324850785313,s,1,0.39372129991897964,149.2216466169084,149.2216466169084,149.2216466169084,150.23841953175724,150.23841953175724,150.23841953175724,,,,,,,,,,,,,,,,,,,,,,,,,573883,001,2023-03-01_16h13.07.348,eb_01,2022.2.4,120.00829556849008,
,,,0,0,0,0,10,0,10,0,,,,,,,,,,,,,,,,,,,,,,,,,,,,,,,,,,,,,,,,,,,,,,,,,,,,,,,,,,,573883,001,2023-03-01_16h13.07.348,eb_01,2022.2.4,120.00829556849008,
4,stimuli/4.png,l,0,0,0,0,11,0,11,0,0,0,0,0,,,,,,,,,,,,,,,,,,150.23841953175724,150.23841953175724,150.23841953175724,150.23841953175724,l,1,0.5366336823790334,150.7968341975975,150.7968341975975,150.7968341975975,,,,,,,,,,,,,,,,,,,,,,,,,,,,573883,001,2023-03-01_16h13.07.348,eb_01,2022.2.4,120.00829556849008,
,,,0,0,0,0,11,0,11,0,,,,,,,,,,,,,,,,,,,,,,,,,,,,,,,,,,,,,,,,,,,,,,,,,,,,,,,,,,,573883,001,2023-03-01_16h13.07.348,eb_01,2022.2.4,120.00829556849008,
3,stimuli/3.png,l,0,0,0,0,12,0,12,0,0,0,0,0,,,,,,,,,,,,,,,,,,151.8052269939908,151.8052269939908,151.8052269939908,151.8052269939908,l,1,0.5058504362132226,152.3302977716121,152.3302977716121,152.3302977716121,,,,,,,,,,,,,,,,,,,,,,,,,,,,573883,001,2023-03-01_16h13.07.348,eb_01,2022.2.4,120.00829556849008,
,,,0,0,0,0,12,0,12,0,,,,,,,,,,,,,,,,,,,,,,,,,,,,,,,,,,,,,,,,,,,,,,,,,,,,,,,,,,,573883,001,2023-03-01_16h13.07.348,eb_01,2022.2.4,120.00829556849008,
2,stimuli/2.png,s,0,0,0,0,13,0,13,0,0,0,0,0,,,,,,,,,,,,,,,,,,153.33875184471617,153.33875184471617,153.33875184471617,153.33875184471617,s,1,0.5234003276818839,153.87210916551703,153.87210916551703,153.87210916551703,154.8805741054275,154.8805741054275,154.8805741054275,,,,,,,,,,,,,,,,,,,,,,,,,573883,001,2023-03-01_16h13.07.348,eb_01,2022.2.4,120.00829556849008,
,,,0,0,0,0,13,0,13,0,,,,,,,,,,,,,,,,,,,,,,,,,,,,,,,,,,,,,,,,,,,,,,,,,,,,,,,,,,,573883,001,2023-03-01_16h13.07.348,eb_01,2022.2.4,120.00829556849008,
3,stimuli/3.png,l,0,0,0,0,14,0,14,0,0,0,0,0,,,,,,,,,,,,,,,,,,154.8805741054275,154.8805741054275,154.8805741054275,154.8805741054275,l,1,0.4936331278695434,155.38895890264757,155.38895890264757,155.38895890264757,156.40575294739756,156.40575294739756,156.40575294739756,,,,,,,,,,,,,,,,,,,,,,,,,573883,001,2023-03-01_16h13.07.348,eb_01,2022.2.4,120.00829556849008,
,,,0,0,0,0,14,0,14,0,,,,,,,,,,,,,,,,,,,,,,,,,,,,,,,,,,,,,,,,,,,,,,,,,,,,,,,,,,,573883,001,2023-03-01_16h13.07.348,eb_01,2022.2.4,120.00829556849008,
4,stimuli/4.png,l,0,0,0,0,15,0,15,0,0,0,0,0,,,,,,,,,,,,,,,,,,156.40575294739756,156.40575294739756,156.40575294739756,156.40575294739756,l,1,0.720522978601366,157.14747462978266,157.14747462978266,157.14747462978266,,,,,,,,,,,,,,,,,,,,,,,,,,,,573883,001,2023-03-01_16h13.07.348,eb_01,2022.2.4,120.00829556849008,
,,,0,0,0,0,15,0,15,0,,,,,,,,,,,,,,,,,,,,,,,,,,,,,,,,,,,,,,,,,,,,,,,,,,,,,,,,,,,573883,001,2023-03-01_16h13.07.348,eb_01,2022.2.4,120.00829556849008,
2,stimuli/2.png,s,0,0,0,0,16,0,16,0,0,0,0,0,,,,,,,,,,,,,,,,,,158.15590545999657,158.15590545999657,158.15590545999657,158.15590545999657,s,1,0.5224461617544875,158.6893150018368,158.6893150018368,158.6893150018368,159.7144091732771,159.7144091732771,159.7144091732771,,,,,,,,,,,,,,,,,,,,,,,,,573883,001,2023-03-01_16h13.07.348,eb_01,2022.2.4,120.00829556849008,
,,,0,0,0,0,16,0,16,0,,,,,,,,,,,,,,,,,,,,,,,,,,,,,,,,,,,,,,,,,,,,,,,,,,,,,,,,,,,573883,001,2023-03-01_16h13.07.348,eb_01,2022.2.4,120.00829556849008,
1,stimuli/1.png,s,0,0,0,0,17,0,17,0,0,0,0,0,,,,,,,,,,,,,,,,,,159.7144091732771,159.7144091732771,159.7144091732771,159.7144091732771,s,1,0.6040235752188892,160.34778427337733,160.34778427337733,160.34778427337733,,,,,,,,,,,,,,,,,,,,,,,,,,,,573883,001,2023-03-01_16h13.07.348,eb_01,2022.2.4,120.00829556849008,
,,,0,0,0,0,17,0,17,0,,,,,,,,,,,,,,,,,,,,,,,,,,,,,,,,,,,,,,,,,,,,,,,,,,,,,,,,,,,573883,001,2023-03-01_16h13.07.348,eb_01,2022.2.4,120.00829556849008,
2,stimuli/2.png,s,0,0,0,0,18,0,18,0,0,0,0,0,,,,,,,,,,,,,,,,,,161.34791829731694,161.34791829731694,161.34791829731694,161.34791829731694,s,1,0.5145499180143815,161.87296764318307,161.87296764318307,161.87296764318307,162.88141628288213,162.88141628288213,162.88141628288213,,,,,,,,,,,,,,,,,,,,,,,,,573883,001,2023-03-01_16h13.07.348,eb_01,2022.2.4,120.00829556849008,
,,,0,0,0,0,18,0,18,0,,,,,,,,,,,,,,,,,,,,,,,,,,,,,,,,,,,,,,,,,,,,,,,,,,,,,,,,,,,573883,001,2023-03-01_16h13.07.348,eb_01,2022.2.4,120.00829556849008,
3,stimuli/3.png,l,0,0,0,0,19,0,19,0,0,0,0,0,,,,,,,,,,,,,,,,,,162.88141628288213,162.88141628288213,162.88141628288213,162.88141628288213,l,1,0.4531111106625758,163.34814559467486,163.34814559467486,163.34814559467486,164.36487202374337,164.36487202374337,164.36487202374337,,,,,,,,,,,,,,,,,,,,,,,,,573883,001,2023-03-01_16h13.07.348,eb_01,2022.2.4,120.00829556849008,
,,,0,0,0,0,19,0,19,0,,,,,,,,,,,,,,,,,,,,,,,,,,,,,,,,,,,,,,,,,,,,,,,,,,,,,,,,,,,573883,001,2023-03-01_16h13.07.348,eb_01,2022.2.4,120.00829556849008,
4,stimuli/4.png,l,0,0,0,0,20,0,20,0,0,0,0,0,,,,,,,,,,,,,,,,,,164.36487202374337,164.36487202374337,164.36487202374337,164.36487202374337,l,1,0.5457168227985676,164.9316257556602,164.9316257556602,164.9316257556602,,,,,,,,,,,,,,,,,,,,,,,,,,,,573883,001,2023-03-01_16h13.07.348,eb_01,2022.2.4,120.00829556849008,
,,,0,0,0,0,20,0,20,0,,,,,,,,,,,,,,,,,,,,,,,,,,,,,,,,,,,,,,,,,,,,,,,,,,,,,,,,,,,573883,001,2023-03-01_16h13.07.348,eb_01,2022.2.4,120.00829556849008,
2,stimuli/2.png,s,0,0,0,0,21,0,21,0,0,0,0,0,,,,,,,,,,,,,,,,,,165.94008224361096,165.94008224361096,165.94008224361096,165.94008224361096,s,1,0.43457686769761494,166.3901310084002,166.3901310084002,166.3901310084002,167.39854674582966,167.39854674582966,167.39854674582966,,,,,,,,,,,,,,,,,,,,,,,,,573883,001,2023-03-01_16h13.07.348,eb_01,2022.2.4,120.00829556849008,
,,,0,0,0,0,21,0,21,0,,,,,,,,,,,,,,,,,,,,,,,,,,,,,,,,,,,,,,,,,,,,,,,,,,,,,,,,,,,573883,001,2023-03-01_16h13.07.348,eb_01,2022.2.4,120.00829556849008,
3,stimuli/3.png,l,0,0,0,0,22,0,22,0,0,0,0,0,,,,,,,,,,,,,,,,,,167.39854674582966,167.39854674582966,167.39854674582966,167.39854674582966,l,1,0.4801933038579591,167.8902567313089,167.8902567313089,167.8902567313089,168.90704383337652,168.90704383337652,168.90704383337652,,,,,,,,,,,,,,,,,,,,,,,,,573883,001,2023-03-01_16h13.07.348,eb_01,2022.2.4,120.00829556849008,
,,,0,0,0,0,22,0,22,0,,,,,,,,,,,,,,,,,,,,,,,,,,,,,,,,,,,,,,,,,,,,,,,,,,,,,,,,,,,573883,001,2023-03-01_16h13.07.348,eb_01,2022.2.4,120.00829556849008,
4,stimuli/4.png,l,0,0,0,0,23,0,23,0,0,0,0,0,,,,,,,,,,,,,,,,,,168.90704383337652,168.90704383337652,168.90704383337652,168.90704383337652,l,1,0.4747387710303883,169.39874838545074,169.39874838545074,169.39874838545074,,,,,,,,,,,,,,,,,,,,,,,,,,,,573883,001,2023-03-01_16h13.07.348,eb_01,2022.2.4,120.00829556849008,
,,,0,0,0,0,23,0,23,0,,,,,,,,,,,,,,,,,,,,,,,,,,,,,,,,,,,,,,,,,,,,,,,,,,,,,,,,,,,573883,001,2023-03-01_16h13.07.348,eb_01,2022.2.4,120.00829556849008,
1,stimuli/1.png,s,0,0,0,0,24,0,24,0,0,0,0,0,,,,,,,,,,,,,,,,,,170.42386097008784,170.42386097008784,170.42386097008784,170.42386097008784,s,1,0.4939663765799196,170.9489199753334,170.9489199753334,170.9489199753334,,,,,,,,,,,,,,,,,,,,,,,,,,,,573883,001,2023-03-01_16h13.07.348,eb_01,2022.2.4,120.00829556849008,
,,,0,0,0,0,24,0,24,0,,,,,,,,,,,,,,,,,,,,,,,,,,,,,,,,,,,,,,,,,,,,,,,,,,,,,,,,,,,573883,001,2023-03-01_16h13.07.348,eb_01,2022.2.4,120.00829556849008,
4,stimuli/4.png,l,0,0,0,0,25,0,25,0,0,0,0,0,,,,,,,,,,,,,,,,,,171.95735412596332,171.95735412596332,171.95735412596332,171.95735412596332,l,1,0.5125289939824142,172.49074827316144,172.49074827316144,172.49074827316144,,,,,,,,,,,,,,,,,,,,,,,,,,,,573883,001,2023-03-01_16h13.07.348,eb_01,2022.2.4,120.00829556849008,
,,,0,0,0,0,25,0,25,0,,,,,,,,,,,,,,,,,,,,,,,,,,,,,,,,,,,,,,,,,,,,,,,,,,,,,,,,,,,573883,001,2023-03-01_16h13.07.348,eb_01,2022.2.4,120.00829556849008,
1,stimuli/1.png,s,0,0,0,0,26,0,26,0,0,0,0,0,,,,,,,,,,,,,,,,,,173.51585119841548,173.51585119841548,173.51585119841548,173.51585119841548,s,1,0.4581167840406124,173.99924234214996,173.99924234214996,173.99924234214996,,,,,,,,,,,,,,,,,,,,,,,,,,,,573883,001,2023-03-01_16h13.07.348,eb_01,2022.2.4,120.00829556849008,
,,,0,0,0,0,26,0,26,0,,,,,,,,,,,,,,,,,,,,,,,,,,,,,,,,,,,,,,,,,,,,,,,,,,,,,,,,,,,573883,001,2023-03-01_16h13.07.348,eb_01,2022.2.4,120.00829556849008,
2,stimuli/2.png,s,0,0,0,0,27,0,27,0,0,0,0,0,,,,,,,,,,,,,,,,,,174.99935402876508,174.99935402876508,174.99935402876508,174.99935402876508,s,1,0.44667041520006023,175.4577189185984,175.4577189185984,175.4577189185984,176.48282908838883,176.48282908838883,176.48282908838883,,,,,,,,,,,,,,,,,,,,,,,,,573883,001,2023-03-01_16h13.07.348,eb_01,2022.2.4,120.00829556849008,
,,,0,0,0,0,27,0,27,0,,,,,,,,,,,,,,,,,,,,,,,,,,,,,,,,,,,,,,,,,,,,,,,,,,,,,,,,,,,573883,001,2023-03-01_16h13.07.348,eb_01,2022.2.4,120.00829556849008,
1,stimuli/1.png,s,0,0,0,0,28,0,28,0,0,0,0,0,,,,,,,,,,,,,,,,,,176.48282908838883,176.48282908838883,176.48282908838883,176.48282908838883,s,1,0.46725033436814556,176.98286123602156,176.98286123602156,176.98286123602156,,,,,,,,,,,,,,,,,,,,,,,,,,,,573883,001,2023-03-01_16h13.07.348,eb_01,2022.2.4,120.00829556849008,
,,,0,0,0,0,28,0,28,0,,,,,,,,,,,,,,,,,,,,,,,,,,,,,,,,,,,,,,,,,,,,,,,,,,,,,,,,,,,573883,001,2023-03-01_16h13.07.348,eb_01,2022.2.4,120.00829556849008,
2,stimuli/2.png,s,0,0,0,0,29,0,29,0,0,0,0,0,,,,,,,,,,,,,,,,,,177.9829988822312,177.9829988822312,177.9829988822312,177.9829988822312,s,1,0.4791512979209074,178.47473271430863,178.47473271430863,178.47473271430863,179.48315569627448,179.48315569627448,179.48315569627448,,,,,,,,,,,,,,,,,,,,,,,,,573883,001,2023-03-01_16h13.07.348,eb_01,2022.2.4,120.00829556849008,
,,,0,0,0,0,29,0,29,0,,,,,,,,,,,,,,,,,,,,,,,,,,,,,,,,,,,,,,,,,,,,,,,,,,,,,,,,,,,573883,001,2023-03-01_16h13.07.348,eb_01,2022.2.4,120.00829556849008,
3,stimuli/3.png,l,0,0,0,0,30,0,30,0,0,0,0,0,,,,,,,,,,,,,,,,,,179.48315569627448,179.48315569627448,179.48315569627448,179.48315569627448,l,1,0.49103897982422495,179.98322014247242,179.98322014247242,179.98322014247242,180.99164221886895,180.99164221886895,180.99164221886895,,,,,,,,,,,,,,,,,,,,,,,,,573883,001,2023-03-01_16h13.07.348,eb_01,2022.2.4,120.00829556849008,
,,,0,0,0,0,30,0,30,0,,,,,,,,,,,,,,,,,,,,,,,,,,,,,,,,,,,,,,,,,,,,,,,,,,,,,,,,,,,573883,001,2023-03-01_16h13.07.348,eb_01,2022.2.4,120.00829556849008,
2,stimuli/2.png,s,0,0,0,0,31,0,31,0,0,0,0,0,,,,,,,,,,,,,,,,,,180.99164221886895,180.99164221886895,180.99164221886895,180.99164221886895,s,1,0.49462683689125697,181.50001977155262,181.50001977155262,181.50001977155262,182.51677457505502,182.51677457505502,182.51677457505502,,,,,,,,,,,,,,,,,,,,,,,,,573883,001,2023-03-01_16h13.07.348,eb_01,2022.2.4,120.00829556849008,
,,,0,0,0,0,31,0,31,0,,,,,,,,,,,,,,,,,,,,,,,,,,,,,,,,,,,,,,,,,,,,,,,,,,,,,,,,,,,573883,001,2023-03-01_16h13.07.348,eb_01,2022.2.4,120.00829556849008,
4,stimuli/4.png,l,0,0,0,0,32,0,32,0,0,0,0,0,,,,,,,,,,,,,,,,,,182.51677457505502,182.51677457505502,182.51677457505502,182.51677457505502,l,1,0.5375419662341301,183.0751856186289,183.0751856186289,183.0751856186289,,,,,,,,,,,,,,,,,,,,,,,,,,,,573883,001,2023-03-01_16h13.07.348,eb_01,2022.2.4,120.00829556849008,
,,,0,0,0,0,32,0,32,0,,,,,,,,,,,,,,,,,,,,,,,,,,,,,,,,,,,,,,,,,,,,,,,,,,,,,,,,,,,573883,001,2023-03-01_16h13.07.348,eb_01,2022.2.4,120.00829556849008,
3,stimuli/3.png,l,0,0,0,0,33,0,33,0,0,0,0,0,,,,,,,,,,,,,,,,,,184.0836318434849,184.0836318434849,184.0836318434849,184.0836318434849,l,1,0.4977767013151606,184.59199400152283,184.59199400152283,184.59199400152283,185.6087841221488,185.6087841221488,185.6087841221488,,,,,,,,,,,,,,,,,,,,,,,,,573883,001,2023-03-01_16h13.07.348,eb_01,2022.2.4,120.00829556849008,
,,,0,0,0,0,33,0,33,0,,,,,,,,,,,,,,,,,,,,,,,,,,,,,,,,,,,,,,,,,,,,,,,,,,,,,,,,,,,573883,001,2023-03-01_16h13.07.348,eb_01,2022.2.4,120.00829556849008,
4,stimuli/4.png,l,0,0,0,0,34,0,34,0,0,0,0,0,,,,,,,,,,,,,,,,,,185.6087841221488,185.6087841221488,185.6087841221488,185.6087841221488,l,1,0.48467344643358956,186.11719065297802,186.11719065297802,186.11719065297802,,,,,,,,,,,,,,,,,,,,,,,,,,,,573883,001,2023-03-01_16h13.07.348,eb_01,2022.2.4,120.00829556849008,
,,,0,0,0,0,34,0,34,0,,,,,,,,,,,,,,,,,,,,,,,,,,,,,,,,,,,,,,,,,,,,,,,,,,,,,,,,,,,573883,001,2023-03-01_16h13.07.348,eb_01,2022.2.4,120.00829556849008,
2,stimuli/2.png,s,0,0,0,0,35,0,35,0,0,0,0,0,,,,,,,,,,,,,,,,,,187.12560518298415,187.12560518298415,187.12560518298415,187.12560518298415,s,1,0.47191611820380786,187.609005080536,187.609005080536,187.609005080536,188.61745100353437,188.61745100353437,188.61745100353437,,,,,,,,,,,,,,,,,,,,,,,,,573883,001,2023-03-01_16h13.07.348,eb_01,2022.2.4,120.00829556849008,
,,,0,0,0,0,35,0,35,0,,,,,,,,,,,,,,,,,,,,,,,,,,,,,,,,,,,,,,,,,,,,,,,,,,,,,,,,,,,573883,001,2023-03-01_16h13.07.348,eb_01,2022.2.4,120.00829556849008,
3,stimuli/3.png,l,0,0,0,0,36,0,36,0,0,0,0,0,,,,,,,,,,,,,,,,,,188.61745100353437,188.61745100353437,188.61745100353437,188.61745100353437,l,1,0.4841162207740126,189.11750246993688,189.11750246993688,189.11750246993688,190.1259423558222,190.1259423558222,190.1259423558222,,,,,,,,,,,,,,,,,,,,,,,,,573883,001,2023-03-01_16h13.07.348,eb_01,2022.2.4,120.00829556849008,
,,,0,0,0,0,36,0,36,0,,,,,,,,,,,,,,,,,,,,,,,,,,,,,,,,,,,,,,,,,,,,,,,,,,,,,,,,,,,573883,001,2023-03-01_16h13.07.348,eb_01,2022.2.4,120.00829556849008,
8,stimuli/8.png,l,0,0,0,0,37,0,37,0,0,0,0,0,,,,,,,,,,,,,,,,,,190.1259423558222,190.1259423558222,190.1259423558222,190.1259423558222,l,1,0.9117168813572789,191.05934030640128,191.05934030640128,191.05934030640128,,,,,,,,,,,,,,,,,,,,,,,,,,,,573883,001,2023-03-01_16h13.07.348,eb_01,2022.2.4,120.00829556849008,
,,,0,0,0,0,37,0,37,0,,,,,,,,,,,,,,,,,,,,,,,,,,,,,,,,,,,,,,,,,,,,,,,,,,,,,,,,,,,573883,001,2023-03-01_16h13.07.348,eb_01,2022.2.4,120.00829556849008,
6,stimuli/6.png,s,0,0,0,0,38,0,38,0,0,0,0,0,,,,,,,,,,,,,,,,,,192.08445892815507,192.08445892815507,192.08445892815507,192.08445892815507,s,1,0.6092559422395425,192.72619814835707,192.72619814835707,192.72619814835707,,,,,,,,,,,,,,,,,,,,,,,,,,,,573883,001,2023-03-01_16h13.07.348,eb_01,2022.2.4,120.00829556849008,
,,,0,0,0,0,38,0,38,0,,,,,,,,,,,,,,,,,,,,,,,,,,,,,,,,,,,,,,,,,,,,,,,,,,,,,,,,,,,573883,001,2023-03-01_16h13.07.348,eb_01,2022.2.4,120.00829556849008,
9,stimuli/9.png,l,0,0,0,0,39,0,39,0,0,0,0,0,,,,,,,,,,,,,,,,,,193.7429692520709,193.7429692520709,193.7429692520709,193.7429692520709,l,1,0.7348390897568606,194.50970964196677,194.50970964196677,194.50970964196677,,,,,,,,,,,,,,,,,,,,,,,,,,,,573883,001,2023-03-01_16h13.07.348,eb_01,2022.2.4,120.00829556849008,
,,,0,0,0,0,39,0,39,0,,,,,,,,,,,,,,,,,,,,,,,,,,,,,,,,,,,,,,,,,,,,,,,,,,,,,,,,,,,573883,001,2023-03-01_16h13.07.348,eb_01,2022.2.4,120.00829556849008,
5,stimuli/5.png,s,0,0,0,0,40,0,40,0,0,0,0,0,,,,,,,,,,,,,,,,,,195.50983732693567,195.50983732693567,195.50983732693567,195.50983732693567,s,1,0.5760584540439595,196.10988000933503,196.10988000933503,196.10988000933503,,,,,,,,,,,,,,,,,,,,,,,,,,,,573883,001,2023-03-01_16h13.07.348,eb_01,2022.2.4,120.00829556849008,
,,,0,0,0,0,40,0,40,0,,,,,,,,,,,,,,,,,,,,,,,,,,,,,,,,,,,,,,,,,,,,,,,,,,,,,,,,,,,573883,001,2023-03-01_16h13.07.348,eb_01,2022.2.4,120.00829556849008,
9,stimuli/9.png,l,0,0,0,0,41,0,41,0,0,0,0,0,,,,,,,,,,,,,,,,,,197.12665564088456,197.12665564088456,197.12665564088456,197.12665564088456,l,1,0.5992530474468367,197.75171008810867,197.75171008810867,197.75171008810867,,,,,,,,,,,,,,,,,,,,,,,,,,,,573883,001,2023-03-01_16h13.07.348,eb_01,2022.2.4,120.00829556849008,
,,,0,0,0,0,41,0,41,0,,,,,,,,,,,,,,,,,,,,,,,,,,,,,,,,,,,,,,,,,,,,,,,,,,,,,,,,,,,573883,001,2023-03-01_16h13.07.348,eb_01,2022.2.4,120.00829556849008,
5,stimuli/5.png,s,0,0,0,0,42,0,42,0,0,0,0,0,,,,,,,,,,,,,,,,,,198.75181845431143,198.75181845431143,198.75181845431143,198.75181845431143,s,1,0.5181948258177727,199.29356132697285,199.29356132697285,199.29356132697285,,,,,,,,,,,,,,,,,,,,,,,,,,,,573883,001,2023-03-01_16h13.07.348,eb_01,2022.2.4,120.00829556849008,
,,,0,0,0,0,42,0,42,0,,,,,,,,,,,,,,,,,,,,,,,,,,,,,,,,,,,,,,,,,,,,,,,,,,,,,,,,,,,573883,001,2023-03-01_16h13.07.348,eb_01,2022.2.4,120.00829556849008,
9,stimuli/9.png,l,0,0,0,0,43,0,43,0,0,0,0,0,,,,,,,,,,,,,,,,,,200.31034269378142,200.31034269378142,200.31034269378142,200.31034269378142,s,0,0.566759788638592,200.90209762557424,200.90209762557424,200.90209762557424,,,,,,,,,,,,,,,,,,,,,,,,,,,,573883,001,2023-03-01_16h13.07.348,eb_01,2022.2.4,120.00829556849008,
,,,0,0,0,0,43,0,43,0,,,,,,,,,,,,,,,,,,,,,,,,,,,,,,,,,,,,,,,,,,,,,,,,,,,,,,,,,,,573883,001,2023-03-01_16h13.07.348,eb_01,2022.2.4,120.00829556849008,
8,stimuli/8.png,l,0,0,0,0,44,0,44,0,0,0,0,0,,,,,,,,,,,,,,,,,,201.90218697486853,201.90218697486853,201.90218697486853,201.90218697486853,l,1,0.542961483799445,202.46889844698308,202.46889844698308,202.46889844698308,,,,,,,,,,,,,,,,,,,,,,,,,,,,573883,001,2023-03-01_16h13.07.348,eb_01,2022.2.4,120.00829556849008,
,,,0,0,0,0,44,0,44,0,,,,,,,,,,,,,,,,,,,,,,,,,,,,,,,,,,,,,,,,,,,,,,,,,,,,,,,,,,,573883,001,2023-03-01_16h13.07.348,eb_01,2022.2.4,120.00829556849008,
3,stimuli/3.png,l,0,0,0,0,45,0,45,0,0,0,0,0,,,,,,,,,,,,,,,,,,203.47731961781756,203.47731961781756,203.47731961781756,203.47731961781756,l,1,0.4718726509818225,203.96069808361062,203.96069808361062,203.96069808361062,204.9775192953748,204.9775192953748,204.9775192953748,,,,,,,,,,,,,,,,,,,,,,,,,573883,001,2023-03-01_16h13.07.348,eb_01,2022.2.4,120.00829556849008,
,,,0,0,0,0,45,0,45,0,,,,,,,,,,,,,,,,,,,,,,,,,,,,,,,,,,,,,,,,,,,,,,,,,,,,,,,,,,,573883,001,2023-03-01_16h13.07.348,eb_01,2022.2.4,120.00829556849008,
4,stimuli/4.png,l,0,0,0,0,46,0,46,0,0,0,0,0,,,,,,,,,,,,,,,,,,204.9775192953748,204.9775192953748,204.9775192953748,204.9775192953748,l,1,0.5477220503344142,205.56925521025914,205.56925521025914,205.56925521025914,,,,,,,,,,,,,,,,,,,,,,,,,,,,573883,001,2023-03-01_16h13.07.348,eb_01,2022.2.4,120.00829556849008,
,,,0,0,0,0,46,0,46,0,,,,,,,,,,,,,,,,,,,,,,,,,,,,,,,,,,,,,,,,,,,,,,,,,,,,,,,,,,,573883,001,2023-03-01_16h13.07.348,eb_01,2022.2.4,120.00829556849008,
2,stimuli/2.png,s,0,0,0,0,47,0,47,0,0,0,0,0,,,,,,,,,,,,,,,,,,206.57766974026526,206.57766974026526,206.57766974026526,206.57766974026526,s,1,0.9236462193475745,207.51109002816884,207.51109002816884,207.51109002816884,208.51951240642302,208.51951240642302,208.51951240642302,,,,,,,,,,,,,,,,,,,,,,,,,573883,001,2023-03-01_16h13.07.348,eb_01,2022.2.4,120.00829556849008,
,,,0,0,0,0,47,0,47,0,,,,,,,,,,,,,,,,,,,,,,,,,,,,,,,,,,,,,,,,,,,,,,,,,,,,,,,,,,,573883,001,2023-03-01_16h13.07.348,eb_01,2022.2.4,120.00829556849008,
3,stimuli/3.png,l,0,0,0,0,48,0,48,0,0,0,0,0,,,,,,,,,,,,,,,,,,208.51951240642302,208.51951240642302,208.51951240642302,208.51951240642302,l,1,0.43787584884194075,208.96956992502965,208.96956992502965,208.96956992502965,209.97803426122846,209.97803426122846,209.97803426122846,,,,,,,,,,,,,,,,,,,,,,,,,573883,001,2023-03-01_16h13.07.348,eb_01,2022.2.4,120.00829556849008,
,,,0,0,0,0,48,0,48,0,,,,,,,,,,,,,,,,,,,,,,,,,,,,,,,,,,,,,,,,,,,,,,,,,,,,,,,,,,,573883,001,2023-03-01_16h13.07.348,eb_01,2022.2.4,120.00829556849008,
2,stimuli/2.png,s,0,0,0,0,49,0,49,0,0,0,0,0,,,,,,,,,,,,,,,,,,209.97803426122846,209.97803426122846,209.97803426122846,209.97803426122846,s,1,0.4834744755207794,210.46974394485005,210.46974394485005,210.46974394485005,211.47818292516968,211.47818292516968,211.47818292516968,,,,,,,,,,,,,,,,,,,,,,,,,573883,001,2023-03-01_16h13.07.348,eb_01,2022.2.4,120.00829556849008,
,,,0,0,0,0,49,0,49,0,,,,,,,,,,,,,,,,,,,,,,,,,,,,,,,,,,,,,,,,,,,,,,,,,,,,,,,,,,,573883,001,2023-03-01_16h13.07.348,eb_01,2022.2.4,120.00829556849008,
3,stimuli/3.png,l,0,0,0,0,50,0,50,0,0,0,0,0,,,,,,,,,,,,,,,,,,211.47818292516968,211.47818292516968,211.47818292516968,211.47818292516968,l,1,0.4153305470899795,211.90322143441517,211.90322143441517,211.90322143441517,212.92000219751208,212.92000219751208,212.92000219751208,,,,,,,,,,,,,,,,,,,,,,,,,573883,001,2023-03-01_16h13.07.348,eb_01,2022.2.4,120.00829556849008,
,,,0,0,0,0,50,0,50,0,,,,,,,,,,,,,,,,,,,,,,,,,,,,,,,,,,,,,,,,,,,,,,,,,,,,,,,,,,,573883,001,2023-03-01_16h13.07.348,eb_01,2022.2.4,120.00829556849008,
4,stimuli/4.png,l,0,0,0,0,51,0,51,0,0,0,0,0,,,,,,,,,,,,,,,,,,212.92000219751208,212.92000219751208,212.92000219751208,212.92000219751208,l,1,0.5175811531444197,213.46174567388152,213.46174567388152,213.46174567388152,,,,,,,,,,,,,,,,,,,,,,,,,,,,573883,001,2023-03-01_16h13.07.348,eb_01,2022.2.4,120.00829556849008,
,,,0,0,0,0,51,0,51,0,,,,,,,,,,,,,,,,,,,,,,,,,,,,,,,,,,,,,,,,,,,,,,,,,,,,,,,,,,,573883,001,2023-03-01_16h13.07.348,eb_01,2022.2.4,120.00829556849008,
3,stimuli/3.png,l,0,0,0,0,52,0,52,0,0,0,0,0,,,,,,,,,,,,,,,,,,214.4701725799714,214.4701725799714,214.4701725799714,214.4701725799714,l,1,0.527472059467982,215.02021980529753,215.02021980529753,215.02021980529753,,,,,,,,,,,,,,,,,,,,,,,,,,,,573883,001,2023-03-01_16h13.07.348,eb_01,2022.2.4,120.00829556849008,
,,,0,0,0,0,52,0,52,0,,,,,,,,,,,,,,,,,,,,,,,,,,,,,,,,,,,,,,,,,,,,,,,,,,,,,,,,,,,573883,001,2023-03-01_16h13.07.348,eb_01,2022.2.4,120.00829556849008,
2,stimuli/2.png,s,0,0,0,0,53,0,53,0,0,0,0,0,,,,,,,,,,,,,,,,,,216.02864972994576,216.02864972994576,216.02864972994576,216.02864972994576,s,1,0.5680610886411159,216.61207284020202,216.61207284020202,216.61207284020202,217.6205088019633,217.6205088019633,217.6205088019633,,,,,,,,,,,,,,,,,,,,,,,,,573883,001,2023-03-01_16h13.07.348,eb_01,2022.2.4,120.00829556849008,
,,,0,0,0,0,53,0,53,0,,,,,,,,,,,,,,,,,,,,,,,,,,,,,,,,,,,,,,,,,,,,,,,,,,,,,,,,,,,573883,001,2023-03-01_16h13.07.348,eb_01,2022.2.4,120.00829556849008,
3,stimuli/3.png,l,0,0,0,0,54,0,54,0,0,0,0,0,,,,,,,,,,,,,,,,,,217.6205088019633,217.6205088019633,217.6205088019633,217.6205088019633,l,1,0.5842909650527872,218.2205617474574,218.2205617474574,218.2205617474574,219.23731775838314,219.23731775838314,219.23731775838314,,,,,,,,,,,,,,,,,,,,,,,,,573883,001,2023-03-01_16h13.07.348,eb_01,2022.2.4,120.00829556849008,
,,,0,0,0,0,54,0,54,0,,,,,,,,,,,,,,,,,,,,,,,,,,,,,,,,,,,,,,,,,,,,,,,,,,,,,,,,,,,573883,001,2023-03-01_16h13.07.348,eb_01,2022.2.4,120.00829556849008,
4,stimuli/4.png,l,0,0,0,0,55,0,55,0,0,0,0,0,,,,,,,,,,,,,,,,,,219.23731775838314,219.23731775838314,219.23731775838314,219.23731775838314,l,1,0.6155683490251249,219.87074779622708,219.87074779622708,219.87074779622708,,,,,,,,,,,,,,,,,,,,,,,,,,,,573883,001,2023-03-01_16h13.07.348,eb_01,2022.2.4,120.00829556849008,
,,,0,0,0,0,55,0,55,0,,,,,,,,,,,,,,,,,,,,,,,,,,,,,,,,,,,,,,,,,,,,,,,,,,,,,,,,,,,573883,001,2023-03-01_16h13.07.348,eb_01,2022.2.4,120.00829556849008,
3,stimuli/3.png,l,0,0,0,0,56,0,56,0,0,0,0,0,,,,,,,,,,,,,,,,,,220.87917621159795,220.87917621159795,220.87917621159795,220.87917621159795,l,1,0.4617275821437943,221.35420323523067,221.35420323523067,221.35420323523067,222.3626805512249,222.3626805512249,222.3626805512249,,,,,,,,,,,,,,,,,,,,,,,,,573883,001,2023-03-01_16h13.07.348,eb_01,2022.2.4,120.00829556849008,
,,,0,0,0,0,56,0,56,0,,,,,,,,,,,,,,,,,,,,,,,,,,,,,,,,,,,,,,,,,,,,,,,,,,,,,,,,,,,573883,001,2023-03-01_16h13.07.348,eb_01,2022.2.4,120.00829556849008,
8,stimuli/8.png,l,0,0,0,0,57,0,57,0,0,0,0,0,,,,,,,,,,,,,,,,,,222.3626805512249,222.3626805512249,222.3626805512249,222.3626805512249,l,1,0.490330524451565,222.87107168741568,222.87107168741568,222.87107168741568,,,,,,,,,,,,,,,,,,,,,,,,,,,,573883,001,2023-03-01_16h13.07.348,eb_01,2022.2.4,120.00829556849008,
,,,0,0,0,0,57,0,57,0,,,,,,,,,,,,,,,,,,,,,,,,,,,,,,,,,,,,,,,,,,,,,,,,,,,,,,,,,,,573883,001,2023-03-01_16h13.07.348,eb_01,2022.2.4,120.00829556849008,
9,stimuli/9.png,l,0,0,0,0,58,0,58,0,0,0,0,0,,,,,,,,,,,,,,,,,,223.88785124308924,223.88785124308924,223.88785124308924,223.88785124308924,l,1,0.5011795208265539,224.42121339357982,224.42121339357982,224.42121339357982,,,,,,,,,,,,,,,,,,,,,,,,,,,,573883,001,2023-03-01_16h13.07.348,eb_01,2022.2.4,120.00829556849008,
,,,0,0,0,0,58,0,58,0,,,,,,,,,,,,,,,,,,,,,,,,,,,,,,,,,,,,,,,,,,,,,,,,,,,,,,,,,,,573883,001,2023-03-01_16h13.07.348,eb_01,2022.2.4,120.00829556849008,
5,stimuli/5.png,s,0,0,0,0,59,0,59,0,0,0,0,0,,,,,,,,,,,,,,,,,,225.42133081545398,225.42133081545398,225.42133081545398,225.42133081545398,s,1,0.519762664418522,225.963061312028,225.963061312028,225.963061312028,,,,,,,,,,,,,,,,,,,,,,,,,,,,573883,001,2023-03-01_16h13.07.348,eb_01,2022.2.4,120.00829556849008,
,,,0,0,0,0,59,0,59,0,,,,,,,,,,,,,,,,,,,,,,,,,,,,,,,,,,,,,,,,,,,,,,,,,,,,,,,,,,,573883,001,2023-03-01_16h13.07.348,eb_01,2022.2.4,120.00829556849008,
9,stimuli/9.png,l,0,0,0,0,60,0,60,0,0,0,0,0,,,,,,,,,,,,,,,,,,226.97982305821643,226.97982305821643,226.97982305821643,226.97982305821643,l,1,0.45734735381483915,227.46319759988546,227.46319759988546,227.46319759988546,,,,,,,,,,,,,,,,,,,,,,,,,,,,573883,001,2023-03-01_16h13.07.348,eb_01,2022.2.4,120.00829556849008,
,,,0,0,0,0,60,0,60,0,,,,,,,,,,,,,,,,,,,,,,,,,,,,,,,,,,,,,,,,,,,,,,,,,,,,,,,,,,,573883,001,2023-03-01_16h13.07.348,eb_01,2022.2.4,120.00829556849008,
5,stimuli/5.png,s,0,0,0,0,61,0,61,0,0,0,0,0,,,,,,,,,,,,,,,,,,228.46331441804796,228.46331441804796,228.46331441804796,228.46331441804796,s,1,0.51790353504839,229.0050334441039,229.0050334441039,229.0050334441039,,,,,,,,,,,,,,,,,,,,,,,,,,,,573883,001,2023-03-01_16h13.07.348,eb_01,2022.2.4,120.00829556849008,
,,,0,0,0,0,61,0,61,0,,,,,,,,,,,,,,,,,,,,,,,,,,,,,,,,,,,,,,,,,,,,,,,,,,,,,,,,,,,573883,001,2023-03-01_16h13.07.348,eb_01,2022.2.4,120.00829556849008,
6,stimuli/6.png,s,0,0,0,0,62,0,62,0,0,0,0,0,,,,,,,,,,,,,,,,,,230.0301659512188,230.0301659512188,230.0301659512188,230.0301659512188,s,1,0.5111144980874087,230.57188497727475,230.57188497727475,230.57188497727475,,,,,,,,,,,,,,,,,,,,,,,,,,,,573883,001,2023-03-01_16h13.07.348,eb_01,2022.2.4,120.00829556849008,
,,,0,0,0,0,62,0,62,0,,,,,,,,,,,,,,,,,,,,,,,,,,,,,,,,,,,,,,,,,,,,,,,,,,,,,,,,,,,573883,001,2023-03-01_16h13.07.348,eb_01,2022.2.4,120.00829556849008,
9,stimuli/9.png,l,0,0,0,0,63,0,63,0,0,0,0,0,,,,,,,,,,,,,,,,,,231.58031641120397,231.58031641120397,231.58031641120397,231.58031641120397,l,1,0.4880195170735533,232.09703544480362,232.09703544480362,232.09703544480362,,,,,,,,,,,,,,,,,,,,,,,,,,,,573883,001,2023-03-01_16h13.07.348,eb_01,2022.2.4,120.00829556849008,
,,,0,0,0,0,63,0,63,0,,,,,,,,,,,,,,,,,,,,,,,,,,,,,,,,,,,,,,,,,,,,,,,,,,,,,,,,,,,573883,001,2023-03-01_16h13.07.348,eb_01,2022.2.4,120.00829556849008,
8,stimuli/8.png,l,0,0,0,0,64,0,64,0,0,0,0,0,,,,,,,,,,,,,,,,,,233.0971109087368,233.0971109087368,233.0971109087368,233.0971109087368,l,1,0.49928386691681226,233.6138546945076,233.6138546945076,233.6138546945076,,,,,,,,,,,,,,,,,,,,,,,,,,,,573883,001,2023-03-01_16h13.07.348,eb_01,2022.2.4,120.00829556849008,
,,,0,0,0,0,64,0,64,0,,,,,,,,,,,,,,,,,,,,,,,,,,,,,,,,,,,,,,,,,,,,,,,,,,,,,,,,,,,573883,001,2023-03-01_16h13.07.348,eb_01,2022.2.4,120.00829556849008,
3,stimuli/3.png,l,0,0,0,0,65,0,65,0,0,0,0,0,,,,,,,,,,,,,,,,,,234.62229850451695,234.62229850451695,234.62229850451695,234.62229850451695,l,1,0.5262000394686766,235.16402869923695,235.16402869923695,235.16402869923695,236.17247341481198,236.17247341481198,236.17247341481198,,,,,,,,,,,,,,,,,,,,,,,,,573883,001,2023-03-01_16h13.07.348,eb_01,2022.2.4,120.00829556849008,
,,,0,0,0,0,65,0,65,0,,,,,,,,,,,,,,,,,,,,,,,,,,,,,,,,,,,,,,,,,,,,,,,,,,,,,,,,,,,573883,001,2023-03-01_16h13.07.348,eb_01,2022.2.4,120.00829556849008,
2,stimuli/2.png,s,0,0,0,0,66,0,66,0,0,0,0,0,,,,,,,,,,,,,,,,,,236.17247341481198,236.17247341481198,236.17247341481198,236.17247341481198,s,1,0.5121380908276478,236.69752155325477,236.69752155325477,236.69752155325477,237.72263323232255,237.72263323232255,237.72263323232255,,,,,,,,,,,,,,,,,,,,,,,,,573883,001,2023-03-01_16h13.07.348,eb_01,2022.2.4,120.00829556849008,
,,,0,0,0,0,66,0,66,0,,,,,,,,,,,,,,,,,,,,,,,,,,,,,,,,,,,,,,,,,,,,,,,,,,,,,,,,,,,573883,001,2023-03-01_16h13.07.348,eb_01,2022.2.4,120.00829556849008,
1,stimuli/1.png,s,0,0,0,0,67,0,67,0,0,0,0,0,,,,,,,,,,,,,,,,,,237.72263323232255,237.72263323232255,237.72263323232255,237.72263323232255,s,1,0.5939479331937036,238.3477314486263,238.3477314486263,238.3477314486263,,,,,,,,,,,,,,,,,,,,,,,,,,,,573883,001,2023-03-01_16h13.07.348,eb_01,2022.2.4,120.00829556849008,
,,,0,0,0,0,67,0,67,0,,,,,,,,,,,,,,,,,,,,,,,,,,,,,,,,,,,,,,,,,,,,,,,,,,,,,,,,,,,573883,001,2023-03-01_16h13.07.348,eb_01,2022.2.4,120.00829556849008,
2,stimuli/2.png,s,0,0,0,0,68,0,68,0,0,0,0,0,,,,,,,,,,,,,,,,,,239.34781596823086,239.34781596823086,239.34781596823086,239.34781596823086,s,1,0.4968367226065311,239.85617722069946,239.85617722069946,239.85617722069946,240.86464668844928,240.86464668844928,240.86464668844928,,,,,,,,,,,,,,,,,,,,,,,,,573883,001,2023-03-01_16h13.07.348,eb_01,2022.2.4,120.00829556849008,
,,,0,0,0,0,68,0,68,0,,,,,,,,,,,,,,,,,,,,,,,,,,,,,,,,,,,,,,,,,,,,,,,,,,,,,,,,,,,573883,001,2023-03-01_16h13.07.348,eb_01,2022.2.4,120.00829556849008,
3,stimuli/3.png,l,0,0,0,0,69,0,69,0,0,0,0,0,,,,,,,,,,,,,,,,,,240.86464668844928,240.86464668844928,240.86464668844928,240.86464668844928,l,1,0.5800746443783282,241.45635694559678,241.45635694559678,241.45635694559678,242.4647986426171,242.4647986426171,242.4647986426171,,,,,,,,,,,,,,,,,,,,,,,,,573883,001,2023-03-01_16h13.07.348,eb_01,2022.2.4,120.00829556849008,
,,,0,0,0,0,69,0,69,0,,,,,,,,,,,,,,,,,,,,,,,,,,,,,,,,,,,,,,,,,,,,,,,,,,,,,,,,,,,573883,001,2023-03-01_16h13.07.348,eb_01,2022.2.4,120.00829556849008,
8,stimuli/8.png,l,0,0,0,0,70,0,70,0,0,0,0,0,,,,,,,,,,,,,,,,,,242.4647986426171,242.4647986426171,242.4647986426171,242.4647986426171,l,1,0.5959927038311434,243.08154602047216,243.08154602047216,243.08154602047216,,,,,,,,,,,,,,,,,,,,,,,,,,,,573883,001,2023-03-01_16h13.07.348,eb_01,2022.2.4,120.00829556849008,
,,,0,0,0,0,70,0,70,0,,,,,,,,,,,,,,,,,,,,,,,,,,,,,,,,,,,,,,,,,,,,,,,,,,,,,,,,,,,573883,001,2023-03-01_16h13.07.348,eb_01,2022.2.4,120.00829556849008,
3,stimuli/3.png,l,0,0,0,0,71,0,71,0,0,0,0,0,,,,,,,,,,,,,,,,,,244.08999013233915,244.08999013233915,244.08999013233915,244.08999013233915,l,1,0.4188695035336423,244.52333933322006,244.52333933322006,244.52333933322006,245.54011919075128,245.54011919075128,245.54011919075128,,,,,,,,,,,,,,,,,,,,,,,,,573883,001,2023-03-01_16h13.07.348,eb_01,2022.2.4,120.00829556849008,
,,,0,0,0,0,71,0,71,0,,,,,,,,,,,,,,,,,,,,,,,,,,,,,,,,,,,,,,,,,,,,,,,,,,,,,,,,,,,573883,001,2023-03-01_16h13.07.348,eb_01,2022.2.4,120.00829556849008,
4,stimuli/4.png,l,0,0,0,0,72,0,72,0,0,0,0,0,,,,,,,,,,,,,,,,,,245.54011919075128,245.54011919075128,245.54011919075128,245.54011919075128,l,1,0.4718086575740017,246.03181347973077,246.03181347973077,246.03181347973077,,,,,,,,,,,,,,,,,,,,,,,,,,,,573883,001,2023-03-01_16h13.07.348,eb_01,2022.2.4,120.00829556849008,
,,,0,0,0,0,72,0,72,0,,,,,,,,,,,,,,,,,,,,,,,,,,,,,,,,,,,,,,,,,,,,,,,,,,,,,,,,,,,573883,001,2023-03-01_16h13.07.348,eb_01,2022.2.4,120.00829556849008,
3,stimuli/3.png,l,0,0,0,0,73,0,73,0,0,0,0,0,,,,,,,,,,,,,,,,,,247.04028204191127,247.04028204191127,247.04028204191127,247.04028204191127,l,1,0.5157081384095363,247.56533470818613,247.56533470818613,247.56533470818613,248.5737785181991,248.5737785181991,248.5737785181991,,,,,,,,,,,,,,,,,,,,,,,,,573883,001,2023-03-01_16h13.07.348,eb_01,2022.2.4,120.00829556849008,
,,,0,0,0,0,73,0,73,0,,,,,,,,,,,,,,,,,,,,,,,,,,,,,,,,,,,,,,,,,,,,,,,,,,,,,,,,,,,573883,001,2023-03-01_16h13.07.348,eb_01,2022.2.4,120.00829556849008,
2,stimuli/2.png,s,0,0,0,0,74,0,74,0,0,0,0,0,,,,,,,,,,,,,,,,,,248.5737785181991,248.5737785181991,248.5737785181991,248.5737785181991,s,1,0.5182588192292314,249.10718745632767,249.10718745632767,249.10718745632767,250.1156140605599,250.1156140605599,250.1156140605599,,,,,,,,,,,,,,,,,,,,,,,,,573883,001,2023-03-01_16h13.07.348,eb_01,2022.2.4,120.00829556849008,
,,,0,0,0,0,74,0,74,0,,,,,,,,,,,,,,,,,,,,,,,,,,,,,,,,,,,,,,,,,,,,,,,,,,,,,,,,,,,573883,001,2023-03-01_16h13.07.348,eb_01,2022.2.4,120.00829556849008,
3,stimuli/3.png,l,0,0,0,0,75,0,75,0,0,0,0,0,,,,,,,,,,,,,,,,,,250.1156140605599,250.1156140605599,250.1156140605599,250.1156140605599,l,1,0.552521254401654,250.68230621391194,250.68230621391194,250.68230621391194,251.6907762853698,251.6907762853698,251.6907762853698,,,,,,,,,,,,,,,,,,,,,,,,,573883,001,2023-03-01_16h13.07.348,eb_01,2022.2.4,120.00829556849008,
,,,0,0,0,0,75,0,75,0,,,,,,,,,,,,,,,,,,,,,,,,,,,,,,,,,,,,,,,,,,,,,,,,,,,,,,,,,,,573883,001,2023-03-01_16h13.07.348,eb_01,2022.2.4,120.00829556849008,
8,stimuli/8.png,l,0,0,0,0,76,0,76,0,0,0,0,0,,,,,,,,,,,,,,,,,,251.6907762853698,251.6907762853698,251.6907762853698,251.6907762853698,l,1,0.5933831611473579,252.3075158149768,252.3075158149768,252.3075158149768,,,,,,,,,,,,,,,,,,,,,,,,,,,,573883,001,2023-03-01_16h13.07.348,eb_01,2022.2.4,120.00829556849008,
,,,0,0,0,0,76,0,76,0,,,,,,,,,,,,,,,,,,,,,,,,,,,,,,,,,,,,,,,,,,,,,,,,,,,,,,,,,,,573883,001,2023-03-01_16h13.07.348,eb_01,2022.2.4,120.00829556849008,
3,stimuli/3.png,l,0,0,0,0,77,0,77,0,0,0,0,0,,,,,,,,,,,,,,,,,,253.31596053055546,253.31596053055546,253.31596053055546,253.31596053055546,l,1,0.45626157879451057,253.78267263656744,253.78267263656744,253.78267263656744,254.79111523915708,254.79111523915708,254.79111523915708,,,,,,,,,,,,,,,,,,,,,,,,,573883,001,2023-03-01_16h13.07.348,eb_01,2022.2.4,120.00829556849008,
,,,0,0,0,0,77,0,77,0,,,,,,,,,,,,,,,,,,,,,,,,,,,,,,,,,,,,,,,,,,,,,,,,,,,,,,,,,,,573883,001,2023-03-01_16h13.07.348,eb_01,2022.2.4,120.00829556849008,
2,stimuli/2.png,s,0,0,0,0,78,0,78,0,0,0,0,0,,,,,,,,,,,,,,,,,,254.79111523915708,254.79111523915708,254.79111523915708,254.79111523915708,s,1,0.5092049588129157,255.31617575368364,255.31617575368364,255.31617575368364,256.33291848295994,256.33291848295994,256.33291848295994,,,,,,,,,,,,,,,,,,,,,,,,,573883,001,2023-03-01_16h13.07.348,eb_01,2022.2.4,120.00829556849008,
,,,0,0,0,0,78,0,78,0,,,,,,,,,,,,,,,,,,,,,,,,,,,,,,,,,,,,,,,,,,,,,,,,,,,,,,,,,,,573883,001,2023-03-01_16h13.07.348,eb_01,2022.2.4,120.00829556849008,
4,stimuli/4.png,l,0,0,0,0,79,0,79,0,0,0,0,0,,,,,,,,,,,,,,,,,,256.33291848295994,256.33291848295994,256.33291848295994,256.33291848295994,l,1,0.5434396232594736,256.8996362940452,256.8996362940452,256.8996362940452,,,,,,,,,,,,,,,,,,,,,,,,,,,,573883,001,2023-03-01_16h13.07.348,eb_01,2022.2.4,120.00829556849008,
,,,0,0,0,0,79,0,79,0,,,,,,,,,,,,,,,,,,,,,,,,,,,,,,,,,,,,,,,,,,,,,,,,,,,,,,,,,,,573883,001,2023-03-01_16h13.07.348,eb_01,2022.2.4,120.00829556849008,
1,stimuli/1.png,s,0,0,0,0,80,0,80,0,0,0,0,0,,,,,,,,,,,,,,,,,,257.92478842178025,257.92478842178025,257.92478842178025,257.92478842178025,s,1,0.5596447474999877,258.51652312924125,258.51652312924125,258.51652312924125,,,,,,,,,,,,,,,,,,,,,,,,,,,,573883,001,2023-03-01_16h13.07.348,eb_01,2022.2.4,120.00829556849008,
,,,0,0,0,0,80,0,80,0,,,,,,,,,,,,,,,,,,,,,,,,,,,,,,,,,,,,,,,,,,,,,,,,,,,,,,,,,,,573883,001,2023-03-01_16h13.07.348,eb_01,2022.2.4,120.00829556849008,
2,stimuli/2.png,s,0,0,0,0,81,0,81,0,0,0,0,0,,,,,,,,,,,,,,,,,,259.5166103655465,259.5166103655465,259.5166103655465,259.5166103655465,s,1,0.543893010548345,260.0750054107666,260.0750054107666,260.0750054107666,261.0917490456086,261.0917490456086,261.0917490456086,,,,,,,,,,,,,,,,,,,,,,,,,573883,001,2023-03-01_16h13.07.348,eb_01,2022.2.4,120.00829556849008,
,,,0,0,0,0,81,0,81,0,,,,,,,,,,,,,,,,,,,,,,,,,,,,,,,,,,,,,,,,,,,,,,,,,,,,,,,,,,,573883,001,2023-03-01_16h13.07.348,eb_01,2022.2.4,120.00829556849008,
4,stimuli/4.png,l,0,0,0,0,82,0,82,0,0,0,0,0,,,,,,,,,,,,,,,,,,261.0917490456086,261.0917490456086,261.0917490456086,261.0917490456086,l,1,0.5118842301671975,261.62518424518566,261.62518424518566,261.62518424518566,,,,,,,,,,,,,,,,,,,,,,,,,,,,573883,001,2023-03-01_16h13.07.348,eb_01,2022.2.4,120.00829556849008,
,,,0,0,0,0,82,0,82,0,,,,,,,,,,,,,,,,,,,,,,,,,,,,,,,,,,,,,,,,,,,,,,,,,,,,,,,,,,,573883,001,2023-03-01_16h13.07.348,eb_01,2022.2.4,120.00829556849008,
2,stimuli/2.png,s,0,0,0,0,83,0,83,0,0,0,0,0,,,,,,,,,,,,,,,,,,262.63358760653136,262.63358760653136,262.63358760653136,262.63358760653136,s,1,0.49001900935036247,263.1336420914886,263.1336420914886,263.1336420914886,264.150443682629,264.150443682629,264.150443682629,,,,,,,,,,,,,,,,,,,,,,,,,573883,001,2023-03-01_16h13.07.348,eb_01,2022.2.4,120.00829556849008,
,,,0,0,0,0,83,0,83,0,,,,,,,,,,,,,,,,,,,,,,,,,,,,,,,,,,,,,,,,,,,,,,,,,,,,,,,,,,,573883,001,2023-03-01_16h13.07.348,eb_01,2022.2.4,120.00829556849008,
4,stimuli/4.png,l,0,0,0,0,84,0,84,0,0,0,0,0,,,,,,,,,,,,,,,,,,264.150443682629,264.150443682629,264.150443682629,264.150443682629,l,1,0.5332459556484537,264.70048668197705,264.70048668197705,264.70048668197705,,,,,,,,,,,,,,,,,,,,,,,,,,,,573883,001,2023-03-01_16h13.07.348,eb_01,2022.2.4,120.00829556849008,
,,,0,0,0,0,84,0,84,0,,,,,,,,,,,,,,,,,,,,,,,,,,,,,,,,,,,,,,,,,,,,,,,,,,,,,,,,,,,573883,001,2023-03-01_16h13.07.348,eb_01,2022.2.4,120.00829556849008,
3,stimuli/3.png,l,0,0,0,0,85,0,85,0,0,0,0,0,,,,,,,,,,,,,,,,,,265.70894196250447,265.70894196250447,265.70894196250447,265.70894196250447,l,1,0.4948293820780236,266.21728902775794,266.21728902775794,266.21728902775794,267.2340876003436,267.2340876003436,267.2340876003436,,,,,,,,,,,,,,,,,,,,,,,,,573883,001,2023-03-01_16h13.07.348,eb_01,2022.2.4,120.00829556849008,
,,,0,0,0,0,85,0,85,0,,,,,,,,,,,,,,,,,,,,,,,,,,,,,,,,,,,,,,,,,,,,,,,,,,,,,,,,,,,573883,001,2023-03-01_16h13.07.348,eb_01,2022.2.4,120.00829556849008,
4,stimuli/4.png,l,0,0,0,0,86,0,86,0,0,0,0,0,,,,,,,,,,,,,,,,,,267.2340876003436,267.2340876003436,267.2340876003436,267.2340876003436,l,1,0.4657217370113358,267.7174935350049,267.7174935350049,267.7174935350049,,,,,,,,,,,,,,,,,,,,,,,,,,,,573883,001,2023-03-01_16h13.07.348,eb_01,2022.2.4,120.00829556849008,
,,,0,0,0,0,86,0,86,0,,,,,,,,,,,,,,,,,,,,,,,,,,,,,,,,,,,,,,,,,,,,,,,,,,,,,,,,,,,573883,001,2023-03-01_16h13.07.348,eb_01,2022.2.4,120.00829556849008,
3,stimuli/3.png,l,0,0,0,0,87,0,87,0,0,0,0,0,,,,,,,,,,,,,,,,,,268.725904140887,268.725904140887,268.725904140887,268.725904140887,l,1,0.4459613561120932,269.19262681185137,269.19262681185137,269.19262681185137,,,,,,,,,,,,,,,,,,,,,,,,,,,,573883,001,2023-03-01_16h13.07.348,eb_01,2022.2.4,120.00829556849008,
,,,0,0,0,0,87,0,87,0,,,,,,,,,,,,,,,,,,,,,,,,,,,,,,,,,,,,,,,,,,,,,,,,,,,,,,,,,,,573883,001,2023-03-01_16h13.07.348,eb_01,2022.2.4,120.00829556849008,
4,stimuli/4.png,l,0,0,0,0,88,0,88,0,0,0,0,0,,,,,,,,,,,,,,,,,,270.20941180092996,270.20941180092996,270.20941180092996,270.20941180092996,l,1,0.4585342504979053,270.6844092427018,270.6844092427018,270.6844092427018,,,,,,,,,,,,,,,,,,,,,,,,,,,,573883,001,2023-03-01_16h13.07.348,eb_01,2022.2.4,120.00829556849008,
,,,0,0,0,0,88,0,88,0,,,,,,,,,,,,,,,,,,,,,,,,,,,,,,,,,,,,,,,,,,,,,,,,,,,,,,,,,,,573883,001,2023-03-01_16h13.07.348,eb_01,2022.2.4,120.00829556849008,
3,stimuli/3.png,l,0,0,0,0,89,0,89,0,0,0,0,0,,,,,,,,,,,,,,,,,,271.69289923663746,271.69289923663746,271.69289923663746,271.69289923663746,l,1,0.3990946335652552,272.1012490487774,272.1012490487774,272.1012490487774,273.10971368683386,273.10971368683386,273.10971368683386,,,,,,,,,,,,,,,,,,,,,,,,,573883,001,2023-03-01_16h13.07.348,eb_01,2022.2.4,120.00829556849008,
,,,0,0,0,0,89,0,89,0,,,,,,,,,,,,,,,,,,,,,,,,,,,,,,,,,,,,,,,,,,,,,,,,,,,,,,,,,,,573883,001,2023-03-01_16h13.07.348,eb_01,2022.2.4,120.00829556849008,
8,stimuli/8.png,l,0,0,0,0,90,0,90,0,0,0,0,0,,,,,,,,,,,,,,,,,,273.10971368683386,273.10971368683386,273.10971368683386,273.10971368683386,l,1,0.5343196564390382,273.66813680463383,273.66813680463383,273.66813680463383,,,,,,,,,,,,,,,,,,,,,,,,,,,,573883,001,2023-03-01_16h13.07.348,eb_01,2022.2.4,120.00829556849008,
,,,0,0,0,0,90,0,90,0,,,,,,,,,,,,,,,,,,,,,,,,,,,,,,,,,,,,,,,,,,,,,,,,,,,,,,,,,,,573883,001,2023-03-01_16h13.07.348,eb_01,2022.2.4,120.00829556849008,
3,stimuli/3.png,l,0,0,0,0,91,0,91,0,0,0,0,0,,,,,,,,,,,,,,,,,,274.67656823856305,274.67656823856305,274.67656823856305,274.67656823856305,l,1,0.48755073514257674,275.17662091238526,275.17662091238526,275.17662091238526,276.18504781847514,276.18504781847514,276.18504781847514,,,,,,,,,,,,,,,,,,,,,,,,,573883,001,2023-03-01_16h13.07.348,eb_01,2022.2.4,120.00829556849008,
,,,0,0,0,0,91,0,91,0,,,,,,,,,,,,,,,,,,,,,,,,,,,,,,,,,,,,,,,,,,,,,,,,,,,,,,,,,,,573883,001,2023-03-01_16h13.07.348,eb_01,2022.2.4,120.00829556849008,
8,stimuli/8.png,l,0,0,0,0,92,0,92,0,0,0,0,0,,,,,,,,,,,,,,,,,,276.18504781847514,276.18504781847514,276.18504781847514,276.18504781847514,l,1,0.41114863796610734,276.61840305647274,276.61840305647274,276.61840305647274,,,,,,,,,,,,,,,,,,,,,,,,,,,,573883,001,2023-03-01_16h13.07.348,eb_01,2022.2.4,120.00829556849008,
,,,0,0,0,0,92,0,92,0,,,,,,,,,,,,,,,,,,,,,,,,,,,,,,,,,,,,,,,,,,,,,,,,,,,,,,,,,,,573883,001,2023-03-01_16h13.07.348,eb_01,2022.2.4,120.00829556849008,
9,stimuli/9.png,l,0,0,0,0,93,0,93,0,0,0,0,0,,,,,,,,,,,,,,,,,,277.6352079680255,277.6352079680255,277.6352079680255,277.6352079680255,l,1,0.48002879249543184,278.14355322214396,278.14355322214396,278.14355322214396,,,,,,,,,,,,,,,,,,,,,,,,,,,,573883,001,2023-03-01_16h13.07.348,eb_01,2022.2.4,120.00829556849008,
,,,0,0,0,0,93,0,93,0,,,,,,,,,,,,,,,,,,,,,,,,,,,,,,,,,,,,,,,,,,,,,,,,,,,,,,,,,,,573883,001,2023-03-01_16h13.07.348,eb_01,2022.2.4,120.00829556849008,
6,stimuli/6.png,s,0,0,0,0,94,0,94,0,0,0,0,0,,,,,,,,,,,,,,,,,,279.16035088916396,279.16035088916396,279.16035088916396,279.16035088916396,s,1,0.4909448008365871,279.6770868266867,279.6770868266867,279.6770868266867,,,,,,,,,,,,,,,,,,,,,,,,,,,,573883,001,2023-03-01_16h13.07.348,eb_01,2022.2.4,120.00829556849008,
,,,0,0,0,0,94,0,94,0,,,,,,,,,,,,,,,,,,,,,,,,,,,,,,,,,,,,,,,,,,,,,,,,,,,,,,,,,,,573883,001,2023-03-01_16h13.07.348,eb_01,2022.2.4,120.00829556849008,
8,stimuli/8.png,l,0,0,0,0,95,0,95,0,0,0,0,0,,,,,,,,,,,,,,,,,,280.6855161476233,280.6855161476233,280.6855161476233,280.6855161476233,l,1,0.4778536201847601,281.185591762478,281.185591762478,281.185591762478,,,,,,,,,,,,,,,,,,,,,,,,,,,,573883,001,2023-03-01_16h13.07.348,eb_01,2022.2.4,120.00829556849008,
,,,0,0,0,0,95,0,95,0,,,,,,,,,,,,,,,,,,,,,,,,,,,,,,,,,,,,,,,,,,,,,,,,,,,,,,,,,,,573883,001,2023-03-01_16h13.07.348,eb_01,2022.2.4,120.00829556849008,
3,stimuli/3.png,l,0,0,0,0,96,0,96,0,0,0,0,0,,,,,,,,,,,,,,,,,,282.1940017646484,282.1940017646484,282.1940017646484,282.1940017646484,l,1,0.4974283598130569,282.7024303309481,282.7024303309481,282.7024303309481,283.719160382283,283.719160382283,283.719160382283,,,,,,,,,,,,,,,,,,,,,,,,,573883,001,2023-03-01_16h13.07.348,eb_01,2022.2.4,120.00829556849008,
,,,0,0,0,0,96,0,96,0,,,,,,,,,,,,,,,,,,,,,,,,,,,,,,,,,,,,,,,,,,,,,,,,,,,,,,,,,,,573883,001,2023-03-01_16h13.07.348,eb_01,2022.2.4,120.00829556849008,
4,stimuli/4.png,l,0,0,0,0,97,0,97,0,0,0,0,0,,,,,,,,,,,,,,,,,,283.719160382283,283.719160382283,283.719160382283,283.719160382283,l,1,0.4763183820032282,284.21922754518164,284.21922754518164,284.21922754518164,,,,,,,,,,,,,,,,,,,,,,,,,,,,573883,001,2023-03-01_16h13.07.348,eb_01,2022.2.4,120.00829556849008,
,,,0,0,0,0,97,0,97,0,,,,,,,,,,,,,,,,,,,,,,,,,,,,,,,,,,,,,,,,,,,,,,,,,,,,,,,,,,,573883,001,2023-03-01_16h13.07.348,eb_01,2022.2.4,120.00829556849008,
3,stimuli/3.png,l,0,0,0,0,98,0,98,0,0,0,0,0,,,,,,,,,,,,,,,,,,285.22769822035116,285.22769822035116,285.22769822035116,285.22769822035116,l,1,0.3358395603536337,285.57768966273943,285.57768966273943,285.57768966273943,286.5944879334711,286.5944879334711,286.5944879334711,,,,,,,,,,,,,,,,,,,,,,,,,573883,001,2023-03-01_16h13.07.348,eb_01,2022.2.4,120.00829556849008,
,,,0,0,0,0,98,0,98,0,,,,,,,,,,,,,,,,,,,,,,,,,,,,,,,,,,,,,,,,,,,,,,,,,,,,,,,,,,,573883,001,2023-03-01_16h13.07.348,eb_01,2022.2.4,120.00829556849008,
4,stimuli/4.png,l,0,0,0,0,99,0,99,0,0,0,0,0,,,,,,,,,,,,,,,,,,286.5944879334711,286.5944879334711,286.5944879334711,286.5944879334711,l,1,0.5131100662401877,287.1278449524143,287.1278449524143,287.1278449524143,,,,,,,,,,,,,,,,,,,,,,,,,,,,573883,001,2023-03-01_16h13.07.348,eb_01,2022.2.4,120.00829556849008,
,,,0,0,0,0,99,0,99,0,,,,,,,,,,,,,,,,,,,,,,,,,,,,,,,,,,,,,,,,,,,,,,,,,,,,,,,,,,,573883,001,2023-03-01_16h13.07.348,eb_01,2022.2.4,120.00829556849008,
,,,0,0,0,0,,,,,,,,,,,,,,,,,,,,,,,,,,,,,,,,,,,,,,,288.1279409425333,288.1279409425333,return,26.034777420634782,,,,,,,,,,,,,,,,,,,,,573883,001,2023-03-01_16h13.07.348,eb_01,2022.2.4,120.00829556849008,
1,stimuli/1.png,s,1,0,1,0,0,0,0,0,0,0,0,0,,,,,,,,,,,,,,,,,,314.1973906987987,314.1973906987987,314.1973906987987,314.1973906987987,s,1,1.141366900781577,315.3642154875524,315.3642154875524,315.3642154875524,,,,,,,,,,,,,,,,,,,,,,,,,,,,573883,001,2023-03-01_16h13.07.348,eb_01,2022.2.4,120.00829556849008,
,,,1,0,1,0,0,0,0,0,,,,,,,,,,,,,,,,,,,,,,,,,,,,,,,,,,,,,,,,,,,,,,,,,,,,,,,,,,,573883,001,2023-03-01_16h13.07.348,eb_01,2022.2.4,120.00829556849008,
4,stimuli/4.png,l,1,0,1,0,1,0,1,0,0,0,0,0,,,,,,,,,,,,,,,,,,316.37264511034664,316.37264511034664,316.37264511034664,316.37264511034664,l,1,0.5501752317577484,316.9393746938076,316.9393746938076,316.9393746938076,,,,,,,,,,,,,,,,,,,,,,,,,,,,573883,001,2023-03-01_16h13.07.348,eb_01,2022.2.4,120.00829556849008,
,,,1,0,1,0,1,0,1,0,,,,,,,,,,,,,,,,,,,,,,,,,,,,,,,,,,,,,,,,,,,,,,,,,,,,,,,,,,,573883,001,2023-03-01_16h13.07.348,eb_01,2022.2.4,120.00829556849008,
2,stimuli/2.png,s,1,0,1,0,2,0,2,0,0,0,0,0,,,,,,,,,,,,,,,,,,317.9478402374298,317.9478402374298,317.9478402374298,317.9478402374298,s,1,0.5110622770480404,318.4728944129856,318.4728944129856,318.4728944129856,319.49800216792937,319.49800216792937,319.49800216792937,,,,,,,,,,,,,,,,,,,,,,,,,573883,001,2023-03-01_16h13.07.348,eb_01,2022.2.4,120.00829556849008,
,,,1,0,1,0,2,0,2,0,,,,,,,,,,,,,,,,,,,,,,,,,,,,,,,,,,,,,,,,,,,,,,,,,,,,,,,,,,,573883,001,2023-03-01_16h13.07.348,eb_01,2022.2.4,120.00829556849008,
1,stimuli/1.png,s,1,0,1,0,3,0,3,0,0,0,0,0,,,,,,,,,,,,,,,,,,319.49800216792937,319.49800216792937,319.49800216792937,319.49800216792937,s,1,0.5449419591677724,320.0730611580839,320.0730611580839,320.0730611580839,,,,,,,,,,,,,,,,,,,,,,,,,,,,573883,001,2023-03-01_16h13.07.348,eb_01,2022.2.4,120.00829556849008,
,,,1,0,1,0,3,0,3,0,,,,,,,,,,,,,,,,,,,,,,,,,,,,,,,,,,,,,,,,,,,,,,,,,,,,,,,,,,,573883,001,2023-03-01_16h13.07.348,eb_01,2022.2.4,120.00829556849008,
4,stimuli/4.png,l,1,0,1,0,4,0,4,0,0,0,0,0,,,,,,,,,,,,,,,,,,321.0814823289147,321.0814823289147,321.0814823289147,321.0814823289147,l,1,0.5855180085454776,321.6898818868758,321.6898818868758,321.6898818868758,,,,,,,,,,,,,,,,,,,,,,,,,,,,573883,001,2023-03-01_16h13.07.348,eb_01,2022.2.4,120.00829556849008,
,,,1,0,1,0,4,0,4,0,,,,,,,,,,,,,,,,,,,,,,,,,,,,,,,,,,,,,,,,,,,,,,,,,,,,,,,,,,,573883,001,2023-03-01_16h13.07.348,eb_01,2022.2.4,120.00829556849008,
3,stimuli/3.png,l,1,0,1,0,5,0,5,0,0,0,0,0,,,,,,,,,,,,,,,,,,322.6983347525602,322.6983347525602,322.6983347525602,322.6983347525602,l,1,0.504764661192894,323.223383192857,323.223383192857,323.223383192857,,,,,,,,,,,,,,,,,,,,,,,,,,,,573883,001,2023-03-01_16h13.07.348,eb_01,2022.2.4,120.00829556849008,
,,,1,0,1,0,5,0,5,0,,,,,,,,,,,,,,,,,,,,,,,,,,,,,,,,,,,,,,,,,,,,,,,,,,,,,,,,,,,573883,001,2023-03-01_16h13.07.348,eb_01,2022.2.4,120.00829556849008,
8,stimuli/8.png,l,1,0,1,0,6,0,6,0,0,0,0,0,,,,,,,,,,,,,,,,,,324.2318209657533,324.2318209657533,324.2318209657533,324.2318209657533,l,1,0.5223254194679612,324.7735152396417,324.7735152396417,324.7735152396417,,,,,,,,,,,,,,,,,,,,,,,,,,,,573883,001,2023-03-01_16h13.07.348,eb_01,2022.2.4,120.00829556849008,
,,,1,0,1,0,6,0,6,0,,,,,,,,,,,,,,,,,,,,,,,,,,,,,,,,,,,,,,,,,,,,,,,,,,,,,,,,,,,573883,001,2023-03-01_16h13.07.348,eb_01,2022.2.4,120.00829556849008,
3,stimuli/3.png,l,1,0,1,0,7,0,7,0,0,0,0,0,,,,,,,,,,,,,,,,,,325.78198380181857,325.78198380181857,325.78198380181857,325.78198380181857,l,1,0.46824766565987375,326.2653782659654,326.2653782659654,326.2653782659654,327.273809398037,327.273809398037,327.273809398037,,,,,,,,,,,,,,,,,,,,,,,,,573883,001,2023-03-01_16h13.07.348,eb_01,2022.2.4,120.00829556849008,
,,,1,0,1,0,7,0,7,0,,,,,,,,,,,,,,,,,,,,,,,,,,,,,,,,,,,,,,,,,,,,,,,,,,,,,,,,,,,573883,001,2023-03-01_16h13.07.348,eb_01,2022.2.4,120.00829556849008,
2,stimuli/2.png,s,1,0,1,0,8,0,8,0,0,0,0,0,,,,,,,,,,,,,,,,,,327.273809398037,327.273809398037,327.273809398037,327.273809398037,s,1,0.5524442811947665,327.84053898149796,327.84053898149796,327.84053898149796,328.86566696077716,328.86566696077716,328.86566696077716,,,,,,,,,,,,,,,,,,,,,,,,,573883,001,2023-03-01_16h13.07.348,eb_01,2022.2.4,120.00829556849008,
,,,1,0,1,0,8,0,8,0,,,,,,,,,,,,,,,,,,,,,,,,,,,,,,,,,,,,,,,,,,,,,,,,,,,,,,,,,,,573883,001,2023-03-01_16h13.07.348,eb_01,2022.2.4,120.00829556849008,
1,stimuli/1.png,s,1,0,1,0,9,0,9,0,0,0,0,0,,,,,,,,,,,,,,,,,,328.86566696077716,328.86566696077716,328.86566696077716,328.86566696077716,s,1,0.5446642519091256,329.4407153859793,329.4407153859793,329.4407153859793,,,,,,,,,,,,,,,,,,,,,,,,,,,,573883,001,2023-03-01_16h13.07.348,eb_01,2022.2.4,120.00829556849008,
,,,1,0,1,0,9,0,9,0,,,,,,,,,,,,,,,,,,,,,,,,,,,,,,,,,,,,,,,,,,,,,,,,,,,,,,,,,,,573883,001,2023-03-01_16h13.07.348,eb_01,2022.2.4,120.00829556849008,
4,stimuli/4.png,l,1,0,1,0,10,0,10,0,0,0,0,0,,,,,,,,,,,,,,,,,,330.4491253881497,330.4491253881497,330.4491253881497,330.4491253881497,l,1,0.6172750412588357,331.090859778662,331.090859778662,331.090859778662,,,,,,,,,,,,,,,,,,,,,,,,,,,,573883,001,2023-03-01_16h13.07.348,eb_01,2022.2.4,120.00829556849008,
,,,1,0,1,0,10,0,10,0,,,,,,,,,,,,,,,,,,,,,,,,,,,,,,,,,,,,,,,,,,,,,,,,,,,,,,,,,,,573883,001,2023-03-01_16h13.07.348,eb_01,2022.2.4,120.00829556849008,
2,stimuli/2.png,s,1,0,1,0,11,0,11,0,0,0,0,0,,,,,,,,,,,,,,,,,,332.0993238130068,332.0993238130068,332.0993238130068,332.0993238130068,s,1,0.5831399891976616,332.69102773118357,332.69102773118357,332.69102773118357,333.70783717057566,333.70783717057566,333.70783717057566,,,,,,,,,,,,,,,,,,,,,,,,,573883,001,2023-03-01_16h13.07.348,eb_01,2022.2.4,120.00829556849008,
,,,1,0,1,0,11,0,11,0,,,,,,,,,,,,,,,,,,,,,,,,,,,,,,,,,,,,,,,,,,,,,,,,,,,,,,,,,,,573883,001,2023-03-01_16h13.07.348,eb_01,2022.2.4,120.00829556849008,
4,stimuli/4.png,l,1,0,1,0,12,0,12,0,0,0,0,0,,,,,,,,,,,,,,,,,,333.70783717057566,333.70783717057566,333.70783717057566,333.70783717057566,l,1,0.8306897508700786,334.557912679782,334.557912679782,334.557912679782,,,,,,,,,,,,,,,,,,,,,,,,,,,,573883,001,2023-03-01_16h13.07.348,eb_01,2022.2.4,120.00829556849008,
,,,1,0,1,0,12,0,12,0,,,,,,,,,,,,,,,,,,,,,,,,,,,,,,,,,,,,,,,,,,,,,,,,,,,,,,,,,,,573883,001,2023-03-01_16h13.07.348,eb_01,2022.2.4,120.00829556849008,
2,stimuli/2.png,s,1,0,1,0,13,0,13,0,0,0,0,0,,,,,,,,,,,,,,,,,,335.56633354875885,335.56633354875885,335.56633354875885,335.56633354875885,s,1,0.5322818284839741,336.10809362719374,336.10809362719374,336.10809362719374,337.1165458891628,337.1165458891628,337.1165458891628,,,,,,,,,,,,,,,,,,,,,,,,,573883,001,2023-03-01_16h13.07.348,eb_01,2022.2.4,120.00829556849008,
,,,1,0,1,0,13,0,13,0,,,,,,,,,,,,,,,,,,,,,,,,,,,,,,,,,,,,,,,,,,,,,,,,,,,,,,,,,,,573883,001,2023-03-01_16h13.07.348,eb_01,2022.2.4,120.00829556849008,
3,stimuli/3.png,l,1,0,1,0,14,0,14,0,0,0,0,0,,,,,,,,,,,,,,,,,,337.1165458891628,337.1165458891628,337.1165458891628,337.1165458891628,l,1,0.5101117333906586,337.641600970288,337.641600970288,337.641600970288,338.6583313234769,338.6583313234769,338.6583313234769,,,,,,,,,,,,,,,,,,,,,,,,,573883,001,2023-03-01_16h13.07.348,eb_01,2022.2.4,120.00829556849008,
,,,1,0,1,0,14,0,14,0,,,,,,,,,,,,,,,,,,,,,,,,,,,,,,,,,,,,,,,,,,,,,,,,,,,,,,,,,,,573883,001,2023-03-01_16h13.07.348,eb_01,2022.2.4,120.00829556849008,
4,stimuli/4.png,l,1,0,1,0,15,0,15,0,0,0,0,0,,,,,,,,,,,,,,,,,,338.6583313234769,338.6583313234769,338.6583313234769,338.6583313234769,l,1,0.5514662686655356,339.23343800683506,339.23343800683506,339.23343800683506,,,,,,,,,,,,,,,,,,,,,,,,,,,,573883,001,2023-03-01_16h13.07.348,eb_01,2022.2.4,120.00829556849008,
,,,1,0,1,0,15,0,15,0,,,,,,,,,,,,,,,,,,,,,,,,,,,,,,,,,,,,,,,,,,,,,,,,,,,,,,,,,,,573883,001,2023-03-01_16h13.07.348,eb_01,2022.2.4,120.00829556849008,
3,stimuli/3.png,l,1,0,1,0,16,0,16,0,0,0,0,0,,,,,,,,,,,,,,,,,,340.2418700444723,340.2418700444723,340.2418700444723,340.2418700444723,l,1,0.48789817107171984,340.75022133570747,340.75022133570747,340.75022133570747,,,,,,,,,,,,,,,,,,,,,,,,,,,,573883,001,2023-03-01_16h13.07.348,eb_01,2022.2.4,120.00829556849008,
,,,1,0,1,0,16,0,16,0,,,,,,,,,,,,,,,,,,,,,,,,,,,,,,,,,,,,,,,,,,,,,,,,,,,,,,,,,,,573883,001,2023-03-01_16h13.07.348,eb_01,2022.2.4,120.00829556849008,
2,stimuli/2.png,s,1,0,1,0,17,0,17,0,0,0,0,0,,,,,,,,,,,,,,,,,,341.75866997541016,341.75866997541016,341.75866997541016,341.75866997541016,s,1,0.5551935830771981,342.32541253866657,342.32541253866657,342.32541253866657,343.35051938804463,343.35051938804463,343.35051938804463,,,,,,,,,,,,,,,,,,,,,,,,,573883,001,2023-03-01_16h13.07.348,eb_01,2022.2.4,120.00829556849008,
,,,1,0,1,0,17,0,17,0,,,,,,,,,,,,,,,,,,,,,,,,,,,,,,,,,,,,,,,,,,,,,,,,,,,,,,,,,,,573883,001,2023-03-01_16h13.07.348,eb_01,2022.2.4,120.00829556849008,
1,stimuli/1.png,s,1,0,1,0,18,0,18,0,0,0,0,0,,,,,,,,,,,,,,,,,,343.35051938804463,343.35051938804463,343.35051938804463,343.35051938804463,s,1,0.539415282823029,343.9172716106841,343.9172716106841,343.9172716106841,,,,,,,,,,,,,,,,,,,,,,,,,,,,573883,001,2023-03-01_16h13.07.348,eb_01,2022.2.4,120.00829556849008,
,,,1,0,1,0,18,0,18,0,,,,,,,,,,,,,,,,,,,,,,,,,,,,,,,,,,,,,,,,,,,,,,,,,,,,,,,,,,,573883,001,2023-03-01_16h13.07.348,eb_01,2022.2.4,120.00829556849008,
4,stimuli/4.png,l,1,0,1,0,19,0,19,0,0,0,0,0,,,,,,,,,,,,,,,,,,344.9256625959424,344.9256625959424,344.9256625959424,344.9256625959424,l,1,0.5403157184300653,345.4841029195195,345.4841029195195,345.4841029195195,,,,,,,,,,,,,,,,,,,,,,,,,,,,573883,001,2023-03-01_16h13.07.348,eb_01,2022.2.4,120.00829556849008,
,,,1,0,1,0,19,0,19,0,,,,,,,,,,,,,,,,,,,,,,,,,,,,,,,,,,,,,,,,,,,,,,,,,,,,,,,,,,,573883,001,2023-03-01_16h13.07.348,eb_01,2022.2.4,120.00829556849008,
1,stimuli/1.png,s,1,0,1,0,20,0,20,0,0,0,0,0,,,,,,,,,,,,,,,,,,346.50921218374424,346.50921218374424,346.50921218374424,346.50921218374424,s,1,0.5488860059849685,347.0842548736873,347.0842548736873,347.0842548736873,,,,,,,,,,,,,,,,,,,,,,,,,,,,573883,001,2023-03-01_16h13.07.348,eb_01,2022.2.4,120.00829556849008,
,,,1,0,1,0,20,0,20,0,,,,,,,,,,,,,,,,,,,,,,,,,,,,,,,,,,,,,,,,,,,,,,,,,,,,,,,,,,,573883,001,2023-03-01_16h13.07.348,eb_01,2022.2.4,120.00829556849008,
2,stimuli/2.png,s,1,0,1,0,21,0,21,0,0,0,0,0,,,,,,,,,,,,,,,,,,348.08436203246674,348.08436203246674,348.08436203246674,348.08436203246674,s,1,0.6457321872512694,348.742747086264,348.742747086264,348.742747086264,349.7512512674184,349.7512512674184,349.7512512674184,,,,,,,,,,,,,,,,,,,,,,,,,573883,001,2023-03-01_16h13.07.348,eb_01,2022.2.4,120.00829556849008,
,,,1,0,1,0,21,0,21,0,,,,,,,,,,,,,,,,,,,,,,,,,,,,,,,,,,,,,,,,,,,,,,,,,,,,,,,,,,,573883,001,2023-03-01_16h13.07.348,eb_01,2022.2.4,120.00829556849008,
3,stimuli/3.png,l,1,0,1,0,22,0,22,0,0,0,0,0,,,,,,,,,,,,,,,,,,349.7512512674184,349.7512512674184,349.7512512674184,349.7512512674184,l,1,0.5389377470746695,350.3096088825296,350.3096088825296,350.3096088825296,,,,,,,,,,,,,,,,,,,,,,,,,,,,573883,001,2023-03-01_16h13.07.348,eb_01,2022.2.4,120.00829556849008,
,,,1,0,1,0,22,0,22,0,,,,,,,,,,,,,,,,,,,,,,,,,,,,,,,,,,,,,,,,,,,,,,,,,,,,,,,,,,,573883,001,2023-03-01_16h13.07.348,eb_01,2022.2.4,120.00829556849008,
4,stimuli/4.png,l,1,0,1,0,23,0,23,0,0,0,0,0,,,,,,,,,,,,,,,,,,351.3263467821125,351.3263467821125,351.3263467821125,351.3263467821125,l,1,0.5879346654292021,351.93476897925575,351.93476897925575,351.93476897925575,,,,,,,,,,,,,,,,,,,,,,,,,,,,573883,001,2023-03-01_16h13.07.348,eb_01,2022.2.4,120.00829556849008,
,,,1,0,1,0,23,0,23,0,,,,,,,,,,,,,,,,,,,,,,,,,,,,,,,,,,,,,,,,,,,,,,,,,,,,,,,,,,,573883,001,2023-03-01_16h13.07.348,eb_01,2022.2.4,120.00829556849008,
1,stimuli/1.png,s,1,0,1,0,24,0,24,0,0,0,0,0,,,,,,,,,,,,,,,,,,352.95155336462267,352.95155336462267,352.95155336462267,352.95155336462267,s,1,0.5627737838767644,353.5433221817766,353.5433221817766,353.5433221817766,,,,,,,,,,,,,,,,,,,,,,,,,,,,573883,001,2023-03-01_16h13.07.348,eb_01,2022.2.4,120.00829556849008,
,,,1,0,1,0,24,0,24,0,,,,,,,,,,,,,,,,,,,,,,,,,,,,,,,,,,,,,,,,,,,,,,,,,,,,,,,,,,,573883,001,2023-03-01_16h13.07.348,eb_01,2022.2.4,120.00829556849008,
4,stimuli/4.png,l,1,0,1,0,25,0,25,0,0,0,0,0,,,,,,,,,,,,,,,,,,354.5517173930202,354.5517173930202,354.5517173930202,354.5517173930202,l,1,0.5227157189110585,355.0934180058757,355.0934180058757,355.0934180058757,,,,,,,,,,,,,,,,,,,,,,,,,,,,573883,001,2023-03-01_16h13.07.348,eb_01,2022.2.4,120.00829556849008,
,,,1,0,1,0,25,0,25,0,,,,,,,,,,,,,,,,,,,,,,,,,,,,,,,,,,,,,,,,,,,,,,,,,,,,,,,,,,,573883,001,2023-03-01_16h13.07.348,eb_01,2022.2.4,120.00829556849008,
1,stimuli/1.png,s,1,0,1,0,26,0,26,0,0,0,0,0,,,,,,,,,,,,,,,,,,356.1185764725815,356.1185764725815,356.1185764725815,356.1185764725815,s,1,0.43487691228074254,356.58526925983097,356.58526925983097,356.58526925983097,,,,,,,,,,,,,,,,,,,,,,,,,,,,573883,001,2023-03-01_16h13.07.348,eb_01,2022.2.4,120.00829556849008,
,,,1,0,1,0,26,0,26,0,,,,,,,,,,,,,,,,,,,,,,,,,,,,,,,,,,,,,,,,,,,,,,,,,,,,,,,,,,,573883,001,2023-03-01_16h13.07.348,eb_01,2022.2.4,120.00829556849008,
2,stimuli/2.png,s,1,0,1,0,27,0,27,0,0,0,0,0,,,,,,,,,,,,,,,,,,357.58537521118706,357.58537521118706,357.58537521118706,357.58537521118706,s,1,0.5681926977340481,358.16874640225797,358.16874640225797,358.16874640225797,359.1938653258658,359.1938653258658,359.1938653258658,,,,,,,,,,,,,,,,,,,,,,,,,573883,001,2023-03-01_16h13.07.348,eb_01,2022.2.4,120.00829556849008,
,,,1,0,1,0,27,0,27,0,,,,,,,,,,,,,,,,,,,,,,,,,,,,,,,,,,,,,,,,,,,,,,,,,,,,,,,,,,,573883,001,2023-03-01_16h13.07.348,eb_01,2022.2.4,120.00829556849008,
1,stimuli/1.png,s,1,0,1,0,28,0,28,0,0,0,0,0,,,,,,,,,,,,,,,,,,359.1938653258658,359.1938653258658,359.1938653258658,359.1938653258658,s,1,0.5756916993450432,359.8022543188781,359.8022543188781,359.8022543188781,,,,,,,,,,,,,,,,,,,,,,,,,,,,573883,001,2023-03-01_16h13.07.348,eb_01,2022.2.4,120.00829556849008,
,,,1,0,1,0,28,0,28,0,,,,,,,,,,,,,,,,,,,,,,,,,,,,,,,,,,,,,,,,,,,,,,,,,,,,,,,,,,,573883,001,2023-03-01_16h13.07.348,eb_01,2022.2.4,120.00829556849008,
4,stimuli/4.png,l,1,0,1,0,29,0,29,0,0,0,0,0,,,,,,,,,,,,,,,,,,360.8107183532229,360.8107183532229,360.8107183532229,360.8107183532229,l,1,0.48692981792555656,361.31912669518715,361.31912669518715,361.31912669518715,,,,,,,,,,,,,,,,,,,,,,,,,,,,573883,001,2023-03-01_16h13.07.348,eb_01,2022.2.4,120.00829556849008,
,,,1,0,1,0,29,0,29,0,,,,,,,,,,,,,,,,,,,,,,,,,,,,,,,,,,,,,,,,,,,,,,,,,,,,,,,,,,,573883,001,2023-03-01_16h13.07.348,eb_01,2022.2.4,120.00829556849008,
3,stimuli/3.png,l,1,0,1,0,30,0,30,0,0,0,0,0,,,,,,,,,,,,,,,,,,362.327551790142,362.327551790142,362.327551790142,362.327551790142,l,1,0.39411582534739864,362.73588530207417,362.73588530207417,362.73588530207417,363.75270470270334,363.75270470270334,363.75270470270334,,,,,,,,,,,,,,,,,,,,,,,,,573883,001,2023-03-01_16h13.07.348,eb_01,2022.2.4,120.00829556849008,
,,,1,0,1,0,30,0,30,0,,,,,,,,,,,,,,,,,,,,,,,,,,,,,,,,,,,,,,,,,,,,,,,,,,,,,,,,,,,573883,001,2023-03-01_16h13.07.348,eb_01,2022.2.4,120.00829556849008,
4,stimuli/4.png,l,1,0,1,0,31,0,31,0,0,0,0,0,,,,,,,,,,,,,,,,,,363.75270470270334,363.75270470270334,363.75270470270334,363.75270470270334,l,1,0.4810415184292651,364.25274409487247,364.25274409487247,364.25274409487247,,,,,,,,,,,,,,,,,,,,,,,,,,,,573883,001,2023-03-01_16h13.07.348,eb_01,2022.2.4,120.00829556849008,
,,,1,0,1,0,31,0,31,0,,,,,,,,,,,,,,,,,,,,,,,,,,,,,,,,,,,,,,,,,,,,,,,,,,,,,,,,,,,573883,001,2023-03-01_16h13.07.348,eb_01,2022.2.4,120.00829556849008,
3,stimuli/3.png,l,1,0,1,0,32,0,32,0,0,0,0,0,,,,,,,,,,,,,,,,,,365.2612029976699,365.2612029976699,365.2612029976699,365.2612029976699,l,1,0.32460841463762335,365.6028906911015,365.6028906911015,365.6028906911015,,,,,,,,,,,,,,,,,,,,,,,,,,,,573883,001,2023-03-01_16h13.07.348,eb_01,2022.2.4,120.00829556849008,
,,,1,0,1,0,32,0,32,0,,,,,,,,,,,,,,,,,,,,,,,,,,,,,,,,,,,,,,,,,,,,,,,,,,,,,,,,,,,573883,001,2023-03-01_16h13.07.348,eb_01,2022.2.4,120.00829556849008,
2,stimuli/2.png,s,1,0,1,0,33,0,33,0,0,0,0,0,,,,,,,,,,,,,,,,,,366.611359253282,366.611359253282,366.611359253282,366.611359253282,s,1,0.6225261233339552,367.2447600111227,367.2447600111227,367.2447600111227,368.2614942884393,368.2614942884393,368.2614942884393,,,,,,,,,,,,,,,,,,,,,,,,,573883,001,2023-03-01_16h13.07.348,eb_01,2022.2.4,120.00829556849008,
,,,1,0,1,0,33,0,33,0,,,,,,,,,,,,,,,,,,,,,,,,,,,,,,,,,,,,,,,,,,,,,,,,,,,,,,,,,,,573883,001,2023-03-01_16h13.07.348,eb_01,2022.2.4,120.00829556849008,
4,stimuli/4.png,l,1,0,1,0,34,0,34,0,0,0,0,0,,,,,,,,,,,,,,,,,,368.2614942884393,368.2614942884393,368.2614942884393,368.2614942884393,s,0,0.44445207752505667,368.7282338633231,368.7282338633231,368.7282338633231,,,,,,,,,,,,,,,,,,,,,,,,,,,,573883,001,2023-03-01_16h13.07.348,eb_01,2022.2.4,120.00829556849008,
,,,1,0,1,0,34,0,34,0,,,,,,,,,,,,,,,,,,,,,,,,,,,,,,,,,,,,,,,,,,,,,,,,,,,,,,,,,,,573883,001,2023-03-01_16h13.07.348,eb_01,2022.2.4,120.00829556849008,
1,stimuli/1.png,s,1,0,1,0,35,0,35,0,0,0,0,0,,,,,,,,,,,,,,,,,,369.7533603333213,369.7533603333213,369.7533603333213,369.7533603333213,s,1,0.5686756668837916,370.35342354191016,370.35342354191016,370.35342354191016,,,,,,,,,,,,,,,,,,,,,,,,,,,,573883,001,2023-03-01_16h13.07.348,eb_01,2022.2.4,120.00829556849008,
,,,1,0,1,0,35,0,35,0,,,,,,,,,,,,,,,,,,,,,,,,,,,,,,,,,,,,,,,,,,,,,,,,,,,,,,,,,,,573883,001,2023-03-01_16h13.07.348,eb_01,2022.2.4,120.00829556849008,
4,stimuli/4.png,l,1,0,1,0,36,0,36,0,0,0,0,0,,,,,,,,,,,,,,,,,,371.361844410887,371.361844410887,371.361844410887,371.361844410887,l,1,0.44722613157500746,371.8285387074138,371.8285387074138,371.8285387074138,,,,,,,,,,,,,,,,,,,,,,,,,,,,573883,001,2023-03-01_16h13.07.348,eb_01,2022.2.4,120.00829556849008,
,,,1,0,1,0,36,0,36,0,,,,,,,,,,,,,,,,,,,,,,,,,,,,,,,,,,,,,,,,,,,,,,,,,,,,,,,,,,,573883,001,2023-03-01_16h13.07.348,eb_01,2022.2.4,120.00829556849008,
2,stimuli/2.png,s,1,0,1,0,37,0,37,0,0,0,0,0,,,,,,,,,,,,,,,,,,372.83701119371835,372.83701119371835,372.83701119371835,372.83701119371835,s,1,0.5801096596405841,373.42874258076336,373.42874258076336,373.42874258076336,374.43718216479465,374.43718216479465,374.43718216479465,,,,,,,,,,,,,,,,,,,,,,,,,573883,001,2023-03-01_16h13.07.348,eb_01,2022.2.4,120.00829556849008,
,,,1,0,1,0,37,0,37,0,,,,,,,,,,,,,,,,,,,,,,,,,,,,,,,,,,,,,,,,,,,,,,,,,,,,,,,,,,,573883,001,2023-03-01_16h13.07.348,eb_01,2022.2.4,120.00829556849008,
3,stimuli/3.png,l,1,0,1,0,38,0,38,0,0,0,0,0,,,,,,,,,,,,,,,,,,374.43718216479465,374.43718216479465,374.43718216479465,374.43718216479465,l,1,0.5960289265167376,375.04557779863535,375.04557779863535,375.04557779863535,376.0540028935902,376.0540028935902,376.0540028935902,,,,,,,,,,,,,,,,,,,,,,,,,573883,001,2023-03-01_16h13.07.348,eb_01,2022.2.4,120.00829556849008,
,,,1,0,1,0,38,0,38,0,,,,,,,,,,,,,,,,,,,,,,,,,,,,,,,,,,,,,,,,,,,,,,,,,,,,,,,,,,,573883,001,2023-03-01_16h13.07.348,eb_01,2022.2.4,120.00829556849008,
2,stimuli/2.png,s,1,0,1,0,39,0,39,0,0,0,0,0,,,,,,,,,,,,,,,,,,376.0540028935902,376.0540028935902,376.0540028935902,376.0540028935902,s,1,0.5792711044559837,376.64571888599676,376.64571888599676,376.64571888599676,377.6708710137318,377.6708710137318,377.6708710137318,,,,,,,,,,,,,,,,,,,,,,,,,573883,001,2023-03-01_16h13.07.348,eb_01,2022.2.4,120.00829556849008,
,,,1,0,1,0,39,0,39,0,,,,,,,,,,,,,,,,,,,,,,,,,,,,,,,,,,,,,,,,,,,,,,,,,,,,,,,,,,,573883,001,2023-03-01_16h13.07.348,eb_01,2022.2.4,120.00829556849008,
1,stimuli/1.png,s,1,0,1,0,40,0,40,0,0,0,0,0,,,,,,,,,,,,,,,,,,377.6708710137318,377.6708710137318,377.6708710137318,377.6708710137318,s,1,0.6184725028906541,378.32089707897467,378.32089707897467,378.32089707897467,,,,,,,,,,,,,,,,,,,,,,,,,,,,573883,001,2023-03-01_16h13.07.348,eb_01,2022.2.4,120.00829556849008,
,,,1,0,1,0,40,0,40,0,,,,,,,,,,,,,,,,,,,,,,,,,,,,,,,,,,,,,,,,,,,,,,,,,,,,,,,,,,,573883,001,2023-03-01_16h13.07.348,eb_01,2022.2.4,120.00829556849008,
2,stimuli/2.png,s,1,0,1,0,41,0,41,0,0,0,0,0,,,,,,,,,,,,,,,,,,379.3210271787866,379.3210271787866,379.3210271787866,379.3210271787866,s,1,0.5443744704170967,379.8793956607042,379.8793956607042,379.8793956607042,380.9045417513262,380.9045417513262,380.9045417513262,,,,,,,,,,,,,,,,,,,,,,,,,573883,001,2023-03-01_16h13.07.348,eb_01,2022.2.4,120.00829556849008,
,,,1,0,1,0,41,0,41,0,,,,,,,,,,,,,,,,,,,,,,,,,,,,,,,,,,,,,,,,,,,,,,,,,,,,,,,,,,,573883,001,2023-03-01_16h13.07.348,eb_01,2022.2.4,120.00829556849008,
1,stimuli/1.png,s,1,0,1,0,42,0,42,0,0,0,0,0,,,,,,,,,,,,,,,,,,380.9045417513262,380.9045417513262,380.9045417513262,380.9045417513262,s,1,0.5529520025120291,381.4879156590978,381.4879156590978,381.4879156590978,,,,,,,,,,,,,,,,,,,,,,,,,,,,573883,001,2023-03-01_16h13.07.348,eb_01,2022.2.4,120.00829556849008,
,,,1,0,1,0,42,0,42,0,,,,,,,,,,,,,,,,,,,,,,,,,,,,,,,,,,,,,,,,,,,,,,,,,,,,,,,,,,,573883,001,2023-03-01_16h13.07.348,eb_01,2022.2.4,120.00829556849008,
2,stimuli/2.png,s,1,0,1,0,43,0,43,0,0,0,0,0,,,,,,,,,,,,,,,,,,382.4880354958186,382.4880354958186,382.4880354958186,382.4880354958186,s,1,0.49747695858604857,382.9964091243746,382.9964091243746,382.9964091243746,384.0215334813838,384.0215334813838,384.0215334813838,,,,,,,,,,,,,,,,,,,,,,,,,573883,001,2023-03-01_16h13.07.348,eb_01,2022.2.4,120.00829556849008,
,,,1,0,1,0,43,0,43,0,,,,,,,,,,,,,,,,,,,,,,,,,,,,,,,,,,,,,,,,,,,,,,,,,,,,,,,,,,,573883,001,2023-03-01_16h13.07.348,eb_01,2022.2.4,120.00829556849008,
1,stimuli/1.png,s,1,0,1,0,44,0,44,0,0,0,0,0,,,,,,,,,,,,,,,,,,384.0215334813838,384.0215334813838,384.0215334813838,384.0215334813838,s,1,0.5400304647737357,384.5882313699949,384.5882313699949,384.5882313699949,,,,,,,,,,,,,,,,,,,,,,,,,,,,573883,001,2023-03-01_16h13.07.348,eb_01,2022.2.4,120.00829556849008,
,,,1,0,1,0,44,0,44,0,,,,,,,,,,,,,,,,,,,,,,,,,,,,,,,,,,,,,,,,,,,,,,,,,,,,,,,,,,,573883,001,2023-03-01_16h13.07.348,eb_01,2022.2.4,120.00829556849008,
4,stimuli/4.png,l,1,0,1,0,45,0,45,0,0,0,0,0,,,,,,,,,,,,,,,,,,385.5967065730001,385.5967065730001,385.5967065730001,385.5967065730001,l,1,0.5729553772580402,386.18842618767667,386.18842618767667,386.18842618767667,,,,,,,,,,,,,,,,,,,,,,,,,,,,573883,001,2023-03-01_16h13.07.348,eb_01,2022.2.4,120.00829556849008,
,,,1,0,1,0,45,0,45,0,,,,,,,,,,,,,,,,,,,,,,,,,,,,,,,,,,,,,,,,,,,,,,,,,,,,,,,,,,,573883,001,2023-03-01_16h13.07.348,eb_01,2022.2.4,120.00829556849008,
2,stimuli/2.png,s,1,0,1,0,46,0,46,0,0,0,0,0,,,,,,,,,,,,,,,,,,387.1968742236677,387.1968742236677,387.1968742236677,387.1968742236677,s,1,0.6038071446710092,387.8135769268738,387.8135769268738,387.8135769268738,388.83038606440823,388.83038606440823,388.83038606440823,,,,,,,,,,,,,,,,,,,,,,,,,573883,001,2023-03-01_16h13.07.348,eb_01,2022.2.4,120.00829556849008,
,,,1,0,1,0,46,0,46,0,,,,,,,,,,,,,,,,,,,,,,,,,,,,,,,,,,,,,,,,,,,,,,,,,,,,,,,,,,,573883,001,2023-03-01_16h13.07.348,eb_01,2022.2.4,120.00829556849008,
4,stimuli/4.png,l,1,0,1,0,47,0,47,0,0,0,0,0,,,,,,,,,,,,,,,,,,388.83038606440823,388.83038606440823,388.83038606440823,388.83038606440823,l,1,0.6584197868105548,389.5054664561321,389.5054664561321,389.5054664561321,,,,,,,,,,,,,,,,,,,,,,,,,,,,573883,001,2023-03-01_16h13.07.348,eb_01,2022.2.4,120.00829556849008,
,,,1,0,1,0,47,0,47,0,,,,,,,,,,,,,,,,,,,,,,,,,,,,,,,,,,,,,,,,,,,,,,,,,,,,,,,,,,,573883,001,2023-03-01_16h13.07.348,eb_01,2022.2.4,120.00829556849008,
1,stimuli/1.png,s,1,0,1,0,48,0,48,0,0,0,0,0,,,,,,,,,,,,,,,,,,390.53055368489004,390.53055368489004,390.53055368489004,390.53055368489004,s,1,0.5423058531814604,391.1056286733983,391.1056286733983,391.1056286733983,,,,,,,,,,,,,,,,,,,,,,,,,,,,573883,001,2023-03-01_16h13.07.348,eb_01,2022.2.4,120.00829556849008,
,,,1,0,1,0,48,0,48,0,,,,,,,,,,,,,,,,,,,,,,,,,,,,,,,,,,,,,,,,,,,,,,,,,,,,,,,,,,,573883,001,2023-03-01_16h13.07.348,eb_01,2022.2.4,120.00829556849008,
2,stimuli/2.png,s,1,0,1,0,49,0,49,0,0,0,0,0,,,,,,,,,,,,,,,,,,392.10572707836036,392.10572707836036,392.10572707836036,392.10572707836036,s,1,0.5832054918901122,392.69745635242,392.69745635242,392.69745635242,393.7225710500461,393.7225710500461,393.7225710500461,,,,,,,,,,,,,,,,,,,,,,,,,573883,001,2023-03-01_16h13.07.348,eb_01,2022.2.4,120.00829556849008,
,,,1,0,1,0,49,0,49,0,,,,,,,,,,,,,,,,,,,,,,,,,,,,,,,,,,,,,,,,,,,,,,,,,,,,,,,,,,,573883,001,2023-03-01_16h13.07.348,eb_01,2022.2.4,120.00829556849008,
1,stimuli/1.png,s,1,0,1,0,50,0,50,0,0,0,0,0,,,,,,,,,,,,,,,,,,393.7225710500461,393.7225710500461,393.7225710500461,393.7225710500461,s,1,0.6704436056425038,394.42264660453293,394.42264660453293,394.42264660453293,,,,,,,,,,,,,,,,,,,,,,,,,,,,573883,001,2023-03-01_16h13.07.348,eb_01,2022.2.4,120.00829556849008,
,,,1,0,1,0,50,0,50,0,,,,,,,,,,,,,,,,,,,,,,,,,,,,,,,,,,,,,,,,,,,,,,,,,,,,,,,,,,,573883,001,2023-03-01_16h13.07.348,eb_01,2022.2.4,120.00829556849008,
2,stimuli/2.png,s,1,0,1,0,51,0,51,0,0,0,0,0,,,,,,,,,,,,,,,,,,395.42274712248764,395.42274712248764,395.42274712248764,395.42274712248764,s,1,0.5703391937458946,396.0061542343865,396.0061542343865,396.0061542343865,397.0229156787209,397.0229156787209,397.0229156787209,,,,,,,,,,,,,,,,,,,,,,,,,573883,001,2023-03-01_16h13.07.348,eb_01,2022.2.4,120.00829556849008,
,,,1,0,1,0,51,0,51,0,,,,,,,,,,,,,,,,,,,,,,,,,,,,,,,,,,,,,,,,,,,,,,,,,,,,,,,,,,,573883,001,2023-03-01_16h13.07.348,eb_01,2022.2.4,120.00829556849008,
4,stimuli/4.png,l,1,0,1,0,52,0,52,0,0,0,0,0,,,,,,,,,,,,,,,,,,397.0229156787209,397.0229156787209,397.0229156787209,397.0229156787209,l,1,0.5302433968172409,397.5729770912658,397.5729770912658,397.5729770912658,,,,,,,,,,,,,,,,,,,,,,,,,,,,573883,001,2023-03-01_16h13.07.348,eb_01,2022.2.4,120.00829556849008,
,,,1,0,1,0,52,0,52,0,,,,,,,,,,,,,,,,,,,,,,,,,,,,,,,,,,,,,,,,,,,,,,,,,,,,,,,,,,,573883,001,2023-03-01_16h13.07.348,eb_01,2022.2.4,120.00829556849008,
1,stimuli/1.png,s,1,0,1,0,53,0,53,0,0,0,0,0,,,,,,,,,,,,,,,,,,398.59812499301916,398.59812499301916,398.59812499301916,398.59812499301916,s,1,0.6190541788600967,399.2481764141412,399.2481764141412,399.2481764141412,,,,,,,,,,,,,,,,,,,,,,,,,,,,573883,001,2023-03-01_16h13.07.348,eb_01,2022.2.4,120.00829556849008,
,,,1,0,1,0,53,0,53,0,,,,,,,,,,,,,,,,,,,,,,,,,,,,,,,,,,,,,,,,,,,,,,,,,,,,,,,,,,,573883,001,2023-03-01_16h13.07.348,eb_01,2022.2.4,120.00829556849008,
4,stimuli/4.png,l,1,0,1,0,54,0,54,0,0,0,0,0,,,,,,,,,,,,,,,,,,400.2566069425011,400.2566069425011,400.2566069425011,400.2566069425011,l,1,0.5526513542172324,400.8316686493563,400.8316686493563,400.8316686493563,,,,,,,,,,,,,,,,,,,,,,,,,,,,573883,001,2023-03-01_16h13.07.348,eb_01,2022.2.4,120.00829556849008,
,,,1,0,1,0,54,0,54,0,,,,,,,,,,,,,,,,,,,,,,,,,,,,,,,,,,,,,,,,,,,,,,,,,,,,,,,,,,,573883,001,2023-03-01_16h13.07.348,eb_01,2022.2.4,120.00829556849008,
3,stimuli/3.png,l,1,0,1,0,55,0,55,0,0,0,0,0,,,,,,,,,,,,,,,,,,401.8401003851395,401.8401003851395,401.8401003851395,401.8401003851395,l,1,0.5442685190610064,402.3984746023125,402.3984746023125,402.3984746023125,403.41526743963914,403.41526743963914,403.41526743963914,,,,,,,,,,,,,,,,,,,,,,,,,573883,001,2023-03-01_16h13.07.348,eb_01,2022.2.4,120.00829556849008,
,,,1,0,1,0,55,0,55,0,,,,,,,,,,,,,,,,,,,,,,,,,,,,,,,,,,,,,,,,,,,,,,,,,,,,,,,,,,,573883,001,2023-03-01_16h13.07.348,eb_01,2022.2.4,120.00829556849008,
4,stimuli/4.png,l,1,0,1,0,56,0,56,0,0,0,0,0,,,,,,,,,,,,,,,,,,403.41526743963914,403.41526743963914,403.41526743963914,403.41526743963914,l,1,0.5131061421161576,403.9486516256002,403.9486516256002,403.9486516256002,,,,,,,,,,,,,,,,,,,,,,,,,,,,573883,001,2023-03-01_16h13.07.348,eb_01,2022.2.4,120.00829556849008,
,,,1,0,1,0,56,0,56,0,,,,,,,,,,,,,,,,,,,,,,,,,,,,,,,,,,,,,,,,,,,,,,,,,,,,,,,,,,,573883,001,2023-03-01_16h13.07.348,eb_01,2022.2.4,120.00829556849008,
2,stimuli/2.png,s,1,0,1,0,57,0,57,0,0,0,0,0,,,,,,,,,,,,,,,,,,404.9571069061276,404.9571069061276,404.9571069061276,404.9571069061276,s,1,0.6433520549144305,405.61550976941,405.61550976941,405.61550976941,406.6406114872407,406.6406114872407,406.6406114872407,,,,,,,,,,,,,,,,,,,,,,,,,573883,001,2023-03-01_16h13.07.348,eb_01,2022.2.4,120.00829556849008,
,,,1,0,1,0,57,0,57,0,,,,,,,,,,,,,,,,,,,,,,,,,,,,,,,,,,,,,,,,,,,,,,,,,,,,,,,,,,,573883,001,2023-03-01_16h13.07.348,eb_01,2022.2.4,120.00829556849008,
1,stimuli/1.png,s,1,0,1,0,58,0,58,0,0,0,0,0,,,,,,,,,,,,,,,,,,406.6406114872407,406.6406114872407,406.6406114872407,406.6406114872407,s,1,0.6639192961447407,407.33235280534427,407.33235280534427,407.33235280534427,,,,,,,,,,,,,,,,,,,,,,,,,,,,573883,001,2023-03-01_16h13.07.348,eb_01,2022.2.4,120.00829556849008,
,,,1,0,1,0,58,0,58,0,,,,,,,,,,,,,,,,,,,,,,,,,,,,,,,,,,,,,,,,,,,,,,,,,,,,,,,,,,,573883,001,2023-03-01_16h13.07.348,eb_01,2022.2.4,120.00829556849008,
2,stimuli/2.png,s,1,0,1,0,59,0,59,0,0,0,0,0,,,,,,,,,,,,,,,,,,408.33248320701387,408.33248320701387,408.33248320701387,408.33248320701387,s,1,0.5881079306127504,408.93252619126724,408.93252619126724,408.93252619126724,409.94929608755774,409.94929608755774,409.94929608755774,,,,,,,,,,,,,,,,,,,,,,,,,573883,001,2023-03-01_16h13.07.348,eb_01,2022.2.4,120.00829556849008,
,,,1,0,1,0,59,0,59,0,,,,,,,,,,,,,,,,,,,,,,,,,,,,,,,,,,,,,,,,,,,,,,,,,,,,,,,,,,,573883,001,2023-03-01_16h13.07.348,eb_01,2022.2.4,120.00829556849008,
4,stimuli/4.png,l,1,0,1,0,60,0,60,0,0,0,0,0,,,,,,,,,,,,,,,,,,409.94929608755774,409.94929608755774,409.94929608755774,409.94929608755774,l,1,0.5553746965088067,410.52436775565366,410.52436775565366,410.52436775565366,,,,,,,,,,,,,,,,,,,,,,,,,,,,573883,001,2023-03-01_16h13.07.348,eb_01,2022.2.4,120.00829556849008,
,,,1,0,1,0,60,0,60,0,,,,,,,,,,,,,,,,,,,,,,,,,,,,,,,,,,,,,,,,,,,,,,,,,,,,,,,,,,,573883,001,2023-03-01_16h13.07.348,eb_01,2022.2.4,120.00829556849008,
2,stimuli/2.png,s,1,0,1,0,61,0,61,0,0,0,0,0,,,,,,,,,,,,,,,,,,411.5328357141225,411.5328357141225,411.5328357141225,411.5328357141225,s,1,0.5078861511792638,412.04952486400725,412.04952486400725,412.04952486400725,413.0579949354651,413.0579949354651,413.0579949354651,,,,,,,,,,,,,,,,,,,,,,,,,573883,001,2023-03-01_16h13.07.348,eb_01,2022.2.4,120.00829556849008,
,,,1,0,1,0,61,0,61,0,,,,,,,,,,,,,,,,,,,,,,,,,,,,,,,,,,,,,,,,,,,,,,,,,,,,,,,,,,,573883,001,2023-03-01_16h13.07.348,eb_01,2022.2.4,120.00829556849008,
3,stimuli/3.png,l,1,0,1,0,62,0,62,0,0,0,0,0,,,,,,,,,,,,,,,,,,413.0579949354651,413.0579949354651,413.0579949354651,413.0579949354651,l,1,0.6387765259350999,413.7080113413249,413.7080113413249,413.7080113413249,414.724821384425,414.724821384425,414.724821384425,,,,,,,,,,,,,,,,,,,,,,,,,573883,001,2023-03-01_16h13.07.348,eb_01,2022.2.4,120.00829556849008,
,,,1,0,1,0,62,0,62,0,,,,,,,,,,,,,,,,,,,,,,,,,,,,,,,,,,,,,,,,,,,,,,,,,,,,,,,,,,,573883,001,2023-03-01_16h13.07.348,eb_01,2022.2.4,120.00829556849008,
4,stimuli/4.png,l,1,0,1,0,63,0,63,0,0,0,0,0,,,,,,,,,,,,,,,,,,414.724821384425,414.724821384425,414.724821384425,414.724821384425,l,1,0.5160244832040917,415.258201344408,415.258201344408,415.258201344408,,,,,,,,,,,,,,,,,,,,,,,,,,,,573883,001,2023-03-01_16h13.07.348,eb_01,2022.2.4,120.00829556849008,
,,,1,0,1,0,63,0,63,0,,,,,,,,,,,,,,,,,,,,,,,,,,,,,,,,,,,,,,,,,,,,,,,,,,,,,,,,,,,573883,001,2023-03-01_16h13.07.348,eb_01,2022.2.4,120.00829556849008,
1,stimuli/1.png,s,1,0,1,0,64,0,64,0,0,0,0,0,,,,,,,,,,,,,,,,,,416.283298836257,416.283298836257,416.283298836257,416.283298836257,s,1,0.5255945168973994,416.8416902592071,416.8416902592071,416.8416902592071,,,,,,,,,,,,,,,,,,,,,,,,,,,,573883,001,2023-03-01_16h13.07.348,eb_01,2022.2.4,120.00829556849008,
,,,1,0,1,0,64,0,64,0,,,,,,,,,,,,,,,,,,,,,,,,,,,,,,,,,,,,,,,,,,,,,,,,,,,,,,,,,,,573883,001,2023-03-01_16h13.07.348,eb_01,2022.2.4,120.00829556849008,
2,stimuli/2.png,s,1,0,1,0,65,0,65,0,0,0,0,0,,,,,,,,,,,,,,,,,,417.8418143219096,417.8418143219096,417.8418143219096,417.8418143219096,s,1,0.526187663384917,418.3835399887903,418.3835399887903,418.3835399887903,419.39199858973006,419.39199858973006,419.39199858973006,,,,,,,,,,,,,,,,,,,,,,,,,573883,001,2023-03-01_16h13.07.348,eb_01,2022.2.4,120.00829556849008,
,,,1,0,1,0,65,0,65,0,,,,,,,,,,,,,,,,,,,,,,,,,,,,,,,,,,,,,,,,,,,,,,,,,,,,,,,,,,,573883,001,2023-03-01_16h13.07.348,eb_01,2022.2.4,120.00829556849008,
3,stimuli/3.png,l,1,0,1,0,66,0,66,0,0,0,0,0,,,,,,,,,,,,,,,,,,419.39199858973006,419.39199858973006,419.39199858973006,419.39199858973006,l,1,1.3360372758470476,420.7421542416341,420.7421542416341,420.7421542416341,421.7505615271002,421.7505615271002,421.7505615271002,,,,,,,,,,,,,,,,,,,,,,,,,573883,001,2023-03-01_16h13.07.348,eb_01,2022.2.4,120.00829556849008,
,,,1,0,1,0,66,0,66,0,,,,,,,,,,,,,,,,,,,,,,,,,,,,,,,,,,,,,,,,,,,,,,,,,,,,,,,,,,,573883,001,2023-03-01_16h13.07.348,eb_01,2022.2.4,120.00829556849008,
2,stimuli/2.png,s,1,0,1,0,67,0,67,0,0,0,0,0,,,,,,,,,,,,,,,,,,421.7505615271002,421.7505615271002,421.7505615271002,421.7505615271002,s,1,0.5535750327144342,422.31728054561245,422.31728054561245,422.31728054561245,423.32573824098654,423.32573824098654,423.32573824098654,,,,,,,,,,,,,,,,,,,,,,,,,573883,001,2023-03-01_16h13.07.348,eb_01,2022.2.4,120.00829556849008,
,,,1,0,1,0,67,0,67,0,,,,,,,,,,,,,,,,,,,,,,,,,,,,,,,,,,,,,,,,,,,,,,,,,,,,,,,,,,,573883,001,2023-03-01_16h13.07.348,eb_01,2022.2.4,120.00829556849008,
3,stimuli/3.png,l,1,0,1,0,68,0,68,0,0,0,0,0,,,,,,,,,,,,,,,,,,423.32573824098654,423.32573824098654,423.32573824098654,423.32573824098654,l,1,0.4664772818723577,423.80075439781285,423.80075439781285,423.80075439781285,424.80922477112836,424.80922477112836,424.80922477112836,,,,,,,,,,,,,,,,,,,,,,,,,573883,001,2023-03-01_16h13.07.348,eb_01,2022.2.4,120.00829556849008,
,,,1,0,1,0,68,0,68,0,,,,,,,,,,,,,,,,,,,,,,,,,,,,,,,,,,,,,,,,,,,,,,,,,,,,,,,,,,,573883,001,2023-03-01_16h13.07.348,eb_01,2022.2.4,120.00829556849008,
2,stimuli/2.png,s,1,0,1,0,69,0,69,0,0,0,0,0,,,,,,,,,,,,,,,,,,424.80922477112836,424.80922477112836,424.80922477112836,424.80922477112836,s,1,0.7670564524414658,425.5926508395678,425.5926508395678,425.5926508395678,426.60108016050435,426.60108016050435,426.60108016050435,,,,,,,,,,,,,,,,,,,,,,,,,573883,001,2023-03-01_16h13.07.348,eb_01,2022.2.4,120.00829556849008,
,,,1,0,1,0,69,0,69,0,,,,,,,,,,,,,,,,,,,,,,,,,,,,,,,,,,,,,,,,,,,,,,,,,,,,,,,,,,,573883,001,2023-03-01_16h13.07.348,eb_01,2022.2.4,120.00829556849008,
3,stimuli/3.png,l,1,0,1,0,70,0,70,0,0,0,0,0,,,,,,,,,,,,,,,,,,426.60108016050435,426.60108016050435,426.60108016050435,426.60108016050435,l,1,0.4952622431810596,427.11782092772046,427.11782092772046,427.11782092772046,,,,,,,,,,,,,,,,,,,,,,,,,,,,573883,001,2023-03-01_16h13.07.348,eb_01,2022.2.4,120.00829556849008,
,,,1,0,1,0,70,0,70,0,,,,,,,,,,,,,,,,,,,,,,,,,,,,,,,,,,,,,,,,,,,,,,,,,,,,,,,,,,,573883,001,2023-03-01_16h13.07.348,eb_01,2022.2.4,120.00829556849008,
2,stimuli/2.png,s,1,0,1,0,71,0,71,0,0,0,0,0,,,,,,,,,,,,,,,,,,428.1262424004053,428.1262424004053,428.1262424004053,428.1262424004053,s,1,0.4421600870555267,428.58459823456724,428.58459823456724,428.58459823456724,429.5930664948937,429.5930664948937,429.5930664948937,,,,,,,,,,,,,,,,,,,,,,,,,573883,001,2023-03-01_16h13.07.348,eb_01,2022.2.4,120.00829556849008,
,,,1,0,1,0,71,0,71,0,,,,,,,,,,,,,,,,,,,,,,,,,,,,,,,,,,,,,,,,,,,,,,,,,,,,,,,,,,,573883,001,2023-03-01_16h13.07.348,eb_01,2022.2.4,120.00829556849008,
3,stimuli/3.png,l,1,0,1,0,72,0,72,0,0,0,0,0,,,,,,,,,,,,,,,,,,429.5930664948937,429.5930664948937,429.5930664948937,429.5930664948937,l,1,0.5674057598771469,430.17643768596463,430.17643768596463,430.17643768596463,431.1849011165941,431.1849011165941,431.1849011165941,,,,,,,,,,,,,,,,,,,,,,,,,573883,001,2023-03-01_16h13.07.348,eb_01,2022.2.4,120.00829556849008,
,,,1,0,1,0,72,0,72,0,,,,,,,,,,,,,,,,,,,,,,,,,,,,,,,,,,,,,,,,,,,,,,,,,,,,,,,,,,,573883,001,2023-03-01_16h13.07.348,eb_01,2022.2.4,120.00829556849008,
8,stimuli/8.png,l,1,0,1,0,73,0,73,0,0,0,0,0,,,,,,,,,,,,,,,,,,431.1849011165941,431.1849011165941,431.1849011165941,431.1849011165941,l,1,0.8956663072422089,432.101667420804,432.101667420804,432.101667420804,,,,,,,,,,,,,,,,,,,,,,,,,,,,573883,001,2023-03-01_16h13.07.348,eb_01,2022.2.4,120.00829556849008,
,,,1,0,1,0,73,0,73,0,,,,,,,,,,,,,,,,,,,,,,,,,,,,,,,,,,,,,,,,,,,,,,,,,,,,,,,,,,,573883,001,2023-03-01_16h13.07.348,eb_01,2022.2.4,120.00829556849008,
6,stimuli/6.png,s,1,0,1,0,74,0,74,0,0,0,0,0,,,,,,,,,,,,,,,,,,433.12678574070014,433.12678574070014,433.12678574070014,433.12678574070014,s,1,0.9848960650233494,434.1435405442062,434.1435405442062,434.1435405442062,,,,,,,,,,,,,,,,,,,,,,,,,,,,573883,001,2023-03-01_16h13.07.348,eb_01,2022.2.4,120.00829556849008,
,,,1,0,1,0,74,0,74,0,,,,,,,,,,,,,,,,,,,,,,,,,,,,,,,,,,,,,,,,,,,,,,,,,,,,,,,,,,,573883,001,2023-03-01_16h13.07.348,eb_01,2022.2.4,120.00829556849008,
8,stimuli/8.png,l,1,0,1,0,75,0,75,0,0,0,0,0,,,,,,,,,,,,,,,,,,435.143653136387,435.143653136387,435.143653136387,435.143653136387,l,1,0.4720184472971596,435.63534984021317,435.63534984021317,435.63534984021317,,,,,,,,,,,,,,,,,,,,,,,,,,,,573883,001,2023-03-01_16h13.07.348,eb_01,2022.2.4,120.00829556849008,
,,,1,0,1,0,75,0,75,0,,,,,,,,,,,,,,,,,,,,,,,,,,,,,,,,,,,,,,,,,,,,,,,,,,,,,,,,,,,573883,001,2023-03-01_16h13.07.348,eb_01,2022.2.4,120.00829556849008,
9,stimuli/9.png,l,1,0,1,0,76,0,76,0,0,0,0,0,,,,,,,,,,,,,,,,,,436.6521535443462,436.6521535443462,436.6521535443462,436.6521535443462,l,1,0.5475967802121886,437.2272366829566,437.2272366829566,437.2272366829566,,,,,,,,,,,,,,,,,,,,,,,,,,,,573883,001,2023-03-01_16h13.07.348,eb_01,2022.2.4,120.00829556849008,
,,,1,0,1,0,76,0,76,0,,,,,,,,,,,,,,,,,,,,,,,,,,,,,,,,,,,,,,,,,,,,,,,,,,,,,,,,,,,573883,001,2023-03-01_16h13.07.348,eb_01,2022.2.4,120.00829556849008,
5,stimuli/5.png,s,1,0,1,0,77,0,77,0,0,0,0,0,,,,,,,,,,,,,,,,,,438.22733237122156,438.22733237122156,438.22733237122156,438.22733237122156,s,1,0.5884713648956676,438.83569570649706,438.83569570649706,438.83569570649706,,,,,,,,,,,,,,,,,,,,,,,,,,,,573883,001,2023-03-01_16h13.07.348,eb_01,2022.2.4,120.00829556849008,
,,,1,0,1,0,77,0,77,0,,,,,,,,,,,,,,,,,,,,,,,,,,,,,,,,,,,,,,,,,,,,,,,,,,,,,,,,,,,573883,001,2023-03-01_16h13.07.348,eb_01,2022.2.4,120.00829556849008,
9,stimuli/9.png,l,1,0,1,0,78,0,78,0,0,0,0,0,,,,,,,,,,,,,,,,,,439.8525187293926,439.8525187293926,439.8525187293926,439.8525187293926,l,1,0.48339659674456925,440.3609137897074,440.3609137897074,440.3609137897074,,,,,,,,,,,,,,,,,,,,,,,,,,,,573883,001,2023-03-01_16h13.07.348,eb_01,2022.2.4,120.00829556849008,
,,,1,0,1,0,78,0,78,0,,,,,,,,,,,,,,,,,,,,,,,,,,,,,,,,,,,,,,,,,,,,,,,,,,,,,,,,,,,573883,001,2023-03-01_16h13.07.348,eb_01,2022.2.4,120.00829556849008,
8,stimuli/8.png,l,1,0,1,0,79,0,79,0,0,0,0,0,,,,,,,,,,,,,,,,,,441.36097868868455,441.36097868868455,441.36097868868455,441.36097868868455,l,1,0.4229460650094552,441.80271525256103,441.80271525256103,441.80271525256103,,,,,,,,,,,,,,,,,,,,,,,,,,,,573883,001,2023-03-01_16h13.07.348,eb_01,2022.2.4,120.00829556849008,
,,,1,0,1,0,79,0,79,0,,,,,,,,,,,,,,,,,,,,,,,,,,,,,,,,,,,,,,,,,,,,,,,,,,,,,,,,,,,573883,001,2023-03-01_16h13.07.348,eb_01,2022.2.4,120.00829556849008,
3,stimuli/3.png,l,1,0,1,0,80,0,80,0,0,0,0,0,,,,,,,,,,,,,,,,,,442.81114879947563,442.81114879947563,442.81114879947563,442.81114879947563,l,1,0.47685900559736183,443.302874783305,443.302874783305,443.302874783305,444.31131527290563,444.31131527290563,444.31131527290563,,,,,,,,,,,,,,,,,,,,,,,,,573883,001,2023-03-01_16h13.07.348,eb_01,2022.2.4,120.00829556849008,
,,,1,0,1,0,80,0,80,0,,,,,,,,,,,,,,,,,,,,,,,,,,,,,,,,,,,,,,,,,,,,,,,,,,,,,,,,,,,573883,001,2023-03-01_16h13.07.348,eb_01,2022.2.4,120.00829556849008,
2,stimuli/2.png,s,1,0,1,0,81,0,81,0,0,0,0,0,,,,,,,,,,,,,,,,,,444.31131527290563,444.31131527290563,444.31131527290563,444.31131527290563,s,1,0.46468939045007573,444.78634772993973,444.78634772993973,444.78634772993973,445.79480904758384,445.79480904758384,445.79480904758384,,,,,,,,,,,,,,,,,,,,,,,,,573883,001,2023-03-01_16h13.07.348,eb_01,2022.2.4,120.00829556849008,
,,,1,0,1,0,81,0,81,0,,,,,,,,,,,,,,,,,,,,,,,,,,,,,,,,,,,,,,,,,,,,,,,,,,,,,,,,,,,573883,001,2023-03-01_16h13.07.348,eb_01,2022.2.4,120.00829556849008,
3,stimuli/3.png,l,1,0,1,0,82,0,82,0,0,0,0,0,,,,,,,,,,,,,,,,,,445.79480904758384,445.79480904758384,445.79480904758384,445.79480904758384,l,1,0.5252996038616402,446.33650422703795,446.33650422703795,446.33650422703795,447.3449872782912,447.3449872782912,447.3449872782912,,,,,,,,,,,,,,,,,,,,,,,,,573883,001,2023-03-01_16h13.07.348,eb_01,2022.2.4,120.00829556849008,
,,,1,0,1,0,82,0,82,0,,,,,,,,,,,,,,,,,,,,,,,,,,,,,,,,,,,,,,,,,,,,,,,,,,,,,,,,,,,573883,001,2023-03-01_16h13.07.348,eb_01,2022.2.4,120.00829556849008,
8,stimuli/8.png,l,1,0,1,0,83,0,83,0,0,0,0,0,,,,,,,,,,,,,,,,,,447.3449872782912,447.3449872782912,447.3449872782912,447.3449872782912,l,1,0.4632060714502586,447.8283467271758,447.8283467271758,447.8283467271758,,,,,,,,,,,,,,,,,,,,,,,,,,,,573883,001,2023-03-01_16h13.07.348,eb_01,2022.2.4,120.00829556849008,
,,,1,0,1,0,83,0,83,0,,,,,,,,,,,,,,,,,,,,,,,,,,,,,,,,,,,,,,,,,,,,,,,,,,,,,,,,,,,573883,001,2023-03-01_16h13.07.348,eb_01,2022.2.4,120.00829556849008,
3,stimuli/3.png,l,1,0,1,0,84,0,84,0,0,0,0,0,,,,,,,,,,,,,,,,,,448.8367932538895,448.8367932538895,448.8367932538895,448.8367932538895,l,1,0.5064767868316267,449.3535255691422,449.3535255691422,449.3535255691422,450.3619114228568,450.3619114228568,450.3619114228568,,,,,,,,,,,,,,,,,,,,,,,,,573883,001,2023-03-01_16h13.07.348,eb_01,2022.2.4,120.00829556849008,
,,,1,0,1,0,84,0,84,0,,,,,,,,,,,,,,,,,,,,,,,,,,,,,,,,,,,,,,,,,,,,,,,,,,,,,,,,,,,573883,001,2023-03-01_16h13.07.348,eb_01,2022.2.4,120.00829556849008,
2,stimuli/2.png,s,1,0,1,0,85,0,85,0,0,0,0,0,,,,,,,,,,,,,,,,,,450.3619114228568,450.3619114228568,450.3619114228568,450.3619114228568,s,1,0.5334249560910393,450.9036908200542,450.9036908200542,450.9036908200542,451.912111387177,451.912111387177,451.912111387177,,,,,,,,,,,,,,,,,,,,,,,,,573883,001,2023-03-01_16h13.07.348,eb_01,2022.2.4,120.00829556849008,
,,,1,0,1,0,85,0,85,0,,,,,,,,,,,,,,,,,,,,,,,,,,,,,,,,,,,,,,,,,,,,,,,,,,,,,,,,,,,573883,001,2023-03-01_16h13.07.348,eb_01,2022.2.4,120.00829556849008,
3,stimuli/3.png,l,1,0,1,0,86,0,86,0,0,0,0,0,,,,,,,,,,,,,,,,,,451.912111387177,451.912111387177,451.912111387177,451.912111387177,l,1,0.6392658340555499,452.5705230042731,452.5705230042731,452.5705230042731,,,,,,,,,,,,,,,,,,,,,,,,,,,,573883,001,2023-03-01_16h13.07.348,eb_01,2022.2.4,120.00829556849008,
,,,1,0,1,0,86,0,86,0,,,,,,,,,,,,,,,,,,,,,,,,,,,,,,,,,,,,,,,,,,,,,,,,,,,,,,,,,,,573883,001,2023-03-01_16h13.07.348,eb_01,2022.2.4,120.00829556849008,
2,stimuli/2.png,s,1,0,1,0,87,0,87,0,0,0,0,0,,,,,,,,,,,,,,,,,,453.5789671161401,453.5789671161401,453.5789671161401,453.5789671161401,s,1,0.6364640092760965,454.22903906345164,454.22903906345164,454.22903906345164,455.2458092615998,455.2458092615998,455.2458092615998,,,,,,,,,,,,,,,,,,,,,,,,,573883,001,2023-03-01_16h13.07.348,eb_01,2022.2.4,120.00829556849008,
,,,1,0,1,0,87,0,87,0,,,,,,,,,,,,,,,,,,,,,,,,,,,,,,,,,,,,,,,,,,,,,,,,,,,,,,,,,,,573883,001,2023-03-01_16h13.07.348,eb_01,2022.2.4,120.00829556849008,
4,stimuli/4.png,l,1,0,1,0,88,0,88,0,0,0,0,0,,,,,,,,,,,,,,,,,,455.2458092615998,455.2458092615998,455.2458092615998,455.2458092615998,l,1,0.46568521246808814,455.72918682182717,455.72918682182717,455.72918682182717,,,,,,,,,,,,,,,,,,,,,,,,,,,,573883,001,2023-03-01_16h13.07.348,eb_01,2022.2.4,120.00829556849008,
,,,1,0,1,0,88,0,88,0,,,,,,,,,,,,,,,,,,,,,,,,,,,,,,,,,,,,,,,,,,,,,,,,,,,,,,,,,,,573883,001,2023-03-01_16h13.07.348,eb_01,2022.2.4,120.00829556849008,
3,stimuli/3.png,l,1,0,1,0,89,0,89,0,0,0,0,0,,,,,,,,,,,,,,,,,,456.73767983431753,456.73767983431753,456.73767983431753,456.73767983431753,l,1,0.44592634085347527,457.2043605473373,457.2043605473373,457.2043605473373,,,,,,,,,,,,,,,,,,,,,,,,,,,,573883,001,2023-03-01_16h13.07.348,eb_01,2022.2.4,120.00829556849008,
,,,1,0,1,0,89,0,89,0,,,,,,,,,,,,,,,,,,,,,,,,,,,,,,,,,,,,,,,,,,,,,,,,,,,,,,,,,,,573883,001,2023-03-01_16h13.07.348,eb_01,2022.2.4,120.00829556849008,
2,stimuli/2.png,s,1,0,1,0,90,0,90,0,0,0,0,0,,,,,,,,,,,,,,,,,,458.21279198126285,458.21279198126285,458.21279198126285,458.21279198126285,s,1,0.6108738888942753,458.8378672565341,458.8378672565341,458.8378672565341,459.86296082425906,459.86296082425906,459.86296082425906,,,,,,,,,,,,,,,,,,,,,,,,,573883,001,2023-03-01_16h13.07.348,eb_01,2022.2.4,120.00829556849008,
,,,1,0,1,0,90,0,90,0,,,,,,,,,,,,,,,,,,,,,,,,,,,,,,,,,,,,,,,,,,,,,,,,,,,,,,,,,,,573883,001,2023-03-01_16h13.07.348,eb_01,2022.2.4,120.00829556849008,
1,stimuli/1.png,s,1,0,1,0,91,0,91,0,0,0,0,0,,,,,,,,,,,,,,,,,,459.86296082425906,459.86296082425906,459.86296082425906,459.86296082425906,s,1,0.504723005102278,460.39636191413956,460.39636191413956,460.39636191413956,,,,,,,,,,,,,,,,,,,,,,,,,,,,573883,001,2023-03-01_16h13.07.348,eb_01,2022.2.4,120.00829556849008,
,,,1,0,1,0,91,0,91,0,,,,,,,,,,,,,,,,,,,,,,,,,,,,,,,,,,,,,,,,,,,,,,,,,,,,,,,,,,,573883,001,2023-03-01_16h13.07.348,eb_01,2022.2.4,120.00829556849008,
2,stimuli/2.png,s,1,0,1,0,92,0,92,0,0,0,0,0,,,,,,,,,,,,,,,,,,461.39644250961646,461.39644250961646,461.39644250961646,461.39644250961646,s,1,0.8353226324325078,462.2465536378004,462.2465536378004,462.2465536378004,463.2632927448103,463.2632927448103,463.2632927448103,,,,,,,,,,,,,,,,,,,,,,,,,573883,001,2023-03-01_16h13.07.348,eb_01,2022.2.4,120.00829556849008,
,,,1,0,1,0,92,0,92,0,,,,,,,,,,,,,,,,,,,,,,,,,,,,,,,,,,,,,,,,,,,,,,,,,,,,,,,,,,,573883,001,2023-03-01_16h13.07.348,eb_01,2022.2.4,120.00829556849008,
4,stimuli/4.png,l,1,0,1,0,93,0,93,0,0,0,0,0,,,,,,,,,,,,,,,,,,463.2632927448103,463.2632927448103,463.2632927448103,463.2632927448103,l,1,0.39254315705329645,463.6800477294273,463.6800477294273,463.6800477294273,,,,,,,,,,,,,,,,,,,,,,,,,,,,573883,001,2023-03-01_16h13.07.348,eb_01,2022.2.4,120.00829556849008,
,,,1,0,1,0,93,0,93,0,,,,,,,,,,,,,,,,,,,,,,,,,,,,,,,,,,,,,,,,,,,,,,,,,,,,,,,,,,,573883,001,2023-03-01_16h13.07.348,eb_01,2022.2.4,120.00829556849008,
3,stimuli/3.png,l,1,0,1,0,94,0,94,0,0,0,0,0,,,,,,,,,,,,,,,,,,464.6884990858307,464.6884990858307,464.6884990858307,464.6884990858307,l,1,0.5264095273378189,465.2302253564267,465.2302253564267,465.2302253564267,466.23865497921724,466.23865497921724,466.23865497921724,,,,,,,,,,,,,,,,,,,,,,,,,573883,001,2023-03-01_16h13.07.348,eb_01,2022.2.4,120.00829556849008,
,,,1,0,1,0,94,0,94,0,,,,,,,,,,,,,,,,,,,,,,,,,,,,,,,,,,,,,,,,,,,,,,,,,,,,,,,,,,,573883,001,2023-03-01_16h13.07.348,eb_01,2022.2.4,120.00829556849008,
2,stimuli/2.png,s,1,0,1,0,95,0,95,0,0,0,0,0,,,,,,,,,,,,,,,,,,466.23865497921724,466.23865497921724,466.23865497921724,466.23865497921724,s,1,0.43231687393199536,466.680377959583,466.680377959583,466.680377959583,467.6971469503078,467.6971469503078,467.6971469503078,,,,,,,,,,,,,,,,,,,,,,,,,573883,001,2023-03-01_16h13.07.348,eb_01,2022.2.4,120.00829556849008,
,,,1,0,1,0,95,0,95,0,,,,,,,,,,,,,,,,,,,,,,,,,,,,,,,,,,,,,,,,,,,,,,,,,,,,,,,,,,,573883,001,2023-03-01_16h13.07.348,eb_01,2022.2.4,120.00829556849008,
4,stimuli/4.png,l,1,0,1,0,96,0,96,0,0,0,0,0,,,,,,,,,,,,,,,,,,467.6971469503078,467.6971469503078,467.6971469503078,467.6971469503078,l,1,0.3738914922141703,468.0888415713307,468.0888415713307,468.0888415713307,,,,,,,,,,,,,,,,,,,,,,,,,,,,573883,001,2023-03-01_16h13.07.348,eb_01,2022.2.4,120.00829556849008,
,,,1,0,1,0,96,0,96,0,,,,,,,,,,,,,,,,,,,,,,,,,,,,,,,,,,,,,,,,,,,,,,,,,,,,,,,,,,,573883,001,2023-03-01_16h13.07.348,eb_01,2022.2.4,120.00829556849008,
2,stimuli/2.png,s,1,0,1,0,97,0,97,0,0,0,0,0,,,,,,,,,,,,,,,,,,469.09731164278855,469.09731164278855,469.09731164278855,469.09731164278855,s,1,0.4697786778633599,469.5806994661107,469.5806994661107,469.5806994661107,470.60578397816425,470.60578397816425,470.60578397816425,,,,,,,,,,,,,,,,,,,,,,,,,573883,001,2023-03-01_16h13.07.348,eb_01,2022.2.4,120.00829556849008,
,,,1,0,1,0,97,0,97,0,,,,,,,,,,,,,,,,,,,,,,,,,,,,,,,,,,,,,,,,,,,,,,,,,,,,,,,,,,,573883,001,2023-03-01_16h13.07.348,eb_01,2022.2.4,120.00829556849008,
1,stimuli/1.png,s,1,0,1,0,98,0,98,0,0,0,0,0,,,,,,,,,,,,,,,,,,470.60578397816425,470.60578397816425,470.60578397816425,470.60578397816425,s,1,0.8173649338896212,471.4558863525308,471.4558863525308,471.4558863525308,,,,,,,,,,,,,,,,,,,,,,,,,,,,573883,001,2023-03-01_16h13.07.348,eb_01,2022.2.4,120.00829556849008,
,,,1,0,1,0,98,0,98,0,,,,,,,,,,,,,,,,,,,,,,,,,,,,,,,,,,,,,,,,,,,,,,,,,,,,,,,,,,,573883,001,2023-03-01_16h13.07.348,eb_01,2022.2.4,120.00829556849008,
2,stimuli/2.png,s,1,0,1,0,99,0,99,0,0,0,0,0,,,,,,,,,,,,,,,,,,472.4559597034713,472.4559597034713,472.4559597034713,472.4559597034713,s,1,0.6152290631980577,473.0810346768849,473.0810346768849,473.0810346768849,474.0811590414414,474.0811590414414,474.0811590414414,,,,,,,,,,,,,,,,,,,,,,,,,573883,001,2023-03-01_16h13.07.348,eb_01,2022.2.4,120.00829556849008,
,,,1,0,1,0,99,0,99,0,,,,,,,,,,,,,,,,,,,,,,,,,,,,,,,,,,,,,,,,,,,,,,,,,,,,,,,,,,,573883,001,2023-03-01_16h13.07.348,eb_01,2022.2.4,120.00829556849008,
,,,1,0,1,0,,,,,,,,,,,,,,,,,,,,,,,,,,,,,,,,,,,,,,,474.0811590414414,474.0811590414414,return,17.35782401417964,,,,,,,,,,,,,,,,,,,,,573883,001,2023-03-01_16h13.07.348,eb_01,2022.2.4,120.00829556849008,
3,stimuli/3.png,l,2,0,2,0,0,0,0,0,0,0,0,0,,,,,,,,,,,,,,,,,,491.45802922627627,491.45802922627627,491.45802922627627,491.45802922627627,l,1,1.5410160236970114,493.0165090929513,493.0165090929513,493.0165090929513,,,,,,,,,,,,,,,,,,,,,,,,,,,,573883,001,2023-03-01_16h13.07.348,eb_01,2022.2.4,120.00829556849008,
,,,2,0,2,0,0,0,0,0,,,,,,,,,,,,,,,,,,,,,,,,,,,,,,,,,,,,,,,,,,,,,,,,,,,,,,,,,,,573883,001,2023-03-01_16h13.07.348,eb_01,2022.2.4,120.00829556849008,
8,stimuli/8.png,l,2,0,2,0,1,0,1,0,0,0,0,0,,,,,,,,,,,,,,,,,,494.02499244606224,494.02499244606224,494.02499244606224,494.02499244606224,l,1,0.5261058604846767,494.5750179377792,494.5750179377792,494.5750179377792,,,,,,,,,,,,,,,,,,,,,,,,,,,,573883,001,2023-03-01_16h13.07.348,eb_01,2022.2.4,120.00829556849008,
,,,2,0,2,0,1,0,1,0,,,,,,,,,,,,,,,,,,,,,,,,,,,,,,,,,,,,,,,,,,,,,,,,,,,,,,,,,,,573883,001,2023-03-01_16h13.07.348,eb_01,2022.2.4,120.00829556849008,
