,image presented,p_id,trial,accuracy,rt,block,tool index,identity,source
0,0,009551,0,1.0,15.35607694054488,0,7.0,community,
1,6,009551,1,1.0,2.8581513952231035,0,6.0,boundary,community
2,0,009551,2,1.0,3.621895996155217,0,7.0,community,boundary
3,10,009551,3,1.0,1.0676059576217083,0,8.0,community,community
4,9,009551,4,1.0,0.8067435581469908,0,10.0,less remote,community
5,0,009551,5,1.0,0.7326207074802369,0,7.0,community,less remote
6,10,009551,6,1.0,0.7342111478792503,0,8.0,community,community
7,9,009551,7,1.0,1.45373885135632,0,10.0,less remote,community
8,0,009551,8,1.0,0.9295793413184584,0,7.0,community,less remote
9,6,009551,9,1.0,0.5467375030275434,0,6.0,boundary,community
10,10,009551,10,1.0,0.6116609134478495,0,8.0,community,boundary
11,9,009551,11,1.0,0.8412445525173098,0,10.0,less remote,community
12,0,009551,12,1.0,0.6297416453016922,0,7.0,community,less remote
13,10,009551,13,1.0,0.5633210657397285,0,8.0,community,community
14,1,009551,14,1.0,1.4435997564578429,0,9.0,less remote,community
15,10,009551,15,1.0,0.535391919198446,0,8.0,community,less remote
16,9,009551,16,1.0,0.5679321051575243,0,10.0,less remote,community
17,10,009551,17,1.0,0.4958835581783205,0,8.0,community,less remote
18,0,009551,18,1.0,0.6180471245897934,0,7.0,community,community
19,10,009551,19,1.0,0.5039830619934946,0,8.0,community,community
20,6,009551,20,1.0,0.7461857841117308,0,6.0,boundary,community
21,4,009551,21,1.0,0.9787704021437094,0,5.0,boundary,boundary
22,8,009551,22,1.0,0.9379254553932695,0,4.0,community,boundary
23,4,009551,23,1.0,0.754517711349763,0,5.0,boundary,community
24,8,009551,24,1.0,0.5776745708426461,0,4.0,community,boundary
25,4,009551,25,1.0,0.5449478426016867,0,5.0,boundary,community
26,8,009551,26,1.0,0.4574959609890356,0,4.0,community,boundary
27,4,009551,27,1.0,0.6217734457459301,0,5.0,boundary,community
28,8,009551,28,1.0,0.3392914411379024,0,4.0,community,boundary
29,4,009551,29,1.0,0.3562242427142337,0,5.0,boundary,community
30,6,009551,30,1.0,0.6044280170463026,0,6.0,boundary,boundary
31,4,009551,31,1.0,0.514353976584971,0,5.0,boundary,boundary
32,6,009551,32,1.0,0.508246069890447,0,6.0,boundary,boundary
33,0,009551,33,1.0,0.509199307882227,0,7.0,community,boundary
34,1,009551,34,1.0,1.0394202399766073,0,9.0,less remote,community
35,2,009551,35,1.0,0.9722465481609106,0,11.0,remote,less remote
36,1,009551,36,1.0,0.6841522722970694,0,9.0,less remote,remote
37,2,009551,37,1.0,0.5829831825103611,0,11.0,remote,less remote
38,1,009551,38,1.0,0.5185931384330615,0,9.0,less remote,remote
39,0,009551,39,1.0,0.3917584648588672,0,7.0,community,less remote
40,6,009551,40,1.0,0.3827395301777869,0,6.0,boundary,community
41,4,009551,41,1.0,0.5419740300858393,0,5.0,boundary,boundary
42,7,009551,42,1.0,0.8788280250737444,0,3.0,community,boundary
43,8,009551,43,1.0,0.5130104484269395,0,4.0,community,community
44,3,009551,44,1.0,0.786622631479986,0,1.0,less remote,community
45,7,009551,45,1.0,0.5218579330248758,0,3.0,community,less remote
46,3,009551,46,1.0,0.683032413944602,0,1.0,less remote,community
47,7,009551,47,1.0,0.5666872814763337,0,3.0,community,less remote
48,8,009551,48,1.0,0.5505335511406884,0,4.0,community,community
49,4,009551,49,1.0,0.5505670564016327,0,5.0,boundary,community
50,8,009551,50,1.0,0.526603898848407,0,4.0,community,boundary
51,5,009551,51,1.0,1.2878573433263227,0,2.0,less remote,community
52,11,009551,52,1.0,0.6658231189940125,0,0.0,remote,less remote
53,5,009551,53,1.0,0.9896360465791076,0,2.0,less remote,remote
54,8,009551,54,1.0,0.9884775516111404,0,4.0,community,less remote
55,7,009551,55,1.0,0.4997333353385329,0,3.0,community,community
56,3,009551,56,1.0,0.7419348502298817,0,1.0,less remote,community
57,11,009551,57,1.0,0.5424889838322997,0,0.0,remote,less remote
58,5,009551,58,1.0,0.5109995329985395,0,2.0,less remote,remote
59,8,009551,59,1.0,0.496925237821415,0,4.0,community,less remote
60,3,009551,60,1.0,0.4511172962374985,0,1.0,less remote,community
61,8,009551,61,1.0,0.4784282566979527,0,4.0,community,less remote
62,3,009551,62,1.0,0.4012875236803666,0,1.0,less remote,community
63,11,009551,63,1.0,0.4315487525891512,0,0.0,remote,less remote
64,3,009551,64,1.0,0.5164642003364861,0,1.0,less remote,remote
65,8,009551,65,1.0,0.4383291779085994,0,4.0,community,less remote
66,4,009551,66,1.0,0.4032054697163403,0,5.0,boundary,community
67,7,009551,67,1.0,0.4338415946112945,0,3.0,community,boundary
68,5,009551,68,1.0,0.4707259857095778,0,2.0,less remote,community
69,8,009551,69,1.0,0.4103043454233557,0,4.0,community,less remote
70,3,009551,70,1.0,0.431876560091041,0,1.0,less remote,community
71,7,009551,71,1.0,0.429457847145386,0,3.0,community,less remote
72,4,009551,72,1.0,0.4577241586521268,0,5.0,boundary,community
73,7,009551,73,1.0,0.4302643866976723,0,3.0,community,boundary
74,3,009551,74,1.0,0.4431656982051208,0,1.0,less remote,community
75,7,009551,75,1.0,0.3520756353391334,0,3.0,community,less remote
76,5,009551,76,1.0,0.48032235680148,0,2.0,less remote,community
77,11,009551,77,1.0,0.4355156470555812,0,0.0,remote,less remote
78,5,009551,78,1.0,0.4963991156546399,0,2.0,less remote,remote
79,11,009551,79,1.0,0.4350085413316265,0,0.0,remote,less remote
80,3,009551,80,1.0,0.5195620725862682,0,1.0,less remote,remote
81,8,009551,81,1.0,0.4731516411993652,0,4.0,community,less remote
82,5,009551,82,1.0,0.5237396573647857,0,2.0,less remote,community
83,11,009551,83,1.0,0.3572638093028217,0,0.0,remote,less remote
84,5,009551,84,1.0,0.4535012964624911,0,2.0,less remote,remote
85,11,009551,85,1.0,0.3456845947075635,0,0.0,remote,less remote
86,5,009551,86,1.0,0.3463251173961907,0,2.0,less remote,remote
87,11,009551,87,1.0,0.2989022857509553,0,0.0,remote,less remote
88,5,009551,88,1.0,0.3014275511959567,0,2.0,less remote,remote
89,8,009551,89,1.0,0.3757212482159957,0,4.0,community,less remote
90,4,009551,90,1.0,0.4149742453591898,0,5.0,boundary,community
91,6,009551,91,1.0,0.5728661224711686,0,6.0,boundary,boundary
92,4,009551,92,1.0,0.5560733786551282,0,5.0,boundary,boundary
93,6,009551,93,1.0,0.5073465610621497,0,6.0,boundary,boundary
94,4,009551,94,1.0,0.5332575476495549,0,5.0,boundary,boundary
95,8,009551,95,1.0,0.4304276867769658,0,4.0,community,boundary
96,4,009551,96,1.0,0.4513524362118915,0,5.0,boundary,community
97,8,009551,97,1.0,0.3675840132636949,0,4.0,community,boundary
98,5,009551,98,1.0,0.5271780148614198,0,2.0,less remote,community
99,7,009551,99,1.0,0.4807174765737727,0,3.0,community,less remote
100,4,009551,100,1.0,0.4276229095412418,0,5.0,boundary,community
101,8,009551,101,1.0,0.4408680265769362,0,4.0,community,boundary
102,5,009551,102,1.0,0.4857785721542313,0,2.0,less remote,community
103,7,009551,103,1.0,0.4330299235880375,0,3.0,community,less remote
104,3,009551,104,1.0,0.4128884713863954,0,1.0,less remote,community
105,11,009551,105,1.0,0.4587905897060409,0,0.0,remote,less remote
106,5,009551,106,1.0,0.5587643590988591,0,2.0,less remote,remote
107,7,009551,107,1.0,0.4149555307812989,0,3.0,community,less remote
108,3,009551,108,1.0,0.3884773704921826,0,1.0,less remote,community
109,7,009551,109,1.0,0.3877776853041723,0,3.0,community,less remote
110,5,009551,110,1.0,0.5546972509473562,0,2.0,less remote,community
111,7,009551,111,1.0,0.4432393492897972,0,3.0,community,less remote
112,8,009551,112,1.0,0.5677956695435569,0,4.0,community,community
113,7,009551,113,1.0,0.4956915824441239,0,3.0,community,community
114,5,009551,114,1.0,0.5292640905827284,0,2.0,less remote,community
115,11,009551,115,1.0,0.3704633472952992,0,0.0,remote,less remote
116,5,009551,116,1.0,0.5380605629179627,0,2.0,less remote,remote
117,7,009551,117,1.0,0.3153310002526268,0,3.0,community,less remote
118,5,009551,118,1.0,0.4692248925566673,0,2.0,less remote,community
119,11,009551,119,1.0,0.4807872035307809,0,0.0,remote,less remote
120,3,009551,120,1.0,0.4838310449849814,0,1.0,less remote,remote
121,11,009551,121,1.0,0.4705832112813368,0,0.0,remote,less remote
122,3,009551,122,1.0,0.3377960830694064,0,1.0,less remote,remote
123,7,009551,123,1.0,0.3470954351359978,0,3.0,community,less remote
124,5,009551,124,1.0,0.4827202421147376,0,2.0,less remote,community
125,8,009551,125,1.0,0.445850943448022,0,4.0,community,less remote
126,4,009551,126,1.0,0.4505280876765027,0,5.0,boundary,community
127,8,009551,127,1.0,0.45468092081137,0,4.0,community,boundary
128,7,009551,128,1.0,0.4592321942327544,0,3.0,community,community
129,8,009551,129,1.0,0.4631604520836845,0,4.0,community,community
130,3,009551,130,1.0,0.5387264408636838,0,1.0,less remote,community
131,11,009551,131,1.0,0.5155924614518881,0,0.0,remote,less remote
132,3,009551,132,1.0,0.645206858869642,0,1.0,less remote,remote
133,7,009551,133,1.0,0.7700701592257246,0,3.0,community,less remote
134,5,009551,134,1.0,0.4646280400920659,0,2.0,less remote,community
135,8,009551,135,1.0,0.5005259898025542,0,4.0,community,less remote
136,7,009551,136,1.0,0.4787340294569731,0,3.0,community,community
137,3,009551,137,1.0,0.4577238566707819,0,1.0,less remote,community
138,7,009551,138,1.0,0.3822399707278237,0,3.0,community,less remote
139,5,009551,139,1.0,0.5974538049194962,0,2.0,less remote,community
140,7,009551,140,1.0,0.4044122606283054,0,3.0,community,less remote
141,5,009551,141,1.0,0.4346028567524627,0,2.0,less remote,community
142,8,009551,142,1.0,0.3595252591185272,0,4.0,community,less remote
143,3,009551,143,1.0,0.4871036875993013,0,1.0,less remote,community
144,7,009551,144,1.0,0.4023853470571339,0,3.0,community,less remote
145,3,009551,145,1.0,0.4231567574897781,0,1.0,less remote,community
146,8,009551,146,1.0,0.4207757755648345,0,4.0,community,less remote
147,3,009551,147,1.0,0.570045649074018,0,1.0,less remote,community
148,7,009551,148,1.0,0.3539289858890697,0,3.0,community,less remote
149,3,009551,149,1.0,0.4178738030605018,0,1.0,less remote,community
150,11,009551,150,1.0,0.4633958940394223,0,0.0,remote,less remote
151,3,009551,151,1.0,0.4750019731000066,0,1.0,less remote,remote
152,11,009551,152,1.0,0.5025704104918987,0,0.0,remote,less remote
153,3,009551,153,1.0,0.6804208197863773,0,1.0,less remote,remote
154,8,009551,154,1.0,0.4757113173836842,0,4.0,community,less remote
155,7,009551,155,1.0,0.4222463819896802,0,3.0,community,community
156,4,009551,156,1.0,0.4758193792076781,0,5.0,boundary,community
157,6,009551,157,1.0,0.4390044132014736,0,6.0,boundary,boundary
158,10,009551,158,0.0,0.6123225656338036,0,8.0,community,boundary
159,1,009551,159,1.0,4.258656206657179,0,9.0,less remote,community
160,2,009551,160,1.0,0.9745372772449628,0,11.0,remote,less remote
161,9,009551,161,1.0,0.8457113082986325,0,10.0,less remote,remote
162,10,009551,162,1.0,0.9775962108979002,0,8.0,community,less remote
163,6,009551,163,1.0,1.584780389093794,0,6.0,boundary,community
164,10,009551,164,1.0,0.6160497922683135,0,8.0,community,boundary
165,6,009551,165,1.0,0.4378567847888917,0,6.0,boundary,community
166,4,009551,166,1.0,0.5627206888748333,0,5.0,boundary,boundary
167,6,009551,167,1.0,1.0586350170196963,0,6.0,boundary,boundary
168,4,009551,168,1.0,0.4464827126357704,0,5.0,boundary,boundary
169,7,009551,169,1.0,0.427440291037783,0,3.0,community,boundary
170,4,009551,170,1.0,0.4966816459782421,0,5.0,boundary,community
171,8,009551,171,1.0,0.5782314816024154,0,4.0,community,boundary
172,5,009551,172,1.0,0.5294370498741046,0,2.0,less remote,community
173,11,009551,173,1.0,0.4346547747263685,0,0.0,remote,less remote
174,3,009551,174,1.0,0.4152244777651503,0,1.0,less remote,remote
175,7,009551,175,1.0,0.3654783173697069,0,3.0,community,less remote
176,8,009551,176,1.0,0.4053510096855461,0,4.0,community,community
177,3,009551,177,1.0,0.4513086682418361,0,1.0,less remote,community
178,7,009551,178,1.0,0.3838581811869517,0,3.0,community,less remote
179,5,009551,179,1.0,0.4707471150904894,0,2.0,less remote,community
180,8,009551,180,1.0,0.3703281190246343,0,4.0,community,less remote
181,5,009551,181,1.0,0.4258661506464705,0,2.0,less remote,community
182,8,009551,182,1.0,0.4061605676542967,0,4.0,community,less remote
183,3,009551,183,1.0,0.4040916973026469,0,1.0,less remote,community
184,8,009551,184,1.0,0.4502769496757537,0,4.0,community,less remote
185,4,009551,185,1.0,0.4945723279379308,0,5.0,boundary,community
186,7,009551,186,1.0,0.393440667190589,0,3.0,community,boundary
187,4,009551,187,1.0,0.4880089316284284,0,5.0,boundary,community
188,6,009551,188,1.0,0.4188910329248756,0,6.0,boundary,boundary
189,0,009551,189,1.0,0.7361553547671065,0,7.0,community,boundary
190,9,009551,190,1.0,0.608741735573858,0,10.0,less remote,community
191,2,009551,191,1.0,0.5666365709621459,0,11.0,remote,less remote
192,9,009551,192,1.0,0.461137764621526,0,10.0,less remote,remote
193,10,009551,193,1.0,1.385450130794197,0,8.0,community,less remote
194,6,009551,194,1.0,0.5922351442277431,0,6.0,boundary,community
195,10,009551,195,1.0,0.8071441112551838,0,8.0,community,boundary
196,1,009551,196,1.0,0.5897162175970152,0,9.0,less remote,community
197,2,009551,197,1.0,0.5009096395224333,0,11.0,remote,less remote
198,9,009551,198,1.0,0.550813062931411,0,10.0,less remote,remote
199,0,009551,199,1.0,0.9187227522488683,0,7.0,community,less remote
200,6,009551,200,1.0,3.2934599553700536,1,6.0,boundary,community
201,4,009551,201,1.0,1.5670316906180233,1,5.0,boundary,boundary
202,6,009551,202,1.0,0.5106844030087814,1,6.0,boundary,boundary
203,10,009551,203,1.0,0.5208817545790225,1,8.0,community,boundary
204,9,009551,204,1.0,0.8661724183475599,1,10.0,less remote,community
205,0,009551,205,1.0,0.509680152637884,1,7.0,community,less remote
206,9,009551,206,1.0,0.5672577753430232,1,10.0,less remote,community
207,10,009551,207,1.0,0.895173127297312,1,8.0,community,less remote
208,9,009551,208,1.0,0.4173431531526148,1,10.0,less remote,community
209,0,009551,209,1.0,0.5746150334598497,1,7.0,community,less remote
210,1,009551,210,1.0,0.6934993164613843,1,9.0,less remote,community
211,0,009551,211,1.0,0.4797041707206517,1,7.0,community,less remote
212,10,009551,212,1.0,0.491313268430531,1,8.0,community,community
213,1,009551,213,1.0,0.5025450552348047,1,9.0,less remote,community
214,2,009551,214,1.0,0.5847133786883205,1,11.0,remote,less remote
215,1,009551,215,1.0,0.7439665931742638,1,9.0,less remote,remote
216,2,009551,216,1.0,0.4964754832908511,1,11.0,remote,less remote
217,1,009551,217,1.0,0.4274276135256514,1,9.0,less remote,remote
218,10,009551,218,1.0,0.608979894197546,1,8.0,community,less remote
219,6,009551,219,1.0,0.462884260690771,1,6.0,boundary,community
220,10,009551,220,1.0,1.3941291838418692,1,8.0,community,boundary
221,1,009551,221,1.0,0.6729503684910014,1,9.0,less remote,community
222,2,009551,222,1.0,0.916524086962454,1,11.0,remote,less remote
223,9,009551,223,1.0,0.5180126836057752,1,10.0,less remote,remote
224,0,009551,224,1.0,0.4792888270458206,1,7.0,community,less remote
225,1,009551,225,1.0,0.6028725911164656,1,9.0,less remote,community
226,2,009551,226,1.0,0.4810806004097685,1,11.0,remote,less remote
227,9,009551,227,1.0,0.5239904935006052,1,10.0,less remote,remote
228,10,009551,228,1.0,0.5818950181128457,1,8.0,community,less remote
229,9,009551,229,1.0,0.5797793612582609,1,10.0,less remote,community
230,10,009551,230,1.0,0.8913707403698936,1,8.0,community,less remote
231,9,009551,231,1.0,0.4698648115154356,1,10.0,less remote,community
232,2,009551,232,1.0,0.5374502249760553,1,11.0,remote,less remote
233,9,009551,233,1.0,0.5700091253966093,1,10.0,less remote,remote
234,10,009551,234,1.0,0.5299305723747239,1,8.0,community,less remote
235,9,009551,235,1.0,0.4027943520341068,1,10.0,less remote,community
236,2,009551,236,1.0,0.4889546232298016,1,11.0,remote,less remote
237,9,009551,237,1.0,0.5315988896181807,1,10.0,less remote,remote
238,0,009551,238,1.0,0.492466330062598,1,7.0,community,less remote
239,10,009551,239,1.0,0.4624185082502663,1,8.0,community,community
240,0,009551,240,1.0,0.5299830939620733,1,7.0,community,community
241,10,009551,241,1.0,0.4835627016145736,1,8.0,community,community
242,6,009551,242,1.0,0.4787913805339485,1,6.0,boundary,community
243,10,009551,243,1.0,0.4823429313255474,1,8.0,community,boundary
244,6,009551,244,1.0,0.3815662446431815,1,6.0,boundary,community
245,4,009551,245,1.0,0.5618072949582711,1,5.0,boundary,boundary
246,6,009551,246,1.0,0.4817507043480873,1,6.0,boundary,boundary
247,10,009551,247,1.0,0.5013008351670578,1,8.0,community,boundary
248,1,009551,248,1.0,0.49588386004325,1,9.0,less remote,community
249,0,009551,249,1.0,0.5610931211849675,1,7.0,community,less remote
250,6,009551,250,1.0,0.6489253318868577,1,6.0,boundary,community
251,10,009551,251,1.0,0.5098790709162131,1,8.0,community,boundary
252,0,009551,252,1.0,0.4714105782331899,1,7.0,community,community
253,1,009551,253,1.0,0.8914021325763315,1,9.0,less remote,community
254,0,009551,254,1.0,0.4378163372166455,1,7.0,community,less remote
255,10,009551,255,1.0,0.4671856033382937,1,8.0,community,community
256,9,009551,256,1.0,0.4547044651117176,1,10.0,less remote,community
257,10,009551,257,1.0,0.4429178806021809,1,8.0,community,less remote
258,1,009551,258,1.0,0.4158308915793895,1,9.0,less remote,community
259,0,009551,259,1.0,1.2284230499062687,1,7.0,community,less remote
260,10,009551,260,1.0,0.5139368218369782,1,8.0,community,community
261,6,009551,261,1.0,0.4518522975267842,1,6.0,boundary,community
262,4,009551,262,1.0,0.4556975470623001,1,5.0,boundary,boundary
263,6,009551,263,1.0,0.4439680118812248,1,6.0,boundary,boundary
264,0,009551,264,1.0,0.6641895143548027,1,7.0,community,boundary
265,6,009551,265,1.0,0.4040515514789149,1,6.0,boundary,community
266,0,009551,266,1.0,0.410003402386792,1,7.0,community,boundary
267,1,009551,267,1.0,0.5842684537637979,1,9.0,less remote,community
268,0,009551,268,1.0,0.5658916084794328,1,7.0,community,less remote
269,6,009551,269,1.0,0.4056748932925984,1,6.0,boundary,community
270,10,009551,270,1.0,0.4763059591641649,1,8.0,community,boundary
271,0,009551,271,1.0,0.5271740907337517,1,7.0,community,community
272,1,009551,272,1.0,0.504770283238031,1,9.0,less remote,community
273,10,009551,273,1.0,0.5153527937363833,1,8.0,community,less remote
274,0,009551,274,1.0,0.452881601289846,1,7.0,community,community
275,6,009551,275,1.0,0.4171330665703863,1,6.0,boundary,community
276,10,009551,276,1.0,0.4550358947599306,1,8.0,community,boundary
277,0,009551,277,1.0,0.4188871087972075,1,7.0,community,community
278,9,009551,278,1.0,0.4401737747248262,1,10.0,less remote,community
279,10,009551,279,1.0,0.4604136296547949,1,8.0,community,less remote
280,1,009551,280,1.0,0.5206269944319502,1,9.0,less remote,community
281,0,009551,281,1.0,0.5458310515386984,1,7.0,community,less remote
282,1,009551,282,1.0,0.5067706339759752,1,9.0,less remote,community
283,0,009551,283,1.0,0.5006093000993133,1,7.0,community,less remote
284,9,009551,284,1.0,0.638576754136011,1,10.0,less remote,community
285,0,009551,285,1.0,0.4591217176057398,1,7.0,community,less remote
286,10,009551,286,1.0,0.6073577597271651,1,8.0,community,community
287,1,009551,287,1.0,0.4298747001448646,1,9.0,less remote,community
288,2,009551,288,1.0,0.5551213481230661,1,11.0,remote,less remote
289,1,009551,289,1.0,0.5227492920821533,1,9.0,less remote,remote
290,2,009551,290,1.0,0.4922514138743281,1,11.0,remote,less remote
291,1,009551,291,1.0,0.47119566204492,1,9.0,less remote,remote
292,0,009551,292,1.0,0.4664632795611396,1,7.0,community,less remote
293,6,009551,293,1.0,0.6222899085842073,1,6.0,boundary,community
294,4,009551,294,1.0,0.4758770322659984,1,5.0,boundary,boundary
295,6,009551,295,1.0,0.4311089591355994,1,6.0,boundary,boundary
296,4,009551,296,1.0,0.5563577200518921,1,5.0,boundary,boundary
297,6,009551,297,1.0,0.4446163825923577,1,6.0,boundary,boundary
298,10,009551,298,1.0,0.5375193482032046,1,8.0,community,boundary
299,6,009551,299,1.0,0.4094223438296467,1,6.0,boundary,community
300,10,009551,300,1.0,0.3356004361994564,1,8.0,community,boundary
301,9,009551,301,1.0,0.536203590221703,1,10.0,less remote,community
302,0,009551,302,1.0,0.5527690419694409,1,7.0,community,less remote
303,9,009551,303,1.0,0.4246732448227703,1,10.0,less remote,community
304,10,009551,304,1.0,0.4465545525308698,1,8.0,community,less remote
305,0,009551,305,1.0,0.5147801868151873,1,7.0,community,community
306,9,009551,306,1.0,0.420357413473539,1,10.0,less remote,community
307,2,009551,307,1.0,1.0179183558793738,1,11.0,remote,less remote
308,9,009551,308,1.0,0.4231166115496307,1,10.0,less remote,remote
309,2,009551,309,1.0,0.5397020155796781,1,11.0,remote,less remote
310,9,009551,310,1.0,0.5162160806357861,1,10.0,less remote,remote
311,0,009551,311,1.0,0.4698648116318509,1,7.0,community,less remote
312,9,009551,312,1.0,0.7130748025374487,1,10.0,less remote,community
313,10,009551,313,1.0,0.4113306307699531,1,8.0,community,less remote
314,1,009551,314,1.0,0.6015544182155281,1,9.0,less remote,community
315,0,009551,315,1.0,1.543471199227497,1,7.0,community,less remote
316,9,009551,316,1.0,0.5755972487386316,1,10.0,less remote,community
317,10,009551,317,1.0,0.573905689176172,1,8.0,community,less remote
318,6,009551,318,1.0,0.5574259622953832,1,6.0,boundary,community
319,0,009551,319,1.0,0.4852916904492304,1,7.0,community,boundary
320,10,009551,320,1.0,0.5045070712221786,1,8.0,community,community
321,6,009551,321,1.0,0.4347308406140655,1,6.0,boundary,community
322,4,009551,322,1.0,0.6396413742331788,1,5.0,boundary,boundary
323,8,009551,323,1.0,0.45248285937123,1,4.0,community,boundary
324,4,009551,324,1.0,0.8007892923196778,1,5.0,boundary,community
325,6,009551,325,1.0,0.5189272848656401,1,6.0,boundary,boundary
326,4,009551,326,1.0,0.5445690226042643,1,5.0,boundary,boundary
327,7,009551,327,1.0,0.5214440985582769,1,3.0,community,boundary
328,4,009551,328,1.0,0.4740294169168919,1,5.0,boundary,community
329,7,009551,329,1.0,0.4539214698597789,1,3.0,community,boundary
330,4,009551,330,1.0,0.5222041534725577,1,5.0,boundary,community
331,8,009551,331,1.0,0.4437340791337192,1,4.0,community,boundary
332,5,009551,332,1.0,1.408311540959403,1,2.0,less remote,community
333,7,009551,333,1.0,0.5188654059311375,1,3.0,community,less remote
334,5,009551,334,1.0,0.4323812510119751,1,2.0,less remote,community
335,8,009551,335,1.0,0.3895896825706586,1,4.0,community,less remote
336,4,009551,336,1.0,0.4761903510661796,1,5.0,boundary,community
337,6,009551,337,1.0,0.4464655072661116,1,6.0,boundary,boundary
338,4,009551,338,1.0,0.4909537667408585,1,5.0,boundary,boundary
339,6,009551,339,1.0,0.5579478585859761,1,6.0,boundary,boundary
340,0,009551,340,1.0,0.6058113892795518,1,7.0,community,boundary
341,6,009551,341,1.0,0.371994927059859,1,6.0,boundary,community
342,0,009551,342,1.0,0.4912595393834635,1,7.0,community,boundary
343,6,009551,343,1.0,0.3661894727265462,1,6.0,boundary,community
344,10,009551,344,0.0,0.3344042102107778,1,8.0,community,boundary
345,0,009551,345,1.0,2.1670822805026546,1,7.0,community,community
346,9,009551,346,1.0,0.5021034507080913,1,10.0,less remote,community
347,2,009551,347,1.0,0.50367427081801,1,11.0,remote,less remote
348,1,009551,348,1.0,1.4742989677470175,1,9.0,less remote,remote
349,2,009551,349,1.0,0.4940902756061405,1,11.0,remote,less remote
350,9,009551,350,1.0,1.8883196545066312,1,10.0,less remote,remote
351,10,009551,351,1.0,0.5234960655216128,1,8.0,community,less remote
352,9,009551,352,1.0,0.5167355621233582,1,10.0,less remote,community
353,2,009551,353,1.0,0.5826309251133353,1,11.0,remote,less remote
354,9,009551,354,1.0,0.5974897248670459,1,10.0,less remote,remote
355,0,009551,355,1.0,0.4677542861318216,1,7.0,community,less remote
356,1,009551,356,1.0,0.6706240212079138,1,9.0,less remote,community
357,0,009551,357,1.0,0.4578636126825586,1,7.0,community,less remote
358,6,009551,358,1.0,0.4700670501915738,1,6.0,boundary,community
359,10,009551,359,1.0,0.5219738428713754,1,8.0,community,boundary
360,0,009551,360,1.0,0.5312173529528081,1,7.0,community,community
361,10,009551,361,1.0,0.5408535681199282,1,8.0,community,community
362,6,009551,362,1.0,0.6056339022470638,1,6.0,boundary,community
363,10,009551,363,1.0,0.6202189252944663,1,8.0,community,boundary
364,6,009551,364,1.0,0.4497595811262727,1,6.0,boundary,community
365,4,009551,365,1.0,0.5890370581764728,1,5.0,boundary,boundary
366,8,009551,366,1.0,0.4679091344587505,1,4.0,community,boundary
367,7,009551,367,1.0,0.471820488688536,1,3.0,community,community
368,3,009551,368,1.0,0.6030552096199244,1,1.0,less remote,community
369,7,009551,369,1.0,0.4416872436413541,1,3.0,community,less remote
370,4,009551,370,1.0,0.5585877776611596,1,5.0,boundary,community
371,7,009551,371,1.0,0.5591205405071378,1,3.0,community,boundary
372,4,009551,372,1.0,0.5270113945007324,1,5.0,boundary,community
373,8,009551,373,1.0,0.624202421400696,1,4.0,community,boundary
374,4,009551,374,1.0,0.5418240113649517,1,5.0,boundary,community
375,6,009551,375,1.0,0.5419598432490602,1,6.0,boundary,boundary
376,10,009551,376,1.0,0.630920665920712,1,8.0,community,boundary
377,9,009551,377,1.0,0.5398067570058629,1,10.0,less remote,community
378,10,009551,378,1.0,0.5010608655866235,1,8.0,community,less remote
379,1,009551,379,1.0,0.5916546894004568,1,9.0,less remote,community
380,2,009551,380,1.0,0.4704823938664049,1,11.0,remote,less remote
381,1,009551,381,1.0,0.4263883486855775,1,9.0,less remote,remote
382,10,009551,382,1.0,0.53595728171058,1,8.0,community,less remote
383,1,009551,383,1.0,0.4971978070680052,1,9.0,less remote,community
384,10,009551,384,1.0,0.5081274433759972,1,8.0,community,less remote
385,9,009551,385,1.0,0.5330655720317736,1,10.0,less remote,community
386,2,009551,386,1.0,0.7102078443858773,1,11.0,remote,less remote
387,1,009551,387,1.0,0.7924332172842696,1,9.0,less remote,remote
388,0,009551,388,1.0,0.6066867501940578,1,7.0,community,less remote
389,9,009551,389,1.0,0.6045650562737137,1,10.0,less remote,community
390,0,009551,390,1.0,0.602511580218561,1,7.0,community,less remote
391,10,009551,391,1.0,0.5290766425896436,1,8.0,community,community
392,9,009551,392,1.0,0.7299067865824327,1,10.0,less remote,community
393,0,009551,393,1.0,0.5788152567110956,1,7.0,community,less remote
394,1,009551,394,1.0,0.5774427511496469,1,9.0,less remote,community
395,2,009551,395,1.0,0.5605802802601829,1,11.0,remote,less remote
396,1,009551,396,1.0,0.536846527713351,1,9.0,less remote,remote
397,10,009551,397,1.0,0.6900512997526675,1,8.0,community,less remote
398,6,009551,398,1.0,0.5169652688782662,1,6.0,boundary,community
399,4,009551,399,1.0,0.510176693671383,1,5.0,boundary,boundary
400,7,009551,400,1.0,3.5916646503610536,2,3.0,community,boundary
401,4,009551,401,1.0,0.5739165557315573,2,5.0,boundary,community
402,7,009551,402,1.0,0.5338769410736859,2,3.0,community,boundary
403,5,009551,403,1.0,0.6387225469807163,2,2.0,less remote,community
404,8,009551,404,1.0,1.3306099731707943,2,4.0,community,less remote
405,7,009551,405,1.0,0.636156833730638,2,3.0,community,community
406,4,009551,406,1.0,0.5370119407307357,2,5.0,boundary,community
407,7,009551,407,1.0,0.8262544486206025,2,3.0,community,boundary
408,4,009551,408,1.0,0.8954951997147873,2,5.0,boundary,community
409,6,009551,409,1.0,0.5139709307113662,2,6.0,boundary,boundary
410,4,009551,410,1.0,0.6598812290467322,2,5.0,boundary,boundary
411,6,009551,411,1.0,0.5758154852082953,2,6.0,boundary,boundary
412,0,009551,412,1.0,0.4377457045484334,2,7.0,community,boundary
413,6,009551,413,1.0,1.7065675501944495,2,6.0,boundary,community
414,10,009551,414,1.0,0.5650702783605084,2,8.0,community,boundary
415,1,009551,415,1.0,0.501304155564867,2,9.0,less remote,community
416,0,009551,416,1.0,0.559208378312178,2,7.0,community,less remote
417,10,009551,417,1.0,0.5514158545993268,2,8.0,community,community
418,1,009551,418,1.0,0.4720568361226469,2,9.0,less remote,community
419,0,009551,419,1.0,0.4352623960003257,2,7.0,community,less remote
420,9,009551,420,1.0,0.5758263518800959,2,10.0,less remote,community
421,10,009551,421,1.0,0.4873865197878331,2,8.0,community,less remote
422,0,009551,422,1.0,0.6168834981508553,2,7.0,community,community
423,9,009551,423,1.0,0.9661567523144186,2,10.0,less remote,community
424,10,009551,424,1.0,0.5103309383848682,2,8.0,community,less remote
425,1,009551,425,1.0,0.5126385708572343,2,9.0,less remote,community
426,0,009551,426,1.0,0.3941270709037781,2,7.0,community,less remote
427,6,009551,427,1.0,0.4167883554473519,2,6.0,boundary,community
428,10,009551,428,1.0,0.5510198292322457,2,8.0,community,boundary
429,9,009551,429,1.0,0.486868547508493,2,10.0,less remote,community
430,2,009551,430,1.0,0.6257478862535208,2,11.0,remote,less remote
431,1,009551,431,1.0,0.5113683920353651,2,9.0,less remote,remote
432,2,009551,432,1.0,0.4802381409099325,2,11.0,remote,less remote
433,1,009551,433,1.0,0.6198029778897762,2,9.0,less remote,remote
434,2,009551,434,1.0,0.4813712806208059,2,11.0,remote,less remote
435,1,009551,435,1.0,0.3809498697519302,2,9.0,less remote,remote
436,10,009551,436,1.0,0.5405182142276317,2,8.0,community,less remote
437,1,009551,437,1.0,0.7177800186909735,2,9.0,less remote,community
438,0,009551,438,1.0,0.5429260606179014,2,7.0,community,less remote
439,1,009551,439,1.0,0.4478793662274256,2,9.0,less remote,community
440,2,009551,440,1.0,0.3647662565344944,2,11.0,remote,less remote
441,1,009551,441,1.0,0.4130306420847773,2,9.0,less remote,remote
442,0,009551,442,1.0,0.3935740842716768,2,7.0,community,less remote
443,10,009551,443,1.0,0.3605355463223532,2,8.0,community,community
444,6,009551,444,1.0,0.3443941919831559,2,6.0,boundary,community
445,10,009551,445,1.0,0.5293455896899104,2,8.0,community,boundary
446,0,009551,446,1.0,0.6581785011803731,2,7.0,community,community
447,9,009551,447,1.0,0.454099258640781,2,10.0,less remote,community
448,0,009551,448,1.0,0.6020428092451766,2,7.0,community,less remote
449,1,009551,449,1.0,0.9285666391951964,2,9.0,less remote,community
450,2,009551,450,1.0,1.017263344372623,2,11.0,remote,less remote
451,1,009551,451,1.0,0.5989817625377327,2,9.0,less remote,remote
452,2,009551,452,1.0,0.4935209890827536,2,11.0,remote,less remote
453,1,009551,453,1.0,0.4884463102789596,2,9.0,less remote,remote
454,10,009551,454,1.0,0.6196749940281734,2,8.0,community,less remote
455,0,009551,455,1.0,1.3448614535154777,2,7.0,community,community
456,9,009551,456,1.0,0.5770569887245074,2,10.0,less remote,community
457,0,009551,457,1.0,0.5759274711599573,2,7.0,community,less remote
458,6,009551,458,1.0,0.5911653926596045,2,6.0,boundary,community
459,4,009551,459,1.0,0.6380542542319745,2,5.0,boundary,boundary
460,7,009551,460,1.0,0.5553181535797194,2,3.0,community,boundary
461,5,009551,461,1.0,0.5785327265039086,2,2.0,less remote,community
462,8,009551,462,1.0,0.5617454160237685,2,4.0,community,less remote
463,3,009551,463,1.0,0.6573254769900814,2,1.0,less remote,community
464,8,009551,464,1.0,0.5415888712741435,2,4.0,community,less remote
465,5,009551,465,1.0,0.6144662944134325,2,2.0,less remote,community
466,11,009551,466,1.0,0.8043665002333,2,0.0,remote,less remote
467,5,009551,467,1.0,0.6185904521262273,2,2.0,less remote,remote
468,11,009551,468,1.0,0.5841564680449665,2,0.0,remote,less remote
469,5,009551,469,1.0,0.5190045582130551,2,2.0,less remote,remote
470,7,009551,470,1.0,0.5119162471964955,2,3.0,community,less remote
471,8,009551,471,1.0,0.7297884620493278,2,4.0,community,community
472,4,009551,472,1.0,0.5870421407744288,2,5.0,boundary,community
473,6,009551,473,1.0,0.5138990906998515,2,6.0,boundary,boundary
474,4,009551,474,1.0,0.5718706258339807,2,5.0,boundary,boundary
475,6,009551,475,1.0,0.6033812060486525,2,6.0,boundary,boundary
476,4,009551,476,1.0,0.6736609201179817,2,5.0,boundary,boundary
477,6,009551,477,1.0,0.4851582733681425,2,6.0,boundary,boundary
478,4,009551,478,1.0,0.6397319288225845,2,5.0,boundary,boundary
479,6,009551,479,1.0,0.4356825692811981,2,6.0,boundary,boundary
480,10,009551,480,1.0,0.6808838555589318,2,8.0,community,boundary
481,9,009551,481,1.0,0.5397131839999929,2,10.0,less remote,community
482,2,009551,482,1.0,0.6046287463977933,2,11.0,remote,less remote
483,9,009551,483,1.0,0.5225413183216006,2,10.0,less remote,remote
484,10,009551,484,1.0,0.7724731758935377,2,8.0,community,less remote
485,6,009551,485,1.0,0.5399917903123423,2,6.0,boundary,community
486,10,009551,486,1.0,0.4372742170235142,2,8.0,community,boundary
487,6,009551,487,1.0,0.4181445613503456,2,6.0,boundary,community
488,0,009551,488,1.0,0.6873754118569195,2,7.0,community,boundary
489,10,009551,489,1.0,0.4666884586913511,2,8.0,community,community
490,0,009551,490,1.0,0.5411783570889384,2,7.0,community,community
491,6,009551,491,1.0,0.486054461915046,2,6.0,boundary,community
492,4,009551,492,1.0,0.6006374021526426,2,5.0,boundary,boundary
493,8,009551,493,1.0,0.5188741595484316,2,4.0,community,boundary
494,5,009551,494,1.0,0.6004360691877082,2,2.0,less remote,community
495,7,009551,495,1.0,0.3990176221122965,2,3.0,community,less remote
496,3,009551,496,1.0,0.5572348921559751,2,1.0,less remote,community
497,8,009551,497,1.0,0.4934823524672538,2,4.0,community,less remote
498,5,009551,498,1.0,0.5600122013129294,2,2.0,less remote,community
499,11,009551,499,1.0,0.4469777442282066,2,0.0,remote,less remote
500,3,009551,500,1.0,0.5631831209175289,2,1.0,less remote,remote
501,7,009551,501,1.0,0.3954099275870248,2,3.0,community,less remote
502,8,009551,502,1.0,0.5459342838730663,2,4.0,community,community
503,3,009551,503,1.0,0.4982159425271675,2,1.0,less remote,community
504,8,009551,504,1.0,0.3727655465481803,2,4.0,community,less remote
505,7,009551,505,1.0,0.764743436826393,2,3.0,community,community
506,4,009551,506,1.0,0.5725684997159988,2,5.0,boundary,community
507,6,009551,507,1.0,0.4921397299040109,2,6.0,boundary,boundary
508,4,009551,508,1.0,0.8146915339166299,2,5.0,boundary,boundary
509,7,009551,509,1.0,0.4275728026404977,2,3.0,community,boundary
510,8,009551,510,1.0,0.5527907750802115,2,4.0,community,community
511,5,009551,511,1.0,0.5610155460890383,2,2.0,less remote,community
512,8,009551,512,1.0,0.3608929351903498,2,4.0,community,less remote
513,3,009551,513,1.0,0.504456662456505,2,1.0,less remote,community
514,11,009551,514,1.0,0.4187443343689665,2,0.0,remote,less remote
515,5,009551,515,1.0,0.520269907428883,2,2.0,less remote,remote
516,8,009551,516,1.0,0.3778643733821809,2,4.0,community,less remote
517,5,009551,517,1.0,0.5611293429974467,2,2.0,less remote,community
518,7,009551,518,1.0,0.4813667529961094,2,3.0,community,less remote
519,8,009551,519,1.0,0.683655429398641,2,4.0,community,community
520,3,009551,520,1.0,0.5021143172634766,2,1.0,less remote,community
521,8,009551,521,1.0,0.5123596627963707,2,4.0,community,less remote
522,5,009551,522,1.0,0.5542634944431484,2,2.0,less remote,community
523,11,009551,523,1.0,0.4425272884545848,2,0.0,remote,less remote
524,5,009551,524,1.0,0.6390880856197327,2,2.0,less remote,remote
525,8,009551,525,1.0,0.4599889286328107,2,4.0,community,less remote
526,5,009551,526,1.0,0.7438651720294729,2,2.0,less remote,community
527,11,009551,527,1.0,0.416456623817794,2,0.0,remote,less remote
528,5,009551,528,1.0,0.4943024752428755,2,2.0,less remote,remote
529,7,009551,529,1.0,0.4402679515769705,2,3.0,community,less remote
530,5,009551,530,1.0,0.5251722307875752,2,2.0,less remote,community
531,11,009551,531,1.0,0.4066833695396781,2,0.0,remote,less remote
532,5,009551,532,1.0,0.5169755318202078,2,2.0,less remote,remote
533,11,009551,533,1.0,0.4064968271413818,2,0.0,remote,less remote
534,5,009551,534,1.0,0.6527651482028887,2,2.0,less remote,remote
535,7,009551,535,1.0,0.3852937731426209,2,3.0,community,less remote
536,8,009551,536,1.0,0.4322107065236196,2,4.0,community,community
537,7,009551,537,1.0,0.5497795332921669,2,3.0,community,community
538,8,009551,538,1.0,0.4543878259137273,2,4.0,community,community
539,5,009551,539,1.0,0.5465902008581907,2,2.0,less remote,community
540,8,009551,540,1.0,0.3621320236707106,2,4.0,community,less remote
541,4,009551,541,1.0,0.4741163493599742,2,5.0,boundary,community
542,7,009551,542,1.0,0.4139998779864982,2,3.0,community,boundary
543,4,009551,543,1.0,0.7159145942423493,2,5.0,boundary,community
544,6,009551,544,1.0,0.4297627143096179,2,6.0,boundary,boundary
545,10,009551,545,1.0,0.6993747996166348,2,8.0,community,boundary
546,0,009551,546,1.0,0.5496258923085406,2,7.0,community,community
547,9,009551,547,1.0,0.4217776111327111,2,10.0,less remote,community
548,10,009551,548,1.0,0.6197275157319382,2,8.0,community,less remote
549,9,009551,549,1.0,1.119883420527913,2,10.0,less remote,community
550,2,009551,550,1.0,0.5374571674037725,2,11.0,remote,less remote
551,9,009551,551,1.0,0.5060353307053447,2,10.0,less remote,remote
552,2,009551,552,1.0,0.5322466567158699,2,11.0,remote,less remote
553,1,009551,553,1.0,0.5738199641928077,2,9.0,less remote,remote
554,0,009551,554,1.0,0.4930313907098025,2,7.0,community,less remote
555,9,009551,555,1.0,0.647272408939898,2,10.0,less remote,community
556,0,009551,556,1.0,1.483562399749644,2,7.0,community,less remote
557,6,009551,557,1.0,0.566691507352516,2,6.0,boundary,community
558,10,009551,558,1.0,0.5579345772275701,2,8.0,community,boundary
559,9,009551,559,1.0,0.5257849835325032,2,10.0,less remote,community
560,10,009551,560,1.0,0.5353958433261141,2,8.0,community,less remote
561,9,009551,561,1.0,0.471897158306092,2,10.0,less remote,community
562,2,009551,562,1.0,0.7395267019746825,2,11.0,remote,less remote
563,9,009551,563,1.0,0.5080396054545417,2,10.0,less remote,remote
564,2,009551,564,1.0,0.6143002777826041,2,11.0,remote,less remote
565,9,009551,565,1.0,0.3478491511195898,2,10.0,less remote,remote
566,0,009551,566,1.0,0.7720837912056595,2,7.0,community,less remote
567,1,009551,567,1.0,0.587938329204917,2,9.0,less remote,community
568,0,009551,568,1.0,0.4575140719534829,2,7.0,community,less remote
569,1,009551,569,1.0,0.5661430484615266,2,9.0,less remote,community
570,10,009551,570,1.0,0.462357836542651,2,8.0,community,less remote
571,0,009551,571,1.0,0.4099324679700658,2,7.0,community,community
572,6,009551,572,1.0,0.4477393083507195,2,6.0,boundary,community
573,10,009551,573,1.0,0.4527110569179058,2,8.0,community,boundary
574,0,009551,574,1.0,0.6406187599059194,2,7.0,community,community
575,9,009551,575,1.0,0.4211660658475011,2,10.0,less remote,community
576,2,009551,576,1.0,0.4987535347463563,2,11.0,remote,less remote
577,1,009551,577,1.0,0.4216764918528497,2,9.0,less remote,remote
578,0,009551,578,1.0,0.3138818249572068,2,7.0,community,less remote
579,1,009551,579,1.0,0.4681961925234645,2,9.0,less remote,community
580,0,009551,580,1.0,0.4153274082345888,2,7.0,community,less remote
581,1,009551,581,1.0,0.3256355080520734,2,9.0,less remote,community
582,10,009551,582,1.0,0.5192034763749689,2,8.0,community,less remote
583,6,009551,583,1.0,0.4566984770353883,2,6.0,boundary,community
584,0,009551,584,1.0,0.9086754193995148,2,7.0,community,boundary
585,1,009551,585,1.0,0.8388463653391227,2,9.0,less remote,community
586,0,009551,586,1.0,0.5714009493822232,2,7.0,community,less remote
587,1,009551,587,1.0,0.4593577632913366,2,9.0,less remote,community
588,10,009551,588,1.0,0.6705841772491112,2,8.0,community,less remote
589,9,009551,589,1.0,0.4817126714624464,2,10.0,less remote,community
590,10,009551,590,1.0,0.5253476048819721,2,8.0,community,less remote
591,1,009551,591,1.0,0.5749470668379217,2,9.0,less remote,community
592,2,009551,592,1.0,0.5668430353980511,2,11.0,remote,less remote
593,9,009551,593,1.0,0.438337629660964,2,10.0,less remote,remote
594,10,009551,594,1.0,1.0676470091566443,2,8.0,community,less remote
595,9,009551,595,1.0,0.5988130291225389,2,10.0,less remote,community
596,10,009551,596,1.0,0.4537137979641557,2,8.0,community,less remote
597,9,009551,597,1.0,0.4095723625505343,2,10.0,less remote,community
598,2,009551,598,1.0,0.6944887761492282,2,11.0,remote,less remote
599,1,009551,599,1.0,0.6014345843577757,2,9.0,less remote,remote
600,2,009551,600,1.0,3.5798010943690315,3,11.0,remote,less remote
601,9,009551,601,1.0,0.6014985762303695,3,10.0,less remote,remote
602,2,009551,602,1.0,0.4317072231788188,3,11.0,remote,less remote
603,1,009551,603,1.0,0.5573200135258958,3,9.0,less remote,remote
604,0,009551,604,1.0,0.6051485296338797,3,7.0,community,less remote
605,6,009551,605,1.0,0.5073858014075086,3,6.0,boundary,community
606,10,009551,606,1.0,0.4379657520912587,3,8.0,community,boundary
607,6,009551,607,1.0,0.4909130170708522,3,6.0,boundary,community
608,10,009551,608,1.0,0.5021363522391766,3,8.0,community,boundary
609,9,009551,609,1.0,0.4799622513819486,3,10.0,less remote,community
610,0,009551,610,1.0,0.9549201359041036,3,7.0,community,less remote
611,10,009551,611,1.0,0.5224758172407746,3,8.0,community,community
612,1,009551,612,1.0,0.5003690286539495,3,9.0,less remote,community
613,2,009551,613,1.0,0.7269272389821708,3,11.0,remote,less remote
614,9,009551,614,1.0,0.5037925955839455,3,10.0,less remote,remote
615,0,009551,615,1.0,0.4817129733273759,3,7.0,community,less remote
616,10,009551,616,1.0,0.3732454858254641,3,8.0,community,community
617,1,009551,617,1.0,0.5492211134405807,3,9.0,less remote,community
618,2,009551,618,1.0,0.4297144185984507,3,11.0,remote,less remote
619,1,009551,619,1.0,0.4673015131847933,3,9.0,less remote,remote
620,10,009551,620,1.0,0.4152471163542941,3,8.0,community,less remote
621,0,009551,621,1.0,0.6037865887628868,3,7.0,community,community
622,9,009551,622,1.0,0.5456876734970137,3,10.0,less remote,community
623,0,009551,623,1.0,0.4818608791101724,3,7.0,community,less remote
624,1,009551,624,1.0,0.9335169564001262,3,9.0,less remote,community
625,0,009551,625,1.0,0.6223629559390247,3,7.0,community,less remote
626,10,009551,626,1.0,0.4362503465963527,3,8.0,community,community
627,9,009551,627,1.0,0.5128070024074987,3,10.0,less remote,community
628,2,009551,628,1.0,0.6347562563605607,3,11.0,remote,less remote
629,1,009551,629,1.0,0.6959811156848446,3,9.0,less remote,remote
630,2,009551,630,1.0,0.5298862006748095,3,11.0,remote,less remote
631,9,009551,631,1.0,0.6027117058401927,3,10.0,less remote,remote
632,0,009551,632,1.0,0.5365972007857636,3,7.0,community,less remote
633,9,009551,633,1.0,1.2971889930777252,3,10.0,less remote,community
634,10,009551,634,1.0,0.5400672523537651,3,8.0,community,less remote
635,6,009551,635,1.0,0.4449293996440246,3,6.0,boundary,community
636,10,009551,636,1.0,0.6418810908216983,3,8.0,community,boundary
637,1,009551,637,1.0,0.4790956439683214,3,9.0,less remote,community
638,10,009551,638,1.0,0.5786311291158199,3,8.0,community,less remote
639,0,009551,639,1.0,0.4895190802635625,3,7.0,community,community
640,9,009551,640,1.0,0.5711253616027534,3,10.0,less remote,community
641,2,009551,641,1.0,0.6026990282116458,3,11.0,remote,less remote
642,9,009551,642,1.0,1.5205799060640857,3,10.0,less remote,remote
643,10,009551,643,1.0,0.8583844222594053,3,8.0,community,less remote
644,6,009551,644,1.0,0.542593423393555,3,6.0,boundary,community
645,10,009551,645,1.0,0.5035091596655548,3,8.0,community,boundary
646,1,009551,646,1.0,0.8261273704702035,3,9.0,less remote,community
647,2,009551,647,1.0,0.5353074016747996,3,11.0,remote,less remote
648,1,009551,648,1.0,0.4795867517823353,3,9.0,less remote,remote
649,0,009551,649,1.0,0.9303997658425942,3,7.0,community,less remote
650,9,009551,650,1.0,0.579270746326074,3,10.0,less remote,community
651,2,009551,651,1.0,0.5625238836510107,3,11.0,remote,less remote
652,1,009551,652,1.0,0.5467498787911609,3,9.0,less remote,remote
653,0,009551,653,1.0,0.5149552590446547,3,7.0,community,less remote
654,1,009551,654,1.0,0.5012628023978323,3,9.0,less remote,community
655,2,009551,655,1.0,0.5914705616887659,3,11.0,remote,less remote
656,9,009551,656,1.0,0.7099862876348197,3,10.0,less remote,remote
657,10,009551,657,1.0,0.5122654860606417,3,8.0,community,less remote
658,1,009551,658,1.0,0.5454546463442966,3,9.0,less remote,community
659,10,009551,659,1.0,0.6104257489787415,3,8.0,community,less remote
660,9,009551,660,1.0,0.5518970013363287,3,10.0,less remote,community
661,0,009551,661,1.0,0.5278125007171184,3,7.0,community,less remote
662,9,009551,662,1.0,0.5047298355493695,3,10.0,less remote,community
663,10,009551,663,1.0,0.4672903447644785,3,8.0,community,less remote
664,9,009551,664,1.0,0.4785242445068434,3,10.0,less remote,community
665,2,009551,665,1.0,0.5937471039360389,3,11.0,remote,less remote
666,9,009551,666,1.0,0.4639271475607529,3,10.0,less remote,remote
667,10,009551,667,1.0,0.4762775852577761,3,8.0,community,less remote
668,1,009551,668,1.0,0.7347973379073665,3,9.0,less remote,community
669,0,009551,669,1.0,0.6393069259356707,3,7.0,community,less remote
670,6,009551,670,1.0,0.4922960874391719,3,6.0,boundary,community
671,0,009551,671,1.0,0.5344359646551311,3,7.0,community,boundary
672,9,009551,672,1.0,1.3270828721579164,3,10.0,less remote,community
673,10,009551,673,1.0,0.5205741709796712,3,8.0,community,less remote
674,1,009551,674,1.0,0.5224441230529919,3,9.0,less remote,community
675,2,009551,675,1.0,0.5160521769430488,3,11.0,remote,less remote
676,1,009551,676,1.0,0.5422973098466173,3,9.0,less remote,remote
677,2,009551,677,1.0,0.4938180081080645,3,11.0,remote,less remote
678,9,009551,678,1.0,0.3280053215567022,3,10.0,less remote,remote
679,0,009551,679,1.0,0.696925298194401,3,7.0,community,less remote
680,6,009551,680,1.0,0.4355485484702512,3,6.0,boundary,community
681,4,009551,681,1.0,0.5040829739300534,3,5.0,boundary,boundary
682,6,009551,682,1.0,0.5542831146158278,3,6.0,boundary,boundary
683,10,009551,683,1.0,0.7309143572347239,3,8.0,community,boundary
684,1,009551,684,1.0,0.5164533336646855,3,9.0,less remote,community
685,0,009551,685,1.0,0.8859513504430652,3,7.0,community,less remote
686,1,009551,686,1.0,0.5612386121647432,3,9.0,less remote,community
687,0,009551,687,1.0,0.6797516213264316,3,7.0,community,less remote
688,10,009551,688,1.0,0.7713581472635269,3,8.0,community,community
689,9,009551,689,1.0,0.9624995546182618,3,10.0,less remote,community
690,10,009551,690,1.0,0.4987816067878157,3,8.0,community,less remote
691,6,009551,691,1.0,0.4372609356651082,3,6.0,boundary,community
692,0,009551,692,1.0,0.53788549057208,3,7.0,community,boundary
693,1,009551,693,1.0,0.4511206165188923,3,9.0,less remote,community
694,0,009551,694,1.0,0.5109868552535772,3,7.0,community,less remote
695,9,009551,695,1.0,0.4965684526832774,3,10.0,less remote,community
696,2,009551,696,1.0,0.4581926276441663,3,11.0,remote,less remote
697,9,009551,697,1.0,0.6220188485458493,3,10.0,less remote,remote
698,0,009551,698,1.0,0.5872842232929543,3,7.0,community,less remote
699,6,009551,699,1.0,0.4501755285309627,3,6.0,boundary,community
700,10,009551,700,1.0,0.5830957719590515,3,8.0,community,boundary
701,0,009551,701,1.0,0.4859460982261225,3,7.0,community,community
702,6,009551,702,1.0,0.4328823196701705,3,6.0,boundary,community
703,0,009551,703,1.0,0.5577208684990183,3,7.0,community,boundary
704,6,009551,704,1.0,0.3500170278130099,3,6.0,boundary,community
705,4,009551,705,1.0,0.446593792992644,3,5.0,boundary,boundary
706,7,009551,706,1.0,1.6587302803527564,3,3.0,community,boundary
707,5,009551,707,1.0,0.5186169845983386,3,2.0,less remote,community
708,11,009551,708,1.0,0.4882322995690629,3,0.0,remote,less remote
709,5,009551,709,1.0,0.5071029692189768,3,2.0,less remote,remote
710,8,009551,710,1.0,0.4533268279628828,3,4.0,community,less remote
711,7,009551,711,1.0,0.4739246753742918,3,3.0,community,community
712,3,009551,712,1.0,0.5011372333392501,3,1.0,less remote,community
713,11,009551,713,1.0,0.4393871573265642,3,0.0,remote,less remote
714,5,009551,714,1.0,0.4363089051330462,3,2.0,less remote,remote
715,7,009551,715,1.0,0.4415616746991873,3,3.0,community,less remote
716,4,009551,716,1.0,0.4854398980969563,3,5.0,boundary,community
717,6,009551,717,1.0,0.496332407114096,3,6.0,boundary,boundary
718,0,009551,718,1.0,0.4425991283496842,3,7.0,community,boundary
719,9,009551,719,1.0,0.4228057074360549,3,10.0,less remote,community
720,0,009551,720,1.0,0.4440836198627949,3,7.0,community,less remote
721,9,009551,721,1.0,0.4006174197420478,3,10.0,less remote,community
722,2,009551,722,1.0,0.6068977423710749,3,11.0,remote,less remote
723,1,009551,723,1.0,0.5013871639966965,3,9.0,less remote,remote
724,0,009551,724,1.0,0.3993086041882634,3,7.0,community,less remote
725,6,009551,725,1.0,0.389888210920617,3,6.0,boundary,community
726,10,009551,726,1.0,0.3811424492159858,3,8.0,community,boundary
727,0,009551,727,1.0,0.643054376472719,3,7.0,community,community
728,10,009551,728,1.0,0.5279706693254411,3,8.0,community,community
729,0,009551,729,1.0,0.5128236041637138,3,7.0,community,community
730,10,009551,730,1.0,0.4910899004898965,3,8.0,community,community
731,6,009551,731,1.0,0.4699457070091739,3,6.0,boundary,community
732,4,009551,732,1.0,0.5135712830815464,3,5.0,boundary,boundary
733,6,009551,733,1.0,0.5554192727431655,3,6.0,boundary,boundary
734,0,009551,734,1.0,0.5232763197273016,3,7.0,community,boundary
735,9,009551,735,1.0,0.5246237718965858,3,10.0,less remote,community
736,0,009551,736,1.0,0.5018372201593593,3,7.0,community,less remote
737,6,009551,737,1.0,0.4389787560794502,3,6.0,boundary,community
738,0,009551,738,1.0,0.5395679947687313,3,7.0,community,boundary
739,6,009551,739,1.0,0.4524907073937356,3,6.0,boundary,community
740,10,009551,740,1.0,0.6331069554435089,3,8.0,community,boundary
741,1,009551,741,1.0,0.8546804379438981,3,9.0,less remote,community
742,0,009551,742,1.0,0.6105319996131584,3,7.0,community,less remote
743,6,009551,743,1.0,0.4644242922076955,3,6.0,boundary,community
744,4,009551,744,1.0,0.5719442768022418,3,5.0,boundary,boundary
745,6,009551,745,1.0,0.4755504321074113,3,6.0,boundary,boundary
746,0,009551,746,1.0,0.4375099607277661,3,7.0,community,boundary
747,9,009551,747,1.0,0.4980079687666148,3,10.0,less remote,community
748,10,009551,748,1.0,0.5329303438775241,3,8.0,community,less remote
749,6,009551,749,1.0,0.3661523453192785,3,6.0,boundary,community
750,4,009551,750,1.0,0.6940833934349939,3,5.0,boundary,boundary
751,7,009551,751,1.0,0.4889718287158757,3,3.0,community,boundary
752,4,009551,752,1.0,0.4919589225901291,3,5.0,boundary,community
753,7,009551,753,1.0,0.3027469315566122,3,3.0,community,boundary
754,4,009551,754,1.0,0.2969946025405079,3,5.0,boundary,community
755,6,009551,755,1.0,0.4355687723727897,3,6.0,boundary,boundary
756,0,009551,756,1.0,0.4880955622065812,3,7.0,community,boundary
757,9,009551,757,1.0,0.4497318110661581,3,10.0,less remote,community
758,0,009551,758,1.0,0.3819393295561895,3,7.0,community,less remote
759,10,009551,759,1.0,0.4455626780400052,3,8.0,community,community
760,0,009551,760,1.0,0.5057687984080985,3,7.0,community,community
761,6,009551,761,1.0,0.3399968612939119,3,6.0,boundary,community
762,0,009551,762,1.0,0.5725772533332929,3,7.0,community,boundary
763,10,009551,763,1.0,0.2524498973507434,3,8.0,community,community
764,6,009551,764,1.0,0.6007137699052691,3,6.0,boundary,community
765,0,009551,765,1.0,0.6306097619235516,3,7.0,community,boundary
766,6,009551,766,1.0,0.4118344159796834,3,6.0,boundary,community
767,10,009551,767,0.0,0.3451373431598767,3,8.0,community,boundary
768,1,009551,768,1.0,2.0260368761373684,3,9.0,less remote,community
769,10,009551,769,1.0,0.5274883152451366,3,8.0,community,less remote
770,1,009551,770,1.0,0.5930437966017053,3,9.0,less remote,community
771,0,009551,771,1.0,0.4392546457238495,3,7.0,community,less remote
772,6,009551,772,1.0,5.132251667324454,3,6.0,boundary,community
773,4,009551,773,1.0,1.3717640129616484,3,5.0,boundary,boundary
774,6,009551,774,1.0,1.927598912618123,3,6.0,boundary,boundary
775,4,009551,775,1.0,0.5047452297294512,3,5.0,boundary,boundary
776,6,009551,776,1.0,0.5229473047656938,3,6.0,boundary,boundary
777,10,009551,777,1.0,0.5808753735618666,3,8.0,community,boundary
778,1,009551,778,1.0,0.4524553910596296,3,9.0,less remote,community
779,2,009551,779,1.0,0.5446909694001079,3,11.0,remote,less remote
780,9,009551,780,1.0,0.48085119551979,3,10.0,less remote,remote
781,0,009551,781,1.0,0.5397844202816486,3,7.0,community,less remote
782,10,009551,782,1.0,0.5161255260463804,3,8.0,community,community
783,6,009551,783,1.0,0.4779395638033747,3,6.0,boundary,community
784,0,009551,784,1.0,1.3688864901196212,3,7.0,community,boundary
785,1,009551,785,1.0,0.7046716390177608,3,9.0,less remote,community
786,0,009551,786,1.0,0.5225727105280384,3,7.0,community,less remote
787,6,009551,787,1.0,0.532085771439597,3,6.0,boundary,community
788,4,009551,788,1.0,0.485394922667183,3,5.0,boundary,boundary
789,8,009551,789,1.0,0.4242920100223273,3,4.0,community,boundary
790,3,009551,790,1.0,0.4775039962260052,3,1.0,less remote,community
791,11,009551,791,1.0,0.5037602977827191,3,0.0,remote,less remote
792,3,009551,792,1.0,0.4176066670333966,3,1.0,less remote,remote
793,11,009551,793,1.0,0.4952028895495459,3,0.0,remote,less remote
794,5,009551,794,1.0,0.4338397834217176,3,2.0,less remote,remote
795,7,009551,795,1.0,0.4630191868636757,3,3.0,community,less remote
796,5,009551,796,1.0,0.5149190371157601,3,2.0,less remote,community
797,11,009551,797,1.0,0.4767946520587429,3,0.0,remote,less remote
798,3,009551,798,1.0,0.4557111301692202,3,1.0,less remote,remote
799,7,009551,799,1.0,0.46030617156066,3,3.0,community,less remote
800,8,009551,800,1.0,6.994567951071076,4,4.0,community,community
801,4,009551,801,1.0,0.4562402707524597,4,5.0,boundary,community
802,7,009551,802,1.0,0.5008486660663038,4,3.0,community,boundary
803,3,009551,803,1.0,0.49377937160898,4,1.0,less remote,community
804,11,009551,804,1.0,0.5362672802293673,4,0.0,remote,less remote
805,3,009551,805,1.0,0.504885287489742,4,1.0,less remote,remote
806,11,009551,806,1.0,0.4511076370254159,4,0.0,remote,less remote
807,3,009551,807,1.0,0.3910168228903785,4,1.0,less remote,remote
808,8,009551,808,1.0,0.4858971986686811,4,4.0,community,less remote
809,5,009551,809,1.0,0.5288460302399471,4,2.0,less remote,community
810,11,009551,810,1.0,0.4820099923526868,4,0.0,remote,less remote
811,5,009551,811,1.0,0.5492935570655391,4,2.0,less remote,remote
812,11,009551,812,1.0,0.3898082210216671,4,0.0,remote,less remote
813,5,009551,813,1.0,0.4527487879386171,4,2.0,less remote,remote
814,11,009551,814,1.0,0.4080284069059416,4,0.0,remote,less remote
815,3,009551,815,1.0,0.7098987514618784,4,1.0,less remote,remote
816,8,009551,816,1.0,0.4237683027749881,4,4.0,community,less remote
817,3,009551,817,1.0,0.485064398497343,4,1.0,less remote,community
818,8,009551,818,1.0,0.4479173989966512,4,4.0,community,less remote
819,7,009551,819,1.0,0.4208690469386056,4,3.0,community,community
820,4,009551,820,1.0,0.4505148064345121,4,5.0,boundary,community
821,7,009551,821,1.0,0.3670002381550148,4,3.0,community,boundary
822,5,009551,822,1.0,0.4865721322130412,4,2.0,less remote,community
823,11,009551,823,1.0,0.4174804943613708,4,0.0,remote,less remote
824,5,009551,824,1.0,0.7740177352679893,4,2.0,less remote,remote
825,8,009551,825,1.0,0.4535613643238321,4,4.0,community,less remote
826,3,009551,826,1.0,0.5294702532701194,4,1.0,less remote,community
827,11,009551,827,1.0,0.4026781403226778,4,0.0,remote,less remote
828,5,009551,828,1.0,0.4969228230183944,4,2.0,less remote,remote
829,11,009551,829,1.0,0.3874990791082382,4,0.0,remote,less remote
830,5,009551,830,1.0,0.4664804849307984,4,2.0,less remote,remote
831,11,009551,831,1.0,0.3423573174513876,4,0.0,remote,less remote
832,5,009551,832,1.0,0.4548825557576492,4,2.0,less remote,remote
833,11,009551,833,1.0,0.3711083977250382,4,0.0,remote,less remote
834,5,009551,834,1.0,0.8737605905625969,4,2.0,less remote,remote
835,7,009551,835,1.0,0.4375878378050402,4,3.0,community,less remote
836,5,009551,836,1.0,0.4584630840690806,4,2.0,less remote,community
837,7,009551,837,1.0,0.5191089977743104,4,3.0,community,less remote
838,4,009551,838,1.0,0.4886766207637265,4,5.0,boundary,community
839,8,009551,839,1.0,0.4915683304425329,4,4.0,community,boundary
840,4,009551,840,1.0,0.5424385750666261,4,5.0,boundary,community
841,6,009551,841,1.0,0.4709879902657121,4,6.0,boundary,boundary
842,10,009551,842,1.0,0.5469222343526781,4,8.0,community,boundary
843,0,009551,843,1.0,0.6751306210644543,4,7.0,community,community
844,6,009551,844,1.0,0.4457347317365929,4,6.0,boundary,community
845,4,009551,845,1.0,0.5143047752790153,4,5.0,boundary,boundary
846,6,009551,846,1.0,0.6201585555681959,4,6.0,boundary,boundary
847,4,009551,847,1.0,0.6337613633368164,4,5.0,boundary,boundary
848,6,009551,848,1.0,0.4866367278154939,4,6.0,boundary,boundary
849,0,009551,849,1.0,0.6492292934563011,4,7.0,community,boundary
850,10,009551,850,1.0,1.7261234160978347,4,8.0,community,community
851,9,009551,851,1.0,0.4788662389619276,4,10.0,less remote,community
852,10,009551,852,1.0,0.6985238883644342,4,8.0,community,less remote
853,1,009551,853,1.0,0.6204015436815098,4,9.0,less remote,community
854,10,009551,854,1.0,0.5862675971584395,4,8.0,community,less remote
855,9,009551,855,1.0,0.4807977682212367,4,10.0,less remote,community
856,0,009551,856,1.0,0.691781495930627,4,7.0,community,less remote
857,6,009551,857,1.0,0.4306093996856361,4,6.0,boundary,community
858,4,009551,858,1.0,0.5474939356790856,4,5.0,boundary,boundary
859,7,009551,859,1.0,0.4444705897476524,4,3.0,community,boundary
860,4,009551,860,1.0,0.4649824103107676,4,5.0,boundary,community
861,6,009551,861,1.0,0.4608911542454734,4,6.0,boundary,boundary
862,10,009551,862,1.0,1.4962258546147496,4,8.0,community,boundary
863,0,009551,863,1.0,0.546290465281345,4,7.0,community,community
864,10,009551,864,1.0,0.5072288400260732,4,8.0,community,community
865,0,009551,865,1.0,0.5011034263297915,4,7.0,community,community
866,10,009551,866,1.0,0.5196453827666119,4,8.0,community,community
867,1,009551,867,1.0,0.6175545075675473,4,9.0,less remote,community
868,2,009551,868,1.0,0.4711431404575705,4,11.0,remote,less remote
869,1,009551,869,1.0,0.6030392115935683,4,9.0,less remote,remote
870,0,009551,870,1.0,1.608863380504772,4,7.0,community,less remote
871,6,009551,871,1.0,0.4627085847314447,4,6.0,boundary,community
872,10,009551,872,1.0,0.4900029435520991,4,8.0,community,boundary
873,0,009551,873,1.0,0.7725380734773353,4,7.0,community,community
874,10,009551,874,1.0,0.7644385696621612,4,8.0,community,community
875,6,009551,875,1.0,0.4042489604325965,4,6.0,boundary,community
876,4,009551,876,1.0,0.5225564107531682,4,5.0,boundary,boundary
877,6,009551,877,1.0,0.4680887344293296,4,6.0,boundary,boundary
878,10,009551,878,1.0,0.5040319614345208,4,8.0,community,boundary
879,9,009551,879,1.0,0.4499071850441396,4,10.0,less remote,community
880,10,009551,880,1.0,0.4868320239474997,4,8.0,community,less remote
881,1,009551,881,1.0,0.514082312816754,4,9.0,less remote,community
882,2,009551,882,1.0,0.5149190372321755,4,11.0,remote,less remote
883,9,009551,883,1.0,0.4605014675762504,4,10.0,less remote,remote
884,10,009551,884,1.0,0.4967740116408095,4,8.0,community,less remote
885,9,009551,885,1.0,0.4593345209723338,4,10.0,less remote,community
886,10,009551,886,1.0,0.4955789929954335,4,8.0,community,less remote
887,0,009551,887,1.0,0.3777985703200102,4,7.0,community,community
888,1,009551,888,1.0,0.7293812681455165,4,9.0,less remote,community
889,2,009551,889,1.0,0.5785940018249676,4,11.0,remote,less remote
890,1,009551,890,1.0,0.4101830022409558,4,9.0,less remote,remote
891,10,009551,891,0.0,0.3444180379156023,4,8.0,community,less remote
892,0,009551,892,1.0,2.31167893379461,4,7.0,community,community
893,1,009551,893,1.0,0.5617659416748211,4,9.0,less remote,community
894,2,009551,894,1.0,0.5456055706599727,4,11.0,remote,less remote
895,1,009551,895,1.0,1.4186072952579707,4,9.0,less remote,remote
896,2,009551,896,1.0,0.600105544901453,4,11.0,remote,less remote
897,1,009551,897,1.0,0.6309547747951001,4,9.0,less remote,remote
898,10,009551,898,1.0,2.060593712492846,4,8.0,community,less remote
899,6,009551,899,1.0,0.8073726106667891,4,6.0,boundary,community
900,10,009551,900,1.0,1.853906498057768,4,8.0,community,boundary
901,6,009551,901,1.0,0.5699864868074656,4,6.0,boundary,community
902,4,009551,902,1.0,0.5055716912029311,4,5.0,boundary,boundary
903,8,009551,903,1.0,0.4438291614642367,4,4.0,community,boundary
904,4,009551,904,1.0,0.4484706874936819,4,5.0,boundary,community
905,6,009551,905,1.0,0.7329590797889978,4,6.0,boundary,boundary
906,4,009551,906,1.0,0.5098437545821071,4,5.0,boundary,boundary
907,8,009551,907,1.0,0.4317561225034296,4,4.0,community,boundary
908,3,009551,908,1.0,0.4996566658373922,4,1.0,less remote,community
909,7,009551,909,1.0,0.4146183656994253,4,3.0,community,less remote
910,8,009551,910,1.0,0.4924693484790623,4,4.0,community,community
911,3,009551,911,1.0,0.5346738214138895,4,1.0,less remote,community
912,8,009551,912,1.0,0.3595675178803503,4,4.0,community,less remote
913,4,009551,913,1.0,0.4475319384364411,4,5.0,boundary,community
914,7,009551,914,1.0,0.476408889517188,4,3.0,community,boundary
915,8,009551,915,1.0,0.5356469813268632,4,4.0,community,community
916,4,009551,916,1.0,1.0485345587367192,4,5.0,boundary,community
917,7,009551,917,1.0,0.3974323131842538,4,3.0,community,boundary
918,5,009551,918,1.0,0.5149338277988136,4,2.0,less remote,community
919,8,009551,919,1.0,0.3808399968547746,4,4.0,community,less remote
920,3,009551,920,1.0,0.4677772265858948,4,1.0,less remote,community
921,8,009551,921,1.0,0.3513388228602707,4,4.0,community,less remote
922,3,009551,922,1.0,0.4072436005808413,4,1.0,less remote,community
923,8,009551,923,1.0,0.4455053268466145,4,4.0,community,less remote
924,5,009551,924,1.0,0.5460369123611599,4,2.0,less remote,community
925,11,009551,925,1.0,0.4826079544145614,4,0.0,remote,less remote
926,3,009551,926,1.0,0.4695038006175309,4,1.0,less remote,remote
927,7,009551,927,1.0,0.4574271395104006,4,3.0,community,less remote
928,8,009551,928,1.0,0.4447036169003695,4,4.0,community,community
929,5,009551,929,1.0,0.4172535041579976,4,2.0,less remote,community
930,11,009551,930,1.0,0.4148000786080956,4,0.0,remote,less remote
931,5,009551,931,1.0,0.3168855204712599,4,2.0,less remote,remote
932,8,009551,932,1.0,0.3666008922737092,4,4.0,community,less remote
933,5,009551,933,1.0,0.3585834912955761,4,2.0,less remote,community
934,7,009551,934,1.0,0.4467939184978604,4,3.0,community,less remote
935,3,009551,935,1.0,0.3789890612242743,4,1.0,less remote,community
936,11,009551,936,1.0,0.4022630983963609,4,0.0,remote,less remote
937,5,009551,937,1.0,0.4404804529622197,4,2.0,less remote,remote
938,8,009551,938,1.0,0.4774019713513553,4,4.0,community,less remote
939,7,009551,939,1.0,0.4799854937009513,4,3.0,community,community
940,3,009551,940,1.0,0.7548578947316855,4,1.0,less remote,community
941,11,009551,941,1.0,0.395117134321481,4,0.0,remote,less remote
942,5,009551,942,1.0,0.4657315985532477,4,2.0,less remote,remote
943,7,009551,943,1.0,0.3339629075489938,4,3.0,community,less remote
944,4,009551,944,1.0,0.4068599509773776,4,5.0,boundary,community
945,8,009551,945,1.0,0.4050204855157062,4,4.0,community,boundary
946,5,009551,946,1.0,0.467326566693373,4,2.0,less remote,community
947,11,009551,947,1.0,0.3508537522284314,4,0.0,remote,less remote
948,5,009551,948,1.0,0.431136125465855,4,2.0,less remote,remote
949,11,009551,949,1.0,0.7234285117592663,4,0.0,remote,less remote
950,3,009551,950,1.0,0.5084969061426818,4,1.0,less remote,remote
951,7,009551,951,1.0,0.3511824653251096,4,3.0,community,less remote
952,5,009551,952,1.0,0.5033663852373138,4,2.0,less remote,community
953,7,009551,953,1.0,0.3459589751437306,4,3.0,community,less remote
954,3,009551,954,1.0,0.4502609516493976,4,1.0,less remote,community
955,11,009551,955,1.0,0.4464286817237735,4,0.0,remote,less remote
956,5,009551,956,1.0,0.6029909157659858,4,2.0,less remote,remote
957,8,009551,957,1.0,0.3852337053976953,4,4.0,community,less remote
958,7,009551,958,1.0,0.6644838167121634,4,3.0,community,community
959,8,009551,959,1.0,0.5323861107463017,4,4.0,community,community
960,3,009551,960,1.0,0.4602871551178396,4,1.0,less remote,community
961,11,009551,961,1.0,0.4321331315441057,4,0.0,remote,less remote
962,3,009551,962,1.0,0.3889856835594401,4,1.0,less remote,remote
963,8,009551,963,1.0,0.4119820200139656,4,4.0,community,less remote
964,4,009551,964,1.0,0.4819158156169578,4,5.0,boundary,community
965,6,009551,965,1.0,0.8211498868186027,4,6.0,boundary,boundary
966,4,009551,966,1.0,0.4023458049632609,4,5.0,boundary,boundary
967,8,009551,967,1.0,0.7605338561115786,4,4.0,community,boundary
968,4,009551,968,1.0,0.5284901508130133,4,5.0,boundary,community
969,7,009551,969,1.0,0.369089332409203,4,3.0,community,boundary
970,4,009551,970,1.0,0.4405655743321404,4,5.0,boundary,community
971,7,009551,971,1.0,0.3258326152572408,4,3.0,community,boundary
972,5,009551,972,1.0,0.3671306365868076,4,2.0,less remote,community
973,11,009551,973,1.0,0.3826948566129431,4,0.0,remote,less remote
974,3,009551,974,1.0,0.4215847299201414,4,1.0,less remote,remote
975,8,009551,975,1.0,0.3791445132810622,4,4.0,community,less remote
976,4,009551,976,1.0,0.4343867332208901,4,5.0,boundary,community
977,6,009551,977,1.0,0.399243404972367,4,6.0,boundary,boundary
978,4,009551,978,1.0,0.4454992897808552,4,5.0,boundary,boundary
979,7,009551,979,1.0,0.3944642358692363,4,3.0,community,boundary
980,5,009551,980,1.0,0.6330333043588325,4,2.0,less remote,community
981,7,009551,981,1.0,0.4535755512770265,4,3.0,community,less remote
982,8,009551,982,1.0,1.4018196827964855,4,4.0,community,community
983,5,009551,983,1.0,0.4080160311423242,4,2.0,less remote,community
984,8,009551,984,1.0,0.3901906632818281,4,4.0,community,less remote
985,3,009551,985,1.0,0.4128009353298694,4,1.0,less remote,community
986,8,009551,986,1.0,0.4187081126729026,4,4.0,community,less remote
987,7,009551,987,1.0,0.5846644792472944,4,3.0,community,community
988,4,009551,988,1.0,0.5114969795104116,4,5.0,boundary,community
989,7,009551,989,1.0,0.3457663955632597,4,3.0,community,boundary
990,3,009551,990,1.0,0.4179622447118163,4,1.0,less remote,community
991,7,009551,991,1.0,0.8868753089336678,4,3.0,community,less remote
992,8,009551,992,1.0,2.905801820685156,4,4.0,community,community
993,5,009551,993,1.0,0.4838265172438696,4,2.0,less remote,community
994,8,009551,994,1.0,0.3667545333737507,4,4.0,community,less remote
995,4,009551,995,1.0,0.470669238246046,4,5.0,boundary,community
996,6,009551,996,1.0,0.3622153338510543,4,6.0,boundary,boundary
997,4,009551,997,1.0,0.8581399248214439,4,5.0,boundary,boundary
998,8,009551,998,1.0,0.3903548688394949,4,4.0,community,boundary
999,5,009551,999,1.0,1.0762783701065928,4,2.0,less remote,community
1000,0,126817,0,1.0,3.8928522884380072,0,8.0,community,
1001,7,126817,1,1.0,1.9029402522137389,0,9.0,less remote,community
1002,0,126817,2,1.0,2.8631099857157096,0,8.0,community,less remote
1003,5,126817,3,1.0,1.998564162873663,0,6.0,boundary,community
1004,4,126817,4,1.0,0.9726027712458744,0,7.0,community,boundary
1005,0,126817,5,1.0,1.015332259470597,0,8.0,community,community
1006,7,126817,6,1.0,0.7720225043594837,0,9.0,less remote,community
1007,4,126817,7,1.0,0.6539657707326114,0,7.0,community,less remote
1008,0,126817,8,1.0,0.9927937908796594,0,8.0,community,community
1009,5,126817,9,1.0,1.0074845898197964,0,6.0,boundary,community
1010,0,126817,10,1.0,0.9322059416444972,0,8.0,community,boundary
1011,4,126817,11,1.0,1.0868867435492575,0,7.0,community,community
1012,7,126817,12,1.0,2.7255235749762505,0,9.0,less remote,community
1013,0,126817,13,1.0,0.6972093011718243,0,8.0,community,less remote
1014,5,126817,14,1.0,0.6350802310043946,0,6.0,boundary,community
1015,0,126817,15,1.0,1.1859371992759409,0,8.0,community,boundary
1016,6,126817,16,1.0,1.572505033807829,0,10.0,less remote,community
1017,4,126817,17,1.0,0.7349145783809945,0,7.0,community,less remote
1018,6,126817,18,1.0,0.7077328271698207,0,10.0,less remote,community
1019,4,126817,19,1.0,1.0206220941618085,0,7.0,community,less remote
1020,6,126817,20,1.0,0.4733178422320634,0,10.0,less remote,community
1021,0,126817,21,1.0,0.5843277011299506,0,8.0,community,less remote
1022,4,126817,22,1.0,0.9209860590053722,0,7.0,community,community
1023,5,126817,23,1.0,0.6530182791175321,0,6.0,boundary,community
1024,0,126817,24,1.0,0.9119702489115298,0,8.0,community,boundary
1025,7,126817,25,1.0,1.0886739681009203,0,9.0,less remote,community
1026,8,126817,26,1.0,1.4553761719726026,0,11.0,remote,less remote
1027,6,126817,27,1.0,2.009766236646101,0,10.0,less remote,remote
1028,4,126817,28,1.0,0.7497825603932142,0,7.0,community,less remote
1029,5,126817,29,1.0,1.2626390469959006,0,6.0,boundary,community
1030,1,126817,30,1.0,1.2961592426290736,0,5.0,boundary,boundary
1031,2,126817,31,1.0,0.7487034644000232,0,4.0,community,boundary
1032,9,126817,32,1.0,1.1255337772890923,0,3.0,community,community
1033,10,126817,33,1.0,1.1961374492384491,0,2.0,less remote,community
1034,9,126817,34,1.0,1.3147903268691152,0,3.0,community,less remote
1035,2,126817,35,1.0,1.1232358309207484,0,4.0,community,community
1036,1,126817,36,1.0,0.9618323359172792,0,5.0,boundary,community
1037,5,126817,37,1.0,1.0135906134964898,0,6.0,boundary,boundary
1038,4,126817,38,1.0,0.6242551616160199,0,7.0,community,boundary
1039,0,126817,39,1.0,0.913194834254682,0,8.0,community,community
1040,7,126817,40,1.0,0.6098864313680679,0,9.0,less remote,community
1041,4,126817,41,1.0,0.6149000778095797,0,7.0,community,less remote
1042,6,126817,42,1.0,0.7718649412272498,0,10.0,less remote,community
1043,8,126817,43,1.0,1.392713137785904,0,11.0,remote,less remote
1044,7,126817,44,1.0,0.7210891692666337,0,9.0,less remote,remote
1045,4,126817,45,1.0,0.5980058098211884,0,7.0,community,less remote
1046,0,126817,46,1.0,1.275954338023439,0,8.0,community,community
1047,7,126817,47,1.0,0.7963850226951763,0,9.0,less remote,community
1048,8,126817,48,1.0,1.3413505790522322,0,11.0,remote,less remote
1049,7,126817,49,1.0,1.2797639245400203,0,9.0,less remote,remote
1050,4,126817,50,1.0,0.8223074763081968,0,7.0,community,less remote
1051,7,126817,51,1.0,0.6650305050425231,0,9.0,less remote,community
1052,8,126817,52,1.0,0.9319831798784436,0,11.0,remote,less remote
1053,7,126817,53,1.0,0.6557614469202235,0,9.0,less remote,remote
1054,8,126817,54,1.0,0.6766732725081965,0,11.0,remote,less remote
1055,6,126817,55,1.0,0.5895822198363021,0,10.0,less remote,remote
1056,0,126817,56,1.0,1.062518188264221,0,8.0,community,less remote
1057,4,126817,57,1.0,1.3751813732087612,0,7.0,community,community
1058,7,126817,58,1.0,0.6916158102685586,0,9.0,less remote,community
1059,0,126817,59,1.0,1.1905469769844783,0,8.0,community,less remote
1060,7,126817,60,1.0,1.2010496758157387,0,9.0,less remote,community
1061,8,126817,61,1.0,1.3587347415741533,0,11.0,remote,less remote
1062,6,126817,62,1.0,0.7671534416731447,0,10.0,less remote,remote
1063,8,126817,63,1.0,1.4620318554807454,0,11.0,remote,less remote
1064,7,126817,64,1.0,0.8003983545349911,0,9.0,less remote,remote
1065,4,126817,65,1.0,0.791250336333178,0,7.0,community,less remote
1066,0,126817,66,1.0,1.2540298223029822,0,8.0,community,community
1067,5,126817,67,1.0,0.736623021424748,0,6.0,boundary,community
1068,0,126817,68,1.0,1.8504747514380144,0,8.0,community,boundary
1069,7,126817,69,1.0,0.6805562074296176,0,9.0,less remote,community
1070,8,126817,70,1.0,0.8734949649078771,0,11.0,remote,less remote
1071,7,126817,71,1.0,4.562276108539663,0,9.0,less remote,remote
1072,4,126817,72,1.0,0.6066790256882086,0,7.0,community,less remote
1073,5,126817,73,1.0,0.6136223676148802,0,6.0,boundary,community
1074,1,126817,74,1.0,1.3225305397063494,0,5.0,boundary,boundary
1075,2,126817,75,1.0,1.4400958695914596,0,4.0,community,boundary
1076,10,126817,76,1.0,1.06440773839131,0,2.0,less remote,community
1077,11,126817,77,1.0,1.443128205020912,0,0.0,remote,less remote
1078,3,126817,78,1.0,0.871577946934849,0,1.0,less remote,remote
1079,11,126817,79,1.0,0.8803628454916179,0,0.0,remote,less remote
1080,10,126817,80,1.0,2.712181721581146,0,2.0,less remote,remote
1081,11,126817,81,1.0,0.975751920719631,0,0.0,remote,less remote
1082,3,126817,82,1.0,0.7304273498011753,0,1.0,less remote,remote
1083,11,126817,83,1.0,0.6972992509836331,0,0.0,remote,less remote
1084,3,126817,84,1.0,0.65213991003111,0,1.0,less remote,remote
1085,2,126817,85,1.0,0.7690710632596165,0,4.0,community,less remote
1086,3,126817,86,1.0,1.2139408745570108,0,1.0,less remote,community
1087,2,126817,87,1.0,1.4264968441566452,0,4.0,community,less remote
1088,9,126817,88,1.0,0.8110118304612115,0,3.0,community,community
1089,1,126817,89,1.0,4.262707565794699,0,5.0,boundary,community
1090,2,126817,90,1.0,1.905339316581376,0,4.0,community,boundary
1091,9,126817,91,1.0,0.7134715054417029,0,3.0,community,community
1092,2,126817,92,1.0,0.81830863293726,0,4.0,community,community
1093,9,126817,93,1.0,0.717158542945981,0,3.0,community,community
1094,3,126817,94,1.0,1.0120572407031432,0,1.0,less remote,community
1095,9,126817,95,1.0,1.133670614566654,0,3.0,community,less remote
1096,3,126817,96,1.0,0.6722916897851974,0,1.0,less remote,community
1097,9,126817,97,1.0,1.1431950335390866,0,3.0,community,less remote
1098,3,126817,98,1.0,0.9037561393342912,0,1.0,less remote,community
1099,2,126817,99,1.0,1.6905653895810246,0,4.0,community,less remote
1100,3,126817,100,1.0,0.9347972813993692,0,1.0,less remote,community
1101,11,126817,101,1.0,19.177679623942826,0,0.0,remote,less remote
1102,3,126817,102,1.0,0.9945559623884036,0,1.0,less remote,remote
1103,9,126817,103,1.0,0.7292607186827809,0,3.0,community,less remote
1104,1,126817,104,1.0,0.7120875460095704,0,5.0,boundary,community
1105,9,126817,105,1.0,0.6470133735565469,0,3.0,community,boundary
1106,2,126817,106,1.0,3.14996692747809,0,4.0,community,community
1107,3,126817,107,1.0,0.6132655867841095,0,1.0,less remote,community
1108,9,126817,108,1.0,0.6561927836155519,0,3.0,community,less remote
1109,2,126817,109,1.0,1.1961139055201784,0,4.0,community,community
1110,1,126817,110,1.0,1.3326468768063933,0,5.0,boundary,community
1111,5,126817,111,1.0,0.8951405758270994,0,6.0,boundary,boundary
1112,4,126817,112,1.0,1.353888619109057,0,7.0,community,boundary
1113,7,126817,113,1.0,1.202318028663285,0,9.0,less remote,community
1114,8,126817,114,1.0,0.8249208508059382,0,11.0,remote,less remote
1115,7,126817,115,1.0,1.2347536949673668,0,9.0,less remote,remote
1116,8,126817,116,1.0,1.651324324659072,0,11.0,remote,less remote
1117,7,126817,117,1.0,0.6156281280564144,0,9.0,less remote,remote
1118,0,126817,118,1.0,0.7625122721074149,0,8.0,community,less remote
1119,7,126817,119,1.0,0.5293937114765868,0,9.0,less remote,community
1120,4,126817,120,1.0,0.6303657130338252,0,7.0,community,less remote
1121,7,126817,121,1.0,0.3612635993631556,0,9.0,less remote,community
1122,0,126817,122,1.0,0.6704117987537757,0,8.0,community,less remote
1123,7,126817,123,1.0,0.849304800038226,0,9.0,less remote,community
1124,4,126817,124,1.0,0.861142861424014,0,7.0,community,less remote
1125,5,126817,125,1.0,0.6778634476941079,0,6.0,boundary,community
1126,0,126817,126,1.0,0.7727590063586831,0,8.0,community,boundary
1127,7,126817,127,1.0,0.5855553048895672,0,9.0,less remote,community
1128,4,126817,128,1.0,0.5862383802887052,0,7.0,community,less remote
1129,7,126817,129,1.0,0.7015380611410365,0,9.0,less remote,community
1130,0,126817,130,1.0,0.9104435165645556,0,8.0,community,less remote
1131,5,126817,131,1.0,0.7191470981342718,0,6.0,boundary,community
1132,1,126817,132,1.0,0.6239985933061689,0,5.0,boundary,boundary
1133,2,126817,133,1.0,0.6500680455937982,0,4.0,community,boundary
1134,3,126817,134,1.0,0.6468878058949485,0,1.0,less remote,community
1135,9,126817,135,1.0,0.7558155376464128,0,3.0,community,less remote
1136,1,126817,136,1.0,22.067715658340603,0,5.0,boundary,community
1137,5,126817,137,1.0,1.5928409391781315,0,6.0,boundary,boundary
1138,1,126817,138,1.0,1.1441865946399048,0,5.0,boundary,boundary
1139,5,126817,139,1.0,0.7527940685395151,0,6.0,boundary,boundary
1140,1,126817,140,1.0,5.313605585019104,0,5.0,boundary,boundary
1141,5,126817,141,1.0,0.7255278007360175,0,6.0,boundary,boundary
1142,0,126817,142,1.0,2.778429769328796,0,8.0,community,boundary
1143,4,126817,143,1.0,0.6750119173666462,0,7.0,community,community
1144,0,126817,144,1.0,0.6578668162692338,0,8.0,community,community
1145,6,126817,145,1.0,0.9428151918109506,0,10.0,less remote,community
1146,8,126817,146,1.0,1.9854969884036109,0,11.0,remote,less remote
1147,7,126817,147,1.0,2.507572728674859,0,9.0,less remote,remote
1148,8,126817,148,1.0,1.253278228105046,0,11.0,remote,less remote
1149,6,126817,149,1.0,0.713856357964687,0,10.0,less remote,remote
1150,8,126817,150,1.0,2.297729440499097,0,11.0,remote,less remote
1151,7,126817,151,1.0,1.0375251156510783,0,9.0,less remote,remote
1152,0,126817,152,1.0,2.412269981112331,0,8.0,community,less remote
1153,4,126817,153,1.0,1.1580065705347806,0,7.0,community,community
1154,6,126817,154,1.0,1.1666302838129925,0,10.0,less remote,community
1155,4,126817,155,1.0,0.8102828746195883,0,7.0,community,less remote
1156,6,126817,156,1.0,0.8410411879885942,0,10.0,less remote,community
1157,0,126817,157,1.0,1.197860079118982,0,8.0,community,less remote
1158,5,126817,158,1.0,0.7663662297418341,0,6.0,boundary,community
1159,0,126817,159,1.0,1.267255163518712,0,8.0,community,boundary
1160,7,126817,160,1.0,1.333753440878354,0,9.0,less remote,community
1161,4,126817,161,1.0,0.736230019130744,0,7.0,community,less remote
1162,5,126817,162,1.0,2.9721696235938,0,6.0,boundary,community
1163,4,126817,163,1.0,0.7735501421848312,0,7.0,community,boundary
1164,6,126817,164,1.0,0.7463626560056582,0,10.0,less remote,community
1165,8,126817,165,1.0,1.389233166235499,0,11.0,remote,less remote
1166,7,126817,166,1.0,1.6956255201948809,0,9.0,less remote,remote
1167,0,126817,167,1.0,0.617883816245012,0,8.0,community,less remote
1168,7,126817,168,1.0,1.430812926730141,0,9.0,less remote,community
1169,0,126817,169,1.0,1.3743108521448448,0,8.0,community,less remote
1170,6,126817,170,1.0,0.7147220496553928,0,10.0,less remote,community
1171,4,126817,171,1.0,0.7215887227794155,0,7.0,community,less remote
1172,0,126817,172,1.0,1.6624817253323272,0,8.0,community,community
1173,6,126817,173,1.0,0.8087413519388065,0,10.0,less remote,community
1174,0,126817,174,1.0,1.5655580698512497,0,8.0,community,less remote
1175,6,126817,175,1.0,0.8519208912039176,0,10.0,less remote,community
1176,8,126817,176,1.0,1.224661203683354,0,11.0,remote,less remote
1177,7,126817,177,1.0,0.8822460568044335,0,9.0,less remote,remote
1178,8,126817,178,1.0,0.7609834269387648,0,11.0,remote,less remote
1179,6,126817,179,1.0,0.7198579432442784,0,10.0,less remote,remote
1180,8,126817,180,1.0,0.776739738881588,0,11.0,remote,less remote
1181,7,126817,181,1.0,0.8855636358493939,0,9.0,less remote,remote
1182,0,126817,182,1.0,0.9703398388810456,0,8.0,community,less remote
1183,4,126817,183,1.0,0.9670225617010146,0,7.0,community,community
1184,5,126817,184,1.0,0.6197784976102412,0,6.0,boundary,community
1185,4,126817,185,1.0,1.0786868205759674,0,7.0,community,boundary
1186,5,126817,186,1.0,0.7243394368560985,0,6.0,boundary,community
1187,1,126817,187,1.0,1.4111459100386128,0,5.0,boundary,boundary
1188,9,126817,188,1.0,0.8696038802154362,0,3.0,community,boundary
1189,10,126817,189,1.0,1.032405823469162,0,2.0,less remote,community
1190,11,126817,190,1.0,0.8410852573579177,0,0.0,remote,less remote
1191,10,126817,191,1.0,1.1678301179781556,0,2.0,less remote,remote
1192,11,126817,192,1.0,0.6544764926657081,0,0.0,remote,less remote
1193,10,126817,193,1.0,1.330359796877019,0,2.0,less remote,remote
1194,2,126817,194,1.0,0.6488941701827571,0,4.0,community,less remote
1195,3,126817,195,1.0,1.269761684932746,0,1.0,less remote,community
1196,2,126817,196,1.0,1.040339217055589,0,4.0,community,less remote
1197,3,126817,197,1.0,3.038992686313577,0,1.0,less remote,community
1198,9,126817,198,1.0,0.6603630748577416,0,3.0,community,less remote
1199,2,126817,199,1.0,0.7692862788680941,0,4.0,community,community
1200,1,126817,200,1.0,2.891483722953126,1,5.0,boundary,community
1201,5,126817,201,1.0,7.127222298644483,1,6.0,boundary,boundary
1202,1,126817,202,1.0,0.7609622976742685,1,5.0,boundary,boundary
1203,2,126817,203,1.0,0.6638300672639161,1,4.0,community,boundary
1204,3,126817,204,1.0,0.6407226206501946,1,1.0,less remote,community
1205,11,126817,205,1.0,0.5676516671665013,1,0.0,remote,less remote
1206,3,126817,206,1.0,0.7726295148022473,1,1.0,less remote,remote
1207,11,126817,207,1.0,0.7054901184746996,1,0.0,remote,less remote
1208,3,126817,208,1.0,0.5383419083664194,1,1.0,less remote,remote
1209,9,126817,209,1.0,0.5813065338879824,1,3.0,community,less remote
1210,1,126817,210,1.0,0.6322715627029538,1,5.0,boundary,community
1211,9,126817,211,1.0,0.5662154883611947,1,3.0,community,boundary
1212,10,126817,212,1.0,0.7651008951943368,1,2.0,less remote,community
1213,9,126817,213,1.0,0.946004788391292,1,3.0,community,less remote
1214,10,126817,214,1.0,4.716681024059653,1,2.0,less remote,community
1215,9,126817,215,1.0,1.041016859235242,1,3.0,community,less remote
1216,10,126817,216,1.0,0.7916967652272433,1,2.0,less remote,community
1217,11,126817,217,1.0,0.5755965309217572,1,0.0,remote,less remote
1218,10,126817,218,1.0,0.7324792925501242,1,2.0,less remote,remote
1219,2,126817,219,1.0,1.113376967608929,1,4.0,community,less remote
1220,9,126817,220,1.0,0.7199989048531279,1,3.0,community,community
1221,1,126817,221,1.0,1.4808202011045069,1,5.0,boundary,community
1222,9,126817,222,1.0,0.5032865287503228,1,3.0,community,boundary
1223,10,126817,223,1.0,0.5622263039695099,1,2.0,less remote,community
1224,11,126817,224,1.0,0.5052455032709986,1,0.0,remote,less remote
1225,3,126817,225,1.0,0.4503139285370707,1,1.0,less remote,remote
1226,2,126817,226,1.0,0.7679832137655467,1,4.0,community,less remote
1227,9,126817,227,1.0,0.5891750308219343,1,3.0,community,community
1228,10,126817,228,1.0,0.8160789035027847,1,2.0,less remote,community
1229,2,126817,229,1.0,0.8769139639334753,1,4.0,community,less remote
1230,1,126817,230,1.0,0.9816554064163938,1,5.0,boundary,community
1231,9,126817,231,1.0,0.6464030428323895,1,3.0,community,boundary
1232,2,126817,232,1.0,0.7253095668274909,1,4.0,community,community
1233,1,126817,233,1.0,0.8521856092847884,1,5.0,boundary,community
1234,5,126817,234,1.0,1.6460073238704354,1,6.0,boundary,boundary
1235,1,126817,235,1.0,0.6842532057780772,1,5.0,boundary,boundary
1236,2,126817,236,1.0,0.6991782364202663,1,4.0,community,boundary
1237,9,126817,237,1.0,0.7740140779642388,1,3.0,community,community
1238,3,126817,238,1.0,0.9528735745698214,1,1.0,less remote,community
1239,9,126817,239,1.0,0.8716150738764554,1,3.0,community,less remote
1240,2,126817,240,1.0,0.6163676484720781,1,4.0,community,community
1241,9,126817,241,1.0,0.4993214921560138,1,3.0,community,community
1242,10,126817,242,1.0,0.8802867805352435,1,2.0,less remote,community
1243,9,126817,243,1.0,1.0461219646967947,1,3.0,community,less remote
1244,3,126817,244,1.0,0.5808241855120286,1,1.0,less remote,community
1245,2,126817,245,1.0,0.6876906172838062,1,4.0,community,less remote
1246,10,126817,246,1.0,0.6622487009735778,1,2.0,less remote,community
1247,9,126817,247,1.0,1.087472926476039,1,3.0,community,less remote
1248,2,126817,248,1.0,0.7981182169169188,1,4.0,community,community
1249,10,126817,249,1.0,1.4468738003633916,1,2.0,less remote,community
1250,2,126817,250,1.0,0.9964231759076938,1,4.0,community,less remote
1251,9,126817,251,1.0,0.6029977235011756,1,3.0,community,community
1252,2,126817,252,1.0,0.8819949217140675,1,4.0,community,community
1253,3,126817,253,1.0,1.094759768107906,1,1.0,less remote,community
1254,11,126817,254,1.0,0.7074170972919092,1,0.0,remote,less remote
1255,3,126817,255,1.0,3.5162906175246462,1,1.0,less remote,remote
1256,11,126817,256,1.0,0.7373537883395329,1,0.0,remote,less remote
1257,3,126817,257,1.0,1.1241803041193634,1,1.0,less remote,remote
1258,11,126817,258,1.0,0.6898204359458759,1,0.0,remote,less remote
1259,3,126817,259,1.0,0.7267113353591412,1,1.0,less remote,remote
1260,9,126817,260,1.0,0.4995931526646018,1,3.0,community,less remote
1261,2,126817,261,1.0,0.6485841751564294,1,4.0,community,community
1262,1,126817,262,1.0,1.455510191153735,1,5.0,boundary,community
1263,5,126817,263,1.0,0.7539277985924855,1,6.0,boundary,boundary
1264,0,126817,264,1.0,1.4808214085642248,1,8.0,community,boundary
1265,5,126817,265,1.0,0.5902224332094193,1,6.0,boundary,community
1266,0,126817,266,1.0,0.6710915537551045,1,8.0,community,boundary
1267,7,126817,267,1.0,1.0240042681107298,1,9.0,less remote,community
1268,8,126817,268,1.0,0.8667363522108644,1,11.0,remote,less remote
1269,7,126817,269,1.0,1.189466069918126,1,9.0,less remote,remote
1270,4,126817,270,1.0,1.094065826269798,1,7.0,community,less remote
1271,0,126817,271,1.0,0.6566853947006166,1,8.0,community,community
1272,7,126817,272,1.0,0.733562312554568,1,9.0,less remote,community
1273,8,126817,273,1.0,0.7864488870836794,1,11.0,remote,less remote
1274,6,126817,274,1.0,0.5482861937489361,1,10.0,less remote,remote
1275,8,126817,275,1.0,0.5833023334853351,1,11.0,remote,less remote
1276,7,126817,276,1.0,0.5302026562858373,1,9.0,less remote,remote
1277,8,126817,277,1.0,1.1612589510623366,1,11.0,remote,less remote
1278,6,126817,278,1.0,0.5198487670859322,1,10.0,less remote,remote
1279,8,126817,279,1.0,0.5528567316941917,1,11.0,remote,less remote
1280,6,126817,280,1.0,0.4738560320110991,1,10.0,less remote,remote
1281,8,126817,281,1.0,0.5548688307171687,1,11.0,remote,less remote
1282,6,126817,282,1.0,1.6109187414404005,1,10.0,less remote,remote
1283,8,126817,283,1.0,0.4571368342731148,1,11.0,remote,less remote
1284,7,126817,284,1.0,0.5338338523870334,1,9.0,less remote,remote
1285,8,126817,285,1.0,0.7711924304021522,1,11.0,remote,less remote
1286,7,126817,286,1.0,0.5359935538144782,1,9.0,less remote,remote
1287,0,126817,287,0.0,1.010739988880232,1,8.0,community,less remote
1288,6,126817,288,1.0,2.3917952270712703,1,10.0,less remote,community
1289,8,126817,289,1.0,2.815520490054041,1,11.0,remote,less remote
1290,7,126817,290,1.0,0.5859597772359848,1,9.0,less remote,remote
1291,8,126817,291,1.0,0.524665308650583,1,11.0,remote,less remote
1292,6,126817,292,1.0,0.4500129889929667,1,10.0,less remote,remote
1293,8,126817,293,1.0,2.832776972092688,1,11.0,remote,less remote
1294,7,126817,294,1.0,0.568520980887115,1,9.0,less remote,remote
1295,0,126817,295,1.0,0.7255259896628559,1,8.0,community,less remote
1296,5,126817,296,1.0,0.7624114558566362,1,6.0,boundary,community
1297,1,126817,297,1.0,0.8082366670714691,1,5.0,boundary,boundary
1298,2,126817,298,1.0,0.7190637888852507,1,4.0,community,boundary
1299,9,126817,299,1.0,0.6459581232629716,1,3.0,community,community
1300,2,126817,300,1.0,0.8048508709762245,1,4.0,community,community
1301,9,126817,301,1.0,1.0816708608763292,1,3.0,community,community
1302,10,126817,302,1.0,1.2162693073041737,1,2.0,less remote,community
1303,2,126817,303,1.0,3.5408897823654115,1,4.0,community,less remote
1304,1,126817,304,1.0,0.6949421429308131,1,5.0,boundary,community
1305,9,126817,305,1.0,0.6098360231844708,1,3.0,community,boundary
1306,3,126817,306,1.0,0.6627554987790063,1,1.0,less remote,community
1307,2,126817,307,1.0,4.329716263222508,1,4.0,community,less remote
1308,3,126817,308,1.0,5.604270000359975,1,1.0,less remote,community
1309,2,126817,309,1.0,0.5189224046189338,1,4.0,community,less remote
1310,3,126817,310,1.0,0.5019867840455845,1,1.0,less remote,community
1311,11,126817,311,1.0,0.6089911590097472,1,0.0,remote,less remote
1312,10,126817,312,1.0,1.023623943212442,1,2.0,less remote,remote
1313,11,126817,313,1.0,0.6026155876461416,1,0.0,remote,less remote
1314,10,126817,314,1.0,1.3934958220925182,1,2.0,less remote,remote
1315,11,126817,315,1.0,0.6179816139629111,1,0.0,remote,less remote
1316,3,126817,316,1.0,0.9080284542869776,1,1.0,less remote,remote
1317,2,126817,317,1.0,0.5427319428417832,1,4.0,community,less remote
1318,1,126817,318,1.0,0.4576457450166344,1,5.0,boundary,community
1319,2,126817,319,1.0,0.4864200307056308,1,4.0,community,boundary
1320,1,126817,320,1.0,0.7736992535647005,1,5.0,boundary,community
1321,5,126817,321,1.0,1.3206292177783323,1,6.0,boundary,boundary
1322,4,126817,322,1.0,0.6630802841391414,1,7.0,community,boundary
1323,7,126817,323,1.0,0.6099446874577552,1,9.0,less remote,community
1324,8,126817,324,1.0,0.4089427429717034,1,11.0,remote,less remote
1325,6,126817,325,1.0,0.4480422425549477,1,10.0,less remote,remote
1326,4,126817,326,1.0,0.548743488965556,1,7.0,community,less remote
1327,6,126817,327,1.0,0.6630573438014835,1,10.0,less remote,community
1328,0,126817,328,1.0,0.5680033166427165,1,8.0,community,less remote
1329,5,126817,329,1.0,0.5328616093611345,1,6.0,boundary,community
1330,4,126817,330,1.0,1.3759227046975866,1,7.0,community,boundary
1331,5,126817,331,1.0,0.5704132475657389,1,6.0,boundary,community
1332,4,126817,332,1.0,0.5432951857801527,1,7.0,community,boundary
1333,0,126817,333,1.0,0.576003719936125,1,8.0,community,community
1334,5,126817,334,1.0,0.4432957291137427,1,6.0,boundary,community
1335,1,126817,335,1.0,0.409975053044036,1,5.0,boundary,boundary
1336,2,126817,336,1.0,0.4484020418021828,1,4.0,community,boundary
1337,10,126817,337,1.0,0.7431009182473645,1,2.0,less remote,community
1338,9,126817,338,1.0,0.8243494580965489,1,3.0,community,less remote
1339,3,126817,339,1.0,0.5450854287482798,1,1.0,less remote,community
1340,2,126817,340,1.0,0.5881152527872473,1,4.0,community,less remote
1341,9,126817,341,1.0,1.0770094676408917,1,3.0,community,community
1342,2,126817,342,1.0,0.5176643143640831,1,4.0,community,community
1343,1,126817,343,1.0,0.4226567713776603,1,5.0,boundary,community
1344,2,126817,344,1.0,0.4654463267652318,1,4.0,community,boundary
1345,9,126817,345,1.0,0.7057747583603486,1,3.0,community,community
1346,1,126817,346,1.0,0.7886559781618416,1,5.0,boundary,community
1347,2,126817,347,1.0,0.503513818141073,1,4.0,community,boundary
1348,1,126817,348,1.0,1.9304965931223703,1,5.0,boundary,community
1349,5,126817,349,1.0,0.950619999319315,1,6.0,boundary,boundary
1350,1,126817,350,1.0,0.6493058868218213,1,5.0,boundary,boundary
1351,2,126817,351,1.0,0.5043182352092117,1,4.0,community,boundary
1352,9,126817,352,1.0,0.5292735772673041,1,3.0,community,community
1353,2,126817,353,1.0,0.5762835303321481,1,4.0,community,community
1354,1,126817,354,1.0,0.6361895116278902,1,5.0,boundary,community
1355,5,126817,355,1.0,0.5231295210542157,1,6.0,boundary,boundary
1356,1,126817,356,1.0,0.5941388729261234,1,5.0,boundary,boundary
1357,2,126817,357,1.0,0.8671218083472922,1,4.0,community,boundary
1358,1,126817,358,1.0,0.4618724813917652,1,5.0,boundary,community
1359,5,126817,359,1.0,0.432907429523766,1,6.0,boundary,boundary
1360,0,126817,360,1.0,0.7360489121638238,1,8.0,community,boundary
1361,4,126817,361,1.0,0.8749151459196582,1,7.0,community,community
1362,6,126817,362,1.0,1.3146831719204783,1,10.0,less remote,community
1363,4,126817,363,1.0,0.6571526508778334,1,7.0,community,less remote
1364,7,126817,364,1.0,1.0699807036435232,1,9.0,less remote,community
1365,0,126817,365,1.0,1.1186867241049183,1,8.0,community,less remote
1366,5,126817,366,1.0,1.1492989442776889,1,6.0,boundary,community
1367,1,126817,367,1.0,0.623841633903794,1,5.0,boundary,boundary
1368,5,126817,368,1.0,0.7548641219036654,1,6.0,boundary,boundary
1369,0,126817,369,1.0,0.817685020971112,1,8.0,community,boundary
1370,7,126817,370,1.0,0.9895471455529332,1,9.0,less remote,community
1371,0,126817,371,1.0,1.75821218744386,1,8.0,community,less remote
1372,7,126817,372,1.0,0.8543718730797991,1,9.0,less remote,community
1373,0,126817,373,1.0,0.6971836442826316,1,8.0,community,less remote
1374,7,126817,374,1.0,0.8460276683326811,1,9.0,less remote,community
1375,4,126817,375,1.0,0.7228576794732362,1,7.0,community,less remote
1376,0,126817,376,1.0,8.174791268655099,1,8.0,community,community
1377,5,126817,377,1.0,0.6388219023356214,1,6.0,boundary,community
1378,4,126817,378,1.0,0.6377428062260151,1,7.0,community,boundary
1379,7,126817,379,1.0,1.7906381946522745,1,9.0,less remote,community
1380,4,126817,380,1.0,1.0869145131437108,1,7.0,community,less remote
1381,7,126817,381,1.0,0.8694840477546677,1,9.0,less remote,community
1382,8,126817,382,1.0,3.463321941206232,1,11.0,remote,less remote
1383,6,126817,383,1.0,0.7044276237720624,1,10.0,less remote,remote
1384,8,126817,384,1.0,0.5153059990843758,1,11.0,remote,less remote
1385,6,126817,385,1.0,0.9803414748748764,1,10.0,less remote,remote
1386,0,126817,386,1.0,1.2470393925905228,1,8.0,community,less remote
1387,6,126817,387,1.0,0.5975578718353063,1,10.0,less remote,community
1388,8,126817,388,1.0,1.0865190961631015,1,11.0,remote,less remote
1389,7,126817,389,1.0,1.3001016408670694,1,9.0,less remote,remote
1390,0,126817,390,1.0,0.6546518645482138,1,8.0,community,less remote
1391,4,126817,391,1.0,0.7135807734448463,1,7.0,community,community
1392,0,126817,392,1.0,1.5284275055164471,1,8.0,community,community
1393,7,126817,393,1.0,0.686745238606818,1,9.0,less remote,community
1394,0,126817,394,1.0,1.2836836844217032,1,8.0,community,less remote
1395,6,126817,395,1.0,2.0662625761469826,1,10.0,less remote,community
1396,8,126817,396,1.0,1.955189631669782,1,11.0,remote,less remote
1397,7,126817,397,1.0,1.0272548374487087,1,9.0,less remote,remote
1398,0,126817,398,1.0,2.6679825496394187,1,8.0,community,less remote
1399,4,126817,399,1.0,0.5796053351368755,1,7.0,community,community
1400,5,126817,400,1.0,5.604211744270288,2,6.0,boundary,community
1401,1,126817,401,1.0,0.8641800263430923,2,5.0,boundary,boundary
1402,9,126817,402,1.0,0.5690009145764634,2,3.0,community,boundary
1403,10,126817,403,1.0,0.5909731218125671,2,2.0,less remote,community
1404,11,126817,404,1.0,0.4719456546008587,2,0.0,remote,less remote
1405,10,126817,405,1.0,0.4966495595872402,2,2.0,less remote,remote
1406,11,126817,406,1.0,0.5420029870001599,2,0.0,remote,less remote
1407,10,126817,407,1.0,2.3766706767492,2,2.0,less remote,remote
1408,9,126817,408,1.0,0.6267867361893877,2,3.0,community,less remote
1409,2,126817,409,1.0,0.7014025326352566,2,4.0,community,community
1410,3,126817,410,1.0,0.6625852582510561,2,1.0,less remote,community
1411,9,126817,411,1.0,0.6074885742273182,2,3.0,community,less remote
1412,2,126817,412,1.0,0.701526892837137,2,4.0,community,community
1413,10,126817,413,1.0,0.7122822359669954,2,2.0,less remote,community
1414,9,126817,414,1.0,0.7112281930167228,2,3.0,community,less remote
1415,2,126817,415,1.0,0.8560600925702602,2,4.0,community,community
1416,9,126817,416,1.0,0.5628595750313252,2,3.0,community,community
1417,10,126817,417,1.0,33.94373612094205,2,2.0,less remote,community
1418,9,126817,418,0.0,0.3994098723633215,2,3.0,community,less remote
1419,10,126817,419,1.0,0.2405174263985827,2,2.0,less remote,community
1420,9,126817,420,1.0,0.5416839368408546,2,3.0,community,less remote
1421,3,126817,421,1.0,0.757660414557904,2,1.0,less remote,community
1422,9,126817,422,1.0,1.5485705317696556,2,3.0,community,less remote
1423,1,126817,423,1.0,1.0308150999480858,2,5.0,boundary,community
1424,2,126817,424,1.0,1.3675540505209938,2,4.0,community,boundary
1425,10,126817,425,0.0,0.285929411649704,2,2.0,less remote,community
1426,9,126817,426,0.0,0.1788012802135199,2,3.0,community,less remote
1427,1,126817,427,1.0,0.200043928110972,2,5.0,boundary,community
1428,5,126817,428,1.0,0.2816335528623312,2,6.0,boundary,boundary
1429,1,126817,429,1.0,0.1846419821958989,2,5.0,boundary,boundary
1430,9,126817,430,0.0,0.0326276795240119,2,3.0,community,boundary
1431,10,126817,431,0.0,0.0979357818141579,2,2.0,less remote,community
1432,9,126817,432,0.0,0.685166287003085,2,3.0,community,less remote
1433,2,126817,433,1.0,0.2604174673324451,2,4.0,community,community
1434,3,126817,434,1.0,0.5735946944914758,2,1.0,less remote,community
1435,11,126817,435,0.0,0.4906045086681843,2,0.0,remote,less remote
1436,10,126817,436,0.0,0.1275202196557074,2,2.0,less remote,remote
1437,2,126817,437,1.0,0.4788090075599029,2,4.0,community,less remote
1438,3,126817,438,0.0,2.1738407586235557,2,1.0,less remote,community
1439,11,126817,439,1.0,0.3128352765925228,2,0.0,remote,less remote
1440,3,126817,440,0.0,0.4878966566175222,2,1.0,less remote,remote
1441,2,126817,441,0.0,0.4068880836712196,2,4.0,community,less remote
1442,3,126817,442,0.0,0.2756992790382355,2,1.0,less remote,community
1443,9,126817,443,1.0,0.3068898343481123,2,3.0,community,less remote
1444,1,126817,444,0.0,0.2379583839792758,2,5.0,boundary,community
1445,2,126817,445,1.0,0.3674888518871739,2,4.0,community,boundary
1446,1,126817,446,0.0,0.1345846013864502,2,5.0,boundary,community
1447,9,126817,447,0.0,0.2415304183959961,2,3.0,community,boundary
1448,2,126817,448,0.0,0.1770065096206963,2,4.0,community,community
1449,1,126817,449,1.0,0.4699166520731523,2,5.0,boundary,community
1450,5,126817,450,0.0,0.1613603709265589,2,6.0,boundary,boundary
1451,4,126817,451,1.0,0.0852646281709894,2,7.0,community,boundary
1452,6,126817,452,1.0,0.2447776675689965,2,10.0,less remote,community
1453,8,126817,453,1.0,0.9079813665011898,2,11.0,remote,less remote
1454,6,126817,454,0.0,0.5907250051386654,2,10.0,less remote,remote
1455,8,126817,455,1.0,0.2236633038846776,2,11.0,remote,less remote
1456,6,126817,456,0.0,0.0428647546796128,2,10.0,less remote,remote
1457,8,126817,457,1.0,2.042200091877021,2,11.0,remote,less remote
1458,6,126817,458,1.0,0.3441963742952794,2,10.0,less remote,remote
1459,4,126817,459,0.0,0.2733150047715753,2,7.0,community,less remote
1460,7,126817,460,1.0,0.0904116900637745,2,9.0,less remote,community
1461,8,126817,461,1.0,0.0547985008452087,2,11.0,remote,less remote
1462,6,126817,462,1.0,1.0600958815775812,2,10.0,less remote,remote
1463,4,126817,463,0.0,0.3427134095691144,2,7.0,community,less remote
1464,6,126817,464,1.0,0.193833767902106,2,10.0,less remote,community
1465,0,126817,465,0.0,0.369024941464886,2,8.0,community,less remote
1466,5,126817,466,0.0,0.1501706728013232,2,6.0,boundary,community
1467,1,126817,467,0.0,0.6652955249883235,2,5.0,boundary,boundary
1468,9,126817,468,1.0,0.2979748406214639,2,3.0,community,boundary
1469,3,126817,469,0.0,0.1254562032409012,2,1.0,less remote,community
1470,11,126817,470,1.0,0.1327336875256151,2,0.0,remote,less remote
1471,3,126817,471,0.0,0.1519183557247743,2,1.0,less remote,remote
1472,2,126817,472,0.0,0.0802506798645481,2,4.0,community,less remote
1473,3,126817,473,0.0,0.1121309512527659,2,1.0,less remote,community
1474,11,126817,474,1.0,0.0567028414225205,2,0.0,remote,less remote
1475,3,126817,475,0.0,0.0520176023710519,2,1.0,less remote,remote
1476,9,126817,476,1.0,0.0709514373447746,2,3.0,community,less remote
1477,1,126817,477,0.0,0.0882347834995016,2,5.0,boundary,community
1478,5,126817,478,0.0,0.4536221503512934,2,6.0,boundary,boundary
1479,4,126817,479,0.0,0.0648731833789497,2,7.0,community,boundary
1480,5,126817,480,1.0,0.4821727687958628,2,6.0,boundary,community
1481,1,126817,481,1.0,0.0331459474982693,2,5.0,boundary,boundary
1482,2,126817,482,1.0,0.3625222933478653,2,4.0,community,boundary
1483,10,126817,483,0.0,0.5215861873002723,2,2.0,less remote,community
1484,9,126817,484,1.0,0.0386144743533805,2,3.0,community,less remote
1485,10,126817,485,1.0,0.3029272124404087,2,2.0,less remote,community
1486,9,126817,486,1.0,0.3917279156157747,2,3.0,community,less remote
1487,1,126817,487,1.0,0.3531020109076053,2,5.0,boundary,community
1488,9,126817,488,1.0,0.8879563616355881,2,3.0,community,boundary
1489,3,126817,489,0.0,0.0690193270565941,2,1.0,less remote,community
1490,11,126817,490,0.0,0.4163886568276211,2,0.0,remote,less remote
1491,10,126817,491,1.0,0.2933460465865209,2,2.0,less remote,remote
1492,2,126817,492,0.0,0.0905248819617554,2,4.0,community,less remote
1493,9,126817,493,0.0,0.2857905629789457,2,3.0,community,community
1494,2,126817,494,0.0,0.1246155645931139,2,4.0,community,community
1495,10,126817,495,0.0,0.0278980693547055,2,2.0,less remote,community
1496,9,126817,496,1.0,0.4212380995741114,2,3.0,community,less remote
1497,10,126817,497,0.0,0.1596144991926849,2,2.0,less remote,community
1498,2,126817,498,0.0,0.304811631096527,2,4.0,community,less remote
1499,10,126817,499,0.0,0.0275992426322773,2,2.0,less remote,community
1500,2,126817,500,0.0,0.4469453375786543,2,4.0,community,less remote
1501,3,126817,501,1.0,0.3162974392762407,2,1.0,less remote,community
1502,11,126817,502,1.0,1.1815190932247788,2,0.0,remote,less remote
