practice_loop.thisRepN,practice_loop.thisTrialN,practice_loop.thisN,practice_loop.thisIndex,blocks.thisRepN,blocks.thisTrialN,blocks.thisN,blocks.thisIndex,trials.thisRepN,trials.thisTrialN,trials.thisN,trials.thisIndex,thisRow.t,notes,path,resp order,Instructions_0.started,welcome_text.started,instructions_0_keypress.started,Instructions_0.stopped,instructions_0_keypress.keys,instructions_0_keypress.rt,instructions_0_keypress.duration,consent_0.started,consent_image_0.started,consent0_key_resp.started,consent0_text.started,consent_0.stopped,consent0_key_resp.keys,consent0_key_resp.rt,consent0_key_resp.duration,consent_1.started,consent_image_1.started,consent1_key_resp.started,consent1_text.started,consent_1.stopped,consent1_key_resp.keys,consent1_key_resp.rt,consent1_key_resp.duration,consent_2.started,consent2_text.started,consent_image_2.started,consent2_key_resp.started,consent_2.stopped,consent2_key_resp.keys,consent2_key_resp.rt,consent2_key_resp.duration,consent_3.started,agree_button.started,disagree_button.started,consent_image_3.started,consent_3.stopped,agree_button.numClicks,agree_button.timesOn,agree_button.timesOff,disagree_button.numClicks,disagree_button.timesOn,disagree_button.timesOff,demographics.started,age_slider.started,Gender.started,Handedness.started,age_text.started,handedness_text.started,gender_text.started,demographics.stopped,age_slider.response,age_slider.rt,Gender.text,Handedness.response,Handedness.rt,instructions_1.started,instructions_text1.started,instructions1_key_resp.started,instr1_cnt_text.started,instructions_1.stopped,instructions1_key_resp.keys,instructions1_key_resp.rt,instructions1_key_resp.duration,instructions_2.started,instructions_text2.started,key_stim_association.started,instr2_cnt_text.started,instructions2_key_resp.started,instructions_2.stopped,instructions2_key_resp.keys,instructions2_key_resp.rt,instructions2_key_resp.duration,instructions_3.started,instructions_text3.started,examplestim_image_2.started,instructions3_key_resp.started,instr3_cnt_text.started,instructions_3.stopped,instructions3_key_resp.keys,instructions3_key_resp.rt,instructions3_key_resp.duration,instructions_4.started,instructions_text4.started,handplacement_image.started,instructions4_key_resp.started,instr4_cnt_text.started,instructions_4.stopped,instructions4_key_resp.keys,instructions4_key_resp.rt,instructions4_key_resp.duration,instructions_5.started,instructions_text5.started,image.started,instructions5_key_resp.started,instr5_cnt_text.started,instructions_5.stopped,instructions5_key_resp.keys,instructions5_key_resp.rt,instructions5_key_resp.duration,begin_exp_timer.started,text_countdown.started,begin_exp_timer.stopped,stim_resp_selector.started,node idx,stim,stim_resp_selector.stopped,stim_display.started,space.started,h.started,j.started,k.started,l.started,key_resp.started,text.started,accuracy_text.started,stim_display.stopped,key_resp.keys,key_resp.rt,key_resp.duration,break_2.started,break_text.started,break_key_resp.started,break_2.stopped,break_key_resp.keys,break_key_resp.rt,break_key_resp.duration,debriefing.started,graph.started,debrief_text.started,debriefing_title.started,demo_scr_adv.started,demo_scr_adv_keypress.started,debriefing.stopped,demo_scr_adv_keypress.keys,demo_scr_adv_keypress.rt,demo_scr_adv_keypress.duration,done.started,text_countdown_2.started,done.stopped,participant,date,expName,psychopyVersion,frameRate,expStart,
,,,,,,,,,,,,,,[5. 1. 0. ... 4. 5. 4.],"[('j', 'space'), ('h', 'l'), ('h',), ('h', 'j'), ('k',), ('l', 'space'), ('k', 'l'), ('j', 'l'), ('j', 'k'), ('k', 'space'), ('h', 'space'), ('l',), ('h', 'k'), ('space',), ('j',)]",0.009030573186464608,0.01705057217623107,0.01705057217623107,3.3176145981706213,return,3.300049381708959,None,,,,,,,,,,,,,,,,,,,,,,,,,,,,,,,,,,,,,,,,,,,,,,,,,,,,,,,,,,,,,,,,,,,,,,,,,,,,,,,,,,,,,,,,,,,,,,,,,,,,,,,,,,,,,,,,,,,,,,,,,,,,,,,,,,,,,3000,2010-05-15_00h52.20.745,eb_03,2023.2.3,119.99463949550687,2010-05-15 00h52.29.367935 -0400,
,,,,,,,,,,,,,,,,,,,,,,,3.317639349377714,3.3252974372298922,3.3252974372298922,3.3252974372298922,4.717588277359027,space,1.390833536570426,None,,,,,,,,,,,,,,,,,,,,,,,,,,,,,,,,,,,,,,,,,,,,,,,,,,,,,,,,,,,,,,,,,,,,,,,,,,,,,,,,,,,,,,,,,,,,,,,,,,,,,,,,,,,,,,,,,,,,,,,,,,,,,3000,2010-05-15_00h52.20.745,eb_03,2023.2.3,119.99463949550687,2010-05-15 00h52.29.367935 -0400,
,,,,,,,,,,,,,,,,,,,,,,,,,,,,,,,4.7176127267302945,4.7254042296845,4.7254042296845,4.7254042296845,5.017511790036224,space,0.2867229626281187,None,,,,,,,,,,,,,,,,,,,,,,,,,,,,,,,,,,,,,,,,,,,,,,,,,,,,,,,,,,,,,,,,,,,,,,,,,,,,,,,,,,,,,,,,,,,,,,,,,,,,,,,,,,,,,,,,,,,,,3000,2010-05-15_00h52.20.745,eb_03,2023.2.3,119.99463949550687,2010-05-15 00h52.29.367935 -0400,
,,,,,,,,,,,,,,,,,,,,,,,,,,,,,,,,,,,,,,,5.017534730199259,5.025429765693843,5.025429765693843,5.025429765693843,5.2925766261760145,space,0.25871001472114585,None,,,,,,,,,,,,,,,,,,,,,,,,,,,,,,,,,,,,,,,,,,,,,,,,,,,,,,,,,,,,,,,,,,,,,,,,,,,,,,,,,,,,,,,,,,,,,,,,,,,,,,,,,,,,,3000,2010-05-15_00h52.20.745,eb_03,2023.2.3,119.99463949550687,2010-05-15 00h52.29.367935 -0400,
,,,,,,,,,,,,,,,,,,,,,,,,,,,,,,,,,,,,,,,,,,,,,,,5.292598962638294,5.308767848066054,5.308767848066054,5.308767848066054,10.093461210635724,1,[4.799294771335553],[4.79930080822669],0,,,10.093546934367623,10.142420331278117,10.142420331278117,10.142420331278117,10.142420331278117,10.142420331278117,10.142420331278117,11.374458491598489,None,None,,Right Handed,1.2503296138020232,11.374485053907847,11.38416278094519,13.37597616398125,13.37597616398125,15.659878393053077,space,2.2762187862826977,None,,,,,,,,,,,,,,,,,,,,,,,,,,,,,,,,,,,,,,,,,,,,,,,,,,,,,,,,,,,,,,,,,,,,,,,,,,,,,3000,2010-05-15_00h52.20.745,eb_03,2023.2.3,119.99463949550687,2010-05-15 00h52.29.367935 -0400,
,,,,,,,,,,,,,,,,,,,,,,,,,,,,,,,,,,,,,,,,,,,,,,,,,,,,,,,,,,,,,,,,,,,,,,,,,,,,,,,15.659905257169157,15.66778097464703,15.66778097464703,18.65965261362726,18.65965261362726,19.6685847856279,space,1.0075107879238203,None,,,,,,,,,,,,,,,,,,,,,,,,,,,,,,,,,,,,,,,,,,,,,,,,,,,,,,,,,,,,,,,,,,,,3000,2010-05-15_00h52.20.745,eb_03,2023.2.3,119.99463949550687,2010-05-15 00h52.29.367935 -0400,
,,,,,,,,,,,,,,,,,,,,,,,,,,,,,,,,,,,,,,,,,,,,,,,,,,,,,,,,,,,,,,,,,,,,,,,,,,,,,,,,,,,,,,,,19.668613158952212,19.67636813878198,19.67636813878198,22.66826966032386,22.66826966032386,27.352490878285607,k,4.679877680668142,None,,,,,,,,,,,,,,,,,,,,,,,,,,,,,,,,,,,,,,,,,,,,,,,,,,,,,,,,,,,3000,2010-05-15_00h52.20.745,eb_03,2023.2.3,119.99463949550687,2010-05-15 00h52.29.367935 -0400,
,,,,,,,,,,,,,,,,,,,,,,,,,,,,,,,,,,,,,,,,,,,,,,,,,,,,,,,,,,,,,,,,,,,,,,,,,,,,,,,,,,,,,,,,,,,,,,,,,27.35252045901143,27.36857011599932,27.36857011599932,30.352066183579154,30.352066183579154,31.127558431006037,space,0.7711218460462987,None,,,,,,,,,,,,,,,,,,,,,,,,,,,,,,,,,,,,,,,,,,,,,,,,,,3000,2010-05-15_00h52.20.745,eb_03,2023.2.3,119.99463949550687,2010-05-15 00h52.29.367935 -0400,
,,,,,,,,,,,,,,,,,,,,,,,,,,,,,,,,,,,,,,,,,,,,,,,,,,,,,,,,,,,,,,,,,,,,,,,,,,,,,,,,,,,,,,,,,,,,,,,,,,,,,,,,,,31.12758982280502,31.135482443554793,31.135482443554793,34.12733084050706,34.12733084050706,35.76968959555961,space,1.634881170000881,None,,,,,,,,,,,,,,,,,,,,,,,,,,,,,,,,,,,,,,,,,3000,2010-05-15_00h52.20.745,eb_03,2023.2.3,119.99463949550687,2010-05-15 00h52.29.367935 -0400,
,,,,0,0,0,0,0,0,0,0,40.802761451370316,,,,,,,,,,,,,,,,,,,,,,,,,,,,,,,,,,,,,,,,,,,,,,,,,,,,,,,,,,,,,,,,,,,,,,,,,,,,,,,,,,,,,,,,,,,,,,,,,,,,,,,35.76971857261378,35.78577788861003,40.77786534614279,40.78211742462008,5.0,"('l', 'space')",40.78265682011261,40.78267161047552,40.802761451370316,40.802761451370316,40.802761451370316,40.802761451370316,40.802761451370316,40.802761451370316,40.802761451370316,40.802761451370316,42.22847307912889,"['space', 'l']","[1.3594628743594512, 1.3754545772681013]","[None, None]",,,,,,,,,,,,,,,,,,,,,3000,2010-05-15_00h52.20.745,eb_03,2023.2.3,119.99463949550687,2010-05-15 00h52.29.367935 -0400,
,,,,0,0,0,0,1,0,1,0,42.244616005948046,,,,,,,,,,,,,,,,,,,,,,,,,,,,,,,,,,,,,,,,,,,,,,,,,,,,,,,,,,,,,,,,,,,,,,,,,,,,,,,,,,,,,,,,,,,,,,,,,,,,,,,,,,42.231148927501636,1.0,"('h', 'l')",42.23151295154821,42.231525327137206,42.244616005948046,42.244616005948046,42.244616005948046,42.244616005948046,42.244616005948046,42.244616005948046,42.244616005948046,42.244616005948046,47.99606214126106,"['j', 'k', 'l', 'h', 'l']","[1.1815803835343104, 1.3575971757236402, 1.4295891176734585, 5.733644273073878, 5.73463009603438]","[None, None, None, None, None]",,,,,,,,,,,,,,,,,,,,,3000,2010-05-15_00h52.20.745,eb_03,2023.2.3,119.99463949550687,2010-05-15 00h52.29.367935 -0400,
,,,,0,0,0,0,2,0,2,0,48.011665974452626,,,,,,,,,,,,,,,,,,,,,,,,,,,,,,,,,,,,,,,,,,,,,,,,,,,,,,,,,,,,,,,,,,,,,,,,,,,,,,,,,,,,,,,,,,,,,,,,,,,,,,,,,,47.99829156213673,0.0,"('j', 'space')",47.99873949884204,47.99875187446014,48.011665974452626,48.011665974452626,48.011665974452626,48.011665974452626,48.011665974452626,48.011665974452626,48.011665974452626,48.011665974452626,49.43723573547322,"['space', 'j']","[1.3656349834927823, 1.389609256730182]","[None, None]",,,,,,,,,,,,,,,,,,,,,3000,2010-05-15_00h52.20.745,eb_03,2023.2.3,119.99463949550687,2010-05-15 00h52.29.367935 -0400,
,,,,0,0,0,0,3,0,3,0,49.45342876840732,,,,,,,,,,,,,,,,,,,,,,,,,,,,,,,,,,,,,,,,,,,,,,,,,,,,,,,,,,,,,,,,,,,,,,,,,,,,,,,,,,,,,,,,,,,,,,,,,,,,,,,,,,49.4394461401389,8.0,"('j', 'k')",49.43987838097382,49.43989105842775,49.45342876840732,49.45342876840732,49.45342876840732,49.45342876840732,49.45342876840732,49.45342876840732,49.45342876840732,49.45342876840732,50.67894800071372,"['j', 'k']","[1.163805083517218, 1.1798227450344712]","[None, None]",,,,,,,,,,,,,,,,,,,,,3000,2010-05-15_00h52.20.745,eb_03,2023.2.3,119.99463949550687,2010-05-15 00h52.29.367935 -0400,
,,,,0,0,0,0,4,0,4,0,50.69516608671984,,,,,,,,,,,,,,,,,,,,,,,,,,,,,,,,,,,,,,,,,,,,,,,,,,,,,,,,,,,,,,,,,,,,,,,,,,,,,,,,,,,,,,,,,,,,,,,,,,,,,,,,,,50.68115931094508,5.0,"('l', 'space')",50.681588231469505,50.68160090892343,50.69516608671984,50.69516608671984,50.69516608671984,50.69516608671984,50.69516608671984,50.69516608671984,50.69516608671984,50.69516608671984,51.97909185962635,"['space', 'l']","[1.218079075915739, 1.242174086801242]","[None, None]",,,,,,,,,,,,,,,,,,,,,3000,2010-05-15_00h52.20.745,eb_03,2023.2.3,119.99463949550687,2010-05-15 00h52.29.367935 -0400,
,,,,0,0,0,0,5,0,5,0,51.99524021966499,,,,,,,,,,,,,,,,,,,,,,,,,,,,,,,,,,,,,,,,,,,,,,,,,,,,,,,,,,,,,,,,,,,,,,,,,,,,,,,,,,,,,,,,,,,,,,,,,,,,,,,,,,51.981325204484165,5.0,"('l', 'space')",51.98174718260998,51.98175955819897,51.99524021966499,51.99524021966499,51.99524021966499,51.99524021966499,51.99524021966499,51.99524021966499,51.99524021966499,51.99524021966499,52.7957571579318,"['l', 'space']","[0.7259967497375328, 0.7269949483452365]","[None, None]",,,,,,,,,,,,,,,,,,,,,3000,2010-05-15_00h52.20.745,eb_03,2023.2.3,119.99463949550687,2010-05-15 00h52.29.367935 -0400,
,,,,0,0,0,0,6,0,6,0,52.81192453415133,,,,,,,,,,,,,,,,,,,,,,,,,,,,,,,,,,,,,,,,,,,,,,,,,,,,,,,,,,,,,,,,,,,,,,,,,,,,,,,,,,,,,,,,,,,,,,,,,,,,,,,,,,52.79798929541721,11.0,"('l',)",52.798410066141514,52.79842244175961,52.81192453415133,52.81192453415133,52.81192453415133,52.81192453415133,52.81192453415133,52.81192453415133,52.81192453415133,52.81192453415133,53.520805211534025,['l'],[0.6453337309649214],[None],,,,,,,,,,,,,,,,,,,,,3000,2010-05-15_00h52.20.745,eb_03,2023.2.3,119.99463949550687,2010-05-15 00h52.29.367935 -0400,
,,,,0,0,0,0,7,0,7,0,53.53694632728002,,,,,,,,,,,,,,,,,,,,,,,,,,,,,,,,,,,,,,,,,,,,,,,,,,,,,,,,,,,,,,,,,,,,,,,,,,,,,,,,,,,,,,,,,,,,,,,,,,,,,,,,,,53.5230325195007,1.0,"('h', 'l')",53.52356768917525,53.523580668465,53.53694632728002,53.53694632728002,53.53694632728002,53.53694632728002,53.53694632728002,53.53694632728002,53.53694632728002,53.53694632728002,54.612583037349395,"['h', 'l']","[1.0003347451565787, 1.0013100036012474]","[None, None]",,,,,,,,,,,,,,,,,,,,,3000,2010-05-15_00h52.20.745,eb_03,2023.2.3,119.99463949550687,2010-05-15 00h52.29.367935 -0400,
,,,,0,0,0,0,8,0,8,0,54.62872505863197,,,,,,,,,,,,,,,,,,,,,,,,,,,,,,,,,,,,,,,,,,,,,,,,,,,,,,,,,,,,,,,,,,,,,,,,,,,,,,,,,,,,,,,,,,,,,,,,,,,,,,,,,,54.61479253647849,4.0,"('k',)",54.615255565411644,54.61526794102974,54.62872505863197,54.62872505863197,54.62872505863197,54.62872505863197,54.62872505863197,54.62872505863197,54.62872505863197,54.62872505863197,55.57927876152098,['k'],[0.8845346529269591],[None],,,,,,,,,,,,,,,,,,,,,3000,2010-05-15_00h52.20.745,eb_03,2023.2.3,119.99463949550687,2010-05-15 00h52.29.367935 -0400,
,,,,0,0,0,0,9,0,9,0,55.59541323673329,,,,,,,,,,,,,,,,,,,,,,,,,,,,,,,,,,,,,,,,,,,,,,,,,,,,,,,,,,,,,,,,,,,,,,,,,,,,,,,,,,,,,,,,,,,,,,,,,,,,,,,,,,55.581498221552465,12.0,"('h', 'k')",55.581901787169045,55.581913860922214,55.59541323673329,55.59541323673329,55.59541323673329,55.59541323673329,55.59541323673329,55.59541323673329,55.59541323673329,55.59541323673329,56.637705525703495,"['h', 'k']","[0.9898175895505119, 1.0138558537291829]","[None, None]",,,,,,,,,,,,,,,,,,,,,3000,2010-05-15_00h52.20.745,eb_03,2023.2.3,119.99463949550687,2010-05-15 00h52.29.367935 -0400,
,,,,0,0,0,0,10,0,10,0,56.65384573591291,,,,,,,,,,,,,,,,,,,,,,,,,,,,,,,,,,,,,,,,,,,,,,,,,,,,,,,,,,,,,,,,,,,,,,,,,,,,,,,,,,,,,,,,,,,,,,,,,,,,,,,,,,56.639911100879544,6.0,"('k', 'l')",56.64033156976802,56.64034424722195,56.65384573591291,56.65384573591291,56.65384573591291,56.65384573591291,56.65384573591291,56.65384573591291,56.65384573591291,56.65384573591291,57.85503180231899,"['l', 'k']","[0.8354321562801488, 1.1954148062795866]","[None, None]",,,,,,,,,,,,,,,,,,,,,3000,2010-05-15_00h52.20.745,eb_03,2023.2.3,119.99463949550687,2010-05-15 00h52.29.367935 -0400,
,,,,0,0,0,0,11,0,11,0,57.87064318158082,,,,,,,,,,,,,,,,,,,,,,,,,,,,,,,,,,,,,,,,,,,,,,,,,,,,,,,,,,,,,,,,,,,,,,,,,,,,,,,,,,,,,,,,,,,,,,,,,,,,,,,,,,57.857247942039976,13.0,"('space',)",57.85764848921099,57.85766116666491,57.87064318158082,57.87064318158082,57.87064318158082,57.87064318158082,57.87064318158082,57.87064318158082,57.87064318158082,57.87064318158082,58.74664711521473,"['l', 'space']","[0.002614875847939402, 0.8586503099359106]","[None, None]",,,,,,,,,,,,,,,,,,,,,3000,2010-05-15_00h52.20.745,eb_03,2023.2.3,119.99463949550687,2010-05-15 00h52.29.367935 -0400,
,,,,0,0,0,0,12,0,12,0,58.762355688319076,,,,,,,,,,,,,,,,,,,,,,,,,,,,,,,,,,,,,,,,,,,,,,,,,,,,,,,,,,,,,,,,,,,,,,,,,,,,,,,,,,,,,,,,,,,,,,,,,,,,,,,,,,58.748846653528744,5.0,"('l', 'space')",58.74929881605203,58.74931119167013,58.762355688319076,58.762355688319076,58.762355688319076,58.762355688319076,58.762355688319076,58.762355688319076,58.762355688319076,58.762355688319076,60.06292001614929,"['l', 'space']","[1.2389280548377428, 1.2399178017803933]","[None, None]",,,,,,,,,,,,,,,,,,,,,3000,2010-05-15_00h52.20.745,eb_03,2023.2.3,119.99463949550687,2010-05-15 00h52.29.367935 -0400,
,,,,0,0,0,0,13,0,13,0,60.079123009956675,,,,,,,,,,,,,,,,,,,,,,,,,,,,,,,,,,,,,,,,,,,,,,,,,,,,,,,,,,,,,,,,,,,,,,,,,,,,,,,,,,,,,,,,,,,,,,,,,,,,,,,,,,60.065125289489515,2.0,"('h',)",60.0655176868604,60.0655300624785,60.079123009956675,60.079123009956675,60.079123009956675,60.079123009956675,60.079123009956675,60.079123009956675,60.079123009956675,60.079123009956675,61.07960082922364,['h'],[0.9381681320082862],[None],,,,,,,,,,,,,,,,,,,,,3000,2010-05-15_00h52.20.745,eb_03,2023.2.3,119.99463949550687,2010-05-15 00h52.29.367935 -0400,
,,,,0,0,0,0,14,0,14,0,61.09582072633202,,,,,,,,,,,,,,,,,,,,,,,,,,,,,,,,,,,,,,,,,,,,,,,,,,,,,,,,,,,,,,,,,,,,,,,,,,,,,,,,,,,,,,,,,,,,,,,,,,,,,,,,,,61.081819987419294,14.0,"('j',)",61.08224347475334,61.082256152207265,61.09582072633202,61.09582072633202,61.09582072633202,61.09582072633202,61.09582072633202,61.09582072633202,61.09582072633202,61.09582072633202,62.438013587816386,['j'],[1.2814548767055385],[None],,,,,,,,,,,,,,,,,,,,,3000,2010-05-15_00h52.20.745,eb_03,2023.2.3,119.99463949550687,2010-05-15 00h52.29.367935 -0400,
,,,,0,0,0,0,15,0,15,0,62.4542337867606,,,,,,,,,,,,,,,,,,,,,,,,,,,,,,,,,,,,,,,,,,,,,,,,,,,,,,,,,,,,,,,,,,,,,,,,,,,,,,,,,,,,,,,,,,,,,,,,,,,,,,,,,,62.4402988498623,1.0,"('h', 'l')",62.4406664960261,62.44067917348002,62.4542337867606,62.4542337867606,62.4542337867606,62.4542337867606,62.4542337867606,62.4542337867606,62.4542337867606,62.4542337867606,63.821500539721455,"['h', 'l']","[1.3070225851843134, 1.3080093137104996]","[None, None]",,,,,,,,,,,,,,,,,,,,,3000,2010-05-15_00h52.20.745,eb_03,2023.2.3,119.99463949550687,2010-05-15 00h52.29.367935 -0400,
,,,,0,0,0,0,16,0,16,0,63.83765554029378,,,,,,,,,,,,,,,,,,,,,,,,,,,,,,,,,,,,,,,,,,,,,,,,,,,,,,,,,,,,,,,,,,,,,,,,,,,,,,,,,,,,,,,,,,,,,,,,,,,,,,,,,,63.82375108965789,10.0,"('h', 'space')",63.82412054689485,63.824132922512945,63.83765554029378,63.83765554029378,63.83765554029378,63.83765554029378,63.83765554029378,63.83765554029378,63.83765554029378,63.83765554029378,65.18831060247612,"['space', 'h']","[1.2907039850542787, 1.3146269447752275]","[None, None]",,,,,,,,,,,,,,,,,,,,,3000,2010-05-15_00h52.20.745,eb_03,2023.2.3,119.99463949550687,2010-05-15 00h52.29.367935 -0400,
,,,,0,0,0,0,17,0,17,0,65.20444296475034,,,,,,,,,,,,,,,,,,,,,,,,,,,,,,,,,,,,,,,,,,,,,,,,,,,,,,,,,,,,,,,,,,,,,,,,,,,,,,,,,,,,,,,,,,,,,,,,,,,,,,,,,,65.19050500940648,4.0,"('k',)",65.19088352198014,65.19089589759824,65.20444296475034,65.20444296475034,65.20444296475034,65.20444296475034,65.20444296475034,65.20444296475034,65.20444296475034,65.20444296475034,66.16333873433177,['k'],[0.8998795038205571],[None],,,,,,,,,,,,,,,,,,,,,3000,2010-05-15_00h52.20.745,eb_03,2023.2.3,119.99463949550687,2010-05-15 00h52.29.367935 -0400,
,,,,0,0,0,0,18,0,18,0,66.1794632486708,,,,,,,,,,,,,,,,,,,,,,,,,,,,,,,,,,,,,,,,,,,,,,,,,,,,,,,,,,,,,,,,,,,,,,,,,,,,,,,,,,,,,,,,,,,,,,,,,,,,,,,,,,66.16558173819794,11.0,"('l',)",66.16602665645769,66.16603963577654,66.1794632486708,66.1794632486708,66.1794632486708,66.1794632486708,66.1794632486708,66.1794632486708,66.1794632486708,66.1794632486708,66.87162900457042,['l'],[0.6287821071746293],[None],,,,,,,,,,,,,,,,,,,,,3000,2010-05-15_00h52.20.745,eb_03,2023.2.3,119.99463949550687,2010-05-15 00h52.29.367935 -0400,
,,,,0,0,0,0,19,0,19,0,66.88782777255983,,,,,,,,,,,,,,,,,,,,,,,,,,,,,,,,,,,,,,,,,,,,,,,,,,,,,,,,,,,,,,,,,,,,,,,,,,,,,,,,,,,,,,,,,,,,,,,,,,,,,,,,,,66.87386265126406,10.0,"('h', 'space')",66.87424569149152,66.87425957631785,66.88782777255983,66.88782777255983,66.88782777255983,66.88782777255983,66.88782777255983,66.88782777255983,66.88782777255983,66.88782777255983,67.94679966726108,"['space', 'h']","[1.000498948385939, 1.0164565429149661]","[None, None]",,,,,,,,,,,,,,,,,,,,,3000,2010-05-15_00h52.20.745,eb_03,2023.2.3,119.99463949550687,2010-05-15 00h52.29.367935 -0400,
,,,,0,0,0,0,20,0,20,0,67.96293293507188,,,,,,,,,,,,,,,,,,,,,,,,,,,,,,,,,,,,,,,,,,,,,,,,,,,,,,,,,,,,,,,,,,,,,,,,,,,,,,,,,,,,,,,,,,,,,,,,,,,,,,,,,,67.9489925649832,14.0,"('j',)",67.94952320700395,67.94953588445787,67.96293293507188,67.96293293507188,67.96293293507188,67.96293293507188,67.96293293507188,67.96293293507188,67.96293293507188,67.96293293507188,68.86351996156736,['j'],[0.8373380002449267],[None],,,,,,,,,,,,,,,,,,,,,3000,2010-05-15_00h52.20.745,eb_03,2023.2.3,119.99463949550687,2010-05-15 00h52.29.367935 -0400,
,,,,0,0,0,0,21,0,21,0,68.8796604736417,,,,,,,,,,,,,,,,,,,,,,,,,,,,,,,,,,,,,,,,,,,,,,,,,,,,,,,,,,,,,,,,,,,,,,,,,,,,,,,,,,,,,,,,,,,,,,,,,,,,,,,,,,68.8657524008886,14.0,"('j',)",68.86620094129466,68.86621361874859,68.8796604736417,68.8796604736417,68.8796604736417,68.8796604736417,68.8796604736417,68.8796604736417,68.8796604736417,68.8796604736417,69.67181814010837,['j'],[0.7286122292862274],[None],,,,,,,,,,,,,,,,,,,,,3000,2010-05-15_00h52.20.745,eb_03,2023.2.3,119.99463949550687,2010-05-15 00h52.29.367935 -0400,
,,,,0,0,0,0,22,0,22,0,69.68801177677233,,,,,,,,,,,,,,,,,,,,,,,,,,,,,,,,,,,,,,,,,,,,,,,,,,,,,,,,,,,,,,,,,,,,,,,,,,,,,,,,,,,,,,,,,,,,,,,,,,,,,,,,,,69.67404907022137,10.0,"('h', 'space')",69.67451572127175,69.67452839872567,69.68801177677233,69.68801177677233,69.68801177677233,69.68801177677233,69.68801177677233,69.68801177677233,69.68801177677233,69.68801177677233,70.63035773360753,"['h', 'space']","[0.8802732172480319, 0.8812599457451142]","[None, None]",,,,,,,,,,,,,,,,,,,,,3000,2010-05-15_00h52.20.745,eb_03,2023.2.3,119.99463949550687,2010-05-15 00h52.29.367935 -0400,
,,,,0,0,0,0,23,0,23,0,70.64648979404592,,,,,,,,,,,,,,,,,,,,,,,,,,,,,,,,,,,,,,,,,,,,,,,,,,,,,,,,,,,,,,,,,,,,,,,,,,,,,,,,,,,,,,,,,,,,,,,,,,,,,,,,,,70.63255606454914,9.0,"('k', 'space')",70.63305501290597,70.63306738852407,70.64648979404592,70.64648979404592,70.64648979404592,70.64648979404592,70.64648979404592,70.64648979404592,70.64648979404592,70.64648979404592,73.83052266127197,"['space', 'k']","[3.121827919880161, 3.1458221148059238]","[None, None]",,,,,,,,,,,,,,,,,,,,,3000,2010-05-15_00h52.20.745,eb_03,2023.2.3,119.99463949550687,2010-05-15 00h52.29.367935 -0400,
,,,,0,0,0,0,24,0,24,0,73.84666890837252,,,,,,,,,,,,,,,,,,,,,,,,,,,,,,,,,,,,,,,,,,,,,,,,,,,,,,,,,,,,,,,,,,,,,,,,,,,,,,,,,,,,,,,,,,,,,,,,,,,,,,,,,,73.83276506143739,0.0,"('j', 'space')",73.83331592701143,73.83332890630118,73.84666890837252,73.84666890837252,73.84666890837252,73.84666890837252,73.84666890837252,73.84666890837252,73.84666890837252,73.84666890837252,75.48894133599242,"['space', 'j']","[1.577645482844673, 1.609708877367666]","[None, None]",,,,,,,,,,,,,,,,,,,,,3000,2010-05-15_00h52.20.745,eb_03,2023.2.3,119.99463949550687,2010-05-15 00h52.29.367935 -0400,
,,,,0,0,0,0,25,0,25,0,75.50512893576524,,,,,,,,,,,,,,,,,,,,,,,,,,,,,,,,,,,,,,,,,,,,,,,,,,,,,,,,,,,,,,,,,,,,,,,,,,,,,,,,,,,,,,,,,,,,,,,,,,,,,,,,,,75.49118132141302,11.0,"('l',)",75.49184024718124,75.49185413200757,75.50512893576524,75.50512893576524,75.50512893576524,75.50512893576524,75.50512893576524,75.50512893576524,75.50512893576524,75.50512893576524,76.3806438818574,['l'],[0.8151648310595192],[None],,,,,,,,,,,,,,,,,,,,,3000,2010-05-15_00h52.20.745,eb_03,2023.2.3,119.99463949550687,2010-05-15 00h52.29.367935 -0400,
,,,,0,0,0,0,26,0,26,0,76.3968335945392,,,,,,,,,,,,,,,,,,,,,,,,,,,,,,,,,,,,,,,,,,,,,,,,,,,,,,,,,,,,,,,,,,,,,,,,,,,,,,,,,,,,,,,,,,,,,,,,,,,,,,,,,,76.38283557223622,7.0,"('j', 'l')",76.38331218413077,76.3833372372028,76.3968335945392,76.3968335945392,76.3968335945392,76.3968335945392,76.3968335945392,76.3968335945392,76.3968335945392,76.3968335945392,77.45574874253361,"['l', 'j']","[0.9874692420999054, 1.0034884128253907]","[None, None]",,,,,,,,,,,,,,,,,,,,,3000,2010-05-15_00h52.20.745,eb_03,2023.2.3,119.99463949550687,2010-05-15 00h52.29.367935 -0400,
,,,,0,0,0,0,27,0,27,0,77.47189800807973,,,,,,,,,,,,,,,,,,,,,,,,,,,,,,,,,,,,,,,,,,,,,,,,,,,,,,,,,,,,,,,,,,,,,,,,,,,,,,,,,,,,,,,,,,,,,,,,,,,,,,,,,,77.45803038243321,14.0,"('j',)",77.45857762586093,77.4585909070156,77.47189800807973,77.47189800807973,77.47189800807973,77.47189800807973,77.47189800807973,77.47189800807973,77.47189800807973,77.47189800807973,78.09735832040315,['j'],[0.5524022568424698],[None],,,,,,,,,,,,,,,,,,,,,3000,2010-05-15_00h52.20.745,eb_03,2023.2.3,119.99463949550687,2010-05-15 00h52.29.367935 -0400,
,,,,0,0,0,0,28,0,28,0,78.11363858630648,,,,,,,,,,,,,,,,,,,,,,,,,,,,,,,,,,,,,,,,,,,,,,,,,,,,,,,,,,,,,,,,,,,,,,,,,,,,,,,,,,,,,,,,,,,,,,,,,,,,,,,,,,78.09959649475059,0.0,"('j', 'space')",78.10002118945704,78.10003416877589,78.11363858630648,78.11363858630648,78.11363858630648,78.11363858630648,78.11363858630648,78.11363858630648,78.11363858630648,78.11363858630648,81.43106664478546,"['j', 'space']","[3.2457207555125933, 3.246656472387258]","[None, None]",,,,,,,,,,,,,,,,,,,,,3000,2010-05-15_00h52.20.745,eb_03,2023.2.3,119.99463949550687,2010-05-15 00h52.29.367935 -0400,
,,,,0,0,0,0,29,0,29,0,81.44718240562361,,,,,,,,,,,,,,,,,,,,,,,,,,,,,,,,,,,,,,,,,,,,,,,,,,,,,,,,,,,,,,,,,,,,,,,,,,,,,,,,,,,,,,,,,,,,,,,,,,,,,,,,,,81.43329304721556,14.0,"('j',)",81.43373434335808,81.43374762448366,81.44718240562361,81.44718240562361,81.44718240562361,81.44718240562361,81.44718240562361,81.44718240562361,81.44718240562361,81.44718240562361,82.03102414513705,['j'],[0.51215948961908],[None],,,,,,,,,,,,,,,,,,,,,3000,2010-05-15_00h52.20.745,eb_03,2023.2.3,119.99463949550687,2010-05-15 00h52.29.367935 -0400,
,,,,0,0,0,0,30,0,30,0,82.04721747993608,,,,,,,,,,,,,,,,,,,,,,,,,,,,,,,,,,,,,,,,,,,,,,,,,,,,,,,,,,,,,,,,,,,,,,,,,,,,,,,,,,,,,,,,,,,,,,,,,,,,,,,,,,82.03325628259336,10.0,"('h', 'space')",82.03373681847006,82.03375070329639,82.04721747993608,82.04721747993608,82.04721747993608,82.04721747993608,82.04721747993608,82.04721747993608,82.04721747993608,82.04721747993608,83.63955341555993,"['h', 'space']","[1.5281231210101396, 1.5761084924452007]","[None, None]",,,,,,,,,,,,,,,,,,,,,3000,2010-05-15_00h52.20.745,eb_03,2023.2.3,119.99463949550687,2010-05-15 00h52.29.367935 -0400,
,,,,0,0,0,0,31,0,31,0,83.65561152418377,,,,,,,,,,,,,,,,,,,,,,,,,,,,,,,,,,,,,,,,,,,,,,,,,,,,,,,,,,,,,,,,,,,,,,,,,,,,,,,,,,,,,,,,,,,,,,,,,,,,,,,,,,83.64181422820548,10.0,"('h', 'space')",83.64226276861154,83.6422757479304,83.65561152418377,83.65561152418377,83.65561152418377,83.65561152418377,83.65561152418377,83.65561152418377,83.65561152418377,83.65561152418377,84.28956482527428,"['space', 'h']","[0.5597663484804798, 0.6077206299814861]","[None, None]",,,,,,,,,,,,,,,,,,,,,3000,2010-05-15_00h52.20.745,eb_03,2023.2.3,119.99463949550687,2010-05-15 00h52.29.367935 -0400,
,,,,0,0,0,0,32,0,32,0,84.30568390639382,,,,,,,,,,,,,,,,,,,,,,,,,,,,,,,,,,,,,,,,,,,,,,,,,,,,,,,,,,,,,,,,,,,,,,,,,,,,,,,,,,,,,,,,,,,,,,,,,,,,,,,,,,84.29181054572109,3.0,"('h', 'j')",84.29225335107185,84.29226663222653,84.30568390639382,84.30568390639382,84.30568390639382,84.30568390639382,84.30568390639382,84.30568390639382,84.30568390639382,84.30568390639382,85.26459235345828,"['h', 'j']","[0.8856617389828898, 0.8866545043711085]","[None, None]",,,,,,,,,,,,,,,,,,,,,3000,2010-05-15_00h52.20.745,eb_03,2023.2.3,119.99463949550687,2010-05-15 00h52.29.367935 -0400,
,,,,0,0,0,0,33,0,33,0,85.2808104394644,,,,,,,,,,,,,,,,,,,,,,,,,,,,,,,,,,,,,,,,,,,,,,,,,,,,,,,,,,,,,,,,,,,,,,,,,,,,,,,,,,,,,,,,,,,,,,,,,,,,,,,,,,85.2667930991156,2.0,"('h',)",85.26731679873774,85.26733943703584,85.2808104394644,85.2808104394644,85.2808104394644,85.2808104394644,85.2808104394644,85.2808104394644,85.2808104394644,85.2808104394644,86.55628095412976,['h'],[1.2145121836510953],[None],,,,,,,,,,,,,,,,,,,,,3000,2010-05-15_00h52.20.745,eb_03,2023.2.3,119.99463949550687,2010-05-15 00h52.29.367935 -0400,
,,,,0,0,0,0,34,0,34,0,86.57255367393373,,,,,,,,,,,,,,,,,,,,,,,,,,,,,,,,,,,,,,,,,,,,,,,,,,,,,,,,,,,,,,,,,,,,,,,,,,,,,,,,,,,,,,,,,,,,,,,,,,,,,,,,,,86.55849105695961,3.0,"('h', 'j')",86.55886775846011,86.55888073777896,86.57255367393373,86.57255367393373,86.57255367393373,86.57255367393373,86.57255367393373,86.57255367393373,86.57255367393373,86.57255367393373,87.35642722778721,"['h', 'j']","[0.7227902593731415, 0.7237821192247793]","[None, None]",,,,,,,,,,,,,,,,,,,,,3000,2010-05-15_00h52.20.745,eb_03,2023.2.3,119.99463949550687,2010-05-15 00h52.29.367935 -0400,
,,,,0,0,0,0,35,0,35,0,87.37253604622674,,,,,,,,,,,,,,,,,,,,,,,,,,,,,,,,,,,,,,,,,,,,,,,,,,,,,,,,,,,,,,,,,,,,,,,,,,,,,,,,,,,,,,,,,,,,,,,,,,,,,,,,,,87.35866298738983,4.0,"('k',)",87.3591667652654,87.3591803482559,87.37253604622674,87.37253604622674,87.37253604622674,87.37253604622674,87.37253604622674,87.37253604622674,87.37253604622674,87.37253604622674,88.4981333957985,['k'],[1.0668325199512765],[None],,,,,,,,,,,,,,,,,,,,,3000,2010-05-15_00h52.20.745,eb_03,2023.2.3,119.99463949550687,2010-05-15 00h52.29.367935 -0400,
,,,,0,0,0,0,36,0,36,0,88.51434363386943,,,,,,,,,,,,,,,,,,,,,,,,,,,,,,,,,,,,,,,,,,,,,,,,,,,,,,,,,,,,,,,,,,,,,,,,,,,,,,,,,,,,,,,,,,,,,,,,,,,,,,,,,,88.50041111174505,3.0,"('h', 'j')",88.50087715909467,88.50089044024935,88.51434363386943,88.51434363386943,88.51434363386943,88.51434363386943,88.51434363386943,88.51434363386943,88.51434363386943,88.51434363386943,89.63995215168688,"['h', 'j']","[1.0610174924659077, 1.0620090505108237]","[None, None]",,,,,,,,,,,,,,,,,,,,,3000,2010-05-15_00h52.20.745,eb_03,2023.2.3,119.99463949550687,2010-05-15 00h52.29.367935 -0400,
,,,,0,0,0,0,37,0,37,0,89.65606097012642,,,,,,,,,,,,,,,,,,,,,,,,,,,,,,,,,,,,,,,,,,,,,,,,,,,,,,,,,,,,,,,,,,,,,,,,,,,,,,,,,,,,,,,,,,,,,,,,,,,,,,,,,,89.64215561395395,1.0,"('h', 'l')",89.64264641253976,89.64266210843925,89.65606097012642,89.65606097012642,89.65606097012642,89.65606097012642,89.65606097012642,89.65606097012642,89.65606097012642,89.65606097012642,90.7566309122194,"['h', 'l']","[1.039269018016057, 1.0552915090229362]","[None, None]",,,,,,,,,,,,,,,,,,,,,3000,2010-05-15_00h52.20.745,eb_03,2023.2.3,119.99463949550687,2010-05-15 00h52.29.367935 -0400,
,,,,0,0,0,0,38,0,38,0,90.77278198883869,,,,,,,,,,,,,,,,,,,,,,,,,,,,,,,,,,,,,,,,,,,,,,,,,,,,,,,,,,,,,,,,,,,,,,,,,,,,,,,,,,,,,,,,,,,,,,,,,,,,,,,,,,90.7588865935395,6.0,"('k', 'l')",90.75937980687013,90.75939338986063,90.77278198883869,90.77278198883869,90.77278198883869,90.77278198883869,90.77278198883869,90.77278198883869,90.77278198883869,90.77278198883869,91.72338972185389,"['k', 'l']","[0.8905721395567525, 0.9146037631726358]","[None, None]",,,,,,,,,,,,,,,,,,,,,3000,2010-05-15_00h52.20.745,eb_03,2023.2.3,119.99463949550687,2010-05-15 00h52.29.367935 -0400,
,,,,0,0,0,0,39,0,39,0,91.73950759563013,,,,,,,,,,,,,,,,,,,,,,,,,,,,,,,,,,,,,,,,,,,,,,,,,,,,,,,,,,,,,,,,,,,,,,,,,,,,,,,,,,,,,,,,,,,,,,,,,,,,,,,,,,91.72561340767425,8.0,"('j', 'k')",91.72616608432145,91.72617996914778,91.73950759563013,91.73950759563013,91.73950759563013,91.73950759563013,91.73950759563013,91.73950759563013,91.73950759563013,91.73950759563013,92.63179602098535,"['j', 'k']","[0.81983315263642, 0.8358366274624132]","[None, None]",,,,,,,,,,,,,,,,,,,,,3000,2010-05-15_00h52.20.745,eb_03,2023.2.3,119.99463949550687,2010-05-15 00h52.29.367935 -0400,
,,,,0,0,0,0,40,0,40,0,92.64790453755995,,,,,,,,,,,,,,,,,,,,,,,,,,,,,,,,,,,,,,,,,,,,,,,,,,,,,,,,,,,,,,,,,,,,,,,,,,,,,,,,,,,,,,,,,,,,,,,,,,,,,,,,,,92.63405562625849,8.0,"('j', 'k')",92.63456755393418,92.63458053322393,92.64790453755995,92.64790453755995,92.64790453755995,92.64790453755995,92.64790453755995,92.64790453755995,92.64790453755995,92.64790453755995,93.29014617708162,"['k', 'j']","[0.5834919021290261, 0.6074221061135177]","[None, None]",,,,,,,,,,,,,,,,,,,,,3000,2010-05-15_00h52.20.745,eb_03,2023.2.3,119.99463949550687,2010-05-15 00h52.29.367935 -0400,
,,,,0,0,0,0,41,0,41,0,93.3063298528723,,,,,,,,,,,,,,,,,,,,,,,,,,,,,,,,,,,,,,,,,,,,,,,,,,,,,,,,,,,,,,,,,,,,,,,,,,,,,,,,,,,,,,,,,,,,,,,,,,,,,,,,,,93.29242057274678,2.0,"('h',)",93.29285824674298,93.29287122606183,93.3063298528723,93.3063298528723,93.3063298528723,93.3063298528723,93.3063298528723,93.3063298528723,93.3063298528723,93.3063298528723,94.27358549795463,['h'],[0.9010597144078929],[None],,,,,,,,,,,,,,,,,,,,,3000,2010-05-15_00h52.20.745,eb_03,2023.2.3,119.99463949550687,2010-05-15 00h52.29.367935 -0400,
,,,,0,0,0,0,42,0,42,0,94.28967952603125,,,,,,,,,,,,,,,,,,,,,,,,,,,,,,,,,,,,,,,,,,,,,,,,,,,,,,,,,,,,,,,,,,,,,,,,,,,,,,,,,,,,,,,,,,,,,,,,,,,,,,,,,,94.27579529897776,4.0,"('k',)",94.27624414121965,94.27625742234522,94.28967952603125,94.28967952603125,94.28967952603125,94.28967952603125,94.28967952603125,94.28967952603125,94.28967952603125,94.28967952603125,95.07360258235713,['k'],[0.7097025989787653],[None],,,,,,,,,,,,,,,,,,,,,3000,2010-05-15_00h52.20.745,eb_03,2023.2.3,119.99463949550687,2010-05-15 00h52.29.367935 -0400,
,,,,0,0,0,0,43,0,43,0,95.08979501161957,,,,,,,,,,,,,,,,,,,,,,,,,,,,,,,,,,,,,,,,,,,,,,,,,,,,,,,,,,,,,,,,,,,,,,,,,,,,,,,,,,,,,,,,,,,,,,,,,,,,,,,,,,95.07584709543153,4.0,"('k',)",95.07627843070077,95.07629141001962,95.08979501161957,95.08979501161957,95.08979501161957,95.08979501161957,95.08979501161957,95.08979501161957,95.08979501161957,95.08979501161957,96.04033181123668,['k'],[0.8775554125604685],[None],,,,,,,,,,,,,,,,,,,,,3000,2010-05-15_00h52.20.745,eb_03,2023.2.3,119.99463949550687,2010-05-15 00h52.29.367935 -0400,
,,,,0,0,0,0,44,0,44,0,96.05654054009938,,,,,,,,,,,,,,,,,,,,,,,,,,,,,,,,,,,,,,,,,,,,,,,,,,,,,,,,,,,,,,,,,,,,,,,,,,,,,,,,,,,,,,,,,,,,,,,,,,,,,,,,,,96.04255187493982,4.0,"('k',)",96.04304418276297,96.04305746388854,96.05654054009938,96.05654054009938,96.05654054009938,96.05654054009938,96.05654054009938,96.05654054009938,96.05654054009938,96.05654054009938,96.84037123210146,['k'],[0.7108085559448227],[None],,,,,,,,,,,,,,,,,,,,,3000,2010-05-15_00h52.20.745,eb_03,2023.2.3,119.99463949550687,2010-05-15 00h52.29.367935 -0400,
,,,,0,0,0,0,45,0,45,0,96.85650872573024,,,,,,,,,,,,,,,,,,,,,,,,,,,,,,,,,,,,,,,,,,,,,,,,,,,,,,,,,,,,,,,,,,,,,,,,,,,,,,,,,,,,,,,,,,,,,,,,,,,,,,,,,,96.84257318513119,7.0,"('j', 'l')",96.84311680644169,96.84313008759636,96.85650872573024,96.85650872573024,96.85650872573024,96.85650872573024,96.85650872573024,96.85650872573024,96.85650872573024,96.85650872573024,97.85709309598315,"['j', 'l']","[0.9258447410247754, 0.9268483728228603]","[None, None]",,,,,,,,,,,,,,,,,,,,,3000,2010-05-15_00h52.20.745,eb_03,2023.2.3,119.99463949550687,2010-05-15 00h52.29.367935 -0400,
,,,,0,0,0,0,46,0,46,0,97.87330212668166,,,,,,,,,,,,,,,,,,,,,,,,,,,,,,,,,,,,,,,,,,,,,,,,,,,,,,,,,,,,,,,,,,,,,,,,,,,,,,,,,,,,,,,,,,,,,,,,,,,,,,,,,,97.859330364794,5.0,"('l', 'space')",97.85979792138096,97.85981090069981,97.87330212668166,97.87330212668166,97.87330212668166,97.87330212668166,97.87330212668166,97.87330212668166,97.87330212668166,97.87330212668166,99.6238958541071,"['space', 'l']","[1.6770735485479236, 1.7010843449097592]","[None, None]",,,,,,,,,,,,,,,,,,,,,3000,2010-05-15_00h52.20.745,eb_03,2023.2.3,119.99463949550687,2010-05-15 00h52.29.367935 -0400,
,,,,0,0,0,0,47,0,47,0,99.6400831520441,,,,,,,,,,,,,,,,,,,,,,,,,,,,,,,,,,,,,,,,,,,,,,,,,,,,,,,,,,,,,,,,,,,,,,,,,,,,,,,,,,,,,,,,,,,,,,,,,,,,,,,,,,99.62614459302858,11.0,"('l',)",99.62669304382871,99.62670602311846,99.6400831520441,99.6400831520441,99.6400831520441,99.6400831520441,99.6400831520441,99.6400831520441,99.6400831520441,99.6400831520441,100.2572252433456,['l'],[0.5582867084885947],[None],,,,,,,,,,,,,,,,,,,,,3000,2010-05-15_00h52.20.745,eb_03,2023.2.3,119.99463949550687,2010-05-15 00h52.29.367935 -0400,
,,,,0,0,0,0,48,0,48,0,100.27348890784197,,,,,,,,,,,,,,,,,,,,,,,,,,,,,,,,,,,,,,,,,,,,,,,,,,,,,,,,,,,,,,,,,,,,,,,,,,,,,,,,,,,,,,,,,,,,,,,,,,,,,,,,,,100.25942991301417,0.0,"('j', 'space')",100.2598497782019,100.25986275752075,100.27348890784197,100.27348890784197,100.27348890784197,100.27348890784197,100.27348890784197,100.27348890784197,100.27348890784197,100.27348890784197,102.9658137356164,"['j', 'space']","[2.6288684345781803, 2.629853955702856]","[None, None]",,,,,,,,,,,,,,,,,,,,,3000,2010-05-15_00h52.20.745,eb_03,2023.2.3,119.99463949550687,2010-05-15 00h52.29.367935 -0400,
,,,,0,0,0,0,49,0,49,0,102.98193945732783,,,,,,,,,,,,,,,,,,,,,,,,,,,,,,,,,,,,,,,,,,,,,,,,,,,,,,,,,,,,,,,,,,,,,,,,,,,,,,,,,,,,,,,,,,,,,,,,,,,,,,,,,,102.96802414031117,11.0,"('l',)",102.96849954483332,102.9685128259589,102.98193945732783,102.98193945732783,102.98193945732783,102.98193945732783,102.98193945732783,102.98193945732783,102.98193945732783,102.98193945732783,103.95749068510486,['l'],[0.9124208262655884],[None],,,,,,,,,,,,,,,,,,,,,3000,2010-05-15_00h52.20.745,eb_03,2023.2.3,119.99463949550687,2010-05-15 00h52.29.367935 -0400,
,,,,0,0,0,0,50,0,50,0,103.97365775945946,,,,,,,,,,,,,,,,,,,,,,,,,,,,,,,,,,,,,,,,,,,,,,,,,,,,,,,,,,,,,,,,,,,,,,,,,,,,,,,,,,,,,,,,,,,,,,,,,,,,,,,,,,103.95975089407875,4.0,"('k',)",103.96024169266457,103.9602555774909,103.97365775945946,103.97365775945946,103.97365775945946,103.97365775945946,103.97365775945946,103.97365775945946,103.97365775945946,103.97365775945946,104.86590332296328,['k'],[0.8327294437913224],[None],,,,,,,,,,,,,,,,,,,,,3000,2010-05-15_00h52.20.745,eb_03,2023.2.3,119.99463949550687,2010-05-15 00h52.29.367935 -0400,
,,,,0,0,0,0,51,0,51,0,104.88205228667357,,,,,,,,,,,,,,,,,,,,,,,,,,,,,,,,,,,,,,,,,,,,,,,,,,,,,,,,,,,,,,,,,,,,,,,,,,,,,,,,,,,,,,,,,,,,,,,,,,,,,,,,,,104.86816141902818,11.0,"('l',)",104.86862354239565,104.8686365217145,104.88205228667357,104.88205228667357,104.88205228667357,104.88205228667357,104.88205228667357,104.88205228667357,104.88205228667357,104.88205228667357,105.48261226792238,['l'],[0.5403293964627665],[None],,,,,,,,,,,,,,,,,,,,,3000,2010-05-15_00h52.20.745,eb_03,2023.2.3,119.99463949550687,2010-05-15 00h52.29.367935 -0400,
,,,,0,0,0,0,52,0,52,0,105.49876123163267,,,,,,,,,,,,,,,,,,,,,,,,,,,,,,,,,,,,,,,,,,,,,,,,,,,,,,,,,,,,,,,,,,,,,,,,,,,,,,,,,,,,,,,,,,,,,,,,,,,,,,,,,,105.48486070497893,1.0,"('h', 'l')",105.48530894352007,105.48532192283892,105.49876123163267,105.49876123163267,105.49876123163267,105.49876123163267,105.49876123163267,105.49876123163267,105.49876123163267,105.49876123163267,107.58269835388637,"['h', 'l']","[2.0116219051997177, 2.0126185945700854]","[None, None]",,,,,,,,,,,,,,,,,,,,,3000,2010-05-15_00h52.20.745,eb_03,2023.2.3,119.99463949550687,2010-05-15 00h52.29.367935 -0400,
,,,,0,0,0,0,53,0,53,0,107.59888323704945,,,,,,,,,,,,,,,,,,,,,,,,,,,,,,,,,,,,,,,,,,,,,,,,,,,,,,,,,,,,,,,,,,,,,,,,,,,,,,,,,,,,,,,,,,,,,,,,,,,,,,,,,,107.58489517556154,9.0,"('k', 'space')",107.58532802006812,107.58536031740368,107.59888323704945,107.59888323704945,107.59888323704945,107.59888323704945,107.59888323704945,107.59888323704945,107.59888323704945,107.59888323704945,108.92499716268503,"['space', 'k']","[1.1915216204943135, 1.2555143907375168]","[None, None]",,,,,,,,,,,,,,,,,,,,,3000,2010-05-15_00h52.20.745,eb_03,2023.2.3,119.99463949550687,2010-05-15 00h52.29.367935 -0400,
,,,,0,0,0,0,54,0,54,0,108.94066921263584,,,,,,,,,,,,,,,,,,,,,,,,,,,,,,,,,,,,,,,,,,,,,,,,,,,,,,,,,,,,,,,,,,,,,,,,,,,,,,,,,,,,,,,,,,,,,,,,,,,,,,,,,,108.92721330240602,13.0,"('space',)",108.92780612429488,108.92782182019437,108.94066921263584,108.94066921263584,108.94066921263584,108.94066921263584,108.94066921263584,108.94066921263584,108.94066921263584,108.94066921263584,110.04953503928846,['space'],[1.0338080536748748],[None],,,,,,,,,,,,,,,,,,,,,3000,2010-05-15_00h52.20.745,eb_03,2023.2.3,119.99463949550687,2010-05-15 00h52.29.367935 -0400,
,,,,0,0,0,0,55,0,55,0,110.06572203536052,,,,,,,,,,,,,,,,,,,,,,,,,,,,,,,,,,,,,,,,,,,,,,,,,,,,,,,,,,,,,,,,,,,,,,,,,,,,,,,,,,,,,,,,,,,,,,,,,,,,,,,,,,110.05173457757337,5.0,"('l', 'space')",110.05231502387323,110.05234158615349,110.06572203536052,110.06572203536052,110.06572203536052,110.06572203536052,110.06572203536052,110.06572203536052,110.06572203536052,110.06572203536052,111.10797327352338,"['l', 'space']","[0.9807040092127863, 0.9816813805664424]","[None, None]",,,,,,,,,,,,,,,,,,,,,3000,2010-05-15_00h52.20.745,eb_03,2023.2.3,119.99463949550687,2010-05-15 00h52.29.367935 -0400,
,,,,0,0,0,0,56,0,56,0,111.12416751385899,,,,,,,,,,,,,,,,,,,,,,,,,,,,,,,,,,,,,,,,,,,,,,,,,,,,,,,,,,,,,,,,,,,,,,,,,,,,,,,,,,,,,,,,,,,,,,,,,,,,,,,,,,111.11018247084576,6.0,"('k', 'l')",111.11070526490221,111.11072065893677,111.12416751385899,111.12416751385899,111.12416751385899,111.12416751385899,111.12416751385899,111.12416751385899,111.12416751385899,111.12416751385899,112.04140728194034,"['k', 'l']","[0.8422399491828401, 0.8432302998262458]","[None, None]",,,,,,,,,,,,,,,,,,,,,3000,2010-05-15_00h52.20.745,eb_03,2023.2.3,119.99463949550687,2010-05-15 00h52.29.367935 -0400,
,,,,0,0,0,0,57,0,57,0,112.0575604714686,,,,,,,,,,,,,,,,,,,,,,,,,,,,,,,,,,,,,,,,,,,,,,,,,,,,,,,,,,,,,,,,,,,,,,,,,,,,,,,,,,,,,,,,,,,,,,,,,,,,,,,,,,112.0436750370136,10.0,"('h', 'space')",112.04431162631954,112.04433426464675,112.0575604714686,112.0575604714686,112.0575604714686,112.0575604714686,112.0575604714686,112.0575604714686,112.0575604714686,112.0575604714686,113.30812159972265,"['h', 'space']","[1.1878735321515705, 1.1888659957039636]","[None, None]",,,,,,,,,,,,,,,,,,,,,3000,2010-05-15_00h52.20.745,eb_03,2023.2.3,119.99463949550687,2010-05-15 00h52.29.367935 -0400,
,,,,0,0,0,0,58,0,58,0,113.3243399875937,,,,,,,,,,,,,,,,,,,,,,,,,,,,,,,,,,,,,,,,,,,,,,,,,,,,,,,,,,,,,,,,,,,,,,,,,,,,,,,,,,,,,,,,,,,,,,,,,,,,,,,,,,113.31037365892553,8.0,"('j', 'k')",113.31089826405514,113.3109136580897,113.3243399875937,113.3243399875937,113.3243399875937,113.3243399875937,113.3243399875937,113.3243399875937,113.3243399875937,113.3243399875937,114.97486996554653,"['j', 'k']","[1.5770577922812663, 1.5780454263440333]","[None, None]",,,,,,,,,,,,,,,,,,,,,3000,2010-05-15_00h52.20.745,eb_03,2023.2.3,119.99463949550687,2010-05-15 00h52.29.367935 -0400,
,,,,0,0,0,0,59,0,59,0,114.99107235568226,,,,,,,,,,,,,,,,,,,,,,,,,,,,,,,,,,,,,,,,,,,,,,,,,,,,,,,,,,,,,,,,,,,,,,,,,,,,,,,,,,,,,,,,,,,,,,,,,,,,,,,,,,114.97710753622232,5.0,"('l', 'space')",114.97766775893979,114.97768345483928,114.99107235568226,114.99107235568226,114.99107235568226,114.99107235568226,114.99107235568226,114.99107235568226,114.99107235568226,114.99107235568226,119.20016794608091,"['l', 'space']","[4.13438071240671, 4.1353583855961915]","[None, None]",,,,,,,,,,,,,,,,,,,,,3000,2010-05-15_00h52.20.745,eb_03,2023.2.3,119.99463949550687,2010-05-15 00h52.29.367935 -0400,
,,,,0,0,0,0,60,0,60,0,119.21638633395196,,,,,,,,,,,,,,,,,,,,,,,,,,,,,,,,,,,,,,,,,,,,,,,,,,,,,,,,,,,,,,,,,,,,,,,,,,,,,,,,,,,,,,,,,,,,,,,,,,,,,,,,,,119.20243871959974,8.0,"('j', 'k')",119.20294974173885,119.20296513580251,119.21638633395196,119.21638633395196,119.21638633395196,119.21638633395196,119.21638633395196,119.21638633395196,119.21638633395196,119.21638633395196,120.19194933364633,"['k', 'j']","[0.9010265115648508, 0.933044629462529]","[None, None]",,,,,,,,,,,,,,,,,,,,,3000,2010-05-15_00h52.20.745,eb_03,2023.2.3,119.99463949550687,2010-05-15 00h52.29.367935 -0400,
,,,,0,0,0,0,61,0,61,0,120.20808320515789,,,,,,,,,,,,,,,,,,,,,,,,,,,,,,,,,,,,,,,,,,,,,,,,,,,,,,,,,,,,,,,,,,,,,,,,,,,,,,,,,,,,,,,,,,,,,,,,,,,,,,,,,,120.19413076131605,10.0,"('h', 'space')",120.19473173300503,120.1947471270687,120.20808320515789,120.20808320515789,120.20808320515789,120.20808320515789,120.20808320515789,120.20808320515789,120.20808320515789,120.20808320515789,123.63384282615152,"['h', 'space']","[3.3653772085963283, 3.3663726905942895]","[None, None]",,,,,,,,,,,,,,,,,,,,,3000,2010-05-15_00h52.20.745,eb_03,2023.2.3,119.99463949550687,2010-05-15 00h52.29.367935 -0400,
,,,,0,0,0,0,62,0,62,0,123.64995255009853,,,,,,,,,,,,,,,,,,,,,,,,,,,,,,,,,,,,,,,,,,,,,,,,,,,,,,,,,,,,,,,,,,,,,,,,,,,,,,,,,,,,,,,,,,,,,,,,,,,,,,,,,,123.63610152588808,13.0,"('space',)",123.63663488448947,123.63665058038896,123.64995255009853,123.64995255009853,123.64995255009853,123.64995255009853,123.64995255009853,123.64995255009853,123.64995255009853,123.64995255009853,124.4588728294475,['space'],[0.7474992212373763],[None],,,,,,,,,,,,,,,,,,,,,3000,2010-05-15_00h52.20.745,eb_03,2023.2.3,119.99463949550687,2010-05-15 00h52.29.367935 -0400,
,,,,0,0,0,0,63,0,63,0,124.47503899826552,,,,,,,,,,,,,,,,,,,,,,,,,,,,,,,,,,,,,,,,,,,,,,,,,,,,,,,,,,,,,,,,,,,,,,,,,,,,,,,,,,,,,,,,,,,,,,,,,,,,,,,,,,124.46115537488367,6.0,"('k', 'l')",124.46174155620974,124.46175785580999,124.47503899826552,124.47503899826552,124.47503899826552,124.47503899826552,124.47503899826552,124.47503899826552,124.47503899826552,124.47503899826552,125.54225938796299,"['l', 'k']","[0.9944071297941264, 1.0344099309004378]","[None, None]",,,,,,,,,,,,,,,,,,,,,3000,2010-05-15_00h52.20.745,eb_03,2023.2.3,119.99463949550687,2010-05-15 00h52.29.367935 -0400,
,,,,0,0,0,0,64,0,64,0,125.55842917892733,,,,,,,,,,,,,,,,,,,,,,,,,,,,,,,,,,,,,,,,,,,,,,,,,,,,,,,,,,,,,,,,,,,,,,,,,,,,,,,,,,,,,,,,,,,,,,,,,,,,,,,,,,125.54448729963042,9.0,"('k', 'space')",125.5451142298989,125.54512932212674,125.55842917892733,125.55842917892733,125.55842917892733,125.55842917892733,125.55842917892733,125.55842917892733,125.55842917892733,125.55842917892733,127.21739660631283,"['k', 'space']","[1.5989876750973053, 1.5999955327133648]","[None, None]",,,,,,,,,,,,,,,,,,,,,3000,2010-05-15_00h52.20.745,eb_03,2023.2.3,119.99463949550687,2010-05-15 00h52.29.367935 -0400,
,,,,0,0,0,0,65,0,65,0,127.23353259073338,,,,,,,,,,,,,,,,,,,,,,,,,,,,,,,,,,,,,,,,,,,,,,,,,,,,,,,,,,,,,,,,,,,,,,,,,,,,,,,,,,,,,,,,,,,,,,,,,,,,,,,,,,127.21968337756698,12.0,"('h', 'k')",127.22026654047659,127.22028223634697,127.23353259073338,127.23353259073338,127.23353259073338,127.23353259073338,127.23353259073338,127.23353259073338,127.23353259073338,127.23353259073338,128.74250702091376,"['k', 'h']","[1.4349248166836333, 1.450904143974185]","[None, None]",,,,,,,,,,,,,,,,,,,,,3000,2010-05-15_00h52.20.745,eb_03,2023.2.3,119.99463949550687,2010-05-15 00h52.29.367935 -0400,
,,,,0,0,0,0,66,0,66,0,128.75862308358774,,,,,,,,,,,,,,,,,,,,,,,,,,,,,,,,,,,,,,,,,,,,,,,,,,,,,,,,,,,,,,,,,,,,,,,,,,,,,,,,,,,,,,,,,,,,,,,,,,,,,,,,,,128.74471531267045,10.0,"('h', 'space')",128.74527795016184,128.7452933442255,128.75862308358774,128.75862308358774,128.75862308358774,128.75862308358774,128.75862308358774,128.75862308358774,128.75862308358774,128.75862308358774,129.9009075849899,"['h', 'space']","[1.069871184998192, 1.0708376899710856]","[None, None]",,,,,,,,,,,,,,,,,,,,,3000,2010-05-15_00h52.20.745,eb_03,2023.2.3,119.99463949550687,2010-05-15 00h52.29.367935 -0400,
,,,,0,0,0,0,67,0,67,0,129.917048700765,,,,,,,,,,,,,,,,,,,,,,,,,,,,,,,,,,,,,,,,,,,,,,,,,,,,,,,,,,,,,,,,,,,,,,,,,,,,,,,,,,,,,,,,,,,,,,,,,,,,,,,,,,129.90310169008444,11.0,"('l',)",129.9037002470286,129.90372439456405,129.917048700765,129.917048700765,129.917048700765,129.917048700765,129.917048700765,129.917048700765,129.917048700765,129.917048700765,130.76767750247382,['l'],[0.791438371874392],[None],,,,,,,,,,,,,,,,,,,,,3000,2010-05-15_00h52.20.745,eb_03,2023.2.3,119.99463949550687,2010-05-15 00h52.29.367935 -0400,
,,,,0,0,0,0,68,0,68,0,130.78378632091335,,,,,,,,,,,,,,,,,,,,,,,,,,,,,,,,,,,,,,,,,,,,,,,,,,,,,,,,,,,,,,,,,,,,,,,,,,,,,,,,,,,,,,,,,,,,,,,,,,,,,,,,,,130.76994525754708,12.0,"('h', 'k')",130.7704372635053,130.77046231657732,130.78378632091335,130.78378632091335,130.78378632091335,130.78378632091335,130.78378632091335,130.78378632091335,130.78378632091335,130.78378632091335,133.96786235182662,"['h', 'k']","[3.1087532388046384, 3.1406898587592877]","[None, None]",,,,,,,,,,,,,,,,,,,,,3000,2010-05-15_00h52.20.745,eb_03,2023.2.3,119.99463949550687,2010-05-15 00h52.29.367935 -0400,
,,,,0,0,0,0,69,0,69,0,133.983967246284,,,,,,,,,,,,,,,,,,,,,,,,,,,,,,,,,,,,,,,,,,,,,,,,,,,,,,,,,,,,,,,,,,,,,,,,,,,,,,,,,,,,,,,,,,,,,,,,,,,,,,,,,,133.97013342721038,12.0,"('h', 'k')",133.9706873112009,133.97070270526456,133.983967246284,133.983967246284,133.983967246284,133.983967246284,133.983967246284,133.983967246284,133.983967246284,133.983967246284,135.17673004991957,"['h', 'k']","[0.5804876473266631, 1.1565019644040149]","[None, None]",,,,,,,,,,,,,,,,,,,,,3000,2010-05-15_00h52.20.745,eb_03,2023.2.3,119.99463949550687,2010-05-15 00h52.29.367935 -0400,
,,,,0,0,0,0,70,0,70,0,135.19240059066215,,,,,,,,,,,,,,,,,,,,,,,,,,,,,,,,,,,,,,,,,,,,,,,,,,,,,,,,,,,,,,,,,,,,,,,,,,,,,,,,,,,,,,,,,,,,,,,,,,,,,,,,,,135.17897063904093,6.0,"('k', 'l')",135.17954384104814,135.17955983881257,135.19240059066215,135.19240059066215,135.19240059066215,135.19240059066215,135.19240059066215,135.19240059066215,135.19240059066215,135.19240059066215,136.8685812842159,"['h', 'k', 'l']","[0.18006361668813042, 1.6440859072608873, 1.6450780689774547]","[None, None, None]",,,,,,,,,,,,,,,,,,,,,3000,2010-05-15_00h52.20.745,eb_03,2023.2.3,119.99463949550687,2010-05-15 00h52.29.367935 -0400,
,,,,0,0,0,0,71,0,71,0,136.88416096987203,,,,,,,,,,,,,,,,,,,,,,,,,,,,,,,,,,,,,,,,,,,,,,,,,,,,,,,,,,,,,,,,,,,,,,,,,,,,,,,,,,,,,,,,,,,,,,,,,,,,,,,,,,136.87082760836347,0.0,"('j', 'space')",136.87139507537358,136.87141077124397,136.88416096987203,136.88416096987203,136.88416096987203,136.88416096987203,136.88416096987203,136.88416096987203,136.88416096987203,136.88416096987203,139.2848358330084,"['j', 'space']","[2.3282938440679573, 2.3292712154216133]","[None, None]",,,,,,,,,,,,,,,,,,,,,3000,2010-05-15_00h52.20.745,eb_03,2023.2.3,119.99463949550687,2010-05-15 00h52.29.367935 -0400,
,,,,0,0,0,0,72,0,72,0,139.3009881170001,,,,,,,,,,,,,,,,,,,,,,,,,,,,,,,,,,,,,,,,,,,,,,,,,,,,,,,,,,,,,,,,,,,,,,,,,,,,,,,,,,,,,,,,,,,,,,,,,,,,,,,,,,139.28709785305546,14.0,"('j',)",139.28772387781646,139.28773927188013,139.3009881170001,139.3009881170001,139.3009881170001,139.3009881170001,139.3009881170001,139.3009881170001,139.3009881170001,139.3009881170001,139.89321689796634,['j'],[0.5195018484955654],[None],,,,,,,,,,,,,,,,,,,,,3000,2010-05-15_00h52.20.745,eb_03,2023.2.3,119.99463949550687,2010-05-15 00h52.29.367935 -0400,
,,,,0,0,0,0,73,0,73,0,139.9094117420027,,,,,,,,,,,,,,,,,,,,,,,,,,,,,,,,,,,,,,,,,,,,,,,,,,,,,,,,,,,,,,,,,,,,,,,,,,,,,,,,,,,,,,,,,,,,,,,,,,,,,,,,,,139.8954644294863,10.0,"('h', 'space')",139.89595100225415,139.8959673018253,139.9094117420027,139.9094117420027,139.9094117420027,139.9094117420027,139.9094117420027,139.9094117420027,139.9094117420027,139.9094117420027,141.40169117238838,"['h', 'space']","[1.4310790203744546, 1.455078044818947]","[None, None]",,,,,,,,,,,,,,,,,,,,,3000,2010-05-15_00h52.20.745,eb_03,2023.2.3,119.99463949550687,2010-05-15 00h52.29.367935 -0400,
,,,,0,0,0,0,74,0,74,0,141.41782836418133,,,,,,,,,,,,,,,,,,,,,,,,,,,,,,,,,,,,,,,,,,,,,,,,,,,,,,,,,,,,,,,,,,,,,,,,,,,,,,,,,,,,,,,,,,,,,,,,,,,,,,,,,,141.40393327071797,4.0,"('k',)",141.40447809940088,141.40449258792796,141.41782836418133,141.41782836418133,141.41782836418133,141.41782836418133,141.41782836418133,141.41782836418133,141.41782836418133,141.41782836418133,142.660097531887,['k'],[1.170628874155227],[None],,,,,,,,,,,,,,,,,,,,,3000,2010-05-15_00h52.20.745,eb_03,2023.2.3,119.99463949550687,2010-05-15 00h52.29.367935 -0400,
,,,,0,0,0,0,75,0,75,0,142.67629690357717,,,,,,,,,,,,,,,,,,,,,,,,,,,,,,,,,,,,,,,,,,,,,,,,,,,,,,,,,,,,,,,,,,,,,,,,,,,,,,,,,,,,,,,,,,,,,,,,,,,,,,,,,,142.66234687448014,2.0,"('h',)",142.66291735990671,142.66293275397038,142.67629690357717,142.67629690357717,142.67629690357717,142.67629690357717,142.67629690357717,142.67629690357717,142.67629690357717,142.67629690357717,143.78514522325713,['h'],[1.0472253278712742],[None],,,,,,,,,,,,,,,,,,,,,3000,2010-05-15_00h52.20.745,eb_03,2023.2.3,119.99463949550687,2010-05-15 00h52.29.367935 -0400,
,,,,0,0,0,0,76,0,76,0,143.80135183921084,,,,,,,,,,,,,,,,,,,,,,,,,,,,,,,,,,,,,,,,,,,,,,,,,,,,,,,,,,,,,,,,,,,,,,,,,,,,,,,,,,,,,,,,,,,,,,,,,,,,,,,,,,143.78739969720482,6.0,"('k', 'l')",143.78791403962532,143.7879297355248,143.80135183921084,143.80135183921084,143.80135183921084,143.80135183921084,143.80135183921084,143.80135183921084,143.80135183921084,143.80135183921084,144.9102360783436,"['k', 'l']","[1.0341663426952437, 1.0821746542642359]","[None, None]",,,,,,,,,,,,,,,,,,,,,3000,2010-05-15_00h52.20.745,eb_03,2023.2.3,119.99463949550687,2010-05-15 00h52.29.367935 -0400,
,,,,0,0,0,0,77,0,77,0,144.92641100066248,,,,,,,,,,,,,,,,,,,,,,,,,,,,,,,,,,,,,,,,,,,,,,,,,,,,,,,,,,,,,,,,,,,,,,,,,,,,,,,,,,,,,,,,,,,,,,,,,,,,,,,,,,144.91243712586584,7.0,"('j', 'l')",144.91306315062684,144.91307794098975,144.92641100066248,144.92641100066248,144.92641100066248,144.92641100066248,144.92641100066248,144.92641100066248,144.92641100066248,144.92641100066248,145.9687057043775,"['j', 'l']","[0.9810882568126544, 1.0210823044471908]","[None, None]",,,,,,,,,,,,,,,,,,,,,3000,2010-05-15_00h52.20.745,eb_03,2023.2.3,119.99463949550687,2010-05-15 00h52.29.367935 -0400,
,,,,0,0,0,0,78,0,78,0,145.98478162180982,,,,,,,,,,,,,,,,,,,,,,,,,,,,,,,,,,,,,,,,,,,,,,,,,,,,,,,,,,,,,,,,,,,,,,,,,,,,,,,,,,,,,,,,,,,,,,,,,,,,,,,,,,145.97094931191532,12.0,"('h', 'k')",145.9715264379338,145.97154153013253,145.98478162180982,145.98478162180982,145.98478162180982,145.98478162180982,145.98478162180982,145.98478162180982,145.98478162180982,145.98478162180982,147.39374512521317,"['h', 'k']","[1.3467093554791063, 1.3787256623036228]","[None, None]",,,,,,,,,,,,,,,,,,,,,3000,2010-05-15_00h52.20.745,eb_03,2023.2.3,119.99463949550687,2010-05-15 00h52.29.367935 -0400,
,,,,0,0,0,0,79,0,79,0,147.40989288155106,,,,,,,,,,,,,,,,,,,,,,,,,,,,,,,,,,,,,,,,,,,,,,,,,,,,,,,,,,,,,,,,,,,,,,,,,,,,,,,,,,,,,,,,,,,,,,,,,,,,,,,,,,147.39597243317985,5.0,"('l', 'space')",147.39656887721503,147.39658396944287,147.40989288155106,147.40989288155106,147.40989288155106,147.40989288155106,147.40989288155106,147.40989288155106,147.40989288155106,147.40989288155106,148.8772242895211,"['space', 'l']","[1.393615634093294, 1.4176101308548823]","[None, None]",,,,,,,,,,,,,,,,,,,,,3000,2010-05-15_00h52.20.745,eb_03,2023.2.3,119.99463949550687,2010-05-15 00h52.29.367935 -0400,
,,,,0,0,0,0,80,0,80,0,148.89336208501481,,,,,,,,,,,,,,,,,,,,,,,,,,,,,,,,,,,,,,,,,,,,,,,,,,,,,,,,,,,,,,,,,,,,,,,,,,,,,,,,,,,,,,,,,,,,,,,,,,,,,,,,,,148.87945340856095,7.0,"('j', 'l')",148.8799559790641,148.8799716749636,148.89336208501481,148.89336208501481,148.89336208501481,148.89336208501481,148.89336208501481,148.89336208501481,148.89336208501481,148.89336208501481,150.15223026604508,"['j', 'l']","[1.1981567585316952, 1.1991474110109266]","[None, None]",,,,,,,,,,,,,,,,,,,,,3000,2010-05-15_00h52.20.745,eb_03,2023.2.3,119.99463949550687,2010-05-15 00h52.29.367935 -0400,
,,,,0,0,0,0,81,0,81,0,150.1684459373064,,,,,,,,,,,,,,,,,,,,,,,,,,,,,,,,,,,,,,,,,,,,,,,,,,,,,,,,,,,,,,,,,,,,,,,,,,,,,,,,,,,,,,,,,,,,,,,,,,,,,,,,,,150.1544240693038,1.0,"('h', 'l')",150.15506397889112,150.15507876925403,150.1684459373064,150.1684459373064,150.1684459373064,150.1684459373064,150.1684459373064,150.1684459373064,150.1684459373064,150.1684459373064,151.60234448386473,"['h', 'l']","[1.371079950069543, 1.3720259296242148]","[None, None]",,,,,,,,,,,,,,,,,,,,,3000,2010-05-15_00h52.20.745,eb_03,2023.2.3,119.99463949550687,2010-05-15 00h52.29.367935 -0400,
,,,,0,0,0,0,82,0,82,0,151.6184988807654,,,,,,,,,,,,,,,,,,,,,,,,,,,,,,,,,,,,,,,,,,,,,,,,,,,,,,,,,,,,,,,,,,,,,,,,,,,,,,,,,,,,,,,,,,,,,,,,,,,,,,,,,,151.6045886951033,13.0,"('space',)",151.60518906312063,151.60520415531937,151.6184988807654,151.6184988807654,151.6184988807654,151.6184988807654,151.6184988807654,151.6184988807654,151.6184988807654,151.6184988807654,152.4440604316187,['space'],[0.7529970105097163],[None],,,,,,,,,,,,,,,,,,,,,3000,2010-05-15_00h52.20.745,eb_03,2023.2.3,119.99463949550687,2010-05-15 00h52.29.367935 -0400,
,,,,0,0,0,0,83,0,83,0,152.46019883078407,,,,,,,,,,,,,,,,,,,,,,,,,,,,,,,,,,,,,,,,,,,,,,,,,,,,,,,,,,,,,,,,,,,,,,,,,,,,,,,,,,,,,,,,,,,,,,,,,,,,,,,,,,152.4462835137674,13.0,"('space',)",152.44681083547766,152.44682683324208,152.46019883078407,152.46019883078407,152.46019883078407,152.46019883078407,152.46019883078407,152.46019883078407,152.46019883078407,152.46019883078407,153.09410021468648,['space'],[0.5593386353284586],[None],,,,,,,,,,,,,,,,,,,,,3000,2010-05-15_00h52.20.745,eb_03,2023.2.3,119.99463949550687,2010-05-15 00h52.29.367935 -0400,
,,,,0,0,0,0,84,0,84,0,153.11030320849386,,,,,,,,,,,,,,,,,,,,,,,,,,,,,,,,,,,,,,,,,,,,,,,,,,,,,,,,,,,,,,,,,,,,,,,,,,,,,,,,,,,,,,,,,,,,,,,,,,,,,,,,,,153.09631605257164,11.0,"('l',)",153.09691943900543,153.09693513490492,153.11030320849386,153.11030320849386,153.11030320849386,153.11030320849386,153.11030320849386,153.11030320849386,153.11030320849386,153.11030320849386,153.94410963222617,['l'],[0.7732223794737365],[None],,,,,,,,,,,,,,,,,,,,,3000,2010-05-15_00h52.20.745,eb_03,2023.2.3,119.99463949550687,2010-05-15 00h52.29.367935 -0400,
,,,,0,0,0,0,85,0,85,0,153.96036424138583,,,,,,,,,,,,,,,,,,,,,,,,,,,,,,,,,,,,,,,,,,,,,,,,,,,,,,,,,,,,,,,,,,,,,,,,,,,,,,,,,,,,,,,,,,,,,,,,,,,,,,,,,,153.9463601821917,14.0,"('j',)",153.9468349830131,153.9468506789126,153.96036424138583,153.96036424138583,153.96036424138583,153.96036424138583,153.96036424138583,153.96036424138583,153.96036424138583,153.96036424138583,154.96920555830002,['j'],[0.9471603709971532],[None],,,,,,,,,,,,,,,,,,,,,3000,2010-05-15_00h52.20.745,eb_03,2023.2.3,119.99463949550687,2010-05-15 00h52.29.367935 -0400,
,,,,0,0,0,0,86,0,86,0,154.9854323977779,,,,,,,,,,,,,,,,,,,,,,,,,,,,,,,,,,,,,,,,,,,,,,,,,,,,,,,,,,,,,,,,,,,,,,,,,,,,,,,,,,,,,,,,,,,,,,,,,,,,,,,,,,154.97145610823645,11.0,"('l',)",154.97194871789543,154.97196471563075,154.9854323977779,154.9854323977779,154.9854323977779,154.9854323977779,154.9854323977779,154.9854323977779,154.9854323977779,154.9854323977779,155.5942686437047,['l'],[0.5460599076177459],[None],,,,,,,,,,,,,,,,,,,,,3000,2010-05-15_00h52.20.745,eb_03,2023.2.3,119.99463949550687,2010-05-15 00h52.29.367935 -0400,
,,,,0,0,0,0,87,0,87,0,155.61047525965841,,,,,,,,,,,,,,,,,,,,,,,,,,,,,,,,,,,,,,,,,,,,,,,,,,,,,,,,,,,,,,,,,,,,,,,,,,,,,,,,,,,,,,,,,,,,,,,,,,,,,,,,,,155.59652704163454,4.0,"('k',)",155.59706402235315,155.5970803219534,155.61047525965841,155.61047525965841,155.61047525965841,155.61047525965841,155.61047525965841,155.61047525965841,155.61047525965841,155.61047525965841,156.3860825097072,['k'],[0.7130409952660557],[None],,,,,,,,,,,,,,,,,,,,,3000,2010-05-15_00h52.20.745,eb_03,2023.2.3,119.99463949550687,2010-05-15 00h52.29.367935 -0400,
,,,,0,0,0,0,88,0,88,0,156.40219042261015,,,,,,,,,,,,,,,,,,,,,,,,,,,,,,,,,,,,,,,,,,,,,,,,,,,,,,,,,,,,,,,,,,,,,,,,,,,,,,,,,,,,,,,,,,,,,,,,,,,,,,,,,,156.38829261256615,0.0,"('j', 'space')",156.3890556745464,156.38907076677424,156.40219042261015,156.40219042261015,156.40219042261015,156.40219042261015,156.40219042261015,156.40219042261015,156.40219042261015,156.40219042261015,158.00284850323806,"['j', 'space']","[1.5373299712082371, 1.5764175808581058]","[None, None]",,,,,,,,,,,,,,,,,,,,,3000,2010-05-15_00h52.20.745,eb_03,2023.2.3,119.99463949550687,2010-05-15 00h52.29.367935 -0400,
,,,,0,0,0,0,89,0,89,0,158.01891717637773,,,,,,,,,,,,,,,,,,,,,,,,,,,,,,,,,,,,,,,,,,,,,,,,,,,,,,,,,,,,,,,,,,,,,,,,,,,,,,,,,,,,,,,,,,,,,,,,,,,,,,,,,,158.00509029970272,7.0,"('j', 'l')",158.00569096955587,158.0057060617546,158.01891717637773,158.01891717637773,158.01891717637773,158.01891717637773,158.01891717637773,158.01891717637773,158.01891717637773,158.01891717637773,159.13630979834124,"['l', 'j']","[1.0565809871768579, 1.112577302264981]","[None, None]",,,,,,,,,,,,,,,,,,,,,3000,2010-05-15_00h52.20.745,eb_03,2023.2.3,119.99463949550687,2010-05-15 00h52.29.367935 -0400,
,,,,0,0,0,0,90,0,90,0,159.1606728468323,,,,,,,,,,,,,,,,,,,,,,,,,,,,,,,,,,,,,,,,,,,,,,,,,,,,,,,,,,,,,,,,,,,,,,,,,,,,,,,,,,,,,,,,,,,,,,,,,,,,,,,,,,159.13852382518235,12.0,"('h', 'k')",159.13904601553804,159.13906080590095,159.1606728468323,159.1606728468323,159.1606728468323,159.1606728468323,159.1606728468323,159.1606728468323,159.1606728468323,159.1606728468323,163.6281186537235,"['h', 'k']","[4.393897556496086, 4.394875531550497]","[None, None]",,,,,,,,,,,,,,,,,,,,,3000,2010-05-15_00h52.20.745,eb_03,2023.2.3,119.99463949550687,2010-05-15 00h52.29.367935 -0400,
,,,,0,0,0,0,91,0,91,0,163.64434277664986,,,,,,,,,,,,,,,,,,,,,,,,,,,,,,,,,,,,,,,,,,,,,,,,,,,,,,,,,,,,,,,,,,,,,,,,,,,,,,,,,,,,,,,,,,,,,,,,,,,,,,,,,,163.63032181415474,14.0,"('j',)",163.63090165678295,163.6309167489817,163.64434277664986,163.64434277664986,163.64434277664986,163.64434277664986,163.64434277664986,163.64434277664986,163.64434277664986,163.64434277664986,164.63649724356947,['j'],[0.9182183468074072],[None],,,,,,,,,,,,,,,,,,,,,3000,2010-05-15_00h52.20.745,eb_03,2023.2.3,119.99463949550687,2010-05-15 00h52.29.367935 -0400,
,,,,0,0,0,0,92,0,92,0,164.6526963133947,,,,,,,,,,,,,,,,,,,,,,,,,,,,,,,,,,,,,,,,,,,,,,,,,,,,,,,,,,,,,,,,,,,,,,,,,,,,,,,,,,,,,,,,,,,,,,,,,,,,,,,,,,164.63875926361652,5.0,"('l', 'space')",164.63925549539272,164.6392711912922,164.6526963133947,164.6526963133947,164.6526963133947,164.6526963133947,164.6526963133947,164.6526963133947,164.6526963133947,164.6526963133947,165.55336272492423,"['l', 'space']","[0.837855662975926, 0.8388484283641446]","[None, None]",,,,,,,,,,,,,,,,,,,,,3000,2010-05-15_00h52.20.745,eb_03,2023.2.3,119.99463949550687,2010-05-15 00h52.29.367935 -0400,
,,,,0,0,0,0,93,0,93,0,165.56946943045477,,,,,,,,,,,,,,,,,,,,,,,,,,,,,,,,,,,,,,,,,,,,,,,,,,,,,,,,,,,,,,,,,,,,,,,,,,,,,,,,,,,,,,,,,,,,,,,,,,,,,,,,,,165.55561176565243,3.0,"('h', 'j')",165.55610679005622,165.55612188225496,165.56946943045477,165.56946943045477,165.56946943045477,165.56946943045477,165.56946943045477,165.56946943045477,165.56946943045477,165.56946943045477,167.02888376827468,"['j', 'h']","[1.329080148047069, 1.4570602553139906]","[None, None]",,,,,,,,,,,,,,,,,,,,,3000,2010-05-15_00h52.20.745,eb_03,2023.2.3,119.99463949550687,2010-05-15 00h52.29.367935 -0400,
,,,,0,0,0,0,94,0,94,0,167.05286588944728,,,,,,,,,,,,,,,,,,,,,,,,,,,,,,,,,,,,,,,,,,,,,,,,,,,,,,,,,,,,,,,,,,,,,,,,,,,,,,,,,,,,,,,,,,,,,,,,,,,,,,,,,,167.03108541949769,2.0,"('h',)",167.03163085185224,167.03164473670768,167.05286588944728,167.05286588944728,167.05286588944728,167.05286588944728,167.05286588944728,167.05286588944728,167.05286588944728,167.05286588944728,167.86176171942498,['h'],[0.7496942318684887],[None],,,,,,,,,,,,,,,,,,,,,3000,2010-05-15_00h52.20.745,eb_03,2023.2.3,119.99463949550687,2010-05-15 00h52.29.367935 -0400,
,,,,0,0,0,0,95,0,95,0,167.87792366242502,,,,,,,,,,,,,,,,,,,,,,,,,,,,,,,,,,,,,,,,,,,,,,,,,,,,,,,,,,,,,,,,,,,,,,,,,,,,,,,,,,,,,,,,,,,,,,,,,,,,,,,,,,167.86403068187064,9.0,"('k', 'space')",167.86453566711862,167.86454955194495,167.87792366242502,167.87792366242502,167.87792366242502,167.87792366242502,167.87792366242502,167.87792366242502,167.87792366242502,167.87792366242502,169.65359429974342,"['k', 'space']","[1.7167038740008138, 1.7176145377743524]","[None, None]",,,,,,,,,,,,,,,,,,,,,3000,2010-05-15_00h52.20.745,eb_03,2023.2.3,119.99463949550687,2010-05-15 00h52.29.367935 -0400,
,,,,0,0,0,0,96,0,96,0,169.66969738315674,,,,,,,,,,,,,,,,,,,,,,,,,,,,,,,,,,,,,,,,,,,,,,,,,,,,,,,,,,,,,,,,,,,,,,,,,,,,,,,,,,,,,,,,,,,,,,,,,,,,,,,,,,169.65580228969338,1.0,"('h', 'l')",169.65635255156667,169.656366436393,169.66969738315674,169.66969738315674,169.66969738315674,169.66969738315674,169.66969738315674,169.66969738315674,169.66969738315674,169.66969738315674,173.3287906795449,"['h', 'l']","[3.59686299416353, 3.5978729646885768]","[None, None]",,,,,,,,,,,,,,,,,,,,,3000,2010-05-15_00h52.20.745,eb_03,2023.2.3,119.99463949550687,2010-05-15 00h52.29.367935 -0400,
,,,,0,0,0,0,97,0,97,0,173.34493571927305,,,,,,,,,,,,,,,,,,,,,,,,,,,,,,,,,,,,,,,,,,,,,,,,,,,,,,,,,,,,,,,,,,,,,,,,,,,,,,,,,,,,,,,,,,,,,,,,,,,,,,,,,,173.33103881476563,2.0,"('h',)",173.33157790839323,173.3315933024569,173.34493571927305,173.34493571927305,173.34493571927305,173.34493571927305,173.34493571927305,173.34493571927305,173.34493571927305,173.34493571927305,174.02880196852493,['h'],[0.6096599786251318],[None],,,,,,,,,,,,,,,,,,,,,3000,2010-05-15_00h52.20.745,eb_03,2023.2.3,119.99463949550687,2010-05-15 00h52.29.367935 -0400,
,,,,0,0,0,0,98,0,98,0,174.04498534245067,,,,,,,,,,,,,,,,,,,,,,,,,,,,,,,,,,,,,,,,,,,,,,,,,,,,,,,,,,,,,,,,,,,,,,,,,,,,,,,,,,,,,,,,,,,,,,,,,,,,,,,,,,174.03105704614427,6.0,"('k', 'l')",174.03162209838047,174.03163809611578,174.04498534245067,174.04498534245067,174.04498534245067,174.04498534245067,174.04498534245067,174.04498534245067,174.04498534245067,174.04498534245067,175.003914918605,"['k', 'l']","[0.8845817405963317, 0.9406354060629383]","[None, None]",,,,,,,,,,,,,,,,,,,,,3000,2010-05-15_00h52.20.745,eb_03,2023.2.3,119.99463949550687,2010-05-15 00h52.29.367935 -0400,
,,,,0,0,0,0,99,0,99,0,175.0200300757715,,,,,,,,,,,,,,,,,,,,,,,,,,,,,,,,,,,,,,,,,,,,,,,,,,,,,,,,,,,,,,,,,,,,,,,,,,,,,,,,,,,,,,,,,,,,,,,,,,,,,,,,,,175.00614222657168,8.0,"('j', 'k')",175.00665988927358,175.00667528330814,175.0200300757715,175.0200300757715,175.0200300757715,175.0200300757715,175.0200300757715,175.0200300757715,175.0200300757715,175.0200300757715,176.21234464083682,"['j', 'k']","[1.117560749175027, 1.1415643012733199]","[None, None]",,,,,,,,,,,,,,,,,,,,,3000,2010-05-15_00h52.20.745,eb_03,2023.2.3,119.99463949550687,2010-05-15 00h52.29.367935 -0400,
,,,,0,0,0,0,100,0,100,0,176.22849209530978,,,,,,,,,,,,,,,,,,,,,,,,,,,,,,,,,,,,,,,,,,,,,,,,,,,,,,,,,,,,,,,,,,,,,,,,,,,,,,,,,,,,,,,,,,,,,,,,,,,,,,,,,,176.2146193383087,2.0,"('h',)",176.21518469240982,176.21520008644438,176.22849209530978,176.22849209530978,176.22849209530978,176.22849209530978,176.22849209530978,176.22849209530978,176.22849209530978,176.22849209530978,176.99572135921335,['h'],[0.693125922116451],[None],,,,,,,,,,,,,,,,,,,,,3000,2010-05-15_00h52.20.745,eb_03,2023.2.3,119.99463949550687,2010-05-15 00h52.29.367935 -0400,
,,,,0,0,0,0,101,0,101,0,177.0118304795178,,,,,,,,,,,,,,,,,,,,,,,,,,,,,,,,,,,,,,,,,,,,,,,,,,,,,,,,,,,,,,,,,,,,,,,,,,,,,,,,,,,,,,,,,,,,,,,,,,,,,,,,,,176.9979145588004,11.0,"('l',)",176.99856805137824,176.9985834454419,177.0118304795178,177.0118304795178,177.0118304795178,177.0118304795178,177.0118304795178,177.0118304795178,177.0118304795178,177.0118304795178,177.7374070622027,['l'],[0.6537352609448135],[None],,,,,,,,,,,,,,,,,,,,,3000,2010-05-15_00h52.20.745,eb_03,2023.2.3,119.99463949550687,2010-05-15 00h52.29.367935 -0400,
,,,,0,0,0,0,102,0,102,0,177.75354546136805,,,,,,,,,,,,,,,,,,,,,,,,,,,,,,,,,,,,,,,,,,,,,,,,,,,,,,,,,,,,,,,,,,,,,,,,,,,,,,,,,,,,,,,,,,,,,,,,,,,,,,,,,,177.73961143000633,11.0,"('l',)",177.74015565498848,177.74017135088798,177.75354546136805,177.75354546136805,177.75354546136805,177.75354546136805,177.75354546136805,177.75354546136805,177.75354546136805,177.75354546136805,178.38733969058376,['l'],[0.5600280473590828],[None],,,,,,,,,,,,,,,,,,,,,3000,2010-05-15_00h52.20.745,eb_03,2023.2.3,119.99463949550687,2010-05-15 00h52.29.367935 -0400,
,,,,0,0,0,0,103,0,103,0,178.40363897266798,,,,,,,,,,,,,,,,,,,,,,,,,,,,,,,,,,,,,,,,,,,,,,,,,,,,,,,,,,,,,,,,,,,,,,,,,,,,,,,,,,,,,,,,,,,,,,,,,,,,,,,,,,178.3895633764041,8.0,"('j', 'k')",178.39012329731486,178.3901371821412,178.40363897266798,178.40363897266798,178.40363897266798,178.40363897266798,178.40363897266798,178.40363897266798,178.40363897266798,178.40363897266798,179.52915301325265,"['k', 'j']","[1.0539597726310603, 1.0699578142666724]","[None, None]",,,,,,,,,,,,,,,,,,,,,3000,2010-05-15_00h52.20.745,eb_03,2023.2.3,119.99463949550687,2010-05-15 00h52.29.367935 -0400,
,,,,0,0,0,0,104,0,104,0,179.54536174211535,,,,,,,,,,,,,,,,,,,,,,,,,,,,,,,,,,,,,,,,,,,,,,,,,,,,,,,,,,,,,,,,,,,,,,,,,,,,,,,,,,,,,,,,,,,,,,,,,,,,,,,,,,179.53136824746616,14.0,"('j',)",179.5321086711483,179.5321222541388,179.54536174211535,179.54536174211535,179.54536174211535,179.54536174211535,179.54536174211535,179.54536174211535,179.54536174211535,179.54536174211535,180.07090620859526,['j'],[0.4642365999170579],[None],,,,,,,,,,,,,,,,,,,,,3000,2010-05-15_00h52.20.745,eb_03,2023.2.3,119.99463949550687,2010-05-15 00h52.29.367935 -0400,
,,,,0,0,0,0,105,0,105,0,180.08702136573265,,,,,,,,,,,,,,,,,,,,,,,,,,,,,,,,,,,,,,,,,,,,,,,,,,,,,,,,,,,,,,,,,,,,,,,,,,,,,,,,,,,,,,,,,,,,,,,,,,,,,,,,,,180.07313562944182,1.0,"('h', 'l')",180.0737184904865,180.07373358271434,180.08702136573265,180.08702136573265,180.08702136573265,180.08702136573265,180.08702136573265,180.08702136573265,180.08702136573265,180.08702136573265,181.19649571020273,"['h', 'h', 'l']","[0.8745822476921603, 1.0665693118644413, 1.0675868284888566]","[None, None, None]",,,,,,,,,,,,,,,,,,,,,3000,2010-05-15_00h52.20.745,eb_03,2023.2.3,119.99463949550687,2010-05-15 00h52.29.367935 -0400,
,,,,0,0,0,0,106,0,106,0,181.21212429460138,,,,,,,,,,,,,,,,,,,,,,,,,,,,,,,,,,,,,,,,,,,,,,,,,,,,,,,,,,,,,,,,,,,,,,,,,,,,,,,,,,,,,,,,,,,,,,,,,,,,,,,,,,181.19874052511295,2.0,"('h',)",181.19925215095282,181.1992678468523,181.21212429460138,181.21212429460138,181.21212429460138,181.21212429460138,181.21212429460138,181.21212429460138,181.21212429460138,181.21212429460138,181.8542774937814,['h'],[0.5814629057713319],[None],,,,,,,,,,,,,,,,,,,,,3000,2010-05-15_00h52.20.745,eb_03,2023.2.3,119.99463949550687,2010-05-15 00h52.29.367935 -0400,
,,,,0,0,0,0,107,0,107,0,181.87053995090537,,,,,,,,,,,,,,,,,,,,,,,,,,,,,,,,,,,,,,,,,,,,,,,,,,,,,,,,,,,,,,,,,,,,,,,,,,,,,,,,,,,,,,,,,,,,,,,,,,,,,,,,,,181.85652351609315,6.0,"('k', 'l')",181.85699650587048,181.8570112962334,181.87053995090537,181.87053995090537,181.87053995090537,181.87053995090537,181.87053995090537,181.87053995090537,181.87053995090537,181.87053995090537,182.80442129232688,"['l', 'k']","[0.8590656474989373, 0.8990630154148676]","[None, None]",,,,,,,,,,,,,,,,,,,,,3000,2010-05-15_00h52.20.745,eb_03,2023.2.3,119.99463949550687,2010-05-15 00h52.29.367935 -0400,
,,,,0,0,0,0,108,0,108,0,182.82061643819907,,,,,,,,,,,,,,,,,,,,,,,,,,,,,,,,,,,,,,,,,,,,,,,,,,,,,,,,,,,,,,,,,,,,,,,,,,,,,,,,,,,,,,,,,,,,,,,,,,,,,,,,,,182.80664769475698,14.0,"('j',)",182.80715841506026,182.807173507259,182.82061643819907,182.82061643819907,182.82061643819907,182.82061643819907,182.82061643819907,182.82061643819907,182.82061643819907,182.82061643819907,183.6961808867636,['j'],[0.8129894402809441],[None],,,,,,,,,,,,,,,,,,,,,3000,2010-05-15_00h52.20.745,eb_03,2023.2.3,119.99463949550687,2010-05-15 00h52.29.367935 -0400,
,,,,0,0,0,0,109,0,109,0,183.71235279060784,,,,,,,,,,,,,,,,,,,,,,,,,,,,,,,,,,,,,,,,,,,,,,,,,,,,,,,,,,,,,,,,,,,,,,,,,,,,,,,,,,,,,,,,,,,,,,,,,,,,,,,,,,183.69840759102954,6.0,"('k', 'l')",183.69891408551484,183.69892978141434,183.71235279060784,183.71235279060784,183.71235279060784,183.71235279060784,183.71235279060784,183.71235279060784,183.71235279060784,183.71235279060784,184.61331229278585,"['k', 'l']","[0.7532469375000801, 0.8252316352154594]","[None, None]",,,,,,,,,,,,,,,,,,,,,3000,2010-05-15_00h52.20.745,eb_03,2023.2.3,119.99463949550687,2010-05-15 00h52.29.367935 -0400,
,,,,0,0,0,0,110,0,110,0,184.62906644435134,,,,,,,,,,,,,,,,,,,,,,,,,,,,,,,,,,,,,,,,,,,,,,,,,,,,,,,,,,,,,,,,,,,,,,,,,,,,,,,,,,,,,,,,,,,,,,,,,,,,,,,,,,184.61549100384582,12.0,"('h', 'k')",184.61605394317303,184.61606782799936,184.62906644435134,184.62906644435134,184.62906644435134,184.62906644435134,184.62906644435134,184.62906644435134,184.62906644435134,184.62906644435134,186.004609763826,"['h', 'k']","[1.2925458380486816, 1.2935325665748678]","[None, None]",,,,,,,,,,,,,,,,,,,,,3000,2010-05-15_00h52.20.745,eb_03,2023.2.3,119.99463949550687,2010-05-15 00h52.29.367935 -0400,
,,,,0,0,0,0,111,0,111,0,186.02081487054238,,,,,,,,,,,,,,,,,,,,,,,,,,,,,,,,,,,,,,,,,,,,,,,,,,,,,,,,,,,,,,,,,,,,,,,,,,,,,,,,,,,,,,,,,,,,,,,,,,,,,,,,,,186.0068609174632,5.0,"('l', 'space')",186.00739065394737,186.0074057461461,186.02081487054238,186.02081487054238,186.02081487054238,186.02081487054238,186.02081487054238,186.02081487054238,186.02081487054238,186.02081487054238,187.76306019254844,"['l', 'space']","[1.6608092803799082, 1.6617501285800245]","[None, None]",,,,,,,,,,,,,,,,,,,,,3000,2010-05-15_00h52.20.745,eb_03,2023.2.3,119.99463949550687,2010-05-15 00h52.29.367935 -0400,
,,,,0,0,0,0,112,0,112,0,187.77922877614037,,,,,,,,,,,,,,,,,,,,,,,,,,,,,,,,,,,,,,,,,,,,,,,,,,,,,,,,,,,,,,,,,,,,,,,,,,,,,,,,,,,,,,,,,,,,,,,,,,,,,,,,,,187.76530953514157,9.0,"('k', 'space')",187.76590356443194,187.7659189584665,187.77922877614037,187.77922877614037,187.77922877614037,187.77922877614037,187.77922877614037,187.77922877614037,187.77922877614037,187.77922877614037,190.51384981683805,"['h', 'k', 'space', 'k']","[1.0623942036181688, 1.0633893837803043, 2.6863938921305817, 2.7174301110208035]","[None, None, None, None]",,,,,,,,,,,,,,,,,,,,,3000,2010-05-15_00h52.20.745,eb_03,2023.2.3,119.99463949550687,2010-05-15 00h52.29.367935 -0400,
,,,,0,0,0,0,113,0,113,0,190.52941018447746,,,,,,,,,,,,,,,,,,,,,,,,,,,,,,,,,,,,,,,,,,,,,,,,,,,,,,,,,,,,,,,,,,,,,,,,,,,,,,,,,,,,,,,,,,,,,,,,,,,,,,,,,,190.51606746579637,6.0,"('k', 'l')",190.51661169080762,190.51662678300636,190.52941018447746,190.52941018447746,190.52941018447746,190.52941018447746,190.52941018447746,190.52941018447746,190.52941018447746,190.52941018447746,191.82170730293728,"['k', 'l']","[1.2311939022620209, 1.2322041746228933]","[None, None]",,,,,,,,,,,,,,,,,,,,,3000,2010-05-15_00h52.20.745,eb_03,2023.2.3,119.99463949550687,2010-05-15 00h52.29.367935 -0400,
,,,,0,0,0,0,114,0,114,0,191.8378294025315,,,,,,,,,,,,,,,,,,,,,,,,,,,,,,,,,,,,,,,,,,,,,,,,,,,,,,,,,,,,,,,,,,,,,,,,,,,,,,,,,,,,,,,,,,,,,,,,,,,,,,,,,,191.82390955783194,11.0,"('l',)",191.82454101581243,191.82456848362926,191.8378294025315,191.8378294025315,191.8378294025315,191.8378294025315,191.8378294025315,191.8378294025315,191.8378294025315,191.8378294025315,192.57166836503893,['l'],[0.6587736434594262],[None],,,,,,,,,,,,,,,,,,,,,3000,2010-05-15_00h52.20.745,eb_03,2023.2.3,119.99463949550687,2010-05-15 00h52.29.367935 -0400,
,,,,0,0,0,0,115,0,115,0,192.58788162155543,,,,,,,,,,,,,,,,,,,,,,,,,,,,,,,,,,,,,,,,,,,,,,,,,,,,,,,,,,,,,,,,,,,,,,,,,,,,,,,,,,,,,,,,,,,,,,,,,,,,,,,,,,192.573859451717,9.0,"('k', 'space')",192.57433395070257,192.574347835558,192.58788162155543,192.58788162155543,192.58788162155543,192.58788162155543,192.58788162155543,192.58788162155543,192.58788162155543,192.58788162155543,194.1801964281185,"['k', 'space']","[1.5327413364720996, 1.5337712287146132]","[None, None]",,,,,,,,,,,,,,,,,,,,,3000,2010-05-15_00h52.20.745,eb_03,2023.2.3,119.99463949550687,2010-05-15 00h52.29.367935 -0400,
,,,,0,0,0,0,116,0,116,0,194.19638191495324,,,,,,,,,,,,,,,,,,,,,,,,,,,,,,,,,,,,,,,,,,,,,,,,,,,,,,,,,,,,,,,,,,,,,,,,,,,,,,,,,,,,,,,,,,,,,,,,,,,,,,,,,,194.18247957722633,4.0,"('k',)",194.18304281841847,194.18305760878138,194.19638191495324,194.19638191495324,194.19638191495324,194.19638191495324,194.19638191495324,194.19638191495324,194.19638191495324,194.19638191495324,194.7218648052367,['k'],[0.45221837336430326],[None],,,,,,,,,,,,,,,,,,,,,3000,2010-05-15_00h52.20.745,eb_03,2023.2.3,119.99463949550687,2010-05-15 00h52.29.367935 -0400,
,,,,0,0,0,0,117,0,117,0,194.73800743022002,,,,,,,,,,,,,,,,,,,,,,,,,,,,,,,,,,,,,,,,,,,,,,,,,,,,,,,,,,,,,,,,,,,,,,,,,,,,,,,,,,,,,,,,,,,,,,,,,,,,,,,,,,194.7241138459649,6.0,"('k', 'l')",194.72471029000008,194.724725080363,194.73800743022002,194.73800743022002,194.73800743022002,194.73800743022002,194.73800743022002,194.73800743022002,194.73800743022002,194.73800743022002,195.63081170720397,"['l', 'k']","[0.7506236100161914, 0.8626219752186444]","[None, None]",,,,,,,,,,,,,,,,,,,,,3000,2010-05-15_00h52.20.745,eb_03,2023.2.3,119.99463949550687,2010-05-15 00h52.29.367935 -0400,
,,,,0,0,0,0,118,0,118,0,195.6464016555692,,,,,,,,,,,,,,,,,,,,,,,,,,,,,,,,,,,,,,,,,,,,,,,,,,,,,,,,,,,,,,,,,,,,,,,,,,,,,,,,,,,,,,,,,,,,,,,,,,,,,,,,,,195.63301003814558,6.0,"('k', 'l')",195.63352709717583,195.63354188753874,195.6464016555692,195.6464016555692,195.6464016555692,195.6464016555692,195.6464016555692,195.6464016555692,195.6464016555692,195.6464016555692,196.21368724358035,"['l', 'k']","[0.5062231207848527, 0.5302299931645393]","[None, None]",,,,,,,,,,,,,,,,,,,,,3000,2010-05-15_00h52.20.745,eb_03,2023.2.3,119.99463949550687,2010-05-15 00h52.29.367935 -0400,
,,,,0,0,0,0,119,0,119,0,196.22979576018406,,,,,,,,,,,,,,,,,,,,,,,,,,,,,,,,,,,,,,,,,,,,,,,,,,,,,,,,,,,,,,,,,,,,,,,,,,,,,,,,,,,,,,,,,,,,,,,,,,,,,,,,,,196.21587319890386,12.0,"('h', 'k')",196.2164578710217,196.2164723595488,196.22979576018406,196.22979576018406,196.22979576018406,196.22979576018406,196.22979576018406,196.22979576018406,196.22979576018406,196.22979576018406,197.77209106759983,"['h', 'k']","[1.482886946061626, 1.483814513136167]","[None, None]",,,,,,,,,,,,,,,,,,,,,3000,2010-05-15_00h52.20.745,eb_03,2023.2.3,119.99463949550687,2010-05-15 00h52.29.367935 -0400,
,,,,0,0,0,0,120,0,120,0,197.78822584461886,,,,,,,,,,,,,,,,,,,,,,,,,,,,,,,,,,,,,,,,,,,,,,,,,,,,,,,,,,,,,,,,,,,,,,,,,,,,,,,,,,,,,,,,,,,,,,,,,,,,,,,,,,197.77432561983005,0.0,"('j', 'space')",197.77483694380498,197.7748517341679,197.78822584461886,197.78822584461886,197.78822584461886,197.78822584461886,197.78822584461886,197.78822584461886,197.78822584461886,197.78822584461886,199.91391133269644,"['j', 'space']","[2.0443846725975163, 2.045372608496109]","[None, None]",,,,,,,,,,,,,,,,,,,,,3000,2010-05-15_00h52.20.745,eb_03,2023.2.3,119.99463949550687,2010-05-15 00h52.29.367935 -0400,
,,,,0,0,0,0,121,0,121,0,199.93002196218004,,,,,,,,,,,,,,,,,,,,,,,,,,,,,,,,,,,,,,,,,,,,,,,,,,,,,,,,,,,,,,,,,,,,,,,,,,,,,,,,,,,,,,,,,,,,,,,,,,,,,,,,,,199.91611871894565,1.0,"('h', 'l')",199.91666234025615,199.9166753195459,199.93002196218004,199.93002196218004,199.93002196218004,199.93002196218004,199.93002196218004,199.93002196218004,199.93002196218004,199.93002196218004,203.14741826665704,"['h', 'l']","[3.158652905782219, 3.1596269568544813]","[None, None]",,,,,,,,,,,,,,,,,,,,,3000,2010-05-15_00h52.20.745,eb_03,2023.2.3,119.99463949550687,2010-05-15 00h52.29.367935 -0400,
,,,,0,0,0,0,122,0,122,0,203.1636230715376,,,,,,,,,,,,,,,,,,,,,,,,,,,,,,,,,,,,,,,,,,,,,,,,,,,,,,,,,,,,,,,,,,,,,,,,,,,,,,,,,,,,,,,,,,,,,,,,,,,,,,,,,,203.14968753093854,11.0,"('l',)",203.15025711085764,203.15027159938472,203.1636230715376,203.1636230715376,203.1636230715376,203.1636230715376,203.1636230715376,203.1636230715376,203.1636230715376,203.1636230715376,203.880836760276,['l'],[0.6450237370445393],[None],,,,,,,,,,,,,,,,,,,,,3000,2010-05-15_00h52.20.745,eb_03,2023.2.3,119.99463949550687,2010-05-15 00h52.29.367935 -0400,
,,,,0,0,0,0,123,0,123,0,203.89699659036705,,,,,,,,,,,,,,,,,,,,,,,,,,,,,,,,,,,,,,,,,,,,,,,,,,,,,,,,,,,,,,,,,,,,,,,,,,,,,,,,,,,,,,,,,,,,,,,,,,,,,,,,,,203.88307161434204,14.0,"('j',)",203.8835606018547,203.88357569408254,203.89699659036705,203.89699659036705,203.89699659036705,203.89699659036705,203.89699659036705,203.89699659036705,203.89699659036705,203.89699659036705,205.37254147944623,['j'],[1.4147308395185973],[None],,,,,,,,,,,,,,,,,,,,,3000,2010-05-15_00h52.20.745,eb_03,2023.2.3,119.99463949550687,2010-05-15 00h52.29.367935 -0400,
,,,,0,0,0,0,124,0,124,0,205.38880272916867,,,,,,,,,,,,,,,,,,,,,,,,,,,,,,,,,,,,,,,,,,,,,,,,,,,,,,,,,,,,,,,,,,,,,,,,,,,,,,,,,,,,,,,,,,,,,,,,,,,,,,,,,,205.37480772528215,4.0,"('k',)",205.37528252613265,205.37530546629569,205.38880272916867,205.38880272916867,205.38880272916867,205.38880272916867,205.38880272916867,205.38880272916867,205.38880272916867,205.38880272916867,206.51431465684436,['k'],[1.0668871537782252],[None],,,,,,,,,,,,,,,,,,,,,3000,2010-05-15_00h52.20.745,eb_03,2023.2.3,119.99463949550687,2010-05-15 00h52.29.367935 -0400,
,,,,0,0,0,0,125,0,125,0,206.53052821519668,,,,,,,,,,,,,,,,,,,,,,,,,,,,,,,,,,,,,,,,,,,,,,,,,,,,,,,,,,,,,,,,,,,,,,,,,,,,,,,,,,,,,,,,,,,,,,,,,,,,,,,,,,206.51657003629953,2.0,"('h',)",206.51707592708408,206.51709101931192,206.53052821519668,206.53052821519668,206.53052821519668,206.53052821519668,206.53052821519668,206.53052821519668,206.53052821519668,206.53052821519668,209.7145257666416,['h'],[3.125184426753549],[None],,,,,,,,,,,,,,,,,,,,,3000,2010-05-15_00h52.20.745,eb_03,2023.2.3,119.99463949550687,2010-05-15 00h52.29.367935 -0400,
,,,,0,0,0,0,126,0,126,0,209.73069012438646,,,,,,,,,,,,,,,,,,,,,,,,,,,,,,,,,,,,,,,,,,,,,,,,,,,,,,,,,,,,,,,,,,,,,,,,,,,,,,,,,,,,,,,,,,,,,,,,,,,,,,,,,,209.71679593645968,2.0,"('h',)",209.71738091041334,209.71739600264118,209.73069012438646,209.73069012438646,209.73069012438646,209.73069012438646,209.73069012438646,209.73069012438646,209.73069012438646,209.73069012438646,210.29789059236646,['h'],[0.4929694461170584],[None],,,,,,,,,,,,,,,,,,,,,3000,2010-05-15_00h52.20.745,eb_03,2023.2.3,119.99463949550687,2010-05-15 00h52.29.367935 -0400,
,,,,0,0,0,0,127,0,127,0,210.3140458948037,,,,,,,,,,,,,,,,,,,,,,,,,,,,,,,,,,,,,,,,,,,,,,,,,,,,,,,,,,,,,,,,,,,,,,,,,,,,,,,,,,,,,,,,,,,,,,,,,,,,,,,,,,210.30011548558832,6.0,"('k', 'l')",210.30063948701718,210.3006533718435,210.3140458948037,210.3140458948037,210.3140458948037,210.3140458948037,210.3140458948037,210.3140458948037,210.3140458948037,210.3140458948037,211.38967294583563,"['k', 'l']","[1.0136013991141226, 1.037591066386085]","[None, None]",,,,,,,,,,,,,,,,,,,,,3000,2010-05-15_00h52.20.745,eb_03,2023.2.3,119.99463949550687,2010-05-15 00h52.29.367935 -0400,
,,,,0,0,0,0,128,0,128,0,211.40581557081896,,,,,,,,,,,,,,,,,,,,,,,,,,,,,,,,,,,,,,,,,,,,,,,,,,,,,,,,,,,,,,,,,,,,,,,,,,,,,,,,,,,,,,,,,,,,,,,,,,,,,,,,,,211.39189663168509,5.0,"('l', 'space')",211.39248311484698,211.39249760337407,211.40581557081896,211.40581557081896,211.40581557081896,211.40581557081896,211.40581557081896,211.40581557081896,211.40581557081896,211.40581557081896,212.76474176629563,"['space', 'l']","[1.2978948181844316, 1.321852791821584]","[None, None]",,,,,,,,,,,,,,,,,,,,,3000,2010-05-15_00h52.20.745,eb_03,2023.2.3,119.99463949550687,2010-05-15 00h52.29.367935 -0400,
,,,,0,0,0,0,129,0,129,0,212.78090914251516,,,,,,,,,,,,,,,,,,,,,,,,,,,,,,,,,,,,,,,,,,,,,,,,,,,,,,,,,,,,,,,,,,,,,,,,,,,,,,,,,,,,,,,,,,,,,,,,,,,,,,,,,,212.7669859775342,0.0,"('j', 'space')",212.76752416565432,212.76753925785306,212.78090914251516,212.78090914251516,212.78090914251516,212.78090914251516,212.78090914251516,212.78090914251516,212.78090914251516,212.78090914251516,215.9732870948501,"['j', 'space']","[3.130786352296127, 3.1317468203778844]","[None, None]",,,,,,,,,,,,,,,,,,,,,3000,2010-05-15_00h52.20.745,eb_03,2023.2.3,119.99463949550687,2010-05-15 00h52.29.367935 -0400,
,,,,0,0,0,0,130,0,130,0,215.9894982384576,,,,,,,,,,,,,,,,,,,,,,,,,,,,,,,,,,,,,,,,,,,,,,,,,,,,,,,,,,,,,,,,,,,,,,,,,,,,,,,,,,,,,,,,,,,,,,,,,,,,,,,,,,215.97554368167766,5.0,"('l', 'space')",215.9760335747269,215.97604685588158,215.9894982384576,215.9894982384576,215.9894982384576,215.9894982384576,215.9894982384576,215.9894982384576,215.9894982384576,215.9894982384576,217.51514503007638,"['l', 'space']","[1.4421968458627816, 1.4431467493996024]","[None, None]",,,,,,,,,,,,,,,,,,,,,3000,2010-05-15_00h52.20.745,eb_03,2023.2.3,119.99463949550687,2010-05-15 00h52.29.367935 -0400,
,,,,0,0,0,0,131,0,131,0,217.53120676084654,,,,,,,,,,,,,,,,,,,,,,,,,,,,,,,,,,,,,,,,,,,,,,,,,,,,,,,,,,,,,,,,,,,,,,,,,,,,,,,,,,,,,,,,,,,,,,,,,,,,,,,,,,217.5173898450157,7.0,"('j', 'l')",217.5179210907081,217.51793376816204,217.53120676084654,217.53120676084654,217.53120676084654,217.53120676084654,217.53120676084654,217.53120676084654,217.53120676084654,217.53120676084654,218.79848281058366,"['j', 'l']","[1.2044734510127455, 1.2054828178370371]","[None, None]",,,,,,,,,,,,,,,,,,,,,3000,2010-05-15_00h52.20.745,eb_03,2023.2.3,119.99463949550687,2010-05-15 00h52.29.367935 -0400,
,,,,0,0,0,0,132,0,132,0,218.81469184128218,,,,,,,,,,,,,,,,,,,,,,,,,,,,,,,,,,,,,,,,,,,,,,,,,,,,,,,,,,,,,,,,,,,,,,,,,,,,,,,,,,,,,,,,,,,,,,,,,,,,,,,,,,218.80074754721136,12.0,"('h', 'k')",218.801255550934,218.80126853022375,218.81469184128218,218.81469184128218,218.81469184128218,218.81469184128218,218.81469184128218,218.81469184128218,218.81469184128218,218.81469184128218,219.71519706802792,"['k', 'h']","[0.8409839757077862, 0.8570031464332715]","[None, None]",,,,,,,,,,,,,,,,,,,,,3000,2010-05-15_00h52.20.745,eb_03,2023.2.3,119.99463949550687,2010-05-15 00h52.29.367935 -0400,
,,,,0,0,0,0,133,0,133,0,219.731352672301,,,,,,,,,,,,,,,,,,,,,,,,,,,,,,,,,,,,,,,,,,,,,,,,,,,,,,,,,,,,,,,,,,,,,,,,,,,,,,,,,,,,,,,,,,,,,,,,,,,,,,,,,,219.71744399584713,11.0,"('l',)",219.71792332435143,219.71793600180536,219.731352672301,219.731352672301,219.731352672301,219.731352672301,219.731352672301,219.731352672301,219.731352672301,219.731352672301,220.50686635065358,['l'],[0.700351467326982],[None],,,,,,,,,,,,,,,,,,,,,3000,2010-05-15_00h52.20.745,eb_03,2023.2.3,119.99463949550687,2010-05-15 00h52.29.367935 -0400,
,,,,0,0,0,0,134,0,134,0,220.52310888606007,,,,,,,,,,,,,,,,,,,,,,,,,,,,,,,,,,,,,,,,,,,,,,,,,,,,,,,,,,,,,,,,,,,,,,,,,,,,,,,,,,,,,,,,,,,,,,,,,,,,,,,,,,220.5090625686862,12.0,"('h', 'k')",220.5095452174719,220.50955759309,220.52310888606007,220.52310888606007,220.52310888606007,220.52310888606007,220.52310888606007,220.52310888606007,220.52310888606007,220.52310888606007,221.91535716614453,"['k', 'h']","[1.3316114130720962, 1.3715870482265018]","[None, None]",,,,,,,,,,,,,,,,,,,,,3000,2010-05-15_00h52.20.745,eb_03,2023.2.3,119.99463949550687,2010-05-15 00h52.29.367935 -0400,
,,,,0,0,0,0,135,0,135,0,221.93153118292685,,,,,,,,,,,,,,,,,,,,,,,,,,,,,,,,,,,,,,,,,,,,,,,,,,,,,,,,,,,,,,,,,,,,,,,,,,,,,,,,,,,,,,,,,,,,,,,,,,,,,,,,,,221.91760409399285,7.0,"('j', 'l')",221.91805535097956,221.9180683302693,221.93153118292685,221.93153118292685,221.93153118292685,221.93153118292685,221.93153118292685,221.93153118292685,221.93153118292685,221.93153118292685,222.7737904501555,"['l', 'j']","[0.7791581445781048, 0.795175806095358]","[None, None]",,,,,,,,,,,,,,,,,,,,,3000,2010-05-15_00h52.20.745,eb_03,2023.2.3,119.99463949550687,2010-05-15 00h52.29.367935 -0400,
,,,,0,0,0,0,136,0,136,0,222.7898739136872,,,,,,,,,,,,,,,,,,,,,,,,,,,,,,,,,,,,,,,,,,,,,,,,,,,,,,,,,,,,,,,,,,,,,,,,,,,,,,,,,,,,,,,,,,,,,,,,,,,,,,,,,,222.77599391242256,4.0,"('k',)",222.77651851755218,222.77653149684193,222.7898739136872,222.7898739136872,222.7898739136872,222.7898739136872,222.7898739136872,222.7898739136872,222.7898739136872,222.7898739136872,223.6653490163735,['k'],[0.8168077687441837],[None],,,,,,,,,,,,,,,,,,,,,3000,2010-05-15_00h52.20.745,eb_03,2023.2.3,119.99463949550687,2010-05-15 00h52.29.367935 -0400,
,,,,0,0,0,0,137,0,137,0,223.68167999209254,,,,,,,,,,,,,,,,,,,,,,,,,,,,,,,,,,,,,,,,,,,,,,,,,,,,,,,,,,,,,,,,,,,,,,,,,,,,,,,,,,,,,,,,,,,,,,,,,,,,,,,,,,223.66760771611007,12.0,"('h', 'k')",223.6680230536731,223.66803603296285,223.68167999209254,223.68167999209254,223.68167999209254,223.68167999209254,223.68167999209254,223.68167999209254,223.68167999209254,223.68167999209254,224.74054624131531,"['h', 'k']","[0.9970256277592853, 0.9980180913116783]","[None, None]",,,,,,,,,,,,,,,,,,,,,3000,2010-05-15_00h52.20.745,eb_03,2023.2.3,119.99463949550687,2010-05-15 00h52.29.367935 -0400,
,,,,0,0,0,0,138,0,138,0,224.75668916816358,,,,,,,,,,,,,,,,,,,,,,,,,,,,,,,,,,,,,,,,,,,,,,,,,,,,,,,,,,,,,,,,,,,,,,,,,,,,,,,,,,,,,,,,,,,,,,,,,,,,,,,,,,224.74277656772756,5.0,"('l', 'space')",224.74323174869642,224.74324442615034,224.75668916816358,224.75668916816358,224.75668916816358,224.75668916816358,224.75668916816358,224.75668916816358,224.75668916816358,224.75668916816358,226.19064325402724,"['space', 'l']","[1.3620143629668746, 1.3780099898576736]","[None, None]",,,,,,,,,,,,,,,,,,,,,3000,2010-05-15_00h52.20.745,eb_03,2023.2.3,119.99463949550687,2010-05-15 00h52.29.367935 -0400,
,,,,0,0,0,0,139,0,139,0,226.20680972471018,,,,,,,,,,,,,,,,,,,,,,,,,,,,,,,,,,,,,,,,,,,,,,,,,,,,,,,,,,,,,,,,,,,,,,,,,,,,,,,,,,,,,,,,,,,,,,,,,,,,,,,,,,226.1928702601581,5.0,"('l', 'space')",226.19338399887783,226.1933972800325,226.20680972471018,226.20680972471018,226.20680972471018,226.20680972471018,226.20680972471018,226.20680972471018,226.20680972471018,226.20680972471018,227.26565363747068,"['space', 'l']","[0.9839029534778092, 1.0158978293766268]","[None, None]",,,,,,,,,,,,,,,,,,,,,3000,2010-05-15_00h52.20.745,eb_03,2023.2.3,119.99463949550687,2010-05-15 00h52.29.367935 -0400,
,,,,0,0,0,0,140,0,140,0,227.2819224333216,,,,,,,,,,,,,,,,,,,,,,,,,,,,,,,,,,,,,,,,,,,,,,,,,,,,,,,,,,,,,,,,,,,,,,,,,,,,,,,,,,,,,,,,,,,,,,,,,,,,,,,,,,227.26792924050824,1.0,"('h', 'l')",227.26838502514875,227.26839740076684,227.2819224333216,227.2819224333216,227.2819224333216,227.2819224333216,227.2819224333216,227.2819224333216,227.2819224333216,227.2819224333216,228.89914541886537,"['h', 'l']","[1.556780204322422, 1.5577672346844338]","[None, None]",,,,,,,,,,,,,,,,,,,,,3000,2010-05-15_00h52.20.745,eb_03,2023.2.3,119.99463949550687,2010-05-15 00h52.29.367935 -0400,
,,,,0,0,0,0,141,0,141,0,228.91529770285706,,,,,,,,,,,,,,,,,,,,,,,,,,,,,,,,,,,,,,,,,,,,,,,,,,,,,,,,,,,,,,,,,,,,,,,,,,,,,,,,,,,,,,,,,,,,,,,,,,,,,,,,,,228.90142343664775,6.0,"('k', 'l')",228.9018988411699,228.90191182045965,228.91529770285706,228.91529770285706,228.91529770285706,228.91529770285706,228.91529770285706,228.91529770285706,228.91529770285706,228.91529770285706,230.32470069135888,"['k', 'l']","[0.8994107398611959, 1.3794223185977899]","[None, None]",,,,,,,,,,,,,,,,,,,,,3000,2010-05-15_00h52.20.745,eb_03,2023.2.3,119.99463949550687,2010-05-15 00h52.29.367935 -0400,
,,,,0,0,0,0,142,0,142,0,230.3487259762478,,,,,,,,,,,,,,,,,,,,,,,,,,,,,,,,,,,,,,,,,,,,,,,,,,,,,,,,,,,,,,,,,,,,,,,,,,,,,,,,,,,,,,,,,,,,,,,,,,,,,,,,,,230.3269476191781,8.0,"('j', 'k')",230.3274764501257,230.32748942941544,230.3487259762478,230.3487259762478,230.3487259762478,230.3487259762478,230.3487259762478,230.3487259762478,230.3487259762478,230.3487259762478,231.29100341445883,"['j', 'k']","[0.8819605260505341, 0.8829798537190072]","[None, None]",,,,,,,,,,,,,,,,,,,,,3000,2010-05-15_00h52.20.745,eb_03,2023.2.3,119.99463949550687,2010-05-15 00h52.29.367935 -0400,
,,,,0,0,0,0,143,0,143,0,231.307133965689,,,,,,,,,,,,,,,,,,,,,,,,,,,,,,,,,,,,,,,,,,,,,,,,,,,,,,,,,,,,,,,,,,,,,,,,,,,,,,,,,,,,,,,,,,,,,,,,,,,,,,,,,,231.29325124784373,9.0,"('k', 'space')",231.2937393298198,231.2937517054379,231.307133965689,231.307133965689,231.307133965689,231.307133965689,231.307133965689,231.307133965689,231.307133965689,231.307133965689,232.2743905163079,"['space', 'k']","[0.9075520801707171, 0.9235688361513894]","[None, None]",,,,,,,,,,,,,,,,,,,,,3000,2010-05-15_00h52.20.745,eb_03,2023.2.3,119.99463949550687,2010-05-15 00h52.29.367935 -0400,
,,,,0,0,0,0,144,0,144,0,232.2905587980349,,,,,,,,,,,,,,,,,,,,,,,,,,,,,,,,,,,,,,,,,,,,,,,,,,,,,,,,,,,,,,,,,,,,,,,,,,,,,,,,,,,,,,,,,,,,,,,,,,,,,,,,,,232.27663231280167,11.0,"('l',)",232.27709986935952,232.27711254681344,232.2905587980349,232.2905587980349,232.2905587980349,232.2905587980349,232.2905587980349,232.2905587980349,232.2905587980349,232.2905587980349,233.09107060497627,['l'],[0.7401345258986112],[None],,,,,,,,,,,,,,,,,,,,,3000,2010-05-15_00h52.20.745,eb_03,2023.2.3,119.99463949550687,2010-05-15 00h52.29.367935 -0400,
,,,,0,0,0,0,145,0,145,0,233.10724311252125,,,,,,,,,,,,,,,,,,,,,,,,,,,,,,,,,,,,,,,,,,,,,,,,,,,,,,,,,,,,,,,,,,,,,,,,,,,,,,,,,,,,,,,,,,,,,,,,,,,,,,,,,,233.09332145677763,2.0,"('h',)",233.09383821397205,233.0938511932618,233.10724311252125,233.10724311252125,233.10724311252125,233.10724311252125,233.10724311252125,233.10724311252125,233.10724311252125,233.10724311252125,234.34949205667363,['h'],[1.1794762279605493],[None],,,,,,,,,,,,,,,,,,,,,3000,2010-05-15_00h52.20.745,eb_03,2023.2.3,119.99463949550687,2010-05-15 00h52.29.367935 -0400,
,,,,0,0,0,0,146,0,146,0,234.36570470948936,,,,,,,,,,,,,,,,,,,,,,,,,,,,,,,,,,,,,,,,,,,,,,,,,,,,,,,,,,,,,,,,,,,,,,,,,,,,,,,,,,,,,,,,,,,,,,,,,,,,,,,,,,234.35169491526904,7.0,"('j', 'l')",234.35225936383358,234.3522720412875,234.36570470948936,234.36570470948936,234.36570470948936,234.36570470948936,234.36570470948936,234.36570470948936,234.36570470948936,234.36570470948936,235.416295297764,"['l', 'j']","[0.9850318505777977, 1.025186479295371]","[None, None]",,,,,,,,,,,,,,,,,,,,,3000,2010-05-15_00h52.20.745,eb_03,2023.2.3,119.99463949550687,2010-05-15 00h52.29.367935 -0400,
,,,,0,0,0,0,147,0,147,0,235.432394759031,,,,,,,,,,,,,,,,,,,,,,,,,,,,,,,,,,,,,,,,,,,,,,,,,,,,,,,,,,,,,,,,,,,,,,,,,,,,,,,,,,,,,,,,,,,,,,,,,,,,,,,,,,235.4184969489579,1.0,"('h', 'l')",235.41896178896422,235.41897476825397,235.432394759031,235.432394759031,235.432394759031,235.432394759031,235.432394759031,235.432394759031,235.432394759031,235.432394759031,237.77528065469232,"['l', 'j', 'l', 'h']","[0.5743517595110461, 0.5903434624196962, 2.301397719507804, 2.3253258105542045]","[None, None, None, None]",,,,,,,,,,,,,,,,,,,,,3000,2010-05-15_00h52.20.745,eb_03,2023.2.3,119.99463949550687,2010-05-15 00h52.29.367935 -0400,
,,,,0,0,0,0,148,0,148,0,237.79088961923844,,,,,,,,,,,,,,,,,,,,,,,,,,,,,,,,,,,,,,,,,,,,,,,,,,,,,,,,,,,,,,,,,,,,,,,,,,,,,,,,,,,,,,,,,,,,,,,,,,,,,,,,,,237.77748290958698,13.0,"('space',)",237.77794684405671,237.77795952151064,237.79088961923844,237.79088961923844,237.79088961923844,237.79088961923844,237.79088961923844,237.79088961923844,237.79088961923844,237.79088961923844,239.1581608998531,['space'],[1.2948386461939663],[None],,,,,,,,,,,,,,,,,,,,,3000,2010-05-15_00h52.20.745,eb_03,2023.2.3,119.99463949550687,2010-05-15 00h52.29.367935 -0400,
,,,,0,0,0,0,149,0,149,0,239.1743122783082,,,,,,,,,,,,,,,,,,,,,,,,,,,,,,,,,,,,,,,,,,,,,,,,,,,,,,,,,,,,,,,,,,,,,,,,,,,,,,,,,,,,,,,,,,,,,,,,,,,,,,,,,,239.16036224921118,14.0,"('j',)",239.16078362363623,239.16079630109016,239.1743122783082,239.1743122783082,239.1743122783082,239.1743122783082,239.1743122783082,239.1743122783082,239.1743122783082,239.1743122783082,240.1582611121121,['j'],[0.9114177981682587],[None],,,,,,,,,,,,,,,,,,,,,3000,2010-05-15_00h52.20.745,eb_03,2023.2.3,119.99463949550687,2010-05-15 00h52.29.367935 -0400,
,,,,0,0,0,0,150,0,150,0,240.17437596741365,,,,,,,,,,,,,,,,,,,,,,,,,,,,,,,,,,,,,,,,,,,,,,,,,,,,,,,,,,,,,,,,,,,,,,,,,,,,,,,,,,,,,,,,,,,,,,,,,,,,,,,,,,240.16047694999725,10.0,"('h', 'space')",240.16106433869572,240.16108003459522,240.17437596741365,240.17437596741365,240.17437596741365,240.17437596741365,240.17437596741365,240.17437596741365,240.17437596741365,240.17437596741365,242.81678965809988,"['h', 'space']","[2.5594092668616213, 2.5603516242699698]","[None, None]",,,,,,,,,,,,,,,,,,,,,3000,2010-05-15_00h52.20.745,eb_03,2023.2.3,119.99463949550687,2010-05-15 00h52.29.367935 -0400,
,,,,0,0,0,0,151,0,151,0,242.83289575995877,,,,,,,,,,,,,,,,,,,,,,,,,,,,,,,,,,,,,,,,,,,,,,,,,,,,,,,,,,,,,,,,,,,,,,,,,,,,,,,,,,,,,,,,,,,,,,,,,,,,,,,,,,242.81900036463048,6.0,"('k', 'l')",242.81959801603807,242.81961280640098,242.83289575995877,242.83289575995877,242.83289575995877,242.83289575995877,242.83289575995877,242.83289575995877,242.83289575995877,242.83289575995877,244.10840038300375,"['k', 'l']","[1.2128472113399766, 1.2138351472094655]","[None, None]",,,,,,,,,,,,,,,,,,,,,3000,2010-05-15_00h52.20.745,eb_03,2023.2.3,119.99463949550687,2010-05-15 00h52.29.367935 -0400,
,,,,0,0,0,0,152,0,152,0,244.12466072718962,,,,,,,,,,,,,,,,,,,,,,,,,,,,,,,,,,,,,,,,,,,,,,,,,,,,,,,,,,,,,,,,,,,,,,,,,,,,,,,,,,,,,,,,,,,,,,,,,,,,,,,,,,244.11064459421323,12.0,"('h', 'k')",244.11110490653664,244.1111178858555,244.12466072718962,244.12466072718962,244.12466072718962,244.12466072718962,244.12466072718962,244.12466072718962,244.12466072718962,244.12466072718962,245.4085264331079,"['h', 'k']","[1.2011033610906452, 1.2020798269077204]","[None, None]",,,,,,,,,,,,,,,,,,,,,3000,2010-05-15_00h52.20.745,eb_03,2023.2.3,119.99463949550687,2010-05-15 00h52.29.367935 -0400,
,,,,0,0,0,0,153,0,153,0,245.4247961344663,,,,,,,,,,,,,,,,,,,,,,,,,,,,,,,,,,,,,,,,,,,,,,,,,,,,,,,,,,,,,,,,,,,,,,,,,,,,,,,,,,,,,,,,,,,,,,,,,,,,,,,,,,245.41075102446484,9.0,"('k', 'space')",245.41126234846888,245.41127532775863,245.4247961344663,245.4247961344663,245.4247961344663,245.4247961344663,245.4247961344663,245.4247961344663,245.4247961344663,245.4247961344663,246.65034102351638,"['space', 'k']","[1.1649529968271963, 1.1729425095545594]","[None, None]",,,,,,,,,,,,,,,,,,,,,3000,2010-05-15_00h52.20.745,eb_03,2023.2.3,119.99463949550687,2010-05-15 00h52.29.367935 -0400,
,,,,0,0,0,0,154,0,154,0,246.66652228456223,,,,,,,,,,,,,,,,,,,,,,,,,,,,,,,,,,,,,,,,,,,,,,,,,,,,,,,,,,,,,,,,,,,,,,,,,,,,,,,,,,,,,,,,,,,,,,,,,,,,,,,,,,246.65260213802685,9.0,"('k', 'space')",246.65306426142342,246.65308629604988,246.66652228456223,246.66652228456223,246.66652228456223,246.66652228456223,246.66652228456223,246.66652228456223,246.66652228456223,246.66652228456223,247.6170823261782,"['k', 'space']","[0.867284863605164, 0.8682589146774262]","[None, None]",,,,,,,,,,,,,,,,,,,,,3000,2010-05-15_00h52.20.745,eb_03,2023.2.3,119.99463949550687,2010-05-15 00h52.29.367935 -0400,
,,,,0,0,0,0,155,0,155,0,247.6331884280371,,,,,,,,,,,,,,,,,,,,,,,,,,,,,,,,,,,,,,,,,,,,,,,,,,,,,,,,,,,,,,,,,,,,,,,,,,,,,,,,,,,,,,,,,,,,,,,,,,,,,,,,,,247.6193627587345,5.0,"('l', 'space')",247.61982125998475,247.61983393743867,247.6331884280371,247.6331884280371,247.6331884280371,247.6331884280371,247.6331884280371,247.6331884280371,247.6331884280371,247.6331884280371,248.77540833476814,"['l', 'space']","[1.0606229821860325, 1.061581941030454]","[None, None]",,,,,,,,,,,,,,,,,,,,,3000,2010-05-15_00h52.20.745,eb_03,2023.2.3,119.99463949550687,2010-05-15 00h52.29.367935 -0400,
,,,,0,0,0,0,156,0,156,0,248.79167833799147,,,,,,,,,,,,,,,,,,,,,,,,,,,,,,,,,,,,,,,,,,,,,,,,,,,,,,,,,,,,,,,,,,,,,,,,,,,,,,,,,,,,,,,,,,,,,,,,,,,,,,,,,,248.7775870458281,6.0,"('k', 'l')",248.77805671532406,248.77806909094215,248.79167833799147,248.79167833799147,248.79167833799147,248.79167833799147,248.79167833799147,248.79167833799147,248.79167833799147,248.79167833799147,249.9338934152329,"['k', 'l']","[1.0700812684954144, 1.0940760671219323]","[None, None]",,,,,,,,,,,,,,,,,,,,,3000,2010-05-15_00h52.20.745,eb_03,2023.2.3,119.99463949550687,2010-05-15 00h52.29.367935 -0400,
,,,,0,0,0,0,157,0,157,0,249.95003060699673,,,,,,,,,,,,,,,,,,,,,,,,,,,,,,,,,,,,,,,,,,,,,,,,,,,,,,,,,,,,,,,,,,,,,,,,,,,,,,,,,,,,,,,,,,,,,,,,,,,,,,,,,,249.93608329450944,9.0,"('k', 'space')",249.9365091965883,249.93652187404223,249.95003060699673,249.95003060699673,249.95003060699673,249.95003060699673,249.95003060699673,249.95003060699673,249.95003060699673,249.95003060699673,251.58402435522294,"['space', 'k']","[1.5748498023313005, 1.5917666575696785]","[None, None]",,,,,,,,,,,,,,,,,,,,,3000,2010-05-15_00h52.20.745,eb_03,2023.2.3,119.99463949550687,2010-05-15 00h52.29.367935 -0400,
,,,,0,0,0,0,158,0,158,0,251.6001503787702,,,,,,,,,,,,,,,,,,,,,,,,,,,,,,,,,,,,,,,,,,,,,,,,,,,,,,,,,,,,,,,,,,,,,,,,,,,,,,,,,,,,,,,,,,,,,,,,,,,,,,,,,,251.5862899973872,14.0,"('j',)",251.5867998121539,251.58681248960784,251.6001503787702,251.6001503787702,251.6001503787702,251.6001503787702,251.6001503787702,251.6001503787702,251.6001503787702,251.6001503787702,252.53402417409234,['j'],[0.8616349448566325],[None],,,,,,,,,,,,,,,,,,,,,3000,2010-05-15_00h52.20.745,eb_03,2023.2.3,119.99463949550687,2010-05-15 00h52.29.367935 -0400,
,,,,0,0,0,0,159,0,159,0,252.55021539598238,,,,,,,,,,,,,,,,,,,,,,,,,,,,,,,,,,,,,,,,,,,,,,,,,,,,,,,,,,,,,,,,,,,,,,,,,,,,,,,,,,,,,,,,,,,,,,,,,,,,,,,,,,252.53627864804002,12.0,"('h', 'k')",252.53677850193344,252.53679117938736,252.55021539598238,252.55021539598238,252.55021539598238,252.55021539598238,252.55021539598238,252.55021539598238,252.55021539598238,252.55021539598238,253.42584685396287,"['h', 'k']","[0.8145478616061155, 0.8155382122495212]","[None, None]",,,,,,,,,,,,,,,,,,,,,3000,2010-05-15_00h52.20.745,eb_03,2023.2.3,119.99463949550687,2010-05-15 00h52.29.367935 -0400,
,,,,0,0,0,0,160,0,160,0,253.4419128105219,,,,,,,,,,,,,,,,,,,,,,,,,,,,,,,,,,,,,,,,,,,,,,,,,,,,,,,,,,,,,,,,,,,,,,,,,,,,,,,,,,,,,,,,,,,,,,,,,,,,,,,,,,253.42811611824436,3.0,"('h', 'j')",253.42858820248512,253.42860118180397,253.4419128105219,253.4419128105219,253.4419128105219,253.4419128105219,253.4419128105219,253.4419128105219,253.4419128105219,253.4419128105219,254.22585609037196,"['j', 'h']","[0.7229079786047805, 0.7388673841778655]","[None, None]",,,,,,,,,,,,,,,,,,,,,3000,2010-05-15_00h52.20.745,eb_03,2023.2.3,119.99463949550687,2010-05-15 00h52.29.367935 -0400,
,,,,0,0,0,0,161,0,161,0,254.2419661161839,,,,,,,,,,,,,,,,,,,,,,,,,,,,,,,,,,,,,,,,,,,,,,,,,,,,,,,,,,,,,,,,,,,,,,,,,,,,,,,,,,,,,,,,,,,,,,,,,,,,,,,,,,254.22811629934586,11.0,"('l',)",254.2286185680132,254.2286312454671,254.2419661161839,254.2419661161839,254.2419661161839,254.2419661161839,254.2419661161839,254.2419661161839,254.2419661161839,254.2419661161839,255.1925400426553,['l'],[0.8908422900713049],[None],,,,,,,,,,,,,,,,,,,,,3000,2010-05-15_00h52.20.745,eb_03,2023.2.3,119.99463949550687,2010-05-15 00h52.29.367935 -0400,
,,,,0,0,0,0,162,0,162,0,255.20876024157042,,,,,,,,,,,,,,,,,,,,,,,,,,,,,,,,,,,,,,,,,,,,,,,,,,,,,,,,,,,,,,,,,,,,,,,,,,,,,,,,,,,,,,,,,,,,,,,,,,,,,,,,,,255.19476131373085,12.0,"('h', 'k')",255.195238831162,255.19525120678009,255.20876024157042,255.20876024157042,255.20876024157042,255.20876024157042,255.20876024157042,255.20876024157042,255.20876024157042,255.20876024157042,256.5598095121968,"['k', 'h', 'k']","[0.8359956993081141, 1.3160410846176092, 1.3170069858897477]","[None, None, None]",,,,,,,,,,,,,,,,,,,,,3000,2010-05-15_00h52.20.745,eb_03,2023.2.3,119.99463949550687,2010-05-15 00h52.29.367935 -0400,
,,,,0,0,0,0,163,0,163,0,256.5754688847228,,,,,,,,,,,,,,,,,,,,,,,,,,,,,,,,,,,,,,,,,,,,,,,,,,,,,,,,,,,,,,,,,,,,,,,,,,,,,,,,,,,,,,,,,,,,,,,,,,,,,,,,,,256.5620458755002,4.0,"('k',)",256.56253395747626,256.5625466349302,256.5754688847228,256.5754688847228,256.5754688847228,256.5754688847228,256.5754688847228,256.5754688847228,256.5754688847228,256.5754688847228,257.17602614936186,['k'],[0.5253283460624516],[None],,,,,,,,,,,,,,,,,,,,,3000,2010-05-15_00h52.20.745,eb_03,2023.2.3,119.99463949550687,2010-05-15 00h52.29.367935 -0400,
