practice_loop.thisRepN,practice_loop.thisTrialN,practice_loop.thisN,practice_loop.thisIndex,blocks.thisRepN,blocks.thisTrialN,blocks.thisN,blocks.thisIndex,trials.thisRepN,trials.thisTrialN,trials.thisN,trials.thisIndex,thisRow.t,notes,path,resp order,Instructions_0.started,welcome_text.started,instructions_0_keypress.started,Instructions_0.stopped,instructions_0_keypress.keys,instructions_0_keypress.rt,instructions_0_keypress.duration,consent_0.started,consent_image_0.started,consent0_key_resp.started,consent0_text.started,consent_0.stopped,consent0_key_resp.keys,consent0_key_resp.rt,consent0_key_resp.duration,consent_1.started,consent_image_1.started,consent1_key_resp.started,consent1_text.started,consent_1.stopped,consent1_key_resp.keys,consent1_key_resp.rt,consent1_key_resp.duration,consent_2.started,consent2_text.started,consent_image_2.started,consent2_key_resp.started,consent_2.stopped,consent2_key_resp.keys,consent2_key_resp.rt,consent2_key_resp.duration,consent_3.started,agree_button.started,disagree_button.started,consent_image_3.started,consent_3.stopped,agree_button.numClicks,agree_button.timesOn,agree_button.timesOff,disagree_button.numClicks,disagree_button.timesOn,disagree_button.timesOff,demographics.started,age_slider.started,Gender.started,Handedness.started,age_text.started,handedness_text.started,gender_text.started,demographics.stopped,age_slider.response,age_slider.rt,Gender.text,Handedness.response,Handedness.rt,instructions_1.started,instructions_text1.started,instructions1_key_resp.started,instr1_cnt_text.started,instructions_1.stopped,instructions1_key_resp.keys,instructions1_key_resp.rt,instructions1_key_resp.duration,instructions_2.started,instructions_text2.started,key_stim_association.started,instr2_cnt_text.started,instructions2_key_resp.started,instructions_2.stopped,instructions2_key_resp.keys,instructions2_key_resp.rt,instructions2_key_resp.duration,instructions_3.started,instructions_text3.started,examplestim_image_2.started,instructions3_key_resp.started,instr3_cnt_text.started,instructions_3.stopped,instructions3_key_resp.keys,instructions3_key_resp.rt,instructions3_key_resp.duration,instructions_4.started,instructions_text4.started,handplacement_image.started,instructions4_key_resp.started,instr4_cnt_text.started,instructions_4.stopped,instructions4_key_resp.keys,instructions4_key_resp.rt,instructions4_key_resp.duration,instructions_5.started,instructions_text5.started,image.started,instructions5_key_resp.started,instr5_cnt_text.started,instructions_5.stopped,instructions5_key_resp.keys,instructions5_key_resp.rt,instructions5_key_resp.duration,begin_exp_timer.started,text_countdown.started,text_countdown.stopped,begin_exp_timer.stopped,stim_resp_selector.started,node idx,stim,stim_resp_selector.stopped,stim_display.started,space.started,h.started,j.started,k.started,l.started,key_resp.started,text.started,accuracy_text.started,stim_display.stopped,key_resp.keys,key_resp.rt,key_resp.duration,break_2.started,break_text.started,break_key_resp.started,break_2.stopped,break_key_resp.keys,break_key_resp.rt,break_key_resp.duration,debriefing.started,graph.started,debrief_text.started,debriefing_title.started,demo_scr_adv.started,demo_scr_adv_keypress.started,debriefing.stopped,demo_scr_adv_keypress.keys,demo_scr_adv_keypress.rt,demo_scr_adv_keypress.duration,done.started,text_countdown_2.started,done.stopped,participant,date,expName,psychopyVersion,frameRate,expStart,
,,,,,,,,,,,,,,[ 0.  1.  4. ...  9. 10. 13.],"[('h', 'l'), ('space',), ('h', 'j'), ('h',), ('j',), ('j', 'l'), ('l', 'space'), ('h', 'space'), ('k',), ('k', 'l'), ('j', 'space'), ('j', 'k'), ('h', 'k'), ('k', 'space'), ('l',)]",0.00274891042499803,0.01926289842231199,0.01926289842231199,3.486186476162402,return,3.452364947355818,None,,,,,,,,,,,,,,,,,,,,,,,,,,,,,,,,,,,,,,,,,,,,,,,,,,,,,,,,,,,,,,,,,,,,,,,,,,,,,,,,,,,,,,,,,,,,,,,,,,,,,,,,,,,,,,,,,,,,,,,,,,,,,,,,,,,,,,3001,2023-11-07_10h28.12.235,eb_03,2023.2.3,59.90757852538186,2023-11-07 10h28.27.237807 -0500,
,,,,,,,,,,,,,,,,,,,,,,,3.486210321978433,3.502332815871341,3.502332815871341,3.502332815871341,4.886089402541984,space,1.3763492888247129,None,,,,,,,,,,,,,,,,,,,,,,,,,,,,,,,,,,,,,,,,,,,,,,,,,,,,,,,,,,,,,,,,,,,,,,,,,,,,,,,,,,,,,,,,,,,,,,,,,,,,,,,,,,,,,,,,,,,,,,,,,,,,,,3001,2023-11-07_10h28.12.235,eb_03,2023.2.3,59.90757852538186,2023-11-07 10h28.27.237807 -0500,
,,,,,,,,,,,,,,,,,,,,,,,,,,,,,,,4.886113550193841,4.902228799794102,4.902228799794102,4.902228799794102,6.235945678607095,space,1.3204564875632059,None,,,,,,,,,,,,,,,,,,,,,,,,,,,,,,,,,,,,,,,,,,,,,,,,,,,,,,,,,,,,,,,,,,,,,,,,,,,,,,,,,,,,,,,,,,,,,,,,,,,,,,,,,,,,,,,,,,,,,,3001,2023-11-07_10h28.12.235,eb_03,2023.2.3,59.90757852538186,2023-11-07 10h28.27.237807 -0500,
,,,,,,,,,,,,,,,,,,,,,,,,,,,,,,,,,,,,,,,6.235971033660462,6.252162046584999,6.252162046584999,6.252162046584999,6.602551684336504,space,0.3385098895232659,None,,,,,,,,,,,,,,,,,,,,,,,,,,,,,,,,,,,,,,,,,,,,,,,,,,,,,,,,,,,,,,,,,,,,,,,,,,,,,,,,,,,,,,,,,,,,,,,,,,,,,,,,,,,,,,3001,2023-11-07_10h28.12.235,eb_03,2023.2.3,59.90757852538186,2023-11-07 10h28.27.237807 -0500,
,,,,,,,,,,,,,,,,,,,,,,,,,,,,,,,,,,,,,,,,,,,,,,,6.602577643061522,6.618774994742125,6.618774994742125,6.618774994742125,8.01917989080539,1,[1.4138503188733011],[1.4138563557935413],0,,,8.019266520568635,8.08501036389498,8.08501036389498,8.08501036389498,8.08501036389498,8.08501036389498,8.08501036389498,9.391827341751195,None,None,,Right Handed,1.3337805682967883,9.391853602341143,9.401581793150399,11.401758071151562,11.401758071151562,11.852172792277997,space,0.44495644213748164,None,,,,,,,,,,,,,,,,,,,,,,,,,,,,,,,,,,,,,,,,,,,,,,,,,,,,,,,,,,,,,,,,,,,,,,,,,,,,,,3001,2023-11-07_10h28.12.235,eb_03,2023.2.3,59.90757852538186,2023-11-07 10h28.27.237807 -0500,
,,,,,,,,,,,,,,,,,,,,,,,,,,,,,,,,,,,,,,,,,,,,,,,,,,,,,,,,,,,,,,,,,,,,,,,,,,,,,,,11.852198449196294,11.868385839945404,11.868385839945404,14.851504203659715,14.851504203659715,15.568551462783944,space,0.7152573130442761,None,,,,,,,,,,,,,,,,,,,,,,,,,,,,,,,,,,,,,,,,,,,,,,,,,,,,,,,,,,,,,,,,,,,,,3001,2023-11-07_10h28.12.235,eb_03,2023.2.3,59.90757852538186,2023-11-07 10h28.27.237807 -0500,
,,,,,,,,,,,,,,,,,,,,,,,,,,,,,,,,,,,,,,,,,,,,,,,,,,,,,,,,,,,,,,,,,,,,,,,,,,,,,,,,,,,,,,,,15.568579232582124,15.584777489799308,15.584777489799308,18.56785782094812,18.56785782094812,18.651656877307687,h,0.07891126605682075,None,,,,,,,,,,,,,,,,,,,,,,,,,,,,,,,,,,,,,,,,,,,,,,,,,,,,,,,,,,,,3001,2023-11-07_10h28.12.235,eb_03,2023.2.3,59.90757852538186,2023-11-07 10h28.27.237807 -0500,
,,,,,,,,,,,,,,,,,,,,,,,,,,,,,,,,,,,,,,,,,,,,,,,,,,,,,,,,,,,,,,,,,,,,,,,,,,,,,,,,,,,,,,,,,,,,,,,,,18.651684345299145,18.66788924310822,18.66788924310822,21.65100760682253,21.65100760682253,22.66814188810531,space,1.0027839245158248,None,,,,,,,,,,,,,,,,,,,,,,,,,,,,,,,,,,,,,,,,,,,,,,,,,,,3001,2023-11-07_10h28.12.235,eb_03,2023.2.3,59.90757852538186,2023-11-07 10h28.27.237807 -0500,
,,,,,,,,,,,,,,,,,,,,,,,,,,,,,,,,,,,,,,,,,,,,,,,,,,,,,,,,,,,,,,,,,,,,,,,,,,,,,,,,,,,,,,,,,,,,,,,,,,,,,,,,,,22.668172374542337,22.684268909681123,22.684268909681123,25.667376105091535,25.667376105091535,26.70111251337221,space,1.0184814194217324,None,,,,,,,,,,,,,,,,,,,,,,,,,,,,,,,,,,,,,,,,,,3001,2023-11-07_10h28.12.235,eb_03,2023.2.3,59.90757852538186,2023-11-07 10h28.27.237807 -0500,
,,,,0,0,0,0,0,0,0,0,31.73361618304625,,,,,,,,,,,,,,,,,,,,,,,,,,,,,,,,,,,,,,,,,,,,,,,,,,,,,,,,,,,,,,,,,,,,,,,,,,,,,,,,,,,,,,,,,,,,,,,,,,,,,,,26.701143603480887,26.71698175856727,31.73361618304625,31.700504897598876,31.70462720678188,0.0,"('h', 'l')",31.705014776875032,31.705028661788674,31.73361618304625,31.73361618304625,31.73361618304625,31.73361618304625,31.73361618304625,31.73361618304625,31.73361618304625,31.73361618304625,32.5841164473095,"['h', 'l']","[0.7682795599976089, 0.7692487871099729]","[None, None]",,,,,,,,,,,,,,,,,,,,,3001,2023-11-07_10h28.12.235,eb_03,2023.2.3,59.90757852538186,2023-11-07 10h28.27.237807 -0500,
,,,,0,0,0,0,1,0,1,0,32.60019939939957,,,,,,,,,,,,,,,,,,,,,,,,,,,,,,,,,,,,,,,,,,,,,,,,,,,,,,,,,,,,,,,,,,,,,,,,,,,,,,,,,,,,,,,,,,,,,,,,,,,,,,,,,,,32.58674612862524,1.0,"('space',)",32.587196180800674,32.587208556506084,32.60019939939957,32.60019939939957,32.60019939939957,32.60019939939957,32.60019939939957,32.60019939939957,32.60019939939957,32.60019939939957,33.1673192071612,['space'],[0.49372990647680126],[None],,,,,,,,,,,,,,,,,,,,,3001,2023-11-07_10h28.12.235,eb_03,2023.2.3,59.90757852538186,2023-11-07 10h28.27.237807 -0500,
,,,,0,0,0,0,2,0,2,0,33.183505994209554,,,,,,,,,,,,,,,,,,,,,,,,,,,,,,,,,,,,,,,,,,,,,,,,,,,,,,,,,,,,,,,,,,,,,,,,,,,,,,,,,,,,,,,,,,,,,,,,,,,,,,,,,,,33.169500647316454,4.0,"('j',)",33.16996548997122,33.169978167512454,33.183505994209554,33.183505994209554,33.183505994209554,33.183505994209554,33.183505994209554,33.183505994209554,33.183505994209554,33.183505994209554,33.75039579541772,"['k', 'j']","[0.48636999845621176, 0.5575250328402035]","[None, None]",,,,,,,,,,,,,,,,,,,,,3001,2023-11-07_10h28.12.235,eb_03,2023.2.3,59.90757852538186,2023-11-07 10h28.27.237807 -0500,
,,,,0,0,0,0,3,0,3,0,33.766460033046314,,,,,,,,,,,,,,,,,,,,,,,,,,,,,,,,,,,,,,,,,,,,,,,,,,,,,,,,,,,,,,,,,,,,,,,,,,,,,,,,,,,,,,,,,,,,,,,,,,,,,,,,,,,33.75260862754658,3.0,"('h',)",33.753063509298954,33.753076186811086,33.766460033046314,33.766460033046314,33.766460033046314,33.766460033046314,33.766460033046314,33.766460033046314,33.766460033046314,33.766460033046314,34.366950110008474,['h'],[0.5274789922696073],[None],,,,,,,,,,,,,,,,,,,,,3001,2023-11-07_10h28.12.235,eb_03,2023.2.3,59.90757852538186,2023-11-07 10h28.27.237807 -0500,
,,,,0,0,0,0,4,0,4,0,34.383076226047706,,,,,,,,,,,,,,,,,,,,,,,,,,,,,,,,,,,,,,,,,,,,,,,,,,,,,,,,,,,,,,,,,,,,,,,,,,,,,,,,,,,,,,,,,,,,,,,,,,,,,,,,,,,34.369133059401065,0.0,"('h', 'l')",34.369542060565436,34.36955473810667,34.383076226047706,34.383076226047706,34.383076226047706,34.383076226047706,34.383076226047706,34.383076226047706,34.383076226047706,34.383076226047706,34.95025972329313,"['l', 'h']","[0.48681582481367514, 0.509864172374364]","[None, None]",,,,,,,,,,,,,,,,,,,,,3001,2023-11-07_10h28.12.235,eb_03,2023.2.3,59.90757852538186,2023-11-07 10h28.27.237807 -0500,
,,,,0,0,0,0,5,0,5,0,34.96639791317284,,,,,,,,,,,,,,,,,,,,,,,,,,,,,,,,,,,,,,,,,,,,,,,,,,,,,,,,,,,,,,,,,,,,,,,,,,,,,,,,,,,,,,,,,,,,,,,,,,,,,,,,,,,34.95265698325238,14.0,"('l',)",34.953060853033094,34.953073832410155,34.96639791317284,34.96639791317284,34.96639791317284,34.96639791317284,34.96639791317284,34.96639791317284,34.96639791317284,34.96639791317284,35.50022261135746,['l'],[0.4625812229642179],[None],,,,,,,,,,,,,,,,,,,,,3001,2023-11-07_10h28.12.235,eb_03,2023.2.3,59.90757852538186,2023-11-07 10h28.27.237807 -0500,
,,,,0,0,0,0,6,0,6,0,35.51635536798858,,,,,,,,,,,,,,,,,,,,,,,,,,,,,,,,,,,,,,,,,,,,,,,,,,,,,,,,,,,,,,,,,,,,,,,,,,,,,,,,,,,,,,,,,,,,,,,,,,,,,,,,,,,35.50241642718902,13.0,"('k', 'space')",35.502894249220844,35.50290783226956,35.51635536798858,35.51635536798858,35.51635536798858,35.51635536798858,35.51635536798858,35.51635536798858,35.51635536798858,35.51635536798858,36.16680093778996,"['k', 'space']","[0.576598975691013, 0.5775832951185293]","[None, None]",,,,,,,,,,,,,,,,,,,,,3001,2023-11-07_10h28.12.235,eb_03,2023.2.3,59.90757852538186,2023-11-07 10h28.27.237807 -0500,
,,,,0,0,0,0,7,0,7,0,36.18297383992467,,,,,,,,,,,,,,,,,,,,,,,,,,,,,,,,,,,,,,,,,,,,,,,,,,,,,,,,,,,,,,,,,,,,,,,,,,,,,,,,,,,,,,,,,,,,,,,,,,,,,,,,,,,36.169035200960934,14.0,"('l',)",36.169486460566986,36.16949913807912,36.18297383992467,36.18297383992467,36.18297383992467,36.18297383992467,36.18297383992467,36.18297383992467,36.18297383992467,36.18297383992467,36.70021512557287,['l'],[0.43794667528709397],[None],,,,,,,,,,,,,,,,,,,,,3001,2023-11-07_10h28.12.235,eb_03,2023.2.3,59.90757852538186,2023-11-07 10h28.27.237807 -0500,
,,,,0,0,0,0,8,0,8,0,36.716266383824404,,,,,,,,,,,,,,,,,,,,,,,,,,,,,,,,,,,,,,,,,,,,,,,,,,,,,,,,,,,,,,,,,,,,,,,,,,,,,,,,,,,,,,,,,,,,,,,,,,,,,,,,,,,36.70244274815195,10.0,"('j', 'space')",36.70288042468019,36.702903968660394,36.716266383824404,36.716266383824404,36.716266383824404,36.716266383824404,36.716266383824404,36.716266383824404,36.716266383824404,36.716266383824404,37.26673908956582,"['j', 'space']","[0.47266046050935984, 0.47363693194347434]","[None, None]",,,,,,,,,,,,,,,,,,,,,3001,2023-11-07_10h28.12.235,eb_03,2023.2.3,59.90757852538186,2023-11-07 10h28.27.237807 -0500,
,,,,0,0,0,0,9,0,9,0,37.28290233263397,,,,,,,,,,,,,,,,,,,,,,,,,,,,,,,,,,,,,,,,,,,,,,,,,,,,,,,,,,,,,,,,,,,,,,,,,,,,,,,,,,,,,,,,,,,,,,,,,,,,,,,,,,,37.26888098791824,11.0,"('j', 'k')",37.26934975455515,37.26936273393221,37.28290233263397,37.28290233263397,37.28290233263397,37.28290233263397,37.28290233263397,37.28290233263397,37.28290233263397,37.28290233263397,37.78345818183152,"['k', 'j']","[0.44205147738102823, 0.4900150892790407]","[None, None]",,,,,,,,,,,,,,,,,,,,,3001,2023-11-07_10h28.12.235,eb_03,2023.2.3,59.90757852538186,2023-11-07 10h28.27.237807 -0500,
,,,,0,0,0,0,10,0,10,0,37.79950913824723,,,,,,,,,,,,,,,,,,,,,,,,,,,,,,,,,,,,,,,,,,,,,,,,,,,,,,,,,,,,,,,,,,,,,,,,,,,,,,,,,,,,,,,,,,,,,,,,,,,,,,,,,,,37.78572202590294,10.0,"('j', 'space')",37.786111708934186,37.78612499017618,37.79950913824723,37.79950913824723,37.79950913824723,37.79950913824723,37.79950913824723,37.79950913824723,37.79950913824723,37.79950913824723,38.33336190809496,"['j', 'space']","[0.46145201750914566, 0.4624453923024703]","[None, None]",,,,,,,,,,,,,,,,,,,,,3001,2023-11-07_10h28.12.235,eb_03,2023.2.3,59.90757852538186,2023-11-07 10h28.27.237807 -0500,
,,,,0,0,0,0,11,0,11,0,38.34948047797661,,,,,,,,,,,,,,,,,,,,,,,,,,,,,,,,,,,,,,,,,,,,,,,,,,,,,,,,,,,,,,,,,,,,,,,,,,,,,,,,,,,,,,,,,,,,,,,,,,,,,,,,,,,38.335546970396535,9.0,"('k', 'l')",38.33598977830843,38.33600245582056,38.34948047797661,38.34948047797661,38.34948047797661,38.34948047797661,38.34948047797661,38.34948047797661,38.34948047797661,38.34948047797661,39.31705981589039,"['l', 'k', 'l']","[0.511487499519717, 0.9354686715814751, 0.9364348802191671]","[None, None, None]",,,,,,,,,,,,,,,,,,,,,3001,2023-11-07_10h28.12.235,eb_03,2023.2.3,59.90757852538186,2023-11-07 10h28.27.237807 -0500,
,,,,0,0,0,0,12,0,12,0,39.332743425882654,,,,,,,,,,,,,,,,,,,,,,,,,,,,,,,,,,,,,,,,,,,,,,,,,,,,,,,,,,,,,,,,,,,,,,,,,,,,,,,,,,,,,,,,,,,,,,,,,,,,,,,,,,,39.31924759483081,11.0,"('j', 'k')",39.31972873714403,39.319741716521094,39.332743425882654,39.332743425882654,39.332743425882654,39.332743425882654,39.332743425882654,39.332743425882654,39.332743425882654,39.332743425882654,39.99993117916165,"['k', 'j']","[0.5842160564498045, 0.6561993559007533]","[None, None]",,,,,,,,,,,,,,,,,,,,,3001,2023-11-07_10h28.12.235,eb_03,2023.2.3,59.90757852538186,2023-11-07 10h28.27.237807 -0500,
,,,,0,0,0,0,13,0,13,0,40.01601232014946,,,,,,,,,,,,,,,,,,,,,,,,,,,,,,,,,,,,,,,,,,,,,,,,,,,,,,,,,,,,,,,,,,,,,,,,,,,,,,,,,,,,,,,,,,,,,,,,,,,,,,,,,,,40.00209903623909,10.0,"('j', 'space')",40.0025219223171,40.002534599858336,40.01601232014946,40.01601232014946,40.01601232014946,40.01601232014946,40.01601232014946,40.01601232014946,40.01601232014946,40.01601232014946,40.69982483884087,"['j', 'space']","[0.6049196652311366, 0.6059100215788931]","[None, None]",,,,,,,,,,,,,,,,,,,,,3001,2023-11-07_10h28.12.235,eb_03,2023.2.3,59.90757852538186,2023-11-07 10h28.27.237807 -0500,
,,,,0,0,0,0,14,0,14,0,40.71598687453661,,,,,,,,,,,,,,,,,,,,,,,,,,,,,,,,,,,,,,,,,,,,,,,,,,,,,,,,,,,,,,,,,,,,,,,,,,,,,,,,,,,,,,,,,,,,,,,,,,,,,,,,,,,40.701973981485935,11.0,"('j', 'k')",40.702446370298276,40.70245904783951,40.71598687453661,40.71598687453661,40.71598687453661,40.71598687453661,40.71598687453661,40.71598687453661,40.71598687453661,40.71598687453661,41.21654332743492,"['k', 'j']","[0.44093072367832065, 0.4969681090733502]","[None, None]",,,,,,,,,,,,,,,,,,,,,3001,2023-11-07_10h28.12.235,eb_03,2023.2.3,59.90757852538186,2023-11-07 10h28.27.237807 -0500,
,,,,0,0,0,0,15,0,15,0,41.232604546588846,,,,,,,,,,,,,,,,,,,,,,,,,,,,,,,,,,,,,,,,,,,,,,,,,,,,,,,,,,,,,,,,,,,,,,,,,,,,,,,,,,,,,,,,,,,,,,,,,,,,,,,,,,,41.21870786420186,12.0,"('h', 'k')",41.21911928014015,41.219131957681384,41.232604546588846,41.232604546588846,41.232604546588846,41.232604546588846,41.232604546588846,41.232604546588846,41.232604546588846,41.232604546588846,42.016430678544566,"['h', 'k']","[0.7083897156117018, 0.7323855573777109]","[None, None]",,,,,,,,,,,,,,,,,,,,,3001,2023-11-07_10h28.12.235,eb_03,2023.2.3,59.90757852538186,2023-11-07 10h28.27.237807 -0500,
,,,,0,0,0,0,16,0,16,0,42.032523893372854,,,,,,,,,,,,,,,,,,,,,,,,,,,,,,,,,,,,,,,,,,,,,,,,,,,,,,,,,,,,,,,,,,,,,,,,,,,,,,,,,,,,,,,,,,,,,,,,,,,,,,,,,,,42.018639888527105,0.0,"('h', 'l')",42.01915000806912,42.01916268558125,42.032523893372854,42.032523893372854,42.032523893372854,42.032523893372854,42.032523893372854,42.032523893372854,42.032523893372854,42.032523893372854,42.61637562184478,"['h', 'l']","[0.516486369073391, 0.5324715230963193]","[None, None]",,,,,,,,,,,,,,,,,,,,,3001,2023-11-07_10h28.12.235,eb_03,2023.2.3,59.90757852538186,2023-11-07 10h28.27.237807 -0500,
,,,,0,0,0,0,17,0,17,0,42.63250113418326,,,,,,,,,,,,,,,,,,,,,,,,,,,,,,,,,,,,,,,,,,,,,,,,,,,,,,,,,,,,,,,,,,,,,,,,,,,,,,,,,,,,,,,,,,,,,,,,,,,,,,,,,,,42.61856913584052,3.0,"('h',)",42.61902492312947,42.619037600641605,42.63250113418326,42.63250113418326,42.63250113418326,42.63250113418326,42.63250113418326,42.63250113418326,42.63250113418326,42.63250113418326,43.350423746334855,"['space', 'h']","[0.4684937800047919, 0.7165126900654286]","[None, None]",,,,,,,,,,,,,,,,,,,,,3001,2023-11-07_10h28.12.235,eb_03,2023.2.3,59.90757852538186,2023-11-07 10h28.27.237807 -0500,
,,,,0,0,0,0,18,0,18,0,43.382491852447856,,,,,,,,,,,,,,,,,,,,,,,,,,,,,,,,,,,,,,,,,,,,,,,,,,,,,,,,,,,,,,,,,,,,,,,,,,,,,,,,,,,,,,,,,,,,,,,,,,,,,,,,,,,43.352613638184266,0.0,"('h', 'l')",43.35324600531021,43.353261399432085,43.382491852447856,43.382491852447856,43.382491852447856,43.382491852447856,43.382491852447856,43.382491852447856,43.382491852447856,43.382491852447856,44.066279317921726,"['h', 'l']","[0.6145011589396745, 0.6155117389280349]","[None, None]",,,,,,,,,,,,,,,,,,,,,3001,2023-11-07_10h28.12.235,eb_03,2023.2.3,59.90757852538186,2023-11-07 10h28.27.237807 -0500,
,,,,0,0,0,0,19,0,19,0,44.082397585967556,,,,,,,,,,,,,,,,,,,,,,,,,,,,,,,,,,,,,,,,,,,,,,,,,,,,,,,,,,,,,,,,,,,,,,,,,,,,,,,,,,,,,,,,,,,,,,,,,,,,,,,,,,,44.06851720326813,2.0,"('h', 'j')",44.06912964856019,44.06914625008358,44.082397585967556,44.082397585967556,44.082397585967556,44.082397585967556,44.082397585967556,44.082397585967556,44.082397585967556,44.082397585967556,44.59961804424529,"['j', 'h']","[0.44261683471268043, 0.5146158301795367]","[None, None]",,,,,,,,,,,,,,,,,,,,,3001,2023-11-07_10h28.12.235,eb_03,2023.2.3,59.90757852538186,2023-11-07 10h28.27.237807 -0500,
,,,,0,0,0,0,20,0,20,0,44.61569073353894,,,,,,,,,,,,,,,,,,,,,,,,,,,,,,,,,,,,,,,,,,,,,,,,,,,,,,,,,,,,,,,,,,,,,,,,,,,,,,,,,,,,,,,,,,,,,,,,,,,,,,,,,,,44.601815482223174,3.0,"('h',)",44.6023313368205,44.60234763650806,44.61569073353894,44.61569073353894,44.61569073353894,44.61569073353894,44.61569073353894,44.61569073353894,44.61569073353894,44.61569073353894,45.432879890402546,['h'],[0.741331967379665],[None],,,,,,,,,,,,,,,,,,,,,3001,2023-11-07_10h28.12.235,eb_03,2023.2.3,59.90757852538186,2023-11-07 10h28.27.237807 -0500,
,,,,0,0,0,0,21,0,21,0,45.448974010767415,,,,,,,,,,,,,,,,,,,,,,,,,,,,,,,,,,,,,,,,,,,,,,,,,,,,,,,,,,,,,,,,,,,,,,,,,,,,,,,,,,,,,,,,,,,,,,,,,,,,,,,,,,,45.435159430489875,1.0,"('space',)",45.435708789969794,45.435725693329005,45.448974010767415,45.448974010767415,45.448974010767415,45.448974010767415,45.448974010767415,45.448974010767415,45.448974010767415,45.448974010767415,46.099464253755286,['space'],[0.5800563184020575],[None],,,,,,,,,,,,,,,,,,,,,3001,2023-11-07_10h28.12.235,eb_03,2023.2.3,59.90757852538186,2023-11-07 10h28.27.237807 -0500,
,,,,0,0,0,0,22,0,22,0,46.11558221996529,,,,,,,,,,,,,,,,,,,,,,,,,,,,,,,,,,,,,,,,,,,,,,,,,,,,,,,,,,,,,,,,,,,,,,,,,,,,,,,,,,,,,,,,,,,,,,,,,,,,,,,,,,,46.10166803051834,0.0,"('h', 'l')",46.10225089490996,46.10227655179915,46.11558221996529,46.11558221996529,46.11558221996529,46.11558221996529,46.11558221996529,46.11558221996529,46.11558221996529,46.11558221996529,46.64964265975868,"['h', 'l']","[0.48145956970984116, 0.48245052972924896]","[None, None]",,,,,,,,,,,,,,,,,,,,,3001,2023-11-07_10h28.12.235,eb_03,2023.2.3,59.90757852538186,2023-11-07 10h28.27.237807 -0500,
,,,,0,0,0,0,23,0,23,0,46.66551643263665,,,,,,,,,,,,,,,,,,,,,,,,,,,,,,,,,,,,,,,,,,,,,,,,,,,,,,,,,,,,,,,,,,,,,,,,,,,,,,,,,,,,,,,,,,,,,,,,,,,,,,,,,,,46.65194242351572,1.0,"('space',)",46.65243775260751,46.65245193935698,46.66551643263665,46.66551643263665,46.66551643263665,46.66551643263665,46.66551643263665,46.66551643263665,46.66551643263665,46.66551643263665,47.26603488312685,['space'],[0.5234882879303768],[None],,,,,,,,,,,,,,,,,,,,,3001,2023-11-07_10h28.12.235,eb_03,2023.2.3,59.90757852538186,2023-11-07 10h28.27.237807 -0500,
,,,,0,0,0,0,24,0,24,0,47.28214077549637,,,,,,,,,,,,,,,,,,,,,,,,,,,,,,,,,,,,,,,,,,,,,,,,,,,,,,,,,,,,,,,,,,,,,,,,,,,,,,,,,,,,,,,,,,,,,,,,,,,,,,,,,,,47.268241376499645,2.0,"('h', 'j')",47.26885140701779,47.268867103004595,47.28214077549637,47.28214077549637,47.28214077549637,47.28214077549637,47.28214077549637,47.28214077549637,47.28214077549637,47.28214077549637,47.832652721204795,"['h', 'j']","[0.4668822248931974, 0.46789491779054515]","[None, None]",,,,,,,,,,,,,,,,,,,,,3001,2023-11-07_10h28.12.235,eb_03,2023.2.3,59.90757852538186,2023-11-07 10h28.27.237807 -0500,
,,,,0,0,0,0,25,0,25,0,47.84879000551882,,,,,,,,,,,,,,,,,,,,,,,,,,,,,,,,,,,,,,,,,,,,,,,,,,,,,,,,,,,,,,,,,,,,,,,,,,,,,,,,,,,,,,,,,,,,,,,,,,,,,,,,,,,47.83481303215376,4.0,"('j',)",47.835465321084484,47.83548071523546,47.84879000551882,47.84879000551882,47.84879000551882,47.84879000551882,47.84879000551882,47.84879000551882,47.84879000551882,47.84879000551882,48.34932049966301,"['k', 'j']","[0.44425766891799867, 0.48522992656216957]","[None, None]",,,,,,,,,,,,,,,,,,,,,3001,2023-11-07_10h28.12.235,eb_03,2023.2.3,59.90757852538186,2023-11-07 10h28.27.237807 -0500,
,,,,0,0,0,0,26,0,26,0,48.36541552556446,,,,,,,,,,,,,,,,,,,,,,,,,,,,,,,,,,,,,,,,,,,,,,,,,,,,,,,,,,,,,,,,,,,,,,,,,,,,,,,,,,,,,,,,,,,,,,,,,,,,,,,,,,,48.351505863829516,3.0,"('h',)",48.3520458661078,48.35206186393043,48.36541552556446,48.36541552556446,48.36541552556446,48.36541552556446,48.36541552556446,48.36541552556446,48.36541552556446,48.36541552556446,49.0325613222667,['h'],[0.5916384465817828],[None],,,,,,,,,,,,,,,,,,,,,3001,2023-11-07_10h28.12.235,eb_03,2023.2.3,59.90757852538186,2023-11-07 10h28.27.237807 -0500,
,,,,0,0,0,0,27,0,27,0,49.048700115818065,,,,,,,,,,,,,,,,,,,,,,,,,,,,,,,,,,,,,,,,,,,,,,,,,,,,,,,,,,,,,,,,,,,,,,,,,,,,,,,,,,,,,,,,,,,,,,,,,,,,,,,,,,,49.034748799342196,1.0,"('space',)",49.035367583390325,49.03540048460127,49.048700115818065,49.048700115818065,49.048700115818065,49.048700115818065,49.048700115818065,49.048700115818065,49.048700115818065,49.048700115818065,49.665812241612,['space'],[0.5403276657743845],[None],,,,,,,,,,,,,,,,,,,,,3001,2023-11-07_10h28.12.235,eb_03,2023.2.3,59.90757852538186,2023-11-07 10h28.27.237807 -0500,
,,,,0,0,0,0,28,0,28,0,49.68198574744747,,,,,,,,,,,,,,,,,,,,,,,,,,,,,,,,,,,,,,,,,,,,,,,,,,,,,,,,,,,,,,,,,,,,,,,,,,,,,,,,,,,,,,,,,,,,,,,,,,,,,,,,,,,49.668008774053305,5.0,"('j', 'l')",49.66862091750954,49.66865442239214,49.68198574744747,49.68198574744747,49.68198574744747,49.68198574744747,49.68198574744747,49.68198574744747,49.68198574744747,49.68198574744747,50.29911749321036,"['l', 'j']","[0.5390230878838338, 0.5550206175830681]","[None, None]",,,,,,,,,,,,,,,,,,,,,3001,2023-11-07_10h28.12.235,eb_03,2023.2.3,59.90757852538186,2023-11-07 10h28.27.237807 -0500,
,,,,0,0,0,0,29,0,29,0,50.31527288831421,,,,,,,,,,,,,,,,,,,,,,,,,,,,,,,,,,,,,,,,,,,,,,,,,,,,,,,,,,,,,,,,,,,,,,,,,,,,,,,,,,,,,,,,,,,,,,,,,,,,,,,,,,,50.3012853503169,6.0,"('l', 'space')",50.30191198235843,50.30192737650941,50.31527288831421,50.31527288831421,50.31527288831421,50.31527288831421,50.31527288831421,50.31527288831421,50.31527288831421,50.31527288831421,50.89913125737803,"['space', 'l']","[0.512852748419391, 0.5447922681632917]","[None, None]",,,,,,,,,,,,,,,,,,,,,3001,2023-11-07_10h28.12.235,eb_03,2023.2.3,59.90757852538186,2023-11-07 10h28.27.237807 -0500,
,,,,0,0,0,0,30,0,30,0,50.915240168222226,,,,,,,,,,,,,,,,,,,,,,,,,,,,,,,,,,,,,,,,,,,,,,,,,,,,,,,,,,,,,,,,,,,,,,,,,,,,,,,,,,,,,,,,,,,,,,,,,,,,,,,,,,,50.90132809168426,9.0,"('k', 'l')",50.901922728080535,50.90193812220241,50.915240168222226,50.915240168222226,50.915240168222226,50.915240168222226,50.915240168222226,50.915240168222226,50.915240168222226,50.915240168222226,51.499082539463416,"['k', 'l']","[0.5128264878294431, 0.5448357339773793]","[None, None]",,,,,,,,,,,,,,,,,,,,,3001,2023-11-07_10h28.12.235,eb_03,2023.2.3,59.90757852538186,2023-11-07 10h28.27.237807 -0500,
,,,,0,0,0,0,31,0,31,0,51.51518088567536,,,,,,,,,,,,,,,,,,,,,,,,,,,,,,,,,,,,,,,,,,,,,,,,,,,,,,,,,,,,,,,,,,,,,,,,,,,,,,,,,,,,,,,,,,,,,,,,,,,,,,,,,,,51.501332800486125,7.0,"('h', 'space')",51.50186284183292,51.501878235983895,51.51518088567536,51.51518088567536,51.51518088567536,51.51518088567536,51.51518088567536,51.51518088567536,51.51518088567536,51.51518088567536,52.74964027517126,"['h', 'j', 'space', 'h', 'space']","[0.6328971559705678, 0.6568607002263889, 0.7698515733354725, 1.1528553563694004, 1.1538454108522274]","[None, None, None, None, None]",,,,,,,,,,,,,,,,,,,,,3001,2023-11-07_10h28.12.235,eb_03,2023.2.3,59.90757852538186,2023-11-07 10h28.27.237807 -0500,
,,,,0,0,0,0,32,0,32,0,52.765096293383976,,,,,,,,,,,,,,,,,,,,,,,,,,,,,,,,,,,,,,,,,,,,,,,,,,,,,,,,,,,,,,,,,,,,,,,,,,,,,,,,,,,,,,,,,,,,,,,,,,,,,,,,,,,52.751836807641666,14.0,"('l',)",52.752473702450516,52.752489700273145,52.765096293383976,52.765096293383976,52.765096293383976,52.765096293383976,52.765096293383976,52.765096293383976,52.765096293383976,52.765096293383976,53.415548503777245,['l'],[0.5749898353533354],[None],,,,,,,,,,,,,,,,,,,,,3001,2023-11-07_10h28.12.235,eb_03,2023.2.3,59.90757852538186,2023-11-07 10h28.27.237807 -0500,
,,,,0,0,0,0,33,0,33,0,53.43171084130881,,,,,,,,,,,,,,,,,,,,,,,,,,,,,,,,,,,,,,,,,,,,,,,,,,,,,,,,,,,,,,,,,,,,,,,,,,,,,,,,,,,,,,,,,,,,,,,,,,,,,,,,,,,53.417741414072225,12.0,"('h', 'k')",53.41838736424688,53.418403362098616,53.43171084130881,53.43171084130881,53.43171084130881,53.43171084130881,53.43171084130881,53.43171084130881,53.43171084130881,53.43171084130881,54.01565614202991,"['h', 'k']","[0.5004870283300988, 0.501356042601401]","[None, None]",,,,,,,,,,,,,,,,,,,,,3001,2023-11-07_10h28.12.235,eb_03,2023.2.3,59.90757852538186,2023-11-07 10h28.27.237807 -0500,
,,,,0,0,0,0,34,0,34,0,54.031668462150265,,,,,,,,,,,,,,,,,,,,,,,,,,,,,,,,,,,,,,,,,,,,,,,,,,,,,,,,,,,,,,,,,,,,,,,,,,,,,,,,,,,,,,,,,,,,,,,,,,,,,,,,,,,54.017835771112004,10.0,"('j', 'space')",54.01838845090242,54.018405052425805,54.031668462150265,54.031668462150265,54.031668462150265,54.031668462150265,54.031668462150265,54.031668462150265,54.031668462150265,54.031668462150265,54.78214002089226,"['j', 'space']","[0.6684271324484143, 0.669392737414455]","[None, None]",,,,,,,,,,,,,,,,,,,,,3001,2023-11-07_10h28.12.235,eb_03,2023.2.3,59.90757852538186,2023-11-07 10h28.27.237807 -0500,
,,,,0,0,0,0,35,0,35,0,54.79827670153463,,,,,,,,,,,,,,,,,,,,,,,,,,,,,,,,,,,,,,,,,,,,,,,,,,,,,,,,,,,,,,,,,,,,,,,,,,,,,,,,,,,,,,,,,,,,,,,,,,,,,,,,,,,54.7844265034073,11.0,"('j', 'k')",54.784919719561,54.784933906339575,54.79827670153463,54.79827670153463,54.79827670153463,54.79827670153463,54.79827670153463,54.79827670153463,54.79827670153463,54.79827670153463,55.415416295290925,"['j', 'k']","[0.5418221047148108, 0.5428194035193883]","[None, None]",,,,,,,,,,,,,,,,,,,,,3001,2023-11-07_10h28.12.235,eb_03,2023.2.3,59.90757852538186,2023-11-07 10h28.27.237807 -0500,
,,,,0,0,0,0,36,0,36,0,55.43156686084694,,,,,,,,,,,,,,,,,,,,,,,,,,,,,,,,,,,,,,,,,,,,,,,,,,,,,,,,,,,,,,,,,,,,,,,,,,,,,,,,,,,,,,,,,,,,,,,,,,,,,,,,,,,55.4175935095991,2.0,"('h', 'j')",55.4181694315339,55.41818542935653,55.43156686084694,55.43156686084694,55.43156686084694,55.43156686084694,55.43156686084694,55.43156686084694,55.43156686084694,55.43156686084694,56.09875219932292,"['h', 'j']","[0.5965558178140782, 0.5975461741327308]","[None, None]",,,,,,,,,,,,,,,,,,,,,3001,2023-11-07_10h28.12.235,eb_03,2023.2.3,59.90757852538186,2023-11-07 10h28.27.237807 -0500,
,,,,0,0,0,0,37,0,37,0,56.11484964002739,,,,,,,,,,,,,,,,,,,,,,,,,,,,,,,,,,,,,,,,,,,,,,,,,,,,,,,,,,,,,,,,,,,,,,,,,,,,,,,,,,,,,,,,,,,,,,,,,,,,,,,,,,,56.101019665569765,1.0,"('space',)",56.10154880140908,56.10156479923171,56.11484964002739,56.11484964002739,56.11484964002739,56.11484964002739,56.11484964002739,56.11484964002739,56.11484964002739,56.11484964002739,56.748666218540166,['space'],[0.5612624885106925],[None],,,,,,,,,,,,,,,,,,,,,3001,2023-11-07_10h28.12.235,eb_03,2023.2.3,59.90757852538186,2023-11-07 10h28.27.237807 -0500,
,,,,0,0,0,0,38,0,38,0,56.76480501209153,,,,,,,,,,,,,,,,,,,,,,,,,,,,,,,,,,,,,,,,,,,,,,,,,,,,,,,,,,,,,,,,,,,,,,,,,,,,,,,,,,,,,,,,,,,,,,,,,,,,,,,,,,,56.75086667499272,2.0,"('h', 'j')",56.75152681191685,56.75154250790365,56.76480501209153,56.76480501209153,56.76480501209153,56.76480501209153,56.76480501209153,56.76480501209153,56.76480501209153,56.76480501209153,57.26539436617168,"['h', 'j']","[0.43131602689391, 0.44731385842897]","[None, None]",,,,,,,,,,,,,,,,,,,,,3001,2023-11-07_10h28.12.235,eb_03,2023.2.3,59.90757852538186,2023-11-07 10h28.27.237807 -0500,
,,,,0,0,0,0,39,0,39,0,57.281428721064,,,,,,,,,,,,,,,,,,,,,,,,,,,,,,,,,,,,,,,,,,,,,,,,,,,,,,,,,,,,,,,,,,,,,,,,,,,,,,,,,,,,,,,,,,,,,,,,,,,,,,,,,,,57.267603576154215,1.0,"('space',)",57.26821873805602,57.26824348940863,57.281428721064,57.281428721064,57.281428721064,57.281428721064,57.281428721064,57.281428721064,57.281428721064,57.281428721064,57.731888115406036,['space'],[0.37869493311154656],[None],,,,,,,,,,,,,,,,,,,,,3001,2023-11-07_10h28.12.235,eb_03,2023.2.3,59.90757852538186,2023-11-07 10h28.27.237807 -0500,
,,,,0,0,0,0,40,0,40,0,57.74806433785125,,,,,,,,,,,,,,,,,,,,,,,,,,,,,,,,,,,,,,,,,,,,,,,,,,,,,,,,,,,,,,,,,,,,,,,,,,,,,,,,,,,,,,,,,,,,,,,,,,,,,,,,,,,57.734095212450484,1.0,"('space',)",57.73472365559428,57.734739955252735,57.74806433785125,57.74806433785125,57.74806433785125,57.74806433785125,57.74806433785125,57.74806433785125,57.74806433785125,57.74806433785125,58.43188047868898,['space'],[0.6080588623590302],[None],,,,,,,,,,,,,,,,,,,,,3001,2023-11-07_10h28.12.235,eb_03,2023.2.3,59.90757852538186,2023-11-07 10h28.27.237807 -0500,
,,,,0,0,0,0,41,0,41,0,58.44801112244022,,,,,,,,,,,,,,,,,,,,,,,,,,,,,,,,,,,,,,,,,,,,,,,,,,,,,,,,,,,,,,,,,,,,,,,,,,,,,,,,,,,,,,,,,,,,,,,,,,,,,,,,,,,58.43416937600705,2.0,"('h', 'j')",58.43473654441186,58.434752240398666,58.44801112244022,58.44801112244022,58.44801112244022,58.44801112244022,58.44801112244022,58.44801112244022,58.44801112244022,58.44801112244022,59.01525317775668,"['h', 'j']","[0.4921243882563431, 0.49311806488549337]","[None, None]",,,,,,,,,,,,,,,,,,,,,3001,2023-11-07_10h28.12.235,eb_03,2023.2.3,59.90757852538186,2023-11-07 10h28.27.237807 -0500,
,,,,0,0,0,0,42,0,42,0,59.03130383233656,,,,,,,,,,,,,,,,,,,,,,,,,,,,,,,,,,,,,,,,,,,,,,,,,,,,,,,,,,,,,,,,,,,,,,,,,,,,,,,,,,,,,,,,,,,,,,,,,,,,,,,,,,,59.017464500677306,0.0,"('h', 'l')",59.01808026625076,59.01810562130413,59.03130383233656,59.03130383233656,59.03130383233656,59.03130383233656,59.03130383233656,59.03130383233656,59.03130383233656,59.03130383233656,59.63181111452286,"['h', 'l']","[0.5168488860072102, 0.5178096614254173]","[None, None]",,,,,,,,,,,,,,,,,,,,,3001,2023-11-07_10h28.12.235,eb_03,2023.2.3,59.90757852538186,2023-11-07 10h28.27.237807 -0500,
,,,,0,0,0,0,43,0,43,0,59.64792576042237,,,,,,,,,,,,,,,,,,,,,,,,,,,,,,,,,,,,,,,,,,,,,,,,,,,,,,,,,,,,,,,,,,,,,,,,,,,,,,,,,,,,,,,,,,,,,,,,,,,,,,,,,,,59.634048094332684,1.0,"('space',)",59.634640617790865,59.63465631377767,59.64792576042237,59.64792576042237,59.64792576042237,59.64792576042237,59.64792576042237,59.64792576042237,59.64792576042237,59.64792576042237,60.1983562077221,['space'],[0.46819978213170543],[None],,,,,,,,,,,,,,,,,,,,,3001,2023-11-07_10h28.12.235,eb_03,2023.2.3,59.90757852538186,2023-11-07 10h28.27.237807 -0500,
,,,,0,0,0,0,44,0,44,0,60.21455325753777,,,,,,,,,,,,,,,,,,,,,,,,,,,,,,,,,,,,,,,,,,,,,,,,,,,,,,,,,,,,,,,,,,,,,,,,,,,,,,,,,,,,,,,,,,,,,,,,,,,,,,,,,,,60.200549721717834,1.0,"('space',)",60.20117393898545,60.201198388502235,60.21455325753777,60.21455325753777,60.21455325753777,60.21455325753777,60.21455325753777,60.21455325753777,60.21455325753777,60.21455325753777,60.79838204573025,['space'],[0.5015803140995558],[None],,,,,,,,,,,,,,,,,,,,,3001,2023-11-07_10h28.12.235,eb_03,2023.2.3,59.90757852538186,2023-11-07 10h28.27.237807 -0500,
,,,,0,0,0,0,45,0,45,0,60.8145039359224,,,,,,,,,,,,,,,,,,,,,,,,,,,,,,,,,,,,,,,,,,,,,,,,,,,,,,,,,,,,,,,,,,,,,,,,,,,,,,,,,,,,,,,,,,,,,,,,,,,,,,,,,,,60.80057374865282,2.0,"('h', 'j')",60.80119253270095,60.80120853052358,60.8145039359224,60.8145039359224,60.8145039359224,60.8145039359224,60.8145039359224,60.8145039359224,60.8145039359224,60.8145039359224,61.51494152189116,"['h', 'j']","[0.629634805751266, 0.6306287842162419]","[None, None]",,,,,,,,,,,,,,,,,,,,,3001,2023-11-07_10h28.12.235,eb_03,2023.2.3,59.90757852538186,2023-11-07 10h28.27.237807 -0500,
,,,,0,0,0,0,46,0,46,0,61.531111707445234,,,,,,,,,,,,,,,,,,,,,,,,,,,,,,,,,,,,,,,,,,,,,,,,,,,,,,,,,,,,,,,,,,,,,,,,,,,,,,,,,,,,,,,,,,,,,,,,,,,,,,,,,,,61.51719299031538,0.0,"('h', 'l')",61.5177580457821,61.51777343993308,61.531111707445234,61.531111707445234,61.531111707445234,61.531111707445234,61.531111707445234,61.531111707445234,61.531111707445234,61.531111707445234,62.098304260056466,"['h', 'l']","[0.4970477963797748, 0.4980336250155233]","[None, None]",,,,,,,,,,,,,,,,,,,,,3001,2023-11-07_10h28.12.235,eb_03,2023.2.3,59.90757852538186,2023-11-07 10h28.27.237807 -0500,
,,,,0,0,0,0,47,0,47,0,62.114398380421335,,,,,,,,,,,,,,,,,,,,,,,,,,,,,,,,,,,,,,,,,,,,,,,,,,,,,,,,,,,,,,,,,,,,,,,,,,,,,,,,,,,,,,,,,,,,,,,,,,,,,,,,,,,62.1005056220456,3.0,"('h',)",62.10109210858354,62.10111746363691,62.114398380421335,62.114398380421335,62.114398380421335,62.114398380421335,62.114398380421335,62.114398380421335,62.114398380421335,62.114398380421335,62.66487470830907,['h'],[0.4737286930612754],[None],,,,,,,,,,,,,,,,,,,,,3001,2023-11-07_10h28.12.235,eb_03,2023.2.3,59.90757852538186,2023-11-07 10h28.27.237807 -0500,
,,,,0,0,0,0,48,0,48,0,62.68103644216899,,,,,,,,,,,,,,,,,,,,,,,,,,,,,,,,,,,,,,,,,,,,,,,,,,,,,,,,,,,,,,,,,,,,,,,,,,,,,,,,,,,,,,,,,,,,,,,,,,,,,,,,,,,62.667126478569116,14.0,"('l',)",62.667693345138105,62.66770723002264,62.68103644216899,62.68103644216899,62.68103644216899,62.68103644216899,62.68103644216899,62.68103644216899,62.68103644216899,62.68103644216899,63.19815880051465,['l'],[0.43513558464474045],[None],,,,,,,,,,,,,,,,,,,,,3001,2023-11-07_10h28.12.235,eb_03,2023.2.3,59.90757852538186,2023-11-07 10h28.27.237807 -0500,
,,,,0,0,0,0,49,0,49,0,63.21434317281819,,,,,,,,,,,,,,,,,,,,,,,,,,,,,,,,,,,,,,,,,,,,,,,,,,,,,,,,,,,,,,,,,,,,,,,,,,,,,,,,,,,,,,,,,,,,,,,,,,,,,,,,,,,63.20030130256782,0.0,"('h', 'l')",63.20091314415913,63.200928840145934,63.21434317281819,63.21434317281819,63.21434317281819,63.21434317281819,63.21434317281819,63.21434317281819,63.21434317281819,63.21434317281819,64.03196125265094,"['h', 'h', 'l']","[0.3577936153160408, 0.7338147976552136, 0.7348211517964955]","[None, None, None]",,,,,,,,,,,,,,,,,,,,,3001,2023-11-07_10h28.12.235,eb_03,2023.2.3,59.90757852538186,2023-11-07 10h28.27.237807 -0500,
,,,,0,0,0,0,50,0,50,0,64.04760260420153,,,,,,,,,,,,,,,,,,,,,,,,,,,,,,,,,,,,,,,,,,,,,,,,,,,,,,,,,,,,,,,,,,,,,,,,,,,,,,,,,,,,,,,,,,,,,,,,,,,,,,,,,,,64.03414691865328,1.0,"('space',)",64.03470593722886,64.03472163321567,64.04760260420153,64.04760260420153,64.04760260420153,64.04760260420153,64.04760260420153,64.04760260420153,64.04760260420153,64.04760260420153,64.59802882568329,['space'],[0.4765808348020073],[None],,,,,,,,,,,,,,,,,,,,,3001,2023-11-07_10h28.12.235,eb_03,2023.2.3,59.90757852538186,2023-11-07 10h28.27.237807 -0500,
,,,,0,0,0,0,51,0,51,0,64.61422678103554,,,,,,,,,,,,,,,,,,,,,,,,,,,,,,,,,,,,,,,,,,,,,,,,,,,,,,,,,,,,,,,,,,,,,,,,,,,,,,,,,,,,,,,,,,,,,,,,,,,,,,,,,,,64.60018581632175,0.0,"('h', 'l')",64.60074513673317,64.60076083271997,64.61422678103554,64.61422678103554,64.61422678103554,64.61422678103554,64.61422678103554,64.61422678103554,64.61422678103554,64.61422678103554,65.14805902537773,"['h', 'l']","[0.4619582130690105, 0.4629503804608248]","[None, None]",,,,,,,,,,,,,,,,,,,,,3001,2023-11-07_10h28.12.235,eb_03,2023.2.3,59.90757852538186,2023-11-07 10h28.27.237807 -0500,
,,,,0,0,0,0,52,0,52,0,65.1642201555369,,,,,,,,,,,,,,,,,,,,,,,,,,,,,,,,,,,,,,,,,,,,,,,,,,,,,,,,,,,,,,,,,,,,,,,,,,,,,,,,,,,,,,,,,,,,,,,,,,,,,,,,,,,65.15076446995954,10.0,"('j', 'space')",65.15110766873113,65.15112215734553,65.1642201555369,65.1642201555369,65.1642201555369,65.1642201555369,65.1642201555369,65.1642201555369,65.1642201555369,65.1642201555369,66.16474989504786,"['j', 'space']","[0.9349908495496493, 0.9358985000872053]","[None, None]",,,,,,,,,,,,,,,,,,,,,3001,2023-11-07_10h28.12.235,eb_03,2023.2.3,59.90757852538186,2023-11-07 10h28.27.237807 -0500,
,,,,0,0,0,0,53,0,53,0,66.18078726838576,,,,,,,,,,,,,,,,,,,,,,,,,,,,,,,,,,,,,,,,,,,,,,,,,,,,,,,,,,,,,,,,,,,,,,,,,,,,,,,,,,,,,,,,,,,,,,,,,,,,,,,,,,,66.16705207354971,11.0,"('j', 'k')",66.16754468603176,66.16756098571932,66.18078726838576,66.18078726838576,66.18078726838576,66.18078726838576,66.18078726838576,66.18078726838576,66.18078726838576,66.18078726838576,66.78130994472303,"['j', 'k']","[0.5264110615826212, 0.5274077566573396]","[None, None]",,,,,,,,,,,,,,,,,,,,,3001,2023-11-07_10h28.12.235,eb_03,2023.2.3,59.90757852538186,2023-11-07 10h28.27.237807 -0500,
,,,,0,0,0,0,54,0,54,0,66.79740587616106,,,,,,,,,,,,,,,,,,,,,,,,,,,,,,,,,,,,,,,,,,,,,,,,,,,,,,,,,,,,,,,,,,,,,,,,,,,,,,,,,,,,,,,,,,,,,,,,,,,,,,,,,,,66.7836112176883,13.0,"('k', 'space')",66.78414639041875,66.78416208640556,66.79740587616106,66.79740587616106,66.79740587616106,66.79740587616106,66.79740587616106,66.79740587616106,66.79740587616106,66.79740587616106,67.36453292821534,"['k', 'space']","[0.4938095938123297, 0.4947999501309823]","[None, None]",,,,,,,,,,,,,,,,,,,,,3001,2023-11-07_10h28.12.235,eb_03,2023.2.3,59.90757852538186,2023-11-07 10h28.27.237807 -0500,
,,,,0,0,0,0,55,0,55,0,67.38066840148531,,,,,,,,,,,,,,,,,,,,,,,,,,,,,,,,,,,,,,,,,,,,,,,,,,,,,,,,,,,,,,,,,,,,,,,,,,,,,,,,,,,,,,,,,,,,,,,,,,,,,,,,,,,67.36678922615829,10.0,"('j', 'space')",67.36752935225377,67.36754444453982,67.38066840148531,67.38066840148531,67.38066840148531,67.38066840148531,67.38066840148531,67.38066840148531,67.38066840148531,67.38066840148531,68.01454082148848,"['j', 'space']","[0.5505517893761862, 0.5515349014021922]","[None, None]",,,,,,,,,,,,,,,,,,,,,3001,2023-11-07_10h28.12.235,eb_03,2023.2.3,59.90757852538186,2023-11-07 10h28.27.237807 -0500,
,,,,0,0,0,0,56,0,56,0,68.03064641202218,,,,,,,,,,,,,,,,,,,,,,,,,,,,,,,,,,,,,,,,,,,,,,,,,,,,,,,,,,,,,,,,,,,,,,,,,,,,,,,,,,,,,,,,,,,,,,,,,,,,,,,,,,,68.0167765939259,12.0,"('h', 'k')",68.01743854192318,68.01745363420923,68.03064641202218,68.03064641202218,68.03064641202218,68.03064641202218,68.03064641202218,68.03064641202218,68.03064641202218,68.03064641202218,68.5311829430575,"['h', 'k']","[0.4286139025934972, 0.4295620004995726]","[None, None]",,,,,,,,,,,,,,,,,,,,,3001,2023-11-07_10h28.12.235,eb_03,2023.2.3,59.90757852538186,2023-11-07 10h28.27.237807 -0500,
,,,,0,0,0,0,57,0,57,0,68.54729245757335,,,,,,,,,,,,,,,,,,,,,,,,,,,,,,,,,,,,,,,,,,,,,,,,,,,,,,,,,,,,,,,,,,,,,,,,,,,,,,,,,,,,,,,,,,,,,,,,,,,,,,,,,,,68.53346519975457,14.0,"('l',)",68.53403870691545,68.53405349736568,68.54729245757335,68.54729245757335,68.54729245757335,68.54729245757335,68.54729245757335,68.54729245757335,68.54729245757335,68.54729245757335,69.0310928420804,['l'],[0.4078985218075104],[None],,,,,,,,,,,,,,,,,,,,,3001,2023-11-07_10h28.12.235,eb_03,2023.2.3,59.90757852538186,2023-11-07 10h28.27.237807 -0500,
,,,,0,0,0,0,58,0,58,0,69.04723737071618,,,,,,,,,,,,,,,,,,,,,,,,,,,,,,,,,,,,,,,,,,,,,,,,,,,,,,,,,,,,,,,,,,,,,,,,,,,,,,,,,,,,,,,,,,,,,,,,,,,,,,,,,,,69.0332579825481,13.0,"('k', 'space')",69.0338496004697,69.03386590015725,69.04723737071618,69.04723737071618,69.04723737071618,69.04723737071618,69.04723737071618,69.04723737071618,69.04723737071618,69.04723737071618,69.68103644216899,"['k', 'space']","[0.5559554342762567, 0.5569472998322453]","[None, None]",,,,,,,,,,,,,,,,,,,,,3001,2023-11-07_10h28.12.235,eb_03,2023.2.3,59.90757852538186,2023-11-07 10h28.27.237807 -0500,
,,,,0,0,0,0,59,0,59,0,69.69720028893789,,,,,,,,,,,,,,,,,,,,,,,,,,,,,,,,,,,,,,,,,,,,,,,,,,,,,,,,,,,,,,,,,,,,,,,,,,,,,,,,,,,,,,,,,,,,,,,,,,,,,,,,,,,69.68326527212048,10.0,"('j', 'space')",69.68385447529727,69.68386956758332,69.69720028893789,69.69720028893789,69.69720028893789,69.69720028893789,69.69720028893789,69.69720028893789,69.69720028893789,69.69720028893789,70.54831662063953,"['j', 'j', 'space']","[0.46602588810492307, 0.8420552203024272, 0.8430187123303767]","[None, None, None]",,,,,,,,,,,,,,,,,,,,,3001,2023-11-07_10h28.12.235,eb_03,2023.2.3,59.90757852538186,2023-11-07 10h28.27.237807 -0500,
,,,,0,0,0,0,60,0,60,0,70.58046199928503,,,,,,,,,,,,,,,,,,,,,,,,,,,,,,,,,,,,,,,,,,,,,,,,,,,,,,,,,,,,,,,,,,,,,,,,,,,,,,,,,,,,,,,,,,,,,,,,,,,,,,,,,,,70.55053609338938,9.0,"('k', 'l')",70.55115517927334,70.55117178079672,70.58046199928503,70.58046199928503,70.58046199928503,70.58046199928503,70.58046199928503,70.58046199928503,70.58046199928503,70.58046199928503,71.43091608112445,"['k', 'l']","[0.7747402691747993, 0.7757185516529717]","[None, None]",,,,,,,,,,,,,,,,,,,,,3001,2023-11-07_10h28.12.235,eb_03,2023.2.3,59.90757852538186,2023-11-07 10h28.27.237807 -0500,
,,,,0,0,0,0,61,0,61,0,71.44706151529681,,,,,,,,,,,,,,,,,,,,,,,,,,,,,,,,,,,,,,,,,,,,,,,,,,,,,,,,,,,,,,,,,,,,,,,,,,,,,,,,,,,,,,,,,,,,,,,,,,,,,,,,,,,71.43315396647085,8.0,"('k',)",71.4336924595118,71.43370845733443,71.44706151529681,71.44706151529681,71.44706151529681,71.44706151529681,71.44706151529681,71.44706151529681,71.44706151529681,71.44706151529681,72.08081923387363,['k'],[0.5561513322463725],[None],,,,,,,,,,,,,,,,,,,,,3001,2023-11-07_10h28.12.235,eb_03,2023.2.3,59.90757852538186,2023-11-07 10h28.27.237807 -0500,
,,,,0,0,0,0,62,0,62,0,72.09701386891538,,,,,,,,,,,,,,,,,,,,,,,,,,,,,,,,,,,,,,,,,,,,,,,,,,,,,,,,,,,,,,,,,,,,,,,,,,,,,,,,,,,,,,,,,,,,,,,,,,,,,,,,,,,72.0830522896722,6.0,"('l', 'space')",72.08364149281988,72.08365718880668,72.09701386891538,72.09701386891538,72.09701386891538,72.09701386891538,72.09701386891538,72.09701386891538,72.09701386891538,72.09701386891538,72.66414967452874,"['l', 'space']","[0.4901949894265272, 0.4912131155724637]","[None, None]",,,,,,,,,,,,,,,,,,,,,3001,2023-11-07_10h28.12.235,eb_03,2023.2.3,59.90757852538186,2023-11-07 10h28.27.237807 -0500,
,,,,0,0,0,0,63,0,63,0,72.68031503050588,,,,,,,,,,,,,,,,,,,,,,,,,,,,,,,,,,,,,,,,,,,,,,,,,,,,,,,,,,,,,,,,,,,,,,,,,,,,,,,,,,,,,,,,,,,,,,,,,,,,,,,,,,,72.66635496050003,5.0,"('j', 'l')",72.66698461101623,72.66699970330228,72.68031503050588,72.68031503050588,72.68031503050588,72.68031503050588,72.68031503050588,72.68031503050588,72.68031503050588,72.68031503050588,73.64797797973733,"['j', 'l', 'space', 'j', 'l']","[0.5149484643479809, 0.5159339911187999, 0.516888427810045, 0.9548921519599389, 0.9558933747466654]","[None, None, None, None, None]",,,,,,,,,,,,,,,,,,,,,3001,2023-11-07_10h28.12.235,eb_03,2023.2.3,59.90757852538186,2023-11-07 10h28.27.237807 -0500,
,,,,0,0,0,0,64,0,64,0,73.68024017274729,,,,,,,,,,,,,,,,,,,,,,,,,,,,,,,,,,,,,,,,,,,,,,,,,,,,,,,,,,,,,,,,,,,,,,,,,,,,,,,,,,,,,,,,,,,,,,,,,,,,,,,,,,,73.65021405401058,11.0,"('j', 'k')",73.65079420179245,73.65080959594343,73.68024017274729,73.68024017274729,73.68024017274729,73.68024017274729,73.68024017274729,73.68024017274729,73.68024017274729,73.68024017274729,74.29742232675198,"['k', 'j']","[0.5549901311460417, 0.6029721556114964]","[None, None]",,,,,,,,,,,,,,,,,,,,,3001,2023-11-07_10h28.12.235,eb_03,2023.2.3,59.90757852538186,2023-11-07 10h28.27.237807 -0500,
,,,,0,0,0,0,65,0,65,0,74.33018498020829,,,,,,,,,,,,,,,,,,,,,,,,,,,,,,,,,,,,,,,,,,,,,,,,,,,,,,,,,,,,,,,,,,,,,,,,,,,,,,,,,,,,,,,,,,,,,,,,,,,,,,,,,,,74.29967319147545,14.0,"('l',)",74.30038041635999,74.30039520681021,74.33018498020829,74.33018498020829,74.33018498020829,74.33018498020829,74.33018498020829,74.33018498020829,74.33018498020829,74.33018498020829,75.04727057376294,['l'],[0.6490836411830969],[None],,,,,,,,,,,,,,,,,,,,,3001,2023-11-07_10h28.12.235,eb_03,2023.2.3,59.90757852538186,2023-11-07 10h28.27.237807 -0500,
,,,,0,0,0,0,66,0,66,0,75.06343653344084,,,,,,,,,,,,,,,,,,,,,,,,,,,,,,,,,,,,,,,,,,,,,,,,,,,,,,,,,,,,,,,,,,,,,,,,,,,,,,,,,,,,,,,,,,,,,,,,,,,,,,,,,,,75.04946197482059,13.0,"('k', 'space')",75.05002038969542,75.05003608568222,75.06343653344084,75.06343653344084,75.06343653344084,75.06343653344084,75.06343653344084,75.06343653344084,75.06343653344084,75.06343653344084,75.68061295239022,"['k', 'space']","[0.5398359588289168, 0.5407994508568663]","[None, None]",,,,,,,,,,,,,,,,,,,,,3001,2023-11-07_10h28.12.235,eb_03,2023.2.3,59.90757852538186,2023-11-07 10h28.27.237807 -0500,
,,,,0,0,0,0,67,0,67,0,75.69675234964234,,,,,,,,,,,,,,,,,,,,,,,,,,,,,,,,,,,,,,,,,,,,,,,,,,,,,,,,,,,,,,,,,,,,,,,,,,,,,,,,,,,,,,,,,,,,,,,,,,,,,,,,,,,75.682834839914,10.0,"('j', 'space')",75.683473545796,75.68348863808205,75.69675234964234,75.69675234964234,75.69675234964234,75.69675234964234,75.69675234964234,75.69675234964234,75.69675234964234,75.69675234964234,76.34731443194323,"['j', 'space']","[0.5785404484195169, 0.5795305029023439]","[None, None]",,,,,,,,,,,,,,,,,,,,,3001,2023-11-07_10h28.12.235,eb_03,2023.2.3,59.90757852538186,2023-11-07 10h28.27.237807 -0500,
,,,,0,0,0,0,68,0,68,0,76.36337746219942,,,,,,,,,,,,,,,,,,,,,,,,,,,,,,,,,,,,,,,,,,,,,,,,,,,,,,,,,,,,,,,,,,,,,,,,,,,,,,,,,,,,,,,,,,,,,,,,,,,,,,,,,,,76.34950885147555,8.0,"('k',)",76.35003104485804,76.35006002205773,76.36337746219942,76.36337746219942,76.36337746219942,76.36337746219942,76.36337746219942,76.36337746219942,76.36337746219942,76.36337746219942,76.94715010706568,['k'],[0.511918233562028],[None],,,,,,,,,,,,,,,,,,,,,3001,2023-11-07_10h28.12.235,eb_03,2023.2.3,59.90757852538186,2023-11-07 10h28.27.237807 -0500,
,,,,0,0,0,0,69,0,69,0,76.96332663134672,,,,,,,,,,,,,,,,,,,,,,,,,,,,,,,,,,,,,,,,,,,,,,,,,,,,,,,,,,,,,,,,,,,,,,,,,,,,,,,,,,,,,,,,,,,,,,,,,,,,,,,,,,,76.94936263735872,6.0,"('l', 'space')",76.94998413801659,76.95000013583922,76.96332663134672,76.96332663134672,76.96332663134672,76.96332663134672,76.96332663134672,76.96332663134672,76.96332663134672,76.96332663134672,77.61380298942095,"['l', 'space']","[0.5759650993859395, 0.5769581723143347]","[None, None]",,,,,,,,,,,,,,,,,,,,,3001,2023-11-07_10h28.12.235,eb_03,2023.2.3,59.90757852538186,2023-11-07 10h28.27.237807 -0500,
,,,,0,0,0,0,70,0,70,0,77.62994631068432,,,,,,,,,,,,,,,,,,,,,,,,,,,,,,,,,,,,,,,,,,,,,,,,,,,,,,,,,,,,,,,,,,,,,,,,,,,,,,,,,,,,,,,,,,,,,,,,,,,,,,,,,,,77.61603996923077,7.0,"('h', 'space')",77.6166732418933,77.61668863601517,77.62994631068432,77.62994631068432,77.62994631068432,77.62994631068432,77.62994631068432,77.62994631068432,77.62994631068432,77.62994631068432,78.33042011814541,"['h', 'space']","[0.6293525798246264, 0.630352897074772]","[None, None]",,,,,,,,,,,,,,,,,,,,,3001,2023-11-07_10h28.12.235,eb_03,2023.2.3,59.90757852538186,2023-11-07 10h28.27.237807 -0500,
,,,,0,0,0,0,71,0,71,0,78.3465580061893,,,,,,,,,,,,,,,,,,,,,,,,,,,,,,,,,,,,,,,,,,,,,,,,,,,,,,,,,,,,,,,,,,,,,,,,,,,,,,,,,,,,,,,,,,,,,,,,,,,,,,,,,,,78.33264381674235,6.0,"('l', 'space')",78.33322909590788,78.33325445096125,78.3465580061893,78.3465580061893,78.3465580061893,78.3465580061893,78.3465580061893,78.3465580061893,78.3465580061893,78.3465580061893,78.98037518840283,"['l', 'space']","[0.5607273157511372, 0.5927259972959291]","[None, None]",,,,,,,,,,,,,,,,,,,,,3001,2023-11-07_10h28.12.235,eb_03,2023.2.3,59.90757852538186,2023-11-07 10h28.27.237807 -0500,
,,,,0,0,0,0,72,0,72,0,78.99650885057054,,,,,,,,,,,,,,,,,,,,,,,,,,,,,,,,,,,,,,,,,,,,,,,,,,,,,,,,,,,,,,,,,,,,,,,,,,,,,,,,,,,,,,,,,,,,,,,,,,,,,,,,,,,78.98256266547833,4.0,"('j',)",78.98318929751986,78.98320469167084,78.99650885057054,78.99650885057054,78.99650885057054,78.99650885057054,78.99650885057054,78.99650885057054,78.99650885057054,78.99650885057054,79.64695804251824,['j'],[0.5827828922192566],[None],,,,,,,,,,,,,,,,,,,,,3001,2023-11-07_10h28.12.235,eb_03,2023.2.3,59.90757852538186,2023-11-07 10h28.27.237807 -0500,
,,,,0,0,0,0,73,0,73,0,79.66312883174396,,,,,,,,,,,,,,,,,,,,,,,,,,,,,,,,,,,,,,,,,,,,,,,,,,,,,,,,,,,,,,,,,,,,,,,,,,,,,,,,,,,,,,,,,,,,,,,,,,,,,,,,,,,79.64916363035445,2.0,"('h', 'j')",79.64973623197875,79.64975162612973,79.66312883174396,79.66312883174396,79.66312883174396,79.66312883174396,79.66312883174396,79.66312883174396,79.66312883174396,79.66312883174396,80.23021604015958,"['h', 'j']","[0.46818619905388914, 0.4691403338802047]","[None, None]",,,,,,,,,,,,,,,,,,,,,3001,2023-11-07_10h28.12.235,eb_03,2023.2.3,59.90757852538186,2023-11-07 10h28.27.237807 -0500,
,,,,0,0,0,0,74,0,74,0,80.24640765675576,,,,,,,,,,,,,,,,,,,,,,,,,,,,,,,,,,,,,,,,,,,,,,,,,,,,,,,,,,,,,,,,,,,,,,,,,,,,,,,,,,,,,,,,,,,,,,,,,,,,,,,,,,,80.2324340036721,1.0,"('space',)",80.2330144532898,80.23303105481318,80.24640765675576,80.24640765675576,80.24640765675576,80.24640765675576,80.24640765675576,80.24640765675576,80.24640765675576,80.24640765675576,80.79689364371006,['space'],[0.4688931221317034],[None],,,,,,,,,,,,,,,,,,,,,3001,2023-11-07_10h28.12.235,eb_03,2023.2.3,59.90757852538186,2023-11-07 10h28.27.237807 -0500,
,,,,0,0,0,0,75,0,75,0,80.81304662404,,,,,,,,,,,,,,,,,,,,,,,,,,,,,,,,,,,,,,,,,,,,,,,,,,,,,,,,,,,,,,,,,,,,,,,,,,,,,,,,,,,,,,,,,,,,,,,,,,,,,,,,,,,80.79909651493654,0.0,"('h', 'l')",80.79974095587386,80.79975695369649,80.81304662404,80.81304662404,80.81304662404,80.81304662404,80.81304662404,80.81304662404,80.81304662404,80.81304662404,81.29691794229439,"['h', 'l']","[0.41425871633691713, 0.41525058189290576]","[None, None]",,,,,,,,,,,,,,,,,,,,,3001,2023-11-07_10h28.12.235,eb_03,2023.2.3,59.90757852538186,2023-11-07 10h28.27.237807 -0500,
,,,,0,0,0,0,76,0,76,0,81.31301840144442,,,,,,,,,,,,,,,,,,,,,,,,,,,,,,,,,,,,,,,,,,,,,,,,,,,,,,,,,,,,,,,,,,,,,,,,,,,,,,,,,,,,,,,,,,,,,,,,,,,,,,,,,,,81.29913530213526,0.0,"('h', 'l')",81.29977732829866,81.29979302428546,81.31301840144442,81.31301840144442,81.31301840144442,81.31301840144442,81.31301840144442,81.31301840144442,81.31301840144442,81.31301840144442,81.94684916670667,"['h', 'l']","[0.5613228576548863, 0.5623123084369581]","[None, None]",,,,,,,,,,,,,,,,,,,,,3001,2023-11-07_10h28.12.235,eb_03,2023.2.3,59.90757852538186,2023-11-07 10h28.27.237807 -0500,
,,,,0,0,0,0,77,0,77,0,81.96295928492327,,,,,,,,,,,,,,,,,,,,,,,,,,,,,,,,,,,,,,,,,,,,,,,,,,,,,,,,,,,,,,,,,,,,,,,,,,,,,,,,,,,,,,,,,,,,,,,,,,,,,,,,,,,81.9490369456471,14.0,"('l',)",81.94965452232282,81.94966991644469,81.96295928492327,81.96295928492327,81.96295928492327,81.96295928492327,81.96295928492327,81.96295928492327,81.96295928492327,81.96295928492327,82.53004830441205,['l'],[0.4873552234203089],[None],,,,,,,,,,,,,,,,,,,,,3001,2023-11-07_10h28.12.235,eb_03,2023.2.3,59.90757852538186,2023-11-07 10h28.27.237807 -0500,
,,,,0,0,0,0,78,0,78,0,82.54630934554734,,,,,,,,,,,,,,,,,,,,,,,,,,,,,,,,,,,,,,,,,,,,,,,,,,,,,,,,,,,,,,,,,,,,,,,,,,,,,,,,,,,,,,,,,,,,,,,,,,,,,,,,,,,82.53225600515725,11.0,"('j', 'k')",82.53283554923837,82.5328515470901,82.54630934554734,82.54630934554734,82.54630934554734,82.54630934554734,82.54630934554734,82.54630934554734,82.54630934554734,82.54630934554734,83.09679653990315,"['k', 'j']","[0.47199247559183277, 0.5359874238783959]","[None, None]",,,,,,,,,,,,,,,,,,,,,3001,2023-11-07_10h28.12.235,eb_03,2023.2.3,59.90757852538186,2023-11-07 10h28.27.237807 -0500,
,,,,0,0,0,0,79,0,79,0,83.1128725495073,,,,,,,,,,,,,,,,,,,,,,,,,,,,,,,,,,,,,,,,,,,,,,,,,,,,,,,,,,,,,,,,,,,,,,,,,,,,,,,,,,,,,,,,,,,,,,,,,,,,,,,,,,,83.09897556528449,13.0,"('k', 'space')",83.09960340469843,83.09962785421521,83.1128725495073,83.1128725495073,83.1128725495073,83.1128725495073,83.1128725495073,83.1128725495073,83.1128725495073,83.1128725495073,83.83079908567015,"['j', 'k', 'space']","[0.08145703421905637, 0.7054234761744738, 0.7064059845288284]","[None, None, None]",,,,,,,,,,,,,,,,,,,,,3001,2023-11-07_10h28.12.235,eb_03,2023.2.3,59.90757852538186,2023-11-07 10h28.27.237807 -0500,
,,,,0,0,0,0,80,0,80,0,83.86282221670263,,,,,,,,,,,,,,,,,,,,,,,,,,,,,,,,,,,,,,,,,,,,,,,,,,,,,,,,,,,,,,,,,,,,,,,,,,,,,,,,,,,,,,,,,,,,,,,,,,,,,,,,,,,83.8329681501491,13.0,"('k', 'space')",83.83359900803771,83.83361470399541,83.86282221670263,83.86282221670263,83.86282221670263,83.86282221670263,83.86282221670263,83.86282221670263,83.86282221670263,83.86282221670263,84.62996562881744,"['k', 'space']","[0.6915077775192913, 0.6925011523126159]","[None, None]",,,,,,,,,,,,,,,,,,,,,3001,2023-11-07_10h28.12.235,eb_03,2023.2.3,59.90757852538186,2023-11-07 10h28.27.237807 -0500,
,,,,0,0,0,0,81,0,81,0,84.64609778177692,,,,,,,,,,,,,,,,,,,,,,,,,,,,,,,,,,,,,,,,,,,,,,,,,,,,,,,,,,,,,,,,,,,,,,,,,,,,,,,,,,,,,,,,,,,,,,,,,,,,,,,,,,,84.632172725891,14.0,"('l',)",84.63276766409399,84.63278275640914,84.64609778177692,84.64609778177692,84.64609778177692,84.64609778177692,84.64609778177692,84.64609778177692,84.64609778177692,84.64609778177692,85.3132206381706,['l'],[0.5962581977364607],[None],,,,,,,,,,,,,,,,,,,,,3001,2023-11-07_10h28.12.235,eb_03,2023.2.3,59.90757852538186,2023-11-07 10h28.27.237807 -0500,
,,,,0,0,0,0,82,0,82,0,85.32938056095736,,,,,,,,,,,,,,,,,,,,,,,,,,,,,,,,,,,,,,,,,,,,,,,,,,,,,,,,,,,,,,,,,,,,,,,,,,,,,,,,,,,,,,,,,,,,,,,,,,,,,,,,,,,85.31546788074775,12.0,"('h', 'k')",85.31606432818808,85.31608002417488,85.32938056095736,85.32938056095736,85.32938056095736,85.32938056095736,85.32938056095736,85.32938056095736,85.32938056095736,85.32938056095736,85.86319710928365,"['h', 'k']","[0.4569964705151506, 0.46497576631372795]","[None, None]",,,,,,,,,,,,,,,,,,,,,3001,2023-11-07_10h28.12.235,eb_03,2023.2.3,59.90757852538186,2023-11-07 10h28.27.237807 -0500,
,,,,0,0,0,0,83,0,83,0,85.87935491916141,,,,,,,,,,,,,,,,,,,,,,,,,,,,,,,,,,,,,,,,,,,,,,,,,,,,,,,,,,,,,,,,,,,,,,,,,,,,,,,,,,,,,,,,,,,,,,,,,,,,,,,,,,,85.86541597833275,10.0,"('j', 'space')",85.86597107292619,85.86598676888389,85.87935491916141,85.87935491916141,85.87935491916141,85.87935491916141,85.87935491916141,85.87935491916141,85.87935491916141,85.87935491916141,86.4464765379962,"['j', 'space']","[0.4909764683980029, 0.4920072720560711]","[None, None]",,,,,,,,,,,,,,,,,,,,,3001,2023-11-07_10h28.12.235,eb_03,2023.2.3,59.90757852538186,2023-11-07 10h28.27.237807 -0500,
,,,,0,0,0,0,84,0,84,0,86.46263314044336,,,,,,,,,,,,,,,,,,,,,,,,,,,,,,,,,,,,,,,,,,,,,,,,,,,,,,,,,,,,,,,,,,,,,,,,,,,,,,,,,,,,,,,,,,,,,,,,,,,,,,,,,,,86.44868363504065,2.0,"('h', 'j')",86.44934679043945,86.44936278826208,86.46263314044336,86.46263314044336,86.46263314044336,86.46263314044336,86.46263314044336,86.46263314044336,86.46263314044336,86.46263314044336,87.01316893196781,"['h', 'j']","[0.4757398921647109, 0.47673175772069953]","[None, None]",,,,,,,,,,,,,,,,,,,,,3001,2023-11-07_10h28.12.235,eb_03,2023.2.3,59.90757852538186,2023-11-07 10h28.27.237807 -0500,
,,,,0,0,0,0,85,0,85,0,87.02925701544154,,,,,,,,,,,,,,,,,,,,,,,,,,,,,,,,,,,,,,,,,,,,,,,,,,,,,,,,,,,,,,,,,,,,,,,,,,,,,,,,,,,,,,,,,,,,,,,,,,,,,,,,,,,87.01541074132547,0.0,"('h', 'l')",87.01594832882984,87.01596402481664,87.02925701544154,87.02925701544154,87.02925701544154,87.02925701544154,87.02925701544154,87.02925701544154,87.02925701544154,87.02925701544154,87.61312323252787,"['h', 'l']","[0.4851073771424126, 0.4860756987181958]","[None, None]",,,,,,,,,,,,,,,,,,,,,3001,2023-11-07_10h28.12.235,eb_03,2023.2.3,59.90757852538186,2023-11-07 10h28.27.237807 -0500,
,,,,0,0,0,0,86,0,86,0,87.62921342888149,,,,,,,,,,,,,,,,,,,,,,,,,,,,,,,,,,,,,,,,,,,,,,,,,,,,,,,,,,,,,,,,,,,,,,,,,,,,,,,,,,,,,,,,,,,,,,,,,,,,,,,,,,,87.61542088334681,3.0,"('h',)",87.61595273576677,87.61596963915508,87.62921342888149,87.62921342888149,87.62921342888149,87.62921342888149,87.62921342888149,87.62921342888149,87.62921342888149,87.62921342888149,88.33019826145028,"['space', 'h']","[0.4691620667872485, 0.6931640058464836]","[None, None]",,,,,,,,,,,,,,,,,,,,,3001,2023-11-07_10h28.12.235,eb_03,2023.2.3,59.90757852538186,2023-11-07 10h28.27.237807 -0500,
,,,,0,0,0,0,87,0,87,0,88.36247554671718,,,,,,,,,,,,,,,,,,,,,,,,,,,,,,,,,,,,,,,,,,,,,,,,,,,,,,,,,,,,,,,,,,,,,,,,,,,,,,,,,,,,,,,,,,,,,,,,,,,,,,,,,,,88.33238754959893,2.0,"('h', 'j')",88.33295230322983,88.33297645091079,88.36247554671718,88.36247554671718,88.36247554671718,88.36247554671718,88.36247554671718,88.36247554671718,88.36247554671718,88.36247554671718,89.01294315126142,"['h', 'j']","[0.5758938637445681, 0.5769044437329285]","[None, None]",,,,,,,,,,,,,,,,,,,,,3001,2023-11-07_10h28.12.235,eb_03,2023.2.3,59.90757852538186,2023-11-07 10h28.27.237807 -0500,
,,,,0,0,0,0,88,0,88,0,89.0291133367864,,,,,,,,,,,,,,,,,,,,,,,,,,,,,,,,,,,,,,,,,,,,,,,,,,,,,,,,,,,,,,,,,,,,,,,,,,,,,,,,,,,,,,,,,,,,,,,,,,,,,,,,,,,89.01516081293812,6.0,"('l', 'space')",89.01581581847859,89.01583121262956,89.0291133367864,89.0291133367864,89.0291133367864,89.0291133367864,89.0291133367864,89.0291133367864,89.0291133367864,89.0291133367864,89.57964460062794,"['l', 'space']","[0.4772771932184696, 0.47827811414026655]","[None, None]",,,,,,,,,,,,,,,,,,,,,3001,2023-11-07_10h28.12.235,eb_03,2023.2.3,59.90757852538186,2023-11-07 10h28.27.237807 -0500,
,,,,0,0,0,0,89,0,89,0,89.59573992839432,,,,,,,,,,,,,,,,,,,,,,,,,,,,,,,,,,,,,,,,,,,,,,,,,,,,,,,,,,,,,,,,,,,,,,,,,,,,,,,,,,,,,,,,,,,,,,,,,,,,,,,,,,,89.58183328510495,8.0,"('k',)",89.5824445229955,89.58245961528155,89.59573992839432,89.59573992839432,89.59573992839432,89.59573992839432,89.59573992839432,89.59573992839432,89.59573992839432,89.59573992839432,90.22951756880502,['k'],[0.5506565298710484],[None],,,,,,,,,,,,,,,,,,,,,3001,2023-11-07_10h28.12.235,eb_03,2023.2.3,59.90757852538186,2023-11-07 10h28.27.237807 -0500,
,,,,0,0,0,0,90,0,90,0,90.24568835803075,,,,,,,,,,,,,,,,,,,,,,,,,,,,,,,,,,,,,,,,,,,,,,,,,,,,,,,,,,,,,,,,,,,,,,,,,,,,,,,,,,,,,,,,,,,,,,,,,,,,,,,,,,,90.23172526955022,5.0,"('j', 'l')",90.23235280712834,90.23237786034588,90.24568835803075,90.24568835803075,90.24568835803075,90.24568835803075,90.24568835803075,90.24568835803075,90.24568835803075,90.24568835803075,90.79618732436211,"['j', 'l']","[0.4526948648854159, 0.4536740529292729]","[None, None]",,,,,,,,,,,,,,,,,,,,,3001,2023-11-07_10h28.12.235,eb_03,2023.2.3,59.90757852538186,2023-11-07 10h28.27.237807 -0500,
,,,,0,0,0,0,91,0,91,0,90.81231313853641,,,,,,,,,,,,,,,,,,,,,,,,,,,,,,,,,,,,,,,,,,,,,,,,,,,,,,,,,,,,,,,,,,,,,,,,,,,,,,,,,,,,,,,,,,,,,,,,,,,,,,,,,,,90.79841011739336,4.0,"('j',)",90.79900233901571,90.79902859960566,90.81231313853641,90.81231313853641,90.81231313853641,90.81231313853641,90.81231313853641,90.81231313853641,90.81231313853641,90.81231313853641,91.27943744382355,['j'],[0.3981908565328922],[None],,,,,,,,,,,,,,,,,,,,,3001,2023-11-07_10h28.12.235,eb_03,2023.2.3,59.90757852538186,2023-11-07 10h28.27.237807 -0500,
,,,,0,0,0,0,92,0,92,0,91.29561155333067,,,,,,,,,,,,,,,,,,,,,,,,,,,,,,,,,,,,,,,,,,,,,,,,,,,,,,,,,,,,,,,,,,,,,,,,,,,,,,,,,,,,,,,,,,,,,,,,,,,,,,,,,,,91.281644540868,5.0,"('j', 'l')",91.28222891449695,91.28224461048376,91.29561155333067,91.29561155333067,91.29561155333067,91.29561155333067,91.29561155333067,91.29561155333067,91.29561155333067,91.29561155333067,91.86278569337446,"['j', 'l']","[0.49880152093828656, 0.499794292030856]","[None, None]",,,,,,,,,,,,,,,,,,,,,3001,2023-11-07_10h28.12.235,eb_03,2023.2.3,59.90757852538186,2023-11-07 10h28.27.237807 -0500,
,,,,0,0,0,0,93,0,93,0,91.87890154664638,,,,,,,,,,,,,,,,,,,,,,,,,,,,,,,,,,,,,,,,,,,,,,,,,,,,,,,,,,,,,,,,,,,,,,,,,,,,,,,,,,,,,,,,,,,,,,,,,,,,,,,,,,,91.8650205602462,7.0,"('h', 'space')",91.86563360920991,91.86564930519671,91.87890154664638,91.87890154664638,91.87890154664638,91.87890154664638,91.87890154664638,91.87890154664638,91.87890154664638,91.87890154664638,92.49605985483504,"['h', 'space']","[0.5395277742063627, 0.5404659111809451]","[None, None]",,,,,,,,,,,,,,,,,,,,,3001,2023-11-07_10h28.12.235,eb_03,2023.2.3,59.90757852538186,2023-11-07 10h28.27.237807 -0500,
,,,,0,0,0,0,94,0,94,0,92.51218566903844,,,,,,,,,,,,,,,,,,,,,,,,,,,,,,,,,,,,,,,,,,,,,,,,,,,,,,,,,,,,,,,,,,,,,,,,,,,,,,,,,,,,,,,,,,,,,,,,,,,,,,,,,,,92.49830377710168,6.0,"('l', 'space')",92.49886671965942,92.49888271748205,92.51218566903844,92.51218566903844,92.51218566903844,92.51218566903844,92.51218566903844,92.51218566903844,92.51218566903844,92.51218566903844,93.06262849201448,"['l', 'space']","[0.4742080243304372, 0.49824310606345534]","[None, None]",,,,,,,,,,,,,,,,,,,,,3001,2023-11-07_10h28.12.235,eb_03,2023.2.3,59.90757852538186,2023-11-07 10h28.27.237807 -0500,
,,,,0,0,0,0,95,0,95,0,93.0788137698546,,,,,,,,,,,,,,,,,,,,,,,,,,,,,,,,,,,,,,,,,,,,,,,,,,,,,,,,,,,,,,,,,,,,,,,,,,,,,,,,,,,,,,,,,,,,,,,,,,,,,,,,,,,93.06482381711248,8.0,"('k',)",93.06540366302943,93.0654190571804,93.0788137698546,93.0788137698546,93.0788137698546,93.0788137698546,93.0788137698546,93.0788137698546,93.0788137698546,93.0788137698546,93.67926189024001,['k'],[0.523559825407574],[None],,,,,,,,,,,,,,,,,,,,,3001,2023-11-07_10h28.12.235,eb_03,2023.2.3,59.90757852538186,2023-11-07 10h28.27.237807 -0500,
,,,,0,0,0,0,96,0,96,0,93.69543690531282,,,,,,,,,,,,,,,,,,,,,,,,,,,,,,,,,,,,,,,,,,,,,,,,,,,,,,,,,,,,,,,,,,,,,,,,,,,,,,,,,,,,,,,,,,,,,,,,,,,,,,,,,,,93.68146144115599,9.0,"('k', 'l')",93.6820744901488,93.68209018613561,93.69543690531282,93.69543690531282,93.69543690531282,93.69543690531282,93.69543690531282,93.69543690531282,93.69543690531282,93.69543690531282,94.24594975655782,"['k', 'l']","[0.47502240451285616, 0.47598559470498003]","[None, None]",,,,,,,,,,,,,,,,,,,,,3001,2023-11-07_10h28.12.235,eb_03,2023.2.3,59.90757852538186,2023-11-07 10h28.27.237807 -0500,
,,,,0,0,0,0,97,0,97,0,94.26206047844607,,,,,,,,,,,,,,,,,,,,,,,,,,,,,,,,,,,,,,,,,,,,,,,,,,,,,,,,,,,,,,,,,,,,,,,,,,,,,,,,,,,,,,,,,,,,,,,,,,,,,,,,,,,94.24813723363332,6.0,"('l', 'space')",94.24876688414952,94.24878197643557,94.26206047844607,94.26206047844607,94.26206047844607,94.26206047844607,94.26206047844607,94.26206047844607,94.26206047844607,94.26206047844607,94.84587960757199,"['l', 'space']","[0.5163746861217078, 0.5173759089084342]","[None, None]",,,,,,,,,,,,,,,,,,,,,3001,2023-11-07_10h28.12.235,eb_03,2023.2.3,59.90757852538186,2023-11-07 10h28.27.237807 -0500,
,,,,0,0,0,0,98,0,98,0,94.86201840115245,,,,,,,,,,,,,,,,,,,,,,,,,,,,,,,,,,,,,,,,,,,,,,,,,,,,,,,,,,,,,,,,,,,,,,,,,,,,,,,,,,,,,,,,,,,,,,,,,,,,,,,,,,,94.84808761018212,8.0,"('k',)",94.84868043547613,94.84870458315709,94.86201840115245,94.86201840115245,94.86201840115245,94.86201840115245,94.86201840115245,94.86201840115245,94.86201840115245,94.86201840115245,95.36248852609424,['k'],[0.42846147043746896],[None],,,,,,,,,,,,,,,,,,,,,3001,2023-11-07_10h28.12.235,eb_03,2023.2.3,59.90757852538186,2023-11-07 10h28.27.237807 -0500,
,,,,0,0,0,0,99,0,99,0,95.37862490490079,,,,,,,,,,,,,,,,,,,,,,,,,,,,,,,,,,,,,,,,,,,,,,,,,,,,,,,,,,,,,,,,,,,,,,,,,,,,,,,,,,,,,,,,,,,,,,,,,,,,,,,,,,,95.36468626593705,5.0,"('j', 'l')",95.36522415527725,95.3652404549648,95.37862490490079,95.37862490490079,95.37862490490079,95.37862490490079,95.37862490490079,95.37862490490079,95.37862490490079,95.37862490490079,95.92912538044038,"['j', 'l']","[0.47981450968654826, 0.48081331769935787]","[None, None]",,,,,,,,,,,,,,,,,,,,,3001,2023-11-07_10h28.12.235,eb_03,2023.2.3,59.90757852538186,2023-11-07 10h28.27.237807 -0500,
,,,,0,0,0,0,100,0,100,0,95.9452726256859,,,,,,,,,,,,,,,,,,,,,,,,,,,,,,,,,,,,,,,,,,,,,,,,,,,,,,,,,,,,,,,,,,,,,,,,,,,,,,,,,,,,,,,,,,,,,,,,,,,,,,,,,,,95.93134636242758,1.0,"('space',)",95.93196725938469,95.93198265353567,95.9452726256859,95.9452726256859,95.9452726256859,95.9452726256859,95.9452726256859,95.9452726256859,95.9452726256859,95.9452726256859,96.54573432914913,['space'],[0.5211529063526541],[None],,,,,,,,,,,,,,,,,,,,,3001,2023-11-07_10h28.12.235,eb_03,2023.2.3,59.90757852538186,2023-11-07 10h28.27.237807 -0500,
,,,,0,0,0,0,101,0,101,0,96.56189213899779,,,,,,,,,,,,,,,,,,,,,,,,,,,,,,,,,,,,,,,,,,,,,,,,,,,,,,,,,,,,,,,,,,,,,,,,,,,,,,,,,,,,,,,,,,,,,,,,,,,,,,,,,,,96.54792512653512,0.0,"('h', 'l')",96.54853062937036,96.54854723089375,96.56189213899779,96.56189213899779,96.56189213899779,96.56189213899779,96.56189213899779,96.56189213899779,96.56189213899779,96.56189213899779,97.17915850802092,"['h', 'l']","[0.544572524348041, 0.5455628806666937]","[None, None]",,,,,,,,,,,,,,,,,,,,,3001,2023-11-07_10h28.12.235,eb_03,2023.2.3,59.90757852538186,2023-11-07 10h28.27.237807 -0500,
,,,,0,0,0,0,102,0,102,0,97.1951822983101,,,,,,,,,,,,,,,,,,,,,,,,,,,,,,,,,,,,,,,,,,,,,,,,,,,,,,,,,,,,,,,,,,,,,,,,,,,,,,,,,,,,,,,,,,,,,,,,,,,,,,,,,,,97.18141420229222,1.0,"('space',)",97.18194696024875,97.18196325993631,97.1951822983101,97.1951822983101,97.1951822983101,97.1951822983101,97.1951822983101,97.1951822983101,97.1951822983101,97.1951822983101,97.79564611468231,['space'],[0.5262812678411137],[None],,,,,,,,,,,,,,,,,,,,,3001,2023-11-07_10h28.12.235,eb_03,2023.2.3,59.90757852538186,2023-11-07 10h28.27.237807 -0500,
,,,,0,0,0,0,103,0,103,0,97.81180241532275,,,,,,,,,,,,,,,,,,,,,,,,,,,,,,,,,,,,,,,,,,,,,,,,,,,,,,,,,,,,,,,,,,,,,,,,,,,,,,,,,,,,,,,,,,,,,,,,,,,,,,,,,,,97.79784325085348,4.0,"('j',)",97.79841192846652,97.79842792631825,97.81180241532275,97.81180241532275,97.81180241532275,97.81180241532275,97.81180241532275,97.81180241532275,97.81180241532275,97.81180241532275,98.64605854180991,"['j', 'space', 'j']","[0.44565974301076494, 0.4466561362496577, 0.8136820095824078]","[None, None, None]",,,,,,,,,,,,,,,,,,,,,3001,2023-11-07_10h28.12.235,eb_03,2023.2.3,59.90757852538186,2023-11-07 10h28.27.237807 -0500,
,,,,0,0,0,0,104,0,104,0,98.66173973702826,,,,,,,,,,,,,,,,,,,,,,,,,,,,,,,,,,,,,,,,,,,,,,,,,,,,,,,,,,,,,,,,,,,,,,,,,,,,,,,,,,,,,,,,,,,,,,,,,,,,,,,,,,,98.64823726535542,7.0,"('h', 'space')",98.6488678214082,98.64889227092499,98.66173973702826,98.66173973702826,98.66173973702826,98.66173973702826,98.66173973702826,98.66173973702826,98.66173973702826,98.66173973702826,99.26217397250002,"['h', 'space']","[0.5317344154755119, 0.5327283939404879]","[None, None]",,,,,,,,,,,,,,,,,,,,,3001,2023-11-07_10h28.12.235,eb_03,2023.2.3,59.90757852538186,2023-11-07 10h28.27.237807 -0500,
,,,,0,0,0,0,105,0,105,0,99.27835683556623,,,,,,,,,,,,,,,,,,,,,,,,,,,,,,,,,,,,,,,,,,,,,,,,,,,,,,,,,,,,,,,,,,,,,,,,,,,,,,,,,,,,,,,,,,,,,,,,,,,,,,,,,,,99.26437865479966,8.0,"('k',)",99.2649572933442,99.26497359303175,99.27835683556623,99.27835683556623,99.27835683556623,99.27835683556623,99.27835683556623,99.27835683556623,99.27835683556623,99.27835683556623,99.89547409274383,['k'],[0.5390879847400356],[None],,,,,,,,,,,,,,,,,,,,,3001,2023-11-07_10h28.12.235,eb_03,2023.2.3,59.90757852538186,2023-11-07 10h28.27.237807 -0500,
,,,,0,0,0,0,106,0,106,0,99.91165423917118,,,,,,,,,,,,,,,,,,,,,,,,,,,,,,,,,,,,,,,,,,,,,,,,,,,,,,,,,,,,,,,,,,,,,,,,,,,,,,,,,,,,,,,,,,,,,,,,,,,,,,,,,,,99.89762353722472,7.0,"('h', 'space')",99.89824715082068,99.89826375234406,99.91165423917118,99.91165423917118,99.91165423917118,99.91165423917118,99.91165423917118,99.91165423917118,99.91165423917118,99.91165423917118,100.5121325441578,"['h', 'space']","[0.5217976491840091, 0.5227874018019065]","[None, None]",,,,,,,,,,,,,,,,,,,,,3001,2023-11-07_10h28.12.235,eb_03,2023.2.3,59.90757852538186,2023-11-07 10h28.27.237807 -0500,
,,,,0,0,0,0,107,0,107,0,100.52827194140991,,,,,,,,,,,,,,,,,,,,,,,,,,,,,,,,,,,,,,,,,,,,,,,,,,,,,,,,,,,,,,,,,,,,,,,,,,,,,,,,,,,,,,,,,,,,,,,,,,,,,,,,,,,100.51432786922669,9.0,"('k', 'l')",100.51487994534546,100.51489533946733,100.52827194140991,100.52827194140991,100.52827194140991,100.52827194140991,100.52827194140991,100.52827194140991,100.52827194140991,100.52827194140991,101.0954080488591,"['l', 'k']","[0.4891838057083078, 0.5051798261702061]","[None, None]",,,,,,,,,,,,,,,,,,,,,3001,2023-11-07_10h28.12.235,eb_03,2023.2.3,59.90757852538186,2023-11-07 10h28.27.237807 -0500,
,,,,0,0,0,0,108,0,108,0,101.11156163286068,,,,,,,,,,,,,,,,,,,,,,,,,,,,,,,,,,,,,,,,,,,,,,,,,,,,,,,,,,,,,,,,,,,,,,,,,,,,,,,,,,,,,,,,,,,,,,,,,,,,,,,,,,,101.09762057915214,6.0,"('l', 'space')",101.0982297041337,101.09824479641975,101.11156163286068,101.11156163286068,101.11156163286068,101.11156163286068,101.11156163286068,101.11156163286068,101.11156163286068,101.11156163286068,101.97932506658253,"['space', 'l']","[0.45792132627684623, 0.8659324366308283]","[None, None]",,,,,,,,,,,,,,,,,,,,,3001,2023-11-07_10h28.12.235,eb_03,2023.2.3,59.90757852538186,2023-11-07 10h28.27.237807 -0500,
,,,,0,0,0,0,109,0,109,0,102.01150515751215,,,,,,,,,,,,,,,,,,,,,,,,,,,,,,,,,,,,,,,,,,,,,,,,,,,,,,,,,,,,,,,,,,,,,,,,,,,,,,,,,,,,,,,,,,,,,,,,,,,,,,,,,,,101.98154272825923,5.0,"('j', 'l')",101.98218686736072,101.98220195964677,102.01150515751215,102.01150515751215,102.01150515751215,102.01150515751215,102.01150515751215,102.01150515751215,102.01150515751215,102.01150515751215,103.69524915717193,"['j', 'l']","[1.6140088483225554, 1.6620050595374778]","[None, None]",,,,,,,,,,,,,,,,,,,,,3001,2023-11-07_10h28.12.235,eb_03,2023.2.3,59.90757852538186,2023-11-07 10h28.27.237807 -0500,
,,,,0,0,0,0,110,0,110,0,103.71136923629092,,,,,,,,,,,,,,,,,,,,,,,,,,,,,,,,,,,,,,,,,,,,,,,,,,,,,,,,,,,,,,,,,,,,,,,,,,,,,,,,,,,,,,,,,,,,,,,,,,,,,,,,,,,103.69743995455792,4.0,"('j',)",103.69804545739316,103.69806085154414,103.71136923629092,103.71136923629092,103.71136923629092,103.71136923629092,103.71136923629092,103.71136923629092,103.71136923629092,103.71136923629092,104.29515727530816,['j'],[0.5141479690792039],[None],,,,,,,,,,,,,,,,,,,,,3001,2023-11-07_10h28.12.235,eb_03,2023.2.3,59.90757852538186,2023-11-07 10h28.27.237807 -0500,
,,,,0,0,0,0,111,0,111,0,104.31133711989969,,,,,,,,,,,,,,,,,,,,,,,,,,,,,,,,,,,,,,,,,,,,,,,,,,,,,,,,,,,,,,,,,,,,,,,,,,,,,,,,,,,,,,,,,,,,,,,,,,,,,,,,,,,104.29733962099999,5.0,"('j', 'l')",104.29793999245157,104.29795629211003,104.31133711989969,104.31133711989969,104.31133711989969,104.31133711989969,104.31133711989969,104.31133711989969,104.31133711989969,104.31133711989969,104.86183608623105,"['j', 'l']","[0.4821785665990319, 0.5221414516272489]","[None, None]",,,,,,,,,,,,,,,,,,,,,3001,2023-11-07_10h28.12.235,eb_03,2023.2.3,59.90757852538186,2023-11-07 10h28.27.237807 -0500,
,,,,0,0,0,0,112,0,112,0,104.87795224133879,,,,,,,,,,,,,,,,,,,,,,,,,,,,,,,,,,,,,,,,,,,,,,,,,,,,,,,,,,,,,,,,,,,,,,,,,,,,,,,,,,,,,,,,,,,,,,,,,,,,,,,,,,,104.86408725279034,8.0,"('k',)",104.8646381215076,104.86465351565857,104.87795224133879,104.87795224133879,104.87795224133879,104.87795224133879,104.87795224133879,104.87795224133879,104.87795224133879,104.87795224133879,105.57853320412687,['k'],[0.6195437961723655],[None],,,,,,,,,,,,,,,,,,,,,3001,2023-11-07_10h28.12.235,eb_03,2023.2.3,59.90757852538186,2023-11-07 10h28.27.237807 -0500,
,,,,0,0,0,0,113,0,113,0,105.5945675589901,,,,,,,,,,,,,,,,,,,,,,,,,,,,,,,,,,,,,,,,,,,,,,,,,,,,,,,,,,,,,,,,,,,,,,,,,,,,,,,,,,,,,,,,,,,,,,,,,,,,,,,,,,,105.5807255107211,6.0,"('l', 'space')",105.58133644677582,105.5813530482992,105.5945675589901,105.5945675589901,105.5945675589901,105.5945675589901,105.5945675589901,105.5945675589901,105.5945675589901,105.5945675589901,106.16172781412024,"['l', 'space']","[0.48691271734423935, 0.510958967381157]","[None, None]",,,,,,,,,,,,,,,,,,,,,3001,2023-11-07_10h28.12.235,eb_03,2023.2.3,59.90757852538186,2023-11-07 10h28.27.237807 -0500,
,,,,0,0,0,0,114,0,114,0,106.1778587596782,,,,,,,,,,,,,,,,,,,,,,,,,,,,,,,,,,,,,,,,,,,,,,,,,,,,,,,,,,,,,,,,,,,,,,,,,,,,,,,,,,,,,,,,,,,,,,,,,,,,,,,,,,,106.16404780151788,8.0,"('k',)",106.16459444441716,106.16460983856814,106.1778587596782,106.1778587596782,106.1778587596782,106.1778587596782,106.1778587596782,106.1778587596782,106.1778587596782,106.1778587596782,106.69497659034096,['k'],[0.4476606793468818],[None],,,,,,,,,,,,,,,,,,,,,3001,2023-11-07_10h28.12.235,eb_03,2023.2.3,59.90757852538186,2023-11-07 10h28.27.237807 -0500,
,,,,0,0,0,0,115,0,115,0,106.71115824603476,,,,,,,,,,,,,,,,,,,,,,,,,,,,,,,,,,,,,,,,,,,,,,,,,,,,,,,,,,,,,,,,,,,,,,,,,,,,,,,,,,,,,,,,,,,,,,,,,,,,,,,,,,,106.69719727049232,5.0,"('j', 'l')",106.69781182869337,106.69783627821016,106.71115824603476,106.71115824603476,106.71115824603476,106.71115824603476,106.71115824603476,106.71115824603476,106.71115824603476,106.71115824603476,107.21167364786379,"['j', 'l']","[0.4263829597039148, 0.4273733160516713]","[None, None]",,,,,,,,,,,,,,,,,,,,,3001,2023-11-07_10h28.12.235,eb_03,2023.2.3,59.90757852538186,2023-11-07 10h28.27.237807 -0500,
,,,,0,0,0,0,116,0,116,0,107.22778074760572,,,,,,,,,,,,,,,,,,,,,,,,,,,,,,,,,,,,,,,,,,,,,,,,,,,,,,,,,,,,,,,,,,,,,,,,,,,,,,,,,,,,,,,,,,,,,,,,,,,,,,,,,,,107.21388406524784,6.0,"('l', 'space')",107.21438543123077,107.21440112721757,107.22778074760572,107.22778074760572,107.22778074760572,107.22778074760572,107.22778074760572,107.22778074760572,107.22778074760572,107.22778074760572,108.07876939850394,"['space', 'l', 'space']","[0.4137546337151434, 0.8057353131880518, 0.8067148030386306]","[None, None, None]",,,,,,,,,,,,,,,,,,,,,3001,2023-11-07_10h28.12.235,eb_03,2023.2.3,59.90757852538186,2023-11-07 10h28.27.237807 -0500,
,,,,0,0,0,0,117,0,117,0,108.09438690423849,,,,,,,,,,,,,,,,,,,,,,,,,,,,,,,,,,,,,,,,,,,,,,,,,,,,,,,,,,,,,,,,,,,,,,,,,,,,,,,,,,,,,,,,,,,,,,,,,,,,,,,,,,,108.08097045865725,5.0,"('j', 'l')",108.08164448049502,108.081659874646,108.09438690423849,108.09438690423849,108.09438690423849,108.09438690423849,108.09438690423849,108.09438690423849,108.09438690423849,108.09438690423849,108.82868918296299,"['j', 'l']","[0.4991480400203727, 0.7231312646472361]","[None, None]",,,,,,,,,,,,,,,,,,,,,3001,2023-11-07_10h28.12.235,eb_03,2023.2.3,59.90757852538186,2023-11-07 10h28.27.237807 -0500,
,,,,0,0,0,0,118,0,118,0,108.86101325435448,,,,,,,,,,,,,,,,,,,,,,,,,,,,,,,,,,,,,,,,,,,,,,,,,,,,,,,,,,,,,,,,,,,,,,,,,,,,,,,,,,,,,,,,,,,,,,,,,,,,,,,,,,,108.83087816927582,6.0,"('l', 'space')",108.83147793702665,108.83150389578077,108.86101325435448,108.86101325435448,108.86101325435448,108.86101325435448,108.86101325435448,108.86101325435448,108.86101325435448,108.86101325435448,109.51147029429558,"['l', 'space']","[0.5805459124385379, 0.5815380798303522]","[None, None]",,,,,,,,,,,,,,,,,,,,,3001,2023-11-07_10h28.12.235,eb_03,2023.2.3,59.90757852538186,2023-11-07 10h28.27.237807 -0500,
,,,,0,0,0,0,119,0,119,0,109.52761633216869,,,,,,,,,,,,,,,,,,,,,,,,,,,,,,,,,,,,,,,,,,,,,,,,,,,,,,,,,,,,,,,,,,,,,,,,,,,,,,,,,,,,,,,,,,,,,,,,,,,,,,,,,,,109.51367195814964,9.0,"('k', 'l')",109.5142273545498,109.51424274870078,109.52761633216869,109.52761633216869,109.52761633216869,109.52761633216869,109.52761633216869,109.52761633216869,109.52761633216869,109.52761633216869,110.32857161399443,"['k', 'l']","[0.4019219734473154, 0.7699517861474305]","[None, None]",,,,,,,,,,,,,,,,,,,,,3001,2023-11-07_10h28.12.235,eb_03,2023.2.3,59.90757852538186,2023-11-07 10h28.27.237807 -0500,
,,,,0,0,0,0,120,0,120,0,110.36088844109327,,,,,,,,,,,,,,,,,,,,,,,,,,,,,,,,,,,,,,,,,,,,,,,,,,,,,,,,,,,,,,,,,,,,,,,,,,,,,,,,,,,,,,,,,,,,,,,,,,,,,,,,,,,110.33084300422342,10.0,"('j', 'space')",110.33148050273303,110.3314958968549,110.36088844109327,110.36088844109327,110.36088844109327,110.36088844109327,110.36088844109327,110.36088844109327,110.36088844109327,110.36088844109327,111.01135996961966,"['j', 'space']","[0.5766753427160438, 0.5776681138086133]","[None, None]",,,,,,,,,,,,,,,,,,,,,3001,2023-11-07_10h28.12.235,eb_03,2023.2.3,59.90757852538186,2023-11-07 10h28.27.237807 -0500,
,,,,0,0,0,0,121,0,121,0,111.02750600749278,,,,,,,,,,,,,,,,,,,,,,,,,,,,,,,,,,,,,,,,,,,,,,,,,,,,,,,,,,,,,,,,,,,,,,,,,,,,,,,,,,,,,,,,,,,,,,,,,,,,,,,,,,,111.01357672575978,11.0,"('j', 'k')",111.01424712545122,111.0142625196022,111.02750600749278,111.02750600749278,111.02750600749278,111.02750600749278,111.02750600749278,111.02750600749278,111.02750600749278,111.02750600749278,111.56133070567739,"['j', 'k']","[0.45402962737716734, 0.4550139467755798]","[None, None]",,,,,,,,,,,,,,,,,,,,,3001,2023-11-07_10h28.12.235,eb_03,2023.2.3,59.90757852538186,2023-11-07 10h28.27.237807 -0500,
,,,,0,0,0,0,122,0,122,0,111.57746587708243,,,,,,,,,,,,,,,,,,,,,,,,,,,,,,,,,,,,,,,,,,,,,,,,,,,,,,,,,,,,,,,,,,,,,,,,,,,,,,,,,,,,,,,,,,,,,,,,,,,,,,,,,,,111.56364495801972,10.0,"('j', 'space')",111.5641267040337,111.56414300372126,111.57746587708243,111.57746587708243,111.57746587708243,111.57746587708243,111.57746587708243,111.57746587708243,111.57746587708243,111.57746587708243,112.12804936026805,"['j', 'space']","[0.48011635555303656, 0.4811067118716892]","[None, None]",,,,,,,,,,,,,,,,,,,,,3001,2023-11-07_10h28.12.235,eb_03,2023.2.3,59.90757852538186,2023-11-07 10h28.27.237807 -0500,
,,,,0,0,0,0,123,0,123,0,112.14408945021569,,,,,,,,,,,,,,,,,,,,,,,,,,,,,,,,,,,,,,,,,,,,,,,,,,,,,,,,,,,,,,,,,,,,,,,,,,,,,,,,,,,,,,,,,,,,,,,,,,,,,,,,,,,112.13026672007982,12.0,"('h', 'k')",112.13084777339827,112.13086437492166,112.14408945021569,112.14408945021569,112.14408945021569,112.14408945021569,112.14408945021569,112.14408945021569,112.14408945021569,112.14408945021569,112.86118983419146,"['h', 'k']","[0.6175042235699948, 0.6184936743811704]","[None, None]",,,,,,,,,,,,,,,,,,,,,3001,2023-11-07_10h28.12.235,eb_03,2023.2.3,59.90757852538186,2023-11-07 10h28.27.237807 -0500,
,,,,0,0,0,0,124,0,124,0,112.87736907511135,,,,,,,,,,,,,,,,,,,,,,,,,,,,,,,,,,,,,,,,,,,,,,,,,,,,,,,,,,,,,,,,,,,,,,,,,,,,,,,,,,,,,,,,,,,,,,,,,,,,,,,,,,,112.86346424289513,1.0,"('space',)",112.86398432333954,112.86400122669875,112.87736907511135,112.87736907511135,112.87736907511135,112.87736907511135,112.87736907511135,112.87736907511135,112.87736907511135,112.87736907511135,113.42782457562862,['space'],[0.47522433940321207],[None],,,,,,,,,,,,,,,,,,,,,3001,2023-11-07_10h28.12.235,eb_03,2023.2.3,59.90757852538186,2023-11-07 10h28.27.237807 -0500,
,,,,0,0,0,0,125,0,125,0,113.44399838332902,,,,,,,,,,,,,,,,,,,,,,,,,,,,,,,,,,,,,,,,,,,,,,,,,,,,,,,,,,,,,,,,,,,,,,,,,,,,,,,,,,,,,,,,,,,,,,,,,,,,,,,,,,,113.43008147727232,2.0,"('h', 'j')",113.43060004847939,113.43061544263037,113.44399838332902,113.44399838332902,113.44399838332902,113.44399838332902,113.44399838332902,113.44399838332902,113.44399838332902,113.44399838332902,113.9778170445934,"['h', 'j']","[0.45256537303794175, 0.46855746948858723]","[None, None]",,,,,,,,,,,,,,,,,,,,,3001,2023-11-07_10h28.12.235,eb_03,2023.2.3,59.90757852538186,2023-11-07 10h28.27.237807 -0500,
,,,,0,0,0,0,126,0,126,0,113.99395493260818,,,,,,,,,,,,,,,,,,,,,,,,,,,,,,,,,,,,,,,,,,,,,,,,,,,,,,,,,,,,,,,,,,,,,,,,,,,,,,,,,,,,,,,,,,,,,,,,,,,,,,,,,,,113.98001961395494,0.0,"('h', 'l')",113.98063356848434,113.98065831983695,113.99395493260818,113.99395493260818,113.99395493260818,113.99395493260818,113.99395493260818,113.99395493260818,113.99395493260818,113.99395493260818,114.52776423664181,"['h', 'l']","[0.46264581798459403, 0.46363979644957]","[None, None]",,,,,,,,,,,,,,,,,,,,,3001,2023-11-07_10h28.12.235,eb_03,2023.2.3,59.90757852538186,2023-11-07 10h28.27.237807 -0500,
,,,,0,0,0,0,127,0,127,0,114.543916613271,,,,,,,,,,,,,,,,,,,,,,,,,,,,,,,,,,,,,,,,,,,,,,,,,,,,,,,,,,,,,,,,,,,,,,,,,,,,,,,,,,,,,,,,,,,,,,,,,,,,,,,,,,,114.53001691243844,3.0,"('h',)",114.53060400267714,114.53061939679901,114.543916613271,114.543916613271,114.543916613271,114.543916613271,114.543916613271,114.543916613271,114.543916613271,114.543916613271,115.14435960227274,['h'],[0.5206391646934208],[None],,,,,,,,,,,,,,,,,,,,,3001,2023-11-07_10h28.12.235,eb_03,2023.2.3,59.90757852538186,2023-11-07 10h28.27.237807 -0500,
,,,,0,0,0,0,128,0,128,0,115.16054548381362,,,,,,,,,,,,,,,,,,,,,,,,,,,,,,,,,,,,,,,,,,,,,,,,,,,,,,,,,,,,,,,,,,,,,,,,,,,,,,,,,,,,,,,,,,,,,,,,,,,,,,,,,,,115.14685616953648,11.0,"('j', 'k')",115.14719906647224,115.14721295138588,115.16054548381362,115.16054548381362,115.16054548381362,115.16054548381362,115.16054548381362,115.16054548381362,115.16054548381362,115.16054548381362,116.06166228337679,"['j', 'k', 'l', 'j', 'k']","[0.4560290544759482, 0.47202598047442734, 0.4960589492984582, 0.8880172921635676, 0.8890082521829754]","[None, None, None, None, None]",,,,,,,,,,,,,,,,,,,,,3001,2023-11-07_10h28.12.235,eb_03,2023.2.3,59.90757852538186,2023-11-07 10h28.27.237807 -0500,
,,,,0,0,0,0,129,0,129,0,116.0938010214013,,,,,,,,,,,,,,,,,,,,,,,,,,,,,,,,,,,,,,,,,,,,,,,,,,,,,,,,,,,,,,,,,,,,,,,,,,,,,,,,,,,,,,,,,,,,,,,,,,,,,,,,,,,116.0638968484127,10.0,"('j', 'space')",116.06452197121689,116.0645376672037,116.0938010214013,116.0938010214013,116.0938010214013,116.0938010214013,116.0938010214013,116.0938010214013,116.0938010214013,116.0938010214013,116.6942859669798,"['j', 'space']","[0.5308213316893671, 0.5318110843363684]","[None, None]",,,,,,,,,,,,,,,,,,,,,3001,2023-11-07_10h28.12.235,eb_03,2023.2.3,59.90757852538186,2023-11-07 10h28.27.237807 -0500,
,,,,0,0,0,0,130,0,130,0,116.71041902547586,,,,,,,,,,,,,,,,,,,,,,,,,,,,,,,,,,,,,,,,,,,,,,,,,,,,,,,,,,,,,,,,,,,,,,,,,,,,,,,,,,,,,,,,,,,,,,,,,,,,,,,,,,,116.69647646252997,11.0,"('j', 'k')",116.69710581118125,116.69712120530312,116.71041902547586,116.71041902547586,116.71041902547586,116.71041902547586,116.71041902547586,116.71041902547586,116.71041902547586,116.71041902547586,117.2442328571924,"['j', 'k']","[0.4662066937889904, 0.467208520276472]","[None, None]",,,,,,,,,,,,,,,,,,,,,3001,2023-11-07_10h28.12.235,eb_03,2023.2.3,59.90757852538186,2023-11-07 10h28.27.237807 -0500,
,,,,0,0,0,0,131,0,131,0,117.26038342274842,,,,,,,,,,,,,,,,,,,,,,,,,,,,,,,,,,,,,,,,,,,,,,,,,,,,,,,,,,,,,,,,,,,,,,,,,,,,,,,,,,,,,,,,,,,,,,,,,,,,,,,,,,,117.24647194994031,10.0,"('j', 'space')",117.24708530073985,117.247100393055,117.26038342274842,117.26038342274842,117.26038342274842,117.26038342274842,117.26038342274842,117.26038342274842,117.26038342274842,117.26038342274842,117.79421566709061,"['j', 'space']","[0.46024614325142466, 0.46124887524638325]","[None, None]",,,,,,,,,,,,,,,,,,,,,3001,2023-11-07_10h28.12.235,eb_03,2023.2.3,59.90757852538186,2023-11-07 10h28.27.237807 -0500,
,,,,0,0,0,0,132,0,132,0,117.81034480157541,,,,,,,,,,,,,,,,,,,,,,,,,,,,,,,,,,,,,,,,,,,,,,,,,,,,,,,,,,,,,,,,,,,,,,,,,,,,,,,,,,,,,,,,,,,,,,,,,,,,,,,,,,,117.79640706814826,7.0,"('h', 'space')",117.79705935710808,117.79707505309489,117.81034480157541,117.81034480157541,117.81034480157541,117.81034480157541,117.81034480157541,117.81034480157541,117.81034480157541,117.81034480157541,118.37747517394018,"['h', 'space']","[0.4702616913127713, 0.47124933105078526]","[None, None]",,,,,,,,,,,,,,,,,,,,,3001,2023-11-07_10h28.12.235,eb_03,2023.2.3,59.90757852538186,2023-11-07 10h28.27.237807 -0500,
,,,,0,0,0,0,133,0,133,0,118.39364354839199,,,,,,,,,,,,,,,,,,,,,,,,,,,,,,,,,,,,,,,,,,,,,,,,,,,,,,,,,,,,,,,,,,,,,,,,,,,,,,,,,,,,,,,,,,,,,,,,,,,,,,,,,,,118.37970672053052,9.0,"('k', 'l')",118.38023857295047,118.38025517447386,118.39364354839199,118.39364354839199,118.39364354839199,118.39364354839199,118.39364354839199,118.39364354839199,118.39364354839199,118.39364354839199,118.92744077861425,"['k', 'l']","[0.46297815028810874, 0.4790088830050081]","[None, None]",,,,,,,,,,,,,,,,,,,,,3001,2023-11-07_10h28.12.235,eb_03,2023.2.3,59.90757852538186,2023-11-07 10h28.27.237807 -0500,
,,,,0,0,0,0,134,0,134,0,118.94359436261584,,,,,,,,,,,,,,,,,,,,,,,,,,,,,,,,,,,,,,,,,,,,,,,,,,,,,,,,,,,,,,,,,,,,,,,,,,,,,,,,,,,,,,,,,,,,,,,,,,,,,,,,,,,118.9296019950998,10.0,"('j', 'space')",118.93018878347357,118.93020417762455,118.94359436261584,118.94359436261584,118.94359436261584,118.94359436261584,118.94359436261584,118.94359436261584,118.94359436261584,118.94359436261584,119.64457285639946,"['k', 'space', 'j']","[0.5450539685261901, 0.5460440230090171, 0.6420445952971932]","[None, None, None]",,,,,,,,,,,,,,,,,,,,,3001,2023-11-07_10h28.12.235,eb_03,2023.2.3,59.90757852538186,2023-11-07 10h28.27.237807 -0500,
,,,,0,0,0,0,135,0,135,0,119.660205756285,,,,,,,,,,,,,,,,,,,,,,,,,,,,,,,,,,,,,,,,,,,,,,,,,,,,,,,,,,,,,,,,,,,,,,,,,,,,,,,,,,,,,,,,,,,,,,,,,,,,,,,,,,,119.64677934977226,12.0,"('h', 'k')",119.64743133686716,119.64744703285396,119.660205756285,119.660205756285,119.660205756285,119.660205756285,119.660205756285,119.660205756285,119.660205756285,119.660205756285,120.26085037834127,"['h', 'k']","[0.5244083141733427, 0.5254415326053277]","[None, None]",,,,,,,,,,,,,,,,,,,,,3001,2023-11-07_10h28.12.235,eb_03,2023.2.3,59.90757852538186,2023-11-07 10h28.27.237807 -0500,
,,,,0,0,0,0,136,0,136,0,120.27682496773195,,,,,,,,,,,,,,,,,,,,,,,,,,,,,,,,,,,,,,,,,,,,,,,,,,,,,,,,,,,,,,,,,,,,,,,,,,,,,,,,,,,,,,,,,,,,,,,,,,,,,,,,,,,120.26308101936593,9.0,"('k', 'l')",120.26354586202069,120.2635627653799,120.27682496773195,120.27682496773195,120.27682496773195,120.27682496773195,120.27682496773195,120.27682496773195,120.27682496773195,120.27682496773195,120.89397271134658,"['l', 'k']","[0.5478321579867043, 0.5958362172241323]","[None, None]",,,,,,,,,,,,,,,,,,,,,3001,2023-11-07_10h28.12.235,eb_03,2023.2.3,59.90757852538186,2023-11-07 10h28.27.237807 -0500,
,,,,0,0,0,0,137,0,137,0,120.91011422150768,,,,,,,,,,,,,,,,,,,,,,,,,,,,,,,,,,,,,,,,,,,,,,,,,,,,,,,,,,,,,,,,,,,,,,,,,,,,,,,,,,,,,,,,,,,,,,,,,,,,,,,,,,,120.89614992565475,7.0,"('h', 'space')",120.89678410385386,120.89679949797573,120.91011422150768,120.91011422150768,120.91011422150768,120.91011422150768,120.91011422150768,120.91011422150768,120.91011422150768,120.91011422150768,122.11117285536602,"['h', 'j', 'h', 'space']","[0.6585543574765325, 0.6745449446898419, 1.1545031330024358, 1.155501337343594]","[None, None, None, None]",,,,,,,,,,,,,,,,,,,,,3001,2023-11-07_10h28.12.235,eb_03,2023.2.3,59.90757852538186,2023-11-07 10h28.27.237807 -0500,
,,,,0,0,0,0,138,0,138,0,122.12669407227077,,,,,,,,,,,,,,,,,,,,,,,,,,,,,,,,,,,,,,,,,,,,,,,,,,,,,,,,,,,,,,,,,,,,,,,,,,,,,,,,,,,,,,,,,,,,,,,,,,,,,,,,,,,122.11344575483236,8.0,"('k',)",122.11406061489834,122.11407661272096,122.12669407227077,122.12669407227077,122.12669407227077,122.12669407227077,122.12669407227077,122.12669407227077,122.12669407227077,122.12669407227077,122.74388015028671,['k'],[0.5459806353901513],[None],,,,,,,,,,,,,,,,,,,,,3001,2023-11-07_10h28.12.235,eb_03,2023.2.3,59.90757852538186,2023-11-07 10h28.27.237807 -0500,
,,,,0,0,0,0,139,0,139,0,122.76001079400885,,,,,,,,,,,,,,,,,,,,,,,,,,,,,,,,,,,,,,,,,,,,,,,,,,,,,,,,,,,,,,,,,,,,,,,,,,,,,,,,,,,,,,,,,,,,,,,,,,,,,,,,,,,122.74608573812293,9.0,"('k', 'l')",122.74666196189355,122.74667795974528,122.76001079400885,122.76001079400885,122.76001079400885,122.76001079400885,122.76001079400885,122.76001079400885,122.76001079400885,122.76001079400885,123.32758397428552,"['k', 'l']","[0.43264716721023433, 0.5286616244120523]","[None, None]",,,,,,,,,,,,,,,,,,,,,3001,2023-11-07_10h28.12.235,eb_03,2023.2.3,59.90757852538186,2023-11-07 10h28.27.237807 -0500,
,,,,0,0,0,0,140,0,140,0,123.34327271566144,,,,,,,,,,,,,,,,,,,,,,,,,,,,,,,,,,,,,,,,,,,,,,,,,,,,,,,,,,,,,,,,,,,,,,,,,,,,,,,,,,,,,,,,,,,,,,,,,,,,,,,,,,,123.32982548177824,14.0,"('l',)",123.33038359481725,123.33039929080405,123.34327271566144,123.34327271566144,123.34327271566144,123.34327271566144,123.34327271566144,123.34327271566144,123.34327271566144,123.34327271566144,124.4441782834765,"['l', 'k', 'l']","[0.5693724835291505, 0.5853760501486249, 1.0254087823268492]","[None, None, None]",,,,,,,,,,,,,,,,,,,,,3001,2023-11-07_10h28.12.235,eb_03,2023.2.3,59.90757852538186,2023-11-07 10h28.27.237807 -0500,
,,,,0,0,0,0,141,0,141,0,124.45988090973697,,,,,,,,,,,,,,,,,,,,,,,,,,,,,,,,,,,,,,,,,,,,,,,,,,,,,,,,,,,,,,,,,,,,,,,,,,,,,,,,,,,,,,,,,,,,,,,,,,,,,,,,,,,124.44639443591586,11.0,"('j', 'k')",124.44703253809712,124.4470569876139,124.45988090973697,124.45988090973697,124.45988090973697,124.45988090973697,124.45988090973697,124.45988090973697,124.45988090973697,124.45988090973697,125.11035183459171,"['j', 'k']","[0.5808187811053358, 0.5818043079052586]","[None, None]",,,,,,,,,,,,,,,,,,,,,3001,2023-11-07_10h28.12.235,eb_03,2023.2.3,59.90757852538186,2023-11-07 10h28.27.237807 -0500,
,,,,0,0,0,0,142,0,142,0,125.1264764413936,,,,,,,,,,,,,,,,,,,,,,,,,,,,,,,,,,,,,,,,,,,,,,,,,,,,,,,,,,,,,,,,,,,,,,,,,,,,,,,,,,,,,,,,,,,,,,,,,,,,,,,,,,,125.11258187194471,13.0,"('k', 'space')",125.11314904034953,125.11316473633633,125.1264764413936,125.1264764413936,125.1264764413936,125.1264764413936,125.1264764413936,125.1264764413936,125.1264764413936,125.1264764413936,125.81045225870912,"['k', 'space']","[0.6102221917535644, 0.6112125481013209]","[None, None]",,,,,,,,,,,,,,,,,,,,,3001,2023-11-07_10h28.12.235,eb_03,2023.2.3,59.90757852538186,2023-11-07 10h28.27.237807 -0500,
,,,,0,0,0,0,143,0,143,0,125.82642473519081,,,,,,,,,,,,,,,,,,,,,,,,,,,,,,,,,,,,,,,,,,,,,,,,,,,,,,,,,,,,,,,,,,,,,,,,,,,,,,,,,,,,,,,,,,,,,,,,,,,,,,,,,,,125.81269950125716,14.0,"('l',)",125.81321384664625,125.81323044816963,125.82642473519081,125.82642473519081,125.82642473519081,125.82642473519081,125.82642473519081,125.82642473519081,125.82642473519081,125.82642473519081,126.59352739810129,['l'],[0.6942793263588101],[None],,,,,,,,,,,,,,,,,,,,,3001,2023-11-07_10h28.12.235,eb_03,2023.2.3,59.90757852538186,2023-11-07 10h28.27.237807 -0500,
,,,,0,0,0,0,144,0,144,0,126.60971509071533,,,,,,,,,,,,,,,,,,,,,,,,,,,,,,,,,,,,,,,,,,,,,,,,,,,,,,,,,,,,,,,,,,,,,,,,,,,,,,,,,,,,,,,,,,,,,,,,,,,,,,,,,,,126.59570310320123,5.0,"('j', 'l')",126.59630800233572,126.5963233964867,126.60971509071533,126.60971509071533,126.60971509071533,126.60971509071533,126.60971509071533,126.60971509071533,126.60971509071533,126.60971509071533,127.89398599255946,"['j', 'j', 'l']","[0.44699088332708925, 1.2069666632160079, 1.2079546047898475]","[None, None, None]",,,,,,,,,,,,,,,,,,,,,3001,2023-11-07_10h28.12.235,eb_03,2023.2.3,59.90757852538186,2023-11-07 10h28.27.237807 -0500,
,,,,0,0,0,0,145,0,145,0,127.90960229089251,,,,,,,,,,,,,,,,,,,,,,,,,,,,,,,,,,,,,,,,,,,,,,,,,,,,,,,,,,,,,,,,,,,,,,,,,,,,,,,,,,,,,,,,,,,,,,,,,,,,,,,,,,,127.89625164770405,8.0,"('k',)",127.89676720046555,127.89678319831728,127.90960229089251,127.90960229089251,127.90960229089251,127.90960229089251,127.90960229089251,127.90960229089251,127.90960229089251,127.90960229089251,128.5600895154348,['k'],[0.5701473219378386],[None],,,,,,,,,,,,,,,,,,,,,3001,2023-11-07_10h28.12.235,eb_03,2023.2.3,59.90757852538186,2023-11-07 10h28.27.237807 -0500,
,,,,0,0,0,0,146,0,146,0,128.57622227206593,,,,,,,,,,,,,,,,,,,,,,,,,,,,,,,,,,,,,,,,,,,,,,,,,,,,,,,,,,,,,,,,,,,,,,,,,,,,,,,,,,,,,,,,,,,,,,,,,,,,,,,,,,,128.56230898815556,7.0,"('h', 'space')",128.56295825864072,128.56297395462752,128.57622227206593,128.57622227206593,128.57622227206593,128.57622227206593,128.57622227206593,128.57622227206593,128.57622227206593,128.57622227206593,129.24333396018483,"['space', 'h']","[0.5835187924676575, 0.6074609056813642]","[None, None]",,,,,,,,,,,,,,,,,,,,,3001,2023-11-07_10h28.12.235,eb_03,2023.2.3,59.90757852538186,2023-11-07 10h28.27.237807 -0500,
,,,,0,0,0,0,147,0,147,0,129.25950505124638,,,,,,,,,,,,,,,,,,,,,,,,,,,,,,,,,,,,,,,,,,,,,,,,,,,,,,,,,,,,,,,,,,,,,,,,,,,,,,,,,,,,,,,,,,,,,,,,,,,,,,,,,,,129.2455413590942,9.0,"('k', 'l')",129.24613358068746,129.2461486730026,129.25950505124638,129.25950505124638,129.25950505124638,129.25950505124638,129.25950505124638,129.25950505124638,129.25950505124638,129.25950505124638,129.8266158036422,"['k', 'l']","[0.48422598716570064, 0.5162346296419855]","[None, None]",,,,,,,,,,,,,,,,,,,,,3001,2023-11-07_10h28.12.235,eb_03,2023.2.3,59.90757852538186,2023-11-07 10h28.27.237807 -0500,
,,,,0,0,0,0,148,0,148,0,129.8428074202384,,,,,,,,,,,,,,,,,,,,,,,,,,,,,,,,,,,,,,,,,,,,,,,,,,,,,,,,,,,,,,,,,,,,,,,,,,,,,,,,,,,,,,,,,,,,,,,,,,,,,,,,,,,129.8288536889886,8.0,"('k',)",129.82948515054886,129.8295002428349,129.8428074202384,129.8428074202384,129.8428074202384,129.8428074202384,129.8428074202384,129.8428074202384,129.8428074202384,129.8428074202384,130.34331074822694,['k'],[0.4289338592207059],[None],,,,,,,,,,,,,,,,,,,,,3001,2023-11-07_10h28.12.235,eb_03,2023.2.3,59.90757852538186,2023-11-07 10h28.27.237807 -0500,
,,,,0,0,0,0,149,0,149,0,130.35942750703543,,,,,,,,,,,,,,,,,,,,,,,,,,,,,,,,,,,,,,,,,,,,,,,,,,,,,,,,,,,,,,,,,,,,,,,,,,,,,,,,,,,,,,,,,,,,,,,,,,,,,,,,,,,130.3454529484152,6.0,"('l', 'space')",130.34656766525586,130.34658305940684,130.35942750703543,130.35942750703543,130.35942750703543,130.35942750703543,130.35942750703543,130.35942750703543,130.35942750703543,130.35942750703543,130.89330472639995,"['l', 'space']","[0.4562786809983663, 0.4572515302861575]","[None, None]",,,,,,,,,,,,,,,,,,,,,3001,2023-11-07_10h28.12.235,eb_03,2023.2.3,59.90757852538186,2023-11-07 10h28.27.237807 -0500,
,,,,0,0,0,0,150,0,150,0,130.9093819434056,,,,,,,,,,,,,,,,,,,,,,,,,,,,,,,,,,,,,,,,,,,,,,,,,,,,,,,,,,,,,,,,,,,,,,,,,,,,,,,,,,,,,,,,,,,,,,,,,,,,,,,,,,,130.89558396462235,7.0,"('h', 'space')",130.89612607983872,130.89614177582553,130.9093819434056,130.9093819434056,130.9093819434056,130.9093819434056,130.9093819434056,130.9093819434056,130.9093819434056,130.9093819434056,131.49372145481175,"['h', 'space']","[0.44237083033658564, 0.5783611519727856]","[None, None]",,,,,,,,,,,,,,,,,,,,,3001,2023-11-07_10h28.12.235,eb_03,2023.2.3,59.90757852538186,2023-11-07 10h28.27.237807 -0500,
,,,,0,0,0,0,151,0,151,0,131.52600749363774,,,,,,,,,,,,,,,,,,,,,,,,,,,,,,,,,,,,,,,,,,,,,,,,,,,,,,,,,,,,,,,,,,,,,,,,,,,,,,,,,,,,,,,,,,,,,,,,,,,,,,,,,,,131.49598710998544,8.0,"('k',)",131.4964809298399,131.4964966258267,131.52600749363774,131.52600749363774,131.52600749363774,131.52600749363774,131.52600749363774,131.52600749363774,131.52600749363774,131.52600749363774,132.20979767575045,['k'],[0.6017430392093956],[None],,,,,,,,,,,,,,,,,,,,,3001,2023-11-07_10h28.12.235,eb_03,2023.2.3,59.90757852538186,2023-11-07 10h28.27.237807 -0500,
,,,,0,0,0,0,152,0,152,0,132.2259609188186,,,,,,,,,,,,,,,,,,,,,,,,,,,,,,,,,,,,,,,,,,,,,,,,,,,,,,,,,,,,,,,,,,,,,,,,,,,,,,,,,,,,,,,,,,,,,,,,,,,,,,,,,,,132.21201413002564,9.0,"('k', 'l')",132.21255986735923,132.21257586521097,132.2259609188186,132.2259609188186,132.2259609188186,132.2259609188186,132.2259609188186,132.2259609188186,132.2259609188186,132.2259609188186,132.69312204926973,"['k', 'l']","[0.3897394738160074, 0.41379115707241]","[None, None]",,,,,,,,,,,,,,,,,,,,,3001,2023-11-07_10h28.12.235,eb_03,2023.2.3,59.90757852538186,2023-11-07 10h28.27.237807 -0500,
,,,,0,0,0,0,153,0,153,0,132.70925148561946,,,,,,,,,,,,,,,,,,,,,,,,,,,,,,,,,,,,,,,,,,,,,,,,,,,,,,,,,,,,,,,,,,,,,,,,,,,,,,,,,,,,,,,,,,,,,,,,,,,,,,,,,,,132.69530198021675,10.0,"('j', 'space')",132.69590023873025,132.69591593471705,132.70925148561946,132.70925148561946,132.70925148561946,132.70925148561946,132.70925148561946,132.70925148561946,132.70925148561946,132.70925148561946,133.2430897668528,"['j', 'space']","[0.46651065259356983, 0.46752213811851107]","[None, None]",,,,,,,,,,,,,,,,,,,,,3001,2023-11-07_10h28.12.235,eb_03,2023.2.3,59.90757852538186,2023-11-07 10h28.27.237807 -0500,
,,,,0,0,0,0,154,0,154,0,133.2592155810562,,,,,,,,,,,,,,,,,,,,,,,,,,,,,,,,,,,,,,,,,,,,,,,,,,,,,,,,,,,,,,,,,,,,,,,,,,,,,,,,,,,,,,,,,,,,,,,,,,,,,,,,,,,133.24530018423684,13.0,"('k', 'space')",133.24591685534688,133.24593224949786,133.2592155810562,133.2592155810562,133.2592155810562,133.2592155810562,133.2592155810562,133.2592155810562,133.2592155810562,133.2592155810562,134.54349765120423,"['k', 'k', 'space']","[0.42051356661249883, 1.2445410418440588, 1.2455473959853407]","[None, None, None]",,,,,,,,,,,,,,,,,,,,,3001,2023-11-07_10h28.12.235,eb_03,2023.2.3,59.90757852538186,2023-11-07 10h28.27.237807 -0500,
,,,,0,0,0,0,155,0,155,0,134.5591308529256,,,,,,,,,,,,,,,,,,,,,,,,,,,,,,,,,,,,,,,,,,,,,,,,,,,,,,,,,,,,,,,,,,,,,,,,,,,,,,,,,,,,,,,,,,,,,,,,,,,,,,,,,,,134.5456881467253,10.0,"('j', 'space')",134.54618981457315,134.54620551055996,134.5591308529256,134.5591308529256,134.5591308529256,134.5591308529256,134.5591308529256,134.5591308529256,134.5591308529256,134.5591308529256,135.1262651492725,"['j', 'space']","[0.49664030445273966, 0.4976394143013749]","[None, None]",,,,,,,,,,,,,,,,,,,,,3001,2023-11-07_10h28.12.235,eb_03,2023.2.3,59.90757852538186,2023-11-07 10h28.27.237807 -0500,
,,,,0,0,0,0,156,0,156,0,135.14241179084638,,,,,,,,,,,,,,,,,,,,,,,,,,,,,,,,,,,,,,,,,,,,,,,,,,,,,,,,,,,,,,,,,,,,,,,,,,,,,,,,,,,,,,,,,,,,,,,,,,,,,,,,,,,135.12851993797813,13.0,"('k', 'space')",135.12929930404061,135.12931500002742,135.14241179084638,135.14241179084638,135.14241179084638,135.14241179084638,135.14241179084638,135.14241179084638,135.14241179084638,135.14241179084638,135.65970167366322,"['k', 'space']","[0.4573342360672541, 0.45835870096925646]","[None, None]",,,,,,,,,,,,,,,,,,,,,3001,2023-11-07_10h28.12.235,eb_03,2023.2.3,59.90757852538186,2023-11-07 10h28.27.237807 -0500,
,,,,0,0,0,0,157,0,157,0,135.67570614579017,,,,,,,,,,,,,,,,,,,,,,,,,,,,,,,,,,,,,,,,,,,,,,,,,,,,,,,,,,,,,,,,,,,,,,,,,,,,,,,,,,,,,,,,,,,,,,,,,,,,,,,,,,,135.66197638420272,10.0,"('j', 'space')",135.66244333976647,135.6624605449906,135.67570614579017,135.67570614579017,135.67570614579017,135.67570614579017,135.67570614579017,135.67570614579017,135.67570614579017,135.67570614579017,136.1262259093055,"['j', 'space']","[0.3800671244971454, 0.3810641214076895]","[None, None]",,,,,,,,,,,,,,,,,,,,,3001,2023-11-07_10h28.12.235,eb_03,2023.2.3,59.90757852538186,2023-11-07 10h28.27.237807 -0500,
,,,,0,0,0,0,158,0,158,0,136.14233632935793,,,,,,,,,,,,,,,,,,,,,,,,,,,,,,,,,,,,,,,,,,,,,,,,,,,,,,,,,,,,,,,,,,,,,,,,,,,,,,,,,,,,,,,,,,,,,,,,,,,,,,,,,,,136.12840070886887,11.0,"('j', 'k')",136.12900138215628,136.12901858738041,136.14233632935793,136.14233632935793,136.14233632935793,136.14233632935793,136.14233632935793,136.14233632935793,136.14233632935793,136.14233632935793,136.84333504681126,"['h', 'k', 'j', 'k']","[0.47342111213947646, 0.4744003001542296, 0.6335301267972682, 0.6344410976453219]","[None, None, None, None]",,,,,,,,,,,,,,,,,,,,,3001,2023-11-07_10h28.12.235,eb_03,2023.2.3,59.90757852538186,2023-11-07 10h28.27.237807 -0500,
,,,,0,0,0,0,159,0,159,0,136.8589736817521,,,,,,,,,,,,,,,,,,,,,,,,,,,,,,,,,,,,,,,,,,,,,,,,,,,,,,,,,,,,,,,,,,,,,,,,,,,,,,,,,,,,,,,,,,,,,,,,,,,,,,,,,,,136.84552463682485,13.0,"('k', 'space')",136.84612440457568,136.84613979872665,136.8589736817521,136.8589736817521,136.8589736817521,136.8589736817521,136.8589736817521,136.8589736817521,136.8589736817521,136.8589736817521,137.59274531542906,"['k', 'space']","[0.6608233329025097, 0.6618139910860918]","[None, None]",,,,,,,,,,,,,,,,,,,,,3001,2023-11-07_10h28.12.235,eb_03,2023.2.3,59.90757852538186,2023-11-07 10h28.27.237807 -0500,
,,,,0,0,0,0,160,0,160,0,137.60892455634894,,,,,,,,,,,,,,,,,,,,,,,,,,,,,,,,,,,,,,,,,,,,,,,,,,,,,,,,,,,,,,,,,,,,,,,,,,,,,,,,,,,,,,,,,,,,,,,,,,,,,,,,,,,137.594960260496,11.0,"('j', 'k')",137.59550992184086,137.5955262214993,137.60892455634894,137.60892455634894,137.60892455634894,137.60892455634894,137.60892455634894,137.60892455634894,137.60892455634894,137.60892455634894,138.10979281601612,"['j', 'k']","[0.4388235375517979, 0.43981932711903937]","[None, None]",,,,,,,,,,,,,,,,,,,,,3001,2023-11-07_10h28.12.235,eb_03,2023.2.3,59.90757852538186,2023-11-07 10h28.27.237807 -0500,
,,,,0,0,0,0,161,0,161,0,138.12554886902217,,,,,,,,,,,,,,,,,,,,,,,,,,,,,,,,,,,,,,,,,,,,,,,,,,,,,,,,,,,,,,,,,,,,,,,,,,,,,,,,,,,,,,,,,,,,,,,,,,,,,,,,,,,138.1121556655562,12.0,"('h', 'k')",138.11266699247062,138.11268510323134,138.12554886902217,138.12554886902217,138.12554886902217,138.12554886902217,138.12554886902217,138.12554886902217,138.12554886902217,138.12554886902217,138.6594206551381,"['h', 'k']","[0.4342436300648842, 0.43520621658535674]","[None, None]",,,,,,,,,,,,,,,,,,,,,3001,2023-11-07_10h28.12.235,eb_03,2023.2.3,59.90757852538186,2023-11-07 10h28.27.237807 -0500,
,,,,0,0,0,0,162,0,162,0,138.67548670383985,,,,,,,,,,,,,,,,,,,,,,,,,,,,,,,,,,,,,,,,,,,,,,,,,,,,,,,,,,,,,,,,,,,,,,,,,,,,,,,,,,,,,,,,,,,,,,,,,,,,,,,,,,,138.661694460141,10.0,"('j', 'space')",138.6621629249421,138.66218013016623,138.67548670383985,138.67548670383985,138.67548670383985,138.67548670383985,138.67548670383985,138.67548670383985,138.67548670383985,138.67548670383985,139.15938126426772,"['j', 'space']","[0.41234018391696736, 0.4132970353530254]","[None, None]",,,,,,,,,,,,,,,,,,,,,3001,2023-11-07_10h28.12.235,eb_03,2023.2.3,59.90757852538186,2023-11-07 10h28.27.237807 -0500,
