practice_loop.thisRepN,practice_loop.thisTrialN,practice_loop.thisN,practice_loop.thisIndex,blocks.thisRepN,blocks.thisTrialN,blocks.thisN,blocks.thisIndex,trials.thisRepN,trials.thisTrialN,trials.thisN,trials.thisIndex,thisRow.t,notes,path,resp order,Instructions_0.started,welcome_text.started,instructions_0_keypress.started,Instructions_0.stopped,instructions_0_keypress.keys,instructions_0_keypress.rt,instructions_0_keypress.duration,consent_0.started,consent_image_0.started,consent0_key_resp.started,consent0_text.started,consent_0.stopped,consent0_key_resp.keys,consent0_key_resp.rt,consent0_key_resp.duration,consent_1.started,consent_image_1.started,consent1_key_resp.started,consent1_text.started,consent_1.stopped,consent1_key_resp.keys,consent1_key_resp.rt,consent1_key_resp.duration,consent_2.started,consent2_text.started,consent_image_2.started,consent2_key_resp.started,consent_2.stopped,consent2_key_resp.keys,consent2_key_resp.rt,consent2_key_resp.duration,consent_3.started,agree_button.started,disagree_button.started,consent_image_3.started,consent_3.stopped,agree_button.numClicks,agree_button.timesOn,agree_button.timesOff,disagree_button.numClicks,disagree_button.timesOn,disagree_button.timesOff,demographics.started,age_slider.started,Gender.started,Handedness.started,age_text.started,handedness_text.started,gender_text.started,demographics.stopped,age_slider.response,age_slider.rt,Gender.text,Handedness.response,Handedness.rt,instructions_1.started,instructions_text1.started,instructions1_key_resp.started,instr1_cnt_text.started,instructions_1.stopped,instructions1_key_resp.keys,instructions1_key_resp.rt,instructions1_key_resp.duration,instructions_2.started,instructions_text2.started,key_stim_association.started,instr2_cnt_text.started,instructions2_key_resp.started,instructions_2.stopped,instructions2_key_resp.keys,instructions2_key_resp.rt,instructions2_key_resp.duration,instructions_3.started,instructions_text3.started,examplestim_image_2.started,instructions3_key_resp.started,instr3_cnt_text.started,instructions_3.stopped,instructions3_key_resp.keys,instructions3_key_resp.rt,instructions3_key_resp.duration,instructions_4.started,instructions_text4.started,handplacement_image.started,instructions4_key_resp.started,instr4_cnt_text.started,instructions_4.stopped,instructions4_key_resp.keys,instructions4_key_resp.rt,instructions4_key_resp.duration,instructions_5.started,instructions_text5.started,image.started,instructions5_key_resp.started,instr5_cnt_text.started,instructions_5.stopped,instructions5_key_resp.keys,instructions5_key_resp.rt,instructions5_key_resp.duration,begin_exp_timer.started,text_countdown.started,begin_exp_timer.stopped,stim_resp_selector.started,node idx,stim,stim_resp_selector.stopped,stim_display.started,space.started,h.started,j.started,k.started,l.started,key_resp.started,text.started,accuracy_text.started,stim_display.stopped,key_resp.keys,key_resp.rt,key_resp.duration,break_2.started,break_text.started,break_key_resp.started,break_2.stopped,break_key_resp.keys,break_key_resp.rt,break_key_resp.duration,debriefing.started,graph.started,debrief_text.started,debriefing_title.started,demo_scr_adv.started,demo_scr_adv_keypress.started,debriefing.stopped,demo_scr_adv_keypress.keys,demo_scr_adv_keypress.rt,demo_scr_adv_keypress.duration,done.started,text_countdown_2.started,done.stopped,participant,date,expName,psychopyVersion,frameRate,expStart,
,,,,,,,,,,,,,,[ 1.  0.  2. ... 12. 14. 12.],"[('h',), ('h', 'k'), ('h', 'space'), ('k', 'l'), ('l',), ('j', 'space'), ('j', 'l'), ('l', 'space'), ('k',), ('k', 'space'), ('j', 'k'), ('j',), ('h', 'l'), ('h', 'j'), ('space',)]",0.010625517665175721,0.01860688062151894,0.01860688062151894,41.32989512727363,return,41.3053238063294,None,,,,,,,,,,,,,,,,,,,,,,,,,,,,,,,,,,,,,,,,,,,,,,,,,,,,,,,,,,,,,,,,,,,,,,,,,,,,,,,,,,,,,,,,,,,,,,,,,,,,,,,,,,,,,,,,,,,,,,,,,,,,,,,,,,,,,3002,2010-05-15_01h40.47.194,eb_03,2023.2.3,119.99550875322565,2010-05-15 01h40.56.835990 -0400,
,,,,,,,,,,,,,,,,,,,,,,,41.329921689553885,41.337708363018464,41.337708363018464,41.337708363018464,72.09033682185691,space,30.744281864492223,None,,,,,,,,,,,,,,,,,,,,,,,,,,,,,,,,,,,,,,,,,,,,,,,,,,,,,,,,,,,,,,,,,,,,,,,,,,,,,,,,,,,,,,,,,,,,,,,,,,,,,,,,,,,,,,,,,,,,,,,,,,,,,3002,2010-05-15_01h40.47.194,eb_03,2023.2.3,119.99550875322565,2010-05-15 01h40.56.835990 -0400,
,,,,,,,,,,,,,,,,,,,,,,,,,,,,,,,72.09036278046551,72.0981180621311,72.0981180621311,72.0981180621311,74.15705886686919,space,2.0549244665307924,None,,,,,,,,,,,,,,,,,,,,,,,,,,,,,,,,,,,,,,,,,,,,,,,,,,,,,,,,,,,,,,,,,,,,,,,,,,,,,,,,,,,,,,,,,,,,,,,,,,,,,,,,,,,,,,,,,,,,,3002,2010-05-15_01h40.47.194,eb_03,2023.2.3,119.99550875322565,2010-05-15 01h40.56.835990 -0400,
,,,,,,,,,,,,,,,,,,,,,,,,,,,,,,,,,,,,,,,74.15708422177704,74.16492311426555,74.16492311426555,74.16492311426555,89.47476281088893,space,15.307171092514182,None,,,,,,,,,,,,,,,,,,,,,,,,,,,,,,,,,,,,,,,,,,,,,,,,,,,,,,,,,,,,,,,,,,,,,,,,,,,,,,,,,,,,,,,,,,,,,,,,,,,,,,,,,,,,,3002,2010-05-15_01h40.47.194,eb_03,2023.2.3,119.99550875322565,2010-05-15 01h40.56.835990 -0400,
,,,,,,,,,,,,,,,,,,,,,,,,,,,,,,,,,,,,,,,,,,,,,,,89.4747884676326,89.4909036247991,89.4909036247991,89.4909036247991,94.5003169363772,1,[5.022742145403754],[5.022748484130716],0,,,94.5004059803905,94.54961321692099,94.54961321692099,94.54961321692099,94.54961321692099,94.54961321692099,94.54961321692099,106.84072378606652,18-20,6.129976202617399,Male,Right Handed,12.308499206759734,106.84075125388335,106.85042143482133,108.84222515884903,108.84222515884903,111.0596018434444,space,2.212872264382895,None,,,,,,,,,,,,,,,,,,,,,,,,,,,,,,,,,,,,,,,,,,,,,,,,,,,,,,,,,,,,,,,,,,,,,,,,,,,,,3002,2010-05-15_01h40.47.194,eb_03,2023.2.3,119.99550875322565,2010-05-15 01h40.56.835990 -0400,
,,,,,,,,,,,,,,,,,,,,,,,,,,,,,,,,,,,,,,,,,,,,,,,,,,,,,,,,,,,,,,,,,,,,,,,,,,,,,,,111.05962750018807,111.0673921390262,111.0673921390262,114.05925019501592,114.05925019501592,129.91073985624826,space,15.84295773456688,None,,,,,,,,,,,,,,,,,,,,,,,,,,,,,,,,,,,,,,,,,,,,,,,,,,,,,,,,,,,,,,,,,,,,3002,2010-05-15_01h40.47.194,eb_03,2023.2.3,119.99550875322565,2010-05-15 01h40.56.835990 -0400,
,,,,,,,,,,,,,,,,,,,,,,,,,,,,,,,,,,,,,,,,,,,,,,,,,,,,,,,,,,,,,,,,,,,,,,,,,,,,,,,,,,,,,,,,129.91077154988307,129.91864485261613,129.91864485261613,132.91047000756953,132.91047000756953,150.79564638115698,k,17.87067940289853,None,,,,,,,,,,,,,,,,,,,,,,,,,,,,,,,,,,,,,,,,,,,,,,,,,,,,,,,,,,,3002,2010-05-15_01h40.47.194,eb_03,2023.2.3,119.99550875322565,2010-05-15 01h40.56.835990 -0400,
,,,,,,,,,,,,,,,,,,,,,,,,,,,,,,,,,,,,,,,,,,,,,,,,,,,,,,,,,,,,,,,,,,,,,,,,,,,,,,,,,,,,,,,,,,,,,,,,,150.79567445264547,150.8033512548427,150.8033512548427,153.7952473431942,153.7952473431942,156.34585966423037,space,2.5449485174613073,None,,,,,,,,,,,,,,,,,,,,,,,,,,,,,,,,,,,,,,,,,,,,,,,,,,3002,2010-05-15_01h40.47.194,eb_03,2023.2.3,119.99550875322565,2010-05-15 01h40.56.835990 -0400,
,,,,,,,,,,,,,,,,,,,,,,,,,,,,,,,,,,,,,,,,,,,,,,,,,,,,,,,,,,,,,,,,,,,,,,,,,,,,,,,,,,,,,,,,,,,,,,,,,,,,,,,,,,156.3458880375547,156.35374081489863,156.35374081489863,159.34561698153266,159.34561698153266,161.28793939453317,space,1.9386097300157417,None,,,,,,,,,,,,,,,,,,,,,,,,,,,,,,,,,,,,,,,,,3002,2010-05-15_01h40.47.194,eb_03,2023.2.3,119.99550875322565,2010-05-15 01h40.56.835990 -0400,
,,,,0,0,0,0,0,0,0,0,166.3210544140602,,,,,,,,,,,,,,,,,,,,,,,,,,,,,,,,,,,,,,,,,,,,,,,,,,,,,,,,,,,,,,,,,,,,,,,,,,,,,,,,,,,,,,,,,,,,,,,,,,,,,,,161.2879701826314,161.31241201245575,166.29614321660483,166.30036601622123,1.0,"('h', 'k')",166.3007626394392,166.30077712796628,166.3210544140602,166.3210544140602,166.3210544140602,166.3210544140602,166.3210544140602,166.3210544140602,166.3210544140602,166.3210544140602,169.9802077774366,"['h', 'k']","[3.586183144536335, 3.58715508269961]","[None, None]",,,,,,,,,,,,,,,,,,,,,3002,2010-05-15_01h40.47.194,eb_03,2023.2.3,119.99550875322565,2010-05-15 01h40.56.835990 -0400,
,,,,0,0,0,0,1,0,1,0,169.99637545549194,,,,,,,,,,,,,,,,,,,,,,,,,,,,,,,,,,,,,,,,,,,,,,,,,,,,,,,,,,,,,,,,,,,,,,,,,,,,,,,,,,,,,,,,,,,,,,,,,,,,,,,,,,169.98316886852263,0.0,"('h',)",169.98353923129616,169.98355130507844,169.99637545549194,169.99637545549194,169.99637545549194,169.99637545549194,169.99637545549194,169.99637545549194,169.99637545549194,169.99637545549194,170.82185158444918,['h'],[0.7588518814591225],[None],,,,,,,,,,,,,,,,,,,,,3002,2010-05-15_01h40.47.194,eb_03,2023.2.3,119.99550875322565,2010-05-15 01h40.56.835990 -0400,
,,,,0,0,0,0,2,0,2,0,170.83800628321478,,,,,,,,,,,,,,,,,,,,,,,,,,,,,,,,,,,,,,,,,,,,,,,,,,,,,,,,,,,,,,,,,,,,,,,,,,,,,,,,,,,,,,,,,,,,,,,,,,,,,,,,,,170.82397173772915,2.0,"('h', 'space')",170.82441605231725,170.82442842793535,170.83800628321478,170.83800628321478,170.83800628321478,170.83800628321478,170.83800628321478,170.83800628321478,170.83800628321478,170.83800628321478,176.3144823614566,"['space', 'h', 'space']","[2.2852342672704253, 5.413228259363677, 5.414213780517457]","[None, None, None]",,,,,,,,,,,,,,,,,,,,,3002,2010-05-15_01h40.47.194,eb_03,2023.2.3,119.99550875322565,2010-05-15 01h40.56.835990 -0400,
,,,,0,0,0,0,3,0,3,0,176.33006989504793,,,,,,,,,,,,,,,,,,,,,,,,,,,,,,,,,,,,,,,,,,,,,,,,,,,,,,,,,,,,,,,,,,,,,,,,,,,,,,,,,,,,,,,,,,,,,,,,,,,,,,,,,,176.3165554270381,0.0,"('h',)",176.3170030619076,176.31701483385405,176.33006989504793,176.33006989504793,176.33006989504793,176.33006989504793,176.33006989504793,176.33006989504793,176.33006989504793,176.33006989504793,178.4223575356009,['h'],[2.0331811234063935],[None],,,,,,,,,,,,,,,,,,,,,3002,2010-05-15_01h40.47.194,eb_03,2023.2.3,119.99550875322565,2010-05-15 01h40.56.835990 -0400,
,,,,0,0,0,0,4,0,4,0,178.43854362616548,,,,,,,,,,,,,,,,,,,,,,,,,,,,,,,,,,,,,,,,,,,,,,,,,,,,,,,,,,,,,,,,,,,,,,,,,,,,,,,,,,,,,,,,,,,,,,,,,,,,,,,,,,178.42443361965707,2.0,"('h', 'space')",178.42487219918985,178.4248839711363,178.43854362616548,178.43854362616548,178.43854362616548,178.43854362616548,178.43854362616548,178.43854362616548,178.43854362616548,178.43854362616548,179.20581605378538,"['h', 'space']","[0.6927305062999949, 0.6937118016066961]","[None, None]",,,,,,,,,,,,,,,,,,,,,3002,2010-05-15_01h40.47.194,eb_03,2023.2.3,119.99550875322565,2010-05-15 01h40.56.835990 -0400,
,,,,0,0,0,0,5,0,5,0,179.2219303054153,,,,,,,,,,,,,,,,,,,,,,,,,,,,,,,,,,,,,,,,,,,,,,,,,,,,,,,,,,,,,,,,,,,,,,,,,,,,,,,,,,,,,,,,,,,,,,,,,,,,,,,,,,179.20792352961143,4.0,"('l',)",179.20831502147485,179.20832709522801,179.2219303054153,179.2219303054153,179.2219303054153,179.2219303054153,179.2219303054153,179.2219303054153,179.2219303054153,179.2219303054153,181.2559236914094,['l'],[1.9564140070287976],[None],,,,,,,,,,,,,,,,,,,,,3002,2010-05-15_01h40.47.194,eb_03,2023.2.3,119.99550875322565,2010-05-15 01h40.56.835990 -0400,
,,,,0,0,0,0,6,0,6,0,181.2720578647568,,,,,,,,,,,,,,,,,,,,,,,,,,,,,,,,,,,,,,,,,,,,,,,,,,,,,,,,,,,,,,,,,,,,,,,,,,,,,,,,,,,,,,,,,,,,,,,,,,,,,,,,,,181.2580586350523,3.0,"('k', 'l')",181.25846099329647,181.25847548182355,181.2720578647568,181.2720578647568,181.2720578647568,181.2720578647568,181.2720578647568,181.2720578647568,181.2720578647568,181.2720578647568,182.46424233497237,"['k', 'l']","[1.1302795559749939, 1.1462087771506049]","[None, None]",,,,,,,,,,,,,,,,,,,,,3002,2010-05-15_01h40.47.194,eb_03,2023.2.3,119.99550875322565,2010-05-15 01h40.56.835990 -0400,
,,,,0,0,0,0,7,0,7,0,182.4804649486614,,,,,,,,,,,,,,,,,,,,,,,,,,,,,,,,,,,,,,,,,,,,,,,,,,,,,,,,,,,,,,,,,,,,,,,,,,,,,,,,,,,,,,,,,,,,,,,,,,,,,,,,,,182.4663268706645,8.0,"('k',)",182.4667376805446,182.46674945246195,182.4804649486614,182.4804649486614,182.4804649486614,182.4804649486614,182.4804649486614,182.4804649486614,182.4804649486614,182.4804649486614,183.2810416520806,['k'],[0.7377888950286433],[None],,,,,,,,,,,,,,,,,,,,,3002,2010-05-15_01h40.47.194,eb_03,2023.2.3,119.99550875322565,2010-05-15 01h40.56.835990 -0400,
,,,,0,0,0,0,8,0,8,0,183.297202991409,,,,,,,,,,,,,,,,,,,,,,,,,,,,,,,,,,,,,,,,,,,,,,,,,,,,,,,,,,,,,,,,,,,,,,,,,,,,,,,,,,,,,,,,,,,,,,,,,,,,,,,,,,183.28315788140753,9.0,"('k', 'space')",183.28355148617993,183.28356386176893,183.297202991409,183.297202991409,183.297202991409,183.297202991409,183.297202991409,183.297202991409,183.297202991409,183.297202991409,185.58169774053385,"['k', 'space']","[2.0811341975058895, 2.2490902417630423]","[None, None]",,,,,,,,,,,,,,,,,,,,,3002,2010-05-15_01h40.47.194,eb_03,2023.2.3,119.99550875322565,2010-05-15 01h40.56.835990 -0400,
,,,,0,0,0,0,9,0,9,0,185.59733900238643,,,,,,,,,,,,,,,,,,,,,,,,,,,,,,,,,,,,,,,,,,,,,,,,,,,,,,,,,,,,,,,,,,,,,,,,,,,,,,,,,,,,,,,,,,,,,,,,,,,,,,,,,,185.58378076698864,7.0,"('l', 'space')",185.58414992238977,185.58416229797876,185.59733900238643,185.59733900238643,185.59733900238643,185.59733900238643,185.59733900238643,185.59733900238643,185.59733900238643,185.59733900238643,187.2230175480363,"['l', 'space']","[1.5649487106420565, 1.565938457613811]","[None, None]",,,,,,,,,,,,,,,,,,,,,3002,2010-05-15_01h40.47.194,eb_03,2023.2.3,119.99550875322565,2010-05-15 01h40.56.835990 -0400,
,,,,0,0,0,0,10,0,10,0,187.23916198406368,,,,,,,,,,,,,,,,,,,,,,,,,,,,,,,,,,,,,,,,,,,,,,,,,,,,,,,,,,,,,,,,,,,,,,,,,,,,,,,,,,,,,,,,,,,,,,,,,,,,,,,,,,187.2250939338992,9.0,"('k', 'space')",187.22561582244816,187.22562789620133,187.23916198406368,187.23916198406368,187.23916198406368,187.23916198406368,187.23916198406368,187.23916198406368,187.23916198406368,187.23916198406368,188.3981034528697,"['k', 'space']","[1.0991289381345268, 1.100123514625011]","[None, None]",,,,,,,,,,,,,,,,,,,,,3002,2010-05-15_01h40.47.194,eb_03,2023.2.3,119.99550875322565,2010-05-15 01h40.56.835990 -0400,
,,,,0,0,0,0,11,0,11,0,188.4142412483343,,,,,,,,,,,,,,,,,,,,,,,,,,,,,,,,,,,,,,,,,,,,,,,,,,,,,,,,,,,,,,,,,,,,,,,,,,,,,,,,,,,,,,,,,,,,,,,,,,,,,,,,,,188.40016776497941,10.0,"('j', 'k')",188.40063079391257,188.40064286766574,188.4142412483343,188.4142412483343,188.4142412483343,188.4142412483343,188.4142412483343,188.4142412483343,188.4142412483343,188.4142412483343,190.60651355521986,"['j', 'k']","[2.1320242151559796, 2.133042637287872]","[None, None]",,,,,,,,,,,,,,,,,,,,,3002,2010-05-15_01h40.47.194,eb_03,2023.2.3,119.99550875322565,2010-05-15 01h40.56.835990 -0400,
,,,,0,0,0,0,12,0,12,0,190.6227431113366,,,,,,,,,,,,,,,,,,,,,,,,,,,,,,,,,,,,,,,,,,,,,,,,,,,,,,,,,,,,,,,,,,,,,,,,,,,,,,,,,,,,,,,,,,,,,,,,,,,,,,,,,,190.60860231672996,11.0,"('j',)",190.60897418871173,190.60898656432983,190.6227431113366,190.6227431113366,190.6227431113366,190.6227431113366,190.6227431113366,190.6227431113366,190.6227431113366,190.6227431113366,192.8983111216512,['j'],[2.211542037228355],[None],,,,,,,,,,,,,,,,,,,,,3002,2010-05-15_01h40.47.194,eb_03,2023.2.3,119.99550875322565,2010-05-15 01h40.56.835990 -0400,
,,,,0,0,0,0,13,0,13,0,192.9145222652587,,,,,,,,,,,,,,,,,,,,,,,,,,,,,,,,,,,,,,,,,,,,,,,,,,,,,,,,,,,,,,,,,,,,,,,,,,,,,,,,,,,,,,,,,,,,,,,,,,,,,,,,,,192.9004068255599,12.0,"('h', 'l')",192.90087317477446,192.9008849466918,192.9145222652587,192.9145222652587,192.9145222652587,192.9145222652587,192.9145222652587,192.9145222652587,192.9145222652587,192.9145222652587,196.69031424392597,"['h', 'l']","[3.7037595895817503, 3.704754769743886]","[None, None]",,,,,,,,,,,,,,,,,,,,,3002,2010-05-15_01h40.47.194,eb_03,2023.2.3,119.99550875322565,2010-05-15 01h40.56.835990 -0400,
,,,,0,0,0,0,14,0,14,0,196.7064985233883,,,,,,,,,,,,,,,,,,,,,,,,,,,,,,,,,,,,,,,,,,,,,,,,,,,,,,,,,,,,,,,,,,,,,,,,,,,,,,,,,,,,,,,,,,,,,,,,,,,,,,,,,,196.69238489476265,7.0,"('l', 'space')",196.69276914236252,196.69278091427987,196.7064985233883,196.7064985233883,196.7064985233883,196.7064985233883,196.7064985233883,196.7064985233883,196.7064985233883,196.7064985233883,198.09875253852806,"['space', 'l']","[1.3268624991178513, 1.3508262077812105]","[None, None]",,,,,,,,,,,,,,,,,,,,,3002,2010-05-15_01h40.47.194,eb_03,2023.2.3,119.99550875322565,2010-05-15 01h40.56.835990 -0400,
,,,,0,0,0,0,15,0,15,0,198.1148592440586,,,,,,,,,,,,,,,,,,,,,,,,,,,,,,,,,,,,,,,,,,,,,,,,,,,,,,,,,,,,,,,,,,,,,,,,,,,,,,,,,,,,,,,,,,,,,,,,,,,,,,,,,,198.1008757102536,5.0,"('j', 'space')",198.10132847647765,198.10134085209575,198.1148592440586,198.1148592440586,198.1148592440586,198.1148592440586,198.1148592440586,198.1148592440586,198.1148592440586,198.1148592440586,208.7166145281226,"['space', 'k', 'j', 'space']","[5.606456204841379, 5.646450856147567, 10.582495212758658, 10.583484959701309]","[None, None, None, None]",,,,,,,,,,,,,,,,,,,,,3002,2010-05-15_01h40.47.194,eb_03,2023.2.3,119.99550875322565,2010-05-15 01h40.56.835990 -0400,
,,,,0,0,0,0,16,0,16,0,208.73223405721365,,,,,,,,,,,,,,,,,,,,,,,,,,,,,,,,,,,,,,,,,,,,,,,,,,,,,,,,,,,,,,,,,,,,,,,,,,,,,,,,,,,,,,,,,,,,,,,,,,,,,,,,,,208.7187283427047,8.0,"('k',)",208.71916330012027,208.71917567570927,208.73223405721365,208.73223405721365,208.73223405721365,208.73223405721365,208.73223405721365,208.73223405721365,208.73223405721365,208.73223405721365,211.7913109936635,['k'],[2.997127651091432],[None],,,,,,,,,,,,,,,,,,,,,3002,2010-05-15_01h40.47.194,eb_03,2023.2.3,119.99550875322565,2010-05-15 01h40.56.835990 -0400,
,,,,0,0,0,0,17,0,17,0,211.8075085542805,,,,,,,,,,,,,,,,,,,,,,,,,,,,,,,,,,,,,,,,,,,,,,,,,,,,,,,,,,,,,,,,,,,,,,,,,,,,,,,,,,,,,,,,,,,,,,,,,,,,,,,,,,211.79338798322715,7.0,"('l', 'space')",211.7938012078812,211.79381297979853,211.8075085542805,211.8075085542805,211.8075085542805,211.8075085542805,211.8075085542805,211.8075085542805,211.8075085542805,211.8075085542805,214.2164297995041,"['space', 'l']","[2.3448602582211606, 2.3848570224654395]","[None, None]",,,,,,,,,,,,,,,,,,,,,3002,2010-05-15_01h40.47.194,eb_03,2023.2.3,119.99550875322565,2010-05-15 01h40.56.835990 -0400,
,,,,0,0,0,0,18,0,18,0,214.23257333002402,,,,,,,,,,,,,,,,,,,,,,,,,,,,,,,,,,,,,,,,,,,,,,,,,,,,,,,,,,,,,,,,,,,,,,,,,,,,,,,,,,,,,,,,,,,,,,,,,,,,,,,,,,214.21853154030396,5.0,"('j', 'space')",214.21894899077597,214.2189616682299,214.23257333002402,214.23257333002402,214.23257333002402,214.23257333002402,214.23257333002402,214.23257333002402,214.23257333002402,214.23257333002402,216.98328870066325,"['j', 'space']","[2.687798976636259, 2.6887434469826985]","[None, None]",,,,,,,,,,,,,,,,,,,,,3002,2010-05-15_01h40.47.194,eb_03,2023.2.3,119.99550875322565,2010-05-15 01h40.56.835990 -0400,
,,,,0,0,0,0,19,0,19,0,216.99954270612216,,,,,,,,,,,,,,,,,,,,,,,,,,,,,,,,,,,,,,,,,,,,,,,,,,,,,,,,,,,,,,,,,,,,,,,,,,,,,,,,,,,,,,,,,,,,,,,,,,,,,,,,,,216.9854299830331,4.0,"('l',)",216.98592983695562,216.98594221254461,216.99954270612216,216.99954270612216,216.99954270612216,216.99954270612216,216.99954270612216,216.99954270612216,216.99954270612216,216.99954270612216,218.21673103998182,['l'],[1.152828521153424],[None],,,,,,,,,,,,,,,,,,,,,3002,2010-05-15_01h40.47.194,eb_03,2023.2.3,119.99550875322565,2010-05-15 01h40.56.835990 -0400,
,,,,0,0,0,0,20,0,20,0,218.2328661188658,,,,,,,,,,,,,,,,,,,,,,,,,,,,,,,,,,,,,,,,,,,,,,,,,,,,,,,,,,,,,,,,,,,,,,,,,,,,,,,,,,,,,,,,,,,,,,,,,,,,,,,,,,218.21883278078167,1.0,"('h', 'k')",218.21936855412787,218.2193812315818,218.2328661188658,218.2328661188658,218.2328661188658,218.2328661188658,218.2328661188658,218.2328661188658,218.2328661188658,218.2328661188658,220.7085863793618,"['h', 'k']","[2.4154920904838946, 2.4164625194098335]","[None, None]",,,,,,,,,,,,,,,,,,,,,3002,2010-05-15_01h40.47.194,eb_03,2023.2.3,119.99550875322565,2010-05-15 01h40.56.835990 -0400,
,,,,0,0,0,0,21,0,21,0,220.72474651128869,,,,,,,,,,,,,,,,,,,,,,,,,,,,,,,,,,,,,,,,,,,,,,,,,,,,,,,,,,,,,,,,,,,,,,,,,,,,,,,,,,,,,,,,,,,,,,,,,,,,,,,,,,220.71064405090874,1.0,"('h', 'k')",220.71116925971,220.71118133349228,220.72474651128869,220.72474651128869,220.72474651128869,220.72474651128869,220.72474651128869,220.72474651128869,220.72474651128869,220.72474651128869,221.88355818710988,"['h', 'k']","[1.083625015366124, 1.0846259305835702]","[None, None]",,,,,,,,,,,,,,,,,,,,,3002,2010-05-15_01h40.47.194,eb_03,2023.2.3,119.99550875322565,2010-05-15 01h40.56.835990 -0400,
,,,,0,0,0,0,22,0,22,0,221.8997684251808,,,,,,,,,,,,,,,,,,,,,,,,,,,,,,,,,,,,,,,,,,,,,,,,,,,,,,,,,,,,,,,,,,,,,,,,,,,,,,,,,,,,,,,,,,,,,,,,,,,,,,,,,,221.88567169982707,4.0,"('l',)",221.88619449388352,221.8862065676658,221.8997684251808,221.8997684251808,221.8997684251808,221.8997684251808,221.8997684251808,221.8997684251808,221.8997684251808,221.8997684251808,222.9420097024995,['l'],[0.9806324721430428],[None],,,,,,,,,,,,,,,,,,,,,3002,2010-05-15_01h40.47.194,eb_03,2023.2.3,119.99550875322565,2010-05-15 01h40.56.835990 -0400,
,,,,0,0,0,0,23,0,23,0,222.9581973022432,,,,,,,,,,,,,,,,,,,,,,,,,,,,,,,,,,,,,,,,,,,,,,,,,,,,,,,,,,,,,,,,,,,,,,,,,,,,,,,,,,,,,,,,,,,,,,,,,,,,,,,,,,222.94410842485377,2.0,"('h', 'space')",222.94457507590414,222.94458745149313,222.9581973022432,222.9581973022432,222.9581973022432,222.9581973022432,222.9581973022432,222.9581973022432,222.9581973022432,222.9581973022432,224.29211782306083,"['h', 'space']","[1.2741970341885462, 1.2751795368967578]","[None, None]",,,,,,,,,,,,,,,,,,,,,3002,2010-05-15_01h40.47.194,eb_03,2023.2.3,119.99550875322565,2010-05-15 01h40.56.835990 -0400,
,,,,0,0,0,0,24,0,24,0,224.30830783757847,,,,,,,,,,,,,,,,,,,,,,,,,,,,,,,,,,,,,,,,,,,,,,,,,,,,,,,,,,,,,,,,,,,,,,,,,,,,,,,,,,,,,,,,,,,,,,,,,,,,,,,,,,224.2941996421432,3.0,"('k', 'l')",224.29472937862738,224.2947432634537,224.30830783757847,224.30830783757847,224.30830783757847,224.30830783757847,224.30830783757847,224.30830783757847,224.30830783757847,224.30830783757847,225.66720294312108,"['k', 'l']","[1.2840939000889193, 1.2850788175419439]","[None, None]",,,,,,,,,,,,,,,,,,,,,3002,2010-05-15_01h40.47.194,eb_03,2023.2.3,119.99550875322565,2010-05-15 01h40.56.835990 -0400,
,,,,0,0,0,0,25,0,25,0,225.68342253836454,,,,,,,,,,,,,,,,,,,,,,,,,,,,,,,,,,,,,,,,,,,,,,,,,,,,,,,,,,,,,,,,,,,,,,,,,,,,,,,,,,,,,,,,,,,,,,,,,,,,,,,,,,225.66930196731118,0.0,"('h',)",225.66983924989472,225.66985434209346,225.68342253836454,225.68342253836454,225.68342253836454,225.68342253836454,225.68342253836454,225.68342253836454,225.68342253836454,225.68342253836454,227.23394490982173,['h'],[1.4769940428086556],[None],,,,,,,,,,,,,,,,,,,,,3002,2010-05-15_01h40.47.194,eb_03,2023.2.3,119.99550875322565,2010-05-15 01h40.56.835990 -0400,
,,,,0,0,0,0,26,0,26,0,227.25013703724835,,,,,,,,,,,,,,,,,,,,,,,,,,,,,,,,,,,,,,,,,,,,,,,,,,,,,,,,,,,,,,,,,,,,,,,,,,,,,,,,,,,,,,,,,,,,,,,,,,,,,,,,,,227.23605751703144,1.0,"('h', 'k')",227.2365996291046,227.2366153250041,227.25013703724835,227.25013703724835,227.25013703724835,227.25013703724835,227.25013703724835,227.25013703724835,227.25013703724835,227.25013703724835,229.10077459245804,"['k', 'h']","[1.790272046084283, 1.7972292518243194]","[None, None]",,,,,,,,,,,,,,,,,,,,,3002,2010-05-15_01h40.47.194,eb_03,2023.2.3,119.99550875322565,2010-05-15 01h40.56.835990 -0400,
,,,,0,0,0,0,27,0,27,0,229.11692627277807,,,,,,,,,,,,,,,,,,,,,,,,,,,,,,,,,,,,,,,,,,,,,,,,,,,,,,,,,,,,,,,,,,,,,,,,,,,,,,,,,,,,,,,,,,,,,,,,,,,,,,,,,,229.1029025937023,2.0,"('h', 'space')",229.10344802608597,229.1034631182847,229.11692627277807,229.11692627277807,229.11692627277807,229.11692627277807,229.11692627277807,229.11692627277807,229.11692627277807,229.11692627277807,230.44253611867316,"['h', 'space']","[1.2664613724045921, 1.267463494965341]","[None, None]",,,,,,,,,,,,,,,,,,,,,3002,2010-05-15_01h40.47.194,eb_03,2023.2.3,119.99550875322565,2010-05-15 01h40.56.835990 -0400,
,,,,0,0,0,0,28,0,28,0,230.45868417684687,,,,,,,,,,,,,,,,,,,,,,,,,,,,,,,,,,,,,,,,,,,,,,,,,,,,,,,,,,,,,,,,,,,,,,,,,,,,,,,,,,,,,,,,,,,,,,,,,,,,,,,,,,230.44460646767402,4.0,"('l',)",230.44516608674894,230.44518117894768,230.45868417684687,230.45868417684687,230.45868417684687,230.45868417684687,230.45868417684687,230.45868417684687,230.45868417684687,230.45868417684687,231.4426348217239,['l'],[0.9087437608686741],[None],,,,,,,,,,,,,,,,,,,,,3002,2010-05-15_01h40.47.194,eb_03,2023.2.3,119.99550875322565,2010-05-15 01h40.56.835990 -0400,
,,,,0,0,0,0,29,0,29,0,231.4587376032723,,,,,,,,,,,,,,,,,,,,,,,,,,,,,,,,,,,,,,,,,,,,,,,,,,,,,,,,,,,,,,,,,,,,,,,,,,,,,,,,,,,,,,,,,,,,,,,,,,,,,,,,,,231.4447561823763,3.0,"('k', 'l')",231.4452355108806,231.4452515086159,231.4587376032723,231.4587376032723,231.4587376032723,231.4587376032723,231.4587376032723,231.4587376032723,231.4587376032723,231.4587376032723,232.62609871270251,"['k', 'l']","[1.0926712844811846, 1.0936884992697742]","[None, None]",,,,,,,,,,,,,,,,,,,,,3002,2010-05-15_01h40.47.194,eb_03,2023.2.3,119.99550875322565,2010-05-15 01h40.56.835990 -0400,
,,,,0,0,0,0,30,0,30,0,232.6421978721337,,,,,,,,,,,,,,,,,,,,,,,,,,,,,,,,,,,,,,,,,,,,,,,,,,,,,,,,,,,,,,,,,,,,,,,,,,,,,,,,,,,,,,,,,,,,,,,,,,,,,,,,,,232.62823546741856,4.0,"('l',)",232.62875614856603,232.62878120163805,232.6421978721337,232.6421978721337,232.6421978721337,232.6421978721337,232.6421978721337,232.6421978721337,232.6421978721337,232.6421978721337,233.24275060914806,['l'],[0.5411993112938944],[None],,,,,,,,,,,,,,,,,,,,,3002,2010-05-15_01h40.47.194,eb_03,2023.2.3,119.99550875322565,2010-05-15 01h40.56.835990 -0400,
,,,,0,0,0,0,31,0,31,0,233.25885640914203,,,,,,,,,,,,,,,,,,,,,,,,,,,,,,,,,,,,,,,,,,,,,,,,,,,,,,,,,,,,,,,,,,,,,,,,,,,,,,,,,,,,,,,,,,,,,,,,,,,,,,,,,,233.24483152269386,2.0,"('h', 'space')",233.24546328248107,233.24547867654474,233.25885640914203,233.25885640914203,233.25885640914203,233.25885640914203,233.25885640914203,233.25885640914203,233.25885640914203,233.25885640914203,234.2344680057431,"['h', 'space']","[0.9005387314246036, 0.9405210071417969]","[None, None]",,,,,,,,,,,,,,,,,,,,,3002,2010-05-15_01h40.47.194,eb_03,2023.2.3,119.99550875322565,2010-05-15 01h40.56.835990 -0400,
,,,,0,0,0,0,32,0,32,0,234.25062511925353,,,,,,,,,,,,,,,,,,,,,,,,,,,,,,,,,,,,,,,,,,,,,,,,,,,,,,,,,,,,,,,,,,,,,,,,,,,,,,,,,,,,,,,,,,,,,,,,,,,,,,,,,,234.236561294907,3.0,"('k', 'l')",234.23709223876358,234.2371070291265,234.25062511925353,234.25062511925353,234.25062511925353,234.25062511925353,234.25062511925353,234.25062511925353,234.25062511925353,234.25062511925353,235.4345444930368,"['k', 'l']","[1.1087807065923698, 1.1097852439270355]","[None, None]",,,,,,,,,,,,,,,,,,,,,3002,2010-05-15_01h40.47.194,eb_03,2023.2.3,119.99550875322565,2010-05-15 01h40.56.835990 -0400,
,,,,0,0,0,0,33,0,33,0,235.45074658133672,,,,,,,,,,,,,,,,,,,,,,,,,,,,,,,,,,,,,,,,,,,,,,,,,,,,,,,,,,,,,,,,,,,,,,,,,,,,,,,,,,,,,,,,,,,,,,,,,,,,,,,,,,235.4366715887445,0.0,"('h',)",235.43723030225374,235.43724539448158,235.45074658133672,235.45074658133672,235.45074658133672,235.45074658133672,235.45074658133672,235.45074658133672,235.45074658133672,235.45074658133672,237.4513249146985,['h'],[1.9406873232510407],[None],,,,,,,,,,,,,,,,,,,,,3002,2010-05-15_01h40.47.194,eb_03,2023.2.3,119.99550875322565,2010-05-15 01h40.56.835990 -0400,
,,,,0,0,0,0,34,0,34,0,237.46752790853498,,,,,,,,,,,,,,,,,,,,,,,,,,,,,,,,,,,,,,,,,,,,,,,,,,,,,,,,,,,,,,,,,,,,,,,,,,,,,,,,,,,,,,,,,,,,,,,,,,,,,,,,,,237.45344959566137,3.0,"('k', 'l')",237.453999253863,237.4540149497625,237.46752790853498,237.46752790853498,237.46752790853498,237.46752790853498,237.46752790853498,237.46752790853498,237.46752790853498,237.46752790853498,238.8764156490506,"['k', 'l']","[1.3479064693674445, 1.3488944052660372]","[None, None]",,,,,,,,,,,,,,,,,,,,,3002,2010-05-15_01h40.47.194,eb_03,2023.2.3,119.99550875322565,2010-05-15 01h40.56.835990 -0400,
,,,,0,0,0,0,35,0,35,0,238.8925736680976,,,,,,,,,,,,,,,,,,,,,,,,,,,,,,,,,,,,,,,,,,,,,,,,,,,,,,,,,,,,,,,,,,,,,,,,,,,,,,,,,,,,,,,,,,,,,,,,,,,,,,,,,,238.87853097284096,14.0,"('space',)",238.87909451586893,238.87910930623184,238.8925736680976,238.8925736680976,238.8925736680976,238.8925736680976,238.8925736680976,238.8925736680976,238.8925736680976,238.8925736680976,239.86814874157426,['space'],[0.9148325610149186],[None],,,,,,,,,,,,,,,,,,,,,3002,2010-05-15_01h40.47.194,eb_03,2023.2.3,119.99550875322565,2010-05-15 01h40.56.835990 -0400,
,,,,0,0,0,0,36,0,36,0,239.8843420763733,,,,,,,,,,,,,,,,,,,,,,,,,,,,,,,,,,,,,,,,,,,,,,,,,,,,,,,,,,,,,,,,,,,,,,,,,,,,,,,,,,,,,,,,,,,,,,,,,,,,,,,,,,239.87021365738474,0.0,"('h',)",239.8708617167722,239.8708765071351,239.8843420763733,239.8843420763733,239.8843420763733,239.8843420763733,239.8843420763733,239.8843420763733,239.8843420763733,239.8843420763733,241.1432096537028,['h'],[1.1870504031539895],[None],,,,,,,,,,,,,,,,,,,,,3002,2010-05-15_01h40.47.194,eb_03,2023.2.3,119.99550875322565,2010-05-15 01h40.56.835990 -0400,
,,,,0,0,0,0,37,0,37,0,241.15944856699207,,,,,,,,,,,,,,,,,,,,,,,,,,,,,,,,,,,,,,,,,,,,,,,,,,,,,,,,,,,,,,,,,,,,,,,,,,,,,,,,,,,,,,,,,,,,,,,,,,,,,,,,,,241.14533161805593,1.0,"('h', 'k')",241.1458465641772,241.14586226007668,241.15944856699207,241.15944856699207,241.15944856699207,241.15944856699207,241.15944856699207,241.15944856699207,241.15944856699207,241.15944856699207,242.29323011875385,"['h', 'k']","[1.0719789626600686, 1.072967200394487]","[None, None]",,,,,,,,,,,,,,,,,,,,,3002,2010-05-15_01h40.47.194,eb_03,2023.2.3,119.99550875322565,2010-05-15 01h40.56.835990 -0400,
,,,,0,0,0,0,38,0,38,0,242.3095049514668,,,,,,,,,,,,,,,,,,,,,,,,,,,,,,,,,,,,,,,,,,,,,,,,,,,,,,,,,,,,,,,,,,,,,,,,,,,,,,,,,,,,,,,,,,,,,,,,,,,,,,,,,,242.2953351798351,3.0,"('k', 'l')",242.29580484933103,242.29581873415736,242.3095049514668,242.3095049514668,242.3095049514668,242.3095049514668,242.3095049514668,242.3095049514668,242.3095049514668,242.3095049514668,243.335073867318,"['k', 'l']","[0.9539123227295931, 0.9548957309743855]","[None, None]",,,,,,,,,,,,,,,,,,,,,3002,2010-05-15_01h40.47.194,eb_03,2023.2.3,119.99550875322565,2010-05-15 01h40.56.835990 -0400,
,,,,0,0,0,0,39,0,39,0,243.35119325030246,,,,,,,,,,,,,,,,,,,,,,,,,,,,,,,,,,,,,,,,,,,,,,,,,,,,,,,,,,,,,,,,,,,,,,,,,,,,,,,,,,,,,,,,,,,,,,,,,,,,,,,,,,243.3371831542172,2.0,"('h', 'space')",243.33771047592745,243.33772526629036,243.35119325030246,243.35119325030246,243.35119325030246,243.35119325030246,243.35119325030246,243.35119325030246,243.35119325030246,243.35119325030246,244.49347443139413,"['h', 'space']","[1.0802051211940125, 1.0811945663299412]","[None, None]",,,,,,,,,,,,,,,,,,,,,3002,2010-05-15_01h40.47.194,eb_03,2023.2.3,119.99550875322565,2010-05-15 01h40.56.835990 -0400,
,,,,0,0,0,0,40,0,40,0,244.50960196417873,,,,,,,,,,,,,,,,,,,,,,,,,,,,,,,,,,,,,,,,,,,,,,,,,,,,,,,,,,,,,,,,,,,,,,,,,,,,,,,,,,,,,,,,,,,,,,,,,,,,,,,,,,244.4955979049846,1.0,"('h', 'k')",244.49615239267587,244.49616718303878,244.50960196417873,244.50960196417873,244.50960196417873,244.50960196417873,244.50960196417873,244.50960196417873,244.50960196417873,244.50960196417873,245.66019140541903,"['h', 'k']","[1.0888221679197159, 1.089812216727296]","[None, None]",,,,,,,,,,,,,,,,,,,,,3002,2010-05-15_01h40.47.194,eb_03,2023.2.3,119.99550875322565,2010-05-15 01h40.56.835990 -0400,
,,,,0,0,0,0,41,0,41,0,245.67636964801932,,,,,,,,,,,,,,,,,,,,,,,,,,,,,,,,,,,,,,,,,,,,,,,,,,,,,,,,,,,,,,,,,,,,,,,,,,,,,,,,,,,,,,,,,,,,,,,,,,,,,,,,,,245.66225420832052,0.0,"('h',)",245.66285035051988,245.6628741961904,245.67636964801932,245.67636964801932,245.67636964801932,245.67636964801932,245.67636964801932,245.67636964801932,245.67636964801932,245.67636964801932,246.6102156736888,['h'],[0.8740476817183662],[None],,,,,,,,,,,,,,,,,,,,,3002,2010-05-15_01h40.47.194,eb_03,2023.2.3,119.99550875322565,2010-05-15 01h40.56.835990 -0400,
,,,,0,0,0,0,42,0,42,0,246.62644885192276,,,,,,,,,,,,,,,,,,,,,,,,,,,,,,,,,,,,,,,,,,,,,,,,,,,,,,,,,,,,,,,,,,,,,,,,,,,,,,,,,,,,,,,,,,,,,,,,,,,,,,,,,,246.6123192255618,8.0,"('k',)",246.6127952337847,246.61281123152003,246.62644885192276,246.62644885192276,246.62644885192276,246.62644885192276,246.62644885192276,246.62644885192276,246.62644885192276,246.62644885192276,247.58525527565507,['k'],[0.8999779050354846],[None],,,,,,,,,,,,,,,,,,,,,3002,2010-05-15_01h40.47.194,eb_03,2023.2.3,119.99550875322565,2010-05-15 01h40.56.835990 -0400,
,,,,0,0,0,0,43,0,43,0,247.60153252311284,,,,,,,,,,,,,,,,,,,,,,,,,,,,,,,,,,,,,,,,,,,,,,,,,,,,,,,,,,,,,,,,,,,,,,,,,,,,,,,,,,,,,,,,,,,,,,,,,,,,,,,,,,247.58731355087366,9.0,"('k', 'space')",247.5878644164477,247.5878891676839,247.60153252311284,247.60153252311284,247.60153252311284,247.60153252311284,247.60153252311284,247.60153252311284,247.60153252311284,247.60153252311284,248.56035675565363,"['k', 'space']","[0.8849158820521552, 0.8859065345604904]","[None, None]",,,,,,,,,,,,,,,,,,,,,3002,2010-05-15_01h40.47.194,eb_03,2023.2.3,119.99550875322565,2010-05-15 01h40.56.835990 -0400,
,,,,0,0,0,0,44,0,44,0,248.5766183072119,,,,,,,,,,,,,,,,,,,,,,,,,,,,,,,,,,,,,,,,,,,,,,,,,,,,,,,,,,,,,,,,,,,,,,,,,,,,,,,,,,,,,,,,,,,,,,,,,,,,,,,,,,248.56249622695032,7.0,"('l', 'space')",248.56299094951828,248.56300423067296,248.5766183072119,248.5766183072119,248.5766183072119,248.5766183072119,248.5766183072119,248.5766183072119,248.5766183072119,248.5766183072119,249.7938655006874,"['l', 'space']","[1.1418954242835753, 1.1428420075098984]","[None, None]",,,,,,,,,,,,,,,,,,,,,3002,2010-05-15_01h40.47.194,eb_03,2023.2.3,119.99550875322565,2010-05-15 01h40.56.835990 -0400,
,,,,0,0,0,0,45,0,45,0,249.80997763940832,,,,,,,,,,,,,,,,,,,,,,,,,,,,,,,,,,,,,,,,,,,,,,,,,,,,,,,,,,,,,,,,,,,,,,,,,,,,,,,,,,,,,,,,,,,,,,,,,,,,,,,,,,249.79593796259724,5.0,"('j', 'space')",249.79672305920394,249.7967372458952,249.80997763940832,249.80997763940832,249.80997763940832,249.80997763940832,249.80997763940832,249.80997763940832,249.80997763940832,249.80997763940832,251.49391029434628,"['j', 'space']","[1.6124656199244782, 1.613448726333445]","[None, None]",,,,,,,,,,,,,,,,,,,,,3002,2010-05-15_01h40.47.194,eb_03,2023.2.3,119.99550875322565,2010-05-15 01h40.56.835990 -0400,
,,,,0,0,0,0,46,0,46,0,251.51010211993707,,,,,,,,,,,,,,,,,,,,,,,,,,,,,,,,,,,,,,,,,,,,,,,,,,,,,,,,,,,,,,,,,,,,,,,,,,,,,,,,,,,,,,,,,,,,,,,,,,,,,,,,,,251.49602229785523,8.0,"('k',)",251.4966727719875,251.4966872605146,251.51010211993707,251.51010211993707,251.51010211993707,251.51010211993707,251.51010211993707,251.51010211993707,251.51010211993707,251.51010211993707,253.244015336124,['k'],[1.672349687665701],[None],,,,,,,,,,,,,,,,,,,,,3002,2010-05-15_01h40.47.194,eb_03,2023.2.3,119.99550875322565,2010-05-15 01h40.56.835990 -0400,
,,,,0,0,0,0,47,0,47,0,253.26020444510505,,,,,,,,,,,,,,,,,,,,,,,,,,,,,,,,,,,,,,,,,,,,,,,,,,,,,,,,,,,,,,,,,,,,,,,,,,,,,,,,,,,,,,,,,,,,,,,,,,,,,,,,,,253.24614514841232,9.0,"('k', 'space')",253.24679018935421,253.2468034705089,253.26020444510505,253.26020444510505,253.26020444510505,253.26020444510505,253.26020444510505,253.26020444510505,253.26020444510505,253.26020444510505,254.1441142806143,"['k', 'space']","[0.8102390363928862, 0.8112287833646405]","[None, None]",,,,,,,,,,,,,,,,,,,,,3002,2010-05-15_01h40.47.194,eb_03,2023.2.3,119.99550875322565,2010-05-15 01h40.56.835990 -0400,
,,,,0,0,0,0,48,0,48,0,254.16026354618953,,,,,,,,,,,,,,,,,,,,,,,,,,,,,,,,,,,,,,,,,,,,,,,,,,,,,,,,,,,,,,,,,,,,,,,,,,,,,,,,,,,,,,,,,,,,,,,,,,,,,,,,,,254.14622085093288,10.0,"('j', 'k')",254.1467849976325,254.14679948615958,254.16026354618953,254.16026354618953,254.16026354618953,254.16026354618953,254.16026354618953,254.16026354618953,254.16026354618953,254.16026354618953,255.23590568942018,"['j', 'k']","[1.0142111242748797, 1.0152075118094217]","[None, None]",,,,,,,,,,,,,,,,,,,,,3002,2010-05-15_01h40.47.194,eb_03,2023.2.3,119.99550875322565,2010-05-15 01h40.56.835990 -0400,
,,,,0,0,0,0,49,0,49,0,255.25205314389314,,,,,,,,,,,,,,,,,,,,,,,,,,,,,,,,,,,,,,,,,,,,,,,,,,,,,,,,,,,,,,,,,,,,,,,,,,,,,,,,,,,,,,,,,,,,,,,,,,,,,,,,,,255.23798750850256,13.0,"('h', 'j')",255.23858757465496,255.23860236501787,255.25205314389314,255.25205314389314,255.25205314389314,255.25205314389314,255.25205314389314,255.25205314389314,255.25205314389314,255.25205314389314,256.3442943004775,"['h', 'j']","[1.018403739493806, 1.019381110847462]","[None, None]",,,,,,,,,,,,,,,,,,,,,3002,2010-05-15_01h40.47.194,eb_03,2023.2.3,119.99550875322565,2010-05-15 01h40.56.835990 -0400,
,,,,0,0,0,0,50,0,50,0,256.36041157055297,,,,,,,,,,,,,,,,,,,,,,,,,,,,,,,,,,,,,,,,,,,,,,,,,,,,,,,,,,,,,,,,,,,,,,,,,,,,,,,,,,,,,,,,,,,,,,,,,,,,,,,,,,256.3463785343047,12.0,"('h', 'l')",256.34701874572784,256.3470329324191,256.36041157055297,256.36041157055297,256.36041157055297,256.36041157055297,256.36041157055297,256.36041157055297,256.36041157055297,256.36041157055297,257.66936233613524,"['l', 'h']","[1.2460141480551101, 1.2620257726521231]","[None, None]",,,,,,,,,,,,,,,,,,,,,3002,2010-05-15_01h40.47.194,eb_03,2023.2.3,119.99550875322565,2010-05-15 01h40.56.835990 -0400,
,,,,0,0,0,0,51,0,51,0,257.6854829264921,,,,,,,,,,,,,,,,,,,,,,,,,,,,,,,,,,,,,,,,,,,,,,,,,,,,,,,,,,,,,,,,,,,,,,,,,,,,,,,,,,,,,,,,,,,,,,,,,,,,,,,,,,257.6714755470166,11.0,"('j',)",257.6720517674985,257.6720662560256,257.6854829264921,257.6854829264921,257.6854829264921,257.6854829264921,257.6854829264921,257.6854829264921,257.6854829264921,257.6854829264921,258.6693970482156,['j'],[0.920970561739523],[None],,,,,,,,,,,,,,,,,,,,,3002,2010-05-15_01h40.47.194,eb_03,2023.2.3,119.99550875322565,2010-05-15 01h40.56.835990 -0400,
,,,,0,0,0,0,52,0,52,0,258.68559521253337,,,,,,,,,,,,,,,,,,,,,,,,,,,,,,,,,,,,,,,,,,,,,,,,,,,,,,,,,,,,,,,,,,,,,,,,,,,,,,,,,,,,,,,,,,,,,,,,,,,,,,,,,,258.67152444575913,14.0,"('space',)",258.67200407612836,258.67201977199875,258.68559521253337,258.68559521253337,258.68559521253337,258.68559521253337,258.68559521253337,258.68559521253337,258.68559521253337,258.68559521253337,259.4694138307532,['space'],[0.7119585821637884],[None],,,,,,,,,,,,,,,,,,,,,3002,2010-05-15_01h40.47.194,eb_03,2023.2.3,119.99550875322565,2010-05-15 01h40.56.835990 -0400,
,,,,0,0,0,0,53,0,53,0,259.4856207485427,,,,,,,,,,,,,,,,,,,,,,,,,,,,,,,,,,,,,,,,,,,,,,,,,,,,,,,,,,,,,,,,,,,,,,,,,,,,,,,,,,,,,,,,,,,,,,,,,,,,,,,,,,259.47151587338885,0.0,"('h',)",259.47201089779264,259.47202659369214,259.4856207485427,259.4856207485427,259.4856207485427,259.4856207485427,259.4856207485427,259.4856207485427,259.4856207485427,259.4856207485427,260.3362142344995,['h'],[0.7918473707104567],[None],,,,,,,,,,,,,,,,,,,,,3002,2010-05-15_01h40.47.194,eb_03,2023.2.3,119.99550875322565,2010-05-15 01h40.56.835990 -0400,
,,,,0,0,0,0,54,0,54,0,260.3523746682913,,,,,,,,,,,,,,,,,,,,,,,,,,,,,,,,,,,,,,,,,,,,,,,,,,,,,,,,,,,,,,,,,,,,,,,,,,,,,,,,,,,,,,,,,,,,,,,,,,,,,,,,,,260.3383087310358,2.0,"('h', 'space')",260.33883726014756,260.3388526541821,260.3523746682913,260.3523746682913,260.3523746682913,260.3523746682913,260.3523746682913,260.3523746682913,260.3523746682913,260.3523746682913,261.11125733784866,"['h', 'space']","[0.6850715129112359, 0.6860709188622423]","[None, None]",,,,,,,,,,,,,,,,,,,,,3002,2010-05-15_01h40.47.194,eb_03,2023.2.3,119.99550875322565,2010-05-15 01h40.56.835990 -0400,
,,,,0,0,0,0,55,0,55,0,261.12742773248465,,,,,,,,,,,,,,,,,,,,,,,,,,,,,,,,,,,,,,,,,,,,,,,,,,,,,,,,,,,,,,,,,,,,,,,,,,,,,,,,,,,,,,,,,,,,,,,,,,,,,,,,,,261.113416429027,1.0,"('h', 'k')",261.1139624650823,261.1139772554452,261.12742773248465,261.12742773248465,261.12742773248465,261.12742773248465,261.12742773248465,261.12742773248465,261.12742773248465,261.12742773248465,263.23637324600713,"['k', 'h']","[2.0460502485802863, 2.070006411173381]","[None, None]",,,,,,,,,,,,,,,,,,,,,3002,2010-05-15_01h40.47.194,eb_03,2023.2.3,119.99550875322565,2010-05-15 01h40.56.835990 -0400,
,,,,0,0,0,0,56,0,56,0,263.25254062219756,,,,,,,,,,,,,,,,,,,,,,,,,,,,,,,,,,,,,,,,,,,,,,,,,,,,,,,,,,,,,,,,,,,,,,,,,,,,,,,,,,,,,,,,,,,,,,,,,,,,,,,,,,263.23843544520787,6.0,"('j', 'l')",263.2390506035881,263.239065393951,263.25254062219756,263.25254062219756,263.25254062219756,263.25254062219756,263.25254062219756,263.25254062219756,263.25254062219756,263.25254062219756,264.619822769193,"['j', 'l']","[1.3049377476563677, 1.3059021397202741]","[None, None]",,,,,,,,,,,,,,,,,,,,,3002,2010-05-15_01h40.47.194,eb_03,2023.2.3,119.99550875322565,2010-05-15 01h40.56.835990 -0400,
,,,,0,0,0,0,57,0,57,0,264.63596690341365,,,,,,,,,,,,,,,,,,,,,,,,,,,,,,,,,,,,,,,,,,,,,,,,,,,,,,,,,,,,,,,,,,,,,,,,,,,,,,,,,,,,,,,,,,,,,,,,,,,,,,,,,,264.6219308487198,7.0,"('l', 'space')",264.6224418708589,264.62245726492256,264.63596690341365,264.63596690341365,264.63596690341365,264.63596690341365,264.63596690341365,264.63596690341365,264.63596690341365,264.63596690341365,266.17822659321246,"['l', 'space']","[1.481511744146701, 1.4825014911184553]","[None, None]",,,,,,,,,,,,,,,,,,,,,3002,2010-05-15_01h40.47.194,eb_03,2023.2.3,119.99550875322565,2010-05-15 01h40.56.835990 -0400,
,,,,0,0,0,0,58,0,58,0,266.19444679212756,,,,,,,,,,,,,,,,,,,,,,,,,,,,,,,,,,,,,,,,,,,,,,,,,,,,,,,,,,,,,,,,,,,,,,,,,,,,,,,,,,,,,,,,,,,,,,,,,,,,,,,,,,266.1804342812975,9.0,"('k', 'space')",266.1809136098018,266.1809274946281,266.19444679212756,266.19444679212756,266.19444679212756,266.19444679212756,266.19444679212756,266.19444679212756,266.19444679212756,266.19444679212756,268.2617230229953,"['space', 'k']","[1.995045530173229, 2.011026366672013]","[None, None]",,,,,,,,,,,,,,,,,,,,,3002,2010-05-15_01h40.47.194,eb_03,2023.2.3,119.99550875322565,2010-05-15 01h40.56.835990 -0400,
,,,,0,0,0,0,59,0,59,0,268.27787530698697,,,,,,,,,,,,,,,,,,,,,,,,,,,,,,,,,,,,,,,,,,,,,,,,,,,,,,,,,,,,,,,,,,,,,,,,,,,,,,,,,,,,,,,,,,,,,,,,,,,,,,,,,,268.26381238817703,8.0,"('k',)",268.2644302631379,268.2644450535008,268.27787530698697,268.27787530698697,268.27787530698697,268.27787530698697,268.27787530698697,268.27787530698697,268.27787530698697,268.27787530698697,269.02009044459555,['k'],[0.6796407330257352],[None],,,,,,,,,,,,,,,,,,,,,3002,2010-05-15_01h40.47.194,eb_03,2023.2.3,119.99550875322565,2010-05-15 01h40.56.835990 -0400,
,,,,0,0,0,0,60,0,60,0,269.0362581226509,,,,,,,,,,,,,,,,,,,,,,,,,,,,,,,,,,,,,,,,,,,,,,,,,,,,,,,,,,,,,,,,,,,,,,,,,,,,,,,,,,,,,,,,,,,,,,,,,,,,,,,,,,269.0222105978755,7.0,"('l', 'space')",269.0227807814663,269.0227964773658,269.0362581226509,269.0362581226509,269.0362581226509,269.0362581226509,269.0362581226509,269.0362581226509,269.0362581226509,269.0362581226509,270.13685583442566,"['l', 'space']","[1.0412291938846465, 1.0422802152170334]","[None, None]",,,,,,,,,,,,,,,,,,,,,3002,2010-05-15_01h40.47.194,eb_03,2023.2.3,119.99550875322565,2010-05-15 01h40.56.835990 -0400,
,,,,0,0,0,0,61,0,61,0,270.1529975538724,,,,,,,,,,,,,,,,,,,,,,,,,,,,,,,,,,,,,,,,,,,,,,,,,,,,,,,,,,,,,,,,,,,,,,,,,,,,,,,,,,,,,,,,,,,,,,,,,,,,,,,,,,270.138983533805,5.0,"('j', 'space')",270.1395416436426,270.1395564340055,270.1529975538724,270.1529975538724,270.1529975538724,270.1529975538724,270.1529975538724,270.1529975538724,270.1529975538724,270.1529975538724,271.8036183869117,"['j', 'space']","[1.588489233807195, 1.6044839551614132]","[None, None]",,,,,,,,,,,,,,,,,,,,,3002,2010-05-15_01h40.47.194,eb_03,2023.2.3,119.99550875322565,2010-05-15 01h40.56.835990 -0400,
,,,,0,0,0,0,62,0,62,0,271.8197447122948,,,,,,,,,,,,,,,,,,,,,,,,,,,,,,,,,,,,,,,,,,,,,,,,,,,,,,,,,,,,,,,,,,,,,,,,,,,,,,,,,,,,,,,,,,,,,,,,,,,,,,,,,,271.8057162037294,7.0,"('l', 'space')",271.80619975805166,271.8062145484146,271.8197447122948,271.8197447122948,271.8197447122948,271.8197447122948,271.8197447122948,271.8197447122948,271.8197447122948,271.8197447122948,272.9287131659803,"['l', 'space']","[1.0497804385668132, 1.065745579166105]","[None, None]",,,,,,,,,,,,,,,,,,,,,3002,2010-05-15_01h40.47.194,eb_03,2023.2.3,119.99550875322565,2010-05-15 01h40.56.835990 -0400,
,,,,0,0,0,0,63,0,63,0,272.94483707661857,,,,,,,,,,,,,,,,,,,,,,,,,,,,,,,,,,,,,,,,,,,,,,,,,,,,,,,,,,,,,,,,,,,,,,,,,,,,,,,,,,,,,,,,,,,,,,,,,,,,,,,,,,272.93080947356066,1.0,"('h', 'k')",272.93128880206496,272.9313038942928,272.94483707661857,272.94483707661857,272.94483707661857,272.94483707661857,272.94483707661857,272.94483707661857,272.94483707661857,272.94483707661857,274.0787770965544,"['h', 'k']","[1.0606800307286903, 1.0616706832079217]","[None, None]",,,,,,,,,,,,,,,,,,,,,3002,2010-05-15_01h40.47.194,eb_03,2023.2.3,119.99550875322565,2010-05-15 01h40.56.835990 -0400,
,,,,0,0,0,0,64,0,64,0,274.0949284750386,,,,,,,,,,,,,,,,,,,,,,,,,,,,,,,,,,,,,,,,,,,,,,,,,,,,,,,,,,,,,,,,,,,,,,,,,,,,,,,,,,,,,,,,,,,,,,,,,,,,,,,,,,274.08091264389805,4.0,"('l',)",274.0814239679021,274.0814390601008,274.0949284750386,274.0949284750386,274.0949284750386,274.0949284750386,274.0949284750386,274.0949284750386,274.0949284750386,274.0949284750386,275.05384477000916,['l'],[0.8865597252734005],[None],,,,,,,,,,,,,,,,,,,,,3002,2010-05-15_01h40.47.194,eb_03,2023.2.3,119.99550875322565,2010-05-15 01h40.56.835990 -0400,
,,,,0,0,0,0,65,0,65,0,275.0699792452215,,,,,,,,,,,,,,,,,,,,,,,,,,,,,,,,,,,,,,,,,,,,,,,,,,,,,,,,,,,,,,,,,,,,,,,,,,,,,,,,,,,,,,,,,,,,,,,,,,,,,,,,,,275.055948623718,3.0,"('k', 'l')",275.0564210098237,275.0564457610308,275.0699792452215,275.0699792452215,275.0699792452215,275.0699792452215,275.0699792452215,275.0699792452215,275.0699792452215,275.0699792452215,276.02058577083517,"['k', 'l']","[0.8785795697476715, 0.8795152865932323]","[None, None]",,,,,,,,,,,,,,,,,,,,,3002,2010-05-15_01h40.47.194,eb_03,2023.2.3,119.99550875322565,2010-05-15 01h40.56.835990 -0400,
,,,,0,0,0,0,66,0,66,0,276.03670998333837,,,,,,,,,,,,,,,,,,,,,,,,,,,,,,,,,,,,,,,,,,,,,,,,,,,,,,,,,,,,,,,,,,,,,,,,,,,,,,,,,,,,,,,,,,,,,,,,,,,,,,,,,,276.0227192052698,2.0,"('h', 'space')",276.023273994826,276.02328908702475,276.03670998333837,276.03670998333837,276.03670998333837,276.03670998333837,276.03670998333837,276.03670998333837,276.03670998333837,276.03670998333837,277.99568181764334,"['h', 'space']","[1.8958233221783303, 1.896811258076923]","[None, None]",,,,,,,,,,,,,,,,,,,,,3002,2010-05-15_01h40.47.194,eb_03,2023.2.3,119.99550875322565,2010-05-15 01h40.56.835990 -0400,
,,,,0,0,0,0,67,0,67,0,278.0118585510063,,,,,,,,,,,,,,,,,,,,,,,,,,,,,,,,,,,,,,,,,,,,,,,,,,,,,,,,,,,,,,,,,,,,,,,,,,,,,,,,,,,,,,,,,,,,,,,,,,,,,,,,,,277.9977814455342,4.0,"('l',)",277.99833110373584,277.99835494940635,278.0118585510063,278.0118585510063,278.0118585510063,278.0118585510063,278.0118585510063,278.0118585510063,278.0118585510063,278.0118585510063,279.354140758398,['l'],[1.2807041903433856],[None],,,,,,,,,,,,,,,,,,,,,3002,2010-05-15_01h40.47.194,eb_03,2023.2.3,119.99550875322565,2010-05-15 01h40.56.835990 -0400,
,,,,0,0,0,0,68,0,68,0,279.37032986737904,,,,,,,,,,,,,,,,,,,,,,,,,,,,,,,,,,,,,,,,,,,,,,,,,,,,,,,,,,,,,,,,,,,,,,,,,,,,,,,,,,,,,,,,,,,,,,,,,,,,,,,,,,279.3562702688505,5.0,"('j', 'space')",279.3568694294663,279.3568851253658,279.37032986737904,279.37032986737904,279.37032986737904,279.37032986737904,279.37032986737904,279.37032986737904,279.37032986737904,279.37032986737904,282.2633306449279,"['k', 'space', 'space']","[1.6262079802691005, 1.6501958364679012, 2.890192419581581]","[None, None, None]",,,,,,,,,,,,,,,,,,,,,3002,2010-05-15_01h40.47.194,eb_03,2023.2.3,119.99550875322565,2010-05-15 01h40.56.835990 -0400,
,,,,0,0,0,0,69,0,69,0,282.28715520343394,,,,,,,,,,,,,,,,,,,,,,,,,,,,,,,,,,,,,,,,,,,,,,,,,,,,,,,,,,,,,,,,,,,,,,,,,,,,,,,,,,,,,,,,,,,,,,,,,,,,,,,,,,282.26540189946536,7.0,"('l', 'space')",282.2659017533588,282.2659144308127,282.28715520343394,282.28715520343394,282.28715520343394,282.28715520343394,282.28715520343394,282.28715520343394,282.28715520343394,282.28715520343394,284.8462007481139,"['l', 'space']","[2.4853696141799446, 2.486360870359931]","[None, None]",,,,,,,,,,,,,,,,,,,,,3002,2010-05-15_01h40.47.194,eb_03,2023.2.3,119.99550875322565,2010-05-15 01h40.56.835990 -0400,
,,,,0,0,0,0,70,0,70,0,284.86236238927813,,,,,,,,,,,,,,,,,,,,,,,,,,,,,,,,,,,,,,,,,,,,,,,,,,,,,,,,,,,,,,,,,,,,,,,,,,,,,,,,,,,,,,,,,,,,,,,,,,,,,,,,,,284.84829101883224,13.0,"('h', 'j')",284.84890557351173,284.84892036387464,284.86236238927813,284.86236238927813,284.86236238927813,284.86236238927813,284.86236238927813,284.86236238927813,284.86236238927813,284.86236238927813,286.2462387201085,"['j', 'h']","[1.310206739086425, 1.358206297212746]","[None, None]",,,,,,,,,,,,,,,,,,,,,3002,2010-05-15_01h40.47.194,eb_03,2023.2.3,119.99550875322565,2010-05-15 01h40.56.835990 -0400,
,,,,0,0,0,0,71,0,71,0,286.26240488892654,,,,,,,,,,,,,,,,,,,,,,,,,,,,,,,,,,,,,,,,,,,,,,,,,,,,,,,,,,,,,,,,,,,,,,,,,,,,,,,,,,,,,,,,,,,,,,,,,,,,,,,,,,286.24834106458,11.0,"('j',)",286.2489794649591,286.24899455715786,286.26240488892654,286.26240488892654,286.26240488892654,286.26240488892654,286.26240488892654,286.26240488892654,286.26240488892654,286.26240488892654,287.0629619724932,['j'],[0.726146766304737],[None],,,,,,,,,,,,,,,,,,,,,3002,2010-05-15_01h40.47.194,eb_03,2023.2.3,119.99550875322565,2010-05-15 01h40.56.835990 -0400,
,,,,0,0,0,0,72,0,72,0,287.07912723577465,,,,,,,,,,,,,,,,,,,,,,,,,,,,,,,,,,,,,,,,,,,,,,,,,,,,,,,,,,,,,,,,,,,,,,,,,,,,,,,,,,,,,,,,,,,,,,,,,,,,,,,,,,287.06507608888205,12.0,"('h', 'l')",287.06566257207305,287.0656776642718,287.07912723577465,287.07912723577465,287.07912723577465,287.07912723577465,287.07912723577465,287.07912723577465,287.07912723577465,287.07912723577465,287.9464021385065,"['l', 'h']","[0.8054385070863646, 0.8534265951311681]","[None, None]",,,,,,,,,,,,,,,,,,,,,3002,2010-05-15_01h40.47.194,eb_03,2023.2.3,119.99550875322565,2010-05-15 01h40.56.835990 -0400,
,,,,0,0,0,0,73,0,73,0,287.9625812866434,,,,,,,,,,,,,,,,,,,,,,,,,,,,,,,,,,,,,,,,,,,,,,,,,,,,,,,,,,,,,,,,,,,,,,,,,,,,,,,,,,,,,,,,,,,,,,,,,,,,,,,,,,287.94856243708637,10.0,"('j', 'k')",287.9490604799357,287.94907527029864,287.9625812866434,287.9625812866434,287.9625812866434,287.9625812866434,287.9625812866434,287.9625812866434,287.9625812866434,287.9625812866434,289.5714320210973,"['j', 'k']","[1.5459790133754723, 1.5469672511389945]","[None, None]",,,,,,,,,,,,,,,,,,,,,3002,2010-05-15_01h40.47.194,eb_03,2023.2.3,119.99550875322565,2010-05-15 01h40.56.835990 -0400,
,,,,0,0,0,0,74,0,74,0,289.5876818007382,,,,,,,,,,,,,,,,,,,,,,,,,,,,,,,,,,,,,,,,,,,,,,,,,,,,,,,,,,,,,,,,,,,,,,,,,,,,,,,,,,,,,,,,,,,,,,,,,,,,,,,,,,289.5735853772203,13.0,"('h', 'j')",289.57406168730813,289.57407647767104,289.5876818007382,289.5876818007382,289.5876818007382,289.5876818007382,289.5876818007382,289.5876818007382,289.5876818007382,289.5876818007382,291.1050321041548,"['h', 'j']","[1.45686134006246, 1.4578685939777642]","[None, None]",,,,,,,,,,,,,,,,,,,,,3002,2010-05-15_01h40.47.194,eb_03,2023.2.3,119.99550875322565,2010-05-15 01h40.56.835990 -0400,
,,,,0,0,0,0,75,0,75,0,291.12106546157156,,,,,,,,,,,,,,,,,,,,,,,,,,,,,,,,,,,,,,,,,,,,,,,,,,,,,,,,,,,,,,,,,,,,,,,,,,,,,,,,,,,,,,,,,,,,,,,,,,,,,,,,,,291.1071109047916,12.0,"('h', 'l')",291.10771791337174,291.10773270373465,291.12106546157156,291.12106546157156,291.12106546157156,291.12106546157156,291.12106546157156,291.12106546157156,291.12106546157156,291.12106546157156,294.0801381118072,"['h', 'l']","[2.898508225858677, 2.8994940488191787]","[None, None]",,,,,,,,,,,,,,,,,,,,,3002,2010-05-15_01h40.47.194,eb_03,2023.2.3,119.99550875322565,2010-05-15 01h40.56.835990 -0400,
,,,,0,0,0,0,76,0,76,0,294.09626081510214,,,,,,,,,,,,,,,,,,,,,,,,,,,,,,,,,,,,,,,,,,,,,,,,,,,,,,,,,,,,,,,,,,,,,,,,,,,,,,,,,,,,,,,,,,,,,,,,,,,,,,,,,,294.08226520751487,13.0,"('h', 'j')",294.08279071818106,294.08280550854397,294.09626081510214,294.09626081510214,294.09626081510214,294.09626081510214,294.09626081510214,294.09626081510214,294.09626081510214,294.09626081510214,295.6219082104217,"['j', 'h']","[1.451318575971527, 1.4673305024334695]","[None, None]",,,,,,,,,,,,,,,,,,,,,3002,2010-05-15_01h40.47.194,eb_03,2023.2.3,119.99550875322565,2010-05-15 01h40.56.835990 -0400,
,,,,0,0,0,0,77,0,77,0,295.6380318192241,,,,,,,,,,,,,,,,,,,,,,,,,,,,,,,,,,,,,,,,,,,,,,,,,,,,,,,,,,,,,,,,,,,,,,,,,,,,,,,,,,,,,,,,,,,,,,,,,,,,,,,,,,295.6239643727313,0.0,"('h',)",295.6245689665666,295.62458345509367,295.6380318192241,295.6380318192241,295.6380318192241,295.6380318192241,295.6380318192241,295.6380318192241,295.6380318192241,295.6380318192241,296.2468994569499,['h'],[0.5495277949958108],[None],,,,,,,,,,,,,,,,,,,,,3002,2010-05-15_01h40.47.194,eb_03,2023.2.3,119.99550875322565,2010-05-15 01h40.56.835990 -0400,
,,,,0,0,0,0,78,0,78,0,296.26308494378463,,,,,,,,,,,,,,,,,,,,,,,,,,,,,,,,,,,,,,,,,,,,,,,,,,,,,,,,,,,,,,,,,,,,,,,,,,,,,,,,,,,,,,,,,,,,,,,,,,,,,,,,,,296.248996368231,3.0,"('k', 'l')",296.24952912313165,296.2495451208961,296.26308494378463,296.26308494378463,296.26308494378463,296.26308494378463,296.26308494378463,296.26308494378463,296.26308494378463,296.26308494378463,298.2803785004944,"['l', 'k']","[1.9564804127439857, 1.9644711328437552]","[None, None]",,,,,,,,,,,,,,,,,,,,,3002,2010-05-15_01h40.47.194,eb_03,2023.2.3,119.99550875322565,2010-05-15 01h40.56.835990 -0400,
,,,,0,0,0,0,79,0,79,0,298.2966032270924,,,,,,,,,,,,,,,,,,,,,,,,,,,,,,,,,,,,,,,,,,,,,,,,,,,,,,,,,,,,,,,,,,,,,,,,,,,,,,,,,,,,,,,,,,,,,,,,,,,,,,,,,,298.28246997858514,4.0,"('l',)",298.2830323142407,298.2830471046036,298.2966032270924,298.2966032270924,298.2966032270924,298.2966032270924,298.2966032270924,298.2966032270924,298.2966032270924,298.2966032270924,298.95543240985717,['l'],[0.5869869555172045],[None],,,,,,,,,,,,,,,,,,,,,3002,2010-05-15_01h40.47.194,eb_03,2023.2.3,119.99550875322565,2010-05-15 01h40.56.835990 -0400,
,,,,0,0,0,0,80,0,80,0,298.9715774495853,,,,,,,,,,,,,,,,,,,,,,,,,,,,,,,,,,,,,,,,,,,,,,,,,,,,,,,,,,,,,,,,,,,,,,,,,,,,,,,,,,,,,,,,,,,,,,,,,,,,,,,,,,298.9575127197313,3.0,"('k', 'l')",298.9580943734036,298.95810976743815,298.9715774495853,298.9715774495853,298.9715774495853,298.9715774495853,298.9715774495853,298.9715774495853,298.9715774495853,298.9715774495853,299.57213079030043,"['k', 'l']","[0.5279703878622968, 0.528957116388483]","[None, None]",,,,,,,,,,,,,,,,,,,,,3002,2010-05-15_01h40.47.194,eb_03,2023.2.3,119.99550875322565,2010-05-15 01h40.56.835990 -0400,
,,,,0,0,0,0,81,0,81,0,299.5882873001101,,,,,,,,,,,,,,,,,,,,,,,,,,,,,,,,,,,,,,,,,,,,,,,,,,,,,,,,,,,,,,,,,,,,,,,,,,,,,,,,,,,,,,,,,,,,,,,,,,,,,,,,,,299.5742213628546,0.0,"('h',)",299.5747269518033,299.5747417421662,299.5882873001101,299.5882873001101,299.5882873001101,299.5882873001101,299.5882873001101,299.5882873001101,299.5882873001101,299.5882873001101,300.480503282859,['h'],[0.8312790826894343],[None],,,,,,,,,,,,,,,,,,,,,3002,2010-05-15_01h40.47.194,eb_03,2023.2.3,119.99550875322565,2010-05-15 01h40.56.835990 -0400,
,,,,0,0,0,0,82,0,82,0,300.49676483444637,,,,,,,,,,,,,,,,,,,,,,,,,,,,,,,,,,,,,,,,,,,,,,,,,,,,,,,,,,,,,,,,,,,,,,,,,,,,,,,,,,,,,,,,,,,,,,,,,,,,,,,,,,300.4826125697582,1.0,"('h', 'k')",300.48309250196326,300.4831078960269,300.49676483444637,300.49676483444637,300.49676483444637,300.49676483444637,300.49676483444637,300.49676483444637,300.49676483444637,300.49676483444637,302.43071560005774,"['h', 'k']","[1.8748285525362007, 1.8758355046156794]","[None, None]",,,,,,,,,,,,,,,,,,,,,3002,2010-05-15_01h40.47.194,eb_03,2023.2.3,119.99550875322565,2010-05-15 01h40.56.835990 -0400,
,,,,0,0,0,0,83,0,83,0,302.44682321109576,,,,,,,,,,,,,,,,,,,,,,,,,,,,,,,,,,,,,,,,,,,,,,,,,,,,,,,,,,,,,,,,,,,,,,,,,,,,,,,,,,,,,,,,,,,,,,,,,,,,,,,,,,302.43281915190164,0.0,"('h',)",302.43335401974036,302.4333688101033,302.44682321109576,302.44682321109576,302.44682321109576,302.44682321109576,302.44682321109576,302.44682321109576,302.44682321109576,302.44682321109576,303.03068668337073,['h'],[0.5087824572983664],[None],,,,,,,,,,,,,,,,,,,,,3002,2010-05-15_01h40.47.194,eb_03,2023.2.3,119.99550875322565,2010-05-15 01h40.56.835990 -0400,
,,,,0,0,0,0,84,0,84,0,303.046871264698,,,,,,,,,,,,,,,,,,,,,,,,,,,,,,,,,,,,,,,,,,,,,,,,,,,,,,,,,,,,,,,,,,,,,,,,,,,,,,,,,,,,,,,,,,,,,,,,,,,,,,,,,,303.03280170532526,8.0,"('k',)",303.03328103382955,303.03329672969994,303.046871264698,303.046871264698,303.046871264698,303.046871264698,303.046871264698,303.046871264698,303.046871264698,303.046871264698,303.78900731913745,['k'],[0.6687233320844825],[None],,,,,,,,,,,,,,,,,,,,,3002,2010-05-15_01h40.47.194,eb_03,2023.2.3,119.99550875322565,2010-05-15 01h40.56.835990 -0400,
,,,,0,0,0,0,85,0,85,0,303.80523083833396,,,,,,,,,,,,,,,,,,,,,,,,,,,,,,,,,,,,,,,,,,,,,,,,,,,,,,,,,,,,,,,,,,,,,,,,,,,,,,,,,,,,,,,,,,,,,,,,,,,,,,,,,,303.7911081544007,5.0,"('j', 'space')",303.7915669574868,303.79159140688716,303.80523083833396,303.80523083833396,303.80523083833396,303.80523083833396,303.80523083833396,303.80523083833396,303.80523083833396,303.80523083833396,305.9309184393205,"['j', 'space']","[2.0454583322280087, 2.046361751767108]","[None, None]",,,,,,,,,,,,,,,,,,,,,3002,2010-05-15_01h40.47.194,eb_03,2023.2.3,119.99550875322565,2010-05-15 01h40.56.835990 -0400,
,,,,0,0,0,0,86,0,86,0,305.94705291450373,,,,,,,,,,,,,,,,,,,,,,,,,,,,,,,,,,,,,,,,,,,,,,,,,,,,,,,,,,,,,,,,,,,,,,,,,,,,,,,,,,,,,,,,,,,,,,,,,,,,,,,,,,305.93299422151176,7.0,"('l', 'space')",305.9335656124749,305.9335900618462,305.94705291450373,305.94705291450373,305.94705291450373,305.94705291450373,305.94705291450373,305.94705291450373,305.94705291450373,305.94705291450373,307.464860813634,"['space', 'l']","[1.063583469571313, 1.4555522419977933]","[None, None]",,,,,,,,,,,,,,,,,,,,,3002,2010-05-15_01h40.47.194,eb_03,2023.2.3,119.99550875322565,2010-05-15 01h40.56.835990 -0400,
,,,,0,0,0,0,87,0,87,0,307.4805114326591,,,,,,,,,,,,,,,,,,,,,,,,,,,,,,,,,,,,,,,,,,,,,,,,,,,,,,,,,,,,,,,,,,,,,,,,,,,,,,,,,,,,,,,,,,,,,,,,,,,,,,,,,,307.46695591387106,6.0,"('j', 'l')",307.4675064775802,307.46752187164384,307.4805114326591,307.4805114326591,307.4805114326591,307.4805114326591,307.4805114326591,307.4805114326591,307.4805114326591,307.4805114326591,310.63953470121487,"['j', 'l']","[3.098107799392892, 3.0990981500362977]","[None, None]",,,,,,,,,,,,,,,,,,,,,3002,2010-05-15_01h40.47.194,eb_03,2023.2.3,119.99550875322565,2010-05-15 01h40.56.835990 -0400,
,,,,0,0,0,0,88,0,88,0,310.655713245651,,,,,,,,,,,,,,,,,,,,,,,,,,,,,,,,,,,,,,,,,,,,,,,,,,,,,,,,,,,,,,,,,,,,,,,,,,,,,,,,,,,,,,,,,,,,,,,,,,,,,,,,,,310.64167719098623,7.0,"('l', 'space')",310.64223590449546,310.64225129855913,310.655713245651,310.655713245651,310.655713245651,310.655713245651,310.655713245651,310.655713245651,310.655713245651,310.655713245651,312.0813240574789,"['l', 'space']","[1.3308743096713442, 1.331858925288543]","[None, None]",,,,,,,,,,,,,,,,,,,,,3002,2010-05-15_01h40.47.194,eb_03,2023.2.3,119.99550875322565,2010-05-15 01h40.56.835990 -0400,
,,,,0,0,0,0,89,0,89,0,312.09743166854605,,,,,,,,,,,,,,,,,,,,,,,,,,,,,,,,,,,,,,,,,,,,,,,,,,,,,,,,,,,,,,,,,,,,,,,,,,,,,,,,,,,,,,,,,,,,,,,,,,,,,,,,,,312.08341221528826,8.0,"('k',)",312.0838465690031,312.08386105753016,312.09743166854605,312.09743166854605,312.09743166854605,312.09743166854605,312.09743166854605,312.09743166854605,312.09743166854605,312.09743166854605,313.03133444092236,['k'],[0.873208856821293],[None],,,,,,,,,,,,,,,,,,,,,3002,2010-05-15_01h40.47.194,eb_03,2023.2.3,119.99550875322565,2010-05-15 01h40.56.835990 -0400,
,,,,0,0,0,0,90,0,90,0,313.0475383402663,,,,,,,,,,,,,,,,,,,,,,,,,,,,,,,,,,,,,,,,,,,,,,,,,,,,,,,,,,,,,,,,,,,,,,,,,,,,,,,,,,,,,,,,,,,,,,,,,,,,,,,,,,313.03352341466234,6.0,"('j', 'l')",313.0340676396736,313.03408303370816,313.0475383402663,313.0475383402663,313.0475383402663,313.0475383402663,313.0475383402663,313.0475383402663,313.0475383402663,313.0475383402663,320.16571696437313,"['j', 'l', 'space', 'j', 'l']","[2.6831258255406283, 2.684094745258335, 2.6850718147761654, 7.035095117142191, 7.036082147504203]","[None, None, None, None, None]",,,,,,,,,,,,,,,,,,,,,3002,2010-05-15_01h40.47.194,eb_03,2023.2.3,119.99550875322565,2010-05-15 01h40.56.835990 -0400,
,,,,0,0,0,0,91,0,91,0,320.1813352860627,,,,,,,,,,,,,,,,,,,,,,,,,,,,,,,,,,,,,,,,,,,,,,,,,,,,,,,,,,,,,,,,,,,,,,,,,,,,,,,,,,,,,,,,,,,,,,,,,,,,,,,,,,320.16778550232993,11.0,"('j',)",320.16832731256727,320.16834270660183,320.1813352860627,320.1813352860627,320.1813352860627,320.1813352860627,320.1813352860627,320.1813352860627,320.1813352860627,320.1813352860627,320.89021324686473,['j'],[0.6373092043213546],[None],,,,,,,,,,,,,,,,,,,,,3002,2010-05-15_01h40.47.194,eb_03,2023.2.3,119.99550875322565,2010-05-15 01h40.56.835990 -0400,
,,,,0,0,0,0,92,0,92,0,320.9063842452015,,,,,,,,,,,,,,,,,,,,,,,,,,,,,,,,,,,,,,,,,,,,,,,,,,,,,,,,,,,,,,,,,,,,,,,,,,,,,,,,,,,,,,,,,,,,,,,,,,,,,,,,,,320.8922947641113,14.0,"('space',)",320.89288305834634,320.8928975468734,320.9063842452015,320.9063842452015,320.9063842452015,320.9063842452015,320.9063842452015,320.9063842452015,320.9063842452015,320.9063842452015,323.4658626343589,"['h', 'space']","[1.431317477254197, 2.5112464110716246]","[None, None]",,,,,,,,,,,,,,,,,,,,,3002,2010-05-15_01h40.47.194,eb_03,2023.2.3,119.99550875322565,2010-05-15 01h40.56.835990 -0400,
,,,,0,0,0,0,93,0,93,0,323.48153951382847,,,,,,,,,,,,,,,,,,,,,,,,,,,,,,,,,,,,,,,,,,,,,,,,,,,,,,,,,,,,,,,,,,,,,,,,,,,,,,,,,,,,,,,,,,,,,,,,,,,,,,,,,,323.46797765631345,11.0,"('j',)",323.4686281304457,323.4686435244803,323.48153951382847,323.48153951382847,323.48153951382847,323.48153951382847,323.48153951382847,323.48153951382847,323.48153951382847,323.48153951382847,324.93220127694076,['j'],[1.3760947887203656],[None],,,,,,,,,,,,,,,,,,,,,3002,2010-05-15_01h40.47.194,eb_03,2023.2.3,119.99550875322565,2010-05-15 01h40.56.835990 -0400,
,,,,0,0,0,0,94,0,94,0,324.9483013418794,,,,,,,,,,,,,,,,,,,,,,,,,,,,,,,,,,,,,,,,,,,,,,,,,,,,,,,,,,,,,,,,,,,,,,,,,,,,,,,,,,,,,,,,,,,,,,,,,,,,,,,,,,324.9342773609678,12.0,"('h', 'l')",324.9348454316496,324.9348611275491,324.9483013418794,324.9483013418794,324.9483013418794,324.9483013418794,324.9483013418794,324.9483013418794,324.9483013418794,324.9483013418794,326.6989859244204,"['l', 'h']","[1.6773645262874197, 1.6933752453769557]","[None, None]",,,,,,,,,,,,,,,,,,,,,3002,2010-05-15_01h40.47.194,eb_03,2023.2.3,119.99550875322565,2010-05-15 01h40.56.835990 -0400,
,,,,0,0,0,0,95,0,95,0,326.7151170793222,,,,,,,,,,,,,,,,,,,,,,,,,,,,,,,,,,,,,,,,,,,,,,,,,,,,,,,,,,,,,,,,,,,,,,,,,,,,,,,,,,,,,,,,,,,,,,,,,,,,,,,,,,326.7010792135843,11.0,"('j',)",326.70159295230405,326.7016174017044,326.7151170793222,326.7151170793222,326.7151170793222,326.7151170793222,326.7151170793222,326.7151170793222,326.7151170793222,326.7151170793222,327.5323027569393,['j'],[0.7425456569471862],[None],,,,,,,,,,,,,,,,,,,,,3002,2010-05-15_01h40.47.194,eb_03,2023.2.3,119.99550875322565,2010-05-15 01h40.56.835990 -0400,
,,,,0,0,0,0,96,0,96,0,327.54852416322683,,,,,,,,,,,,,,,,,,,,,,,,,,,,,,,,,,,,,,,,,,,,,,,,,,,,,,,,,,,,,,,,,,,,,,,,,,,,,,,,,,,,,,,,,,,,,,,,,,,,,,,,,,327.53440540327574,10.0,"('j', 'k')",327.53495717435726,327.53497377579333,327.54852416322683,327.54852416322683,327.54852416322683,327.54852416322683,327.54852416322683,327.54852416322683,327.54852416322683,327.54852416322683,328.5407311510644,"['j', 'k']","[0.9091379693418276, 0.9101189628127031]","[None, None]",,,,,,,,,,,,,,,,,,,,,3002,2010-05-15_01h40.47.194,eb_03,2023.2.3,119.99550875322565,2010-05-15 01h40.56.835990 -0400,
,,,,0,0,0,0,97,0,97,0,328.5568620041013,,,,,,,,,,,,,,,,,,,,,,,,,,,,,,,,,,,,,,,,,,,,,,,,,,,,,,,,,,,,,,,,,,,,,,,,,,,,,,,,,,,,,,,,,,,,,,,,,,,,,,,,,,328.54283409923664,13.0,"('h', 'j')",328.54334300846676,328.5433577988297,328.5568620041013,328.5568620041013,328.5568620041013,328.5568620041013,328.5568620041013,328.5568620041013,328.5568620041013,328.5568620041013,329.74088702336303,"['h', 'j']","[1.1248348912340589, 1.125793246406829]","[None, None]",,,,,,,,,,,,,,,,,,,,,3002,2010-05-15_01h40.47.194,eb_03,2023.2.3,119.99550875322565,2010-05-15 01h40.56.835990 -0400,
,,,,0,0,0,0,98,0,98,0,329.7569852772576,,,,,,,,,,,,,,,,,,,,,,,,,,,,,,,,,,,,,,,,,,,,,,,,,,,,,,,,,,,,,,,,,,,,,,,,,,,,,,,,,,,,,,,,,,,,,,,,,,,,,,,,,,329.7430150246073,9.0,"('k', 'space')",329.74351276559173,329.74352755598375,329.7569852772576,329.7569852772576,329.7569852772576,329.7569852772576,329.7569852772576,329.7569852772576,329.7569852772576,329.7569852772576,331.1992147222918,"['k', 'space']","[1.3806912713916972, 1.3816544560831971]","[None, None]",,,,,,,,,,,,,,,,,,,,,3002,2010-05-15_01h40.47.194,eb_03,2023.2.3,119.99550875322565,2010-05-15 01h40.56.835990 -0400,
,,,,0,0,0,0,99,0,99,0,331.2154011146631,,,,,,,,,,,,,,,,,,,,,,,,,,,,,,,,,,,,,,,,,,,,,,,,,,,,,,,,,,,,,,,,,,,,,,,,,,,,,,,,,,,,,,,,,,,,,,,,,,,,,,,,,,331.2013463456533,10.0,"('j', 'k')",331.2018552548834,331.2018700452463,331.2154011146631,331.2154011146631,331.2154011146631,331.2154011146631,331.2154011146631,331.2154011146631,331.2154011146631,331.2154011146631,332.790992849943,"['j', 'k']","[1.5142524769180454, 1.5152386017434765]","[None, None]",,,,,,,,,,,,,,,,,,,,,3002,2010-05-15_01h40.47.194,eb_03,2023.2.3,119.99550875322565,2010-05-15 01h40.56.835990 -0400,
,,,,0,0,0,0,100,0,100,0,332.80716294271406,,,,,,,,,,,,,,,,,,,,,,,,,,,,,,,,,,,,,,,,,,,,,,,,,,,,,,,,,,,,,,,,,,,,,,,,,,,,,,,,,,,,,,,,,,,,,,,,,,,,,,,,,,332.79317367388285,9.0,"('k', 'space')",332.79365420975955,332.7936693019874,332.80716294271406,332.80716294271406,332.80716294271406,332.80716294271406,332.80716294271406,332.80716294271406,332.80716294271406,332.80716294271406,334.249474187498,"['k', 'space']","[1.362511500279652, 1.3635018509230576]","[None, None]",,,,,,,,,,,,,,,,,,,,,3002,2010-05-15_01h40.47.194,eb_03,2023.2.3,119.99550875322565,2010-05-15 01h40.56.835990 -0400,
,,,,0,0,0,0,101,0,101,0,334.2656744647247,,,,,,,,,,,,,,,,,,,,,,,,,,,,,,,,,,,,,,,,,,,,,,,,,,,,,,,,,,,,,,,,,,,,,,,,,,,,,,,,,,,,,,,,,,,,,,,,,,,,,,,,,,334.25158196518896,7.0,"('l', 'space')",334.2522028585954,334.25221795079415,334.2656744647247,334.2656744647247,334.2656744647247,334.2656744647247,334.2656744647247,334.2656744647247,334.2656744647247,334.2656744647247,335.7412709691271,"['l', 'space']","[1.4160172992851585, 1.4169925577298272]","[None, None]",,,,,,,,,,,,,,,,,,,,,3002,2010-05-15_01h40.47.194,eb_03,2023.2.3,119.99550875322565,2010-05-15 01h40.56.835990 -0400,
,,,,0,0,0,0,102,0,102,0,335.7573855225928,,,,,,,,,,,,,,,,,,,,,,,,,,,,,,,,,,,,,,,,,,,,,,,,,,,,,,,,,,,,,,,,,,,,,,,,,,,,,,,,,,,,,,,,,,,,,,,,,,,,,,,,,,335.74337210622616,6.0,"('j', 'l')",335.7439060685283,335.7439208588912,335.7573855225928,335.7573855225928,335.7573855225928,335.7573855225928,335.7573855225928,335.7573855225928,335.7573855225928,335.7573855225928,338.3997524274455,"['j', 'l']","[2.57932283077389, 2.5802730361465365]","[None, None]",,,,,,,,,,,,,,,,,,,,,3002,2010-05-15_01h40.47.194,eb_03,2023.2.3,119.99550875322565,2010-05-15 01h40.56.835990 -0400,
,,,,0,0,0,0,103,0,103,0,338.4158678864478,,,,,,,,,,,,,,,,,,,,,,,,,,,,,,,,,,,,,,,,,,,,,,,,,,,,,,,,,,,,,,,,,,,,,,,,,,,,,,,,,,,,,,,,,,,,,,,,,,,,,,,,,,338.4018315299181,7.0,"('l', 'space')",338.40265164047014,338.40267669354216,338.4158678864478,338.4158678864478,338.4158678864478,338.4158678864478,338.4158678864478,338.4158678864478,338.4158678864478,338.4158678864478,339.64987829644815,"['l', 'space']","[1.1528067883627955, 1.153794120560633]","[None, None]",,,,,,,,,,,,,,,,,,,,,3002,2010-05-15_01h40.47.194,eb_03,2023.2.3,119.99550875322565,2010-05-15 01h40.56.835990 -0400,
,,,,0,0,0,0,104,0,104,0,339.66596538212616,,,,,,,,,,,,,,,,,,,,,,,,,,,,,,,,,,,,,,,,,,,,,,,,,,,,,,,,,,,,,,,,,,,,,,,,,,,,,,,,,,,,,,,,,,,,,,,,,,,,,,,,,,339.65194804177736,9.0,"('k', 'space')",339.65255354112014,339.6525680296472,339.66596538212616,339.66596538212616,339.66596538212616,339.66596538212616,339.66596538212616,339.66596538212616,339.66596538212616,339.66596538212616,340.7748970107932,"['space', 'k']","[1.046727285021916, 1.0707287242112216]","[None, None]",,,,,,,,,,,,,,,,,,,,,3002,2010-05-15_01h40.47.194,eb_03,2023.2.3,119.99550875322565,2010-05-15 01h40.56.835990 -0400,
,,,,0,0,0,0,105,0,105,0,340.79104446526617,,,,,,,,,,,,,,,,,,,,,,,,,,,,,,,,,,,,,,,,,,,,,,,,,,,,,,,,,,,,,,,,,,,,,,,,,,,,,,,,,,,,,,,,,,,,,,,,,,,,,,,,,,340.777009316138,6.0,"('j', 'l')",340.7777434010932,340.7777563803829,340.79104446526617,340.79104446526617,340.79104446526617,340.79104446526617,340.79104446526617,340.79104446526617,340.79104446526617,340.79104446526617,342.1832009847567,"['j', 'l']","[1.329633730230853, 1.3306222698302008]","[None, None]",,,,,,,,,,,,,,,,,,,,,3002,2010-05-15_01h40.47.194,eb_03,2023.2.3,119.99550875322565,2010-05-15 01h40.56.835990 -0400,
,,,,0,0,0,0,106,0,106,0,342.1994356721989,,,,,,,,,,,,,,,,,,,,,,,,,,,,,,,,,,,,,,,,,,,,,,,,,,,,,,,,,,,,,,,,,,,,,,,,,,,,,,,,,,,,,,,,,,,,,,,,,,,,,,,,,,342.1852963868296,5.0,"('j', 'space')",342.1859003769641,342.18591546916286,342.1994356721989,342.1994356721989,342.1994356721989,342.1994356721989,342.1994356721989,342.1994356721989,342.1994356721989,342.1994356721989,344.5584660039167,"['j', 'space']","[2.2972748303145636, 2.2982636717206333]","[None, None]",,,,,,,,,,,,,,,,,,,,,3002,2010-05-15_01h40.47.194,eb_03,2023.2.3,119.99550875322565,2010-05-15 01h40.56.835990 -0400,
,,,,0,0,0,0,107,0,107,0,344.57469586184015,,,,,,,,,,,,,,,,,,,,,,,,,,,,,,,,,,,,,,,,,,,,,,,,,,,,,,,,,,,,,,,,,,,,,,,,,,,,,,,,,,,,,,,,,,,,,,,,,,,,,,,,,,344.5605505395797,7.0,"('l', 'space')",344.56110472543514,344.56111951579805,344.57469586184015,344.57469586184015,344.57469586184015,344.57469586184015,344.57469586184015,344.57469586184015,344.57469586184015,344.57469586184015,345.7001893770357,"['l', 'space']","[1.0660305200726725, 1.0670238891616464]","[None, None]",,,,,,,,,,,,,,,,,,,,,3002,2010-05-15_01h40.47.194,eb_03,2023.2.3,119.99550875322565,2010-05-15 01h40.56.835990 -0400,
,,,,0,0,0,0,108,0,108,0,345.716369732545,,,,,,,,,,,,,,,,,,,,,,,,,,,,,,,,,,,,,,,,,,,,,,,,,,,,,,,,,,,,,,,,,,,,,,,,,,,,,,,,,,,,,,,,,,,,,,,,,,,,,,,,,,345.7022648573911,9.0,"('k', 'space')",345.70285949035315,345.702882732352,345.716369732545,345.716369732545,345.716369732545,345.716369732545,345.716369732545,345.716369732545,345.716369732545,345.716369732545,346.8585365147155,"['k', 'space']","[1.0603217417083215, 1.061310583143495]","[None, None]",,,,,,,,,,,,,,,,,,,,,3002,2010-05-15_01h40.47.194,eb_03,2023.2.3,119.99550875322565,2010-05-15 01h40.56.835990 -0400,
,,,,0,0,0,0,109,0,109,0,346.87483308019,,,,,,,,,,,,,,,,,,,,,,,,,,,,,,,,,,,,,,,,,,,,,,,,,,,,,,,,,,,,,,,,,,,,,,,,,,,,,,,,,,,,,,,,,,,,,,,,,,,,,,,,,,346.86064821635955,6.0,"('j', 'l')",346.86113660017145,346.86115108869853,346.87483308019,346.87483308019,346.87483308019,346.87483308019,346.87483308019,346.87483308019,346.87483308019,346.87483308019,348.25036251483834,"['l', 'j']","[1.301865879795514, 1.325877279829001]","[None, None]",,,,,,,,,,,,,,,,,,,,,3002,2010-05-15_01h40.47.194,eb_03,2023.2.3,119.99550875322565,2010-05-15 01h40.56.835990 -0400,
,,,,0,0,0,0,110,0,110,0,348.2665220430936,,,,,,,,,,,,,,,,,,,,,,,,,,,,,,,,,,,,,,,,,,,,,,,,,,,,,,,,,,,,,,,,,,,,,,,,,,,,,,,,,,,,,,,,,,,,,,,,,,,,,,,,,,348.25243437304744,5.0,"('j', 'space')",348.253055266483,348.25306975498097,348.2665220430936,348.2665220430936,348.2665220430936,348.2665220430936,348.2665220430936,348.2665220430936,348.2665220430936,348.2665220430936,352.2172459861031,"['j', 'space']","[3.870174417621456, 3.8711596369103063]","[None, None]",,,,,,,,,,,,,,,,,,,,,3002,2010-05-15_01h40.47.194,eb_03,2023.2.3,119.99550875322565,2010-05-15 01h40.56.835990 -0400,
,,,,0,0,0,0,111,0,111,0,352.23349395467085,,,,,,,,,,,,,,,,,,,,,,,,,,,,,,,,,,,,,,,,,,,,,,,,,,,,,,,,,,,,,,,,,,,,,,,,,,,,,,,,,,,,,,,,,,,,,,,,,,,,,,,,,,352.2193860611005,7.0,"('l', 'space')",352.21993813404697,352.2199520188733,352.23349395467085,352.23349395467085,352.23349395467085,352.23349395467085,352.23349395467085,352.23349395467085,352.23349395467085,352.23349395467085,353.4007599831966,"['space', 'l']","[1.0952263951767236, 1.1102576300036162]","[None, None]",,,,,,,,,,,,,,,,,,,,,3002,2010-05-15_01h40.47.194,eb_03,2023.2.3,119.99550875322565,2010-05-15 01h40.56.835990 -0400,
,,,,0,0,0,0,112,0,112,0,353.4168841956998,,,,,,,,,,,,,,,,,,,,,,,,,,,,,,,,,,,,,,,,,,,,,,,,,,,,,,,,,,,,,,,,,,,,,,,,,,,,,,,,,,,,,,,,,,,,,,,,,,,,,,,,,,353.40285266868887,6.0,"('j', 'l')",353.40346179017797,353.4034756750043,353.4168841956998,353.4168841956998,353.4168841956998,353.4168841956998,353.4168841956998,353.4168841956998,353.4168841956998,353.4168841956998,355.27589098355384,"['j', 'l']","[1.798847438301891, 1.7998380908102263]","[None, None]",,,,,,,,,,,,,,,,,,,,,3002,2010-05-15_01h40.47.194,eb_03,2023.2.3,119.99550875322565,2010-05-15 01h40.56.835990 -0400,
,,,,0,0,0,0,113,0,113,0,355.2920203274116,,,,,,,,,,,,,,,,,,,,,,,,,,,,,,,,,,,,,,,,,,,,,,,,,,,,,,,,,,,,,,,,,,,,,,,,,,,,,,,,,,,,,,,,,,,,,,,,,,,,,,,,,,355.27800268522697,8.0,"('k',)",355.2785182350199,355.27853272354696,355.2920203274116,355.2920203274116,355.2920203274116,355.2920203274116,355.2920203274116,355.2920203274116,355.2920203274116,355.2920203274116,356.0758908628195,['k'],[0.7237253725179471],[None],,,,,,,,,,,,,,,,,,,,,3002,2010-05-15_01h40.47.194,eb_03,2023.2.3,119.99550875322565,2010-05-15 01h40.56.835990 -0400,
,,,,0,0,0,0,114,0,114,0,356.0920443542127,,,,,,,,,,,,,,,,,,,,,,,,,,,,,,,,,,,,,,,,,,,,,,,,,,,,,,,,,,,,,,,,,,,,,,,,,,,,,,,,,,,,,,,,,,,,,,,,,,,,,,,,,,356.0780170529906,7.0,"('l', 'space')",356.0785664093564,356.078581803391,356.0920443542127,356.0920443542127,356.0920443542127,356.0920443542127,356.0920443542127,356.0920443542127,356.0920443542127,356.0920443542127,357.9011058965989,"['l', 'space']","[1.7396748172468506, 1.7876933915540576]","[None, None]",,,,,,,,,,,,,,,,,,,,,3002,2010-05-15_01h40.47.194,eb_03,2023.2.3,119.99550875322565,2010-05-15 01h40.56.835990 -0400,
,,,,0,0,0,0,115,0,115,0,357.9171848324768,,,,,,,,,,,,,,,,,,,,,,,,,,,,,,,,,,,,,,,,,,,,,,,,,,,,,,,,,,,,,,,,,,,,,,,,,,,,,,,,,,,,,,,,,,,,,,,,,,,,,,,,,,357.9032094484719,9.0,"('k', 'space')",357.90377510437975,357.90378989474266,357.9171848324768,357.9171848324768,357.9171848324768,357.9171848324768,357.9171848324768,357.9171848324768,357.9171848324768,357.9171848324768,359.3178467163234,"['k', 'space']","[1.3385378307139035, 1.3395269739849027]","[None, None]",,,,,,,,,,,,,,,,,,,,,3002,2010-05-15_01h40.47.194,eb_03,2023.2.3,119.99550875322565,2010-05-15 01h40.56.835990 -0400,
,,,,0,0,0,0,116,0,116,0,359.3339289724536,,,,,,,,,,,,,,,,,,,,,,,,,,,,,,,,,,,,,,,,,,,,,,,,,,,,,,,,,,,,,,,,,,,,,,,,,,,,,,,,,,,,,,,,,,,,,,,,,,,,,,,,,,359.3199741138669,7.0,"('l', 'space')",359.32053403474856,359.32054852327565,359.3339289724536,359.3339289724536,359.3339289724536,359.3339289724536,359.3339289724536,359.3339289724536,359.3339289724536,359.3339289724536,360.0678500366048,"['l', 'space']","[0.6738151409954298, 0.6747864754579496]","[None, None]",,,,,,,,,,,,,,,,,,,,,3002,2010-05-15_01h40.47.194,eb_03,2023.2.3,119.99550875322565,2010-05-15 01h40.56.835990 -0400,
,,,,0,0,0,0,117,0,117,0,360.0839926615881,,,,,,,,,,,,,,,,,,,,,,,,,,,,,,,,,,,,,,,,,,,,,,,,,,,,,,,,,,,,,,,,,,,,,,,,,,,,,,,,,,,,,,,,,,,,,,,,,,,,,,,,,,360.069963549322,8.0,"('k',)",360.070516527805,360.070531016303,360.0839926615881,360.0839926615881,360.0839926615881,360.0839926615881,360.0839926615881,360.0839926615881,360.0839926615881,360.0839926615881,360.86789941831375,['k'],[0.7237410684174392],[None],,,,,,,,,,,,,,,,,,,,,3002,2010-05-15_01h40.47.194,eb_03,2023.2.3,119.99550875322565,2010-05-15 01h40.56.835990 -0400,
,,,,0,0,0,0,118,0,118,0,360.88404174143216,,,,,,,,,,,,,,,,,,,,,,,,,,,,,,,,,,,,,,,,,,,,,,,,,,,,,,,,,,,,,,,,,,,,,,,,,,,,,,,,,,,,,,,,,,,,,,,,,,,,,,,,,,360.8699573916965,7.0,"('l', 'space')",360.87057677589473,360.8705912643927,360.88404174143216,360.88404174143216,360.88404174143216,360.88404174143216,360.88404174143216,360.88404174143216,360.88404174143216,360.88404174143216,361.68462508544326,"['l', 'space']","[0.7397158680832945, 0.740709539008094]","[None, None]",,,,,,,,,,,,,,,,,,,,,3002,2010-05-15_01h40.47.194,eb_03,2023.2.3,119.99550875322565,2010-05-15 01h40.56.835990 -0400,
,,,,0,0,0,0,119,0,119,0,361.7007873302791,,,,,,,,,,,,,,,,,,,,,,,,,,,,,,,,,,,,,,,,,,,,,,,,,,,,,,,,,,,,,,,,,,,,,,,,,,,,,,,,,,,,,,,,,,,,,,,,,,,,,,,,,,361.68667762563564,2.0,"('h', 'space')",361.6873006319511,361.68732387394994,361.7007873302791,361.7007873302791,361.7007873302791,361.7007873302791,361.7007873302791,361.7007873302791,361.7007873302791,361.7007873302791,364.46050218417076,"['space', 'h', 'space']","[1.5309683039376978, 2.7549605066888034, 2.7559608182054944]","[None, None, None]",,,,,,,,,,,,,,,,,,,,,3002,2010-05-15_01h40.47.194,eb_03,2023.2.3,119.99550875322565,2010-05-15 01h40.56.835990 -0400,
,,,,0,0,0,0,120,0,120,0,364.4926350028254,,,,,,,,,,,,,,,,,,,,,,,,,,,,,,,,,,,,,,,,,,,,,,,,,,,,,,,,,,,,,,,,,,,,,,,,,,,,,,,,,,,,,,,,,,,,,,,,,,,,,,,,,,364.46258732353454,1.0,"('h', 'k')",364.46315690342453,364.4631713919516,364.4926350028254,364.4926350028254,364.4926350028254,364.4926350028254,364.4926350028254,364.4926350028254,364.4926350028254,364.4926350028254,369.26843814973836,"['h', 'k']","[4.714197662018705, 4.715128247538814]","[None, None]",,,,,,,,,,,,,,,,,,,,,3002,2010-05-15_01h40.47.194,eb_03,2023.2.3,119.99550875322565,2010-05-15 01h40.56.835990 -0400,
,,,,0,0,0,0,121,0,121,0,369.2846550283721,,,,,,,,,,,,,,,,,,,,,,,,,,,,,,,,,,,,,,,,,,,,,,,,,,,,,,,,,,,,,,,,,,,,,,,,,,,,,,,,,,,,,,,,,,,,,,,,,,,,,,,,,,369.2705525679921,3.0,"('k', 'l')",369.2711239589553,369.2711384474824,369.2846550283721,369.2846550283721,369.2846550283721,369.2846550283721,369.2846550283721,369.2846550283721,369.2846550283721,369.2846550283721,372.1525360341766,"['l', 'k', 'l']","[1.362128761888016, 2.8180975487921387, 2.819092125253519]","[None, None, None]",,,,,,,,,,,,,,,,,,,,,3002,2010-05-15_01h40.47.194,eb_03,2023.2.3,119.99550875322565,2010-05-15 01h40.56.835990 -0400,
,,,,0,0,0,0,122,0,122,0,372.1681778997008,,,,,,,,,,,,,,,,,,,,,,,,,,,,,,,,,,,,,,,,,,,,,,,,,,,,,,,,,,,,,,,,,,,,,,,,,,,,,,,,,,,,,,,,,,,,,,,,,,,,,,,,,,372.1546015536587,0.0,"('h',)",372.1552203341562,372.15523482268327,372.1681778997008,372.1681778997008,372.1681778997008,372.1681778997008,372.1681778997008,372.1681778997008,372.1681778997008,372.1681778997008,373.5354099405813,['h'],[1.2946020003873855],[None],,,,,,,,,,,,,,,,,,,,,3002,2010-05-15_01h40.47.194,eb_03,2023.2.3,119.99550875322565,2010-05-15 01h40.56.835990 -0400,
,,,,0,0,0,0,123,0,123,0,373.551555885846,,,,,,,,,,,,,,,,,,,,,,,,,,,,,,,,,,,,,,,,,,,,,,,,,,,,,,,,,,,,,,,,,,,,,,,,,,,,,,,,,,,,,,,,,,,,,,,,,,,,,,,,,,373.53750051313546,2.0,"('h', 'space')",373.53799342463026,373.5380088186939,373.551555885846,373.551555885846,373.551555885846,373.551555885846,373.551555885846,373.551555885846,373.551555885846,373.551555885846,374.45219965904835,"['space', 'h']","[0.8392100376368035, 0.8552002313372213]","[None, None]",,,,,,,,,,,,,,,,,,,,,3002,2010-05-15_01h40.47.194,eb_03,2023.2.3,119.99550875322565,2010-05-15 01h40.56.835990 -0400,
,,,,0,0,0,0,124,0,124,0,374.46828432995244,,,,,,,,,,,,,,,,,,,,,,,,,,,,,,,,,,,,,,,,,,,,,,,,,,,,,,,,,,,,,,,,,,,,,,,,,,,,,,,,,,,,,,,,,,,,,,,,,,,,,,,,,,374.45429536295705,0.0,"('h',)",374.45489754204755,374.45491203054553,374.46828432995244,374.46828432995244,374.46828432995244,374.46828432995244,374.46828432995244,374.46828432995244,374.46828432995244,374.46828432995244,375.18553393817274,['h'],[0.6584929283999372],[None],,,,,,,,,,,,,,,,,,,,,3002,2010-05-15_01h40.47.194,eb_03,2023.2.3,119.99550875322565,2010-05-15 01h40.56.835990 -0400,
,,,,0,0,0,0,125,0,125,0,375.20166599861113,,,,,,,,,,,,,,,,,,,,,,,,,,,,,,,,,,,,,,,,,,,,,,,,,,,,,,,,,,,,,,,,,,,,,,,,,,,,,,,,,,,,,,,,,,,,,,,,,,,,,,,,,,375.18762873654487,2.0,"('h', 'space')",375.18824449859676,375.18825898712385,375.20166599861113,375.20166599861113,375.20166599861113,375.20166599861113,375.20166599861113,375.20166599861113,375.20166599861113,375.20166599861113,375.7605684691225,"['h', 'space']","[0.47711840260308236, 0.47809637762838975]","[None, None]",,,,,,,,,,,,,,,,,,,,,3002,2010-05-15_01h40.47.194,eb_03,2023.2.3,119.99550875322565,2010-05-15 01h40.56.835990 -0400,
,,,,0,0,0,0,126,0,126,0,375.7766769857262,,,,,,,,,,,,,,,,,,,,,,,,,,,,,,,,,,,,,,,,,,,,,,,,,,,,,,,,,,,,,,,,,,,,,,,,,,,,,,,,,,,,,,,,,,,,,,,,,,,,,,,,,,375.76269707406755,7.0,"('l', 'space')",375.76319783349754,375.76321232202463,375.7766769857262,375.7766769857262,375.7766769857262,375.7766769857262,375.7766769857262,375.7766769857262,375.7766769857262,375.7766769857262,377.2273025275499,"['space', 'l']","[1.3900988479144871, 1.41408489306923]","[None, None]",,,,,,,,,,,,,,,,,,,,,3002,2010-05-15_01h40.47.194,eb_03,2023.2.3,119.99550875322565,2010-05-15 01h40.56.835990 -0400,
,,,,0,0,0,0,127,0,127,0,377.2434729221859,,,,,,,,,,,,,,,,,,,,,,,,,,,,,,,,,,,,,,,,,,,,,,,,,,,,,,,,,,,,,,,,,,,,,,,,,,,,,,,,,,,,,,,,,,,,,,,,,,,,,,,,,,377.22942690664786,6.0,"('j', 'l')",377.230031802319,377.2300462908461,377.2434729221859,377.2434729221859,377.2434729221859,377.2434729221859,377.2434729221859,377.2434729221859,377.2434729221859,377.2434729221859,379.1941730194958,"['j', 'l']","[1.8913249388278928, 1.8923669048235752]","[None, None]",,,,,,,,,,,,,,,,,,,,,3002,2010-05-15_01h40.47.194,eb_03,2023.2.3,119.99550875322565,2010-05-15 01h40.56.835990 -0400,
,,,,0,0,0,0,128,0,128,0,379.2102658402,,,,,,,,,,,,,,,,,,,,,,,,,,,,,,,,,,,,,,,,,,,,,,,,,,,,,,,,,,,,,,,,,,,,,,,,,,,,,,,,,,,,,,,,,,,,,,,,,,,,,,,,,,379.196313698194,9.0,"('k', 'space')",379.19689655923867,379.1969116514374,379.2102658402,379.2102658402,379.2102658402,379.2102658402,379.2102658402,379.2102658402,379.2102658402,379.2102658402,381.9610177339637,"['k', 'space']","[2.660549996246118, 2.6615334044618066]","[None, None]",,,,,,,,,,,,,,,,,,,,,3002,2010-05-15_01h40.47.194,eb_03,2023.2.3,119.99550875322565,2010-05-15 01h40.56.835990 -0400,
,,,,0,0,0,0,129,0,129,0,381.9771002919588,,,,,,,,,,,,,,,,,,,,,,,,,,,,,,,,,,,,,,,,,,,,,,,,,,,,,,,,,,,,,,,,,,,,,,,,,,,,,,,,,,,,,,,,,,,,,,,,,,,,,,,,,,381.96310045858263,6.0,"('j', 'l')",381.96366671819123,381.96368150855415,381.9771002919588,381.9771002919588,381.9771002919588,381.9771002919588,381.9771002919588,381.9771002919588,381.9771002919588,381.9771002919588,384.3111346080259,"['j', 'l']","[2.2536806875432376, 2.2546707363217138]","[None, None]",,,,,,,,,,,,,,,,,,,,,3002,2010-05-15_01h40.47.194,eb_03,2023.2.3,119.99550875322565,2010-05-15 01h40.56.835990 -0400,
,,,,0,0,0,0,130,0,130,0,384.3272760256077,,,,,,,,,,,,,,,,,,,,,,,,,,,,,,,,,,,,,,,,,,,,,,,,,,,,,,,,,,,,,,,,,,,,,,,,,,,,,,,,,,,,,,,,,,,,,,,,,,,,,,,,,,384.3132402727788,7.0,"('l', 'space')",384.3140027310874,384.31401721961447,384.3272760256077,384.3272760256077,384.3272760256077,384.3272760256077,384.3272760256077,384.3272760256077,384.3272760256077,384.3272760256077,386.12788442269084,"['l', 'space']","[1.710520294815069, 1.711508230684558]","[None, None]",,,,,,,,,,,,,,,,,,,,,3002,2010-05-15_01h40.47.194,eb_03,2023.2.3,119.99550875322565,2010-05-15 01h40.56.835990 -0400,
,,,,0,0,0,0,131,0,131,0,386.1440490823006,,,,,,,,,,,,,,,,,,,,,,,,,,,,,,,,,,,,,,,,,,,,,,,,,,,,,,,,,,,,,,,,,,,,,,,,,,,,,,,,,,,,,,,,,,,,,,,,,,,,,,,,,,386.12999250221765,6.0,"('j', 'l')",386.13060705689713,386.1306306007318,386.1440490823006,386.1440490823006,386.1440490823006,386.1440490823006,386.1440490823006,386.1440490823006,386.1440490823006,386.1440490823006,387.2865376303089,"['j', 'l']","[1.0537656868400518, 1.054738228674978]","[None, None]",,,,,,,,,,,,,,,,,,,,,3002,2010-05-15_01h40.47.194,eb_03,2023.2.3,119.99550875322565,2010-05-15 01h40.56.835990 -0400,
,,,,0,0,0,0,132,0,132,0,387.30252269265475,,,,,,,,,,,,,,,,,,,,,,,,,,,,,,,,,,,,,,,,,,,,,,,,,,,,,,,,,,,,,,,,,,,,,,,,,,,,,,,,,,,,,,,,,,,,,,,,,,,,,,,,,,387.28864540799987,5.0,"('j', 'space')",387.2892246469273,387.2892400409619,387.30252269265475,387.30252269265475,387.30252269265475,387.30252269265475,387.30252269265475,387.30252269265475,387.30252269265475,387.30252269265475,388.7946765559027,"['space', 'j']","[1.431297555565834, 1.4552914486266673]","[None, None]",,,,,,,,,,,,,,,,,,,,,3002,2010-05-15_01h40.47.194,eb_03,2023.2.3,119.99550875322565,2010-05-15 01h40.56.835990 -0400,
,,,,0,0,0,0,133,0,133,0,388.8109426351439,,,,,,,,,,,,,,,,,,,,,,,,,,,,,,,,,,,,,,,,,,,,,,,,,,,,,,,,,,,,,,,,,,,,,,,,,,,,,,,,,,,,,,,,,,,,,,,,,,,,,,,,,,388.79679308706545,13.0,"('h', 'j')",388.79738530528266,388.7974085472815,388.8109426351439,388.8109426351439,388.8109426351439,388.8109426351439,388.8109426351439,388.8109426351439,388.8109426351439,388.8109426351439,389.91153612110065,"['h', 'j']","[1.0108630690083373, 1.0118479864613619]","[None, None]",,,,,,,,,,,,,,,,,,,,,3002,2010-05-15_01h40.47.194,eb_03,2023.2.3,119.99550875322565,2010-05-15 01h40.56.835990 -0400,
,,,,0,0,0,0,134,0,134,0,389.92764916535816,,,,,,,,,,,,,,,,,,,,,,,,,,,,,,,,,,,,,,,,,,,,,,,,,,,,,,,,,,,,,,,,,,,,,,,,,,,,,,,,,,,,,,,,,,,,,,,,,,,,,,,,,,389.91365416147164,10.0,"('j', 'k')",389.9142053288815,389.9142201192444,389.92764916535816,389.92764916535816,389.92764916535816,389.92764916535816,389.92764916535816,389.92764916535816,389.92764916535816,389.92764916535816,391.0199769511819,"['j', 'k']","[1.0301771704398561, 1.0621838182560168]","[None, None]",,,,,,,,,,,,,,,,,,,,,3002,2010-05-15_01h40.47.194,eb_03,2023.2.3,119.99550875322565,2010-05-15 01h40.56.835990 -0400,
,,,,0,0,0,0,135,0,135,0,391.0360368708789,,,,,,,,,,,,,,,,,,,,,,,,,,,,,,,,,,,,,,,,,,,,,,,,,,,,,,,,,,,,,,,,,,,,,,,,,,,,,,,,,,,,,,,,,,,,,,,,,,,,,,,,,,391.02210012293654,13.0,"('h', 'j')",391.02261023953906,391.02262472806615,391.0360368708789,391.0360368708789,391.0360368708789,391.0360368708789,391.0360368708789,391.0360368708789,391.0360368708789,391.0360368708789,391.8366371181619,"['h', 'j']","[0.7378335679823067, 0.7387901120819151]","[None, None]",,,,,,,,,,,,,,,,,,,,,3002,2010-05-15_01h40.47.194,eb_03,2023.2.3,119.99550875322565,2010-05-15 01h40.56.835990 -0400,
,,,,0,0,0,0,136,0,136,0,391.8527978537895,,,,,,,,,,,,,,,,,,,,,,,,,,,,,,,,,,,,,,,,,,,,,,,,,,,,,,,,,,,,,,,,,,,,,,,,,,,,,,,,,,,,,,,,,,,,,,,,,,,,,,,,,,391.8387397644692,14.0,"('space',)",391.8392743304721,391.8392888189701,391.8527978537895,391.8527978537895,391.8527978537895,391.8527978537895,391.8527978537895,391.8527978537895,391.8527978537895,391.8527978537895,392.70336145718466,['space'],[0.7770455374266021],[None],,,,,,,,,,,,,,,,,,,,,3002,2010-05-15_01h40.47.194,eb_03,2023.2.3,119.99550875322565,2010-05-15 01h40.56.835990 -0400,
,,,,0,0,0,0,137,0,137,0,392.71949985635,,,,,,,,,,,,,,,,,,,,,,,,,,,,,,,,,,,,,,,,,,,,,,,,,,,,,,,,,,,,,,,,,,,,,,,,,,,,,,,,,,,,,,,,,,,,,,,,,,,,,,,,,,392.7054846289102,11.0,"('j',)",392.70603006126476,392.7060454553284,392.71949985635,392.71949985635,392.71949985635,392.71949985635,392.71949985635,392.71949985635,392.71949985635,392.71949985635,393.6700761975371,['j'],[0.8783402073313482],[None],,,,,,,,,,,,,,,,,,,,,3002,2010-05-15_01h40.47.194,eb_03,2023.2.3,119.99550875322565,2010-05-15 01h40.56.835990 -0400,
,,,,0,0,0,0,138,0,138,0,393.6862293870654,,,,,,,,,,,,,,,,,,,,,,,,,,,,,,,,,,,,,,,,,,,,,,,,,,,,,,,,,,,,,,,,,,,,,,,,,,,,,,,,,,,,,,,,,,,,,,,,,,,,,,,,,,393.67217159961,14.0,"('space',)",393.6727173338295,393.67273242605734,393.6862293870654,393.6862293870654,393.6862293870654,393.6862293870654,393.6862293870654,393.6862293870654,393.6862293870654,393.6862293870654,394.2784753731394,['space'],[0.5196011552179698],[None],,,,,,,,,,,,,,,,,,,,,3002,2010-05-15_01h40.47.194,eb_03,2023.2.3,119.99550875322565,2010-05-15 01h40.56.835990 -0400,
,,,,0,0,0,0,139,0,139,0,394.2945887192618,,,,,,,,,,,,,,,,,,,,,,,,,,,,,,,,,,,,,,,,,,,,,,,,,,,,,,,,,,,,,,,,,,,,,,,,,,,,,,,,,,,,,,,,,,,,,,,,,,,,,,,,,,394.2806015633105,11.0,"('j',)",394.28126984628034,394.2812843347783,394.2945887192618,394.2945887192618,394.2945887192618,394.2945887192618,394.2945887192618,394.2945887192618,394.2945887192618,394.2945887192618,394.77842436148785,['j'],[0.42321235823328607],[None],,,,,,,,,,,,,,,,,,,,,3002,2010-05-15_01h40.47.194,eb_03,2023.2.3,119.99550875322565,2010-05-15 01h40.56.835990 -0400,
,,,,0,0,0,0,140,0,140,0,394.79462071473245,,,,,,,,,,,,,,,,,,,,,,,,,,,,,,,,,,,,,,,,,,,,,,,,,,,,,,,,,,,,,,,,,,,,,,,,,,,,,,,,,,,,,,,,,,,,,,,,,,,,,,,,,,394.78051433037035,1.0,"('h', 'k')",394.7810606682615,394.78107576048933,394.79462071473245,394.79462071473245,394.79462071473245,394.79462071473245,394.79462071473245,394.79462071473245,394.79462071473245,394.79462071473245,396.03693636643584,"['k', 'h']","[1.1792305268463679, 1.19521438179072]","[None, None]",,,,,,,,,,,,,,,,,,,,,3002,2010-05-15_01h40.47.194,eb_03,2023.2.3,119.99550875322565,2010-05-15 01h40.56.835990 -0400,
,,,,0,0,0,0,141,0,141,0,396.0531109868898,,,,,,,,,,,,,,,,,,,,,,,,,,,,,,,,,,,,,,,,,,,,,,,,,,,,,,,,,,,,,,,,,,,,,,,,,,,,,,,,,,,,,,,,,,,,,,,,,,,,,,,,,,396.03900822467403,4.0,"('l',)",396.03969401455834,396.039707295713,396.0531109868898,396.0531109868898,396.0531109868898,396.0531109868898,396.0531109868898,396.0531109868898,396.0531109868898,396.0531109868898,396.97865509116673,['l'],[0.8647104348638095],[None],,,,,,,,,,,,,,,,,,,,,3002,2010-05-15_01h40.47.194,eb_03,2023.2.3,119.99550875322565,2010-05-15 01h40.56.835990 -0400,
,,,,0,0,0,0,142,0,142,0,396.99483393743867,,,,,,,,,,,,,,,,,,,,,,,,,,,,,,,,,,,,,,,,,,,,,,,,,,,,,,,,,,,,,,,,,,,,,,,,,,,,,,,,,,,,,,,,,,,,,,,,,,,,,,,,,,396.980768302019,1.0,"('h', 'k')",396.98137229218264,396.9813867806806,396.99483393743867,396.99483393743867,396.99483393743867,396.99483393743867,396.99483393743867,396.99483393743867,396.99483393743867,396.99483393743867,401.4872021100309,"['h', 'k']","[4.402000562637113, 4.402970387891401]","[None, None]",,,,,,,,,,,,,,,,,,,,,3002,2010-05-15_01h40.47.194,eb_03,2023.2.3,119.99550875322565,2010-05-15 01h40.56.835990 -0400,
,,,,0,0,0,0,143,0,143,0,401.5034041983017,,,,,,,,,,,,,,,,,,,,,,,,,,,,,,,,,,,,,,,,,,,,,,,,,,,,,,,,,,,,,,,,,,,,,,,,,,,,,,,,,,,,,,,,,,,,,,,,,,,,,,,,,,401.48926672397647,4.0,"('l',)",401.48988097682013,401.4898951635114,401.5034041983017,401.5034041983017,401.5034041983017,401.5034041983017,401.5034041983017,401.5034041983017,401.5034041983017,401.5034041983017,402.370697211707,['l'],[0.8054363941773772],[None],,,,,,,,,,,,,,,,,,,,,3002,2010-05-15_01h40.47.194,eb_03,2023.2.3,119.99550875322565,2010-05-15 01h40.56.835990 -0400,
,,,,0,0,0,0,144,0,144,0,402.3868618712877,,,,,,,,,,,,,,,,,,,,,,,,,,,,,,,,,,,,,,,,,,,,,,,,,,,,,,,,,,,,,,,,,,,,,,,,,,,,,,,,,,,,,,,,,,,,,,,,,,,,,,,,,,402.37282943874015,3.0,"('k', 'l')",402.3733027303824,402.373318124417,402.3868618712877,402.3868618712877,402.3868618712877,402.3868618712877,402.3868618712877,402.3868618712877,402.3868618712877,402.3868618712877,403.29574659338687,"['k', 'l']","[0.8340234496572521, 0.8580230778024998]","[None, None]",,,,,,,,,,,,,,,,,,,,,3002,2010-05-15_01h40.47.194,eb_03,2023.2.3,119.99550875322565,2010-05-15 01h40.56.835990 -0400,
,,,,0,0,0,0,145,0,145,0,403.31187714461703,,,,,,,,,,,,,,,,,,,,,,,,,,,,,,,,,,,,,,,,,,,,,,,,,,,,,,,,,,,,,,,,,,,,,,,,,,,,,,,,,,,,,,,,,,,,,,,,,,,,,,,,,,403.2978730854229,4.0,"('l',)",403.29836992087075,403.2983853149344,403.31187714461703,403.31187714461703,403.31187714461703,403.31187714461703,403.31187714461703,403.31187714461703,403.31187714461703,403.31187714461703,403.90406940242974,['l'],[0.5330332197772805],[None],,,,,,,,,,,,,,,,,,,,,3002,2010-05-15_01h40.47.194,eb_03,2023.2.3,119.99550875322565,2010-05-15 01h40.56.835990 -0400,
,,,,0,0,0,0,146,0,146,0,403.92022893068497,,,,,,,,,,,,,,,,,,,,,,,,,,,,,,,,,,,,,,,,,,,,,,,,,,,,,,,,,,,,,,,,,,,,,,,,,,,,,,,,,,,,,,,,,,,,,,,,,,,,,,,,,,403.90618865020224,2.0,"('h', 'space')",403.9067138590035,403.90672895120224,403.92022893068497,403.92022893068497,403.92022893068497,403.92022893068497,403.92022893068497,403.92022893068497,403.92022893068497,403.92022893068497,406.22148206684506,"['h', 'space']","[2.1646499453054275, 2.2846432564547285]","[None, None]",,,,,,,,,,,,,,,,,,,,,3002,2010-05-15_01h40.47.194,eb_03,2023.2.3,119.99550875322565,2010-05-15 01h40.56.835990 -0400,
,,,,0,0,0,0,147,0,147,0,406.2370831834269,,,,,,,,,,,,,,,,,,,,,,,,,,,,,,,,,,,,,,,,,,,,,,,,,,,,,,,,,,,,,,,,,,,,,,,,,,,,,,,,,,,,,,,,,,,,,,,,,,,,,,,,,,406.22356388592743,0.0,"('h',)",406.2241953438788,406.2242095305701,406.2370831834269,406.2370831834269,406.2370831834269,406.2370831834269,406.2370831834269,406.2370831834269,406.2370831834269,406.2370831834269,407.17929240487865,['h'],[0.8797682319709565],[None],,,,,,,,,,,,,,,,,,,,,3002,2010-05-15_01h40.47.194,eb_03,2023.2.3,119.99550875322565,2010-05-15 01h40.56.835990 -0400,
,,,,0,0,0,0,148,0,148,0,407.1954631013796,,,,,,,,,,,,,,,,,,,,,,,,,,,,,,,,,,,,,,,,,,,,,,,,,,,,,,,,,,,,,,,,,,,,,,,,,,,,,,,,,,,,,,,,,,,,,,,,,,,,,,,,,,407.1813772424066,2.0,"('h', 'space')",407.18195527396165,407.18197006432456,407.1954631013796,407.1954631013796,407.1954631013796,407.1954631013796,407.1954631013796,407.1954631013796,407.1954631013796,407.1954631013796,408.16273112208,"['h', 'space']","[0.9054056664754171, 0.9063948097464163]","[None, None]",,,,,,,,,,,,,,,,,,,,,3002,2010-05-15_01h40.47.194,eb_03,2023.2.3,119.99550875322565,2010-05-15 01h40.56.835990 -0400,
,,,,0,0,0,0,149,0,149,0,408.178870124917,,,,,,,,,,,,,,,,,,,,,,,,,,,,,,,,,,,,,,,,,,,,,,,,,,,,,,,,,,,,,,,,,,,,,,,,,,,,,,,,,,,,,,,,,,,,,,,,,,,,,,,,,,408.1648705933767,3.0,"('k', 'l')",408.165364712273,408.165379200771,408.178870124917,408.178870124917,408.178870124917,408.178870124917,408.178870124917,408.178870124917,408.178870124917,408.178870124917,409.69617998122703,"['k', 'l']","[1.4260533153428696, 1.4270062373252586]","[None, None]",,,,,,,,,,,,,,,,,,,,,3002,2010-05-15_01h40.47.194,eb_03,2023.2.3,119.99550875322565,2010-05-15 01h40.56.835990 -0400,
,,,,0,0,0,0,150,0,150,0,409.7122990623757,,,,,,,,,,,,,,,,,,,,,,,,,,,,,,,,,,,,,,,,,,,,,,,,,,,,,,,,,,,,,,,,,,,,,,,,,,,,,,,,,,,,,,,,,,,,,,,,,,,,,,,,,,409.6982602911012,2.0,"('h', 'space')",409.6988108548103,409.6988359078823,409.7122990623757,409.7122990623757,409.7122990623757,409.7122990623757,409.7122990623757,409.7122990623757,409.7122990623757,409.7122990623757,410.9045798208972,"['space', 'h']","[1.1325732696277555, 1.1485773481545039]","[None, None]",,,,,,,,,,,,,,,,,,,,,3002,2010-05-15_01h40.47.194,eb_03,2023.2.3,119.99550875322565,2010-05-15 01h40.56.835990 -0400,
,,,,0,0,0,0,151,0,151,0,410.9207133905438,,,,,,,,,,,,,,,,,,,,,,,,,,,,,,,,,,,,,,,,,,,,,,,,,,,,,,,,,,,,,,,,,,,,,,,,,,,,,,,,,,,,,,,,,,,,,,,,,,,,,,,,,,410.9066498680331,1.0,"('h', 'k')",410.9072903813212,410.9073045680125,410.9207133905438,410.9207133905438,410.9207133905438,410.9207133905438,410.9207133905438,410.9207133905438,410.9207133905438,410.9207133905438,416.0054337983602,"['h', 'k', 'space', 'h', 'k']","[4.147247724700719, 4.148162312456407, 4.149170170072466, 5.035235172807006, 5.036169380444335]","[None, None, None, None, None]",,,,,,,,,,,,,,,,,,,,,3002,2010-05-15_01h40.47.194,eb_03,2023.2.3,119.99550875322565,2010-05-15 01h40.56.835990 -0400,
,,,,0,0,0,0,152,0,152,0,416.02107868232997,,,,,,,,,,,,,,,,,,,,,,,,,,,,,,,,,,,,,,,,,,,,,,,,,,,,,,,,,,,,,,,,,,,,,,,,,,,,,,,,,,,,,,,,,,,,,,,,,,,,,,,,,,416.0075310114771,4.0,"('l',)",416.0080957618775,416.0081105522404,416.02107868232997,416.02107868232997,416.02107868232997,416.02107868232997,416.02107868232997,416.02107868232997,416.02107868232997,416.02107868232997,416.99668665681384,['l'],[0.8947813561826479],[None],,,,,,,,,,,,,,,,,,,,,3002,2010-05-15_01h40.47.194,eb_03,2023.2.3,119.99550875322565,2010-05-15 01h40.56.835990 -0400,
,,,,0,0,0,0,153,0,153,0,417.01278641991667,,,,,,,,,,,,,,,,,,,,,,,,,,,,,,,,,,,,,,,,,,,,,,,,,,,,,,,,,,,,,,,,,,,,,,,,,,,,,,,,,,,,,,,,,,,,,,,,,,,,,,,,,,416.9987865865405,5.0,"('j', 'space')",416.9993015326618,416.9993175303971,417.01278641991667,417.01278641991667,417.01278641991667,417.01278641991667,417.01278641991667,417.01278641991667,417.01278641991667,417.01278641991667,419.8884592305403,"['space', 'j']","[2.8151252894604113, 2.8311151812958997]","[None, None]",,,,,,,,,,,,,,,,,,,,,3002,2010-05-15_01h40.47.194,eb_03,2023.2.3,119.99550875322565,2010-05-15 01h40.56.835990 -0400,
,,,,0,0,0,0,154,0,154,0,419.9046112126671,,,,,,,,,,,,,,,,,,,,,,,,,,,,,,,,,,,,,,,,,,,,,,,,,,,,,,,,,,,,,,,,,,,,,,,,,,,,,,,,,,,,,,,,,,,,,,,,,,,,,,,,,,419.89054286066676,3.0,"('k', 'l')",419.8911634522374,419.89117794076446,419.9046112126671,419.9046112126671,419.9046112126671,419.9046112126671,419.9046112126671,419.9046112126671,419.9046112126671,419.9046112126671,421.1303269455093,"['k', 'l']","[1.163283798698103, 1.1642702253593598]","[None, None]",,,,,,,,,,,,,,,,,,,,,3002,2010-05-15_01h40.47.194,eb_03,2023.2.3,119.99550875322565,2010-05-15 01h40.56.835990 -0400,
,,,,0,0,0,0,155,0,155,0,421.1463926002325,,,,,,,,,,,,,,,,,,,,,,,,,,,,,,,,,,,,,,,,,,,,,,,,,,,,,,,,,,,,,,,,,,,,,,,,,,,,,,,,,,,,,,,,,,,,,,,,,,,,,,,,,,421.1323843152204,2.0,"('h', 'space')",421.13302090452635,421.1330350912176,421.1463926002325,421.1463926002325,421.1463926002325,421.1463926002325,421.1463926002325,421.1463926002325,421.1463926002325,421.1463926002325,422.4636504186201,"['h', 'space']","[1.2575005252147093, 1.2584878574125469]","[None, None]",,,,,,,,,,,,,,,,,,,,,3002,2010-05-15_01h40.47.194,eb_03,2023.2.3,119.99550875322565,2010-05-15 01h40.56.835990 -0400,
,,,,0,0,0,0,156,0,156,0,422.4798153800657,,,,,,,,,,,,,,,,,,,,,,,,,,,,,,,,,,,,,,,,,,,,,,,,,,,,,,,,,,,,,,,,,,,,,,,,,,,,,,,,,,,,,,,,,,,,,,,,,,,,,,,,,,422.46576030919096,1.0,"('h', 'k')",422.46637727864436,422.46639206900727,422.4798153800657,422.4798153800657,422.4798153800657,422.4798153800657,422.4798153800657,422.4798153800657,422.4798153800657,422.4798153800657,429.86472914920887,"['h', 'k', 'space', 'h', 'k']","[5.692163039318984, 5.693082456593402, 5.694082164380234, 7.348125910066301, 7.349115958873881]","[None, None, None, None, None]",,,,,,,,,,,,,,,,,,,,,3002,2010-05-15_01h40.47.194,eb_03,2023.2.3,119.99550875322565,2010-05-15 01h40.56.835990 -0400,
,,,,0,0,0,0,157,0,157,0,429.88033539714525,,,,,,,,,,,,,,,,,,,,,,,,,,,,,,,,,,,,,,,,,,,,,,,,,,,,,,,,,,,,,,,,,,,,,,,,,,,,,,,,,,,,,,,,,,,,,,,,,,,,,,,,,,429.86680976091884,3.0,"('k', 'l')",429.8673234996677,429.8673358752858,429.88033539714525,429.88033539714525,429.88033539714525,429.88033539714525,429.88033539714525,429.88033539714525,429.88033539714525,429.88033539714525,432.21432896424085,"['k', 'l']","[2.242659150331747, 2.2435978856519796]","[None, None]",,,,,,,,,,,,,,,,,,,,,3002,2010-05-15_01h40.47.194,eb_03,2023.2.3,119.99550875322565,2010-05-15 01h40.56.835990 -0400,
,,,,0,0,0,0,158,0,158,0,432.2304613265442,,,,,,,,,,,,,,,,,,,,,,,,,,,,,,,,,,,,,,,,,,,,,,,,,,,,,,,,,,,,,,,,,,,,,,,,,,,,,,,,,,,,,,,,,,,,,,,,,,,,,,,,,,432.21646753003006,4.0,"('l',)",432.2169474622351,432.2169595359883,432.2304613265442,432.2304613265442,432.2304613265442,432.2304613265442,432.2304613265442,432.2304613265442,432.2304613265442,432.2304613265442,432.8893774404132,['l'],[0.5964570137730334],[None],,,,,,,,,,,,,,,,,,,,,3002,2010-05-15_01h40.47.194,eb_03,2023.2.3,119.99550875322565,2010-05-15 01h40.56.835990 -0400,
,,,,0,0,0,0,159,0,159,0,432.9055061805702,,,,,,,,,,,,,,,,,,,,,,,,,,,,,,,,,,,,,,,,,,,,,,,,,,,,,,,,,,,,,,,,,,,,,,,,,,,,,,,,,,,,,,,,,,,,,,,,,,,,,,,,,,432.89151027117623,5.0,"('j', 'space')",432.89194824703736,432.89196032079053,432.9055061805702,432.9055061805702,432.9055061805702,432.9055061805702,432.9055061805702,432.9055061805702,432.9055061805702,432.9055061805702,435.44783952034777,"['space', 'j']","[2.481435075751506, 2.4974285897333175]","[None, None]",,,,,,,,,,,,,,,,,,,,,3002,2010-05-15_01h40.47.194,eb_03,2023.2.3,119.99550875322565,2010-05-15 01h40.56.835990 -0400,
,,,,0,0,0,0,160,0,160,0,435.4640576063539,,,,,,,,,,,,,,,,,,,,,,,,,,,,,,,,,,,,,,,,,,,,,,,,,,,,,,,,,,,,,,,,,,,,,,,,,,,,,,,,,,,,,,,,,,,,,,,,,,,,,,,,,,435.44993039476685,7.0,"('l', 'space')",435.45037440749,435.4503867831081,435.4640576063539,435.4640576063539,435.4640576063539,435.4640576063539,435.4640576063539,435.4640576063539,435.4640576063539,435.4640576063539,436.60674325862783,"['space', 'l']","[0.9788887184986379, 1.0588906985940412]","[None, None]",,,,,,,,,,,,,,,,,,,,,3002,2010-05-15_01h40.47.194,eb_03,2023.2.3,119.99550875322565,2010-05-15 01h40.56.835990 -0400,
,,,,0,0,0,0,161,0,161,0,436.6224838272028,,,,,,,,,,,,,,,,,,,,,,,,,,,,,,,,,,,,,,,,,,,,,,,,,,,,,,,,,,,,,,,,,,,,,,,,,,,,,,,,,,,,,,,,,,,,,,,,,,,,,,,,,,436.6088136076287,3.0,"('k', 'l')",436.6093031988421,436.60931527259527,436.6224838272028,436.6224838272028,436.6224838272028,436.6224838272028,436.6224838272028,436.6224838272028,436.6224838272028,436.6224838272028,439.4148551993421,"['k', 'l']","[2.732517488853773, 2.7335410423693247]","[None, None]",,,,,,,,,,,,,,,,,,,,,3002,2010-05-15_01h40.47.194,eb_03,2023.2.3,119.99550875322565,2010-05-15 01h40.56.835990 -0400,
,,,,0,0,0,0,162,0,162,0,439.43093685180065,,,,,,,,,,,,,,,,,,,,,,,,,,,,,,,,,,,,,,,,,,,,,,,,,,,,,,,,,,,,,,,,,,,,,,,,,,,,,,,,,,,,,,,,,,,,,,,,,,,,,,,,,,439.41696116595995,1.0,"('h', 'k')",439.4173677500221,439.41737982377526,439.43093685180065,439.43093685180065,439.43093685180065,439.43093685180065,439.43093685180065,439.43093685180065,439.43093685180065,439.43093685180065,441.514968451258,"['k', 'h']","[2.0040139234624803, 2.0360160436248407]","[None, None]",,,,,,,,,,,,,,,,,,,,,3002,2010-05-15_01h40.47.194,eb_03,2023.2.3,119.99550875322565,2010-05-15 01h40.56.835990 -0400,
