practice_loop.thisRepN,practice_loop.thisTrialN,practice_loop.thisN,practice_loop.thisIndex,blocks.thisRepN,blocks.thisTrialN,blocks.thisN,blocks.thisIndex,trials.thisRepN,trials.thisTrialN,trials.thisN,trials.thisIndex,thisRow.t,notes,path,resp order,Instructions_0.started,welcome_text.started,instructions_0_keypress.started,Instructions_0.stopped,instructions_0_keypress.keys,instructions_0_keypress.rt,instructions_0_keypress.duration,consent_0.started,consent_image_0.started,consent0_key_resp.started,consent0_text.started,consent_0.stopped,consent0_key_resp.keys,consent0_key_resp.rt,consent0_key_resp.duration,consent_1.started,consent_image_1.started,consent1_key_resp.started,consent1_text.started,consent_1.stopped,consent1_key_resp.keys,consent1_key_resp.rt,consent1_key_resp.duration,consent_2.started,consent2_text.started,consent_image_2.started,consent2_key_resp.started,consent_2.stopped,consent2_key_resp.keys,consent2_key_resp.rt,consent2_key_resp.duration,consent_3.started,agree_button.started,disagree_button.started,consent_image_3.started,consent_3.stopped,agree_button.numClicks,agree_button.timesOn,agree_button.timesOff,disagree_button.numClicks,disagree_button.timesOn,disagree_button.timesOff,demographics.started,age_slider.started,Gender.started,Handedness.started,age_text.started,handedness_text.started,gender_text.started,demographics.stopped,age_slider.response,age_slider.rt,Gender.text,Handedness.response,Handedness.rt,instructions_1.started,instructions_text1.started,instructions1_key_resp.started,instr1_cnt_text.started,instructions_1.stopped,instructions1_key_resp.keys,instructions1_key_resp.rt,instructions1_key_resp.duration,instructions_2.started,instructions_text2.started,key_stim_association.started,instr2_cnt_text.started,instructions2_key_resp.started,instructions_2.stopped,instructions2_key_resp.keys,instructions2_key_resp.rt,instructions2_key_resp.duration,instructions_3.started,instructions_text3.started,examplestim_image_2.started,instructions3_key_resp.started,instr3_cnt_text.started,instructions_3.stopped,instructions3_key_resp.keys,instructions3_key_resp.rt,instructions3_key_resp.duration,instructions_4.started,instructions_text4.started,handplacement_image.started,instructions4_key_resp.started,instr4_cnt_text.started,instructions_4.stopped,instructions4_key_resp.keys,instructions4_key_resp.rt,instructions4_key_resp.duration,instructions_5.started,instructions_text5.started,image.started,instructions5_key_resp.started,instr5_cnt_text.started,instructions_5.stopped,instructions5_key_resp.keys,instructions5_key_resp.rt,instructions5_key_resp.duration,begin_exp_timer.started,text_countdown.started,begin_exp_timer.stopped,stim_resp_selector.started,node idx,stim,stim_resp_selector.stopped,stim_display.started,space.started,h.started,j.started,k.started,l.started,key_resp.started,text.started,accuracy_text.started,stim_display.stopped,key_resp.keys,key_resp.rt,key_resp.duration,break_2.started,break_text.started,break_key_resp.started,break_2.stopped,break_key_resp.keys,break_key_resp.rt,break_key_resp.duration,debriefing.started,graph.started,debrief_text.started,debriefing_title.started,demo_scr_adv.started,demo_scr_adv_keypress.started,debriefing.stopped,demo_scr_adv_keypress.keys,demo_scr_adv_keypress.rt,demo_scr_adv_keypress.duration,done.started,text_countdown_2.started,done.stopped,participant,date,expName,psychopyVersion,frameRate,expStart,
,,,,,,,,,,,,,,[12. 11. 12. ... 10.  9.  6.],"[('h', 'l'), ('j', 'space'), ('k', 'space'), ('h', 'k'), ('space',), ('j',), ('l',), ('h',), ('k',), ('k', 'l'), ('h', 'j'), ('j', 'k'), ('l', 'space'), ('j', 'l'), ('h', 'space')]",0.008109344867989421,0.01607893587788567,0.01607893587788567,7.525180442433339,return,7.507089413469657,None,,,,,,,,,,,,,,,,,,,,,,,,,,,,,,,,,,,,,,,,,,,,,,,,,,,,,,,,,,,,,,,,,,,,,,,,,,,,,,,,,,,,,,,,,,,,,,,,,,,,,,,,,,,,,,,,,,,,,,,,,,,,,,,,,,,,,3003,2010-05-15_02h41.40.367,eb_03,2023.2.3,120.00550589174048,2010-05-15 02h41.55.186347 -0400,
,,,,,,,,,,,,,,,,,,,,,,,7.525205193640431,7.532920028199442,7.532920028199442,7.532920028199442,22.25116813686327,space,14.717261078272713,None,,,,,,,,,,,,,,,,,,,,,,,,,,,,,,,,,,,,,,,,,,,,,,,,,,,,,,,,,,,,,,,,,,,,,,,,,,,,,,,,,,,,,,,,,,,,,,,,,,,,,,,,,,,,,,,,,,,,,,,,,,,,,3003,2010-05-15_02h41.40.367,eb_03,2023.2.3,120.00550589174048,2010-05-15 02h41.55.186347 -0400,
,,,,,,,,,,,,,,,,,,,,,,,,,,,,,,,22.251193793606944,22.258915570564568,22.258915570564568,22.258915570564568,40.568916150106816,space,18.30230687407311,None,,,,,,,,,,,,,,,,,,,,,,,,,,,,,,,,,,,,,,,,,,,,,,,,,,,,,,,,,,,,,,,,,,,,,,,,,,,,,,,,,,,,,,,,,,,,,,,,,,,,,,,,,,,,,,,,,,,,,3003,2010-05-15_02h41.40.367,eb_03,2023.2.3,120.00550589174048,2010-05-15 02h41.55.186347 -0400,
,,,,,,,,,,,,,,,,,,,,,,,,,,,,,,,,,,,,,,,40.56894180687959,40.576803639531136,40.576803639531136,40.576803639531136,48.31955907813972,space,7.735443867859431,None,,,,,,,,,,,,,,,,,,,,,,,,,,,,,,,,,,,,,,,,,,,,,,,,,,,,,,,,,,,,,,,,,,,,,,,,,,,,,,,,,,,,,,,,,,,,,,,,,,,,,,,,,,,,,3003,2010-05-15_02h41.40.367,eb_03,2023.2.3,120.00550589174048,2010-05-15 02h41.55.186347 -0400,
,,,,,,,,,,,,,,,,,,,,,,,,,,,,,,,,,,,,,,,,,,,,,,,48.319583829375915,48.335670613188995,48.335670613188995,48.335670613188995,50.76167684083339,1,[2.4405403251585085],[2.440546362049645],0,,,50.76176316826604,50.81084513946553,50.81084513946553,50.81084513946553,50.81084513946553,50.81084513946553,50.81084513946553,60.8185955916415,18-20,4.537882949691266,Female,Right Handed,10.024461147811962,60.81862366312998,60.82816676769289,62.81997139725718,62.81997139725718,64.3956087109691,space,1.5713082649745047,None,,,,,,,,,,,,,,,,,,,,,,,,,,,,,,,,,,,,,,,,,,,,,,,,,,,,,,,,,,,,,,,,,,,,,,,,,,,,,3003,2010-05-15_02h41.40.367,eb_03,2023.2.3,120.00550589174048,2010-05-15 02h41.55.186347 -0400,
,,,,,,,,,,,,,,,,,,,,,,,,,,,,,,,,,,,,,,,,,,,,,,,,,,,,,,,,,,,,,,,,,,,,,,,,,,,,,,,64.39563557511428,64.4034080618876,64.4034080618876,67.39530173549429,67.39530173549429,87.67223166659824,space,20.27506000662106,None,,,,,,,,,,,,,,,,,,,,,,,,,,,,,,,,,,,,,,,,,,,,,,,,,,,,,,,,,,,,,,,,,,,,3003,2010-05-15_02h41.40.367,eb_03,2023.2.3,120.00550589174048,2010-05-15 02h41.55.186347 -0400,
,,,,,,,,,,,,,,,,,,,,,,,,,,,,,,,,,,,,,,,,,,,,,,,,,,,,,,,,,,,,,,,,,,,,,,,,,,,,,,,,,,,,,,,,87.67226094548823,87.67997487448156,87.67997487448156,90.67182357329875,90.67182357329875,105.1817877504509,h,14.508630629687104,None,,,,,,,,,,,,,,,,,,,,,,,,,,,,,,,,,,,,,,,,,,,,,,,,,,,,,,,,,,,3003,2010-05-15_02h41.40.367,eb_03,2023.2.3,120.00550589174048,2010-05-15 02h41.55.186347 -0400,
,,,,,,,,,,,,,,,,,,,,,,,,,,,,,,,,,,,,,,,,,,,,,,,,,,,,,,,,,,,,,,,,,,,,,,,,,,,,,,,,,,,,,,,,,,,,,,,,,105.18181763301254,105.19780480826739,105.19780480826739,108.18136999814305,108.18136999814305,116.92414173635188,space,8.735055092576658,None,,,,,,,,,,,,,,,,,,,,,,,,,,,,,,,,,,,,,,,,,,,,,,,,,,3003,2010-05-15_02h41.40.367,eb_03,2023.2.3,120.00550589174048,2010-05-15 02h41.55.186347 -0400,
,,,,,,,,,,,,,,,,,,,,,,,,,,,,,,,,,,,,,,,,,,,,,,,,,,,,,,,,,,,,,,,,,,,,,,,,,,,,,,,,,,,,,,,,,,,,,,,,,,,,,,,,,,116.92417161891353,116.93193595591583,116.93193595591583,119.92379189899657,119.92379189899657,132.19186391175026,space,12.263701007672353,None,,,,,,,,,,,,,,,,,,,,,,,,,,,,,,,,,,,,,,,,,3003,2010-05-15_02h41.40.367,eb_03,2023.2.3,120.00550589174048,2010-05-15 02h41.55.186347 -0400,
,,,,0,0,0,0,0,0,0,0,137.2249439173611,,,,,,,,,,,,,,,,,,,,,,,,,,,,,,,,,,,,,,,,,,,,,,,,,,,,,,,,,,,,,,,,,,,,,,,,,,,,,,,,,,,,,,,,,,,,,,,,,,,,,,,132.19189620908583,132.2162831032474,137.20000042257016,137.2046228638501,12.0,"('l', 'space')",137.2050514825387,137.20506657473743,137.2249439173611,137.2249439173611,137.2249439173611,137.2249439173611,137.2249439173611,137.2249439173611,137.2249439173611,137.2249439173611,145.62658860575175,"['h', 'l', 'l', 'space']","[1.6175692007818725, 1.618532687309198, 8.377534887142247, 8.37852372857742]","[None, None, None, None]",,,,,,,,,,,,,,,,,,,,,3003,2010-05-15_02h41.40.367,eb_03,2023.2.3,120.00550589174048,2010-05-15 02h41.55.186347 -0400,
,,,,0,0,0,0,1,0,1,0,145.64223952661268,,,,,,,,,,,,,,,,,,,,,,,,,,,,,,,,,,,,,,,,,,,,,,,,,,,,,,,,,,,,,,,,,,,,,,,,,,,,,,,,,,,,,,,,,,,,,,,,,,,,,,,,,,145.6293106362573,11.0,"('j', 'k')",145.62976581722614,145.62977940021665,145.64223952661268,145.64223952661268,145.64223952661268,145.64223952661268,145.64223952661268,145.64223952661268,145.64223952661268,145.64223952661268,147.31788927633897,"['k', 'j']","[1.6162667432799935, 1.6402588253258727]","[None, None]",,,,,,,,,,,,,,,,,,,,,3003,2010-05-15_02h41.40.367,eb_03,2023.2.3,120.00550589174048,2010-05-15 02h41.55.186347 -0400,
,,,,0,0,0,0,2,0,2,0,147.33395100708003,,,,,,,,,,,,,,,,,,,,,,,,,,,,,,,,,,,,,,,,,,,,,,,,,,,,,,,,,,,,,,,,,,,,,,,,,,,,,,,,,,,,,,,,,,,,,,,,,,,,,,,,,,147.32010451052338,12.0,"('l', 'space')",147.32057085973793,147.3205841408635,147.33395100708003,147.33395100708003,147.33395100708003,147.33395100708003,147.33395100708003,147.33395100708003,147.33395100708003,147.33395100708003,148.64295761383255,"['space', 'l']","[1.244563183223363, 1.2685603965946939]","[None, None]",,,,,,,,,,,,,,,,,,,,,3003,2010-05-15_02h41.40.367,eb_03,2023.2.3,120.00550589174048,2010-05-15 02h41.55.186347 -0400,
,,,,0,0,0,0,3,0,3,0,148.65905828247196,,,,,,,,,,,,,,,,,,,,,,,,,,,,,,,,,,,,,,,,,,,,,,,,,,,,,,,,,,,,,,,,,,,,,,,,,,,,,,,,,,,,,,,,,,,,,,,,,,,,,,,,,,148.64520182507113,14.0,"('h', 'space')",148.6458003820153,148.64581426684163,148.65905828247196,148.65905828247196,148.65905828247196,148.65905828247196,148.65905828247196,148.65905828247196,148.65905828247196,148.65905828247196,153.3605404579721,"['j', 'h', 'j', 'h', 'space']","[1.0065150040900335, 1.8784862999164034, 1.9104760444606654, 4.686472069763113, 4.687462722271448]","[None, None, None, None, None]",,,,,,,,,,,,,,,,,,,,,3003,2010-05-15_02h41.40.367,eb_03,2023.2.3,120.00550589174048,2010-05-15 02h41.55.186347 -0400,
,,,,0,0,0,0,4,0,4,0,153.37604287153226,,,,,,,,,,,,,,,,,,,,,,,,,,,,,,,,,,,,,,,,,,,,,,,,,,,,,,,,,,,,,,,,,,,,,,,,,,,,,,,,,,,,,,,,,,,,,,,,,,,,,,,,,,153.36278919689357,11.0,"('j', 'k')",153.3632271727256,153.3632407557161,153.37604287153226,153.37604287153226,153.37604287153226,153.37604287153226,153.37604287153226,153.37604287153226,153.37604287153226,153.37604287153226,155.17666213499615,"['j', 'k']","[1.7375274980149698, 1.7384816273697652]","[None, None]",,,,,,,,,,,,,,,,,,,,,3003,2010-05-15_02h41.40.367,eb_03,2023.2.3,120.00550589174048,2010-05-15 02h41.55.186347 -0400,
,,,,0,0,0,0,5,0,5,0,155.19284399971366,,,,,,,,,,,,,,,,,,,,,,,,,,,,,,,,,,,,,,,,,,,,,,,,,,,,,,,,,,,,,,,,,,,,,,,,,,,,,,,,,,,,,,,,,,,,,,,,,,,,,,,,,,155.17887133228942,14.0,"('h', 'space')",155.17931413766928,155.17932741879486,155.19284399971366,155.19284399971366,155.19284399971366,155.19284399971366,155.19284399971366,155.19284399971366,155.19284399971366,155.19284399971366,156.82684801061987,"['h', 'space']","[1.5606745975092053, 1.5616471393441316]","[None, None]",,,,,,,,,,,,,,,,,,,,,3003,2010-05-15_02h41.40.367,eb_03,2023.2.3,120.00550589174048,2010-05-15 02h41.55.186347 -0400,
,,,,0,0,0,0,6,0,6,0,156.84294083129498,,,,,,,,,,,,,,,,,,,,,,,,,,,,,,,,,,,,,,,,,,,,,,,,,,,,,,,,,,,,,,,,,,,,,,,,,,,,,,,,,,,,,,,,,,,,,,,,,,,,,,,,,,156.82911938781035,13.0,"('j', 'l')",156.82954468621756,156.82955947658047,156.84294083129498,156.84294083129498,156.84294083129498,156.84294083129498,156.84294083129498,156.84294083129498,156.84294083129498,156.84294083129498,159.94368946517352,"['l', 'j']","[3.0386028479842935, 3.0546072283468675]","[None, None]",,,,,,,,,,,,,,,,,,,,,3003,2010-05-15_02h41.40.367,eb_03,2023.2.3,120.00550589174048,2010-05-15 02h41.55.186347 -0400,
,,,,0,0,0,0,7,0,7,0,159.95981367764762,,,,,,,,,,,,,,,,,,,,,,,,,,,,,,,,,,,,,,,,,,,,,,,,,,,,,,,,,,,,,,,,,,,,,,,,,,,,,,,,,,,,,,,,,,,,,,,,,,,,,,,,,,159.94587813707767,14.0,"('h', 'space')",159.9463094723469,159.9463227535016,159.95981367764762,159.95981367764762,159.95981367764762,159.95981367764762,159.95981367764762,159.95981367764762,159.95981367764762,159.95981367764762,162.39383205634658,"['space', 'h']","[2.3696996167709585, 2.393746030749753]","[None, None]",,,,,,,,,,,,,,,,,,,,,3003,2010-05-15_02h41.40.367,eb_03,2023.2.3,120.00550589174048,2010-05-15 02h41.55.186347 -0400,
,,,,0,0,0,0,8,0,8,0,162.4099792089837,,,,,,,,,,,,,,,,,,,,,,,,,,,,,,,,,,,,,,,,,,,,,,,,,,,,,,,,,,,,,,,,,,,,,,,,,,,,,,,,,,,,,,,,,,,,,,,,,,,,,,,,,,162.39605121451314,12.0,"('l', 'space')",162.39646383543732,162.396477116592,162.4099792089837,162.4099792089837,162.4099792089837,162.4099792089837,162.4099792089837,162.4099792089837,162.4099792089837,162.4099792089837,164.46899426737218,"['space', 'l']","[1.999545422702795, 2.0235474655928556]","[None, None]",,,,,,,,,,,,,,,,,,,,,3003,2010-05-15_02h41.40.367,eb_03,2023.2.3,120.00550589174048,2010-05-15 02h41.55.186347 -0400,
,,,,0,0,0,0,9,0,9,0,164.4851039913483,,,,,,,,,,,,,,,,,,,,,,,,,,,,,,,,,,,,,,,,,,,,,,,,,,,,,,,,,,,,,,,,,,,,,,,,,,,,,,,,,,,,,,,,,,,,,,,,,,,,,,,,,,164.47120135178557,11.0,"('j', 'k')",164.47168369873543,164.47169758356176,164.4851039913483,164.4851039913483,164.4851039913483,164.4851039913483,164.4851039913483,164.4851039913483,164.4851039913483,164.4851039913483,165.66912357741967,"['j', 'k']","[1.1244690561434254, 1.1254358629521448]","[None, None]",,,,,,,,,,,,,,,,,,,,,3003,2010-05-15_02h41.40.367,eb_03,2023.2.3,120.00550589174048,2010-05-15 02h41.55.186347 -0400,
,,,,0,0,0,0,10,0,10,0,165.68522877371288,,,,,,,,,,,,,,,,,,,,,,,,,,,,,,,,,,,,,,,,,,,,,,,,,,,,,,,,,,,,,,,,,,,,,,,,,,,,,,,,,,,,,,,,,,,,,,,,,,,,,,,,,,165.67134001897648,12.0,"('l', 'space')",165.67178644647356,165.67180002946407,165.68522877371288,165.68522877371288,165.68522877371288,165.68522877371288,165.68522877371288,165.68522877371288,165.68522877371288,165.68522877371288,166.90247385425027,"['l', 'space']","[1.1553241685614921, 1.1563268947938923]","[None, None]",,,,,,,,,,,,,,,,,,,,,3003,2010-05-15_02h41.40.367,eb_03,2023.2.3,120.00550589174048,2010-05-15 02h41.55.186347 -0400,
,,,,0,0,0,0,11,0,11,0,166.91868137574056,,,,,,,,,,,,,,,,,,,,,,,,,,,,,,,,,,,,,,,,,,,,,,,,,,,,,,,,,,,,,,,,,,,,,,,,,,,,,,,,,,,,,,,,,,,,,,,,,,,,,,,,,,166.90469421981834,10.0,"('h', 'j')",166.9051324975153,166.9051460805058,166.91868137574056,166.91868137574056,166.91868137574056,166.91868137574056,166.91868137574056,166.91868137574056,166.91868137574056,166.91868137574056,168.04419903844246,"['h', 'j']","[1.0659046510409098, 1.0669487299455795]","[None, None]",,,,,,,,,,,,,,,,,,,,,3003,2010-05-15_02h41.40.367,eb_03,2023.2.3,120.00550589174048,2010-05-15 02h41.55.186347 -0400,
,,,,0,0,0,0,12,0,12,0,168.06038754375186,,,,,,,,,,,,,,,,,,,,,,,,,,,,,,,,,,,,,,,,,,,,,,,,,,,,,,,,,,,,,,,,,,,,,,,,,,,,,,,,,,,,,,,,,,,,,,,,,,,,,,,,,,168.0464145744918,11.0,"('j', 'k')",168.04684470238863,168.0468579835433,168.06038754375186,168.06038754375186,168.06038754375186,168.06038754375186,168.06038754375186,168.06038754375186,168.06038754375186,168.06038754375186,169.02763262428925,"['j', 'k']","[0.892174026434077, 0.8931695084320381]","[None, None]",,,,,,,,,,,,,,,,,,,,,3003,2010-05-15_02h41.40.367,eb_03,2023.2.3,120.00550589174048,2010-05-15 02h41.55.186347 -0400,
,,,,0,0,0,0,13,0,13,0,169.04378732302575,,,,,,,,,,,,,,,,,,,,,,,,,,,,,,,,,,,,,,,,,,,,,,,,,,,,,,,,,,,,,,,,,,,,,,,,,,,,,,,,,,,,,,,,,,,,,,,,,,,,,,,,,,169.02994686336024,14.0,"('h', 'space')",169.03032929988694,169.03034409024986,169.04378732302575,169.04378732302575,169.04378732302575,169.04378732302575,169.04378732302575,169.04378732302575,169.04378732302575,169.04378732302575,170.18604194183717,"['space', 'h']","[1.0767951878951862, 1.1008385834284127]","[None, None]",,,,,,,,,,,,,,,,,,,,,3003,2010-05-15_02h41.40.367,eb_03,2023.2.3,120.00550589174048,2010-05-15 02h41.55.186347 -0400,
,,,,0,0,0,0,14,0,14,0,170.20215045844088,,,,,,,,,,,,,,,,,,,,,,,,,,,,,,,,,,,,,,,,,,,,,,,,,,,,,,,,,,,,,,,,,,,,,,,,,,,,,,,,,,,,,,,,,,,,,,,,,,,,,,,,,,170.18830003790208,12.0,"('l', 'space')",170.18874405065435,170.18875733180903,170.20215045844088,170.20215045844088,170.20215045844088,170.20215045844088,170.20215045844088,170.20215045844088,170.20215045844088,170.20215045844088,173.32789752271492,"['space', 'l']","[3.062465137016261, 3.078437823744025]","[None, None]",,,,,,,,,,,,,,,,,,,,,3003,2010-05-15_02h41.40.367,eb_03,2023.2.3,120.00550589174048,2010-05-15 02h41.55.186347 -0400,
,,,,0,0,0,0,15,0,15,0,173.3440935740946,,,,,,,,,,,,,,,,,,,,,,,,,,,,,,,,,,,,,,,,,,,,,,,,,,,,,,,,,,,,,,,,,,,,,,,,,,,,,,,,,,,,,,,,,,,,,,,,,,,,,,,,,,173.330136300734,14.0,"('h', 'space')",173.3305760876683,173.33058936882298,173.3440935740946,173.3440935740946,173.3440935740946,173.3440935740946,173.3440935740946,173.3440935740946,173.3440935740946,173.3440935740946,175.2535572332854,"['h', 'j', 'space', 'h']","[1.1284944496874232, 1.1294875169405714, 1.8564794468111359, 1.872497108328389]","[None, None, None, None]",,,,,,,,,,,,,,,,,,,,,3003,2010-05-15_02h41.40.367,eb_03,2023.2.3,120.00550589174048,2010-05-15 02h41.55.186347 -0400,
,,,,0,0,0,0,16,0,16,0,175.26920241909102,,,,,,,,,,,,,,,,,,,,,,,,,,,,,,,,,,,,,,,,,,,,,,,,,,,,,,,,,,,,,,,,,,,,,,,,,,,,,,,,,,,,,,,,,,,,,,,,,,,,,,,,,,175.25577639145195,13.0,"('j', 'l')",175.25623851481942,175.2562517959741,175.26920241909102,175.26920241909102,175.26920241909102,175.26920241909102,175.26920241909102,175.26920241909102,175.26920241909102,175.26920241909102,176.78644375677686,"['j', 'l']","[1.4433833951770794, 1.4443731421488337]","[None, None]",,,,,,,,,,,,,,,,,,,,,3003,2010-05-15_02h41.40.367,eb_03,2023.2.3,120.00550589174048,2010-05-15 02h41.55.186347 -0400,
,,,,0,0,0,0,17,0,17,0,176.8026609372755,,,,,,,,,,,,,,,,,,,,,,,,,,,,,,,,,,,,,,,,,,,,,,,,,,,,,,,,,,,,,,,,,,,,,,,,,,,,,,,,,,,,,,,,,,,,,,,,,,,,,,,,,,176.78867891267873,10.0,"('h', 'j')",176.78909274100442,176.7891060221591,176.8026609372755,176.8026609372755,176.8026609372755,176.8026609372755,176.8026609372755,176.8026609372755,176.8026609372755,176.8026609372755,178.20324071950745,"['h', 'j']","[1.3259364412806462, 1.326924377179239]","[None, None]",,,,,,,,,,,,,,,,,,,,,3003,2010-05-15_02h41.40.367,eb_03,2023.2.3,120.00550589174048,2010-05-15 02h41.55.186347 -0400,
,,,,0,0,0,0,18,0,18,0,178.21940205883584,,,,,,,,,,,,,,,,,,,,,,,,,,,,,,,,,,,,,,,,,,,,,,,,,,,,,,,,,,,,,,,,,,,,,,,,,,,,,,,,,,,,,,,,,,,,,,,,,,,,,,,,,,178.205461990583,11.0,"('j', 'k')",178.20596908873995,178.20598297356628,178.21940205883584,178.21940205883584,178.21940205883584,178.21940205883584,178.21940205883584,178.21940205883584,178.21940205883584,178.21940205883584,179.47003925181343,"['j', 'k']","[1.1891633121704217, 1.190153059142176]","[None, None]",,,,,,,,,,,,,,,,,,,,,3003,2010-05-15_02h41.40.367,eb_03,2023.2.3,120.00550589174048,2010-05-15 02h41.55.186347 -0400,
,,,,0,0,0,0,19,0,19,0,179.48611184896436,,,,,,,,,,,,,,,,,,,,,,,,,,,,,,,,,,,,,,,,,,,,,,,,,,,,,,,,,,,,,,,,,,,,,,,,,,,,,,,,,,,,,,,,,,,,,,,,,,,,,,,,,,179.47228738703416,12.0,"('l', 'space')",179.47277245056466,179.47279750363668,179.48611184896436,179.48611184896436,179.48611184896436,179.48611184896436,179.48611184896436,179.48611184896436,179.48611184896436,179.48611184896436,180.60336290602572,"['space', 'l']","[1.042500561423367, 1.0824617080506869]","[None, None]",,,,,,,,,,,,,,,,,,,,,3003,2010-05-15_02h41.40.367,eb_03,2023.2.3,120.00550589174048,2010-05-15 02h41.55.186347 -0400,
,,,,0,0,0,0,20,0,20,0,180.6195713330235,,,,,,,,,,,,,,,,,,,,,,,,,,,,,,,,,,,,,,,,,,,,,,,,,,,,,,,,,,,,,,,,,,,,,,,,,,,,,,,,,,,,,,,,,,,,,,,,,,,,,,,,,,180.60561979468912,14.0,"('h', 'space')",180.60609157709405,180.6061057637853,180.6195713330235,180.6195713330235,180.6195713330235,180.6195713330235,180.6195713330235,180.6195713330235,180.6195713330235,180.6195713330235,182.65415512616164,"['h', 'j', 'h', 'space']","[0.7880003670579754, 0.7890172799816355, 2.019988421263406, 2.020988732780097]","[None, None, None, None]",,,,,,,,,,,,,,,,,,,,,3003,2010-05-15_02h41.40.367,eb_03,2023.2.3,120.00550589174048,2010-05-15 02h41.55.186347 -0400,
,,,,0,0,0,0,21,0,21,0,182.6696720282198,,,,,,,,,,,,,,,,,,,,,,,,,,,,,,,,,,,,,,,,,,,,,,,,,,,,,,,,,,,,,,,,,,,,,,,,,,,,,,,,,,,,,,,,,,,,,,,,,,,,,,,,,,182.65634409990162,13.0,"('j', 'l')",182.6568231265701,182.65683942617034,182.6696720282198,182.6696720282198,182.6696720282198,182.6696720282198,182.6696720282198,182.6696720282198,182.6696720282198,182.6696720282198,183.9868724961998,"['j', 'l']","[1.2419401575753, 1.2429063606832642]","[None, None]",,,,,,,,,,,,,,,,,,,,,3003,2010-05-15_02h41.40.367,eb_03,2023.2.3,120.00550589174048,2010-05-15 02h41.55.186347 -0400,
,,,,0,0,0,0,22,0,22,0,184.0030848471797,,,,,,,,,,,,,,,,,,,,,,,,,,,,,,,,,,,,,,,,,,,,,,,,,,,,,,,,,,,,,,,,,,,,,,,,,,,,,,,,,,,,,,,,,,,,,,,,,,,,,,,,,,183.989109161339,10.0,"('h', 'j')",183.98961354291532,183.98963618121343,184.0030848471797,184.0030848471797,184.0030848471797,184.0030848471797,184.0030848471797,184.0030848471797,184.0030848471797,184.0030848471797,185.18695984990336,"['h', 'j']","[1.124515238305321, 1.1255022686673328]","[None, None]",,,,,,,,,,,,,,,,,,,,,3003,2010-05-15_02h41.40.367,eb_03,2023.2.3,120.00550589174048,2010-05-15 02h41.55.186347 -0400,
,,,,0,0,0,0,23,0,23,0,185.20315861789277,,,,,,,,,,,,,,,,,,,,,,,,,,,,,,,,,,,,,,,,,,,,,,,,,,,,,,,,,,,,,,,,,,,,,,,,,,,,,,,,,,,,,,,,,,,,,,,,,,,,,,,,,,185.18920104269637,13.0,"('j', 'l')",185.18960491014877,185.18961849313928,185.20315861789277,185.20315861789277,185.20315861789277,185.20315861789277,185.20315861789277,185.20315861789277,185.20315861789277,185.20315861789277,186.1788248482917,"['j', 'l']","[0.9164558788470458, 0.9174398907634895]","[None, None]",,,,,,,,,,,,,,,,,,,,,3003,2010-05-15_02h41.40.367,eb_03,2023.2.3,120.00550589174048,2010-05-15 02h41.55.186347 -0400,
,,,,0,0,0,0,24,0,24,0,186.19495207924047,,,,,,,,,,,,,,,,,,,,,,,,,,,,,,,,,,,,,,,,,,,,,,,,,,,,,,,,,,,,,,,,,,,,,,,,,,,,,,,,,,,,,,,,,,,,,,,,,,,,,,,,,,186.18104038434103,11.0,"('j', 'k')",186.1815136759542,186.18152756078052,186.19495207924047,186.19495207924047,186.19495207924047,186.19495207924047,186.19495207924047,186.19495207924047,186.19495207924047,186.19495207924047,187.07048875812325,"['k', 'j']","[0.8126320568262599, 0.8366582472226582]","[None, None]",,,,,,,,,,,,,,,,,,,,,3003,2010-05-15_02h41.40.367,eb_03,2023.2.3,120.00550589174048,2010-05-15 02h41.55.186347 -0400,
,,,,0,0,0,0,25,0,25,0,187.08674155620974,,,,,,,,,,,,,,,,,,,,,,,,,,,,,,,,,,,,,,,,,,,,,,,,,,,,,,,,,,,,,,,,,,,,,,,,,,,,,,,,,,,,,,,,,,,,,,,,,,,,,,,,,,187.07273236566107,10.0,"('h', 'j')",187.07320686467574,187.07322014580132,187.08674155620974,187.08674155620974,187.08674155620974,187.08674155620974,187.08674155620974,187.08674155620974,187.08674155620974,187.08674155620974,188.9207209366432,"['h', 'j']","[1.7689093284425326, 1.784867526643211]","[None, None]",,,,,,,,,,,,,,,,,,,,,3003,2010-05-15_02h41.40.367,eb_03,2023.2.3,120.00550589174048,2010-05-15 02h41.55.186347 -0400,
,,,,0,0,0,0,26,0,26,0,188.93675519956741,,,,,,,,,,,,,,,,,,,,,,,,,,,,,,,,,,,,,,,,,,,,,,,,,,,,,,,,,,,,,,,,,,,,,,,,,,,,,,,,,,,,,,,,,,,,,,,,,,,,,,,,,,188.92296816629823,13.0,"('j', 'l')",188.92343964686734,188.9234538335586,188.93675519956741,188.93675519956741,188.93675519956741,188.93675519956741,188.93675519956741,188.93675519956741,188.93675519956741,188.93675519956741,190.05404579819879,"['j', 'l']","[1.0548396483354736, 1.0558315081871115]","[None, None]",,,,,,,,,,,,,,,,,,,,,3003,2010-05-15_02h41.40.367,eb_03,2023.2.3,120.00550589174048,2010-05-15 02h41.55.186347 -0400,
,,,,0,0,0,0,27,0,27,0,190.07013348754845,,,,,,,,,,,,,,,,,,,,,,,,,,,,,,,,,,,,,,,,,,,,,,,,,,,,,,,,,,,,,,,,,,,,,,,,,,,,,,,,,,,,,,,,,,,,,,,,,,,,,,,,,,190.0563005739823,14.0,"('h', 'space')",190.05679318364128,190.05680948321242,190.07013348754845,190.07013348754845,190.07013348754845,190.07013348754845,190.07013348754845,190.07013348754845,190.07013348754845,190.07013348754845,191.3458318945486,"['h', 'space']","[1.2015002861444373, 1.2024891275796108]","[None, None]",,,,,,,,,,,,,,,,,,,,,3003,2010-05-15_02h41.40.367,eb_03,2023.2.3,120.00550589174048,2010-05-15 02h41.55.186347 -0400,
,,,,0,0,0,0,28,0,28,0,191.36190207692562,,,,,,,,,,,,,,,,,,,,,,,,,,,,,,,,,,,,,,,,,,,,,,,,,,,,,,,,,,,,,,,,,,,,,,,,,,,,,,,,,,,,,,,,,,,,,,,,,,,,,,,,,,191.34808817954035,13.0,"('j', 'l')",191.3485985980078,191.34861338837072,191.36190207692562,191.36190207692562,191.36190207692562,191.36190207692562,191.36190207692562,191.36190207692562,191.36190207692562,191.36190207692562,192.37918869123678,"['j', 'l']","[0.9577369899197947, 0.9587415272544604]","[None, None]",,,,,,,,,,,,,,,,,,,,,3003,2010-05-15_02h41.40.367,eb_03,2023.2.3,120.00550589174048,2010-05-15 02h41.55.186347 -0400,
,,,,0,0,0,0,29,0,29,0,192.39535214344505,,,,,,,,,,,,,,,,,,,,,,,,,,,,,,,,,,,,,,,,,,,,,,,,,,,,,,,,,,,,,,,,,,,,,,,,,,,,,,,,,,,,,,,,,,,,,,,,,,,,,,,,,,192.38142837479245,14.0,"('h', 'space')",192.38191675863345,192.38193034162396,192.39535214344505,192.39535214344505,192.39535214344505,192.39535214344505,192.39535214344505,192.39535214344505,192.39535214344505,192.39535214344505,193.42090747630573,"['h', 'space']","[0.9642779525602236, 0.9652761511679273]","[None, None]",,,,,,,,,,,,,,,,,,,,,3003,2010-05-15_02h41.40.367,eb_03,2023.2.3,120.00550589174048,2010-05-15 02h41.55.186347 -0400,
,,,,0,0,0,0,30,0,30,0,193.43705915662576,,,,,,,,,,,,,,,,,,,,,,,,,,,,,,,,,,,,,,,,,,,,,,,,,,,,,,,,,,,,,,,,,,,,,,,,,,,,,,,,,,,,,,,,,,,,,,,,,,,,,,,,,,193.423131463991,12.0,"('l', 'space')",193.42366210601176,193.42367629267392,193.43705915662576,193.43705915662576,193.43705915662576,193.43705915662576,193.43705915662576,193.43705915662576,193.43705915662576,193.43705915662576,194.59599066455849,"['l', 'space']","[1.098581392900087, 1.0995708380069118]","[None, None]",,,,,,,,,,,,,,,,,,,,,3003,2010-05-15_02h41.40.367,eb_03,2023.2.3,120.00550589174048,2010-05-15 02h41.55.186347 -0400,
,,,,0,0,0,0,31,0,31,0,194.61213479877915,,,,,,,,,,,,,,,,,,,,,,,,,,,,,,,,,,,,,,,,,,,,,,,,,,,,,,,,,,,,,,,,,,,,,,,,,,,,,,,,,,,,,,,,,,,,,,,,,,,,,,,,,,194.5982342721254,14.0,"('h', 'space')",194.59877366758883,194.59878845795174,194.61213479877915,194.61213479877915,194.61213479877915,194.61213479877915,194.61213479877915,194.61213479877915,194.61213479877915,194.61213479877915,196.11275388111244,"['h', 'space']","[1.4275060912186746, 1.4284976492344867]","[None, None]",,,,,,,,,,,,,,,,,,,,,3003,2010-05-15_02h41.40.367,eb_03,2023.2.3,120.00550589174048,2010-05-15 02h41.55.186347 -0400,
,,,,0,0,0,0,32,0,32,0,196.12891672964906,,,,,,,,,,,,,,,,,,,,,,,,,,,,,,,,,,,,,,,,,,,,,,,,,,,,,,,,,,,,,,,,,,,,,,,,,,,,,,,,,,,,,,,,,,,,,,,,,,,,,,,,,,196.1149528157257,11.0,"('j', 'k')",196.11542369259405,196.11543757742038,196.12891672964906,196.12891672964906,196.12891672964906,196.12891672964906,196.12891672964906,196.12891672964906,196.12891672964906,196.12891672964906,197.69620201582438,"['j', 'k']","[1.493761183344759, 1.4947180292801932]","[None, None]",,,,,,,,,,,,,,,,,,,,,3003,2010-05-15_02h41.40.367,eb_03,2023.2.3,120.00550589174048,2010-05-15 02h41.55.186347 -0400,
,,,,0,0,0,0,33,0,33,0,197.71234916849062,,,,,,,,,,,,,,,,,,,,,,,,,,,,,,,,,,,,,,,,,,,,,,,,,,,,,,,,,,,,,,,,,,,,,,,,,,,,,,,,,,,,,,,,,,,,,,,,,,,,,,,,,,197.69840095043764,12.0,"('l', 'space')",197.69889688037802,197.69891106706928,197.71234916849062,197.71234916849062,197.71234916849062,197.71234916849062,197.71234916849062,197.71234916849062,197.71234916849062,197.71234916849062,199.21296311946935,"['l', 'space']","[1.4383000379020814, 1.4392915959178936]","[None, None]",,,,,,,,,,,,,,,,,,,,,3003,2010-05-15_02h41.40.367,eb_03,2023.2.3,120.00550589174048,2010-05-15 02h41.55.186347 -0400,
,,,,0,0,0,0,34,0,34,0,199.2291579635057,,,,,,,,,,,,,,,,,,,,,,,,,,,,,,,,,,,,,,,,,,,,,,,,,,,,,,,,,,,,,,,,,,,,,,,,,,,,,,,,,,,,,,,,,,,,,,,,,,,,,,,,,,199.2152025012183,11.0,"('j', 'k')",199.21565224899678,199.21566583195818,199.2291579635057,199.2291579635057,199.2291579635057,199.2291579635057,199.2291579635057,199.2291579635057,199.2291579635057,199.2291579635057,200.21304914506618,"['j', 'k']","[0.9214936576317996, 0.9224885359581094]","[None, None]",,,,,,,,,,,,,,,,,,,,,3003,2010-05-15_02h41.40.367,eb_03,2023.2.3,120.00550589174048,2010-05-15 02h41.55.186347 -0400,
,,,,0,0,0,0,35,0,35,0,200.22917637598584,,,,,,,,,,,,,,,,,,,,,,,,,,,,,,,,,,,,,,,,,,,,,,,,,,,,,,,,,,,,,,,,,,,,,,,,,,,,,,,,,,,,,,,,,,,,,,,,,,,,,,,,,,200.21529818579438,14.0,"('h', 'space')",200.21580618948792,200.215820678015,200.22917637598584,200.22917637598584,200.22917637598584,200.22917637598584,200.22917637598584,200.22917637598584,200.22917637598584,200.22917637598584,201.38858841982437,"['space', 'h']","[1.0414703673741315, 1.1134767978510354]","[None, None]",,,,,,,,,,,,,,,,,,,,,3003,2010-05-15_02h41.40.367,eb_03,2023.2.3,120.00550589174048,2010-05-15 02h41.55.186347 -0400,
,,,,0,0,0,0,36,0,36,0,201.40428703205544,,,,,,,,,,,,,,,,,,,,,,,,,,,,,,,,,,,,,,,,,,,,,,,,,,,,,,,,,,,,,,,,,,,,,,,,,,,,,,,,,,,,,,,,,,,,,,,,,,,,,,,,,,201.3907846378279,13.0,"('j', 'l')",201.391256118397,201.39127060689498,201.40428703205544,201.40428703205544,201.40428703205544,201.40428703205544,201.40428703205544,201.40428703205544,201.40428703205544,201.40428703205544,203.29655432832078,"['j', 'l']","[1.8183746417053044, 1.8193646905128844]","[None, None]",,,,,,,,,,,,,,,,,,,,,3003,2010-05-15_02h41.40.367,eb_03,2023.2.3,120.00550589174048,2010-05-15 02h41.55.186347 -0400,
,,,,0,0,0,0,37,0,37,0,203.31277422540006,,,,,,,,,,,,,,,,,,,,,,,,,,,,,,,,,,,,,,,,,,,,,,,,,,,,,,,,,,,,,,,,,,,,,,,,,,,,,,,,,,,,,,,,,,,,,,,,,,,,,,,,,,203.29878012707923,14.0,"('h', 'space')",203.29927877360024,203.29929326212732,203.31277422540006,203.31277422540006,203.31277422540006,203.31277422540006,203.31277422540006,203.31277422540006,203.31277422540006,203.31277422540006,205.19668224986526,"['h', 'space']","[1.8218612434575334, 1.8228521977725904]","[None, None]",,,,,,,,,,,,,,,,,,,,,3003,2010-05-15_02h41.40.367,eb_03,2023.2.3,120.00550589174048,2010-05-15 02h41.55.186347 -0400,
,,,,0,0,0,0,38,0,38,0,205.21282970436732,,,,,,,,,,,,,,,,,,,,,,,,,,,,,,,,,,,,,,,,,,,,,,,,,,,,,,,,,,,,,,,,,,,,,,,,,,,,,,,,,,,,,,,,,,,,,,,,,,,,,,,,,,205.1989068412513,13.0,"('j', 'l')",205.19941635415307,205.19943054084433,205.21282970436732,205.21282970436732,205.21282970436732,205.21282970436732,205.21282970436732,205.21282970436732,205.21282970436732,205.21282970436732,206.2884449834819,"['j', 'l']","[1.0018364198040217, 1.0028234501660336]","[None, None]",,,,,,,,,,,,,,,,,,,,,3003,2010-05-15_02h41.40.367,eb_03,2023.2.3,120.00550589174048,2010-05-15 02h41.55.186347 -0400,
,,,,0,0,0,0,39,0,39,0,206.3046165854903,,,,,,,,,,,,,,,,,,,,,,,,,,,,,,,,,,,,,,,,,,,,,,,,,,,,,,,,,,,,,,,,,,,,,,,,,,,,,,,,,,,,,,,,,,,,,,,,,,,,,,,,,,206.2906623305753,14.0,"('h', 'space')",206.29111087098136,206.2911247558077,206.3046165854903,206.3046165854903,206.3046165854903,206.3046165854903,206.3046165854903,206.3046165854903,206.3046165854903,206.3046165854903,207.56352279888233,"['h', 'space']","[1.1980064401577692, 1.1989979981735814]","[None, None]",,,,,,,,,,,,,,,,,,,,,3003,2010-05-15_02h41.40.367,eb_03,2023.2.3,120.00550589174048,2010-05-15 02h41.55.186347 -0400,
,,,,0,0,0,0,40,0,40,0,207.57970013594604,,,,,,,,,,,,,,,,,,,,,,,,,,,,,,,,,,,,,,,,,,,,,,,,,,,,,,,,,,,,,,,,,,,,,,,,,,,,,,,,,,,,,,,,,,,,,,,,,,,,,,,,,,207.56577093410306,12.0,"('l', 'space')",207.5662665621785,207.56628074886976,207.57970013594604,207.57970013594604,207.57970013594604,207.57970013594604,207.57970013594604,207.57970013594604,207.57970013594604,207.57970013594604,208.59695777320303,"['l', 'space']","[0.9549702864605933, 0.9559579204942565]","[None, None]",,,,,,,,,,,,,,,,,,,,,3003,2010-05-15_02h41.40.367,eb_03,2023.2.3,120.00550589174048,2010-05-15 02h41.55.186347 -0400,
,,,,0,0,0,0,41,0,41,0,208.61308681519586,,,,,,,,,,,,,,,,,,,,,,,,,,,,,,,,,,,,,,,,,,,,,,,,,,,,,,,,,,,,,,,,,,,,,,,,,,,,,,,,,,,,,,,,,,,,,,,,,,,,,,,,,,208.599232470704,14.0,"('h', 'space')",208.59970576231717,208.59972025084426,208.61308681519586,208.61308681519586,208.61308681519586,208.61308681519586,208.61308681519586,208.61308681519586,208.61308681519586,208.61308681519586,209.79698687099153,"['h', 'space']","[1.1215909722086508, 1.1225822283886373]","[None, None]",,,,,,,,,,,,,,,,,,,,,3003,2010-05-15_02h41.40.367,eb_03,2023.2.3,120.00550589174048,2010-05-15 02h41.55.186347 -0400,
,,,,0,0,0,0,42,0,42,0,209.81314398450195,,,,,,,,,,,,,,,,,,,,,,,,,,,,,,,,,,,,,,,,,,,,,,,,,,,,,,,,,,,,,,,,,,,,,,,,,,,,,,,,,,,,,,,,,,,,,,,,,,,,,,,,,,209.79920331254834,12.0,"('l', 'space')",209.79967358574504,209.7996877724072,209.81314398450195,209.81314398450195,209.81314398450195,209.81314398450195,209.81314398450195,209.81314398450195,209.81314398450195,209.81314398450195,210.95539709407603,"['l', 'space']","[1.0815350465418305, 1.0825302266748622]","[None, None]",,,,,,,,,,,,,,,,,,,,,3003,2010-05-15_02h41.40.367,eb_03,2023.2.3,120.00550589174048,2010-05-15 02h41.55.186347 -0400,
,,,,0,0,0,0,43,0,43,0,210.9716112561291,,,,,,,,,,,,,,,,,,,,,,,,,,,,,,,,,,,,,,,,,,,,,,,,,,,,,,,,,,,,,,,,,,,,,,,,,,,,,,,,,,,,,,,,,,,,,,,,,,,,,,,,,,210.9576772247674,10.0,"('h', 'j')",210.9581734565436,210.95818734136992,210.9716112561291,210.9716112561291,210.9716112561291,210.9716112561291,210.9716112561291,210.9716112561291,210.9716112561291,210.9716112561291,212.03884613435366,"['h', 'j']","[0.995142120285891, 0.9960627449327148]","[None, None]",,,,,,,,,,,,,,,,,,,,,3003,2010-05-15_02h41.40.367,eb_03,2023.2.3,120.00550589174048,2010-05-15 02h41.55.186347 -0400,
,,,,0,0,0,0,44,0,44,0,212.05495223618345,,,,,,,,,,,,,,,,,,,,,,,,,,,,,,,,,,,,,,,,,,,,,,,,,,,,,,,,,,,,,,,,,,,,,,,,,,,,,,,,,,,,,,,,,,,,,,,,,,,,,,,,,,212.04105985932983,13.0,"('j', 'l')",212.04150809787097,212.04152258639806,212.05495223618345,212.05495223618345,212.05495223618345,212.05495223618345,212.05495223618345,212.05495223618345,212.05495223618345,212.05495223618345,213.07226058325614,"['j', 'l']","[0.9427643128437921, 0.9587246239534579]","[None, None]",,,,,,,,,,,,,,,,,,,,,3003,2010-05-15_02h41.40.367,eb_03,2023.2.3,120.00550589174048,2010-05-15 02h41.55.186347 -0400,
,,,,0,0,0,0,45,0,45,0,213.08842312995694,,,,,,,,,,,,,,,,,,,,,,,,,,,,,,,,,,,,,,,,,,,,,,,,,,,,,,,,,,,,,,,,,,,,,,,,,,,,,,,,,,,,,,,,,,,,,,,,,,,,,,,,,,213.07449302257737,14.0,"('h', 'space')",213.07505022687837,213.0750641117047,213.08842312995694,213.08842312995694,213.08842312995694,213.08842312995694,213.08842312995694,213.08842312995694,213.08842312995694,213.08842312995694,214.23058930845582,"['h', 'space']","[1.0692632708814926, 1.0702542252256535]","[None, None]",,,,,,,,,,,,,,,,,,,,,3003,2010-05-15_02h41.40.367,eb_03,2023.2.3,120.00550589174048,2010-05-15 02h41.55.186347 -0400,
,,,,0,0,0,0,46,0,46,0,214.24686383930384,,,,,,,,,,,,,,,,,,,,,,,,,,,,,,,,,,,,,,,,,,,,,,,,,,,,,,,,,,,,,,,,,,,,,,,,,,,,,,,,,,,,,,,,,,,,,,,,,,,,,,,,,,214.23283895285567,13.0,"('j', 'l')",214.23331315003452,214.23332733669668,214.24686383930384,214.24686383930384,214.24686383930384,214.24686383930384,214.24686383930384,214.24686383930384,214.24686383930384,214.24686383930384,215.1723789665266,"['j', 'l']","[0.8628299458359834, 0.8638347850064747]","[None, None]",,,,,,,,,,,,,,,,,,,,,3003,2010-05-15_02h41.40.367,eb_03,2023.2.3,120.00550589174048,2010-05-15 02h41.55.186347 -0400,
,,,,0,0,0,0,47,0,47,0,215.18854302246473,,,,,,,,,,,,,,,,,,,,,,,,,,,,,,,,,,,,,,,,,,,,,,,,,,,,,,,,,,,,,,,,,,,,,,,,,,,,,,,,,,,,,,,,,,,,,,,,,,,,,,,,,,215.17462438513758,12.0,"('l', 'space')",215.17507775506238,215.17509194172453,215.18854302246473,215.18854302246473,215.18854302246473,215.18854302246473,215.18854302246473,215.18854302246473,215.18854302246473,215.18854302246473,216.27244875289034,"['space', 'l']","[1.0091413499903865, 1.0251451266522054]","[None, None]",,,,,,,,,,,,,,,,,,,,,3003,2010-05-15_02h41.40.367,eb_03,2023.2.3,120.00550589174048,2010-05-15 02h41.55.186347 -0400,
,,,,0,0,0,0,48,0,48,0,216.28861461987253,,,,,,,,,,,,,,,,,,,,,,,,,,,,,,,,,,,,,,,,,,,,,,,,,,,,,,,,,,,,,,,,,,,,,,,,,,,,,,,,,,,,,,,,,,,,,,,,,,,,,,,,,,216.27467213690397,11.0,"('j', 'k')",216.27522420982132,216.27525741269346,216.28861461987253,216.28861461987253,216.28861461987253,216.28861461987253,216.28861461987253,216.28861461987253,216.28861461987253,216.28861461987253,217.42257244864595,"['j', 'k']","[1.0690399062004872, 1.0930757556343451]","[None, None]",,,,,,,,,,,,,,,,,,,,,3003,2010-05-15_02h41.40.367,eb_03,2023.2.3,120.00550589174048,2010-05-15 02h41.55.186347 -0400,
,,,,0,0,0,0,49,0,49,0,217.43864444209612,,,,,,,,,,,,,,,,,,,,,,,,,,,,,,,,,,,,,,,,,,,,,,,,,,,,,,,,,,,,,,,,,,,,,,,,,,,,,,,,,,,,,,,,,,,,,,,,,,,,,,,,,,217.42483627973706,14.0,"('h', 'space')",217.42535514984047,217.4253690346668,217.43864444209612,217.43864444209612,217.43864444209612,217.43864444209612,217.43864444209612,217.43864444209612,217.43864444209612,217.43864444209612,218.43092689092737,"['h', 'space']","[0.919035438913852, 0.9510411811934318]","[None, None]",,,,,,,,,,,,,,,,,,,,,3003,2010-05-15_02h41.40.367,eb_03,2023.2.3,120.00550589174048,2010-05-15 02h41.55.186347 -0400,
,,,,0,0,0,0,50,0,50,0,218.44706559195765,,,,,,,,,,,,,,,,,,,,,,,,,,,,,,,,,,,,,,,,,,,,,,,,,,,,,,,,,,,,,,,,,,,,,,,,,,,,,,,,,,,,,,,,,,,,,,,,,,,,,,,,,,218.4331288439862,11.0,"('j', 'k')",218.43362205731682,218.43363714954467,218.44706559195765,218.44706559195765,218.44706559195765,218.44706559195765,218.44706559195765,218.44706559195765,218.44706559195765,218.44706559195765,221.17338803151506,"['h', 'j', 'j', 'k']","[1.422629497188609, 1.4236216588760726, 2.710638919554185, 2.711629873869242]","[None, None, None, None]",,,,,,,,,,,,,,,,,,,,,3003,2010-05-15_02h41.40.367,eb_03,2023.2.3,120.00550589174048,2010-05-15 02h41.55.186347 -0400,
,,,,0,0,0,0,51,0,51,0,221.18896500056144,,,,,,,,,,,,,,,,,,,,,,,,,,,,,,,,,,,,,,,,,,,,,,,,,,,,,,,,,,,,,,,,,,,,,,,,,,,,,,,,,,,,,,,,,,,,,,,,,,,,,,,,,,221.17558304214617,12.0,"('l', 'space')",221.17609285691287,221.17610734543996,221.18896500056144,221.18896500056144,221.18896500056144,221.18896500056144,221.18896500056144,221.18896500056144,221.18896500056144,221.18896500056144,222.23106592035037,"['l', 'space']","[0.9687111375678796, 0.9697045066568535]","[None, None]",,,,,,,,,,,,,,,,,,,,,3003,2010-05-15_02h41.40.367,eb_03,2023.2.3,120.00550589174048,2010-05-15 02h41.55.186347 -0400,
,,,,0,0,0,0,52,0,52,0,222.24730392807396,,,,,,,,,,,,,,,,,,,,,,,,,,,,,,,,,,,,,,,,,,,,,,,,,,,,,,,,,,,,,,,,,,,,,,,,,,,,,,,,,,,,,,,,,,,,,,,,,,,,,,,,,,222.23329171907972,13.0,"('j', 'l')",222.23375263510388,222.23376712363097,222.24730392807396,222.24730392807396,222.24730392807396,222.24730392807396,222.24730392807396,222.24730392807396,222.24730392807396,222.24730392807396,223.64795645474805,"['l', 'j']","[1.3264067144482397, 1.3424011339666322]","[None, None]",,,,,,,,,,,,,,,,,,,,,3003,2010-05-15_02h41.40.367,eb_03,2023.2.3,120.00550589174048,2010-05-15 02h41.55.186347 -0400,
,,,,0,0,0,0,53,0,53,0,223.66406165107037,,,,,,,,,,,,,,,,,,,,,,,,,,,,,,,,,,,,,,,,,,,,,,,,,,,,,,,,,,,,,,,,,,,,,,,,,,,,,,,,,,,,,,,,,,,,,,,,,,,,,,,,,,223.6502003641508,11.0,"('j', 'k')",223.65071832871763,223.6507328172156,223.66406165107037,223.66406165107037,223.66406165107037,223.66406165107037,223.66406165107037,223.66406165107037,223.66406165107037,223.66406165107037,224.75637434469536,"['j', 'k']","[1.0296398878563195, 1.0306598192255478]","[None, None]",,,,,,,,,,,,,,,,,,,,,3003,2010-05-15_02h41.40.367,eb_03,2023.2.3,120.00550589174048,2010-05-15 02h41.55.186347 -0400,
,,,,0,0,0,0,54,0,54,0,224.77253658956033,,,,,,,,,,,,,,,,,,,,,,,,,,,,,,,,,,,,,,,,,,,,,,,,,,,,,,,,,,,,,,,,,,,,,,,,,,,,,,,,,,,,,,,,,,,,,,,,,,,,,,,,,,224.75859018258052,12.0,"('l', 'space')",224.75901095333393,224.75902453629533,224.77253658956033,224.77253658956033,224.77253658956033,224.77253658956033,224.77253658956033,224.77253658956033,224.77253658956033,224.77253658956033,225.6563936023449,"['space', 'l']","[0.8091852985089645, 0.8332036409701686]","[None, None]",,,,,,,,,,,,,,,,,,,,,3003,2010-05-15_02h41.40.367,eb_03,2023.2.3,120.00550589174048,2010-05-15 02h41.55.186347 -0400,
,,,,0,0,0,0,55,0,55,0,225.67259810538962,,,,,,,,,,,,,,,,,,,,,,,,,,,,,,,,,,,,,,,,,,,,,,,,,,,,,,,,,,,,,,,,,,,,,,,,,,,,,,,,,,,,,,,,,,,,,,,,,,,,,,,,,,225.65863539883867,14.0,"('h', 'space')",225.65912046236917,225.65913464906043,225.67259810538962,225.67259810538962,225.67259810538962,225.67259810538962,225.67259810538962,225.67259810538962,225.67259810538962,225.67259810538962,226.9148437292606,"['space', 'h']","[1.1801973336259834, 1.205120001162868]","[None, None]",,,,,,,,,,,,,,,,,,,,,3003,2010-05-15_02h41.40.367,eb_03,2023.2.3,120.00550589174048,2010-05-15 02h41.55.186347 -0400,
,,,,0,0,0,0,56,0,56,0,226.9310141238966,,,,,,,,,,,,,,,,,,,,,,,,,,,,,,,,,,,,,,,,,,,,,,,,,,,,,,,,,,,,,,,,,,,,,,,,,,,,,,,,,,,,,,,,,,,,,,,,,,,,,,,,,,226.91708522388944,11.0,"('j', 'k')",226.91754795095767,226.91756243948475,226.9310141238966,226.9310141238966,226.9310141238966,226.9310141238966,226.9310141238966,226.9310141238966,226.9310141238966,226.9310141238966,227.84823608316947,"['j', 'k']","[0.842704185488401, 0.8436957435042132]","[None, None]",,,,,,,,,,,,,,,,,,,,,3003,2010-05-15_02h41.40.367,eb_03,2023.2.3,120.00550589174048,2010-05-15 02h41.55.186347 -0400,
,,,,0,0,0,0,57,0,57,0,227.8643898763985,,,,,,,,,,,,,,,,,,,,,,,,,,,,,,,,,,,,,,,,,,,,,,,,,,,,,,,,,,,,,,,,,,,,,,,,,,,,,,,,,,,,,,,,,,,,,,,,,,,,,,,,,,227.85051500648842,12.0,"('l', 'space')",227.8510190861998,227.85103327289107,227.8643898763985,227.8643898763985,227.8643898763985,227.8643898763985,227.8643898763985,227.8643898763985,227.8643898763985,227.8643898763985,228.7654091436998,"['space', 'l']","[0.7723458240507171, 0.8603364113369025]","[None, None]",,,,,,,,,,,,,,,,,,,,,3003,2010-05-15_02h41.40.367,eb_03,2023.2.3,120.00550589174048,2010-05-15 02h41.55.186347 -0400,
,,,,0,0,0,0,58,0,58,0,228.7811500141397,,,,,,,,,,,,,,,,,,,,,,,,,,,,,,,,,,,,,,,,,,,,,,,,,,,,,,,,,,,,,,,,,,,,,,,,,,,,,,,,,,,,,,,,,,,,,,,,,,,,,,,,,,228.76764279039344,13.0,"('j', 'l')",228.7681263447157,228.7681408332428,228.7811500141397,228.7811500141397,228.7811500141397,228.7811500141397,228.7811500141397,228.7811500141397,228.7811500141397,228.7811500141397,230.64842552057235,"['j', 'l']","[1.8075728470867034, 1.8086772948154248]","[None, None]",,,,,,,,,,,,,,,,,,,,,3003,2010-05-15_02h41.40.367,eb_03,2023.2.3,120.00550589174048,2010-05-15 02h41.55.186347 -0400,
,,,,0,0,0,0,59,0,59,0,230.6645956133725,,,,,,,,,,,,,,,,,,,,,,,,,,,,,,,,,,,,,,,,,,,,,,,,,,,,,,,,,,,,,,,,,,,,,,,,,,,,,,,,,,,,,,,,,,,,,,,,,,,,,,,,,,230.65064407503814,10.0,"('h', 'j')",230.65115479534143,230.65116868016776,230.6645956133725,230.6645956133725,230.6645956133725,230.6645956133725,230.6645956133725,230.6645956133725,230.6645956133725,230.6645956133725,231.69015245544142,"['h', 'j']","[0.9641418208775576, 0.9651327752217185]","[None, None]",,,,,,,,,,,,,,,,,,,,,3003,2010-05-15_02h41.40.367,eb_03,2023.2.3,120.00550589174048,2010-05-15 02h41.55.186347 -0400,
,,,,0,0,0,0,60,0,60,0,231.70628451587982,,,,,,,,,,,,,,,,,,,,,,,,,,,,,,,,,,,,,,,,,,,,,,,,,,,,,,,,,,,,,,,,,,,,,,,,,,,,,,,,,,,,,,,,,,,,,,,,,,,,,,,,,,231.6923707080714,12.0,"('l', 'space')",231.69286875092075,231.69288354128366,231.70628451587982,231.70628451587982,231.70628451587982,231.70628451587982,231.70628451587982,231.70628451587982,231.70628451587982,231.70628451587982,232.56521855932078,"['l', 'space']","[0.7864410401671194, 0.7874470867100172]","[None, None]",,,,,,,,,,,,,,,,,,,,,3003,2010-05-15_02h41.40.367,eb_03,2023.2.3,120.00550589174048,2010-05-15 02h41.55.186347 -0400,
,,,,0,0,0,0,61,0,61,0,232.5813542418764,,,,,,,,,,,,,,,,,,,,,,,,,,,,,,,,,,,,,,,,,,,,,,,,,,,,,,,,,,,,,,,,,,,,,,,,,,,,,,,,,,,,,,,,,,,,,,,,,,,,,,,,,,232.56746367606684,10.0,"('h', 'j')",232.56792821420822,232.56794240089948,232.5813542418764,232.5813542418764,232.5813542418764,232.5813542418764,232.5813542418764,232.5813542418764,232.5813542418764,232.5813542418764,233.6735812117695,"['h', 'j']","[1.031387263617944, 1.032381236407673]","[None, None]",,,,,,,,,,,,,,,,,,,,,3003,2010-05-15_02h41.40.367,eb_03,2023.2.3,120.00550589174048,2010-05-15 02h41.55.186347 -0400,
,,,,0,0,0,0,62,0,62,0,233.68973349576117,,,,,,,,,,,,,,,,,,,,,,,,,,,,,,,,,,,,,,,,,,,,,,,,,,,,,,,,,,,,,,,,,,,,,,,,,,,,,,,,,,,,,,,,,,,,,,,,,,,,,,,,,,233.67582904512528,13.0,"('j', 'l')",233.67632286215667,233.67633644514717,233.68973349576117,233.68973349576117,233.68973349576117,233.68973349576117,233.68973349576117,233.68973349576117,233.68973349576117,233.68973349576117,234.57364363313536,"['j', 'l']","[0.8110084371292032, 0.8119966748636216]","[None, None]",,,,,,,,,,,,,,,,,,,,,3003,2010-05-15_02h41.40.367,eb_03,2023.2.3,120.00550589174048,2010-05-15 02h41.55.186347 -0400,
,,,,0,0,0,0,63,0,63,0,234.58981825361843,,,,,,,,,,,,,,,,,,,,,,,,,,,,,,,,,,,,,,,,,,,,,,,,,,,,,,,,,,,,,,,,,,,,,,,,,,,,,,,,,,,,,,,,,,,,,,,,,,,,,,,,,,234.57586913002888,12.0,"('l', 'space')",234.5763161612267,234.5763294423523,234.58981825361843,234.58981825361843,234.58981825361843,234.58981825361843,234.58981825361843,234.58981825361843,234.58981825361843,234.58981825361843,235.88210722227814,"['space', 'l']","[1.2309168093197513, 1.2549221724912059]","[None, None]",,,,,,,,,,,,,,,,,,,,,3003,2010-05-15_02h41.40.367,eb_03,2023.2.3,120.00550589174048,2010-05-15 02h41.55.186347 -0400,
,,,,0,0,0,0,64,0,64,0,235.89823264215374,,,,,,,,,,,,,,,,,,,,,,,,,,,,,,,,,,,,,,,,,,,,,,,,,,,,,,,,,,,,,,,,,,,,,,,,,,,,,,,,,,,,,,,,,,,,,,,,,,,,,,,,,,235.88432366386405,14.0,"('h', 'space')",235.8848374025838,235.88485128743923,235.89823264215374,235.89823264215374,235.89823264215374,235.89823264215374,235.89823264215374,235.89823264215374,235.89823264215374,235.89823264215374,237.14888764393982,"['h', 'space']","[1.1785039879614487, 1.179497658915352]","[None, None]",,,,,,,,,,,,,,,,,,,,,3003,2010-05-15_02h41.40.367,eb_03,2023.2.3,120.00550589174048,2010-05-15 02h41.55.186347 -0400,
,,,,0,0,0,0,65,0,65,0,237.1649813701806,,,,,,,,,,,,,,,,,,,,,,,,,,,,,,,,,,,,,,,,,,,,,,,,,,,,,,,,,,,,,,,,,,,,,,,,,,,,,,,,,,,,,,,,,,,,,,,,,,,,,,,,,,237.15108295643586,13.0,"('j', 'l')",237.15157435869332,237.15159639331978,237.1649813701806,237.1649813701806,237.1649813701806,237.1649813701806,237.1649813701806,237.1649813701806,237.1649813701806,237.1649813701806,238.0405654385977,"['j', 'l']","[0.8157682174933143, 0.8317508650652599]","[None, None]",,,,,,,,,,,,,,,,,,,,,3003,2010-05-15_02h41.40.367,eb_03,2023.2.3,120.00550589174048,2010-05-15 02h41.55.186347 -0400,
,,,,0,0,0,0,66,0,66,0,238.05675816972507,,,,,,,,,,,,,,,,,,,,,,,,,,,,,,,,,,,,,,,,,,,,,,,,,,,,,,,,,,,,,,,,,,,,,,,,,,,,,,,,,,,,,,,,,,,,,,,,,,,,,,,,,,238.042826854944,14.0,"('h', 'space')",238.04329682630487,238.04331040926627,238.05675816972507,238.05675816972507,238.05675816972507,238.05675816972507,238.05675816972507,238.05675816972507,238.05675816972507,238.05675816972507,238.94897264326573,"['h', 'space']","[0.8199964503000956, 0.8209883101808373]","[None, None]",,,,,,,,,,,,,,,,,,,,,3003,2010-05-15_02h41.40.367,eb_03,2023.2.3,120.00550589174048,2010-05-15 02h41.55.186347 -0400,
,,,,0,0,0,0,67,0,67,0,238.96510410000337,,,,,,,,,,,,,,,,,,,,,,,,,,,,,,,,,,,,,,,,,,,,,,,,,,,,,,,,,,,,,,,,,,,,,,,,,,,,,,,,,,,,,,,,,,,,,,,,,,,,,,,,,,238.95124220941216,13.0,"('j', 'l')",238.95177345510456,238.9517876417667,238.96510410000337,238.96510410000337,238.96510410000337,238.96510410000337,238.96510410000337,238.96510410000337,238.96510410000337,238.96510410000337,239.89893171319272,"['j', 'l']","[0.8716347396257333, 0.8726220718235709]","[None, None]",,,,,,,,,,,,,,,,,,,,,3003,2010-05-15_02h41.40.367,eb_03,2023.2.3,120.00550589174048,2010-05-15 02h41.55.186347 -0400,
,,,,0,0,0,0,68,0,68,0,239.9152168086148,,,,,,,,,,,,,,,,,,,,,,,,,,,,,,,,,,,,,,,,,,,,,,,,,,,,,,,,,,,,,,,,,,,,,,,,,,,,,,,,,,,,,,,,,,,,,,,,,,,,,,,,,,239.901157813787,12.0,"('l', 'space')",239.90155353146838,239.90156681259396,239.9152168086148,239.9152168086148,239.9152168086148,239.9152168086148,239.9152168086148,239.9152168086148,239.9152168086148,239.9152168086148,240.81577183963964,"['l', 'space']","[0.8415239748719614, 0.8425161365885288]","[None, None]",,,,,,,,,,,,,,,,,,,,,3003,2010-05-15_02h41.40.367,eb_03,2023.2.3,120.00550589174048,2010-05-15 02h41.55.186347 -0400,
,,,,0,0,0,0,69,0,69,0,240.83191959597752,,,,,,,,,,,,,,,,,,,,,,,,,,,,,,,,,,,,,,,,,,,,,,,,,,,,,,,,,,,,,,,,,,,,,,,,,,,,,,,,,,,,,,,,,,,,,,,,,,,,,,,,,,240.81801091952366,10.0,"('h', 'j')",240.81850503839087,240.8185189232172,240.83191959597752,240.83191959597752,240.83191959597752,240.83191959597752,240.83191959597752,240.83191959597752,240.83191959597752,240.83191959597752,241.8908196517441,"['h', 'j']","[0.9968212792882696, 0.9978273258311674]","[None, None]",,,,,,,,,,,,,,,,,,,,,3003,2010-05-15_02h41.40.367,eb_03,2023.2.3,120.00550589174048,2010-05-15 02h41.55.186347 -0400,
,,,,0,0,0,0,70,0,70,0,241.90694295871072,,,,,,,,,,,,,,,,,,,,,,,,,,,,,,,,,,,,,,,,,,,,,,,,,,,,,,,,,,,,,,,,,,,,,,,,,,,,,,,,,,,,,,,,,,,,,,,,,,,,,,,,,,241.89306567405583,9.0,"('k', 'l')",241.8935616039671,241.8935751869576,241.90694295871072,241.90694295871072,241.90694295871072,241.90694295871072,241.90694295871072,241.90694295871072,241.90694295871072,241.90694295871072,242.990918415162,"['k', 'l']","[1.0098316675575916, 1.032839133986272]","[None, None]",,,,,,,,,,,,,,,,,,,,,3003,2010-05-15_02h41.40.367,eb_03,2023.2.3,120.00550589174048,2010-05-15 02h41.55.186347 -0400,
,,,,0,0,0,0,71,0,71,0,243.0070414202637,,,,,,,,,,,,,,,,,,,,,,,,,,,,,,,,,,,,,,,,,,,,,,,,,,,,,,,,,,,,,,,,,,,,,,,,,,,,,,,,,,,,,,,,,,,,,,,,,,,,,,,,,,242.99311493500136,10.0,"('h', 'j')",242.99361358155147,242.9936274663778,243.0070414202637,243.0070414202637,243.0070414202637,243.0070414202637,243.0070414202637,243.0070414202637,243.0070414202637,243.0070414202637,243.86599478172138,"['h', 'j']","[0.7977263891370967, 0.7987191545544192]","[None, None]",,,,,,,,,,,,,,,,,,,,,3003,2010-05-15_02h41.40.367,eb_03,2023.2.3,120.00550589174048,2010-05-15 02h41.55.186347 -0400,
,,,,0,0,0,0,72,0,72,0,243.88209635589737,,,,,,,,,,,,,,,,,,,,,,,,,,,,,,,,,,,,,,,,,,,,,,,,,,,,,,,,,,,,,,,,,,,,,,,,,,,,,,,,,,,,,,,,,,,,,,,,,,,,,,,,,,243.8682079029968,13.0,"('j', 'l')",243.86870353110135,243.86873733764514,243.88209635589737,243.88209635589737,243.88209635589737,243.88209635589737,243.88209635589737,243.88209635589737,243.88209635589737,243.88209635589737,244.78268881558324,"['l', 'j']","[0.8416851596557535, 0.8576620722014923]","[None, None]",,,,,,,,,,,,,,,,,,,,,3003,2010-05-15_02h41.40.367,eb_03,2023.2.3,120.00550589174048,2010-05-15 02h41.55.186347 -0400,
,,,,0,0,0,0,73,0,73,0,244.7988688692567,,,,,,,,,,,,,,,,,,,,,,,,,,,,,,,,,,,,,,,,,,,,,,,,,,,,,,,,,,,,,,,,,,,,,,,,,,,,,,,,,,,,,,,,,,,,,,,,,,,,,,,,,,244.78494359136675,12.0,"('l', 'space')",244.78540692213573,244.78541990142548,244.7988688692567,244.7988688692567,244.7988688692567,244.7988688692567,244.7988688692567,244.7988688692567,244.7988688692567,244.7988688692567,245.68271471382468,"['l', 'space']","[0.820900775375776, 0.821895653672982]","[None, None]",,,,,,,,,,,,,,,,,,,,,3003,2010-05-15_02h41.40.367,eb_03,2023.2.3,120.00550589174048,2010-05-15 02h41.55.186347 -0400,
,,,,0,0,0,0,74,0,74,0,245.69894668465713,,,,,,,,,,,,,,,,,,,,,,,,,,,,,,,,,,,,,,,,,,,,,,,,,,,,,,,,,,,,,,,,,,,,,,,,,,,,,,,,,,,,,,,,,,,,,,,,,,,,,,,,,,245.68493839964503,14.0,"('h', 'space')",245.685433122213,245.68544700703933,245.69894668465713,245.69894668465713,245.69894668465713,245.69894668465713,245.69894668465713,245.69894668465713,245.69894668465713,245.69894668465713,246.97447002204717,"['h', 'space']","[1.216838194639422, 1.2407982811855618]","[None, None]",,,,,,,,,,,,,,,,,,,,,3003,2010-05-15_02h41.40.367,eb_03,2023.2.3,120.00550589174048,2010-05-15 02h41.55.186347 -0400,
,,,,0,0,0,0,75,0,75,0,246.99066969557316,,,,,,,,,,,,,,,,,,,,,,,,,,,,,,,,,,,,,,,,,,,,,,,,,,,,,,,,,,,,,,,,,,,,,,,,,,,,,,,,,,,,,,,,,,,,,,,,,,,,,,,,,,246.97666141056106,11.0,"('j', 'k')",246.9771368150832,246.97715039807372,246.99066969557316,246.99066969557316,246.99066969557316,246.99066969557316,246.99066969557316,246.99066969557316,246.99066969557316,246.99066969557316,248.30798426063848,"['j', 'k']","[1.23710974570713, 1.2381037184677552]","[None, None]",,,,,,,,,,,,,,,,,,,,,3003,2010-05-15_02h41.40.367,eb_03,2023.2.3,120.00550589174048,2010-05-15 02h41.55.186347 -0400,
,,,,0,0,0,0,76,0,76,0,248.32404418033548,,,,,,,,,,,,,,,,,,,,,,,,,,,,,,,,,,,,,,,,,,,,,,,,,,,,,,,,,,,,,,,,,,,,,,,,,,,,,,,,,,,,,,,,,,,,,,,,,,,,,,,,,,248.31019677824224,14.0,"('h', 'space')",248.31069331185427,248.3107071966806,248.32404418033548,248.32404418033548,248.32404418033548,248.32404418033548,248.32404418033548,248.32404418033548,248.32404418033548,248.32404418033548,249.5413571757963,"['h', 'space']","[1.1357350870675873, 1.1367236266669352]","[None, None]",,,,,,,,,,,,,,,,,,,,,3003,2010-05-15_02h41.40.367,eb_03,2023.2.3,120.00550589174048,2010-05-15 02h41.55.186347 -0400,
,,,,0,0,0,0,77,0,77,0,249.55750795057975,,,,,,,,,,,,,,,,,,,,,,,,,,,,,,,,,,,,,,,,,,,,,,,,,,,,,,,,,,,,,,,,,,,,,,,,,,,,,,,,,,,,,,,,,,,,,,,,,,,,,,,,,,249.54359323723475,0.0,"('h', 'l')",249.54406833992107,249.5440822247765,249.55750795057975,249.55750795057975,249.55750795057975,249.55750795057975,249.55750795057975,249.55750795057975,249.55750795057975,249.55750795057975,254.2507941519434,"['j', 'l', 'h', 'l']","[0.9422855880402494, 0.9432695999566931, 4.630288309446769, 4.662283185345586]","[None, None, None, None]",,,,,,,,,,,,,,,,,,,,,3003,2010-05-15_02h41.40.367,eb_03,2023.2.3,120.00550589174048,2010-05-15 02h41.55.186347 -0400,
,,,,0,0,0,0,78,0,78,0,254.26611002581194,,,,,,,,,,,,,,,,,,,,,,,,,,,,,,,,,,,,,,,,,,,,,,,,,,,,,,,,,,,,,,,,,,,,,,,,,,,,,,,,,,,,,,,,,,,,,,,,,,,,,,,,,,254.2530205543735,1.0,"('j', 'space')",254.2534669818706,254.2534805648611,254.26611002581194,254.26611002581194,254.26611002581194,254.26611002581194,254.26611002581194,254.26611002581194,254.26611002581194,254.26611002581194,257.29187423482654,"['space', 'j']","[2.9536883543769363, 2.9696863960125484]","[None, None]",,,,,,,,,,,,,,,,,,,,,3003,2010-05-15_02h41.40.367,eb_03,2023.2.3,120.00550589174048,2010-05-15 02h41.55.186347 -0400,
,,,,0,0,0,0,79,0,79,0,257.3079767145391,,,,,,,,,,,,,,,,,,,,,,,,,,,,,,,,,,,,,,,,,,,,,,,,,,,,,,,,,,,,,,,,,,,,,,,,,,,,,,,,,,,,,,,,,,,,,,,,,,,,,,,,,,257.2940891671751,0.0,"('h', 'l')",257.29453951865435,257.2945527997799,257.3079767145391,257.3079767145391,257.3079767145391,257.3079767145391,257.3079767145391,257.3079767145391,257.3079767145391,257.3079767145391,261.5176648250199,"['l', 'j', 'h', 'l']","[1.2468900997773744, 1.262879086076282, 4.182816737156827, 4.183881039614789]","[None, None, None, None]",,,,,,,,,,,,,,,,,,,,,3003,2010-05-15_02h41.40.367,eb_03,2023.2.3,120.00550589174048,2010-05-15 02h41.55.186347 -0400,
,,,,0,0,0,0,80,0,80,0,261.53330004998134,,,,,,,,,,,,,,,,,,,,,,,,,,,,,,,,,,,,,,,,,,,,,,,,,,,,,,,,,,,,,,,,,,,,,,,,,,,,,,,,,,,,,,,,,,,,,,,,,,,,,,,,,,261.5198900200776,2.0,"('k', 'space')",261.52034399367403,261.52035787850036,261.53330004998134,261.53330004998134,261.53330004998134,261.53330004998134,261.53330004998134,261.53330004998134,261.53330004998134,261.53330004998134,264.86734221398365,"['space', 'k']","[3.2615265224303585, 3.2855068325297907]","[None, None]",,,,,,,,,,,,,,,,,,,,,3003,2010-05-15_02h41.40.367,eb_03,2023.2.3,120.00550589174048,2010-05-15 02h41.55.186347 -0400,
,,,,0,0,0,0,81,0,81,0,264.88356573320925,,,,,,,,,,,,,,,,,,,,,,,,,,,,,,,,,,,,,,,,,,,,,,,,,,,,,,,,,,,,,,,,,,,,,,,,,,,,,,,,,,,,,,,,,,,,,,,,,,,,,,,,,,264.86962264651083,4.0,"('space',)",264.8701049934607,264.87011918015196,264.88356573320925,264.88356573320925,264.88356573320925,264.88356573320925,264.88356573320925,264.88356573320925,264.88356573320925,264.88356573320925,266.4841079056496,['space'],[1.5272320770891383],[None],,,,,,,,,,,,,,,,,,,,,3003,2010-05-15_02h41.40.367,eb_03,2023.2.3,120.00550589174048,2010-05-15 02h41.55.186347 -0400,
,,,,0,0,0,0,82,0,82,0,266.5002997312404,,,,,,,,,,,,,,,,,,,,,,,,,,,,,,,,,,,,,,,,,,,,,,,,,,,,,,,,,,,,,,,,,,,,,,,,,,,,,,,,,,,,,,,,,,,,,,,,,,,,,,,,,,266.48631166978157,2.0,"('k', 'space')",266.4867463253613,266.48676021018764,266.5002997312404,266.5002997312404,266.5002997312404,266.5002997312404,266.5002997312404,266.5002997312404,266.5002997312404,266.5002997312404,268.1175538067473,"['k', 'space']","[1.558516713703284, 1.5595025366928894]","[None, None]",,,,,,,,,,,,,,,,,,,,,3003,2010-05-15_02h41.40.367,eb_03,2023.2.3,120.00550589174048,2010-05-15 02h41.55.186347 -0400,
,,,,0,0,0,0,83,0,83,0,268.133749858127,,,,,,,,,,,,,,,,,,,,,,,,,,,,,,,,,,,,,,,,,,,,,,,,,,,,,,,,,,,,,,,,,,,,,,,,,,,,,,,,,,,,,,,,,,,,,,,,,,,,,,,,,,268.11977055016905,3.0,"('h', 'k')",268.1202359938179,268.1202501805092,268.133749858127,268.133749858127,268.133749858127,268.133749858127,268.133749858127,268.133749858127,268.133749858127,268.133749858127,269.4426372364687,"['h', 'k']","[1.237085296335863, 1.261080698663136]","[None, None]",,,,,,,,,,,,,,,,,,,,,3003,2010-05-15_02h41.40.367,eb_03,2023.2.3,120.00550589174048,2010-05-15 02h41.55.186347 -0400,
,,,,0,0,0,0,84,0,84,0,269.4587907278328,,,,,,,,,,,,,,,,,,,,,,,,,,,,,,,,,,,,,,,,,,,,,,,,,,,,,,,,,,,,,,,,,,,,,,,,,,,,,,,,,,,,,,,,,,,,,,,,,,,,,,,,,,269.444898652815,2.0,"('k', 'space')",269.4453441747755,269.44535805960186,269.4587907278328,269.4587907278328,269.4587907278328,269.4587907278328,269.4587907278328,269.4587907278328,269.4587907278328,269.4587907278328,270.3343693630595,"['k', 'space']","[0.8160157297097612, 0.8171394954842981]","[None, None]",,,,,,,,,,,,,,,,,,,,,3003,2010-05-15_02h41.40.367,eb_03,2023.2.3,120.00550589174048,2010-05-15 02h41.55.186347 -0400,
,,,,0,0,0,0,85,0,85,0,270.3505171193974,,,,,,,,,,,,,,,,,,,,,,,,,,,,,,,,,,,,,,,,,,,,,,,,,,,,,,,,,,,,,,,,,,,,,,,,,,,,,,,,,,,,,,,,,,,,,,,,,,,,,,,,,,270.33660633003456,0.0,"('h', 'l')",270.3371490458085,270.337162628799,270.3505171193974,270.3505171193974,270.3505171193974,270.3505171193974,270.3505171193974,270.3505171193974,270.3505171193974,270.3505171193974,273.43520372064086,"['l', 'j', 'h', 'l']","[1.2603088831529021, 1.284308511269046, 2.9883294978935737, 3.068326648470247]","[None, None, None, None]",,,,,,,,,,,,,,,,,,,,,3003,2010-05-15_02h41.40.367,eb_03,2023.2.3,120.00550589174048,2010-05-15 02h41.55.186347 -0400,
,,,,0,0,0,0,86,0,86,0,273.4507275651267,,,,,,,,,,,,,,,,,,,,,,,,,,,,,,,,,,,,,,,,,,,,,,,,,,,,,,,,,,,,,,,,,,,,,,,,,,,,,,,,,,,,,,,,,,,,,,,,,,,,,,,,,,273.4374105032184,3.0,"('h', 'k')",273.4379136773932,273.43793661755626,273.4507275651267,273.4507275651267,273.4507275651267,273.4507275651267,273.4507275651267,273.4507275651267,273.4507275651267,273.4507275651267,275.80973465484567,"['k', 'h']","[2.2871129452541936, 2.311086011119187]","[None, None]",,,,,,,,,,,,,,,,,,,,,3003,2010-05-15_02h41.40.367,eb_03,2023.2.3,120.00550589174048,2010-05-15 02h41.55.186347 -0400,
,,,,0,0,0,0,87,0,87,0,275.8259382523538,,,,,,,,,,,,,,,,,,,,,,,,,,,,,,,,,,,,,,,,,,,,,,,,,,,,,,,,,,,,,,,,,,,,,,,,,,,,,,,,,,,,,,,,,,,,,,,,,,,,,,,,,,275.81195532224956,0.0,"('h', 'l')",275.81240386265563,275.81241774748196,275.8259382523538,275.8259382523538,275.8259382523538,275.8259382523538,275.8259382523538,275.8259382523538,275.8259382523538,275.8259382523538,276.70147221465595,"['l', 'h']","[0.8159137064067181, 0.8479176376131363]","[None, None]",,,,,,,,,,,,,,,,,,,,,3003,2010-05-15_02h41.40.367,eb_03,2023.2.3,120.00550589174048,2010-05-15 02h41.55.186347 -0400,
,,,,0,0,0,0,88,0,88,0,276.71761544331093,,,,,,,,,,,,,,,,,,,,,,,,,,,,,,,,,,,,,,,,,,,,,,,,,,,,,,,,,,,,,,,,,,,,,,,,,,,,,,,,,,,,,,,,,,,,,,,,,,,,,,,,,,276.70371552035795,3.0,"('h', 'k')",276.7042256369605,276.70424254023237,276.71761544331093,276.71761544331093,276.71761544331093,276.71761544331093,276.71761544331093,276.71761544331093,276.71761544331093,276.71761544331093,277.5848779704538,"['h', 'k']","[0.8042410913622007, 0.805233253078768]","[None, None]",,,,,,,,,,,,,,,,,,,,,3003,2010-05-15_02h41.40.367,eb_03,2023.2.3,120.00550589174048,2010-05-15 02h41.55.186347 -0400,
,,,,0,0,0,0,89,0,89,0,277.6010495724622,,,,,,,,,,,,,,,,,,,,,,,,,,,,,,,,,,,,,,,,,,,,,,,,,,,,,,,,,,,,,,,,,,,,,,,,,,,,,,,,,,,,,,,,,,,,,,,,,,,,,,,,,,277.5870962230838,2.0,"('k', 'space')",277.5875477819354,277.58756166676176,277.6010495724622,277.6010495724622,277.6010495724622,277.6010495724622,277.6010495724622,277.6010495724622,277.6010495724622,277.6010495724622,278.6766174620425,"['space', 'k']","[1.000799585133791, 1.0487946155772079]","[None, None]",,,,,,,,,,,,,,,,,,,,,3003,2010-05-15_02h41.40.367,eb_03,2023.2.3,120.00550589174048,2010-05-15 02h41.55.186347 -0400,
,,,,0,0,0,0,90,0,90,0,278.6928086839325,,,,,,,,,,,,,,,,,,,,,,,,,,,,,,,,,,,,,,,,,,,,,,,,,,,,,,,,,,,,,,,,,,,,,,,,,,,,,,,,,,,,,,,,,,,,,,,,,,,,,,,,,,278.67889215954347,3.0,"('h', 'k')",278.67938959869207,278.67940378538333,278.6928086839325,278.6928086839325,278.6928086839325,278.6928086839325,278.6928086839325,278.6928086839325,278.6928086839325,278.6928086839325,279.7766664211813,"['h', 'k']","[1.0210053341870662, 1.0220080604485702]","[None, None]",,,,,,,,,,,,,,,,,,,,,3003,2010-05-15_02h41.40.367,eb_03,2023.2.3,120.00550589174048,2010-05-15 02h41.55.186347 -0400,
,,,,0,0,0,0,91,0,91,0,279.7928823942784,,,,,,,,,,,,,,,,,,,,,,,,,,,,,,,,,,,,,,,,,,,,,,,,,,,,,,,,,,,,,,,,,,,,,,,,,,,,,,,,,,,,,,,,,,,,,,,,,,,,,,,,,,279.7789435334271,1.0,"('j', 'space')",279.77943735042936,279.7794515371206,279.7928823942784,279.7928823942784,279.7928823942784,279.7928823942784,279.7928823942784,279.7928823942784,279.7928823942784,279.7928823942784,282.9190921856207,"['k', 'space', 'j', 'space']","[1.5609864025027491, 1.5619767531461548, 3.0970151235815138, 3.0979801193170715]","[None, None, None, None]",,,,,,,,,,,,,,,,,,,,,3003,2010-05-15_02h41.40.367,eb_03,2023.2.3,120.00550589174048,2010-05-15 02h41.55.186347 -0400,
,,,,0,0,0,0,92,0,92,0,282.9346908874577,,,,,,,,,,,,,,,,,,,,,,,,,,,,,,,,,,,,,,,,,,,,,,,,,,,,,,,,,,,,,,,,,,,,,,,,,,,,,,,,,,,,,,,,,,,,,,,,,,,,,,,,,,282.92130772167,2.0,"('k', 'space')",282.921756262047,282.92177044873824,282.9346908874577,282.9346908874577,282.9346908874577,282.9346908874577,282.9346908874577,282.9346908874577,282.9346908874577,282.9346908874577,284.5686813153734,"['k', 'space']","[1.5711935641884338, 1.5721742558234837]","[None, None]",,,,,,,,,,,,,,,,,,,,,3003,2010-05-15_02h41.40.367,eb_03,2023.2.3,120.00550589174048,2010-05-15 02h41.55.186347 -0400,
,,,,0,0,0,0,93,0,93,0,284.5848698206537,,,,,,,,,,,,,,,,,,,,,,,,,,,,,,,,,,,,,,,,,,,,,,,,,,,,,,,,,,,,,,,,,,,,,,,,,,,,,,,,,,,,,,,,,,,,,,,,,,,,,,,,,,284.5709391095734,4.0,"('space',)",284.5714413782407,284.5714558667678,284.5848698206537,284.5848698206537,284.5848698206537,284.5848698206537,284.5848698206537,284.5848698206537,284.5848698206537,284.5848698206537,285.4352909536101,['space'],[0.7770020718453452],[None],,,,,,,,,,,,,,,,,,,,,3003,2010-05-15_02h41.40.367,eb_03,2023.2.3,120.00550589174048,2010-05-15 02h41.55.186347 -0400,
,,,,0,0,0,0,94,0,94,0,285.45152654658887,,,,,,,,,,,,,,,,,,,,,,,,,,,,,,,,,,,,,,,,,,,,,,,,,,,,,,,,,,,,,,,,,,,,,,,,,,,,,,,,,,,,,,,,,,,,,,,,,,,,,,,,,,285.43754633306526,2.0,"('k', 'space')",285.4379665001179,285.43798038497334,285.45152654658887,285.45152654658887,285.45152654658887,285.45152654658887,285.45152654658887,285.45152654658887,285.45152654658887,285.45152654658887,286.2687825539033,"['k', 'space']","[0.7343620584579185, 0.735339127946645]","[None, None]",,,,,,,,,,,,,,,,,,,,,3003,2010-05-15_02h41.40.367,eb_03,2023.2.3,120.00550589174048,2010-05-15 02h41.55.186347 -0400,
,,,,0,0,0,0,95,0,95,0,286.28496713520144,,,,,,,,,,,,,,,,,,,,,,,,,,,,,,,,,,,,,,,,,,,,,,,,,,,,,,,,,,,,,,,,,,,,,,,,,,,,,,,,,,,,,,,,,,,,,,,,,,,,,,,,,,286.27100291944225,3.0,"('h', 'k')",286.27148104057414,286.2714943216997,286.28496713520144,286.28496713520144,286.28496713520144,286.28496713520144,286.28496713520144,286.28496713520144,286.28496713520144,286.28496713520144,287.8105831387511,"['h', 'k']","[1.4449182726966683, 1.4459104344132356]","[None, None]",,,,,,,,,,,,,,,,,,,,,3003,2010-05-15_02h41.40.367,eb_03,2023.2.3,120.00550589174048,2010-05-15 02h41.55.186347 -0400,
,,,,0,0,0,0,96,0,96,0,287.82674991126987,,,,,,,,,,,,,,,,,,,,,,,,,,,,,,,,,,,,,,,,,,,,,,,,,,,,,,,,,,,,,,,,,,,,,,,,,,,,,,,,,,,,,,,,,,,,,,,,,,,,,,,,,,287.8127935434459,1.0,"('j', 'space')",287.81329973606626,287.8133136208926,287.82674991126987,287.82674991126987,287.82674991126987,287.82674991126987,287.82674991126987,287.82674991126987,287.82674991126987,287.82674991126987,290.944740184641,"['space', 'k', 'l', 'space', 'j', 'space']","[1.0631623969820794, 1.0871330480731558, 2.0461344631330576, 2.0941313046205323, 3.094189862400526, 3.095135238254443]","[None, None, None, None, None, None]",,,,,,,,,,,,,,,,,,,,,3003,2010-05-15_02h41.40.367,eb_03,2023.2.3,120.00550589174048,2010-05-15 02h41.55.186347 -0400,
,,,,0,0,0,0,97,0,97,0,290.9602902895422,,,,,,,,,,,,,,,,,,,,,,,,,,,,,,,,,,,,,,,,,,,,,,,,,,,,,,,,,,,,,,,,,,,,,,,,,,,,,,,,,,,,,,,,,,,,,,,,,,,,,,,,,,290.94698107556906,2.0,"('k', 'space')",290.94748062765575,290.9474945124821,290.9602902895422,290.9602902895422,290.9602902895422,290.9602902895422,290.9602902895422,290.9602902895422,290.9602902895422,290.9602902895422,292.5859054479224,"['k', 'space']","[1.5445956616604235, 1.54558691784041]","[None, None]",,,,,,,,,,,,,,,,,,,,,3003,2010-05-15_02h41.40.367,eb_03,2023.2.3,120.00550589174048,2010-05-15 02h41.55.186347 -0400,
,,,,0,0,0,0,98,0,98,0,292.60207644625916,,,,,,,,,,,,,,,,,,,,,,,,,,,,,,,,,,,,,,,,,,,,,,,,,,,,,,,,,,,,,,,,,,,,,,,,,,,,,,,,,,,,,,,,,,,,,,,,,,,,,,,,,,292.58815931816935,0.0,"('h', 'l')",292.58860695303883,292.58862053602934,292.60207644625916,292.60207644625916,292.60207644625916,292.60207644625916,292.60207644625916,292.60207644625916,292.60207644625916,292.60207644625916,295.0860675382428,"['h', 'l']","[2.422829921677476, 2.4238193667843007]","[None, None]",,,,,,,,,,,,,,,,,,,,,3003,2010-05-15_02h41.40.367,eb_03,2023.2.3,120.00550589174048,2010-05-15 02h41.55.186347 -0400,
,,,,0,0,0,0,99,0,99,0,295.10217001795536,,,,,,,,,,,,,,,,,,,,,,,,,,,,,,,,,,,,,,,,,,,,,,,,,,,,,,,,,,,,,,,,,,,,,,,,,,,,,,,,,,,,,,,,,,,,,,,,,,,,,,,,,,295.08828548903693,3.0,"('h', 'k')",295.0887385570968,295.08875244192313,295.10217001795536,295.10217001795536,295.10217001795536,295.10217001795536,295.10217001795536,295.10217001795536,295.10217001795536,295.10217001795536,297.1028201902227,"['k', 'h']","[1.9387715184711851, 1.9547481291810982]","[None, None]",,,,,,,,,,,,,,,,,,,,,3003,2010-05-15_02h41.40.367,eb_03,2023.2.3,120.00550589174048,2010-05-15 02h41.55.186347 -0400,
,,,,0,0,0,0,100,0,100,0,297.11899450884084,,,,,,,,,,,,,,,,,,,,,,,,,,,,,,,,,,,,,,,,,,,,,,,,,,,,,,,,,,,,,,,,,,,,,,,,,,,,,,,,,,,,,,,,,,,,,,,,,,,,,,,,,,297.10510032091406,0.0,"('h', 'l')",297.1058742493042,297.105891454441,297.11899450884084,297.11899450884084,297.11899450884084,297.11899450884084,297.11899450884084,297.11899450884084,297.11899450884084,297.11899450884084,298.50291943660704,"['h', 'l']","[1.3219101422000676, 1.322894455952337]","[None, None]",,,,,,,,,,,,,,,,,,,,,3003,2010-05-15_02h41.40.367,eb_03,2023.2.3,120.00550589174048,2010-05-15 02h41.55.186347 -0400,
,,,,0,0,0,0,101,0,101,0,298.51906538187177,,,,,,,,,,,,,,,,,,,,,,,,,,,,,,,,,,,,,,,,,,,,,,,,,,,,,,,,,,,,,,,,,,,,,,,,,,,,,,,,,,,,,,,,,,,,,,,,,,,,,,,,,,298.5051624404441,14.0,"('h', 'space')",298.50565142795676,298.505665614648,298.51906538187177,298.51906538187177,298.51906538187177,298.51906538187177,298.51906538187177,298.51906538187177,298.51906538187177,298.51906538187177,299.91142443876015,"['h', 'space']","[1.3298284197226167, 1.3308094131934922]","[None, None]",,,,,,,,,,,,,,,,,,,,,3003,2010-05-15_02h41.40.367,eb_03,2023.2.3,120.00550589174048,2010-05-15 02h41.55.186347 -0400,
,,,,0,0,0,0,102,0,102,0,299.9274937156006,,,,,,,,,,,,,,,,,,,,,,,,,,,,,,,,,,,,,,,,,,,,,,,,,,,,,,,,,,,,,,,,,,,,,,,,,,,,,,,,,,,,,,,,,,,,,,,,,,,,,,,,,,299.91365868912544,13.0,"('j', 'l')",299.9141138700943,299.91412684941315,299.9274937156006,299.9274937156006,299.9274937156006,299.9274937156006,299.9274937156006,299.9274937156006,299.9274937156006,299.9274937156006,302.5198544024606,"['j', 'l']","[2.529424371139612, 2.530413816246437]","[None, None]",,,,,,,,,,,,,,,,,,,,,3003,2010-05-15_02h41.40.367,eb_03,2023.2.3,120.00550589174048,2010-05-15 02h41.55.186347 -0400,
,,,,0,0,0,0,103,0,103,0,302.53600698828814,,,,,,,,,,,,,,,,,,,,,,,,,,,,,,,,,,,,,,,,,,,,,,,,,,,,,,,,,,,,,,,,,,,,,,,,,,,,,,,,,,,,,,,,,,,,,,,,,,,,,,,,,,302.52211702617933,14.0,"('h', 'space')",302.5225691887317,302.5225833753939,302.53600698828814,302.53600698828814,302.53600698828814,302.53600698828814,302.53600698828814,302.53600698828814,302.53600698828814,302.53600698828814,303.8199547958211,"['h', 'space']","[1.2009288951812778, 1.201907775743166]","[None, None]",,,,,,,,,,,,,,,,,,,,,3003,2010-05-15_02h41.40.367,eb_03,2023.2.3,120.00550589174048,2010-05-15 02h41.55.186347 -0400,
,,,,0,0,0,0,104,0,104,0,303.8360765935504,,,,,,,,,,,,,,,,,,,,,,,,,,,,,,,,,,,,,,,,,,,,,,,,,,,,,,,,,,,,,,,,,,,,,,,,,,,,,,,,,,,,,,,,,,,,,,,,,,,,,,,,,,303.8223324221617,11.0,"('j', 'k')",303.82294969345094,303.82296689855866,303.8360765935504,303.8360765935504,303.8360765935504,303.8360765935504,303.8360765935504,303.8360765935504,303.8360765935504,303.8360765935504,305.0783801715006,"['j', 'k']","[1.1808559575583786, 1.1818420823838096]","[None, None]",,,,,,,,,,,,,,,,,,,,,3003,2010-05-15_02h41.40.367,eb_03,2023.2.3,120.00550589174048,2010-05-15 02h41.55.186347 -0400,
,,,,0,0,0,0,105,0,105,0,305.0945333610289,,,,,,,,,,,,,,,,,,,,,,,,,,,,,,,,,,,,,,,,,,,,,,,,,,,,,,,,,,,,,,,,,,,,,,,,,,,,,,,,,,,,,,,,,,,,,,,,,,,,,,,,,,305.0806120071211,10.0,"('h', 'j')",305.0811070315249,305.08112152005197,305.0945333610289,305.0945333610289,305.0945333610289,305.0945333610289,305.0945333610289,305.0945333610289,305.0945333610289,305.0945333610289,306.3701623438683,"['h', 'j']","[1.193377962015802, 1.194361068395665]","[None, None]",,,,,,,,,,,,,,,,,,,,,3003,2010-05-15_02h41.40.367,eb_03,2023.2.3,120.00550589174048,2010-05-15 02h41.55.186347 -0400,
,,,,0,0,0,0,106,0,106,0,306.3862765954982,,,,,,,,,,,,,,,,,,,,,,,,,,,,,,,,,,,,,,,,,,,,,,,,,,,,,,,,,,,,,,,,,,,,,,,,,,,,,,,,,,,,,,,,,,,,,,,,,,,,,,,,,,306.3723911610432,12.0,"('l', 'space')",306.37292633071775,306.3729402155441,306.3862765954982,306.3862765954982,306.3862765954982,306.3862765954982,306.3862765954982,306.3862765954982,306.3862765954982,306.3862765954982,307.4702282062499,"['l', 'space']","[1.0216304534114897, 1.0226189929817338]","[None, None]",,,,,,,,,,,,,,,,,,,,,3003,2010-05-15_02h41.40.367,eb_03,2023.2.3,120.00550589174048,2010-05-15 02h41.55.186347 -0400,
,,,,0,0,0,0,107,0,107,0,307.4863506076799,,,,,,,,,,,,,,,,,,,,,,,,,,,,,,,,,,,,,,,,,,,,,,,,,,,,,,,,,,,,,,,,,,,,,,,,,,,,,,,,,,,,,,,,,,,,,,,,,,,,,,,,,,307.4725101480144,14.0,"('h', 'space')",307.47296291420935,307.472976195364,307.4863506076799,307.4863506076799,307.4863506076799,307.4863506076799,307.4863506076799,307.4863506076799,307.4863506076799,307.4863506076799,308.7702851340582,"['h', 'space']","[1.2016001965675969, 1.202579077129485]","[None, None]",,,,,,,,,,,,,,,,,,,,,3003,2010-05-15_02h41.40.367,eb_03,2023.2.3,120.00550589174048,2010-05-15 02h41.55.186347 -0400,
,,,,0,0,0,0,108,0,108,0,308.7864485862956,,,,,,,,,,,,,,,,,,,,,,,,,,,,,,,,,,,,,,,,,,,,,,,,,,,,,,,,,,,,,,,,,,,,,,,,,,,,,,,,,,,,,,,,,,,,,,,,,,,,,,,,,,308.77253658956033,13.0,"('j', 'l')",308.772989959456,308.77300354244653,308.7864485862956,308.7864485862956,308.7864485862956,308.7864485862956,308.7864485862956,308.7864485862956,308.7864485862956,308.7864485862956,309.95371099267504,"['j', 'l']","[1.0854898085526656, 1.0864807628677227]","[None, None]",,,,,,,,,,,,,,,,,,,,,3003,2010-05-15_02h41.40.367,eb_03,2023.2.3,120.00550589174048,2010-05-15 02h41.55.186347 -0400,
,,,,0,0,0,0,109,0,109,0,309.9698786707304,,,,,,,,,,,,,,,,,,,,,,,,,,,,,,,,,,,,,,,,,,,,,,,,,,,,,,,,,,,,,,,,,,,,,,,,,,,,,,,,,,,,,,,,,,,,,,,,,,,,,,,,,,309.955964862922,12.0,"('l', 'space')",309.9564164217736,309.95643030659994,309.9698786707304,309.9698786707304,309.9698786707304,309.9698786707304,309.9698786707304,309.9698786707304,309.9698786707304,309.9698786707304,311.16215188315255,"['l', 'space']","[1.110045735433232, 1.1110372934490442]","[None, None]",,,,,,,,,,,,,,,,,,,,,3003,2010-05-15_02h41.40.367,eb_03,2023.2.3,120.00550589174048,2010-05-15 02h41.55.186347 -0400,
,,,,0,0,0,0,110,0,110,0,311.17824349645525,,,,,,,,,,,,,,,,,,,,,,,,,,,,,,,,,,,,,,,,,,,,,,,,,,,,,,,,,,,,,,,,,,,,,,,,,,,,,,,,,,,,,,,,,,,,,,,,,,,,,,,,,,311.1644024331181,14.0,"('h', 'space')",311.1648675749311,311.1648817616224,311.17824349645525,311.17824349645525,311.17824349645525,311.17824349645525,311.17824349645525,311.17824349645525,311.17824349645525,311.17824349645525,313.20390749321086,"['space', 'h']","[1.9656845463032369, 1.9897025869286153]","[None, None]",,,,,,,,,,,,,,,,,,,,,3003,2010-05-15_02h41.40.367,eb_03,2023.2.3,120.00550589174048,2010-05-15 02h41.55.186347 -0400,
,,,,0,0,0,0,111,0,111,0,313.22007969892,,,,,,,,,,,,,,,,,,,,,,,,,,,,,,,,,,,,,,,,,,,,,,,,,,,,,,,,,,,,,,,,,,,,,,,,,,,,,,,,,,,,,,,,,,,,,,,,,,,,,,,,,,313.20614144176943,0.0,"('h', 'l')",313.2066364661441,313.20665035099955,313.22007969892,313.22007969892,313.22007969892,313.22007969892,313.22007969892,313.22007969892,313.22007969892,313.22007969892,315.2791128679819,"['h', 'l']","[1.9958484356175177, 1.9968387862609234]","[None, None]",,,,,,,,,,,,,,,,,,,,,3003,2010-05-15_02h41.40.367,eb_03,2023.2.3,120.00550589174048,2010-05-15 02h41.55.186347 -0400,
,,,,0,0,0,0,112,0,112,0,315.2952171587676,,,,,,,,,,,,,,,,,,,,,,,,,,,,,,,,,,,,,,,,,,,,,,,,,,,,,,,,,,,,,,,,,,,,,,,,,,,,,,,,,,,,,,,,,,,,,,,,,,,,,,,,,,315.2813730769558,14.0,"('h', 'space')",315.2819843113539,315.2820000072534,315.2952171587676,315.2952171587676,315.2952171587676,315.2952171587676,315.2952171587676,315.2952171587676,315.2952171587676,315.2952171587676,316.3875180804753,"['h', 'space']","[1.0327700116613414, 1.0337292723706923]","[None, None]",,,,,,,,,,,,,,,,,,,,,3003,2010-05-15_02h41.40.367,eb_03,2023.2.3,120.00550589174048,2010-05-15 02h41.55.186347 -0400,
,,,,0,0,0,0,113,0,113,0,316.40364078374114,,,,,,,,,,,,,,,,,,,,,,,,,,,,,,,,,,,,,,,,,,,,,,,,,,,,,,,,,,,,,,,,,,,,,,,,,,,,,,,,,,,,,,,,,,,,,,,,,,,,,,,,,,316.38977013964904,13.0,"('j', 'l')",316.390281463624,316.3902974613593,316.40364078374114,316.40364078374114,316.40364078374114,316.40364078374114,316.40364078374114,316.40364078374114,316.40364078374114,316.40364078374114,317.9708940744458,"['j', 'l']","[1.50832244681078, 1.5322927960660309]","[None, None]",,,,,,,,,,,,,,,,,,,,,3003,2010-05-15_02h41.40.367,eb_03,2023.2.3,120.00550589174048,2010-05-15 02h41.55.186347 -0400,
,,,,0,0,0,0,114,0,114,0,317.98710189774283,,,,,,,,,,,,,,,,,,,,,,,,,,,,,,,,,,,,,,,,,,,,,,,,,,,,,,,,,,,,,,,,,,,,,,,,,,,,,,,,,,,,,,,,,,,,,,,,,,,,,,,,,,317.9731102141668,10.0,"('h', 'j')",317.97352917384706,317.97354245497263,317.98710189774283,317.98710189774283,317.98710189774283,317.98710189774283,317.98710189774283,317.98710189774283,317.98710189774283,317.98710189774283,320.74611285107676,"['h', 'j']","[2.6768598429043777, 2.67786075809272]","[None, None]",,,,,,,,,,,,,,,,,,,,,3003,2010-05-15_02h41.40.367,eb_03,2023.2.3,120.00550589174048,2010-05-15 02h41.55.186347 -0400,
,,,,0,0,0,0,115,0,115,0,320.7622714737954,,,,,,,,,,,,,,,,,,,,,,,,,,,,,,,,,,,,,,,,,,,,,,,,,,,,,,,,,,,,,,,,,,,,,,,,,,,,,,,,,,,,,,,,,,,,,,,,,,,,,,,,,,320.74833593322546,12.0,"('l', 'space')",320.7488360889838,320.74885027564596,320.7622714737954,320.7622714737954,320.7622714737954,320.7622714737954,320.7622714737954,320.7622714737954,320.7622714737954,320.7622714737954,321.92953388020396,"['space', 'l']","[1.0926755102991592, 1.1487352126569021]","[None, None]",,,,,,,,,,,,,,,,,,,,,3003,2010-05-15_02h41.40.367,eb_03,2023.2.3,120.00550589174048,2010-05-15 02h41.55.186347 -0400,
,,,,0,0,0,0,116,0,116,0,321.94570970803034,,,,,,,,,,,,,,,,,,,,,,,,,,,,,,,,,,,,,,,,,,,,,,,,,,,,,,,,,,,,,,,,,,,,,,,,,,,,,,,,,,,,,,,,,,,,,,,,,,,,,,,,,,321.931766621361,13.0,"('j', 'l')",321.9322187838843,321.93223266871064,321.94570970803034,321.94570970803034,321.94570970803034,321.94570970803034,321.94570970803034,321.94570970803034,321.94570970803034,321.94570970803034,323.6212815819599,"['j', 'l']","[1.6132703364419285, 1.6142582723405212]","[None, None]",,,,,,,,,,,,,,,,,,,,,3003,2010-05-15_02h41.40.367,eb_03,2023.2.3,120.00550589174048,2010-05-15 02h41.55.186347 -0400,
,,,,0,0,0,0,117,0,117,0,323.6374290364329,,,,,,,,,,,,,,,,,,,,,,,,,,,,,,,,,,,,,,,,,,,,,,,,,,,,,,,,,,,,,,,,,,,,,,,,,,,,,,,,,,,,,,,,,,,,,,,,,,,,,,,,,,323.62348806267255,11.0,"('j', 'k')",323.6240111585648,323.62402504342026,323.6374290364329,323.6374290364329,323.6374290364329,323.6374290364329,323.6374290364329,323.6374290364329,323.6374290364329,323.6374290364329,324.8880665312754,"['j', 'k']","[1.1695437444432173, 1.170533189579146]","[None, None]",,,,,,,,,,,,,,,,,,,,,3003,2010-05-15_02h41.40.367,eb_03,2023.2.3,120.00550589174048,2010-05-15 02h41.55.186347 -0400,
,,,,0,0,0,0,118,0,118,0,324.90416297409683,,,,,,,,,,,,,,,,,,,,,,,,,,,,,,,,,,,,,,,,,,,,,,,,,,,,,,,,,,,,,,,,,,,,,,,,,,,,,,,,,,,,,,,,,,,,,,,,,,,,,,,,,,324.8903143646312,12.0,"('l', 'space')",324.89075928292004,324.8907731677464,324.90416297409683,324.90416297409683,324.90416297409683,324.90416297409683,324.90416297409683,324.90416297409683,324.90416297409683,324.90416297409683,325.93809900971246,"['l', 'space']","[0.9508190239139367, 0.9518093745573424]","[None, None]",,,,,,,,,,,,,,,,,,,,,3003,2010-05-15_02h41.40.367,eb_03,2023.2.3,120.00550589174048,2010-05-15 02h41.55.186347 -0400,
,,,,0,0,0,0,119,0,119,0,325.9542464642145,,,,,,,,,,,,,,,,,,,,,,,,,,,,,,,,,,,,,,,,,,,,,,,,,,,,,,,,,,,,,,,,,,,,,,,,,,,,,,,,,,,,,,,,,,,,,,,,,,,,,,,,,,325.94036042605876,14.0,"('h', 'space')",325.94080715539167,325.9408213420829,325.9542464642145,325.9542464642145,325.9542464642145,325.9542464642145,325.9542464642145,325.9542464642145,325.9542464642145,325.9542464642145,327.1298349395511,"['space', 'h']","[1.116766899038339, 1.1567355917650275]","[None, None]",,,,,,,,,,,,,,,,,,,,,3003,2010-05-15_02h41.40.367,eb_03,2023.2.3,120.00550589174048,2010-05-15 02h41.55.186347 -0400,
,,,,0,0,0,0,120,0,120,0,327.1459935622697,,,,,,,,,,,,,,,,,,,,,,,,,,,,,,,,,,,,,,,,,,,,,,,,,,,,,,,,,,,,,,,,,,,,,,,,,,,,,,,,,,,,,,,,,,,,,,,,,,,,,,,,,,327.13211657945067,12.0,"('l', 'space')",327.1326348458533,327.13264873067965,327.1459935622697,327.1459935622697,327.1459935622697,327.1459935622697,327.1459935622697,327.1459935622697,327.1459935622697,327.1459935622697,328.35493340110406,"['space', 'l']","[1.1489944967906922, 1.1729938230710104]","[None, None]",,,,,,,,,,,,,,,,,,,,,3003,2010-05-15_02h41.40.367,eb_03,2023.2.3,120.00550589174048,2010-05-15 02h41.55.186347 -0400,
,,,,0,0,0,0,121,0,121,0,328.37108206297853,,,,,,,,,,,,,,,,,,,,,,,,,,,,,,,,,,,,,,,,,,,,,,,,,,,,,,,,,,,,,,,,,,,,,,,,,,,,,,,,,,,,,,,,,,,,,,,,,,,,,,,,,,328.3571975340601,14.0,"('h', 'space')",328.3577025193081,328.35771670599934,328.37108206297853,328.37108206297853,328.37108206297853,328.37108206297853,328.37108206297853,328.37108206297853,328.37108206297853,328.37108206297853,330.17170374118723,"['h', 'space']","[1.739914783363929, 1.740907246916322]","[None, None]",,,,,,,,,,,,,,,,,,,,,3003,2010-05-15_02h41.40.367,eb_03,2023.2.3,120.00550589174048,2010-05-15 02h41.55.186347 -0400,
,,,,0,0,0,0,122,0,122,0,330.18789375570486,,,,,,,,,,,,,,,,,,,,,,,,,,,,,,,,,,,,,,,,,,,,,,,,,,,,,,,,,,,,,,,,,,,,,,,,,,,,,,,,,,,,,,,,,,,,,,,,,,,,,,,,,,330.1739277288434,13.0,"('j', 'l')",330.17438140060403,330.1743955872953,330.18789375570486,330.18789375570486,330.18789375570486,330.18789375570486,330.18789375570486,330.18789375570486,330.18789375570486,330.18789375570486,331.89681608756655,"['j', 'l']","[1.6270975149818696, 1.6280863564170431]","[None, None]",,,,,,,,,,,,,,,,,,,,,3003,2010-05-15_02h41.40.367,eb_03,2023.2.3,120.00550589174048,2010-05-15 02h41.55.186347 -0400,
,,,,0,0,0,0,123,0,123,0,331.91301908137393,,,,,,,,,,,,,,,,,,,,,,,,,,,,,,,,,,,,,,,,,,,,,,,,,,,,,,,,,,,,,,,,,,,,,,,,,,,,,,,,,,,,,,,,,,,,,,,,,,,,,,,,,,331.8990992367035,12.0,"('l', 'space')",331.89955562504474,331.8995701135718,331.91301908137393,331.91301908137393,331.91301908137393,331.91301908137393,331.91301908137393,331.91301908137393,331.91301908137393,331.91301908137393,332.905252027791,"['space', 'l']","[0.9179593645385467, 0.9659679779724684]","[None, None]",,,,,,,,,,,,,,,,,,,,,3003,2010-05-15_02h41.40.367,eb_03,2023.2.3,120.00550589174048,2010-05-15 02h41.55.186347 -0400,
,,,,0,0,0,0,124,0,124,0,332.92142091321875,,,,,,,,,,,,,,,,,,,,,,,,,,,,,,,,,,,,,,,,,,,,,,,,,,,,,,,,,,,,,,,,,,,,,,,,,,,,,,,,,,,,,,,,,,,,,,,,,,,,,,,,,,332.9074630361574,13.0,"('j', 'l')",332.90796047533513,332.90798341546906,332.92142091321875,332.92142091321875,332.92142091321875,332.92142091321875,332.92142091321875,332.92142091321875,332.92142091321875,332.92142091321875,334.88039093647967,"['j', 'l']","[1.8775632604956627, 1.8785312746767886]","[None, None]",,,,,,,,,,,,,,,,,,,,,3003,2010-05-15_02h41.40.367,eb_03,2023.2.3,120.00550589174048,2010-05-15 02h41.55.186347 -0400,
,,,,0,0,0,0,125,0,125,0,334.8965371835802,,,,,,,,,,,,,,,,,,,,,,,,,,,,,,,,,,,,,,,,,,,,,,,,,,,,,,,,,,,,,,,,,,,,,,,,,,,,,,,,,,,,,,,,,,,,,,,,,,,,,,,,,,334.882662615506,14.0,"('h', 'space')",334.88315643253736,334.8831727321376,334.8965371835802,334.8965371835802,334.8965371835802,334.8965371835802,334.8965371835802,334.8965371835802,334.8965371835802,334.8965371835802,335.6971621820703,"['space', 'h']","[0.7264757763769012, 0.7824739025381859]","[None, None]",,,,,,,,,,,,,,,,,,,,,3003,2010-05-15_02h41.40.367,eb_03,2023.2.3,120.00550589174048,2010-05-15 02h41.55.186347 -0400,
,,,,0,0,0,0,126,0,126,0,335.71321697041276,,,,,,,,,,,,,,,,,,,,,,,,,,,,,,,,,,,,,,,,,,,,,,,,,,,,,,,,,,,,,,,,,,,,,,,,,,,,,,,,,,,,,,,,,,,,,,,,,,,,,,,,,,335.6993949232274,0.0,"('h', 'l')",335.69986972407787,335.6998836089042,335.71321697041276,335.71321697041276,335.71321697041276,335.71321697041276,335.71321697041276,335.71321697041276,335.71321697041276,335.71321697041276,337.58058785958565,"['h', 'l']","[1.8048170100082643, 1.8368242614960764]","[None, None]",,,,,,,,,,,,,,,,,,,,,3003,2010-05-15_02h41.40.367,eb_03,2023.2.3,120.00550589174048,2010-05-15 02h41.55.186347 -0400,
,,,,0,0,0,0,127,0,127,0,337.5967226366338,,,,,,,,,,,,,,,,,,,,,,,,,,,,,,,,,,,,,,,,,,,,,,,,,,,,,,,,,,,,,,,,,,,,,,,,,,,,,,,,,,,,,,,,,,,,,,,,,,,,,,,,,,337.582840824296,2.0,"('k', 'space')",337.58338172902586,337.58339742489625,337.5967226366338,337.5967226366338,337.5967226366338,337.5967226366338,337.5967226366338,337.5967226366338,337.5967226366338,337.5967226366338,340.072911962925,"['space', 'l', 'space', 'k']","[1.3372939310211223, 1.3692900142923463, 2.385268737882143, 2.4412976521416567]","[None, None, None, None]",,,,,,,,,,,,,,,,,,,,,3003,2010-05-15_02h41.40.367,eb_03,2023.2.3,120.00550589174048,2010-05-15 02h41.55.186347 -0400,
,,,,0,0,0,0,128,0,128,0,340.08855443215,,,,,,,,,,,,,,,,,,,,,,,,,,,,,,,,,,,,,,,,,,,,,,,,,,,,,,,,,,,,,,,,,,,,,,,,,,,,,,,,,,,,,,,,,,,,,,,,,,,,,,,,,,340.0751597962808,0.0,"('h', 'l')",340.0756065256428,340.0756198067684,340.08855443215,340.08855443215,340.08855443215,340.08855443215,340.08855443215,340.08855443215,340.08855443215,340.08855443215,345.2310559595062,"['h', 'l']","[5.061483841680456, 5.0624723812507]","[None, None]",,,,,,,,,,,,,,,,,,,,,3003,2010-05-15_02h41.40.367,eb_03,2023.2.3,120.00550589174048,2010-05-15 02h41.55.186347 -0400,
,,,,0,0,0,0,129,0,129,0,345.2471825867251,,,,,,,,,,,,,,,,,,,,,,,,,,,,,,,,,,,,,,,,,,,,,,,,,,,,,,,,,,,,,,,,,,,,,,,,,,,,,,,,,,,,,,,,,,,,,,,,,,,,,,,,,,345.23328507851693,3.0,"('h', 'k')",345.2337813102931,345.2337954969844,345.2471825867251,345.2471825867251,345.2471825867251,345.2471825867251,345.2471825867251,345.2471825867251,345.2471825867251,345.2471825867251,346.4144938918762,"['k', 'h']","[1.0948098502703942, 1.1188408701855224]","[None, None]",,,,,,,,,,,,,,,,,,,,,3003,2010-05-15_02h41.40.367,eb_03,2023.2.3,120.00550589174048,2010-05-15 02h41.55.186347 -0400,
,,,,0,0,0,0,130,0,130,0,346.430614784098,,,,,,,,,,,,,,,,,,,,,,,,,,,,,,,,,,,,,,,,,,,,,,,,,,,,,,,,,,,,,,,,,,,,,,,,,,,,,,,,,,,,,,,,,,,,,,,,,,,,,,,,,,346.41676164694945,1.0,"('j', 'space')",346.41722859986476,346.41724188099033,346.430614784098,346.430614784098,346.430614784098,346.430614784098,346.430614784098,346.430614784098,346.430614784098,346.430614784098,354.465555658855,"['space', 'k', 'space', 'j']","[1.6474258127564099, 1.6634247599286027, 7.990400148759363, 8.014399776875507]","[None, None, None, None]",,,,,,,,,,,,,,,,,,,,,3003,2010-05-15_02h41.40.367,eb_03,2023.2.3,120.00550589174048,2010-05-15 02h41.55.186347 -0400,
,,,,0,0,0,0,131,0,131,0,354.481170962099,,,,,,,,,,,,,,,,,,,,,,,,,,,,,,,,,,,,,,,,,,,,,,,,,,,,,,,,,,,,,,,,,,,,,,,,,,,,,,,,,,,,,,,,,,,,,,,,,,,,,,,,,,354.4677772317664,2.0,"('k', 'space')",354.4682942907966,354.4683108922327,354.481170962099,354.481170962099,354.481170962099,354.481170962099,354.481170962099,354.481170962099,354.481170962099,354.481170962099,356.44851051986916,"['k', 'space']","[1.9078813921660185, 1.9088729501818307]","[None, None]",,,,,,,,,,,,,,,,,,,,,3003,2010-05-15_02h41.40.367,eb_03,2023.2.3,120.00550589174048,2010-05-15 02h41.55.186347 -0400,
,,,,0,0,0,0,132,0,132,0,356.4646193383087,,,,,,,,,,,,,,,,,,,,,,,,,,,,,,,,,,,,,,,,,,,,,,,,,,,,,,,,,,,,,,,,,,,,,,,,,,,,,,,,,,,,,,,,,,,,,,,,,,,,,,,,,,356.4507815952238,4.0,"('space',)",356.4512518684205,356.45126605508267,356.4646193383087,356.4646193383087,356.4646193383087,356.4646193383087,356.4646193383087,356.4646193383087,356.4646193383087,356.4646193383087,357.4652351003606,['space'],[0.940451281145215],[None],,,,,,,,,,,,,,,,,,,,,3003,2010-05-15_02h41.40.367,eb_03,2023.2.3,120.00550589174048,2010-05-15 02h41.55.186347 -0400,
,,,,0,0,0,0,133,0,133,0,357.48135116306366,,,,,,,,,,,,,,,,,,,,,,,,,,,,,,,,,,,,,,,,,,,,,,,,,,,,,,,,,,,,,,,,,,,,,,,,,,,,,,,,,,,,,,,,,,,,,,,,,,,,,,,,,,357.4674726710364,3.0,"('h', 'k')",357.46795713089523,357.4679716194223,357.48135116306366,357.48135116306366,357.48135116306366,357.48135116306366,357.48135116306366,357.48135116306366,357.48135116306366,357.48135116306366,359.13196746844915,"['h', 'k']","[1.587720436771633, 1.5887132021889556]","[None, None]",,,,,,,,,,,,,,,,,,,,,3003,2010-05-15_02h41.40.367,eb_03,2023.2.3,120.00550589174048,2010-05-15 02h41.55.186347 -0400,
,,,,0,0,0,0,134,0,134,0,359.1481743862387,,,,,,,,,,,,,,,,,,,,,,,,,,,,,,,,,,,,,,,,,,,,,,,,,,,,,,,,,,,,,,,,,,,,,,,,,,,,,,,,,,,,,,,,,,,,,,,,,,,,,,,,,,359.1342270737223,0.0,"('h', 'l')",359.1347248147358,359.134739001398,359.1481743862387,359.1481743862387,359.1481743862387,359.1481743862387,359.1481743862387,359.1481743862387,359.1481743862387,359.1481743862387,360.1487171020126,"['l', 'h']","[0.9288960835256148, 0.9608852243691217]","[None, None]",,,,,,,,,,,,,,,,,,,,,3003,2010-05-15_02h41.40.367,eb_03,2023.2.3,120.00550589174048,2010-05-15 02h41.55.186347 -0400,
,,,,0,0,0,0,135,0,135,0,360.1648965519853,,,,,,,,,,,,,,,,,,,,,,,,,,,,,,,,,,,,,,,,,,,,,,,,,,,,,,,,,,,,,,,,,,,,,,,,,,,,,,,,,,,,,,,,,,,,,,,,,,,,,,,,,,360.1509739907051,3.0,"('h', 'k')",360.15144486757345,360.1514587523998,360.1648965519853,360.1648965519853,360.1648965519853,360.1648965519853,360.1648965519853,360.1648965519853,360.1648965519853,360.1648965519853,361.0737713132112,"['k', 'h']","[0.8481485483644065, 0.8801449334714562]","[None, None]",,,,,,,,,,,,,,,,,,,,,3003,2010-05-15_02h41.40.367,eb_03,2023.2.3,120.00550589174048,2010-05-15 02h41.55.186347 -0400,
,,,,0,0,0,0,136,0,136,0,361.089956800075,,,,,,,,,,,,,,,,,,,,,,,,,,,,,,,,,,,,,,,,,,,,,,,,,,,,,,,,,,,,,,,,,,,,,,,,,,,,,,,,,,,,,,,,,,,,,,,,,,,,,,,,,,361.0759823216067,2.0,"('k', 'space')",361.0764860994823,361.0764996824728,361.089956800075,361.089956800075,361.089956800075,361.089956800075,361.089956800075,361.089956800075,361.089956800075,361.089956800075,362.223840073304,"['space', 'k']","[1.0751305174198933, 1.0911113539186772]","[None, None]",,,,,,,,,,,,,,,,,,,,,3003,2010-05-15_02h41.40.367,eb_03,2023.2.3,120.00550589174048,2010-05-15 02h41.55.186347 -0400,
,,,,0,0,0,0,137,0,137,0,362.2400328044314,,,,,,,,,,,,,,,,,,,,,,,,,,,,,,,,,,,,,,,,,,,,,,,,,,,,,,,,,,,,,,,,,,,,,,,,,,,,,,,,,,,,,,,,,,,,,,,,,,,,,,,,,,362.22608277533436,1.0,"('j', 'space')",362.2265826292278,362.2265965140541,362.2400328044314,362.2400328044314,362.2400328044314,362.2400328044314,362.2400328044314,362.2400328044314,362.2400328044314,362.2400328044314,363.92398115526885,"['j', 'space']","[1.621044332452584, 1.6220292499056086]","[None, None]",,,,,,,,,,,,,,,,,,,,,3003,2010-05-15_02h41.40.367,eb_03,2023.2.3,120.00550589174048,2010-05-15 02h41.55.186347 -0400,
,,,,0,0,0,0,138,0,138,0,363.9401464185503,,,,,,,,,,,,,,,,,,,,,,,,,,,,,,,,,,,,,,,,,,,,,,,,,,,,,,,,,,,,,,,,,,,,,,,,,,,,,,,,,,,,,,,,,,,,,,,,,,,,,,,,,,363.9262271775806,2.0,"('k', 'space')",363.9267034876393,363.92671767430147,363.9401464185503,363.9401464185503,363.9401464185503,363.9401464185503,363.9401464185503,363.9401464185503,363.9401464185503,363.9401464185503,365.21570144957514,"['k', 'space']","[1.1929475322249345, 1.19393335521454]","[None, None]",,,,,,,,,,,,,,,,,,,,,3003,2010-05-15_02h41.40.367,eb_03,2023.2.3,120.00550589174048,2010-05-15 02h41.55.186347 -0400,
,,,,0,0,0,0,139,0,139,0,365.23188572906656,,,,,,,,,,,,,,,,,,,,,,,,,,,,,,,,,,,,,,,,,,,,,,,,,,,,,,,,,,,,,,,,,,,,,,,,,,,,,,,,,,,,,,,,,,,,,,,,,,,,,,,,,,365.2179770526127,1.0,"('j', 'space')",365.2184204616642,365.2184358556988,365.23188572906656,365.23188572906656,365.23188572906656,365.23188572906656,365.23188572906656,365.23188572906656,365.23188572906656,365.23188572906656,366.1241098616156,"['j', 'space']","[0.8292005838884506, 0.8301897271594498]","[None, None]",,,,,,,,,,,,,,,,,,,,,3003,2010-05-15_02h41.40.367,eb_03,2023.2.3,120.00550589174048,2010-05-15 02h41.55.186347 -0400,
,,,,0,0,0,0,140,0,140,0,366.14026184377144,,,,,,,,,,,,,,,,,,,,,,,,,,,,,,,,,,,,,,,,,,,,,,,,,,,,,,,,,,,,,,,,,,,,,,,,,,,,,,,,,,,,,,,,,,,,,,,,,,,,,,,,,,366.1263703724253,2.0,"('k', 'space')",366.12687747061136,366.1268913554377,366.14026184377144,366.14026184377144,366.14026184377144,366.14026184377144,366.14026184377144,366.14026184377144,366.14026184377144,366.14026184377144,366.89084047899814,"['k', 'space']","[0.6888472813589033, 0.6898222379386425]","[None, None]",,,,,,,,,,,,,,,,,,,,,3003,2010-05-15_02h41.40.367,eb_03,2023.2.3,120.00550589174048,2010-05-15 02h41.55.186347 -0400,
,,,,0,0,0,0,141,0,141,0,366.90705071706907,,,,,,,,,,,,,,,,,,,,,,,,,,,,,,,,,,,,,,,,,,,,,,,,,,,,,,,,,,,,,,,,,,,,,,,,,,,,,,,,,,,,,,,,,,,,,,,,,,,,,,,,,,366.89313358897925,4.0,"('space',)",366.8936271041457,366.89364098900114,366.90705071706907,366.90705071706907,366.90705071706907,366.90705071706907,366.90705071706907,366.90705071706907,366.90705071706907,366.90705071706907,367.7992027088767,['space'],[0.8170631288958248],[None],,,,,,,,,,,,,,,,,,,,,3003,2010-05-15_02h41.40.367,eb_03,2023.2.3,120.00550589174048,2010-05-15 02h41.55.186347 -0400,
,,,,0,0,0,0,142,0,142,0,367.81537521642167,,,,,,,,,,,,,,,,,,,,,,,,,,,,,,,,,,,,,,,,,,,,,,,,,,,,,,,,,,,,,,,,,,,,,,,,,,,,,,,,,,,,,,,,,,,,,,,,,,,,,,,,,,367.80146835104097,5.0,"('j',)",367.80195311273565,367.801966997562,367.81537521642167,367.81537521642167,367.81537521642167,367.81537521642167,367.81537521642167,367.81537521642167,367.81537521642167,367.81537521642167,369.89098928816384,['j'],[2.012723938183626],[None],,,,,,,,,,,,,,,,,,,,,3003,2010-05-15_02h41.40.367,eb_03,2023.2.3,120.00550589174048,2010-05-15 02h41.55.186347 -0400,
,,,,0,0,0,0,143,0,143,0,369.9072336346144,,,,,,,,,,,,,,,,,,,,,,,,,,,,,,,,,,,,,,,,,,,,,,,,,,,,,,,,,,,,,,,,,,,,,,,,,,,,,,,,,,,,,,,,,,,,,,,,,,,,,,,,,,369.8932793796994,7.0,"('h',)",369.89377198935836,369.8937861760205,369.9072336346144,369.9072336346144,369.9072336346144,369.9072336346144,369.9072336346144,369.9072336346144,369.9072336346144,369.9072336346144,370.6827542553947,['h'],[0.7128704533388373],[None],,,,,,,,,,,,,,,,,,,,,3003,2010-05-15_02h41.40.367,eb_03,2023.2.3,120.00550589174048,2010-05-15 02h41.55.186347 -0400,
,,,,0,0,0,0,144,0,144,0,370.69896147502004,,,,,,,,,,,,,,,,,,,,,,,,,,,,,,,,,,,,,,,,,,,,,,,,,,,,,,,,,,,,,,,,,,,,,,,,,,,,,,,,,,,,,,,,,,,,,,,,,,,,,,,,,,370.6850081256416,5.0,"('j',)",370.6854841338645,370.685497716855,370.69896147502004,370.69896147502004,370.69896147502004,370.69896147502004,370.69896147502004,370.69896147502004,370.69896147502004,370.69896147502004,371.37446815060684,['j'],[0.6011506902577821],[None],,,,,,,,,,,,,,,,,,,,,3003,2010-05-15_02h41.40.367,eb_03,2023.2.3,120.00550589174048,2010-05-15 02h41.55.186347 -0400,
,,,,0,0,0,0,145,0,145,0,371.39067355918814,,,,,,,,,,,,,,,,,,,,,,,,,,,,,,,,,,,,,,,,,,,,,,,,,,,,,,,,,,,,,,,,,,,,,,,,,,,,,,,,,,,,,,,,,,,,,,,,,,,,,,,,,,371.3767187005724,6.0,"('l',)",371.377172372333,371.37718655899516,371.39067355918814,371.39067355918814,371.39067355918814,371.39067355918814,371.39067355918814,371.39067355918814,371.39067355918814,371.39067355918814,372.2245322019444,['l'],[0.7734351795515977],[None],,,,,,,,,,,,,,,,,,,,,3003,2010-05-15_02h41.40.367,eb_03,2023.2.3,120.00550589174048,2010-05-15 02h41.55.186347 -0400,
,,,,0,0,0,0,146,0,146,0,372.2406715066463,,,,,,,,,,,,,,,,,,,,,,,,,,,,,,,,,,,,,,,,,,,,,,,,,,,,,,,,,,,,,,,,,,,,,,,,,,,,,,,,,,,,,,,,,,,,,,,,,,,,,,,,,,372.22674803982954,9.0,"('k', 'l')",372.2272412531602,372.2272563453589,372.2406715066463,372.2406715066463,372.2406715066463,372.2406715066463,372.2406715066463,372.2406715066463,372.2406715066463,372.2406715066463,373.1913036890328,"['k', 'l']","[0.8754790266684722, 0.915437154850224]","[None, None]",,,,,,,,,,,,,,,,,,,,,3003,2010-05-15_02h41.40.367,eb_03,2023.2.3,120.00550589174048,2010-05-15 02h41.55.186347 -0400,
,,,,0,0,0,0,147,0,147,0,373.2073977171094,,,,,,,,,,,,,,,,,,,,,,,,,,,,,,,,,,,,,,,,,,,,,,,,,,,,,,,,,,,,,,,,,,,,,,,,,,,,,,,,,,,,,,,,,,,,,,,,,,,,,,,,,,373.1935222434986,8.0,"('k',)",373.19401696606656,373.19403960436466,373.2073977171094,373.2073977171094,373.2073977171094,373.2073977171094,373.2073977171094,373.2073977171094,373.2073977171094,373.2073977171094,373.9829159231158,['k'],[0.7166646342666354],[None],,,,,,,,,,,,,,,,,,,,,3003,2010-05-15_02h41.40.367,eb_03,2023.2.3,120.00550589174048,2010-05-15 02h41.55.186347 -0400,
,,,,0,0,0,0,148,0,148,0,373.99915030872216,,,,,,,,,,,,,,,,,,,,,,,,,,,,,,,,,,,,,,,,,,,,,,,,,,,,,,,,,,,,,,,,,,,,,,,,,,,,,,,,,,,,,,,,,,,,,,,,,,,,,,,,,,373.98512723334716,6.0,"('l',)",373.9855597760179,373.98557396268006,373.99915030872216,373.99915030872216,373.99915030872216,373.99915030872216,373.99915030872216,373.99915030872216,373.99915030872216,373.99915030872216,374.70796458038967,['l'],[0.6369343138940167],[None],,,,,,,,,,,,,,,,,,,,,3003,2010-05-15_02h41.40.367,eb_03,2023.2.3,120.00550589174048,2010-05-15 02h41.55.186347 -0400,
,,,,0,0,0,0,149,0,149,0,374.72416636682465,,,,,,,,,,,,,,,,,,,,,,,,,,,,,,,,,,,,,,,,,,,,,,,,,,,,,,,,,,,,,,,,,,,,,,,,,,,,,,,,,,,,,,,,,,,,,,,,,,,,,,,,,,374.71018736070255,5.0,"('j',)",374.7106512951432,374.71066548183444,374.72416636682465,374.72416636682465,374.72416636682465,374.72416636682465,374.72416636682465,374.72416636682465,374.72416636682465,374.72416636682465,376.0497342564049,['j'],[1.2639337294967845],[None],,,,,,,,,,,,,,,,,,,,,3003,2010-05-15_02h41.40.367,eb_03,2023.2.3,120.00550589174048,2010-05-15 02h41.55.186347 -0400,
,,,,0,0,0,0,150,0,150,0,376.065971358621,,,,,,,,,,,,,,,,,,,,,,,,,,,,,,,,,,,,,,,,,,,,,,,,,,,,,,,,,,,,,,,,,,,,,,,,,,,,,,,,,,,,,,,,,,,,,,,,,,,,,,,,,,376.05195341457147,4.0,"('space',)",376.0524931119289,376.05250699675526,376.065971358621,376.065971358621,376.065971358621,376.065971358621,376.065971358621,376.065971358621,376.065971358621,376.065971358621,377.2498590387986,['space'],[1.1221457617357373],[None],,,,,,,,,,,,,,,,,,,,,3003,2010-05-15_02h41.40.367,eb_03,2023.2.3,120.00550589174048,2010-05-15 02h41.55.186347 -0400,
,,,,0,0,0,0,151,0,151,0,377.2660508643603,,,,,,,,,,,,,,,,,,,,,,,,,,,,,,,,,,,,,,,,,,,,,,,,,,,,,,,,,,,,,,,,,,,,,,,,,,,,,,,,,,,,,,,,,,,,,,,,,,,,,,,,,,377.25208695043693,3.0,"('h', 'k')",377.2525973688753,377.25261155556655,377.2660508643603,377.2660508643603,377.2660508643603,377.2660508643603,377.2660508643603,377.2660508643603,377.2660508643603,377.2660508643603,378.916668678954,"['h', 'k']","[1.5620751543610822, 1.5630633920955006]","[None, None]",,,,,,,,,,,,,,,,,,,,,3003,2010-05-15_02h41.40.367,eb_03,2023.2.3,120.00550589174048,2010-05-15 02h41.55.186347 -0400,
,,,,0,0,0,0,152,0,152,0,378.93281341684633,,,,,,,,,,,,,,,,,,,,,,,,,,,,,,,,,,,,,,,,,,,,,,,,,,,,,,,,,,,,,,,,,,,,,,,,,,,,,,,,,,,,,,,,,,,,,,,,,,,,,,,,,,378.9189515262551,4.0,"('space',)",378.9194444377499,378.91945832257625,378.93281341684633,378.93281341684633,378.93281341684633,378.93281341684633,378.93281341684633,378.93281341684633,378.93281341684633,378.93281341684633,379.82498442483484,['space'],[0.8313065504771657],[None],,,,,,,,,,,,,,,,,,,,,3003,2010-05-15_02h41.40.367,eb_03,2023.2.3,120.00550589174048,2010-05-15 02h41.55.186347 -0400,
,,,,0,0,0,0,153,0,153,0,379.8412369210855,,,,,,,,,,,,,,,,,,,,,,,,,,,,,,,,,,,,,,,,,,,,,,,,,,,,,,,,,,,,,,,,,,,,,,,,,,,,,,,,,,,,,,,,,,,,,,,,,,,,,,,,,,379.8272225991823,3.0,"('h', 'k')",379.8277058516687,379.82771973649506,379.8412369210855,379.8412369210855,379.8412369210855,379.8412369210855,379.8412369210855,379.8412369210855,379.8412369210855,379.8412369210855,380.5584388379357,"['h', 'k']","[0.6348609464184847, 0.635840430681128]","[None, None]",,,,,,,,,,,,,,,,,,,,,3003,2010-05-15_02h41.40.367,eb_03,2023.2.3,120.00550589174048,2010-05-15 02h41.55.186347 -0400,
,,,,0,0,0,0,154,0,154,0,380.57455822092015,,,,,,,,,,,,,,,,,,,,,,,,,,,,,,,,,,,,,,,,,,,,,,,,,,,,,,,,,,,,,,,,,,,,,,,,,,,,,,,,,,,,,,,,,,,,,,,,,,,,,,,,,,380.5607129317359,4.0,"('space',)",380.56120161741273,380.5612158040749,380.57455822092015,380.57455822092015,380.57455822092015,380.57455822092015,380.57455822092015,380.57455822092015,380.57455822092015,380.57455822092015,381.15012067728094,['space'],[0.5015822670247871],[None],,,,,,,,,,,,,,,,,,,,,3003,2010-05-15_02h41.40.367,eb_03,2023.2.3,120.00550589174048,2010-05-15 02h41.55.186347 -0400,
,,,,0,0,0,0,155,0,155,0,381.166309786262,,,,,,,,,,,,,,,,,,,,,,,,,,,,,,,,,,,,,,,,,,,,,,,,,,,,,,,,,,,,,,,,,,,,,,,,,,,,,,,,,,,,,,,,,,,,,,,,,,,,,,,,,,381.1523736420204,2.0,"('k', 'space')",381.1528285211243,381.1528427078156,381.166309786262,381.166309786262,381.166309786262,381.166309786262,381.166309786262,381.166309786262,381.166309786262,381.166309786262,383.73420359025477,"['k', 'h', 'space', 'k']","[0.8938202844001353, 0.9089520333509427, 2.493823061377043, 2.540825628268067]","[None, None, None, None]",,,,,,,,,,,,,,,,,,,,,3003,2010-05-15_02h41.40.367,eb_03,2023.2.3,120.00550589174048,2010-05-15 02h41.55.186347 -0400,
,,,,0,0,0,0,156,0,156,0,383.74978297407506,,,,,,,,,,,,,,,,,,,,,,,,,,,,,,,,,,,,,,,,,,,,,,,,,,,,,,,,,,,,,,,,,,,,,,,,,,,,,,,,,,,,,,,,,,,,,,,,,,,,,,,,,,383.7364453867485,1.0,"('j', 'space')",383.7370282477932,383.7370430381561,383.74978297407506,383.74978297407506,383.74978297407506,383.74978297407506,383.74978297407506,383.74978297407506,383.74978297407506,383.74978297407506,393.1764541643788,"['k', 'space', 'k', 'space', 'space']","[2.7893613823107444, 2.7903505255817436, 6.333364825724857, 6.3343551763973664, 9.405414419947192]","[None, None, None, None, None]",,,,,,,,,,,,,,,,,,,,,3003,2010-05-15_02h41.40.367,eb_03,2023.2.3,120.00550589174048,2010-05-15 02h41.55.186347 -0400,
,,,,0,0,0,0,157,0,157,0,393.2004024789785,,,,,,,,,,,,,,,,,,,,,,,,,,,,,,,,,,,,,,,,,,,,,,,,,,,,,,,,,,,,,,,,,,,,,,,,,,,,,,,,,,,,,,,,,,,,,,,,,,,,,,,,,,393.178703205107,3.0,"('h', 'k')",393.17922448995523,393.1792386766174,393.2004024789785,393.2004024789785,393.2004024789785,393.2004024789785,393.2004024789785,393.2004024789785,393.2004024789785,393.2004024789785,395.85945925224223,"['h', 'k']","[2.5707721897633746, 2.5717607293627225]","[None, None]",,,,,,,,,,,,,,,,,,,,,3003,2010-05-15_02h41.40.367,eb_03,2023.2.3,120.00550589174048,2010-05-15 02h41.55.186347 -0400,
,,,,0,0,0,0,158,0,158,0,395.8755789370625,,,,,,,,,,,,,,,,,,,,,,,,,,,,,,,,,,,,,,,,,,,,,,,,,,,,,,,,,,,,,,,,,,,,,,,,,,,,,,,,,,,,,,,,,,,,,,,,,,,,,,,,,,395.8616932007717,2.0,"('k', 'space')",395.86222716307384,395.8622413497651,395.8755789370625,395.8755789370625,395.8755789370625,395.8755789370625,395.8755789370625,395.8755789370625,395.8755789370625,395.8755789370625,396.9761799691478,"['space', 'k']","[1.0395612031279597, 1.0635535870096646]","[None, None]",,,,,,,,,,,,,,,,,,,,,3003,2010-05-15_02h41.40.367,eb_03,2023.2.3,120.00550589174048,2010-05-15 02h41.55.186347 -0400,
