practice_loop.thisRepN,practice_loop.thisTrialN,practice_loop.thisN,practice_loop.thisIndex,blocks.thisRepN,blocks.thisTrialN,blocks.thisN,blocks.thisIndex,trials.thisRepN,trials.thisTrialN,trials.thisN,trials.thisIndex,thisRow.t,notes,path,resp order,Instructions_0.started,welcome_text.started,instructions_0_keypress.started,Instructions_0.stopped,instructions_0_keypress.keys,instructions_0_keypress.rt,instructions_0_keypress.duration,consent_0.started,consent_image_0.started,consent0_key_resp.started,consent0_text.started,consent_0.stopped,consent0_key_resp.keys,consent0_key_resp.rt,consent0_key_resp.duration,consent_1.started,consent_image_1.started,consent1_key_resp.started,consent1_text.started,consent_1.stopped,consent1_key_resp.keys,consent1_key_resp.rt,consent1_key_resp.duration,consent_2.started,consent2_text.started,consent_image_2.started,consent2_key_resp.started,consent_2.stopped,consent2_key_resp.keys,consent2_key_resp.rt,consent2_key_resp.duration,consent_3.started,agree_button.started,disagree_button.started,consent_image_3.started,consent_3.stopped,agree_button.numClicks,agree_button.timesOn,agree_button.timesOff,disagree_button.numClicks,disagree_button.timesOn,disagree_button.timesOff,demographics.started,age_slider.started,Gender.started,Handedness.started,age_text.started,handedness_text.started,gender_text.started,demographics.stopped,age_slider.response,age_slider.rt,Gender.text,Handedness.response,Handedness.rt,instructions_1.started,instructions_text1.started,instructions1_key_resp.started,instr1_cnt_text.started,instructions_1.stopped,instructions1_key_resp.keys,instructions1_key_resp.rt,instructions1_key_resp.duration,instructions_2.started,instructions_text2.started,key_stim_association.started,instr2_cnt_text.started,instructions2_key_resp.started,instructions_2.stopped,instructions2_key_resp.keys,instructions2_key_resp.rt,instructions2_key_resp.duration,instructions_3.started,instructions_text3.started,examplestim_image_2.started,instructions3_key_resp.started,instr3_cnt_text.started,instructions_3.stopped,instructions3_key_resp.keys,instructions3_key_resp.rt,instructions3_key_resp.duration,instructions_4.started,instructions_text4.started,handplacement_image.started,instructions4_key_resp.started,instr4_cnt_text.started,instructions_4.stopped,instructions4_key_resp.keys,instructions4_key_resp.rt,instructions4_key_resp.duration,instructions_5.started,instructions_text5.started,image.started,instructions5_key_resp.started,instr5_cnt_text.started,instructions_5.stopped,instructions5_key_resp.keys,instructions5_key_resp.rt,instructions5_key_resp.duration,begin_exp_timer.started,text_countdown.started,text_countdown.stopped,begin_exp_timer.stopped,stim_resp_selector.started,node idx,stim,stim_resp_selector.stopped,stim_display.started,space.started,h.started,j.started,k.started,l.started,key_resp.started,text.started,accuracy_text.started,stim_display.stopped,key_resp.keys,key_resp.rt,key_resp.duration,break_2.started,break_text.started,break_key_resp.started,break_2.stopped,break_key_resp.keys,break_key_resp.rt,break_key_resp.duration,debriefing.started,graph.started,debrief_text.started,debriefing_title.started,demo_scr_adv.started,demo_scr_adv_keypress.started,debriefing.stopped,demo_scr_adv_keypress.keys,demo_scr_adv_keypress.rt,demo_scr_adv_keypress.duration,done.started,text_countdown_2.started,done.stopped,participant,date,expName,psychopyVersion,frameRate,expStart,
,,,,,,,,,,,,,,[ 0. 13.  0. ...  4. 14. 10.],"[('h', 'space'), ('j', 'k'), ('h', 'j'), ('k',), ('h', 'k'), ('h',), ('space',), ('k', 'space'), ('j',), ('l', 'space'), ('l',), ('j', 'l'), ('k', 'l'), ('h', 'l'), ('j', 'space')]",0.015536007354967296,0.03191265548230149,0.03191265548230149,10.531598886678694,return,10.482926842523739,None,,,,,,,,,,,,,,,,,,,,,,,,,,,,,,,,,,,,,,,,,,,,,,,,,,,,,,,,,,,,,,,,,,,,,,,,,,,,,,,,,,,,,,,,,,,,,,,,,,,,,,,,,,,,,,,,,,,,,,,,,,,,,,,,,,,,,,3004,2023-11-07_12h20.27.420,eb_03,2023.2.3,60.01273455471675,2023-11-07 12h20.41.927979 -0500,
,,,,,,,,,,,,,,,,,,,,,,,10.531622732494725,10.547792314348044,10.547792314348044,10.547792314348044,13.281378312793095,space,2.719020425603958,None,,,,,,,,,,,,,,,,,,,,,,,,,,,,,,,,,,,,,,,,,,,,,,,,,,,,,,,,,,,,,,,,,,,,,,,,,,,,,,,,,,,,,,,,,,,,,,,,,,,,,,,,,,,,,,,,,,,,,,,,,,,,,,3004,2023-11-07_12h20.27.420,eb_03,2023.2.3,60.01273455471675,2023-11-07 12h20.41.927979 -0500,
,,,,,,,,,,,,,,,,,,,,,,,,,,,,,,,13.281403366010636,13.29756238326081,13.29756238326081,13.29756238326081,13.831351765460568,space,0.5212319899874274,None,,,,,,,,,,,,,,,,,,,,,,,,,,,,,,,,,,,,,,,,,,,,,,,,,,,,,,,,,,,,,,,,,,,,,,,,,,,,,,,,,,,,,,,,,,,,,,,,,,,,,,,,,,,,,,,,,,,,,,3004,2023-11-07_12h20.27.420,eb_03,2023.2.3,60.01273455471675,2023-11-07 12h20.41.927979 -0500,
,,,,,,,,,,,,,,,,,,,,,,,,,,,,,,,,,,,,,,,13.831375611276599,13.847521347313887,13.847521347313887,13.847521347313887,14.248026154353283,space,0.387284259457374,None,,,,,,,,,,,,,,,,,,,,,,,,,,,,,,,,,,,,,,,,,,,,,,,,,,,,,,,,,,,,,,,,,,,,,,,,,,,,,,,,,,,,,,,,,,,,,,,,,,,,,,,,,,,,,,3004,2023-11-07_12h20.27.420,eb_03,2023.2.3,60.01273455471675,2023-11-07 12h20.41.927979 -0500,
,,,,,,,,,,,,,,,,,,,,,,,,,,,,,,,,,,,,,,,,,,,,,,,14.248050905705895,14.264152270392515,14.264152270392515,14.264152270392515,16.164444427005947,1,[1.913713431742508],[1.9137191668269224],0,,,16.16452864202438,16.213680017419392,16.213680017419392,16.213680017419392,16.213680017419392,16.213680017419392,16.213680017419392,32.703444272774504,18-20,3.17983102062135,female,Right Handed,16.49852503009606,32.70347264627344,32.71276829193812,34.7126406111347,34.7126406111347,36.07960279498366,space,1.352318734745495,None,,,,,,,,,,,,,,,,,,,,,,,,,,,,,,,,,,,,,,,,,,,,,,,,,,,,,,,,,,,,,,,,,,,,,,,,,,,,,,3004,2023-11-07_12h20.27.420,eb_03,2023.2.3,60.01273455471675,2023-11-07 12h20.41.927979 -0500,
,,,,,,,,,,,,,,,,,,,,,,,,,,,,,,,,,,,,,,,,,,,,,,,,,,,,,,,,,,,,,,,,,,,,,,,,,,,,,,,36.07962875373778,36.09586564719211,36.09586564719211,39.07897284263163,39.07897284263163,57.01148372644093,space,17.921207359351683,None,,,,,,,,,,,,,,,,,,,,,,,,,,,,,,,,,,,,,,,,,,,,,,,,,,,,,,,,,,,,,,,,,,,,,3004,2023-11-07_12h20.27.420,eb_03,2023.2.3,60.01273455471675,2023-11-07 12h20.41.927979 -0500,
,,,,,,,,,,,,,,,,,,,,,,,,,,,,,,,,,,,,,,,,,,,,,,,,,,,,,,,,,,,,,,,,,,,,,,,,,,,,,,,,,,,,,,,,57.011513307341374,57.02763368829619,57.02763368829619,60.010701945604524,60.010701945604524,80.109860731347,k,20.091652784263715,None,,,,,,,,,,,,,,,,,,,,,,,,,,,,,,,,,,,,,,,,,,,,,,,,,,,,,,,,,,,,3004,2023-11-07_12h20.27.420,eb_03,2023.2.3,60.01273455471675,2023-11-07 12h20.41.927979 -0500,
,,,,,,,,,,,,,,,,,,,,,,,,,,,,,,,,,,,,,,,,,,,,,,,,,,,,,,,,,,,,,,,,,,,,,,,,,,,,,,,,,,,,,,,,,,,,,,,,,80.1098921233206,80.12590565084247,80.12590565084247,83.10900771489833,83.10900771489833,86.17595320666442,space,3.0653915891889483,None,,,,,,,,,,,,,,,,,,,,,,,,,,,,,,,,,,,,,,,,,,,,,,,,,,,3004,2023-11-07_12h20.27.420,eb_03,2023.2.3,60.01273455471675,2023-11-07 12h20.41.927979 -0500,
,,,,,,,,,,,,,,,,,,,,,,,,,,,,,,,,,,,,,,,,,,,,,,,,,,,,,,,,,,,,,,,,,,,,,,,,,,,,,,,,,,,,,,,,,,,,,,,,,,,,,,,,,,86.17598248569993,86.19211403495865,86.19211403495865,89.17522213593475,89.17522213593475,96.72516087631811,space,7.5342925593140535,None,,,,,,,,,,,,,,,,,,,,,,,,,,,,,,,,,,,,,,,,,,3004,2023-11-07_12h20.27.420,eb_03,2023.2.3,60.01273455471675,2023-11-07 12h20.41.927979 -0500,
,,,,0,0,0,0,0,0,0,0,101.75763919093879,,,,,,,,,,,,,,,,,,,,,,,,,,,,,,,,,,,,,,,,,,,,,,,,,,,,,,,,,,,,,,,,,,,,,,,,,,,,,,,,,,,,,,,,,,,,,,,,,,,,,,,96.72519015535363,96.74099329632008,101.75763919093879,101.72457650268916,101.72936196724186,0.0,"('h', 'space')",101.7297483299626,101.72976251671207,101.75763919093879,101.75763919093879,101.75763919093879,101.75763919093879,101.75763919093879,101.75763919093879,101.75763919093879,101.75763919093879,107.70795988710597,"['h', 'j', 'h', 'space']","[0.775896338862367, 0.7768876007467043, 5.8719418862019666, 5.872931638848968]","[None, None, None, None]",,,,,,,,,,,,,,,,,,,,,3004,2023-11-07_12h20.27.420,eb_03,2023.2.3,60.01273455471675,2023-11-07 12h20.41.927979 -0500,
,,,,0,0,0,0,1,0,1,0,107.72357135592028,,,,,,,,,,,,,,,,,,,,,,,,,,,,,,,,,,,,,,,,,,,,,,,,,,,,,,,,,,,,,,,,,,,,,,,,,,,,,,,,,,,,,,,,,,,,,,,,,,,,,,,,,,,107.71050384416594,13.0,"('h', 'l')",107.71088598103961,107.71089865858085,107.72357135592028,107.72357135592028,107.72357135592028,107.72357135592028,107.72357135592028,107.72357135592028,107.72357135592028,107.72357135592028,117.09064763749484,"['space', 'h', 'l']","[3.297023588354932, 9.337085780658526, 9.338079457287677]","[None, None, None]",,,,,,,,,,,,,,,,,,,,,3004,2023-11-07_12h20.27.420,eb_03,2023.2.3,60.01273455471675,2023-11-07 12h20.41.927979 -0500,
,,,,0,0,0,0,2,0,2,0,117.10617247654591,,,,,,,,,,,,,,,,,,,,,,,,,,,,,,,,,,,,,,,,,,,,,,,,,,,,,,,,,,,,,,,,,,,,,,,,,,,,,,,,,,,,,,,,,,,,,,,,,,,,,,,,,,,117.09272312975372,0.0,"('h', 'space')",117.09311039801105,117.09312337738811,117.10617247654591,117.10617247654591,117.10617247654591,117.10617247654591,117.10617247654591,117.10617247654591,117.10617247654591,117.10617247654591,118.84038571073324,"['h', 'j', 'h', 'space']","[0.9465029494604096, 0.9474869670229964, 1.6584755756775849, 1.6904697295103688]","[None, None, None, None]",,,,,,,,,,,,,,,,,,,,,3004,2023-11-07_12h20.27.420,eb_03,2023.2.3,60.01273455471675,2023-11-07 12h20.41.927979 -0500,
,,,,0,0,0,0,3,0,3,0,118.85606720781652,,,,,,,,,,,,,,,,,,,,,,,,,,,,,,,,,,,,,,,,,,,,,,,,,,,,,,,,,,,,,,,,,,,,,,,,,,,,,,,,,,,,,,,,,,,,,,,,,,,,,,,,,,,118.84250647987938,12.0,"('k', 'l')",118.84292302720132,118.84293570471345,118.85606720781652,118.85606720781652,118.85606720781652,118.85606720781652,118.85606720781652,118.85606720781652,118.85606720781652,118.85606720781652,119.856504280644,"['k', 'l']","[0.9246613817522302, 0.9326258871005848]","[None, None]",,,,,,,,,,,,,,,,,,,,,3004,2023-11-07_12h20.27.420,eb_03,2023.2.3,60.01273455471675,2023-11-07 12h20.41.927979 -0500,
,,,,0,0,0,0,4,0,4,0,119.87265877018217,,,,,,,,,,,,,,,,,,,,,,,,,,,,,,,,,,,,,,,,,,,,,,,,,,,,,,,,,,,,,,,,,,,,,,,,,,,,,,,,,,,,,,,,,,,,,,,,,,,,,,,,,,,119.85860422241967,4.0,"('h', 'k')",119.85899420728674,119.8590071866638,119.87265877018217,119.87265877018217,119.87265877018217,119.87265877018217,119.87265877018217,119.87265877018217,119.87265877018217,119.87265877018217,121.8063924316375,"['h', 'k']","[1.852037565317005, 1.868070712836925]","[None, None]",,,,,,,,,,,,,,,,,,,,,3004,2023-11-07_12h20.27.420,eb_03,2023.2.3,60.01273455471675,2023-11-07 12h20.41.927979 -0500,
,,,,0,0,0,0,5,0,5,0,121.822513718158,,,,,,,,,,,,,,,,,,,,,,,,,,,,,,,,,,,,,,,,,,,,,,,,,,,,,,,,,,,,,,,,,,,,,,,,,,,,,,,,,,,,,,,,,,,,,,,,,,,,,,,,,,,121.80850233434467,4.0,"('h', 'k')",121.80894423669088,121.80895691423211,121.822513718158,121.822513718158,121.822513718158,121.822513718158,121.822513718158,121.822513718158,121.822513718158,121.822513718158,125.93938814030844,"['h', 'k']","[4.03723329276545, 4.038219121401198]","[None, None]",,,,,,,,,,,,,,,,,,,,,3004,2023-11-07_12h20.27.420,eb_03,2023.2.3,60.01273455471675,2023-11-07 12h20.41.927979 -0500,
,,,,0,0,0,0,6,0,6,0,125.95553961140104,,,,,,,,,,,,,,,,,,,,,,,,,,,,,,,,,,,,,,,,,,,,,,,,,,,,,,,,,,,,,,,,,,,,,,,,,,,,,,,,,,,,,,,,,,,,,,,,,,,,,,,,,,,125.94154422541033,4.0,"('h', 'k')",125.94197586501832,125.94198854253045,125.95553961140104,125.95553961140104,125.95553961140104,125.95553961140104,125.95553961140104,125.95553961140104,125.95553961140104,125.95553961140104,128.15595289875637,"['h', 'k']","[2.12020981911337, 2.12118659238331]","[None, None]",,,,,,,,,,,,,,,,,,,,,3004,2023-11-07_12h20.27.420,eb_03,2023.2.3,60.01273455471675,2023-11-07 12h20.41.927979 -0500,
,,,,0,0,0,0,7,0,7,0,128.1720231733052,,,,,,,,,,,,,,,,,,,,,,,,,,,,,,,,,,,,,,,,,,,,,,,,,,,,,,,,,,,,,,,,,,,,,,,,,,,,,,,,,,,,,,,,,,,,,,,,,,,,,,,,,,,128.1581017395656,5.0,"('h',)",128.1585680914577,128.15858107083477,128.1720231733052,128.1720231733052,128.1720231733052,128.1720231733052,128.1720231733052,128.1720231733052,128.1720231733052,128.1720231733052,129.4562958862516,"['h', 'k', 'h']","[0.19972628614050336, 0.23172768429503776, 1.2557654826669022]","[None, None, None]",,,,,,,,,,,,,,,,,,,,,3004,2023-11-07_12h20.27.420,eb_03,2023.2.3,60.01273455471675,2023-11-07 12h20.41.927979 -0500,
,,,,0,0,0,0,8,0,8,0,129.47192667319905,,,,,,,,,,,,,,,,,,,,,,,,,,,,,,,,,,,,,,,,,,,,,,,,,,,,,,,,,,,,,,,,,,,,,,,,,,,,,,,,,,,,,,,,,,,,,,,,,,,,,,,,,,,129.4583804338763,7.0,"('k', 'space')",129.45876015597605,129.4587731353531,129.47192667319905,129.47192667319905,129.47192667319905,129.47192667319905,129.47192667319905,129.47192667319905,129.47192667319905,129.47192667319905,133.1560863146442,"['space', 'l', 'k', 'space']","[2.4278375550056808, 2.4438302551570814, 3.6678886394074652, 3.6688687329587992]","[None, None, None, None]",,,,,,,,,,,,,,,,,,,,,3004,2023-11-07_12h20.27.420,eb_03,2023.2.3,60.01273455471675,2023-11-07 12h20.41.927979 -0500,
,,,,0,0,0,0,9,0,9,0,133.1716742394783,,,,,,,,,,,,,,,,,,,,,,,,,,,,,,,,,,,,,,,,,,,,,,,,,,,,,,,,,,,,,,,,,,,,,,,,,,,,,,,,,,,,,,,,,,,,,,,,,,,,,,,,,,,133.15814279060578,2.0,"('h', 'j')",133.15866045630537,133.15867283198168,133.1716742394783,133.1716742394783,133.1716742394783,133.1716742394783,133.1716742394783,133.1716742394783,133.1716742394783,133.1716742394783,136.17194891921827,"['j', 'h']","[2.92015301171341, 2.936115225427784]","[None, None]",,,,,,,,,,,,,,,,,,,,,3004,2023-11-07_12h20.27.420,eb_03,2023.2.3,60.01273455471675,2023-11-07 12h20.41.927979 -0500,
,,,,0,0,0,0,10,0,10,0,136.188117595535,,,,,,,,,,,,,,,,,,,,,,,,,,,,,,,,,,,,,,,,,,,,,,,,,,,,,,,,,,,,,,,,,,,,,,,,,,,,,,,,,,,,,,,,,,,,,,,,,,,,,,,,,,,136.17408146036905,6.0,"('space',)",136.17446631385246,136.1744789913937,136.188117595535,136.188117595535,136.188117595535,136.188117595535,136.188117595535,136.188117595535,136.188117595535,136.188117595535,136.98859565902967,['space'],[0.7277292828948703],[None],,,,,,,,,,,,,,,,,,,,,3004,2023-11-07_12h20.27.420,eb_03,2023.2.3,60.01273455471675,2023-11-07 12h20.41.927979 -0500,
,,,,0,0,0,0,11,0,11,0,137.00472449167864,,,,,,,,,,,,,,,,,,,,,,,,,,,,,,,,,,,,,,,,,,,,,,,,,,,,,,,,,,,,,,,,,,,,,,,,,,,,,,,,,,,,,,,,,,,,,,,,,,,,,,,,,,,136.99067416976322,5.0,"('h',)",136.99107170078787,136.9910843783,137.00472449167864,137.00472449167864,137.00472449167864,137.00472449167864,137.00472449167864,137.00472449167864,137.00472449167864,137.00472449167864,137.83844393619802,['h'],[0.7662354596832301],[None],,,,,,,,,,,,,,,,,,,,,3004,2023-11-07_12h20.27.420,eb_03,2023.2.3,60.01273455471675,2023-11-07 12h20.41.927979 -0500,
,,,,0,0,0,0,12,0,12,0,137.85463826940395,,,,,,,,,,,,,,,,,,,,,,,,,,,,,,,,,,,,,,,,,,,,,,,,,,,,,,,,,,,,,,,,,,,,,,,,,,,,,,,,,,,,,,,,,,,,,,,,,,,,,,,,,,,137.84068453815416,12.0,"('k', 'l')",137.84113277928554,137.8411457586626,137.85463826940395,137.85463826940395,137.85463826940395,137.85463826940395,137.85463826940395,137.85463826940395,137.85463826940395,137.85463826940395,141.1382885761268,"['k', 'l']","[3.2042123196006287, 3.205193016852718]","[None, None]",,,,,,,,,,,,,,,,,,,,,3004,2023-11-07_12h20.27.420,eb_03,2023.2.3,60.01273455471675,2023-11-07 12h20.41.927979 -0500,
,,,,0,0,0,0,13,0,13,0,141.15441710693995,,,,,,,,,,,,,,,,,,,,,,,,,,,,,,,,,,,,,,,,,,,,,,,,,,,,,,,,,,,,,,,,,,,,,,,,,,,,,,,,,,,,,,,,,,,,,,,,,,,,,,,,,,,141.14040843973635,13.0,"('h', 'l')",141.14080295228632,141.1408162335283,141.15441710693995,141.15441710693995,141.15441710693995,141.15441710693995,141.15441710693995,141.15441710693995,141.15441710693995,141.15441710693995,143.4547893734707,"['h', 'l']","[2.232488637790084, 2.2334814088826533]","[None, None]",,,,,,,,,,,,,,,,,,,,,3004,2023-11-07_12h20.27.420,eb_03,2023.2.3,60.01273455471675,2023-11-07 12h20.41.927979 -0500,
,,,,0,0,0,0,14,0,14,0,143.4708883233834,,,,,,,,,,,,,,,,,,,,,,,,,,,,,,,,,,,,,,,,,,,,,,,,,,,,,,,,,,,,,,,,,,,,,,,,,,,,,,,,,,,,,,,,,,,,,,,,,,,,,,,,,,,143.45687241185806,11.0,"('j', 'l')",143.45733393420232,143.45734661174356,143.4708883233834,143.4708883233834,143.4708883233834,143.4708883233834,143.4708883233834,143.4708883233834,143.4708883233834,143.4708883233834,144.73798600581358,"['j', 'l']","[1.188003195944475, 1.1889908356533851]","[None, None]",,,,,,,,,,,,,,,,,,,,,3004,2023-11-07_12h20.27.420,eb_03,2023.2.3,60.01273455471675,2023-11-07 12h20.41.927979 -0500,
,,,,0,0,0,0,15,0,15,0,144.75415136181982,,,,,,,,,,,,,,,,,,,,,,,,,,,,,,,,,,,,,,,,,,,,,,,,,,,,,,,,,,,,,,,,,,,,,,,,,,,,,,,,,,,,,,,,,,,,,,,,,,,,,,,,,,,144.7400998325029,7.0,"('k', 'space')",144.74048317677807,144.7404958542902,144.75415136181982,144.75415136181982,144.75415136181982,144.75415136181982,144.75415136181982,144.75415136181982,144.75415136181982,144.75415136181982,146.15457497234456,"['k', 'space']","[1.3207601445028558, 1.3217514063580893]","[None, None]",,,,,,,,,,,,,,,,,,,,,3004,2023-11-07_12h20.27.420,eb_03,2023.2.3,60.01273455471675,2023-11-07 12h20.41.927979 -0500,
,,,,0,0,0,0,16,0,16,0,146.17071376589593,,,,,,,,,,,,,,,,,,,,,,,,,,,,,,,,,,,,,,,,,,,,,,,,,,,,,,,,,,,,,,,,,,,,,,,,,,,,,,,,,,,,,,,,,,,,,,,,,,,,,,,,,,,146.1566679716634,7.0,"('k', 'space')",146.15713371985476,146.1571463973669,146.17071376589593,146.17071376589593,146.17071376589593,146.17071376589593,146.17071376589593,146.17071376589593,146.17071376589593,146.17071376589593,147.25453123488114,"['k', 'space']","[1.016218179021962, 1.0172040076577105]","[None, None]",,,,,,,,,,,,,,,,,,,,,3004,2023-11-07_12h20.27.420,eb_03,2023.2.3,60.01273455471675,2023-11-07 12h20.41.927979 -0500,
,,,,0,0,0,0,17,0,17,0,147.27063229770283,,,,,,,,,,,,,,,,,,,,,,,,,,,,,,,,,,,,,,,,,,,,,,,,,,,,,,,,,,,,,,,,,,,,,,,,,,,,,,,,,,,,,,,,,,,,,,,,,,,,,,,,,,,147.25663510063896,4.0,"('h', 'k')",147.25707760668593,147.25709028422716,147.27063229770283,147.27063229770283,147.27063229770283,147.27063229770283,147.27063229770283,147.27063229770283,147.27063229770283,147.27063229770283,150.2876256169402,"['h', 'k']","[2.948304667515913, 2.9492950238636695]","[None, None]",,,,,,,,,,,,,,,,,,,,,3004,2023-11-07_12h20.27.420,eb_03,2023.2.3,60.01273455471675,2023-11-07 12h20.41.927979 -0500,
,,,,0,0,0,0,18,0,18,0,150.3037469034316,,,,,,,,,,,,,,,,,,,,,,,,,,,,,,,,,,,,,,,,,,,,,,,,,,,,,,,,,,,,,,,,,,,,,,,,,,,,,,,,,,,,,,,,,,,,,,,,,,,,,,,,,,,150.28973521778244,3.0,"('k',)",150.29026918314048,150.2902851809631,150.3037469034316,150.3037469034316,150.3037469034316,150.3037469034316,150.3037469034316,150.3037469034316,150.3037469034316,150.3037469034316,151.08757122431416,['k'],[0.723206122405827],[None],,,,,,,,,,,,,,,,,,,,,3004,2023-11-07_12h20.27.420,eb_03,2023.2.3,60.01273455471675,2023-11-07 12h20.41.927979 -0500,
,,,,0,0,0,0,19,0,19,0,151.10365960962372,,,,,,,,,,,,,,,,,,,,,,,,,,,,,,,,,,,,,,,,,,,,,,,,,,,,,,,,,,,,,,,,,,,,,,,,,,,,,,,,,,,,,,,,,,,,,,,,,,,,,,,,,,,151.08968927685055,1.0,"('j', 'k')",151.09027093384066,151.0902869316924,151.10365960962372,151.10365960962372,151.10365960962372,151.10365960962372,151.10365960962372,151.10365960962372,151.10365960962372,151.10365960962372,151.9375043201726,"['j', 'k']","[0.7472759164229501, 0.7872683823516127]","[None, None]",,,,,,,,,,,,,,,,,,,,,3004,2023-11-07_12h20.27.420,eb_03,2023.2.3,60.01273455471675,2023-11-07 12h20.41.927979 -0500,
,,,,0,0,0,0,20,0,20,0,151.95359964793897,,,,,,,,,,,,,,,,,,,,,,,,,,,,,,,,,,,,,,,,,,,,,,,,,,,,,,,,,,,,,,,,,,,,,,,,,,,,,,,,,,,,,,,,,,,,,,,,,,,,,,,,,,,151.9396416908421,12.0,"('k', 'l')",151.94022697000764,151.94024296783027,151.95359964793897,151.95359964793897,151.95359964793897,151.95359964793897,151.95359964793897,151.95359964793897,151.95359964793897,151.95359964793897,152.73742276142002,"['k', 'l']","[0.7133448175445665, 0.7143318535818253]","[None, None]",,,,,,,,,,,,,,,,,,,,,3004,2023-11-07_12h20.27.420,eb_03,2023.2.3,60.01273455471675,2023-11-07 12h20.41.927979 -0500,
,,,,0,0,0,0,21,0,21,0,152.75354102946585,,,,,,,,,,,,,,,,,,,,,,,,,,,,,,,,,,,,,,,,,,,,,,,,,,,,,,,,,,,,,,,,,,,,,,,,,,,,,,,,,,,,,,,,,,,,,,,,,,,,,,,,,,,152.73952783457935,1.0,"('j', 'k')",152.74009590852074,152.74011039710604,152.75354102946585,152.75354102946585,152.75354102946585,152.75354102946585,152.75354102946585,152.75354102946585,152.75354102946585,152.75354102946585,153.5040636001504,"['j', 'k']","[0.6734326426521875, 0.6744290358910803]","[None, None]",,,,,,,,,,,,,,,,,,,,,3004,2023-11-07_12h20.27.420,eb_03,2023.2.3,60.01273455471675,2023-11-07 12h20.41.927979 -0500,
,,,,0,0,0,0,22,0,22,0,153.52015832421603,,,,,,,,,,,,,,,,,,,,,,,,,,,,,,,,,,,,,,,,,,,,,,,,,,,,,,,,,,,,,,,,,,,,,,,,,,,,,,,,,,,,,,,,,,,,,,,,,,,,,,,,,,,153.50612792410539,9.0,"('l', 'space')",153.50663532700855,153.5066513248603,153.52015832421603,153.52015832421603,153.52015832421603,153.52015832421603,153.52015832421603,153.52015832421603,153.52015832421603,153.52015832421603,154.98725003012805,"['l', 'space']","[1.3868302832415793, 1.3878224506333936]","[None, None]",,,,,,,,,,,,,,,,,,,,,3004,2023-11-07_12h20.27.420,eb_03,2023.2.3,60.01273455471675,2023-11-07 12h20.41.927979 -0500,
,,,,0,0,0,0,23,0,23,0,155.0033773535397,,,,,,,,,,,,,,,,,,,,,,,,,,,,,,,,,,,,,,,,,,,,,,,,,,,,,,,,,,,,,,,,,,,,,,,,,,,,,,,,,,,,,,,,,,,,,,,,,,,,,,,,,,,154.9893831749505,4.0,"('h', 'k')",154.98988122062292,154.98989721847465,155.0033773535397,155.0033773535397,155.0033773535397,155.0033773535397,155.0033773535397,155.0033773535397,155.0033773535397,155.0033773535397,156.10386456295964,"['h', 'k']","[1.0306349418824539, 1.0316059800679795]","[None, None]",,,,,,,,,,,,,,,,,,,,,3004,2023-11-07_12h20.27.420,eb_03,2023.2.3,60.01273455471675,2023-11-07 12h20.41.927979 -0500,
,,,,0,0,0,0,24,0,24,0,156.1199798125599,,,,,,,,,,,,,,,,,,,,,,,,,,,,,,,,,,,,,,,,,,,,,,,,,,,,,,,,,,,,,,,,,,,,,,,,,,,,,,,,,,,,,,,,,,,,,,,,,,,,,,,,,,,156.10591983154882,2.0,"('h', 'j')",156.10644474154105,156.1064610411995,156.1199798125599,156.1199798125599,156.1199798125599,156.1199798125599,156.1199798125599,156.1199798125599,156.1199798125599,156.1199798125599,157.12088836863404,"['j', 'h']","[0.8420356003043707, 0.9300082796253264]","[None, None]",,,,,,,,,,,,,,,,,,,,,3004,2023-11-07_12h20.27.420,eb_03,2023.2.3,60.01273455471675,2023-11-07 12h20.41.927979 -0500,
,,,,0,0,0,0,25,0,25,0,157.13655024571926,,,,,,,,,,,,,,,,,,,,,,,,,,,,,,,,,,,,,,,,,,,,,,,,,,,,,,,,,,,,,,,,,,,,,,,,,,,,,,,,,,,,,,,,,,,,,,,,,,,,,,,,,,,157.1230317762238,14.0,"('j', 'space')",157.12361373507883,157.1236279218283,157.13655024571926,157.13655024571926,157.13655024571926,157.13655024571926,157.13655024571926,157.13655024571926,157.13655024571926,157.13655024571926,160.52026155550266,"['j', 'space']","[3.313498336385237, 3.3144871834665537]","[None, None]",,,,,,,,,,,,,,,,,,,,,3004,2023-11-07_12h20.27.420,eb_03,2023.2.3,60.01273455471675,2023-11-07 12h20.41.927979 -0500,
,,,,0,0,0,0,26,0,26,0,160.53630798423546,,,,,,,,,,,,,,,,,,,,,,,,,,,,,,,,,,,,,,,,,,,,,,,,,,,,,,,,,,,,,,,,,,,,,,,,,,,,,,,,,,,,,,,,,,,,,,,,,,,,,,,,,,,160.52236632679706,7.0,"('k', 'space')",160.5228655799001,160.5228812758869,160.53630798423546,160.53630798423546,160.53630798423546,160.53630798423546,160.53630798423546,160.53630798423546,160.53630798423546,160.53630798423546,162.88664932662505,"['k', 'space']","[2.2737470453139395, 2.2747494754730724]","[None, None]",,,,,,,,,,,,,,,,,,,,,3004,2023-11-07_12h20.27.420,eb_03,2023.2.3,60.01273455471675,2023-11-07 12h20.41.927979 -0500,
,,,,0,0,0,0,27,0,27,0,162.90277483899263,,,,,,,,,,,,,,,,,,,,,,,,,,,,,,,,,,,,,,,,,,,,,,,,,,,,,,,,,,,,,,,,,,,,,,,,,,,,,,,,,,,,,,,,,,,,,,,,,,,,,,,,,,,162.88873628902365,10.0,"('l',)",162.88929077991634,162.88930677773897,162.90277483899263,162.90277483899263,162.90277483899263,162.90277483899263,162.90277483899263,162.90277483899263,162.90277483899263,162.90277483899263,163.53662914823508,['l'],[0.5632806300418451],[None],,,,,,,,,,,,,,,,,,,,,3004,2023-11-07_12h20.27.420,eb_03,2023.2.3,60.01273455471675,2023-11-07 12h20.41.927979 -0500,
,,,,0,0,0,0,28,0,28,0,163.55275375503697,,,,,,,,,,,,,,,,,,,,,,,,,,,,,,,,,,,,,,,,,,,,,,,,,,,,,,,,,,,,,,,,,,,,,,,,,,,,,,,,,,,,,,,,,,,,,,,,,,,,,,,,,,,163.53869075558032,0.0,"('h', 'space')",163.5392654701427,163.53928176980116,163.55275375503697,163.55275375503697,163.55275375503697,163.55275375503697,163.55275375503697,163.55275375503697,163.55275375503697,163.55275375503697,164.98654793659807,"['h', 'space']","[1.361317665927345, 1.3853002264513634]","[None, None]",,,,,,,,,,,,,,,,,,,,,3004,2023-11-07_12h20.27.420,eb_03,2023.2.3,60.01273455471675,2023-11-07 12h20.41.927979 -0500,
,,,,0,0,0,0,29,0,29,0,165.00263692560839,,,,,,,,,,,,,,,,,,,,,,,,,,,,,,,,,,,,,,,,,,,,,,,,,,,,,,,,,,,,,,,,,,,,,,,,,,,,,,,,,,,,,,,,,,,,,,,,,,,,,,,,,,,164.98866900758003,11.0,"('j', 'l')",164.98925760705606,164.9892736048787,165.00263692560839,165.00263692560839,165.00263692560839,165.00263692560839,165.00263692560839,165.00263692560839,165.00263692560839,165.00263692560839,166.63637079834007,"['j', 'l']","[1.559443867066875, 1.5604345252504572]","[None, None]",,,,,,,,,,,,,,,,,,,,,3004,2023-11-07_12h20.27.420,eb_03,2023.2.3,60.01273455471675,2023-11-07 12h20.41.927979 -0500,
,,,,0,0,0,0,30,0,30,0,166.6525159306766,,,,,,,,,,,,,,,,,,,,,,,,,,,,,,,,,,,,,,,,,,,,,,,,,,,,,,,,,,,,,,,,,,,,,,,,,,,,,,,,,,,,,,,,,,,,,,,,,,,,,,,,,,,166.63844629059895,6.0,"('space',)",166.63898870765115,166.63900440363795,166.6525159306766,166.6525159306766,166.6525159306766,166.6525159306766,166.6525159306766,166.6525159306766,166.6525159306766,166.6525159306766,167.72015536611434,"['h', 'space']","[0.605541165889008, 1.0215683972055558]","[None, None]",,,,,,,,,,,,,,,,,,,,,3004,2023-11-07_12h20.27.420,eb_03,2023.2.3,60.01273455471675,2023-11-07 12h20.41.927979 -0500,
,,,,0,0,0,0,31,0,31,0,167.73576774046523,,,,,,,,,,,,,,,,,,,,,,,,,,,,,,,,,,,,,,,,,,,,,,,,,,,,,,,,,,,,,,,,,,,,,,,,,,,,,,,,,,,,,,,,,,,,,,,,,,,,,,,,,,,167.72222874546424,13.0,"('h', 'l')",167.7227874621749,167.72280376186245,167.73576774046523,167.73576774046523,167.73576774046523,167.73576774046523,167.73576774046523,167.73576774046523,167.73576774046523,167.73576774046523,169.90279959034524,"['h', 'l']","[2.0983525553601794, 2.099331441539107]","[None, None]",,,,,,,,,,,,,,,,,,,,,3004,2023-11-07_12h20.27.420,eb_03,2023.2.3,60.01273455471675,2023-11-07 12h20.41.927979 -0500,
,,,,0,0,0,0,32,0,32,0,169.91894411898102,,,,,,,,,,,,,,,,,,,,,,,,,,,,,,,,,,,,,,,,,,,,,,,,,,,,,,,,,,,,,,,,,,,,,,,,,,,,,,,,,,,,,,,,,,,,,,,,,,,,,,,,,,,169.9048624050629,0.0,"('h', 'space')",169.90544496761868,169.9054697189713,169.91894411898102,169.91894411898102,169.91894411898102,169.91894411898102,169.91894411898102,169.91894411898102,169.91894411898102,169.91894411898102,170.9194137911545,"['h', 'space']","[0.9302153458993416, 0.9311561995127704]","[None, None]",,,,,,,,,,,,,,,,,,,,,3004,2023-11-07_12h20.27.420,eb_03,2023.2.3,60.01273455471675,2023-11-07 12h20.41.927979 -0500,
,,,,0,0,0,0,33,0,33,0,170.9355326629011,,,,,,,,,,,,,,,,,,,,,,,,,,,,,,,,,,,,,,,,,,,,,,,,,,,,,,,,,,,,,,,,,,,,,,,,,,,,,,,,,,,,,,,,,,,,,,,,,,,,,,,,,,,170.92150528126513,8.0,"('j',)",170.92204135953216,170.9220573573548,170.9355326629011,170.9355326629011,170.9355326629011,170.9355326629011,170.9355326629011,170.9355326629011,170.9355326629011,170.9355326629011,171.73598356026923,['j'],[0.7295765796734486],[None],,,,,,,,,,,,,,,,,,,,,3004,2023-11-07_12h20.27.420,eb_03,2023.2.3,60.01273455471675,2023-11-07 12h20.41.927979 -0500,
,,,,0,0,0,0,34,0,34,0,171.7521401627455,,,,,,,,,,,,,,,,,,,,,,,,,,,,,,,,,,,,,,,,,,,,,,,,,,,,,,,,,,,,,,,,,,,,,,,,,,,,,,,,,,,,,,,,,,,,,,,,,,,,,,,,,,,171.73807052266784,11.0,"('j', 'l')",171.73858698096592,171.73860328065348,171.7521401627455,171.7521401627455,171.7521401627455,171.7521401627455,171.7521401627455,171.7521401627455,171.7521401627455,171.7521401627455,172.9693028779002,"['l', 'j']","[1.145012494904222, 1.1609940267517231]","[None, None]",,,,,,,,,,,,,,,,,,,,,3004,2023-11-07_12h20.27.420,eb_03,2023.2.3,60.01273455471675,2023-11-07 12h20.41.927979 -0500,
,,,,0,0,0,0,35,0,35,0,172.98539247058216,,,,,,,,,,,,,,,,,,,,,,,,,,,,,,,,,,,,,,,,,,,,,,,,,,,,,,,,,,,,,,,,,,,,,,,,,,,,,,,,,,,,,,,,,,,,,,,,,,,,,,,,,,,172.97141489351634,10.0,"('l',)",172.97204997722292,172.9720753322763,172.98539247058216,172.98539247058216,172.98539247058216,172.98539247058216,172.98539247058216,172.98539247058216,172.98539247058216,172.98539247058216,173.6025371957221,['l'],[0.5437158857530449],[None],,,,,,,,,,,,,,,,,,,,,3004,2023-11-07_12h20.27.420,eb_03,2023.2.3,60.01273455471675,2023-11-07 12h20.41.927979 -0500,
,,,,0,0,0,0,36,0,36,0,173.6186696505174,,,,,,,,,,,,,,,,,,,,,,,,,,,,,,,,,,,,,,,,,,,,,,,,,,,,,,,,,,,,,,,,,,,,,,,,,,,,,,,,,,,,,,,,,,,,,,,,,,,,,,,,,,,173.6046709442453,8.0,"('j',)",173.6051922320621,173.6052079280489,173.6186696505174,173.6186696505174,173.6186696505174,173.6186696505174,173.6186696505174,173.6186696505174,173.6186696505174,173.6186696505174,174.35251251980662,['j'],[0.6544492535176687],[None],,,,,,,,,,,,,,,,,,,,,3004,2023-11-07_12h20.27.420,eb_03,2023.2.3,60.01273455471675,2023-11-07 12h20.41.927979 -0500,
,,,,0,0,0,0,37,0,37,0,174.36863622110104,,,,,,,,,,,,,,,,,,,,,,,,,,,,,,,,,,,,,,,,,,,,,,,,,,,,,,,,,,,,,,,,,,,,,,,,,,,,,,,,,,,,,,,,,,,,,,,,,,,,,,,,,,,174.3545834843826,7.0,"('k', 'space')",174.35518355399836,174.355199551821,174.36863622110104,174.36863622110104,174.36863622110104,174.36863622110104,174.36863622110104,174.36863622110104,174.36863622110104,174.36863622110104,175.63622591234162,"['h', 'k', 'k', 'space']","[0.7285110637021717, 0.7295005144842435, 1.2405210584111046, 1.2415135276678484]","[None, None, None, None]",,,,,,,,,,,,,,,,,,,,,3004,2023-11-07_12h20.27.420,eb_03,2023.2.3,60.01273455471675,2023-11-07 12h20.41.927979 -0500,
,,,,0,0,0,0,38,0,38,0,175.65185368081438,,,,,,,,,,,,,,,,,,,,,,,,,,,,,,,,,,,,,,,,,,,,,,,,,,,,,,,,,,,,,,,,,,,,,,,,,,,,,,,,,,,,,,,,,,,,,,,,,,,,,,,,,,,175.63830985626555,4.0,"('h', 'k')",175.6387991484371,175.63881544812466,175.65185368081438,175.65185368081438,175.65185368081438,175.65185368081438,175.65185368081438,175.65185368081438,175.65185368081438,175.65185368081438,177.90223725145916,"['h', 'k']","[2.1733292604330927, 2.1743102595210075]","[None, None]",,,,,,,,,,,,,,,,,,,,,3004,2023-11-07_12h20.27.420,eb_03,2023.2.3,60.01273455471675,2023-11-07 12h20.41.927979 -0500,
,,,,0,0,0,0,39,0,39,0,177.91835974535206,,,,,,,,,,,,,,,,,,,,,,,,,,,,,,,,,,,,,,,,,,,,,,,,,,,,,,,,,,,,,,,,,,,,,,,,,,,,,,,,,,,,,,,,,,,,,,,,,,,,,,,,,,,177.90435439845896,4.0,"('h', 'k')",177.90489651364624,177.90491220963304,177.91835974535206,177.91835974535206,177.91835974535206,177.91835974535206,177.91835974535206,177.91835974535206,177.91835974535206,177.91835974535206,178.63550691545242,"['h', 'k']","[0.6428197355126031, 0.6438149213790894]","[None, None]",,,,,,,,,,,,,,,,,,,,,3004,2023-11-07_12h20.27.420,eb_03,2023.2.3,60.01273455471675,2023-11-07 12h20.41.927979 -0500,
,,,,0,0,0,0,40,0,40,0,178.65163393702824,,,,,,,,,,,,,,,,,,,,,,,,,,,,,,,,,,,,,,,,,,,,,,,,,,,,,,,,,,,,,,,,,,,,,,,,,,,,,,,,,,,,,,,,,,,,,,,,,,,,,,,,,,,178.63764368242119,14.0,"('j', 'space')",178.6381939474668,178.63820994528942,178.65163393702824,178.65163393702824,178.65163393702824,178.65163393702824,178.65163393702824,178.65163393702824,178.65163393702824,178.65163393702824,182.3524349454383,"['k', 'space', 'j', 'space']","[1.8855397411680315, 1.8865303993516136, 3.6215803503000643, 3.6455665330286138]","[None, None, None, None]",,,,,,,,,,,,,,,,,,,,,3004,2023-11-07_12h20.27.420,eb_03,2023.2.3,60.01273455471675,2023-11-07 12h20.41.927979 -0500,
,,,,0,0,0,0,41,0,41,0,182.36802377580898,,,,,,,,,,,,,,,,,,,,,,,,,,,,,,,,,,,,,,,,,,,,,,,,,,,,,,,,,,,,,,,,,,,,,,,,,,,,,,,,,,,,,,,,,,,,,,,,,,,,,,,,,,,182.35452371891006,2.0,"('h', 'j')",182.35503232921474,182.3550486288732,182.36802377580898,182.36802377580898,182.36802377580898,182.36802377580898,182.36802377580898,182.36802377580898,182.36802377580898,182.36802377580898,183.61841398707475,"['h', 'j']","[1.1692012161947787, 1.2011817869788501]","[None, None]",,,,,,,,,,,,,,,,,,,,,3004,2023-11-07_12h20.27.420,eb_03,2023.2.3,60.01273455471675,2023-11-07 12h20.41.927979 -0500,
,,,,0,0,0,0,42,0,42,0,183.63461797934724,,,,,,,,,,,,,,,,,,,,,,,,,,,,,,,,,,,,,,,,,,,,,,,,,,,,,,,,,,,,,,,,,,,,,,,,,,,,,,,,,,,,,,,,,,,,,,,,,,,,,,,,,,,183.62056131864665,0.0,"('h', 'space')",183.6210853230732,183.62110162276076,183.63461797934724,183.63461797934724,183.63461797934724,183.63461797934724,183.63461797934724,183.63461797934724,183.63461797934724,183.63461797934724,185.40224072270212,"['h', 'h', 'space']","[1.2306002899713349, 1.7346122744493186, 1.7356032344687264]","[None, None, None]",,,,,,,,,,,,,,,,,,,,,3004,2023-11-07_12h20.27.420,eb_03,2023.2.3,60.01273455471675,2023-11-07 12h20.41.927979 -0500,
,,,,0,0,0,0,43,0,43,0,185.41781083864043,,,,,,,,,,,,,,,,,,,,,,,,,,,,,,,,,,,,,,,,,,,,,,,,,,,,,,,,,,,,,,,,,,,,,,,,,,,,,,,,,,,,,,,,,,,,,,,,,,,,,,,,,,,185.40435273831827,4.0,"('h', 'k')",185.40491809564992,185.40493409347255,185.41781083864043,185.41781083864043,185.41781083864043,185.41781083864043,185.41781083864043,185.41781083864043,185.41781083864043,185.41781083864043,187.55152343123336,"['h', 'k']","[2.0624353106541093, 2.06345796448295]","[None, None]",,,,,,,,,,,,,,,,,,,,,3004,2023-11-07_12h20.27.420,eb_03,2023.2.3,60.01273455471675,2023-11-07 12h20.41.927979 -0500,
,,,,0,0,0,0,44,0,44,0,187.56764351035235,,,,,,,,,,,,,,,,,,,,,,,,,,,,,,,,,,,,,,,,,,,,,,,,,,,,,,,,,,,,,,,,,,,,,,,,,,,,,,,,,,,,,,,,,,,,,,,,,,,,,,,,,,,187.5536318247032,3.0,"('k',)",187.55413137964206,187.5541473774647,187.56764351035235,187.56764351035235,187.56764351035235,187.56764351035235,187.56764351035235,187.56764351035235,187.56764351035235,187.56764351035235,188.48472161812242,['k'],[0.8405979083909187],[None],,,,,,,,,,,,,,,,,,,,,3004,2023-11-07_12h20.27.420,eb_03,2023.2.3,60.01273455471675,2023-11-07 12h20.41.927979 -0500,
,,,,0,0,0,0,45,0,45,0,188.50088214458083,,,,,,,,,,,,,,,,,,,,,,,,,,,,,,,,,,,,,,,,,,,,,,,,,,,,,,,,,,,,,,,,,,,,,,,,,,,,,,,,,,,,,,,,,,,,,,,,,,,,,,,,,,,188.4868339355744,0.0,"('h', 'space')",188.48739627443138,188.4874110648816,188.50088214458083,188.50088214458083,188.50088214458083,188.50088214458083,188.50088214458083,188.50088214458083,188.50088214458083,188.50088214458083,189.80139024174423,"['h', 'space']","[1.2193960728181992, 1.2433964422671124]","[None, None]",,,,,,,,,,,,,,,,,,,,,3004,2023-11-07_12h20.27.420,eb_03,2023.2.3,60.01273455471675,2023-11-07 12h20.41.927979 -0500,
,,,,0,0,0,0,46,0,46,0,189.8174855695106,,,,,,,,,,,,,,,,,,,,,,,,,,,,,,,,,,,,,,,,,,,,,,,,,,,,,,,,,,,,,,,,,,,,,,,,,,,,,,,,,,,,,,,,,,,,,,,,,,,,,,,,,,,189.80349954075064,11.0,"('j', 'l')",189.8040181119577,189.80403410980944,189.8174855695106,189.8174855695106,189.8174855695106,189.8174855695106,189.8174855695106,189.8174855695106,189.8174855695106,189.8174855695106,191.3012998389022,"['j', 'l']","[1.4067967843730003, 1.407784725917736]","[None, None]",,,,,,,,,,,,,,,,,,,,,3004,2023-11-07_12h20.27.420,eb_03,2023.2.3,60.01273455471675,2023-11-07 12h20.41.927979 -0500,
,,,,0,0,0,0,47,0,47,0,191.31739003528492,,,,,,,,,,,,,,,,,,,,,,,,,,,,,,,,,,,,,,,,,,,,,,,,,,,,,,,,,,,,,,,,,,,,,,,,,,,,,,,,,,,,,,,,,,,,,,,,,,,,,,,,,,,191.3033620499482,14.0,"('j', 'space')",191.30393193496275,191.3039482346503,191.31739003528492,191.31739003528492,191.31739003528492,191.31739003528492,191.31739003528492,191.31739003528492,191.31739003528492,191.31739003528492,193.78443948278436,"['j', 'space']","[2.3869241572974715, 2.387917833926622]","[None, None]",,,,,,,,,,,,,,,,,,,,,3004,2023-11-07_12h20.27.420,eb_03,2023.2.3,60.01273455471675,2023-11-07 12h20.41.927979 -0500,
,,,,0,0,0,0,48,0,48,0,193.80050824809587,,,,,,,,,,,,,,,,,,,,,,,,,,,,,,,,,,,,,,,,,,,,,,,,,,,,,,,,,,,,,,,,,,,,,,,,,,,,,,,,,,,,,,,,,,,,,,,,,,,,,,,,,,,193.7865490836266,10.0,"('l',)",193.78706886220607,193.7870848600578,193.80050824809587,193.80050824809587,193.80050824809587,193.80050824809587,193.80050824809587,193.80050824809587,193.80050824809587,193.80050824809587,194.4510395421239,['l'],[0.5678206938900985],[None],,,,,,,,,,,,,,,,,,,,,3004,2023-11-07_12h20.27.420,eb_03,2023.2.3,60.01273455471675,2023-11-07 12h20.41.927979 -0500,
,,,,0,0,0,0,49,0,49,0,194.46715901754214,,,,,,,,,,,,,,,,,,,,,,,,,,,,,,,,,,,,,,,,,,,,,,,,,,,,,,,,,,,,,,,,,,,,,,,,,,,,,,,,,,,,,,,,,,,,,,,,,,,,,,,,,,,194.45310929929838,7.0,"('k', 'space')",194.45368250462343,194.45369910614681,194.46715901754214,194.46715901754214,194.46715901754214,194.46715901754214,194.46715901754214,194.46715901754214,194.46715901754214,194.46715901754214,196.03425739426166,"['k', 'space']","[1.4851439004996791, 1.4861351623549126]","[None, None]",,,,,,,,,,,,,,,,,,,,,3004,2023-11-07_12h20.27.420,eb_03,2023.2.3,60.01273455471675,2023-11-07 12h20.41.927979 -0500,
,,,,0,0,0,0,50,0,50,0,196.05035272199893,,,,,,,,,,,,,,,,,,,,,,,,,,,,,,,,,,,,,,,,,,,,,,,,,,,,,,,,,,,,,,,,,,,,,,,,,,,,,,,,,,,,,,,,,,,,,,,,,,,,,,,,,,,196.03635280832532,8.0,"('j',)",196.03687228509807,196.0368882829207,196.05035272199893,196.05035272199893,196.05035272199893,196.05035272199893,196.05035272199893,196.05035272199893,196.05035272199893,196.05035272199893,197.05081484804396,['j'],[0.9179890786181204],[None],,,,,,,,,,,,,,,,,,,,,3004,2023-11-07_12h20.27.420,eb_03,2023.2.3,60.01273455471675,2023-11-07 12h20.41.927979 -0500,
,,,,0,0,0,0,51,0,51,0,197.0669409640832,,,,,,,,,,,,,,,,,,,,,,,,,,,,,,,,,,,,,,,,,,,,,,,,,,,,,,,,,,,,,,,,,,,,,,,,,,,,,,,,,,,,,,,,,,,,,,,,,,,,,,,,,,,197.05291931750253,6.0,"('space',)",197.05346565853688,197.05348195822444,197.0669409640832,197.0669409640832,197.0669409640832,197.0669409640832,197.0669409640832,197.0669409640832,197.0669409640832,197.0669409640832,197.76741658264655,['space'],[0.6293996678141411],[None],,,,,,,,,,,,,,,,,,,,,3004,2023-11-07_12h20.27.420,eb_03,2023.2.3,60.01273455471675,2023-11-07 12h20.41.927979 -0500,
,,,,0,0,0,0,52,0,52,0,197.78357710910495,,,,,,,,,,,,,,,,,,,,,,,,,,,,,,,,,,,,,,,,,,,,,,,,,,,,,,,,,,,,,,,,,,,,,,,,,,,,,,,,,,,,,,,,,,,,,,,,,,,,,,,,,,,197.7695310130075,4.0,"('h', 'k')",197.77007795774261,197.770094559266,197.78357710910495,197.78357710910495,197.78357710910495,197.78357710910495,197.78357710910495,197.78357710910495,197.78357710910495,197.78357710910495,199.0340219544596,"['h', 'k']","[1.1767766421835404, 1.1777829963539261]","[None, None]",,,,,,,,,,,,,,,,,,,,,3004,2023-11-07_12h20.27.420,eb_03,2023.2.3,60.01273455471675,2023-11-07 12h20.41.927979 -0500,
,,,,0,0,0,0,53,0,53,0,199.0501332800486,,,,,,,,,,,,,,,,,,,,,,,,,,,,,,,,,,,,,,,,,,,,,,,,,,,,,,,,,,,,,,,,,,,,,,,,,,,,,,,,,,,,,,,,,,,,,,,,,,,,,,,,,,,199.03608446734142,1.0,"('j', 'k')",199.03669298865134,199.0367083827732,199.0501332800486,199.0501332800486,199.0501332800486,199.0501332800486,199.0501332800486,199.0501332800486,199.0501332800486,199.0501332800486,200.76720076284255,"['j', 'k']","[1.6462061444181018, 1.6472278927103616]","[None, None]",,,,,,,,,,,,,,,,,,,,,3004,2023-11-07_12h20.27.420,eb_03,2023.2.3,60.01273455471675,2023-11-07 12h20.41.927979 -0500,
,,,,0,0,0,0,54,0,54,0,200.7833395563939,,,,,,,,,,,,,,,,,,,,,,,,,,,,,,,,,,,,,,,,,,,,,,,,,,,,,,,,,,,,,,,,,,,,,,,,,,,,,,,,,,,,,,,,,,,,,,,,,,,,,,,,,,,200.76928772524116,3.0,"('k',)",200.76999525196152,200.7700094387401,200.7833395563939,200.7833395563939,200.7833395563939,200.7833395563939,200.7833395563939,200.7833395563939,200.7833395563939,200.7833395563939,201.3338276562863,['k'],[0.48100981934112497],[None],,,,,,,,,,,,,,,,,,,,,3004,2023-11-07_12h20.27.420,eb_03,2023.2.3,60.01273455471675,2023-11-07 12h20.41.927979 -0500,
,,,,0,0,0,0,55,0,55,0,201.3499622239906,,,,,,,,,,,,,,,,,,,,,,,,,,,,,,,,,,,,,,,,,,,,,,,,,,,,,,,,,,,,,,,,,,,,,,,,,,,,,,,,,,,,,,,,,,,,,,,,,,,,,,,,,,,201.33588745255838,6.0,"('space',)",201.33648208892555,201.3364983886131,201.3499622239906,201.3499622239906,201.3499622239906,201.3499622239906,201.3499622239906,201.3499622239906,201.3499622239906,201.3499622239906,202.05045112376683,['space'],[0.6264129028422758],[None],,,,,,,,,,,,,,,,,,,,,3004,2023-11-07_12h20.27.420,eb_03,2023.2.3,60.01273455471675,2023-11-07 12h20.41.927979 -0500,
,,,,0,0,0,0,56,0,56,0,202.06656486412976,,,,,,,,,,,,,,,,,,,,,,,,,,,,,,,,,,,,,,,,,,,,,,,,,,,,,,,,,,,,,,,,,,,,,,,,,,,,,,,,,,,,,,,,,,,,,,,,,,,,,,,,,,,202.05254502862226,2.0,"('h', 'j')",202.05303824477596,202.05305454446352,202.06656486412976,202.06656486412976,202.06656486412976,202.06656486412976,202.06656486412976,202.06656486412976,202.06656486412976,202.06656486412976,203.05042425947613,"['h', 'j']","[0.9087936457945034, 0.9098150922509376]","[None, None]",,,,,,,,,,,,,,,,,,,,,3004,2023-11-07_12h20.27.420,eb_03,2023.2.3,60.01273455471675,2023-11-07 12h20.41.927979 -0500,
,,,,0,0,0,0,57,0,57,0,203.06653045368148,,,,,,,,,,,,,,,,,,,,,,,,,,,,,,,,,,,,,,,,,,,,,,,,,,,,,,,,,,,,,,,,,,,,,,,,,,,,,,,,,,,,,,,,,,,,,,,,,,,,,,,,,,,203.0525051849545,14.0,"('j', 'space')",203.0531393631536,203.0531550591404,203.06653045368148,203.06653045368148,203.06653045368148,203.06653045368148,203.06653045368148,203.06653045368148,203.06653045368148,203.06653045368148,206.80013214814244,"['j', 'space']","[3.6609214328345843, 3.6848885992658325]","[None, None]",,,,,,,,,,,,,,,,,,,,,3004,2023-11-07_12h20.27.420,eb_03,2023.2.3,60.01273455471675,2023-11-07 12h20.41.927979 -0500,
,,,,0,0,0,0,58,0,58,0,206.81622989065363,,,,,,,,,,,,,,,,,,,,,,,,,,,,,,,,,,,,,,,,,,,,,,,,,,,,,,,,,,,,,,,,,,,,,,,,,,,,,,,,,,,,,,,,,,,,,,,,,,,,,,,,,,,206.80225744497147,14.0,"('j', 'space')",206.80281525614555,206.8028315558331,206.81622989065363,206.81622989065363,206.81622989065363,206.81622989065363,206.81622989065363,206.81622989065363,206.81622989065363,206.81622989065363,207.45005824117106,"['j', 'space']","[0.5592096346954349, 0.6152062709152233]","[None, None]",,,,,,,,,,,,,,,,,,,,,3004,2023-11-07_12h20.27.420,eb_03,2023.2.3,60.01273455471675,2023-11-07 12h20.41.927979 -0500,
,,,,0,0,0,0,59,0,59,0,207.4661900922656,,,,,,,,,,,,,,,,,,,,,,,,,,,,,,,,,,,,,,,,,,,,,,,,,,,,,,,,,,,,,,,,,,,,,,,,,,,,,,,,,,,,,,,,,,,,,,,,,,,,,,,,,,,207.45217387893354,9.0,"('l', 'space')",207.4527887389704,207.45280473682215,207.4661900922656,207.4661900922656,207.4661900922656,207.4661900922656,207.4661900922656,207.4661900922656,207.4661900922656,207.4661900922656,208.98326415530755,"['l', 'space']","[1.445240479108179, 1.4462308354268316]","[None, None]",,,,,,,,,,,,,,,,,,,,,3004,2023-11-07_12h20.27.420,eb_03,2023.2.3,60.01273455471675,2023-11-07 12h20.41.927979 -0500,
,,,,0,0,0,0,60,0,60,0,208.99940355255967,,,,,,,,,,,,,,,,,,,,,,,,,,,,,,,,,,,,,,,,,,,,,,,,,,,,,,,,,,,,,,,,,,,,,,,,,,,,,,,,,,,,,,,,,,,,,,,,,,,,,,,,,,,208.98536892660195,12.0,"('k', 'l')",208.98586667046766,208.9858829701261,208.99940355255967,208.99940355255967,208.99940355255967,208.99940355255967,208.99940355255967,208.99940355255967,208.99940355255967,208.99940355255967,210.3331587658031,"['k', 'l']","[1.2560344273224473, 1.2570241799694486]","[None, None]",,,,,,,,,,,,,,,,,,,,,3004,2023-11-07_12h20.27.420,eb_03,2023.2.3,60.01273455471675,2023-11-07 12h20.41.927979 -0500,
,,,,0,0,0,0,61,0,61,0,210.34931053873152,,,,,,,,,,,,,,,,,,,,,,,,,,,,,,,,,,,,,,,,,,,,,,,,,,,,,,,,,,,,,,,,,,,,,,,,,,,,,,,,,,,,,,,,,,,,,,,,,,,,,,,,,,,210.3352982493816,9.0,"('l', 'space')",210.33583674245165,210.33585364581086,210.34931053873152,210.34931053873152,210.34931053873152,210.34931053873152,210.34931053873152,210.34931053873152,210.34931053873152,210.34931053873152,211.41642747898004,"['l', 'space']","[0.9861208246729802, 0.9871129920647945]","[None, None]",,,,,,,,,,,,,,,,,,,,,3004,2023-11-07_12h20.27.420,eb_03,2023.2.3,60.01273455471675,2023-11-07 12h20.41.927979 -0500,
,,,,0,0,0,0,62,0,62,0,211.4325919294206,,,,,,,,,,,,,,,,,,,,,,,,,,,,,,,,,,,,,,,,,,,,,,,,,,,,,,,,,,,,,,,,,,,,,,,,,,,,,,,,,,,,,,,,,,,,,,,,,,,,,,,,,,,211.41856062380248,4.0,"('h', 'k')",211.41912809404312,211.41914439373068,211.4325919294206,211.4325919294206,211.4325919294206,211.4325919294206,211.4325919294206,211.4325919294206,211.4325919294206,211.4325919294206,213.28298805686063,"['h', 'k']","[1.7669248756719753, 1.7678678422234952]","[None, None]",,,,,,,,,,,,,,,,,,,,,3004,2023-11-07_12h20.27.420,eb_03,2023.2.3,60.01273455471675,2023-11-07 12h20.41.927979 -0500,
,,,,0,0,0,0,63,0,63,0,213.2990867049375,,,,,,,,,,,,,,,,,,,,,,,,,,,,,,,,,,,,,,,,,,,,,,,,,,,,,,,,,,,,,,,,,,,,,,,,,,,,,,,,,,,,,,,,,,,,,,,,,,,,,,,,,,,213.28507622666075,8.0,"('j',)",213.28566693904577,213.2856829368684,213.2990867049375,213.2990867049375,213.2990867049375,213.2990867049375,213.2990867049375,213.2990867049375,213.2990867049375,213.2990867049375,213.88294296109234,['j'],[0.5163795156404376],[None],,,,,,,,,,,,,,,,,,,,,3004,2023-11-07_12h20.27.420,eb_03,2023.2.3,60.01273455471675,2023-11-07 12h20.41.927979 -0500,
,,,,0,0,0,0,64,0,64,0,213.89904009993188,,,,,,,,,,,,,,,,,,,,,,,,,,,,,,,,,,,,,,,,,,,,,,,,,,,,,,,,,,,,,,,,,,,,,,,,,,,,,,,,,,,,,,,,,,,,,,,,,,,,,,,,,,,213.8850057758391,4.0,"('h', 'k')",213.88556811469607,213.88558381068287,213.89904009993188,213.89904009993188,213.89904009993188,213.89904009993188,213.89904009993188,213.89904009993188,213.89904009993188,213.89904009993188,214.48287884902675,"['h', 'k']","[0.5084572687337641, 0.5094361549126916]","[None, None]",,,,,,,,,,,,,,,,,,,,,3004,2023-11-07_12h20.27.420,eb_03,2023.2.3,60.01273455471675,2023-11-07 12h20.41.927979 -0500,
,,,,0,0,0,0,65,0,65,0,214.4989983244741,,,,,,,,,,,,,,,,,,,,,,,,,,,,,,,,,,,,,,,,,,,,,,,,,,,,,,,,,,,,,,,,,,,,,,,,,,,,,,,,,,,,,,,,,,,,,,,,,,,,,,,,,,,214.48496611329028,13.0,"('h', 'l')",214.48548136418685,214.48549706017366,214.4989983244741,214.4989983244741,214.4989983244741,214.4989983244741,214.4989983244741,214.4989983244741,214.4989983244741,214.4989983244741,215.56614182711928,"['h', 'l']","[0.988453187776031, 0.9894628622569144]","[None, None]",,,,,,,,,,,,,,,,,,,,,3004,2023-11-07_12h20.27.420,eb_03,2023.2.3,60.01273455471675,2023-11-07 12h20.41.927979 -0500,
,,,,0,0,0,0,66,0,66,0,215.58225254900753,,,,,,,,,,,,,,,,,,,,,,,,,,,,,,,,,,,,,,,,,,,,,,,,,,,,,,,,,,,,,,,,,,,,,,,,,,,,,,,,,,,,,,,,,,,,,,,,,,,,,,,,,,,215.5681907569524,10.0,"('l',)",215.56883882003604,215.568854214187,215.58225254900753,215.58225254900753,215.58225254900753,215.58225254900753,215.58225254900753,215.58225254900753,215.58225254900753,215.58225254900753,216.2326857431326,['l'],[0.577242209285032],[None],,,,,,,,,,,,,,,,,,,,,3004,2023-11-07_12h20.27.420,eb_03,2023.2.3,60.01273455471675,2023-11-07 12h20.41.927979 -0500,
,,,,0,0,0,0,67,0,67,0,216.24886770066223,,,,,,,,,,,,,,,,,,,,,,,,,,,,,,,,,,,,,,,,,,,,,,,,,,,,,,,,,,,,,,,,,,,,,,,,,,,,,,,,,,,,,,,,,,,,,,,,,,,,,,,,,,,216.23474493570393,12.0,"('k', 'l')",216.23533987393603,216.2353564754594,216.24886770066223,216.24886770066223,216.24886770066223,216.24886770066223,216.24886770066223,216.24886770066223,216.24886770066223,216.24886770066223,216.96602090765373,"['k', 'l']","[0.6385996282915585, 0.639606887998525]","[None, None]",,,,,,,,,,,,,,,,,,,,,3004,2023-11-07_12h20.27.420,eb_03,2023.2.3,60.01273455471675,2023-11-07 12h20.41.927979 -0500,
,,,,0,0,0,0,68,0,68,0,216.9821575882961,,,,,,,,,,,,,,,,,,,,,,,,,,,,,,,,,,,,,,,,,,,,,,,,,,,,,,,,,,,,,,,,,,,,,,,,,,,,,,,,,,,,,,,,,,,,,,,,,,,,,,,,,,,216.96808885378414,14.0,"('j', 'space')",216.9686499852687,216.96866417201818,216.9821575882961,216.9821575882961,216.9821575882961,216.9821575882961,216.9821575882961,216.9821575882961,216.9821575882961,216.9821575882961,224.3654438990925,"['j', 'space']","[7.304412473604316, 7.305402226251317]","[None, None]",,,,,,,,,,,,,,,,,,,,,3004,2023-11-07_12h20.27.420,eb_03,2023.2.3,60.01273455471675,2023-11-07 12h20.41.927979 -0500,
,,,,0,0,0,0,69,0,69,0,224.3816222344467,,,,,,,,,,,,,,,,,,,,,,,,,,,,,,,,,,,,,,,,,,,,,,,,,,,,,,,,,,,,,,,,,,,,,,,,,,,,,,,,,,,,,,,,,,,,,,,,,,,,,,,,,,,224.36755259439815,1.0,"('j', 'k')",224.36812157387612,224.36813757169875,224.3816222344467,224.3816222344467,224.3816222344467,224.3816222344467,224.3816222344467,224.3816222344467,224.3816222344467,224.3816222344467,227.74860132165486,"['j', 'k']","[3.2889787920285016, 3.2899676391098183]","[None, None]",,,,,,,,,,,,,,,,,,,,,3004,2023-11-07_12h20.27.420,eb_03,2023.2.3,60.01273455471675,2023-11-07 12h20.41.927979 -0500,
,,,,0,0,0,0,70,0,70,0,227.76471023249906,,,,,,,,,,,,,,,,,,,,,,,,,,,,,,,,,,,,,,,,,,,,,,,,,,,,,,,,,,,,,,,,,,,,,,,,,,,,,,,,,,,,,,,,,,,,,,,,,,,,,,,,,,,227.75075499201193,13.0,"('h', 'l')",227.7512702429085,227.75128654259606,227.76471023249906,227.76471023249906,227.76471023249906,227.76471023249906,227.76471023249906,227.76471023249906,227.76471023249906,227.76471023249906,229.3818827274372,"['h', 'l']","[1.545898533280706, 1.5468910025374498]","[None, None]",,,,,,,,,,,,,,,,,,,,,3004,2023-11-07_12h20.27.420,eb_03,2023.2.3,60.01273455471675,2023-11-07 12h20.41.927979 -0500,
,,,,0,0,0,0,71,0,71,0,229.3979068195913,,,,,,,,,,,,,,,,,,,,,,,,,,,,,,,,,,,,,,,,,,,,,,,,,,,,,,,,,,,,,,,,,,,,,,,,,,,,,,,,,,,,,,,,,,,,,,,,,,,,,,,,,,,229.38397602862096,13.0,"('h', 'l')",229.38451935118064,229.38453534903238,229.3979068195913,229.3979068195913,229.3979068195913,229.3979068195913,229.3979068195913,229.3979068195913,229.3979068195913,229.3979068195913,230.09840024705045,"['l', 'h']","[0.6327033709094394, 0.656710380979348]","[None, None]",,,,,,,,,,,,,,,,,,,,,3004,2023-11-07_12h20.27.420,eb_03,2023.2.3,60.01273455471675,2023-11-07 12h20.41.927979 -0500,
,,,,0,0,0,0,72,0,72,0,230.11454205904738,,,,,,,,,,,,,,,,,,,,,,,,,,,,,,,,,,,,,,,,,,,,,,,,,,,,,,,,,,,,,,,,,,,,,,,,,,,,,,,,,,,,,,,,,,,,,,,,,,,,,,,,,,,230.10053550478187,1.0,"('j', 'k')",230.10099249944324,230.10100849726587,230.11454205904738,230.11454205904738,230.11454205904738,230.11454205904738,230.11454205904738,230.11454205904738,230.11454205904738,230.11454205904738,230.715020364034,"['j', 'k']","[0.5240756800048985, 0.5250717713788617]","[None, None]",,,,,,,,,,,,,,,,,,,,,3004,2023-11-07_12h20.27.420,eb_03,2023.2.3,60.01273455471675,2023-11-07 12h20.41.927979 -0500,
,,,,0,0,0,0,73,0,73,0,230.73116368529736,,,,,,,,,,,,,,,,,,,,,,,,,,,,,,,,,,,,,,,,,,,,,,,,,,,,,,,,,,,,,,,,,,,,,,,,,,,,,,,,,,,,,,,,,,,,,,,,,,,,,,,,,,,230.71711758919992,5.0,"('h',)",230.71768143729423,230.71769713328104,230.73116368529736,230.73116368529736,230.73116368529736,230.73116368529736,230.73116368529736,230.73116368529736,230.73116368529736,230.73116368529736,231.4482803689607,['h'],[0.6434759484545793],[None],,,,,,,,,,,,,,,,,,,,,3004,2023-11-07_12h20.27.420,eb_03,2023.2.3,60.01273455471675,2023-11-07 12h20.41.927979 -0500,
,,,,0,0,0,0,74,0,74,0,231.4644442157296,,,,,,,,,,,,,,,,,,,,,,,,,,,,,,,,,,,,,,,,,,,,,,,,,,,,,,,,,,,,,,,,,,,,,,,,,,,,,,,,,,,,,,,,,,,,,,,,,,,,,,,,,,,231.45035586119047,6.0,"('space',)",231.4508738287259,231.45089012841345,231.4644442157296,231.4644442157296,231.4644442157296,231.4644442157296,231.4644442157296,231.4644442157296,231.4644442157296,231.4644442157296,232.63153462368064,['space'],[1.0932413991249632],[None],,,,,,,,,,,,,,,,,,,,,3004,2023-11-07_12h20.27.420,eb_03,2023.2.3,60.01273455471675,2023-11-07 12h20.41.927979 -0500,
,,,,0,0,0,0,75,0,75,0,232.6476821707911,,,,,,,,,,,,,,,,,,,,,,,,,,,,,,,,,,,,,,,,,,,,,,,,,,,,,,,,,,,,,,,,,,,,,,,,,,,,,,,,,,,,,,,,,,,,,,,,,,,,,,,,,,,232.6336523743812,1.0,"('j', 'k')",232.6342171280121,232.63423372953548,232.6476821707911,232.6476821707911,232.6476821707911,232.6476821707911,232.6476821707911,232.6476821707911,232.6476821707911,232.6476821707911,234.98135528195417,"['j', 'k']","[2.2619765652925707, 2.2629391518130433]","[None, None]",,,,,,,,,,,,,,,,,,,,,3004,2023-11-07_12h20.27.420,eb_03,2023.2.3,60.01273455471675,2023-11-07 12h20.41.927979 -0500,
,,,,0,0,0,0,76,0,76,0,234.9975173176499,,,,,,,,,,,,,,,,,,,,,,,,,,,,,,,,,,,,,,,,,,,,,,,,,,,,,,,,,,,,,,,,,,,,,,,,,,,,,,,,,,,,,,,,,,,,,,,,,,,,,,,,,,,234.9834368111333,5.0,"('h',)",234.98406827272265,234.98408366684453,234.9975173176499,234.9975173176499,234.9975173176499,234.9975173176499,234.9975173176499,234.9975173176499,234.9975173176499,234.9975173176499,236.96452103549382,['h'],[1.896144794241991],[None],,,,,,,,,,,,,,,,,,,,,3004,2023-11-07_12h20.27.420,eb_03,2023.2.3,60.01273455471675,2023-11-07 12h20.41.927979 -0500,
,,,,0,0,0,0,77,0,77,0,236.98069061734714,,,,,,,,,,,,,,,,,,,,,,,,,,,,,,,,,,,,,,,,,,,,,,,,,,,,,,,,,,,,,,,,,,,,,,,,,,,,,,,,,,,,,,,,,,,,,,,,,,,,,,,,,,,236.96659411297878,1.0,"('j', 'k')",236.96712717280025,236.96714377432363,236.98069061734714,236.98069061734714,236.98069061734714,236.98069061734714,236.98069061734714,236.98069061734714,236.98069061734714,236.98069061734714,237.63119263231056,"['j', 'k']","[0.5689815931546036, 0.5699773826927412]","[None, None]",,,,,,,,,,,,,,,,,,,,,3004,2023-11-07_12h20.27.420,eb_03,2023.2.3,60.01273455471675,2023-11-07 12h20.41.927979 -0500,
,,,,0,0,0,0,78,0,78,0,237.647300939454,,,,,,,,,,,,,,,,,,,,,,,,,,,,,,,,,,,,,,,,,,,,,,,,,,,,,,,,,,,,,,,,,,,,,,,,,,,,,,,,,,,,,,,,,,,,,,,,,,,,,,,,,,,237.63325605072896,2.0,"('h', 'j')",237.6339309781033,237.6339466740901,237.647300939454,237.647300939454,237.647300939454,237.647300939454,237.647300939454,237.647300939454,237.647300939454,237.647300939454,238.547811934317,"['h', 'j']","[0.8223857354896609, 0.8543798893515486]","[None, None]",,,,,,,,,,,,,,,,,,,,,3004,2023-11-07_12h20.27.420,eb_03,2023.2.3,60.01273455471675,2023-11-07 12h20.41.927979 -0500,
,,,,0,0,0,0,79,0,79,0,238.56390001779073,,,,,,,,,,,,,,,,,,,,,,,,,,,,,,,,,,,,,,,,,,,,,,,,,,,,,,,,,,,,,,,,,,,,,,,,,,,,,,,,,,,,,,,,,,,,,,,,,,,,,,,,,,,238.54990915948292,4.0,"('h', 'k')",238.5504165624152,238.55043256023782,238.56390001779073,238.56390001779073,238.56390001779073,238.56390001779073,238.56390001779073,238.56390001779073,238.56390001779073,238.56390001779073,240.06432878985652,"['h', 'k']","[1.4017955000163056, 1.4027632179204375]","[None, None]",,,,,,,,,,,,,,,,,,,,,3004,2023-11-07_12h20.27.420,eb_03,2023.2.3,60.01273455471675,2023-11-07 12h20.41.927979 -0500,
,,,,0,0,0,0,80,0,80,0,240.08047875171178,,,,,,,,,,,,,,,,,,,,,,,,,,,,,,,,,,,,,,,,,,,,,,,,,,,,,,,,,,,,,,,,,,,,,,,,,,,,,,,,,,,,,,,,,,,,,,,,,,,,,,,,,,,240.0664323537785,11.0,"('j', 'l')",240.06704993045423,240.06706592827686,240.08047875171178,240.08047875171178,240.08047875171178,240.08047875171178,240.08047875171178,240.08047875171178,240.08047875171178,240.08047875171178,241.03092441207264,"['j', 'l']","[0.8532319694641046, 0.8542196091730148]","[None, None]",,,,,,,,,,,,,,,,,,,,,3004,2023-11-07_12h20.27.420,eb_03,2023.2.3,60.01273455471675,2023-11-07 12h20.41.927979 -0500,
,,,,0,0,0,0,81,0,81,0,241.0470496225753,,,,,,,,,,,,,,,,,,,,,,,,,,,,,,,,,,,,,,,,,,,,,,,,,,,,,,,,,,,,,,,,,,,,,,,,,,,,,,,,,,,,,,,,,,,,,,,,,,,,,,,,,,,241.03301741139148,13.0,"('h', 'l')",241.03358035394922,241.03359635177185,241.0470496225753,241.0470496225753,241.0470496225753,241.0470496225753,241.0470496225753,241.0470496225753,241.0470496225753,241.0470496225753,241.94756333407713,"['h', 'l']","[0.8306656697532162, 0.8316569316375535]","[None, None]",,,,,,,,,,,,,,,,,,,,,3004,2023-11-07_12h20.27.420,eb_03,2023.2.3,60.01273455471675,2023-11-07 12h20.41.927979 -0500,
,,,,0,0,0,0,82,0,82,0,241.9636496064486,,,,,,,,,,,,,,,,,,,,,,,,,,,,,,,,,,,,,,,,,,,,,,,,,,,,,,,,,,,,,,,,,,,,,,,,,,,,,,,,,,,,,,,,,,,,,,,,,,,,,,,,,,,241.94961588602746,4.0,"('h', 'k')",241.95021293716854,241.95022863315535,241.9636496064486,241.9636496064486,241.9636496064486,241.9636496064486,241.9636496064486,241.9636496064486,241.9636496064486,241.9636496064486,242.81416918884497,"['h', 'k']","[0.778072043962311, 0.7790611929085571]","[None, None]",,,,,,,,,,,,,,,,,,,,,3004,2023-11-07_12h20.27.420,eb_03,2023.2.3,60.01273455471675,2023-11-07 12h20.41.927979 -0500,
,,,,0,0,0,0,83,0,83,0,242.83025334830745,,,,,,,,,,,,,,,,,,,,,,,,,,,,,,,,,,,,,,,,,,,,,,,,,,,,,,,,,,,,,,,,,,,,,,,,,,,,,,,,,,,,,,,,,,,,,,,,,,,,,,,,,,,242.81626037709066,6.0,"('space',)",242.8168311676418,242.81684716546442,242.83025334830745,242.83025334830745,242.83025334830745,242.83025334830745,242.83025334830745,242.83025334830745,242.83025334830745,242.83025334830745,243.66408236286952,['space'],[0.7594484551227652],[None],,,,,,,,,,,,,,,,,,,,,3004,2023-11-07_12h20.27.420,eb_03,2023.2.3,60.01273455471675,2023-11-07 12h20.41.927979 -0500,
,,,,0,0,0,0,84,0,84,0,243.68020183831686,,,,,,,,,,,,,,,,,,,,,,,,,,,,,,,,,,,,,,,,,,,,,,,,,,,,,,,,,,,,,,,,,,,,,,,,,,,,,,,,,,,,,,,,,,,,,,,,,,,,,,,,,,,243.66617958803545,13.0,"('h', 'l')",243.6667023850896,243.66671898661298,243.68020183831686,243.68020183831686,243.68020183831686,243.68020183831686,243.68020183831686,243.68020183831686,243.68020183831686,243.68020183831686,244.83065691625234,"['h', 'l']","[1.0775324341084342, 1.078515847970266]","[None, None]",,,,,,,,,,,,,,,,,,,,,3004,2023-11-07_12h20.27.420,eb_03,2023.2.3,60.01273455471675,2023-11-07 12h20.41.927979 -0500,
,,,,0,0,0,0,85,0,85,0,244.84678605073714,,,,,,,,,,,,,,,,,,,,,,,,,,,,,,,,,,,,,,,,,,,,,,,,,,,,,,,,,,,,,,,,,,,,,,,,,,,,,,,,,,,,,,,,,,,,,,,,,,,,,,,,,,,244.83279609799501,10.0,"('l',)",244.8333505888586,244.83336719038198,244.84678605073714,244.84678605073714,244.84678605073714,244.84678605073714,244.84678605073714,244.84678605073714,244.84678605073714,244.84678605073714,245.48057063360466,['l'],[0.5509463019261602],[None],,,,,,,,,,,,,,,,,,,,,3004,2023-11-07_12h20.27.420,eb_03,2023.2.3,60.01273455471675,2023-11-07 12h20.41.927979 -0500,
,,,,0,0,0,0,86,0,86,0,245.4967483652872,,,,,,,,,,,,,,,,,,,,,,,,,,,,,,,,,,,,,,,,,,,,,,,,,,,,,,,,,,,,,,,,,,,,,,,,,,,,,,,,,,,,,,,,,,,,,,,,,,,,,,,,,,,245.48263284465065,11.0,"('j', 'l')",245.483266419149,245.48328241697163,245.4967483652872,245.4967483652872,245.4967483652872,245.4967483652872,245.4967483652872,245.4967483652872,245.4967483652872,245.4967483652872,246.64718201215146,"['j', 'l']","[1.07701024072594, 1.0780075395014137]","[None, None]",,,,,,,,,,,,,,,,,,,,,3004,2023-11-07_12h20.27.420,eb_03,2023.2.3,60.01273455471675,2023-11-07 12h20.41.927979 -0500,
,,,,0,0,0,0,87,0,87,0,246.6633126559027,,,,,,,,,,,,,,,,,,,,,,,,,,,,,,,,,,,,,,,,,,,,,,,,,,,,,,,,,,,,,,,,,,,,,,,,,,,,,,,,,,,,,,,,,,,,,,,,,,,,,,,,,,,246.64929704624228,8.0,"('j',)",246.6499055675231,246.64992156534572,246.6633126559027,246.6633126559027,246.6633126559027,246.6633126559027,246.6633126559027,246.6633126559027,246.6633126559027,246.6633126559027,247.630409040401,['j'],[0.8854968790546991],[None],,,,,,,,,,,,,,,,,,,,,3004,2023-11-07_12h20.27.420,eb_03,2023.2.3,60.01273455471675,2023-11-07 12h20.41.927979 -0500,
,,,,0,0,0,0,88,0,88,0,247.64657469827216,,,,,,,,,,,,,,,,,,,,,,,,,,,,,,,,,,,,,,,,,,,,,,,,,,,,,,,,,,,,,,,,,,,,,,,,,,,,,,,,,,,,,,,,,,,,,,,,,,,,,,,,,,,247.6325005305116,0.0,"('h', 'space')",247.63308852625778,247.63310512778116,247.64657469827216,247.64657469827216,247.64657469827216,247.64657469827216,247.64657469827216,247.64657469827216,247.64657469827216,247.64657469827216,248.69709132256685,"['h', 'space']","[0.9751918909605592, 1.0141816248942632]","[None, None]",,,,,,,,,,,,,,,,,,,,,3004,2023-11-07_12h20.27.420,eb_03,2023.2.3,60.01273455471675,2023-11-07 12h20.41.927979 -0500,
,,,,0,0,0,0,89,0,89,0,248.71315374912228,,,,,,,,,,,,,,,,,,,,,,,,,,,,,,,,,,,,,,,,,,,,,,,,,,,,,,,,,,,,,,,,,,,,,,,,,,,,,,,,,,,,,,,,,,,,,,,,,,,,,,,,,,,248.69920605479274,2.0,"('h', 'j')",248.69981004839065,248.69982604621327,248.71315374912228,248.71315374912228,248.71315374912228,248.71315374912228,248.71315374912228,248.71315374912228,248.71315374912228,248.71315374912228,250.26359264811617,"['h', 'j']","[1.4676205398864113, 1.4996741573850159]","[None, None]",,,,,,,,,,,,,,,,,,,,,3004,2023-11-07_12h20.27.420,eb_03,2023.2.3,60.01273455471675,2023-11-07 12h20.41.927979 -0500,
,,,,0,0,0,0,90,0,90,0,250.27973083799588,,,,,,,,,,,,,,,,,,,,,,,,,,,,,,,,,,,,,,,,,,,,,,,,,,,,,,,,,,,,,,,,,,,,,,,,,,,,,,,,,,,,,,,,,,,,,,,,,,,,,,,,,,,250.265703154495,3.0,"('k',)",250.2661963706778,250.26621297220117,250.27973083799588,250.27973083799588,250.27973083799588,250.27973083799588,250.27973083799588,250.27973083799588,250.27973083799588,250.27973083799588,251.61353766691172,['k'],[1.269053040072322],[None],,,,,,,,,,,,,,,,,,,,,3004,2023-11-07_12h20.27.420,eb_03,2023.2.3,60.01273455471675,2023-11-07 12h20.41.927979 -0500,
,,,,0,0,0,0,91,0,91,0,251.62961126174196,,,,,,,,,,,,,,,,,,,,,,,,,,,,,,,,,,,,,,,,,,,,,,,,,,,,,,,,,,,,,,,,,,,,,,,,,,,,,,,,,,,,,,,,,,,,,,,,,,,,,,,,,,,251.61562402560958,14.0,"('j', 'space')",251.6161878737039,251.6162047770922,251.62961126174196,251.62961126174196,251.62961126174196,251.62961126174196,251.62961126174196,251.62961126174196,251.62961126174196,251.62961126174196,256.14650602830807,"['j', 'space']","[4.43921774829505, 4.440205689839786]","[None, None]",,,,,,,,,,,,,,,,,,,,,3004,2023-11-07_12h20.27.420,eb_03,2023.2.3,60.01273455471675,2023-11-07 12h20.41.927979 -0500,
,,,,0,0,0,0,92,0,92,0,256.16260588375735,,,,,,,,,,,,,,,,,,,,,,,,,,,,,,,,,,,,,,,,,,,,,,,,,,,,,,,,,,,,,,,,,,,,,,,,,,,,,,,,,,,,,,,,,,,,,,,,,,,,,,,,,,,256.1486270993191,3.0,"('k',)",256.1492652015004,256.149281199323,256.16260588375735,256.16260588375735,256.16260588375735,256.16260588375735,256.16260588375735,256.16260588375735,256.16260588375735,256.16260588375735,257.1130793139455,['k'],[0.8742356130678672],[None],,,,,,,,,,,,,,,,,,,,,3004,2023-11-07_12h20.27.420,eb_03,2023.2.3,60.01273455471675,2023-11-07 12h20.41.927979 -0500,
,,,,0,0,0,0,93,0,93,0,257.12922806839924,,,,,,,,,,,,,,,,,,,,,,,,,,,,,,,,,,,,,,,,,,,,,,,,,,,,,,,,,,,,,,,,,,,,,,,,,,,,,,,,,,,,,,,,,,,,,,,,,,,,,,,,,,,257.1151783501846,5.0,"('h',)",257.11573163367575,257.11574823519913,257.12922806839924,257.12922806839924,257.12922806839924,257.12922806839924,257.12922806839924,257.12922806839924,257.12922806839924,257.12922806839924,259.16293580131605,['h'],[1.9555978676362429],[None],,,,,,,,,,,,,,,,,,,,,3004,2023-11-07_12h20.27.420,eb_03,2023.2.3,60.01273455471675,2023-11-07 12h20.41.927979 -0500,
,,,,0,0,0,0,94,0,94,0,259.17905829520896,,,,,,,,,,,,,,,,,,,,,,,,,,,,,,,,,,,,,,,,,,,,,,,,,,,,,,,,,,,,,,,,,,,,,,,,,,,,,,,,,,,,,,,,,,,,,,,,,,,,,,,,,,,259.1650514390785,3.0,"('k',)",259.16559415796655,259.16561106132576,259.17905829520896,259.17905829520896,259.17905829520896,259.17905829520896,259.17905829520896,259.17905829520896,259.17905829520896,259.17905829520896,260.2961440094805,['k'],[1.0338109642034397],[None],,,,,,,,,,,,,,,,,,,,,3004,2023-11-07_12h20.27.420,eb_03,2023.2.3,60.01273455471675,2023-11-07 12h20.41.927979 -0500,
,,,,0,0,0,0,95,0,95,0,260.31232747621834,,,,,,,,,,,,,,,,,,,,,,,,,,,,,,,,,,,,,,,,,,,,,,,,,,,,,,,,,,,,,,,,,,,,,,,,,,,,,,,,,,,,,,,,,,,,,,,,,,,,,,,,,,,260.29824515862856,5.0,"('h',)",260.298749844922,260.29876614460954,260.31232747621834,260.31232747621834,260.31232747621834,260.31232747621834,260.31232747621834,260.31232747621834,260.31232747621834,260.31232747621834,260.92943265955546,['h'],[0.5485399865719955],[None],,,,,,,,,,,,,,,,,,,,,3004,2023-11-07_12h20.27.420,eb_03,2023.2.3,60.01273455471675,2023-11-07 12h20.41.927979 -0500,
,,,,0,0,0,0,96,0,96,0,260.9456224650785,,,,,,,,,,,,,,,,,,,,,,,,,,,,,,,,,,,,,,,,,,,,,,,,,,,,,,,,,,,,,,,,,,,,,,,,,,,,,,,,,,,,,,,,,,,,,,,,,,,,,,,,,,,260.9314987945836,6.0,"('space',)",260.93205751129426,260.932073509146,260.9456224650785,260.9456224650785,260.9456224650785,260.9456224650785,260.9456224650785,260.9456224650785,260.9456224650785,260.9456224650785,261.6293625407561,['space'],[0.6112946501816623],[None],,,,,,,,,,,,,,,,,,,,,3004,2023-11-07_12h20.27.420,eb_03,2023.2.3,60.01273455471675,2023-11-07 12h20.41.927979 -0500,
,,,,0,0,0,0,97,0,97,0,261.6455426872126,,,,,,,,,,,,,,,,,,,,,,,,,,,,,,,,,,,,,,,,,,,,,,,,,,,,,,,,,,,,,,,,,,,,,,,,,,,,,,,,,,,,,,,,,,,,,,,,,,,,,,,,,,,261.6314392403874,8.0,"('j',)",261.63200912540196,261.6320230103156,261.6455426872126,261.6455426872126,261.6455426872126,261.6455426872126,261.6455426872126,261.6455426872126,261.6455426872126,261.6455426872126,262.44598060520366,['j'],[0.7193455136148259],[None],,,,,,,,,,,,,,,,,,,,,3004,2023-11-07_12h20.27.420,eb_03,2023.2.3,60.01273455471675,2023-11-07 12h20.41.927979 -0500,
,,,,0,0,0,0,98,0,98,0,262.47880694814376,,,,,,,,,,,,,,,,,,,,,,,,,,,,,,,,,,,,,,,,,,,,,,,,,,,,,,,,,,,,,,,,,,,,,,,,,,,,,,,,,,,,,,,,,,,,,,,,,,,,,,,,,,,262.4481083168066,14.0,"('j', 'space')",262.4486519412312,262.44866884459043,262.47880694814376,262.47880694814376,262.47880694814376,262.47880694814376,262.47880694814376,262.47880694814376,262.47880694814376,262.47880694814376,263.4793599297991,"['j', 'space']","[0.9260939422820229, 0.949116632953519]","[None, None]",,,,,,,,,,,,,,,,,,,,,3004,2023-11-07_12h20.27.420,eb_03,2023.2.3,60.01273455471675,2023-11-07 12h20.41.927979 -0500,
,,,,0,0,0,0,99,0,99,0,263.4954051511304,,,,,,,,,,,,,,,,,,,,,,,,,,,,,,,,,,,,,,,,,,,,,,,,,,,,,,,,,,,,,,,,,,,,,,,,,,,,,,,,,,,,,,,,,,,,,,,,,,,,,,,,,,,263.48147526569664,13.0,"('h', 'l')",263.4820427359373,263.4820572245517,263.4954051511304,263.4954051511304,263.4954051511304,263.4954051511304,263.4954051511304,263.4954051511304,263.4954051511304,263.4954051511304,264.3125487292418,"['h', 'l']","[0.7175084796035662, 0.7184915916295722]","[None, None]",,,,,,,,,,,,,,,,,,,,,3004,2023-11-07_12h20.27.420,eb_03,2023.2.3,60.01273455471675,2023-11-07 12h20.41.927979 -0500,
,,,,0,0,0,0,100,0,100,0,264.328677260055,,,,,,,,,,,,,,,,,,,,,,,,,,,,,,,,,,,,,,,,,,,,,,,,,,,,,,,,,,,,,,,,,,,,,,,,,,,,,,,,,,,,,,,,,,,,,,,,,,,,,,,,,,,264.31466165039456,3.0,"('k',)",264.31522549848887,264.3152414963406,264.328677260055,264.328677260055,264.328677260055,264.328677260055,264.328677260055,264.328677260055,264.328677260055,264.328677260055,264.929211406532,['k'],[0.5312173534766771],[None],,,,,,,,,,,,,,,,,,,,,3004,2023-11-07_12h20.27.420,eb_03,2023.2.3,60.01273455471675,2023-11-07 12h20.41.927979 -0500,
,,,,0,0,0,0,101,0,101,0,264.94530763980583,,,,,,,,,,,,,,,,,,,,,,,,,,,,,,,,,,,,,,,,,,,,,,,,,,,,,,,,,,,,,,,,,,,,,,,,,,,,,,,,,,,,,,,,,,,,,,,,,,,,,,,,,,,264.9312751267862,14.0,"('j', 'space')",264.93177770017064,264.931794301694,264.94530763980583,264.94530763980583,264.94530763980583,264.94530763980583,264.94530763980583,264.94530763980583,264.94530763980583,264.94530763980583,265.5624255006842,"['j', 'space']","[0.5466024378838483, 0.5626144561974797]","[None, None]",,,,,,,,,,,,,,,,,,,,,3004,2023-11-07_12h20.27.420,eb_03,2023.2.3,60.01273455471675,2023-11-07 12h20.41.927979 -0500,
,,,,0,0,0,0,102,0,102,0,265.57858451790526,,,,,,,,,,,,,,,,,,,,,,,,,,,,,,,,,,,,,,,,,,,,,,,,,,,,,,,,,,,,,,,,,,,,,,,,,,,,,,,,,,,,,,,,,,,,,,,,,,,,,,,,,,,265.56452544243075,9.0,"('l', 'space')",265.5651553947828,265.56517078893376,265.57858451790526,265.57858451790526,265.57858451790526,265.57858451790526,265.57858451790526,265.57858451790526,265.57858451790526,265.57858451790526,267.0628904942423,"['h', 'l', 'l', 'space']","[0.7053597866906784, 0.7063172418274917, 1.4493507144215982, 1.450331109808758]","[None, None, None, None]",,,,,,,,,,,,,,,,,,,,,3004,2023-11-07_12h20.27.420,eb_03,2023.2.3,60.01273455471675,2023-11-07 12h20.41.927979 -0500,
,,,,0,0,0,0,103,0,103,0,267.07850105752004,,,,,,,,,,,,,,,,,,,,,,,,,,,,,,,,,,,,,,,,,,,,,,,,,,,,,,,,,,,,,,,,,,,,,,,,,,,,,,,,,,,,,,,,,,,,,,,,,,,,,,,,,,,267.0649569311354,14.0,"('j', 'space')",267.06551142199896,267.06552681614994,267.07850105752004,267.07850105752004,267.07850105752004,267.07850105752004,267.07850105752004,267.07850105752004,267.07850105752004,267.07850105752004,270.1455223126104,"['j', 'space']","[2.989418490906246, 3.0134179548185784]","[None, None]",,,,,,,,,,,,,,,,,,,,,3004,2023-11-07_12h20.27.420,eb_03,2023.2.3,60.01273455471675,2023-11-07 12h20.41.927979 -0500,
,,,,0,0,0,0,104,0,104,0,270.1615841354651,,,,,,,,,,,,,,,,,,,,,,,,,,,,,,,,,,,,,,,,,,,,,,,,,,,,,,,,,,,,,,,,,,,,,,,,,,,,,,,,,,,,,,,,,,,,,,,,,,,,,,,,,,,270.14760535099776,5.0,"('h',)",270.1481178853137,270.14813177022734,270.1615841354651,270.1615841354651,270.1615841354651,270.1615841354651,270.1615841354651,270.1615841354651,270.1615841354651,270.1615841354651,270.962098722317,['h'],[0.7303870358155109],[None],,,,,,,,,,,,,,,,,,,,,3004,2023-11-07_12h20.27.420,eb_03,2023.2.3,60.01273455471675,2023-11-07 12h20.41.927979 -0500,
,,,,0,0,0,0,105,0,105,0,270.9781886168639,,,,,,,,,,,,,,,,,,,,,,,,,,,,,,,,,,,,,,,,,,,,,,,,,,,,,,,,,,,,,,,,,,,,,,,,,,,,,,,,,,,,,,,,,,,,,,,,,,,,,,,,,,,270.96415338720544,8.0,"('j',)",270.9646351332485,270.9646484144614,270.9781886168639,270.9781886168639,270.9781886168639,270.9781886168639,270.9781886168639,270.9781886168639,270.9781886168639,270.9781886168639,271.61203598364955,['j'],[0.5537643350544386],[None],,,,,,,,,,,,,,,,,,,,,3004,2023-11-07_12h20.27.420,eb_03,2023.2.3,60.01273455471675,2023-11-07 12h20.41.927979 -0500,
,,,,0,0,0,0,106,0,106,0,271.6281313114159,,,,,,,,,,,,,,,,,,,,,,,,,,,,,,,,,,,,,,,,,,,,,,,,,,,,,,,,,,,,,,,,,,,,,,,,,,,,,,,,,,,,,,,,,,,,,,,,,,,,,,,,,,,271.6140933651768,9.0,"('l', 'space')",271.61458567579393,271.614598655171,271.6281313114159,271.6281313114159,271.6281313114159,271.6281313114159,271.6281313114159,271.6281313114159,271.6281313114159,271.6281313114159,272.7619350614841,"['l', 'space']","[1.0558321302232798, 1.0568249013158493]","[None, None]",,,,,,,,,,,,,,,,,,,,,3004,2023-11-07_12h20.27.420,eb_03,2023.2.3,60.01273455471675,2023-11-07 12h20.41.927979 -0500,
,,,,0,0,0,0,107,0,107,0,272.7780699310533,,,,,,,,,,,,,,,,,,,,,,,,,,,,,,,,,,,,,,,,,,,,,,,,,,,,,,,,,,,,,,,,,,,,,,,,,,,,,,,,,,,,,,,,,,,,,,,,,,,,,,,,,,,272.76404013464344,11.0,"('j', 'l')",272.7645499523205,272.7645632335625,272.7780699310533,272.7780699310533,272.7780699310533,272.7780699310533,272.7780699310533,272.7780699310533,272.7780699310533,272.7780699310533,274.07849985014764,"['j', 'l']","[1.225929828680819, 1.2269044890417717]","[None, None]",,,,,,,,,,,,,,,,,,,,,3004,2023-11-07_12h20.27.420,eb_03,2023.2.3,60.01273455471675,2023-11-07 12h20.41.927979 -0500,
,,,,0,0,0,0,108,0,108,0,274.0946063461888,,,,,,,,,,,,,,,,,,,,,,,,,,,,,,,,,,,,,,,,,,,,,,,,,,,,,,,,,,,,,,,,,,,,,,,,,,,,,,,,,,,,,,,,,,,,,,,,,,,,,,,,,,,274.08058258669917,10.0,"('l',)",274.0810540699749,274.0810670493229,274.0946063461888,274.0946063461888,274.0946063461888,274.0946063461888,274.0946063461888,274.0946063461888,274.0946063461888,274.0946063461888,274.66176539391745,['l'],[0.48536998304189183],[None],,,,,,,,,,,,,,,,,,,,,3004,2023-11-07_12h20.27.420,eb_03,2023.2.3,60.01273455471675,2023-11-07 12h20.41.927979 -0500,
,,,,0,0,0,0,109,0,109,0,274.6779262222408,,,,,,,,,,,,,,,,,,,,,,,,,,,,,,,,,,,,,,,,,,,,,,,,,,,,,,,,,,,,,,,,,,,,,,,,,,,,,,,,,,,,,,,,,,,,,,,,,,,,,,,,,,,274.66397067991784,6.0,"('space',)",274.66444608717575,274.66445936838863,274.6779262222408,274.6779262222408,274.6779262222408,274.6779262222408,274.6779262222408,274.6779262222408,274.6779262222408,274.6779262222408,275.3284043913882,['space'],[0.5740559241967276],[None],,,,,,,,,,,,,,,,,,,,,3004,2023-11-07_12h20.27.420,eb_03,2023.2.3,60.01273455471675,2023-11-07 12h20.41.927979 -0500,
,,,,0,0,0,0,110,0,110,0,275.3445449960127,,,,,,,,,,,,,,,,,,,,,,,,,,,,,,,,,,,,,,,,,,,,,,,,,,,,,,,,,,,,,,,,,,,,,,,,,,,,,,,,,,,,,,,,,,,,,,,,,,,,,,,,,,,275.3305260660709,11.0,"('j', 'l')",275.3309667610447,275.3309800422576,275.3445449960127,275.3445449960127,275.3445449960127,275.3445449960127,275.3445449960127,275.3445449960127,275.3445449960127,275.3445449960127,276.07836009550374,"['j', 'l']","[0.6354562053456903, 0.6364498819748405]","[None, None]",,,,,,,,,,,,,,,,,,,,,3004,2023-11-07_12h20.27.420,eb_03,2023.2.3,60.01273455471675,2023-11-07 12h20.41.927979 -0500,
,,,,0,0,0,0,111,0,111,0,276.09447474140325,,,,,,,,,,,,,,,,,,,,,,,,,,,,,,,,,,,,,,,,,,,,,,,,,,,,,,,,,,,,,,,,,,,,,,,,,,,,,,,,,,,,,,,,,,,,,,,,,,,,,,,,,,,276.0804274379043,14.0,"('j', 'space')",276.08093363346416,276.08095717744436,276.09447474140325,276.09447474140325,276.09447474140325,276.09447474140325,276.09447474140325,276.09447474140325,276.09447474140325,276.09447474140325,277.5282927687804,"['space', 'j']","[1.3655498469888698, 1.3895631958148442]","[None, None]",,,,,,,,,,,,,,,,,,,,,3004,2023-11-07_12h20.27.420,eb_03,2023.2.3,60.01273455471675,2023-11-07 12h20.41.927979 -0500,
,,,,0,0,0,0,112,0,112,0,277.54438568177284,,,,,,,,,,,,,,,,,,,,,,,,,,,,,,,,,,,,,,,,,,,,,,,,,,,,,,,,,,,,,,,,,,,,,,,,,,,,,,,,,,,,,,,,,,,,,,,,,,,,,,,,,,,277.5303966345382,8.0,"('j',)",277.5309043393063,277.53091731868335,277.54438568177284,277.54438568177284,277.54438568177284,277.54438568177284,277.54438568177284,277.54438568177284,277.54438568177284,277.54438568177284,278.3282247930765,['j'],[0.7156319037894718],[None],,,,,,,,,,,,,,,,,,,,,3004,2023-11-07_12h20.27.420,eb_03,2023.2.3,60.01273455471675,2023-11-07 12h20.41.927979 -0500,
,,,,0,0,0,0,113,0,113,0,278.3443270632997,,,,,,,,,,,,,,,,,,,,,,,,,,,,,,,,,,,,,,,,,,,,,,,,,,,,,,,,,,,,,,,,,,,,,,,,,,,,,,,,,,,,,,,,,,,,,,,,,,,,,,,,,,,278.3303193016327,9.0,"('l', 'space')",278.33074913016753,278.3307624113804,278.3443270632997,278.3443270632997,278.3443270632997,278.3443270632997,278.3443270632997,278.3443270632997,278.3443270632997,278.3443270632997,279.56211399572203,"['h', 'l', 'space']","[0.6667494730500039, 1.2107496976095717, 1.2116857216751669]","[None, None, None]",,,,,,,,,,,,,,,,,,,,,3004,2023-11-07_12h20.27.420,eb_03,2023.2.3,60.01273455471675,2023-11-07 12h20.41.927979 -0500,
,,,,0,0,0,0,114,0,114,0,279.59421470118104,,,,,,,,,,,,,,,,,,,,,,,,,,,,,,,,,,,,,,,,,,,,,,,,,,,,,,,,,,,,,,,,,,,,,,,,,,,,,,,,,,,,,,,,,,,,,,,,,,,,,,,,,,,279.5642094098148,11.0,"('j', 'l')",279.564664593403,279.5646778746159,279.59421470118104,279.59421470118104,279.59421470118104,279.59421470118104,279.59421470118104,279.59421470118104,279.59421470118104,279.59421470118104,283.41117566253524,"['j', 'l']","[3.7448394164966885, 3.745833093125839]","[None, None]",,,,,,,,,,,,,,,,,,,,,3004,2023-11-07_12h20.27.420,eb_03,2023.2.3,60.01273455471675,2023-11-07 12h20.41.927979 -0500,
,,,,0,0,0,0,115,0,115,0,283.4272930250445,,,,,,,,,,,,,,,,,,,,,,,,,,,,,,,,,,,,,,,,,,,,,,,,,,,,,,,,,,,,,,,,,,,,,,,,,,,,,,,,,,,,,,,,,,,,,,,,,,,,,,,,,,,283.4132641341712,0.0,"('h', 'space')",283.4137923644448,283.4138053438219,283.4272930250445,283.4272930250445,283.4272930250445,283.4272930250445,283.4272930250445,283.4272930250445,283.4272930250445,283.4272930250445,284.77774363567005,"['h', 'space']","[1.2717768972797785, 1.2877798601984978]","[None, None]",,,,,,,,,,,,,,,,,,,,,3004,2023-11-07_12h20.27.420,eb_03,2023.2.3,60.01273455471675,2023-11-07 12h20.41.927979 -0500,
,,,,0,0,0,0,116,0,116,0,284.7938543575583,,,,,,,,,,,,,,,,,,,,,,,,,,,,,,,,,,,,,,,,,,,,,,,,,,,,,,,,,,,,,,,,,,,,,,,,,,,,,,,,,,,,,,,,,,,,,,,,,,,,,,,,,,,284.77986289557884,6.0,"('space',)",284.78038207048667,284.78039535169955,284.7938543575583,284.7938543575583,284.7938543575583,284.7938543575583,284.7938543575583,284.7938543575583,284.7938543575583,284.7938543575583,285.7781043414725,"['h', 'space']","[0.5212123700184748, 0.9052258275041822]","[None, None]",,,,,,,,,,,,,,,,,,,,,3004,2023-11-07_12h20.27.420,eb_03,2023.2.3,60.01273455471675,2023-11-07 12h20.41.927979 -0500,
,,,,0,0,0,0,117,0,117,0,285.7937737647153,,,,,,,,,,,,,,,,,,,,,,,,,,,,,,,,,,,,,,,,,,,,,,,,,,,,,,,,,,,,,,,,,,,,,,,,,,,,,,,,,,,,,,,,,,,,,,,,,,,,,,,,,,,285.7801825503702,9.0,"('l', 'space')",285.78065946683637,285.78067244621343,285.7937737647153,285.7937737647153,285.7937737647153,285.7937737647153,285.7937737647153,285.7937737647153,285.7937737647153,285.7937737647153,287.52757105528144,"['l', 'space']","[1.6573385222582147, 1.6583122770534828]","[None, None]",,,,,,,,,,,,,,,,,,,,,3004,2023-11-07_12h20.27.420,eb_03,2023.2.3,60.01273455471675,2023-11-07 12h20.41.927979 -0500,
,,,,0,0,0,0,118,0,118,0,287.54367030702997,,,,,,,,,,,,,,,,,,,,,,,,,,,,,,,,,,,,,,,,,,,,,,,,,,,,,,,,,,,,,,,,,,,,,,,,,,,,,,,,,,,,,,,,,,,,,,,,,,,,,,,,,,,287.5296875985805,2.0,"('h', 'j')",287.5301762870513,287.5301895682642,287.54367030702997,287.54367030702997,287.54367030702997,287.54367030702997,287.54367030702997,287.54367030702997,287.54367030702997,287.54367030702997,289.37746159086237,"['h', 'j']","[1.7554586563201156, 1.7564357314258814]","[None, None]",,,,,,,,,,,,,,,,,,,,,3004,2023-11-07_12h20.27.420,eb_03,2023.2.3,60.01273455471675,2023-11-07 12h20.41.927979 -0500,
,,,,0,0,0,0,119,0,119,0,289.3935191878991,,,,,,,,,,,,,,,,,,,,,,,,,,,,,,,,,,,,,,,,,,,,,,,,,,,,,,,,,,,,,,,,,,,,,,,,,,,,,,,,,,,,,,,,,,,,,,,,,,,,,,,,,,,289.3795708898688,4.0,"('h', 'k')",289.38016673363745,289.38019148499006,289.3935191878991,289.3935191878991,289.3935191878991,289.3935191878991,289.3935191878991,289.3935191878991,289.3935191878991,289.3935191878991,290.29396951175295,"['h', 'k']","[0.8255952627223451, 0.826601616863627]","[None, None]",,,,,,,,,,,,,,,,,,,,,3004,2023-11-07_12h20.27.420,eb_03,2023.2.3,60.01273455471675,2023-11-07 12h20.41.927979 -0500,
,,,,0,0,0,0,120,0,120,0,290.31011856807163,,,,,,,,,,,,,,,,,,,,,,,,,,,,,,,,,,,,,,,,,,,,,,,,,,,,,,,,,,,,,,,,,,,,,,,,,,,,,,,,,,,,,,,,,,,,,,,,,,,,,,,,,,,290.29604077816475,14.0,"('j', 'space')",290.29649022669764,290.29650380974635,290.31011856807163,290.31011856807163,290.31011856807163,290.31011856807163,290.31011856807163,290.31011856807163,290.31011856807163,290.31011856807163,293.4445842661662,"['k', 'space', 'j', 'space']","[1.469023821351584, 1.4700078389141709, 3.0769990724220406, 3.077988825039938]","[None, None, None, None]",,,,,,,,,,,,,,,,,,,,,3004,2023-11-07_12h20.27.420,eb_03,2023.2.3,60.01273455471675,2023-11-07 12h20.41.927979 -0500,
,,,,0,0,0,0,121,0,121,0,293.4599050574179,,,,,,,,,,,,,,,,,,,,,,,,,,,,,,,,,,,,,,,,,,,,,,,,,,,,,,,,,,,,,,,,,,,,,,,,,,,,,,,,,,,,,,,,,,,,,,,,,,,,,,,,,,,293.4467171091528,14.0,"('j', 'space')",293.44727220371715,293.4472872960032,293.4599050574179,293.4599050574179,293.4599050574179,293.4599050574179,293.4599050574179,293.4599050574179,293.4599050574179,293.4599050574179,294.8436719068268,"['j', 'space']","[1.3112725248502102, 1.312240242754342]","[None, None]",,,,,,,,,,,,,,,,,,,,,3004,2023-11-07_12h20.27.420,eb_03,2023.2.3,60.01273455471675,2023-11-07 12h20.41.927979 -0500,
,,,,0,0,0,0,122,0,122,0,294.8597853453248,,,,,,,,,,,,,,,,,,,,,,,,,,,,,,,,,,,,,,,,,,,,,,,,,,,,,,,,,,,,,,,,,,,,,,,,,,,,,,,,,,,,,,,,,,,,,,,,,,,,,,,,,,,294.84574830462225,5.0,"('h',)",294.8462028845097,294.8462164675584,294.8597853453248,294.8597853453248,294.8597853453248,294.8597853453248,294.8597853453248,294.8597853453248,294.8597853453248,294.8597853453248,295.82686150618247,['h'],[0.8944275930698495],[None],,,,,,,,,,,,,,,,,,,,,3004,2023-11-07_12h20.27.420,eb_03,2023.2.3,60.01273455471675,2023-11-07 12h20.41.927979 -0500,
,,,,0,0,0,0,123,0,123,0,295.8430470858584,,,,,,,,,,,,,,,,,,,,,,,,,,,,,,,,,,,,,,,,,,,,,,,,,,,,,,,,,,,,,,,,,,,,,,,,,,,,,,,,,,,,,,,,,,,,,,,,,,,,,,,,,,,295.82891586923506,11.0,"('j', 'l')",295.829463115806,295.82947609518305,295.8430470858584,295.8430470858584,295.8430470858584,295.8430470858584,295.8430470858584,295.8430470858584,295.8430470858584,295.8430470858584,297.8267637081153,"['l', 'j']","[1.9031364503316581, 1.9191213025187608]","[None, None]",,,,,,,,,,,,,,,,,,,,,3004,2023-11-07_12h20.27.420,eb_03,2023.2.3,60.01273455471675,2023-11-07 12h20.41.927979 -0500,
,,,,0,0,0,0,124,0,124,0,297.84291548104375,,,,,,,,,,,,,,,,,,,,,,,,,,,,,,,,,,,,,,,,,,,,,,,,,,,,,,,,,,,,,,,,,,,,,,,,,,,,,,,,,,,,,,,,,,,,,,,,,,,,,,,,,,,297.828854896361,1.0,"('j', 'k')",297.82934992358787,297.8293638085015,297.84291548104375,297.84291548104375,297.84291548104375,297.84291548104375,297.84291548104375,297.84291548104375,297.84291548104375,297.84291548104375,298.5766871147207,"['j', 'k']","[0.6552693687845021, 0.6562633472494781]","[None, None]",,,,,,,,,,,,,,,,,,,,,3004,2023-11-07_12h20.27.420,eb_03,2023.2.3,60.01273455471675,2023-11-07 12h20.41.927979 -0500,
,,,,0,0,0,0,125,0,125,0,298.59284009505063,,,,,,,,,,,,,,,,,,,,,,,,,,,,,,,,,,,,,,,,,,,,,,,,,,,,,,,,,,,,,,,,,,,,,,,,,,,,,,,,,,,,,,,,,,,,,,,,,,,,,,,,,,,298.57883474812843,11.0,"('j', 'l')",298.5792983834108,298.5793116646237,298.59284009505063,298.59284009505063,298.59284009505063,298.59284009505063,298.59284009505063,298.59284009505063,298.59284009505063,298.59284009505063,299.24336867243983,"['j', 'l']","[0.5773671734787058, 0.5783611519436818]","[None, None]",,,,,,,,,,,,,,,,,,,,,3004,2023-11-07_12h20.27.420,eb_03,2023.2.3,60.01273455471675,2023-11-07 12h20.41.927979 -0500,
,,,,0,0,0,0,126,0,126,0,299.25945554851205,,,,,,,,,,,,,,,,,,,,,,,,,,,,,,,,,,,,,,,,,,,,,,,,,,,,,,,,,,,,,,,,,,,,,,,,,,,,,,,,,,,,,,,,,,,,,,,,,,,,,,,,,,,299.2454677086789,13.0,"('h', 'l')",299.245975413447,299.2459886946599,299.25945554851205,299.25945554851205,299.25945554851205,299.25945554851205,299.25945554851205,299.25945554851205,299.25945554851205,299.25945554851205,300.39320557002793,"['h', 'l']","[1.0627489285252523, 1.063740794081241]","[None, None]",,,,,,,,,,,,,,,,,,,,,3004,2023-11-07_12h20.27.420,eb_03,2023.2.3,60.01273455471675,2023-11-07 12h20.41.927979 -0500,
,,,,0,0,0,0,127,0,127,0,300.40936639835127,,,,,,,,,,,,,,,,,,,,,,,,,,,,,,,,,,,,,,,,,,,,,,,,,,,,,,,,,,,,,,,,,,,,,,,,,,,,,,,,,,,,,,,,,,,,,,,,,,,,,,,,,,,300.39528951398097,14.0,"('j', 'space')",300.39573322740034,300.39574681047816,300.40936639835127,300.40936639835127,300.40936639835127,300.40936639835127,300.40936639835127,300.40936639835127,300.40936639835127,300.40936639835127,302.22643330760184,"['j', 'space']","[1.7448859007563442, 1.745844563265564]","[None, None]",,,,,,,,,,,,,,,,,,,,,3004,2023-11-07_12h20.27.420,eb_03,2023.2.3,60.01273455471675,2023-11-07 12h20.41.927979 -0500,
,,,,0,0,0,0,128,0,128,0,302.24257843993837,,,,,,,,,,,,,,,,,,,,,,,,,,,,,,,,,,,,,,,,,,,,,,,,,,,,,,,,,,,,,,,,,,,,,,,,,,,,,,,,,,,,,,,,,,,,,,,,,,,,,,,,,,,302.22849702788517,10.0,"('l',)",302.22894315607846,302.22895643732045,302.24257843993837,302.24257843993837,302.24257843993837,302.24257843993837,302.24257843993837,302.24257843993837,302.24257843993837,302.24257843993837,302.84302957879845,['l'],[0.5276576850446872],[None],,,,,,,,,,,,,,,,,,,,,3004,2023-11-07_12h20.27.420,eb_03,2023.2.3,60.01273455471675,2023-11-07 12h20.41.927979 -0500,
,,,,0,0,0,0,129,0,129,0,302.85920942339,,,,,,,,,,,,,,,,,,,,,,,,,,,,,,,,,,,,,,,,,,,,,,,,,,,,,,,,,,,,,,,,,,,,,,,,,,,,,,,,,,,,,,,,,,,,,,,,,,,,,,,,,,,302.84508514922345,14.0,"('j', 'space')",302.84559858904686,302.84561187028885,302.85920942339,302.85920942339,302.85920942339,302.85920942339,302.85920942339,302.85920942339,302.85920942339,302.85920942339,303.50965801163693,"['j', 'space']","[0.5829887510917615, 0.5839905775792431]","[None, None]",,,,,,,,,,,,,,,,,,,,,3004,2023-11-07_12h20.27.420,eb_03,2023.2.3,60.01273455471675,2023-11-07 12h20.41.927979 -0500,
,,,,0,0,0,0,130,0,130,0,303.52583423411124,,,,,,,,,,,,,,,,,,,,,,,,,,,,,,,,,,,,,,,,,,,,,,,,,,,,,,,,,,,,,,,,,,,,,,,,,,,,,,,,,,,,,,,,,,,,,,,,,,,,,,,,,,,303.5117884398496,4.0,"('h', 'k')",303.51219804471475,303.51221162776346,303.52583423411124,303.52583423411124,303.52583423411124,303.52583423411124,303.52583423411124,303.52583423411124,303.52583423411124,303.52583423411124,304.60960914278985,"['h', 'k']","[1.0043758596875705, 1.0053957969066687]","[None, None]",,,,,,,,,,,,,,,,,,,,,3004,2023-11-07_12h20.27.420,eb_03,2023.2.3,60.01273455471675,2023-11-07 12h20.41.927979 -0500,
,,,,0,0,0,0,131,0,131,0,304.62573827730375,,,,,,,,,,,,,,,,,,,,,,,,,,,,,,,,,,,,,,,,,,,,,,,,,,,,,,,,,,,,,,,,,,,,,,,,,,,,,,,,,,,,,,,,,,,,,,,,,,,,,,,,,,,304.6117392691667,3.0,"('k',)",304.61219716936466,304.61221135611413,304.62573827730375,304.62573827730375,304.62573827730375,304.62573827730375,304.62573827730375,304.62573827730375,304.62573827730375,304.62573827730375,305.3594996482134,['k'],[0.6565078424173407],[None],,,,,,,,,,,,,,,,,,,,,3004,2023-11-07_12h20.27.420,eb_03,2023.2.3,60.01273455471675,2023-11-07 12h20.41.927979 -0500,
,,,,0,0,0,0,132,0,132,0,305.3756879444991,,,,,,,,,,,,,,,,,,,,,,,,,,,,,,,,,,,,,,,,,,,,,,,,,,,,,,,,,,,,,,,,,,,,,,,,,,,,,,,,,,,,,,,,,,,,,,,,,,,,,,,,,,,305.3615808755276,12.0,"('k', 'l')",305.36203454987844,305.3620475292555,305.3756879444991,305.3756879444991,305.3756879444991,305.3756879444991,305.3756879444991,305.3756879444991,305.3756879444991,305.3756879444991,307.04328711368726,"['l', 'j', 'k', 'l']","[0.698546219675336, 0.7145428438379895, 1.6185682303039357, 1.6195622087689117]","[None, None, None, None]",,,,,,,,,,,,,,,,,,,,,3004,2023-11-07_12h20.27.420,eb_03,2023.2.3,60.01273455471675,2023-11-07 12h20.41.927979 -0500,
,,,,0,0,0,0,133,0,133,0,307.05890824156813,,,,,,,,,,,,,,,,,,,,,,,,,,,,,,,,,,,,,,,,,,,,,,,,,,,,,,,,,,,,,,,,,,,,,,,,,,,,,,,,,,,,,,,,,,,,,,,,,,,,,,,,,,,307.04540184591315,0.0,"('h', 'space')",307.04587695133523,307.04589053438394,307.05890824156813,307.05890824156813,307.05890824156813,307.05890824156813,307.05890824156813,307.05890824156813,307.05890824156813,307.05890824156813,308.32601196094765,"['h', 'space']","[1.1913609295152128, 1.2233267098490614]","[None, None]",,,,,,,,,,,,,,,,,,,,,3004,2023-11-07_12h20.27.420,eb_03,2023.2.3,60.01273455471675,2023-11-07 12h20.41.927979 -0500,
,,,,0,0,0,0,134,0,134,0,308.3421504526632,,,,,,,,,,,,,,,,,,,,,,,,,,,,,,,,,,,,,,,,,,,,,,,,,,,,,,,,,,,,,,,,,,,,,,,,,,,,,,,,,,,,,,,,,,,,,,,,,,,,,,,,,,,308.3281215617899,12.0,"('k', 'l')",308.32860542074195,308.32861900379066,308.3421504526632,308.3421504526632,308.3421504526632,308.3421504526632,308.3421504526632,308.3421504526632,308.3421504526632,308.3421504526632,309.3259467622556,"['k', 'l']","[0.9081398475973401, 0.9091344297921751]","[None, None]",,,,,,,,,,,,,,,,,,,,,3004,2023-11-07_12h20.27.420,eb_03,2023.2.3,60.01273455471675,2023-11-07 12h20.41.927979 -0500,
,,,,0,0,0,0,135,0,135,0,309.3420589933812,,,,,,,,,,,,,,,,,,,,,,,,,,,,,,,,,,,,,,,,,,,,,,,,,,,,,,,,,,,,,,,,,,,,,,,,,,,,,,,,,,,,,,,,,,,,,,,,,,,,,,,,,,,309.3280503261776,9.0,"('l', 'space')",309.3286024022673,309.3286180982541,309.3420589933812,309.3420589933812,309.3420589933812,309.3420589933812,309.3420589933812,309.3420589933812,309.3420589933812,309.3420589933812,310.27587113477057,"['l', 'space']","[0.8602257384336554, 0.8752317044418305]","[None, None]",,,,,,,,,,,,,,,,,,,,,3004,2023-11-07_12h20.27.420,eb_03,2023.2.3,60.01273455471675,2023-11-07 12h20.41.927979 -0500,
,,,,0,0,0,0,136,0,136,0,310.2920050987741,,,,,,,,,,,,,,,,,,,,,,,,,,,,,,,,,,,,,,,,,,,,,,,,,,,,,,,,,,,,,,,,,,,,,,,,,,,,,,,,,,,,,,,,,,,,,,,,,,,,,,,,,,,310.27798133928445,10.0,"('l',)",310.2784830071323,310.2784987031191,310.2920050987741,310.2920050987741,310.2920050987741,310.2920050987741,310.2920050987741,310.2920050987741,310.2920050987741,310.2920050987741,310.8590799315134,['l'],[0.49429798041819595],[None],,,,,,,,,,,,,,,,,,,,,3004,2023-11-07_12h20.27.420,eb_03,2023.2.3,60.01273455471675,2023-11-07 12h20.41.927979 -0500,
,,,,0,0,0,0,137,0,137,0,310.87528543302324,,,,,,,,,,,,,,,,,,,,,,,,,,,,,,,,,,,,,,,,,,,,,,,,,,,,,,,,,,,,,,,,,,,,,,,,,,,,,,,,,,,,,,,,,,,,,,,,,,,,,,,,,,,310.8611856083444,4.0,"('h', 'k')",310.8617138386471,310.8617301383347,310.87528543302324,310.87528543302324,310.87528543302324,310.87528543302324,310.87528543302324,310.87528543302324,310.87528543302324,310.87528543302324,312.2596906864492,"['j', 'k', 'h']","[0.8620054217462894, 0.8630156998988241, 1.3420094906468876]","[None, None, None]",,,,,,,,,,,,,,,,,,,,,3004,2023-11-07_12h20.27.420,eb_03,2023.2.3,60.01273455471675,2023-11-07 12h20.41.927979 -0500,
,,,,0,0,0,0,138,0,138,0,312.27516964494134,,,,,,,,,,,,,,,,,,,,,,,,,,,,,,,,,,,,,,,,,,,,,,,,,,,,,,,,,,,,,,,,,,,,,,,,,,,,,,,,,,,,,,,,,,,,,,,,,,,,,,,,,,,312.26179515593685,14.0,"('j', 'space')",312.26232640465605,312.2623424025078,312.27516964494134,312.27516964494134,312.27516964494134,312.27516964494134,312.27516964494134,312.27516964494134,312.27516964494134,312.27516964494134,315.1593589276599,"['k', 'j', 'space']","[0.014131820324109867, 2.8061600103101227, 2.8071539887750987]","[None, None, None]",,,,,,,,,,,,,,,,,,,,,3004,2023-11-07_12h20.27.420,eb_03,2023.2.3,60.01273455471675,2023-11-07 12h20.41.927979 -0500,
,,,,0,0,0,0,139,0,139,0,315.1749598318711,,,,,,,,,,,,,,,,,,,,,,,,,,,,,,,,,,,,,,,,,,,,,,,,,,,,,,,,,,,,,,,,,,,,,,,,,,,,,,,,,,,,,,,,,,,,,,,,,,,,,,,,,,,315.16152889767545,6.0,"('space',)",315.162068296253,315.1620842940756,315.1749598318711,315.1749598318711,315.1749598318711,315.1749598318711,315.1749598318711,315.1749598318711,315.1749598318711,315.1749598318711,315.97539533508825,['space'],[0.722374838864198],[None],,,,,,,,,,,,,,,,,,,,,3004,2023-11-07_12h20.27.420,eb_03,2023.2.3,60.01273455471675,2023-11-07 12h20.41.927979 -0500,
,,,,0,0,0,0,140,0,140,0,315.99158725354937,,,,,,,,,,,,,,,,,,,,,,,,,,,,,,,,,,,,,,,,,,,,,,,,,,,,,,,,,,,,,,,,,,,,,,,,,,,,,,,,,,,,,,,,,,,,,,,,,,,,,,,,,,,315.9774982953386,12.0,"('k', 'l')",315.978050975129,315.97806697295164,315.99158725354937,315.99158725354937,315.99158725354937,315.99158725354937,315.99158725354937,315.99158725354937,315.99158725354937,315.99158725354937,317.00867776715313,"['k', 'l']","[0.9457537680282257, 0.9467468409566209]","[None, None]",,,,,,,,,,,,,,,,,,,,,3004,2023-11-07_12h20.27.420,eb_03,2023.2.3,60.01273455471675,2023-11-07 12h20.41.927979 -0500,
,,,,0,0,0,0,141,0,141,0,317.0248443305318,,,,,,,,,,,,,,,,,,,,,,,,,,,,,,,,,,,,,,,,,,,,,,,,,,,,,,,,,,,,,,,,,,,,,,,,,,,,,,,,,,,,,,,,,,,,,,,,,,,,,,,,,,,317.0108091009024,4.0,"('h', 'k')",317.0113279739744,317.01134397179703,317.0248443305318,317.0248443305318,317.0248443305318,317.0248443305318,317.0248443305318,317.0248443305318,317.0248443305318,317.0248443305318,318.3919773591624,"['h', 'k']","[1.288509421661729, 1.30447405015002]","[None, None]",,,,,,,,,,,,,,,,,,,,,3004,2023-11-07_12h20.27.420,eb_03,2023.2.3,60.01273455471675,2023-11-07 12h20.41.927979 -0500,
,,,,0,0,0,0,142,0,142,0,318.4080548780039,,,,,,,,,,,,,,,,,,,,,,,,,,,,,,,,,,,,,,,,,,,,,,,,,,,,,,,,,,,,,,,,,,,,,,,,,,,,,,,,,,,,,,,,,,,,,,,,,,,,,,,,,,,318.39409722274286,0.0,"('h', 'space')",318.3946972923586,318.3947135920462,318.4080548780039,318.4080548780039,318.4080548780039,318.4080548780039,318.4080548780039,318.4080548780039,318.4080548780039,318.4080548780039,321.3583722538606,"['h', 'space']","[2.881323256122414, 2.8823145179776475]","[None, None]",,,,,,,,,,,,,,,,,,,,,3004,2023-11-07_12h20.27.420,eb_03,2023.2.3,60.01273455471675,2023-11-07 12h20.41.927979 -0500,
,,,,0,0,0,0,143,0,143,0,321.37452100831433,,,,,,,,,,,,,,,,,,,,,,,,,,,,,,,,,,,,,,,,,,,,,,,,,,,,,,,,,,,,,,,,,,,,,,,,,,,,,,,,,,,,,,,,,,,,,,,,,,,,,,,,,,,321.360468271625,11.0,"('j', 'l')",321.36106622830266,321.3610822261544,321.37452100831433,321.37452100831433,321.37452100831433,321.37452100831433,321.37452100831433,321.37452100831433,321.37452100831433,321.37452100831433,323.2087068047258,"['j', 'l']","[1.6668807759997435, 1.7628665578376967]","[None, None]",,,,,,,,,,,,,,,,,,,,,3004,2023-11-07_12h20.27.420,eb_03,2023.2.3,60.01273455471675,2023-11-07 12h20.41.927979 -0500,
,,,,0,0,0,0,144,0,144,0,323.22435449506156,,,,,,,,,,,,,,,,,,,,,,,,,,,,,,,,,,,,,,,,,,,,,,,,,,,,,,,,,,,,,,,,,,,,,,,,,,,,,,,,,,,,,,,,,,,,,,,,,,,,,,,,,,,323.2108049354283,3.0,"('k',)",323.21147201480926,323.21148771079606,323.22435449506156,323.22435449506156,323.22435449506156,323.22435449506156,323.22435449506156,323.22435449506156,323.22435449506156,323.22435449506156,324.0414733218204,['k'],[0.7370370023709256],[None],,,,,,,,,,,,,,,,,,,,,3004,2023-11-07_12h20.27.420,eb_03,2023.2.3,60.01273455471675,2023-11-07 12h20.41.927979 -0500,
,,,,0,0,0,0,145,0,145,0,324.05766614578897,,,,,,,,,,,,,,,,,,,,,,,,,,,,,,,,,,,,,,,,,,,,,,,,,,,,,,,,,,,,,,,,,,,,,,,,,,,,,,,,,,,,,,,,,,,,,,,,,,,,,,,,,,,324.0435473048419,11.0,"('j', 'l')",324.0441060215526,324.04412262307596,324.05766614578897,324.05766614578897,324.05766614578897,324.05766614578897,324.05766614578897,324.05766614578897,324.05766614578897,324.05766614578897,324.6248309285729,"['j', 'l']","[0.48774400088586845, 0.4887355645769276]","[None, None]",,,,,,,,,,,,,,,,,,,,,3004,2023-11-07_12h20.27.420,eb_03,2023.2.3,60.01273455471675,2023-11-07 12h20.41.927979 -0500,
,,,,0,0,0,0,146,0,146,0,324.6409449708008,,,,,,,,,,,,,,,,,,,,,,,,,,,,,,,,,,,,,,,,,,,,,,,,,,,,,,,,,,,,,,,,,,,,,,,,,,,,,,,,,,,,,,,,,,,,,,,,,,,,,,,,,,,324.6269175891357,6.0,"('space',)",324.62743495297036,324.62745064895716,324.6409449708008,324.6409449708008,324.6409449708008,324.6409449708008,324.6409449708008,324.6409449708008,324.6409449708008,324.6409449708008,325.32465214526746,['space'],[0.6084802391997073],[None],,,,,,,,,,,,,,,,,,,,,3004,2023-11-07_12h20.27.420,eb_03,2023.2.3,60.01273455471675,2023-11-07 12h20.41.927979 -0500,
,,,,0,0,0,0,147,0,147,0,325.34090533840936,,,,,,,,,,,,,,,,,,,,,,,,,,,,,,,,,,,,,,,,,,,,,,,,,,,,,,,,,,,,,,,,,,,,,,,,,,,,,,,,,,,,,,,,,,,,,,,,,,,,,,,,,,,325.3267137526127,11.0,"('j', 'l')",325.32731834991137,325.32733495143475,325.34090533840936,325.34090533840936,325.34090533840936,325.34090533840936,325.34090533840936,325.34090533840936,325.34090533840936,325.34090533840936,325.9913340048515,"['j', 'l']","[0.5724854200962, 0.5734769838163629]","[None, None]",,,,,,,,,,,,,,,,,,,,,3004,2023-11-07_12h20.27.420,eb_03,2023.2.3,60.01273455471675,2023-11-07 12h20.41.927979 -0500,
,,,,0,0,0,0,148,0,148,0,326.00752169743646,,,,,,,,,,,,,,,,,,,,,,,,,,,,,,,,,,,,,,,,,,,,,,,,,,,,,,,,,,,,,,,,,,,,,,,,,,,,,,,,,,,,,,,,,,,,,,,,,,,,,,,,,,,325.99346050905297,12.0,"('k', 'l')",325.9939763636503,325.9939920596371,326.00752169743646,326.00752169743646,326.00752169743646,326.00752169743646,326.00752169743646,326.00752169743646,326.00752169743646,326.00752169743646,326.9079828877584,"['k', 'l']","[0.8249200334830675, 0.8258865439856891]","[None, None]",,,,,,,,,,,,,,,,,,,,,3004,2023-11-07_12h20.27.420,eb_03,2023.2.3,60.01273455471675,2023-11-07 12h20.41.927979 -0500,
,,,,0,0,0,0,149,0,149,0,326.9241029668774,,,,,,,,,,,,,,,,,,,,,,,,,,,,,,,,,,,,,,,,,,,,,,,,,,,,,,,,,,,,,,,,,,,,,,,,,,,,,,,,,,,,,,,,,,,,,,,,,,,,,,,,,,,326.9100472117134,13.0,"('h', 'l')",326.9106469794933,326.9106626754801,326.9241029668774,326.9241029668774,326.9241029668774,326.9241029668774,326.9241029668774,326.9241029668774,326.9241029668774,326.9241029668774,328.54114596996806,"['h', 'l']","[1.5483413719921373, 1.5493184470979031]","[None, None]",,,,,,,,,,,,,,,,,,,,,3004,2023-11-07_12h20.27.420,eb_03,2023.2.3,60.01273455471675,2023-11-07 12h20.41.927979 -0500,
,,,,0,0,0,0,150,0,150,0,328.55731192964595,,,,,,,,,,,,,,,,,,,,,,,,,,,,,,,,,,,,,,,,,,,,,,,,,,,,,,,,,,,,,,,,,,,,,,,,,,,,,,,,,,,,,,,,,,,,,,,,,,,,,,,,,,,328.5432163308433,6.0,"('space',)",328.54396732337773,328.54398332120036,328.55731192964595,328.55731192964595,328.55731192964595,328.55731192964595,328.55731192964595,328.55731192964595,328.55731192964595,328.55731192964595,329.6577272997529,['space'],[1.0271250779624097],[None],,,,,,,,,,,,,,,,,,,,,3004,2023-11-07_12h20.27.420,eb_03,2023.2.3,60.01273455471675,2023-11-07 12h20.41.927979 -0500,
,,,,0,0,0,0,151,0,151,0,329.67391197389225,,,,,,,,,,,,,,,,,,,,,,,,,,,,,,,,,,,,,,,,,,,,,,,,,,,,,,,,,,,,,,,,,,,,,,,,,,,,,,,,,,,,,,,,,,,,,,,,,,,,,,,,,,,329.65983840983245,3.0,"('k',)",329.6603376629064,329.66035426442977,329.67391197389225,329.67391197389225,329.67391197389225,329.67391197389225,329.67391197389225,329.67391197389225,329.67391197389225,329.67391197389225,330.57433935746667,['k'],[0.8225405824196059],[None],,,,,,,,,,,,,,,,,,,,,3004,2023-11-07_12h20.27.420,eb_03,2023.2.3,60.01273455471675,2023-11-07 12h20.41.927979 -0500,
,,,,0,0,0,0,152,0,152,0,330.59051165592973,,,,,,,,,,,,,,,,,,,,,,,,,,,,,,,,,,,,,,,,,,,,,,,,,,,,,,,,,,,,,,,,,,,,,,,,,,,,,,,,,,,,,,,,,,,,,,,,,,,,,,,,,,,330.57643960110727,14.0,"('j', 'space')",330.57700526027475,330.5770215599623,330.59051165592973,330.59051165592973,330.59051165592973,330.59051165592973,330.59051165592973,330.59051165592973,330.59051165592973,330.59051165592973,332.9076070896408,"['j', 'space']","[2.23395862718462, 2.2500261851237155]","[None, None]",,,,,,,,,,,,,,,,,,,,,3004,2023-11-07_12h20.27.420,eb_03,2023.2.3,60.01273455471675,2023-11-07 12h20.41.927979 -0500,
,,,,0,0,0,0,153,0,153,0,332.92365261283703,,,,,,,,,,,,,,,,,,,,,,,,,,,,,,,,,,,,,,,,,,,,,,,,,,,,,,,,,,,,,,,,,,,,,,,,,,,,,,,,,,,,,,,,,,,,,,,,,,,,,,,,,,,332.90972152003087,9.0,"('l', 'space')",332.91027510535787,332.9102908013447,332.92365261283703,332.92365261283703,332.92365261283703,332.92365261283703,332.92365261283703,332.92365261283703,332.92365261283703,332.92365261283703,334.4247095261817,"['h', 'l', 'space', 'l']","[1.0368354598758742, 1.0378297402057797, 1.4608413832902443, 1.4768989803269506]","[None, None, None, None]",,,,,,,,,,,,,,,,,,,,,3004,2023-11-07_12h20.27.420,eb_03,2023.2.3,60.01273455471675,2023-11-07 12h20.41.927979 -0500,
,,,,0,0,0,0,154,0,154,0,334.44024010028807,,,,,,,,,,,,,,,,,,,,,,,,,,,,,,,,,,,,,,,,,,,,,,,,,,,,,,,,,,,,,,,,,,,,,,,,,,,,,,,,,,,,,,,,,,,,,,,,,,,,,,,,,,,334.42678592397715,5.0,"('h',)",334.42730841919547,334.4273244170181,334.44024010028807,334.44024010028807,334.44024010028807,334.44024010028807,334.44024010028807,334.44024010028807,334.44024010028807,334.44024010028807,335.50751762252185,['h'],[1.0162468543858267],[None],,,,,,,,,,,,,,,,,,,,,3004,2023-11-07_12h20.27.420,eb_03,2023.2.3,60.01273455471675,2023-11-07 12h20.41.927979 -0500,
,,,,0,0,0,0,155,0,155,0,335.5234795344004,,,,,,,,,,,,,,,,,,,,,,,,,,,,,,,,,,,,,,,,,,,,,,,,,,,,,,,,,,,,,,,,,,,,,,,,,,,,,,,,,,,,,,,,,,,,,,,,,,,,,,,,,,,335.50963567505823,14.0,"('j', 'space')",335.5099574427586,335.50997132767225,335.5234795344004,335.5234795344004,335.5234795344004,335.5234795344004,335.5234795344004,335.5234795344004,335.5234795344004,335.5234795344004,337.5405277895916,"['j', 'space']","[1.9410507073625922, 1.9420425729185808]","[None, None]",,,,,,,,,,,,,,,,,,,,,3004,2023-11-07_12h20.27.420,eb_03,2023.2.3,60.01273455471675,2023-11-07 12h20.41.927979 -0500,
,,,,0,0,0,0,156,0,156,0,337.5566324745887,,,,,,,,,,,,,,,,,,,,,,,,,,,,,,,,,,,,,,,,,,,,,,,,,,,,,,,,,,,,,,,,,,,,,,,,,,,,,,,,,,,,,,,,,,,,,,,,,,,,,,,,,,,337.5426180723007,13.0,"('h', 'l')",337.543188561016,337.5432045588386,337.5566324745887,337.5566324745887,337.5566324745887,337.5566324745887,337.5566324745887,337.5566324745887,337.5566324745887,337.5566324745887,338.87373907657457,"['h', 'l']","[1.2438932805671357, 1.2448987292009406]","[None, None]",,,,,,,,,,,,,,,,,,,,,3004,2023-11-07_12h20.27.420,eb_03,2023.2.3,60.01273455471675,2023-11-07 12h20.41.927979 -0500,
,,,,0,0,0,0,157,0,157,0,338.8898929624411,,,,,,,,,,,,,,,,,,,,,,,,,,,,,,,,,,,,,,,,,,,,,,,,,,,,,,,,,,,,,,,,,,,,,,,,,,,,,,,,,,,,,,,,,,,,,,,,,,,,,,,,,,,338.8758320758934,8.0,"('j',)",338.8764590097999,338.8764849685249,338.8898929624411,338.8898929624411,338.8898929624411,338.8898929624411,338.8898929624411,338.8898929624411,338.8898929624411,338.8898929624411,339.69031397707295,['j'],[0.7266266398946755],[None],,,,,,,,,,,,,,,,,,,,,3004,2023-11-07_12h20.27.420,eb_03,2023.2.3,60.01273455471675,2023-11-07 12h20.41.927979 -0500,
,,,,0,0,0,0,158,0,158,0,339.7065221951925,,,,,,,,,,,,,,,,,,,,,,,,,,,,,,,,,,,,,,,,,,,,,,,,,,,,,,,,,,,,,,,,,,,,,,,,,,,,,,,,,,,,,,,,,,,,,,,,,,,,,,,,,,,339.69242991667124,0.0,"('h', 'space')",339.6929436583596,339.69296025988297,339.7065221951925,339.7065221951925,339.7065221951925,339.7065221951925,339.7065221951925,339.7065221951925,339.7065221951925,339.7065221951925,341.02361732703866,"['h', 'space']","[1.2380256985488813, 1.2390163567324635]","[None, None]",,,,,,,,,,,,,,,,,,,,,3004,2023-11-07_12h20.27.420,eb_03,2023.2.3,60.01273455471675,2023-11-07 12h20.41.927979 -0500,
,,,,0,0,0,0,159,0,159,0,341.03975762982736,,,,,,,,,,,,,,,,,,,,,,,,,,,,,,,,,,,,,,,,,,,,,,,,,,,,,,,,,,,,,,,,,,,,,,,,,,,,,,,,,,,,,,,,,,,,,,,,,,,,,,,,,,,341.02572994635557,8.0,"('j',)",341.02624398987973,341.02625998770236,341.03975762982736,341.03975762982736,341.03975762982736,341.03975762982736,341.03975762982736,341.03975762982736,341.03975762982736,341.03975762982736,341.79022918856936,['j'],[0.6717842623183969],[None],,,,,,,,,,,,,,,,,,,,,3004,2023-11-07_12h20.27.420,eb_03,2023.2.3,60.01273455471675,2023-11-07 12h20.41.927979 -0500,
,,,,0,0,0,0,160,0,160,0,341.8063688876573,,,,,,,,,,,,,,,,,,,,,,,,,,,,,,,,,,,,,,,,,,,,,,,,,,,,,,,,,,,,,,,,,,,,,,,,,,,,,,,,,,,,,,,,,,,,,,,,,,,,,,,,,,,341.7923599186179,5.0,"('h',)",341.79290535411565,341.7929213519383,341.8063688876573,341.8063688876573,341.8063688876573,341.8063688876573,341.8063688876573,341.8063688876573,341.8063688876573,341.8063688876573,342.89010968778166,['h'],[1.0092105251096655],[None],,,,,,,,,,,,,,,,,,,,,3004,2023-11-07_12h20.27.420,eb_03,2023.2.3,60.01273455471675,2023-11-07 12h20.41.927979 -0500,
,,,,0,0,0,0,161,0,161,0,342.93962448561797,,,,,,,,,,,,,,,,,,,,,,,,,,,,,,,,,,,,,,,,,,,,,,,,,,,,,,,,,,,,,,,,,,,,,,,,,,,,,,,,,,,,,,,,,,,,,,,,,,,,,,,,,,,342.8922135535395,11.0,"('j', 'l')",342.89275808350067,342.8927743831882,342.93962448561797,342.93962448561797,342.93962448561797,342.93962448561797,342.93962448561797,342.93962448561797,342.93962448561797,342.93962448561797,344.10672545820125,"['j', 'l']","[1.0679412813333329, 1.0689319394878112]","[None, None]",,,,,,,,,,,,,,,,,,,,,3004,2023-11-07_12h20.27.420,eb_03,2023.2.3,60.01273455471675,2023-11-07 12h20.41.927979 -0500,
