practice_loop.thisRepN,practice_loop.thisTrialN,practice_loop.thisN,practice_loop.thisIndex,blocks.thisRepN,blocks.thisTrialN,blocks.thisN,blocks.thisIndex,trials.thisRepN,trials.thisTrialN,trials.thisN,trials.thisIndex,thisRow.t,notes,path,resp order,Instructions_0.started,welcome_text.started,instructions_0_keypress.started,Instructions_0.stopped,instructions_0_keypress.keys,instructions_0_keypress.rt,instructions_0_keypress.duration,consent_0.started,consent_image_0.started,consent0_key_resp.started,consent0_text.started,consent_0.stopped,consent0_key_resp.keys,consent0_key_resp.rt,consent0_key_resp.duration,consent_1.started,consent_image_1.started,consent1_key_resp.started,consent1_text.started,consent_1.stopped,consent1_key_resp.keys,consent1_key_resp.rt,consent1_key_resp.duration,consent_2.started,consent2_text.started,consent_image_2.started,consent2_key_resp.started,consent_2.stopped,consent2_key_resp.keys,consent2_key_resp.rt,consent2_key_resp.duration,consent_3.started,agree_button.started,disagree_button.started,consent_image_3.started,consent_3.stopped,agree_button.numClicks,agree_button.timesOn,agree_button.timesOff,disagree_button.numClicks,disagree_button.timesOn,disagree_button.timesOff,demographics.started,age_slider.started,Gender.started,Handedness.started,age_text.started,handedness_text.started,gender_text.started,demographics.stopped,age_slider.response,age_slider.rt,Gender.text,Handedness.response,Handedness.rt,instructions_1.started,instructions_text1.started,instructions1_key_resp.started,instr1_cnt_text.started,instructions_1.stopped,instructions1_key_resp.keys,instructions1_key_resp.rt,instructions1_key_resp.duration,instructions_2.started,instructions_text2.started,key_stim_association.started,instr2_cnt_text.started,instructions2_key_resp.started,instructions_2.stopped,instructions2_key_resp.keys,instructions2_key_resp.rt,instructions2_key_resp.duration,instructions_3.started,instructions_text3.started,examplestim_image_2.started,instructions3_key_resp.started,instr3_cnt_text.started,instructions_3.stopped,instructions3_key_resp.keys,instructions3_key_resp.rt,instructions3_key_resp.duration,instructions_4.started,instructions_text4.started,handplacement_image.started,instructions4_key_resp.started,instr4_cnt_text.started,instructions_4.stopped,instructions4_key_resp.keys,instructions4_key_resp.rt,instructions4_key_resp.duration,instructions_5.started,instructions_text5.started,image.started,instructions5_key_resp.started,instr5_cnt_text.started,instructions_5.stopped,instructions5_key_resp.keys,instructions5_key_resp.rt,instructions5_key_resp.duration,begin_exp_timer.started,text_countdown.started,begin_exp_timer.stopped,stim_resp_selector.started,node idx,stim,stim_resp_selector.stopped,stim_display.started,space.started,h.started,j.started,k.started,l.started,key_resp.started,text.started,accuracy_text.started,stim_display.stopped,key_resp.keys,key_resp.rt,key_resp.duration,break_2.started,break_text.started,break_key_resp.started,break_2.stopped,break_key_resp.keys,break_key_resp.rt,break_key_resp.duration,debriefing.started,graph.started,debrief_text.started,debriefing_title.started,demo_scr_adv.started,demo_scr_adv_keypress.started,debriefing.stopped,demo_scr_adv_keypress.keys,demo_scr_adv_keypress.rt,demo_scr_adv_keypress.duration,done.started,text_countdown_2.started,done.stopped,participant,date,expName,psychopyVersion,frameRate,expStart,
,,,,,,,,,,,,,,[11. 14. 11. ... 13. 14. 12.],"[('h', 'k'), ('space',), ('k',), ('k', 'space'), ('j', 'l'), ('h', 'space'), ('h', 'j'), ('j',), ('h', 'l'), ('h',), ('l',), ('j', 'k'), ('l', 'space'), ('k', 'l'), ('j', 'space')]",0.01265043712919578,0.022258551267441362,0.022258551267441362,23.868009244994028,return,23.837020956358174,None,,,,,,,,,,,,,,,,,,,,,,,,,,,,,,,,,,,,,,,,,,,,,,,,,,,,,,,,,,,,,,,,,,,,,,,,,,,,,,,,,,,,,,,,,,,,,,,,,,,,,,,,,,,,,,,,,,,,,,,,,,,,,,,,,,,,,3006,2023-11-07_12h23.40.620,eb_03,2023.2.3,99.91160665618936,2023-11-07 12h24.04.431313 -0500,
,,,,,,,,,,,,,,,,,,,,,,,23.868037920532515,23.87748424432357,23.87748424432357,23.87748424432357,25.809233460808173,space,1.9258058352570515,None,,,,,,,,,,,,,,,,,,,,,,,,,,,,,,,,,,,,,,,,,,,,,,,,,,,,,,,,,,,,,,,,,,,,,,,,,,,,,,,,,,,,,,,,,,,,,,,,,,,,,,,,,,,,,,,,,,,,,,,,,,,,,3006,2023-11-07_12h23.40.620,eb_03,2023.2.3,99.91160665618936,2023-11-07 12h24.04.431313 -0500,
,,,,,,,,,,,,,,,,,,,,,,,,,,,,,,,25.809279039793182,25.818748002144275,25.818748002144275,25.818748002144275,27.540410615503788,space,1.7115802964835893,None,,,,,,,,,,,,,,,,,,,,,,,,,,,,,,,,,,,,,,,,,,,,,,,,,,,,,,,,,,,,,,,,,,,,,,,,,,,,,,,,,,,,,,,,,,,,,,,,,,,,,,,,,,,,,,,,,,,,,3006,2023-11-07_12h23.40.620,eb_03,2023.2.3,99.91160665618936,2023-11-07 12h24.04.431313 -0500,
,,,,,,,,,,,,,,,,,,,,,,,,,,,,,,,,,,,,,,,27.540437178104185,27.549869918759214,27.549869918759214,27.549869918759214,28.33088031769148,space,0.7724650905583985,None,,,,,,,,,,,,,,,,,,,,,,,,,,,,,,,,,,,,,,,,,,,,,,,,,,,,,,,,,,,,,,,,,,,,,,,,,,,,,,,,,,,,,,,,,,,,,,,,,,,,,,,,,,,,,3006,2023-11-07_12h23.40.620,eb_03,2023.2.3,99.91160665618936,2023-11-07 12h24.04.431313 -0500,
,,,,,,,,,,,,,,,,,,,,,,,,,,,,,,,,,,,,,,,,,,,,,,,28.330907785828458,28.350399299233686,28.350399299233686,28.350399299233686,30.943059147975873,1,[2.609348404366756],[2.6093553468817845],0,,,30.94314758933615,30.99211151219788,30.99211151219788,30.99211151219788,30.99211151219788,30.99211151219788,30.99211151219788,47.479776656866306,18-20,3.318148079852108,Male,Right Handed,16.500173713371623,47.47980774717871,47.49287352673127,49.48444895740249,49.48444895740249,52.93701555332518,space,3.4452612778404728,None,,,,,,,,,,,,,,,,,,,,,,,,,,,,,,,,,,,,,,,,,,,,,,,,,,,,,,,,,,,,,,,,,,,,,,,,,,,,,3006,2023-11-07_12h23.40.620,eb_03,2023.2.3,99.91160665618936,2023-11-07 12h24.04.431313 -0500,
,,,,,,,,,,,,,,,,,,,,,,,,,,,,,,,,,,,,,,,,,,,,,,,,,,,,,,,,,,,,,,,,,,,,,,,,,,,,,,,52.937045738101006,52.9464338052494,52.9464338052494,55.938383527100086,55.938383527100086,70.97876471243217,space,15.038579758256674,None,,,,,,,,,,,,,,,,,,,,,,,,,,,,,,,,,,,,,,,,,,,,,,,,,,,,,,,,,,,,,,,,,,,,3006,2023-11-07_12h23.40.620,eb_03,2023.2.3,99.91160665618936,2023-11-07 12h24.04.431313 -0500,
,,,,,,,,,,,,,,,,,,,,,,,,,,,,,,,,,,,,,,,,,,,,,,,,,,,,,,,,,,,,,,,,,,,,,,,,,,,,,,,,,,,,,,,,70.97879731201101,70.98820167896338,70.98820167896338,73.98015351372305,73.98015351372305,96.4853735169163,h,22.49917671037838,None,,,,,,,,,,,,,,,,,,,,,,,,,,,,,,,,,,,,,,,,,,,,,,,,,,,,,,,,,,,3006,2023-11-07_12h23.40.620,eb_03,2023.2.3,99.91160665618936,2023-11-07 12h24.04.431313 -0500,
,,,,,,,,,,,,,,,,,,,,,,,,,,,,,,,,,,,,,,,,,,,,,,,,,,,,,,,,,,,,,,,,,,,,,,,,,,,,,,,,,,,,,,,,,,,,,,,,,96.48540611646604,96.49485062915483,96.49485062915483,99.48680427501677,99.48680427501677,103.51999484444968,space,4.0326291327073704,None,,,,,,,,,,,,,,,,,,,,,,,,,,,,,,,,,,,,,,,,,,,,,,,,,,3006,2023-11-07_12h23.40.620,eb_03,2023.2.3,99.91160665618936,2023-11-07 12h24.04.431313 -0500,
,,,,,,,,,,,,,,,,,,,,,,,,,,,,,,,,,,,,,,,,,,,,,,,,,,,,,,,,,,,,,,,,,,,,,,,,,,,,,,,,,,,,,,,,,,,,,,,,,,,,,,,,,,103.52002804770018,103.52944871442742,103.52944871442742,106.52140085105202,106.52140085105202,118.53983287900337,space,12.013231795775937,None,,,,,,,,,,,,,,,,,,,,,,,,,,,,,,,,,,,,,,,,,3006,2023-11-07_12h23.40.620,eb_03,2023.2.3,99.91160665618936,2023-11-07 12h24.04.431313 -0500,
,,,,0,0,0,0,0,0,0,0,123.57280430701212,,,,,,,,,,,,,,,,,,,,,,,,,,,,,,,,,,,,,,,,,,,,,,,,,,,,,,,,,,,,,,,,,,,,,,,,,,,,,,,,,,,,,,,,,,,,,,,,,,,,,,,118.53986728965538,118.55925587299862,123.54288848329452,123.54722995875636,11.0,"('j', 'k')",123.54762085151742,123.54763775499305,123.57280430701212,123.57280430701212,123.57280430701212,123.57280430701212,123.57280430701212,123.57280430701212,123.57280430701212,123.57280430701212,143.1462898842874,"['space', 'space', 'h', 'j', 'k', 'l', 'space', 'space', 'h', 'j', 'j']","[1.1289028530591168, 1.6169075763609726, 6.616981529048644, 8.145019709161716, 12.032125047058798, 12.033068924822146, 12.034066229622113, 15.77609782764921, 18.072170577768702, 19.24017508374527, 19.504172893532086]","[None, None, None, None, None, None, None, None, None, None, None]",,,,,,,,,,,,,,,,,,,,,3006,2023-11-07_12h23.40.620,eb_03,2023.2.3,99.91160665618936,2023-11-07 12h24.04.431313 -0500,
,,,,0,0,0,0,1,0,1,0,143.16539050490246,,,,,,,,,,,,,,,,,,,,,,,,,,,,,,,,,,,,,,,,,,,,,,,,,,,,,,,,,,,,,,,,,,,,,,,,,,,,,,,,,,,,,,,,,,,,,,,,,,,,,,,,,,143.14899323228747,14.0,"('j', 'space')",143.14938291767612,143.14939801004948,143.16539050490246,143.16539050490246,143.16539050490246,143.16539050490246,143.16539050490246,143.16539050490246,143.16539050490246,143.16539050490246,154.3236495560268,"['j', 'h', 'space', 'h', 'space', 'space']","[5.607719030493172, 9.526726953685284, 10.006739051750628, 10.510756191855762, 10.870707159716403, 11.134764433518285]","[None, None, None, None, None, None]",,,,,,,,,,,,,,,,,,,,,3006,2023-11-07_12h23.40.620,eb_03,2023.2.3,99.91160665618936,2023-11-07 12h24.04.431313 -0500,
,,,,0,0,0,0,2,0,2,0,154.3427006736456,,,,,,,,,,,,,,,,,,,,,,,,,,,,,,,,,,,,,,,,,,,,,,,,,,,,,,,,,,,,,,,,,,,,,,,,,,,,,,,,,,,,,,,,,,,,,,,,,,,,,,,,,,154.32591160270385,11.0,"('j', 'k')",154.3262801587407,154.326295552979,154.3427006736456,154.3427006736456,154.3427006736456,154.3427006736456,154.3427006736456,154.3427006736456,154.3427006736456,154.3427006736456,163.43979240124463,"['space', 'space', 'h', 'h', 'space', 'j', 'j']","[2.4374666647054255, 2.701533295767149, 3.925495535833761, 4.1815529400191735, 4.517495243635494, 8.813587613869458, 9.093573692662176]","[None, None, None, None, None, None, None]",,,,,,,,,,,,,,,,,,,,,3006,2023-11-07_12h23.40.620,eb_03,2023.2.3,99.91160665618936,2023-11-07 12h24.04.431313 -0500,
,,,,0,0,0,0,3,0,3,0,163.4586059646972,,,,,,,,,,,,,,,,,,,,,,,,,,,,,,,,,,,,,,,,,,,,,,,,,,,,,,,,,,,,,,,,,,,,,,,,,,,,,,,,,,,,,,,,,,,,,,,,,,,,,,,,,,163.44207618094515,13.0,"('k', 'l')",163.44241787254578,163.44243296491913,163.4586059646972,163.4586059646972,163.4586059646972,163.4586059646972,163.4586059646972,163.4586059646972,163.4586059646972,163.4586059646972,173.15600485252799,"['j', 'j', 'j', 'h', 'space', 'space', 'l', 'k']","[2.329697980254423, 2.593680999503704, 2.8967176779115107, 3.2257232195406687, 3.512753819959471, 7.768776511657052, 9.200789995811647, 9.672786528186407]","[None, None, None, None, None, None, None, None]",,,,,,,,,,,,,,,,,,,,,3006,2023-11-07_12h23.40.620,eb_03,2023.2.3,99.91160665618936,2023-11-07 12h24.04.431313 -0500,
,,,,0,0,0,0,4,0,4,0,173.1750106929685,,,,,,,,,,,,,,,,,,,,,,,,,,,,,,,,,,,,,,,,,,,,,,,,,,,,,,,,,,,,,,,,,,,,,,,,,,,,,,,,,,,,,,,,,,,,,,,,,,,,,,,,,,173.1582641825662,14.0,"('j', 'space')",173.15876494787517,173.15878004027763,173.1750106929685,173.1750106929685,173.1750106929685,173.1750106929685,173.1750106929685,173.1750106929685,173.1750106929685,173.1750106929685,200.06351901899325,"['h', 'j', 'space']","[7.50053351582028, 24.6667882106849, 26.826791035971837]","[None, None, None]",,,,,,,,,,,,,,,,,,,,,3006,2023-11-07_12h23.40.620,eb_03,2023.2.3,99.91160665618936,2023-11-07 12h24.04.431313 -0500,
,,,,0,0,0,0,5,0,5,0,200.08261209342163,,,,,,,,,,,,,,,,,,,,,,,,,,,,,,,,,,,,,,,,,,,,,,,,,,,,,,,,,,,,,,,,,,,,,,,,,,,,,,,,,,,,,,,,,,,,,,,,,,,,,,,,,,200.06575480490574,11.0,"('j', 'k')",200.066163506679,200.06617829721654,200.08261209342163,200.08261209342163,200.08261209342163,200.08261209342163,200.08261209342163,200.08261209342163,200.08261209342163,200.08261209342163,205.35711691982578,"['l', 'k', 'j']","[4.007245552202221, 4.85525346302893, 5.20727338254801]","[None, None, None]",,,,,,,,,,,,,,,,,,,,,3006,2023-11-07_12h23.40.620,eb_03,2023.2.3,99.91160665618936,2023-11-07 12h24.04.431313 -0500,
,,,,0,0,0,0,6,0,6,0,205.37609136808896,,,,,,,,,,,,,,,,,,,,,,,,,,,,,,,,,,,,,,,,,,,,,,,,,,,,,,,,,,,,,,,,,,,,,,,,,,,,,,,,,,,,,,,,,,,,,,,,,,,,,,,,,,205.35938802189776,12.0,"('l', 'space')",205.35975718163536,205.35977257587365,205.37609136808896,205.37609136808896,205.37609136808896,205.37609136808896,205.37609136808896,205.37609136808896,205.37609136808896,205.37609136808896,234.42607040479197,"['space', 'h', 'j', 'k', 'l', 'space']","[21.297108691447647, 27.736205333727412, 27.992151356098475, 28.168242965679383, 28.353163318621228, 29.00825493092998]","[None, None, None, None, None, None]",,,,,,,,,,,,,,,,,,,,,3006,2023-11-07_12h23.40.620,eb_03,2023.2.3,99.91160665618936,2023-11-07 12h24.04.431313 -0500,
,,,,0,0,0,0,7,0,7,0,234.44510371336946,,,,,,,,,,,,,,,,,,,,,,,,,,,,,,,,,,,,,,,,,,,,,,,,,,,,,,,,,,,,,,,,,,,,,,,,,,,,,,,,,,,,,,,,,,,,,,,,,,,,,,,,,,234.42834120502812,12.0,"('l', 'space')",234.42872304236516,234.4287378329027,234.44510371336946,234.44510371336946,234.44510371336946,234.44510371336946,234.44510371336946,234.44510371336946,234.44510371336946,234.44510371336946,249.6060000078578,"['k', 'l', 'l']","[14.306380849098787, 14.746402352728182, 15.09843555354746]","[None, None, None]",,,,,,,,,,,,,,,,,,,,,3006,2023-11-07_12h23.40.620,eb_03,2023.2.3,99.91160665618936,2023-11-07 12h24.04.431313 -0500,
,,,,0,0,0,0,8,0,8,0,249.62503965524957,,,,,,,,,,,,,,,,,,,,,,,,,,,,,,,,,,,,,,,,,,,,,,,,,,,,,,,,,,,,,,,,,,,,,,,,,,,,,,,,,,,,,,,,,,,,,,,,,,,,,,,,,,249.6082967670227,14.0,"('j', 'space')",249.60868403760833,249.60869943184662,249.62503965524957,249.62503965524957,249.62503965524957,249.62503965524957,249.62503965524957,249.62503965524957,249.62503965524957,249.62503965524957,259.5425268697436,"['l', 'k', 'l', 'j', 'h', 'space', 'space']","[0.20649069146020338, 1.6145160370215308, 2.246521431632573, 2.7345068366848864, 3.0785066628304776, 3.4384968708909582, 9.854616262513446]","[None, None, None, None, None, None, None]",,,,,,,,,,,,,,,,,,,,,3006,2023-11-07_12h23.40.620,eb_03,2023.2.3,99.91160665618936,2023-11-07 12h24.04.431313 -0500,
,,,,0,0,0,0,9,0,9,0,259.5615414637723,,,,,,,,,,,,,,,,,,,,,,,,,,,,,,,,,,,,,,,,,,,,,,,,,,,,,,,,,,,,,,,,,,,,,,,,,,,,,,,,,,,,,,,,,,,,,,,,,,,,,,,,,,259.5448438526946,13.0,"('k', 'l')",259.5452108994941,259.5452259918675,259.5615414637723,259.5615414637723,259.5615414637723,259.5615414637723,259.5615414637723,259.5615414637723,259.5615414637723,259.5615414637723,277.7845637500868,"['space', 'space', 'space', 'j', 'j', 'h', 'space', 'l', 'k']","[15.053297248436138, 15.269350776914507, 15.469338763359701, 15.74935955464025, 16.012364587339107, 16.74834172418923, 17.26837701621116, 17.900367016613018, 18.22039168360061]","[None, None, None, None, None, None, None, None, None]",,,,,,,,,,,,,,,,,,,,,3006,2023-11-07_12h23.40.620,eb_03,2023.2.3,99.91160665618936,2023-11-07 12h24.04.431313 -0500,
,,,,0,0,0,0,10,0,10,0,277.80343436278054,,,,,,,,,,,,,,,,,,,,,,,,,,,,,,,,,,,,,,,,,,,,,,,,,,,,,,,,,,,,,,,,,,,,,,,,,,,,,,,,,,,,,,,,,,,,,,,,,,,,,,,,,,277.78684300207533,14.0,"('j', 'space')",277.7872707202623,277.7872858126648,277.80343436278054,277.80343436278054,277.80343436278054,277.80343436278054,277.80343436278054,277.80343436278054,277.80343436278054,277.80343436278054,281.00657846880495,"['j', 'j', 'h', 'k', 'l', 'j', 'h', 'space', 'j']","[0.13054792300681584, 1.9785117640567478, 2.002552725985879, 2.267519165063277, 2.2685216012760065, 2.370530729764141, 2.404487388645066, 2.7625376215437427, 3.170526443514973]","[None, None, None, None, None, None, None, None, None]",,,,,,,,,,,,,,,,,,,,,3006,2023-11-07_12h23.40.620,eb_03,2023.2.3,99.91160665618936,2023-11-07 12h24.04.431313 -0500,
,,,,0,0,0,0,11,0,11,0,281.025590044359,,,,,,,,,,,,,,,,,,,,,,,,,,,,,,,,,,,,,,,,,,,,,,,,,,,,,,,,,,,,,,,,,,,,,,,,,,,,,,,,,,,,,,,,,,,,,,,,,,,,,,,,,,281.008842628391,11.0,"('j', 'k')",281.00924227474025,281.0092570652778,281.025590044359,281.025590044359,281.025590044359,281.025590044359,281.025590044359,281.025590044359,281.025590044359,281.025590044359,315.1389238948468,"['space', 'space', 'h', 'h', 'space', 'h', 'k', 'l', 'j', 'k']","[10.036525080970023, 10.323534853901947, 12.915570481593022, 13.139588865305996, 13.33156249349122, 29.75480609454098, 32.28286993171787, 33.32286686493899, 34.04286841038265, 34.10685227482463]","[None, None, None, None, None, None, None, None, None, None]",,,,,,,,,,,,,,,,,,,,,3006,2023-11-07_12h23.40.620,eb_03,2023.2.3,99.91160665618936,2023-11-07 12h24.04.431313 -0500,
,,,,0,0,0,0,12,0,12,0,315.15789109878824,,,,,,,,,,,,,,,,,,,,,,,,,,,,,,,,,,,,,,,,,,,,,,,,,,,,,,,,,,,,,,,,,,,,,,,,,,,,,,,,,,,,,,,,,,,,,,,,,,,,,,,,,,315.1411554548831,14.0,"('j', 'space')",315.1415943414613,315.1416094338347,315.15789109878824,315.15789109878824,315.15789109878824,315.15789109878824,315.15789109878824,315.15789109878824,315.15789109878824,315.15789109878824,324.71523567213444,"['k', 'space', 'k', 'j', 'space']","[7.67767042396008, 7.678644184663426, 9.477746731077787, 9.493679761944804, 9.49469095171662]","[None, None, None, None, None]",,,,,,,,,,,,,,,,,,,,,3006,2023-11-07_12h23.40.620,eb_03,2023.2.3,99.91160665618936,2023-11-07 12h24.04.431313 -0500,
,,,,0,0,0,0,13,0,13,0,324.7342077056528,,,,,,,,,,,,,,,,,,,,,,,,,,,,,,,,,,,,,,,,,,,,,,,,,,,,,,,,,,,,,,,,,,,,,,,,,,,,,,,,,,,,,,,,,,,,,,,,,,,,,,,,,,324.7175131130207,13.0,"('k', 'l')",324.71793388872175,324.71794928296003,324.7342077056528,324.7342077056528,324.7342077056528,324.7342077056528,324.7342077056528,324.7342077056528,324.7342077056528,324.7342077056528,351.7230381333502,"['h', 'l', 'l', 'j', 'h', 'k', 'l', 'space', 'k', 'space', 'j', 'space', 'h', 'j', 'space', 'j', 'k', 'h', 'k', 'j', 'l', 'j', 'l', 'space', 'j', 'space', 'k', 'l']","[8.05349103466142, 8.054491357936058, 11.12558735787752, 11.141561440046644, 13.204660588846309, 13.205564622709062, 14.772601223870879, 14.788615753612248, 15.772599110932788, 15.773594604659593, 16.556619233306265, 16.588634105952224, 17.684656085300958, 17.685650371626252, 18.260660581610864, 20.08469604991842, 20.10068884663633, 22.148741491284454, 22.164716478990158, 23.724732706323266, 23.756748484505806, 25.004750177264214, 25.00574053954915, 25.006780706724385, 25.62875751336105, 25.660733447642997, 26.908777399075916, 26.909781948226737]","[None, None, None, None, None, None, None, None, None, None, None, None, None, None, None, None, None, None, None, None, None, None, None, None, None, None, None, None]",,,,,,,,,,,,,,,,,,,,,3006,2023-11-07_12h23.40.620,eb_03,2023.2.3,99.91160665618936,2023-11-07 12h24.04.431313 -0500,
,,,,0,0,0,0,14,0,14,0,351.7418876166921,,,,,,,,,,,,,,,,,,,,,,,,,,,,,,,,,,,,,,,,,,,,,,,,,,,,,,,,,,,,,,,,,,,,,,,,,,,,,,,,,,,,,,,,,,,,,,,,,,,,,,,,,,351.72543178559863,3.0,"('k', 'space')",351.7257952102227,351.725810604461,351.7418876166921,351.7418876166921,351.7418876166921,351.7418876166921,351.7418876166921,351.7418876166921,351.7418876166921,351.7418876166921,365.6119768941717,"['j', 'k', 'k', 'l', 'h', 'j', 'space', 'j', 'space', 'h', 'space', 'j', 'k', 'l', 'l', 'j', 'k', 'h', 'space', 'j', 'k', 'space']","[2.1721642691409215, 2.1731310873292387, 5.43619105630205, 5.437183833390009, 6.6042109565169085, 6.605203129904112, 9.196252621157328, 9.28424696091679, 9.940234759036684, 9.972213711793302, 10.556266071507707, 10.996272180898814, 11.180251070880331, 11.540255163941765, 12.052263420075178, 12.228295263805194, 12.229285626090132, 12.404269454622408, 12.621265653433511, 13.076263632567134, 13.252265593386255, 13.868292981816921]","[None, None, None, None, None, None, None, None, None, None, None, None, None, None, None, None, None, None, None, None, None, None]",,,,,,,,,,,,,,,,,,,,,3006,2023-11-07_12h23.40.620,eb_03,2023.2.3,99.91160665618936,2023-11-07 12h24.04.431313 -0500,
,,,,0,0,0,0,15,0,15,0,365.6309287038748,,,,,,,,,,,,,,,,,,,,,,,,,,,,,,,,,,,,,,,,,,,,,,,,,,,,,,,,,,,,,,,,,,,,,,,,,,,,,,,,,,,,,,,,,,,,,,,,,,,,,,,,,,365.6142987066705,0.0,"('h', 'k')",365.61463828536216,365.61465367957135,365.6309287038748,365.6309287038748,365.6309287038748,365.6309287038748,365.6309287038748,365.6309287038748,365.6309287038748,365.6309287038748,391.5789930904284,"['j', 'k', 'l', 'space', 'h', 'j', 'k', 'l', 'l', 'space', 'j', 'k', 'h', 'space', 'j', 'space', 'k', 'space', 'h', 'k']","[0.003229166701203212, 0.0042313010490033776, 0.17126536669093184, 5.98632478993386, 6.370357469160808, 6.634348638326628, 6.986349239596166, 7.354351089306874, 18.715534501330694, 18.716527882119408, 18.713553776731715, 18.714532970654545, 20.281560214527417, 20.282558726728894, 21.761565671942662, 21.76257082479424, 23.217600497911917, 23.24959544860758, 25.905633353453595, 25.906620395428035]","[None, None, None, None, None, None, None, None, None, None, 0.02400413650320843, 0.023997797718038782, None, None, None, None, None, None, None, None]",,,,,,,,,,,,,,,,,,,,,3006,2023-11-07_12h23.40.620,eb_03,2023.2.3,99.91160665618936,2023-11-07 12h24.04.431313 -0500,
,,,,0,0,0,0,16,0,16,0,391.5979841403314,,,,,,,,,,,,,,,,,,,,,,,,,,,,,,,,,,,,,,,,,,,,,,,,,,,,,,,,,,,,,,,,,,,,,,,,,,,,,,,,,,,,,,,,,,,,,,,,,,,,,,,,,,391.5813242602162,1.0,"('space',)",391.5818361939164,391.5818515881256,391.5979841403314,391.5979841403314,391.5979841403314,391.5979841403314,391.5979841403314,391.5979841403314,391.5979841403314,391.5979841403314,430.6245902040391,"['h', 'l', 'j', 'l', 'j', 'l', 'j', 'l', 'k', 'h', 'k', 'j', 'l', 'h', 'space']","[1.2186050470627379, 13.545794371078955, 16.625816309358925, 16.64980807012762, 17.50582852817024, 17.55381748295622, 18.329839848651318, 18.69783958545304, 31.849056529725203, 34.19308714434737, 34.19407237521955, 35.92908903269563, 35.93007939500967, 39.00114521017531, 39.00214342051186]","[None, None, None, None, None, None, None, None, None, None, None, None, None, None, None]",,,,,,,,,,,,,,,,,,,,,3006,2023-11-07_12h23.40.620,eb_03,2023.2.3,99.91160665618936,2023-11-07 12h24.04.431313 -0500,
,,,,0,0,0,0,17,0,17,0,430.64354623961844,,,,,,,,,,,,,,,,,,,,,,,,,,,,,,,,,,,,,,,,,,,,,,,,,,,,,,,,,,,,,,,,,,,,,,,,,,,,,,,,,,,,,,,,,,,,,,,,,,,,,,,,,,430.6268933019892,3.0,"('k', 'space')",430.62737173057394,430.6273868229764,430.64354623961844,430.64354623961844,430.64354623961844,430.64354623961844,430.64354623961844,430.64354623961844,430.64354623961844,430.64354623961844,442.49235012280405,"['k', 'k', 'space']","[7.106665129278554, 11.778753181861248, 11.818738041183678]","[None, None, None]",,,,,,,,,,,,,,,,,,,,,3006,2023-11-07_12h23.40.620,eb_03,2023.2.3,99.91160665618936,2023-11-07 12h24.04.431313 -0500,
,,,,0,0,0,0,18,0,18,0,442.5113284951367,,,,,,,,,,,,,,,,,,,,,,,,,,,,,,,,,,,,,,,,,,,,,,,,,,,,,,,,,,,,,,,,,,,,,,,,,,,,,,,,,,,,,,,,,,,,,,,,,,,,,,,,,,442.4945508943929,4.0,"('j', 'l')",442.4950972387451,442.4951129348192,442.5113284951367,442.5113284951367,442.5113284951367,442.5113284951367,442.5113284951367,442.5113284951367,442.5113284951367,442.5113284951367,473.76284369511995,"['k', 'h', 'h', 'j', 'l', 'h', 'k', 'h', 'h', 'space', 'j', 'l']","[22.64529635256622, 22.669268795085372, 23.701304797054036, 23.702303912927164, 25.997432785312412, 26.013354345952393, 27.477372138062492, 27.50136903024395, 28.613374750857474, 28.614361792831914, 31.20540947301197, 31.206386252160883]","[None, None, None, None, None, None, None, None, None, None, None, None]",,,,,,,,,,,,,,,,,,,,,3006,2023-11-07_12h23.40.620,eb_03,2023.2.3,99.91160665618936,2023-11-07 12h24.04.431313 -0500,
,,,,0,0,0,0,19,0,19,0,473.7818042584113,,,,,,,,,,,,,,,,,,,,,,,,,,,,,,,,,,,,,,,,,,,,,,,,,,,,,,,,,,,,,,,,,,,,,,,,,,,,,,,,,,,,,,,,,,,,,,,,,,,,,,,,,,473.7651546411216,2.0,"('k',)",473.7656686877599,473.7656874023087,473.7818042584113,473.7818042584113,473.7818042584113,473.7818042584113,473.7818042584113,473.7818042584113,473.7818042584113,473.7818042584113,475.21322974323994,['k'],[1.3669432698516175],[None],,,,,,,,,,,,,,,,,,,,,3006,2023-11-07_12h23.40.620,eb_03,2023.2.3,99.91160665618936,2023-11-07 12h24.04.431313 -0500,
,,,,0,0,0,0,20,0,20,0,475.23277075967053,,,,,,,,,,,,,,,,,,,,,,,,,,,,,,,,,,,,,,,,,,,,,,,,,,,,,,,,,,,,,,,,,,,,,,,,,,,,,,,,,,,,,,,,,,,,,,,,,,,,,,,,,,475.2154606996046,1.0,"('space',)",475.21598470720346,475.2160031199164,475.23277075967053,475.23277075967053,475.23277075967053,475.23277075967053,475.23277075967053,475.23277075967053,475.23277075967053,475.23277075967053,478.8461068740289,"['h', 'space']","[2.0280045240942854, 3.5870409537747037]","[None, None]",,,,,,,,,,,,,,,,,,,,,3006,2023-11-07_12h23.40.620,eb_03,2023.2.3,99.91160665618936,2023-11-07 12h24.04.431313 -0500,
,,,,0,0,0,0,21,0,21,0,478.86512509023305,,,,,,,,,,,,,,,,,,,,,,,,,,,,,,,,,,,,,,,,,,,,,,,,,,,,,,,,,,,,,,,,,,,,,,,,,,,,,,,,,,,,,,,,,,,,,,,,,,,,,,,,,,478.84835956341703,11.0,"('j', 'k')",478.8489210001426,478.8489388091548,478.86512509023305,478.86512509023305,478.86512509023305,478.86512509023305,478.86512509023305,478.86512509023305,478.86512509023305,478.86512509023305,482.1477354329254,"['j', 'k']","[3.2027562317089178, 3.2267473887768574]","[None, None]",,,,,,,,,,,,,,,,,,,,,3006,2023-11-07_12h23.40.620,eb_03,2023.2.3,99.91160665618936,2023-11-07 12h24.04.431313 -0500,
,,,,0,0,0,0,22,0,22,0,482.167294560204,,,,,,,,,,,,,,,,,,,,,,,,,,,,,,,,,,,,,,,,,,,,,,,,,,,,,,,,,,,,,,,,,,,,,,,,,,,,,,,,,,,,,,,,,,,,,,,,,,,,,,,,,,482.1499992906756,12.0,"('l', 'space')",482.15059061031207,482.1506078156235,482.167294560204,482.167294560204,482.167294560204,482.167294560204,482.167294560204,482.167294560204,482.167294560204,482.167294560204,483.5386662376404,"['l', 'space']","[1.30860637218575, 1.3096082046977244]","[None, None]",,,,,,,,,,,,,,,,,,,,,3006,2023-11-07_12h23.40.620,eb_03,2023.2.3,99.91160665618936,2023-11-07 12h24.04.431313 -0500,
,,,,0,0,0,0,23,0,23,0,483.5582045374322,,,,,,,,,,,,,,,,,,,,,,,,,,,,,,,,,,,,,,,,,,,,,,,,,,,,,,,,,,,,,,,,,,,,,,,,,,,,,,,,,,,,,,,,,,,,,,,,,,,,,,,,,,483.54093341573025,13.0,"('k', 'l')",483.54153409265564,483.54155190166784,483.5582045374322,483.5582045374322,483.5582045374322,483.5582045374322,483.5582045374322,483.5582045374322,483.5582045374322,483.5582045374322,484.4492598543584,"['k', 'l']","[0.8137008067569695, 0.8537523744162172]","[None, None]",,,,,,,,,,,,,,,,,,,,,3006,2023-11-07_12h23.40.620,eb_03,2023.2.3,99.91160665618936,2023-11-07 12h24.04.431313 -0500,
,,,,0,0,0,0,24,0,24,0,484.4688029837271,,,,,,,,,,,,,,,,,,,,,,,,,,,,,,,,,,,,,,,,,,,,,,,,,,,,,,,,,,,,,,,,,,,,,,,,,,,,,,,,,,,,,,,,,,,,,,,,,,,,,,,,,,484.4514751146198,14.0,"('j', 'space')",484.45211382437265,484.45213163338485,484.4688029837271,484.4688029837271,484.4688029837271,484.4688029837271,484.4688029837271,484.4688029837271,484.4688029837271,484.4688029837271,487.2411023598979,"['j', 'space']","[2.695114504400408, 2.696108187054051]","[None, None]",,,,,,,,,,,,,,,,,,,,,3006,2023-11-07_12h23.40.620,eb_03,2023.2.3,99.91160665618936,2023-11-07 12h24.04.431313 -0500,
,,,,0,0,0,0,25,0,25,0,487.26063160423655,,,,,,,,,,,,,,,,,,,,,,,,,,,,,,,,,,,,,,,,,,,,,,,,,,,,,,,,,,,,,,,,,,,,,,,,,,,,,,,,,,,,,,,,,,,,,,,,,,,,,,,,,,487.2433891580731,0.0,"('h', 'k')",487.24390712872264,487.2439255414356,487.26063160423655,487.26063160423655,487.26063160423655,487.26063160423655,487.26063160423655,487.26063160423655,487.26063160423655,487.26063160423655,491.69401638250565,"['h', 'k']","[4.367349255015142, 4.36834837088827]","[None, None]",,,,,,,,,,,,,,,,,,,,,3006,2023-11-07_12h23.40.620,eb_03,2023.2.3,99.91160665618936,2023-11-07 12h24.04.431313 -0500,
,,,,0,0,0,0,26,0,26,0,491.7135468342458,,,,,,,,,,,,,,,,,,,,,,,,,,,,,,,,,,,,,,,,,,,,,,,,,,,,,,,,,,,,,,,,,,,,,,,,,,,,,,,,,,,,,,,,,,,,,,,,,,,,,,,,,,491.696314047178,1.0,"('space',)",491.69682869751705,491.6968468083942,491.7135468342458,491.7135468342458,491.7135468342458,491.7135468342458,491.7135468342458,491.7135468342458,491.7135468342458,491.7135468342458,492.62459805206163,['space'],[0.8344833227747586],[None],,,,,,,,,,,,,,,,,,,,,3006,2023-11-07_12h23.40.620,eb_03,2023.2.3,99.91160665618936,2023-11-07 12h24.04.431313 -0500,
,,,,0,0,0,0,27,0,27,0,492.64416925326805,,,,,,,,,,,,,,,,,,,,,,,,,,,,,,,,,,,,,,,,,,,,,,,,,,,,,,,,,,,,,,,,,,,,,,,,,,,,,,,,,,,,,,,,,,,,,,,,,,,,,,,,,,492.6268634190492,4.0,"('j', 'l')",492.6273964821012,492.62741489481414,492.64416925326805,492.64416925326805,492.64416925326805,492.64416925326805,492.64416925326805,492.64416925326805,492.64416925326805,492.64416925326805,495.03619848177186,"['l', 'j']","[2.3268935132655315, 2.3428947617067024]","[None, None]",,,,,,,,,,,,,,,,,,,,,3006,2023-11-07_12h23.40.620,eb_03,2023.2.3,99.91160665618936,2023-11-07 12h24.04.431313 -0500,
,,,,0,0,0,0,28,0,28,0,495.05574281851295,,,,,,,,,,,,,,,,,,,,,,,,,,,,,,,,,,,,,,,,,,,,,,,,,,,,,,,,,,,,,,,,,,,,,,,,,,,,,,,,,,,,,,,,,,,,,,,,,,,,,,,,,,495.0385912285128,7.0,"('j',)",495.0391710779222,495.0391888869344,495.05574281851295,495.05574281851295,495.05574281851295,495.05574281851295,495.05574281851295,495.05574281851295,495.05574281851295,495.05574281851295,497.4683124812145,"['k', 'j']","[1.1953063286200631, 2.3793612842273433]","[None, None]",,,,,,,,,,,,,,,,,,,,,3006,2023-11-07_12h23.40.620,eb_03,2023.2.3,99.91160665618936,2023-11-07 12h24.04.431313 -0500,
,,,,0,0,0,0,29,0,29,0,497.48732707524323,,,,,,,,,,,,,,,,,,,,,,,,,,,,,,,,,,,,,,,,,,,,,,,,,,,,,,,,,,,,,,,,,,,,,,,,,,,,,,,,,,,,,,,,,,,,,,,,,,,,,,,,,,497.4705669816758,6.0,"('h', 'j')",497.4710780098394,497.47109642255236,497.48732707524323,497.48732707524323,497.48732707524323,497.48732707524323,497.48732707524323,497.48732707524323,497.48732707524323,497.48732707524323,499.62987133138813,"['j', 'k', 'h', 'j']","[1.1318042131024413, 1.1327800867438782, 2.1238028342777397, 2.124798931676196]","[None, None, None, None]",,,,,,,,,,,,,,,,,,,,,3006,2023-11-07_12h23.40.620,eb_03,2023.2.3,99.91160665618936,2023-11-07 12h24.04.431313 -0500,
,,,,0,0,0,0,30,0,30,0,499.6487422459177,,,,,,,,,,,,,,,,,,,,,,,,,,,,,,,,,,,,,,,,,,,,,,,,,,,,,,,,,,,,,,,,,,,,,,,,,,,,,,,,,,,,,,,,,,,,,,,,,,,,,,,,,,499.632129152189,9.0,"('h',)",499.63264712283853,499.63266493185074,499.6487422459177,499.6487422459177,499.6487422459177,499.6487422459177,499.6487422459177,499.6487422459177,499.6487422459177,499.6487422459177,500.6798699881765,['h'],[0.9544031882251147],[None],,,,,,,,,,,,,,,,,,,,,3006,2023-11-07_12h23.40.620,eb_03,2023.2.3,99.91160665618936,2023-11-07 12h24.04.431313 -0500,
,,,,0,0,0,0,31,0,31,0,500.69943032285664,,,,,,,,,,,,,,,,,,,,,,,,,,,,,,,,,,,,,,,,,,,,,,,,,,,,,,,,,,,,,,,,,,,,,,,,,,,,,,,,,,,,,,,,,,,,,,,,,,,,,,,,,,500.68216855841456,8.0,"('h', 'l')",500.6826545332151,500.68267294592806,500.69943032285664,500.69943032285664,500.69943032285664,500.69943032285664,500.69943032285664,500.69943032285664,500.69943032285664,500.69943032285664,502.01078320725355,"['h', 'l']","[1.2557093737705145, 1.2877311889023986]","[None, None]",,,,,,,,,,,,,,,,,,,,,3006,2023-11-07_12h23.40.620,eb_03,2023.2.3,99.91160665618936,2023-11-07 12h24.04.431313 -0500,
,,,,0,0,0,0,32,0,32,0,502.03031848857063,,,,,,,,,,,,,,,,,,,,,,,,,,,,,,,,,,,,,,,,,,,,,,,,,,,,,,,,,,,,,,,,,,,,,,,,,,,,,,,,,,,,,,,,,,,,,,,,,,,,,,,,,,502.0130618555413,7.0,"('j',)",502.0136085017293,502.01362631074153,502.03031848857063,502.03031848857063,502.03031848857063,502.03031848857063,502.03031848857063,502.03031848857063,502.03031848857063,502.03031848857063,503.0813881009817,['j'],[0.9728590621671174],[None],,,,,,,,,,,,,,,,,,,,,3006,2023-11-07_12h23.40.620,eb_03,2023.2.3,99.91160665618936,2023-11-07 12h24.04.431313 -0500,
,,,,0,0,0,0,33,0,33,0,503.10100488120224,,,,,,,,,,,,,,,,,,,,,,,,,,,,,,,,,,,,,,,,,,,,,,,,,,,,,,,,,,,,,,,,,,,,,,,,,,,,,,,,,,,,,,,,,,,,,,,,,,,,,,,,,,503.08370206545806,5.0,"('h', 'space')",503.0842155083956,503.0842336192727,503.10100488120224,503.10100488120224,503.10100488120224,503.10100488120224,503.10100488120224,503.10100488120224,503.10100488120224,503.10100488120224,504.82320508529665,"['h', 'j', 'h', 'space']","[0.6701849028468132, 0.6711810002743732, 1.686167436739197, 1.6871460269903764]","[None, None, None, None]",,,,,,,,,,,,,,,,,,,,,3006,2023-11-07_12h23.40.620,eb_03,2023.2.3,99.91160665618936,2023-11-07 12h24.04.431313 -0500,
,,,,0,0,0,0,34,0,34,0,504.84215659316396,,,,,,,,,,,,,,,,,,,,,,,,,,,,,,,,,,,,,,,,,,,,,,,,,,,,,,,,,,,,,,,,,,,,,,,,,,,,,,,,,,,,,,,,,,,,,,,,,,,,,,,,,,504.8254701504484,6.0,"('h', 'j')",504.8262232604611,504.82623895653524,504.84215659316396,504.84215659316396,504.84215659316396,504.84215659316396,504.84215659316396,504.84215659316396,504.84215659316396,504.84215659316396,505.91331809406984,"['h', 'j']","[1.0090647882898338, 1.0100436804059427]","[None, None]",,,,,,,,,,,,,,,,,,,,,3006,2023-11-07_12h23.40.620,eb_03,2023.2.3,99.91160665618936,2023-11-07 12h24.04.431313 -0500,
,,,,0,0,0,0,35,0,35,0,505.93285941233626,,,,,,,,,,,,,,,,,,,,,,,,,,,,,,,,,,,,,,,,,,,,,,,,,,,,,,,,,,,,,,,,,,,,,,,,,,,,,,,,,,,,,,,,,,,,,,,,,,,,,,,,,,505.9155858758313,12.0,"('l', 'space')",505.9161587827548,505.9161865527567,505.93285941233626,505.93285941233626,505.93285941233626,505.93285941233626,505.93285941233626,505.93285941233626,505.93285941233626,505.93285941233626,507.71454625198385,"['l', 'space']","[1.718349834845867, 1.7193727966805454]","[None, None]",,,,,,,,,,,,,,,,,,,,,3006,2023-11-07_12h23.40.620,eb_03,2023.2.3,99.91160665618936,2023-11-07 12h24.04.431313 -0500,
,,,,0,0,0,0,36,0,36,0,507.73403655798757,,,,,,,,,,,,,,,,,,,,,,,,,,,,,,,,,,,,,,,,,,,,,,,,,,,,,,,,,,,,,,,,,,,,,,,,,,,,,,,,,,,,,,,,,,,,,,,,,,,,,,,,,,507.7168369741703,13.0,"('k', 'l')",507.7175164333603,507.71753363867174,507.73403655798757,507.73403655798757,507.73403655798757,507.73403655798757,507.73403655798757,507.73403655798757,507.73403655798757,507.73403655798757,508.6152021368616,"['k', 'l']","[0.813187363819452, 0.8772180146188475]","[None, None]",,,,,,,,,,,,,,,,,,,,,3006,2023-11-07_12h23.40.620,eb_03,2023.2.3,99.91160665618936,2023-11-07 12h24.04.431313 -0500,
,,,,0,0,0,0,37,0,37,0,508.64458519939217,,,,,,,,,,,,,,,,,,,,,,,,,,,,,,,,,,,,,,,,,,,,,,,,,,,,,,,,,,,,,,,,,,,,,,,,,,,,,,,,,,,,,,,,,,,,,,,,,,,,,,,,,,508.61751368653495,10.0,"('l',)",508.6181294558628,508.618147264875,508.64458519939217,508.64458519939217,508.64458519939217,508.64458519939217,508.64458519939217,508.64458519939217,508.64458519939217,508.64458519939217,509.4356109050568,['l'],[0.7256922801607288],[None],,,,,,,,,,,,,,,,,,,,,3006,2023-11-07_12h23.40.620,eb_03,2023.2.3,99.91160665618936,2023-11-07 12h24.04.431313 -0500,
,,,,0,0,0,0,38,0,38,0,509.45516671199584,,,,,,,,,,,,,,,,,,,,,,,,,,,,,,,,,,,,,,,,,,,,,,,,,,,,,,,,,,,,,,,,,,,,,,,,,,,,,,,,,,,,,,,,,,,,,,,,,,,,,,,,,,509.43791158820386,13.0,"('k', 'l')",509.4384814766818,509.43849988939473,509.45516671199584,509.45516671199584,509.45516671199584,509.45516671199584,509.45516671199584,509.45516671199584,509.45516671199584,509.45516671199584,510.2566758901521,"['k', 'l']","[0.6511639700038359, 0.7791241526720114]","[None, None]",,,,,,,,,,,,,,,,,,,,,3006,2023-11-07_12h23.40.620,eb_03,2023.2.3,99.91160665618936,2023-11-07 12h24.04.431313 -0500,
,,,,0,0,0,0,39,0,39,0,510.27570436915266,,,,,,,,,,,,,,,,,,,,,,,,,,,,,,,,,,,,,,,,,,,,,,,,,,,,,,,,,,,,,,,,,,,,,,,,,,,,,,,,,,,,,,,,,,,,,,,,,,,,,,,,,,510.258951821801,11.0,"('j', 'k')",510.25945530374884,510.25947190538864,510.27570436915266,510.27570436915266,510.27570436915266,510.27570436915266,510.27570436915266,510.27570436915266,510.27570436915266,510.27570436915266,511.05675491387956,"['j', 'k']","[0.7025743684789632, 0.7035626178549137]","[None, None]",,,,,,,,,,,,,,,,,,,,,3006,2023-11-07_12h23.40.620,eb_03,2023.2.3,99.91160665618936,2023-11-07 12h24.04.431313 -0500,
,,,,0,0,0,0,40,0,40,0,511.07622922194423,,,,,,,,,,,,,,,,,,,,,,,,,,,,,,,,,,,,,,,,,,,,,,,,,,,,,,,,,,,,,,,,,,,,,,,,,,,,,,,,,,,,,,,,,,,,,,,,,,,,,,,,,,511.05906525615137,14.0,"('j', 'space')",511.0595708510664,511.0595865471405,511.07622922194423,511.07622922194423,511.07622922194423,511.07622922194423,511.07622922194423,511.07622922194423,511.07622922194423,511.07622922194423,514.9692266269703,"['j', 'space']","[3.830079968494829, 3.8621138575545046]","[None, None]",,,,,,,,,,,,,,,,,,,,,3006,2023-11-07_12h23.40.620,eb_03,2023.2.3,99.91160665618936,2023-11-07 12h24.04.431313 -0500,
,,,,0,0,0,0,41,0,41,0,514.9887905838259,,,,,,,,,,,,,,,,,,,,,,,,,,,,,,,,,,,,,,,,,,,,,,,,,,,,,,,,,,,,,,,,,,,,,,,,,,,,,,,,,,,,,,,,,,,,,,,,,,,,,,,,,,514.971551156108,0.0,"('h', 'k')",514.9721168186807,514.972134627722,514.9887905838259,514.9887905838259,514.9887905838259,514.9887905838259,514.9887905838259,514.9887905838259,514.9887905838259,514.9887905838259,522.8249346726225,"['j', 'l', 'j', 'k', 'h', 'k']","[3.1655930446868297, 3.166587331012124, 5.1736406062263995, 5.174633987015113, 7.797658808849519, 7.7986464545247145]","[None, None, None, None, None, None]",,,,,,,,,,,,,,,,,,,,,3006,2023-11-07_12h23.40.620,eb_03,2023.2.3,99.91160665618936,2023-11-07 12h24.04.431313 -0500,
,,,,0,0,0,0,42,0,42,0,522.8439305521024,,,,,,,,,,,,,,,,,,,,,,,,,,,,,,,,,,,,,,,,,,,,,,,,,,,,,,,,,,,,,,,,,,,,,,,,,,,,,,,,,,,,,,,,,,,,,,,,,,,,,,,,,,522.827168043761,12.0,"('l', 'space')",522.8277575523243,522.8277729465626,522.8439305521024,522.8439305521024,522.8439305521024,522.8439305521024,522.8439305521024,522.8439305521024,522.8439305521024,522.8439305521024,524.0150772926572,"['l', 'space']","[1.1105562479642686, 1.111546006577555]","[None, None]",,,,,,,,,,,,,,,,,,,,,3006,2023-11-07_12h23.40.620,eb_03,2023.2.3,99.91160665618936,2023-11-07 12h24.04.431313 -0500,
,,,,0,0,0,0,43,0,43,0,524.03470463751,,,,,,,,,,,,,,,,,,,,,,,,,,,,,,,,,,,,,,,,,,,,,,,,,,,,,,,,,,,,,,,,,,,,,,,,,,,,,,,,,,,,,,,,,,,,,,,,,,,,,,,,,,524.0173737499572,11.0,"('j', 'k')",524.0178705912549,524.017888702132,524.03470463751,524.03470463751,524.03470463751,524.03470463751,524.03470463751,524.03470463751,524.03470463751,524.03470463751,525.3260241918906,"['k', 'j']","[1.2308247475302778, 1.2467798132856842]","[None, None]",,,,,,,,,,,,,,,,,,,,,3006,2023-11-07_12h23.40.620,eb_03,2023.2.3,99.91160665618936,2023-11-07 12h24.04.431313 -0500,
,,,,0,0,0,0,44,0,44,0,525.3455733582086,,,,,,,,,,,,,,,,,,,,,,,,,,,,,,,,,,,,,,,,,,,,,,,,,,,,,,,,,,,,,,,,,,,,,,,,,,,,,,,,,,,,,,,,,,,,,,,,,,,,,,,,,,525.3283046512806,14.0,"('j', 'space')",525.3288220182294,525.3288374124677,525.3455733582086,525.3455733582086,525.3455733582086,525.3455733582086,525.3455733582086,525.3455733582086,525.3455733582086,525.3455733582086,527.5479981611425,"['j', 'j', 'space']","[1.9599405842891429, 2.159954529663082, 2.1609364402247593]","[None, None, None]",,,,,,,,,,,,,,,,,,,,,3006,2023-11-07_12h23.40.620,eb_03,2023.2.3,99.91160665618936,2023-11-07 12h24.04.431313 -0500,
,,,,0,0,0,0,45,0,45,0,527.5670251309348,,,,,,,,,,,,,,,,,,,,,,,,,,,,,,,,,,,,,,,,,,,,,,,,,,,,,,,,,,,,,,,,,,,,,,,,,,,,,,,,,,,,,,,,,,,,,,,,,,,,,,,,,,527.5502879778214,11.0,"('j', 'k')",527.5508747697459,527.5508928805939,527.5670251309348,527.5670251309348,527.5670251309348,527.5670251309348,527.5670251309348,527.5670251309348,527.5670251309348,527.5670251309348,528.8982688732794,"['j', 'k']","[1.2425134978839196, 1.2434987287560944]","[None, None]",,,,,,,,,,,,,,,,,,,,,3006,2023-11-07_12h23.40.620,eb_03,2023.2.3,99.91160665618936,2023-11-07 12h24.04.431313 -0500,
,,,,0,0,0,0,46,0,46,0,528.9179110086698,,,,,,,,,,,,,,,,,,,,,,,,,,,,,,,,,,,,,,,,,,,,,,,,,,,,,,,,,,,,,,,,,,,,,,,,,,,,,,,,,,,,,,,,,,,,,,,,,,,,,,,,,,528.9005620102398,12.0,"('l', 'space')",528.9011186174175,528.9011370301014,528.9179110086698,528.9179110086698,528.9179110086698,528.9179110086698,528.9179110086698,528.9179110086698,528.9179110086698,528.9179110086698,530.0791526169342,"['l', 'space']","[1.0996664884733036, 1.1156354392296635]","[None, None]",,,,,,,,,,,,,,,,,,,,,3006,2023-11-07_12h23.40.620,eb_03,2023.2.3,99.91160665618936,2023-11-07 12h24.04.431313 -0500,
,,,,0,0,0,0,47,0,47,0,530.0986951426021,,,,,,,,,,,,,,,,,,,,,,,,,,,,,,,,,,,,,,,,,,,,,,,,,,,,,,,,,,,,,,,,,,,,,,,,,,,,,,,,,,,,,,,,,,,,,,,,,,,,,,,,,,530.081371499371,10.0,"('l',)",530.0820156423724,530.0820337532205,530.0986951426021,530.0986951426021,530.0986951426021,530.0986951426021,530.0986951426021,530.0986951426021,530.0986951426021,530.0986951426021,530.9597087652655,['l'],[0.7828655549383257],[None],,,,,,,,,,,,,,,,,,,,,3006,2023-11-07_12h23.40.620,eb_03,2023.2.3,99.91160665618936,2023-11-07 12h24.04.431313 -0500,
,,,,0,0,0,0,48,0,48,0,530.979261553759,,,,,,,,,,,,,,,,,,,,,,,,,,,,,,,,,,,,,,,,,,,,,,,,,,,,,,,,,,,,,,,,,,,,,,,,,,,,,,,,,,,,,,,,,,,,,,,,,,,,,,,,,,530.9620040151931,13.0,"('k', 'l')",530.962489084457,530.9625074971409,530.979261553759,530.979261553759,530.979261553759,530.979261553759,530.979261553759,530.979261553759,530.979261553759,530.979261553759,532.2010607531993,"['k', 'k', 'l']","[0.6543116378306877, 1.1743351578188594, 1.1753303496807348]","[None, None, None]",,,,,,,,,,,,,,,,,,,,,3006,2023-11-07_12h23.40.620,eb_03,2023.2.3,99.91160665618936,2023-11-07 12h24.04.431313 -0500,
,,,,0,0,0,0,49,0,49,0,532.2200653862674,,,,,,,,,,,,,,,,,,,,,,,,,,,,,,,,,,,,,,,,,,,,,,,,,,,,,,,,,,,,,,,,,,,,,,,,,,,,,,,,,,,,,,,,,,,,,,,,,,,,,,,,,,532.2033101222769,0.0,"('h', 'k')",532.2038081709761,532.2038262818241,532.2200653862674,532.2200653862674,532.2200653862674,532.2200653862674,532.2200653862674,532.2200653862674,532.2200653862674,532.2200653862674,534.081778691907,"['h', 'k']","[1.7975966282538138, 1.829561997874407]","[None, None]",,,,,,,,,,,,,,,,,,,,,3006,2023-11-07_12h23.40.620,eb_03,2023.2.3,99.91160665618936,2023-11-07 12h24.04.431313 -0500,
,,,,0,0,0,0,50,0,50,0,534.1013076344389,,,,,,,,,,,,,,,,,,,,,,,,,,,,,,,,,,,,,,,,,,,,,,,,,,,,,,,,,,,,,,,,,,,,,,,,,,,,,,,,,,,,,,,,,,,,,,,,,,,,,,,,,,534.0840259480465,14.0,"('j', 'space')",534.0846836741839,534.084701785061,534.1013076344389,534.1013076344389,534.1013076344389,534.1013076344389,534.1013076344389,534.1013076344389,534.1013076344389,534.1013076344389,535.3625224084244,"['j', 'space']","[1.1963477031968068, 1.2203020348388236]","[None, None]",,,,,,,,,,,,,,,,,,,,,3006,2023-11-07_12h23.40.620,eb_03,2023.2.3,99.91160665618936,2023-11-07 12h24.04.431313 -0500,
,,,,0,0,0,0,51,0,51,0,535.3821367738419,,,,,,,,,,,,,,,,,,,,,,,,,,,,,,,,,,,,,,,,,,,,,,,,,,,,,,,,,,,,,,,,,,,,,,,,,,,,,,,,,,,,,,,,,,,,,,,,,,,,,,,,,,535.3648514652741,13.0,"('k', 'l')",535.3653353271366,535.3653534380137,535.3821367738419,535.3821367738419,535.3821367738419,535.3821367738419,535.3821367738419,535.3821367738419,535.3821367738419,535.3821367738419,536.5533891610976,"['k', 'l']","[1.1075190563860815, 1.131527418794576]","[None, None]",,,,,,,,,,,,,,,,,,,,,3006,2023-11-07_12h23.40.620,eb_03,2023.2.3,99.91160665618936,2023-11-07 12h24.04.431313 -0500,
,,,,0,0,0,0,52,0,52,0,536.5729223294766,,,,,,,,,,,,,,,,,,,,,,,,,,,,,,,,,,,,,,,,,,,,,,,,,,,,,,,,,,,,,,,,,,,,,,,,,,,,,,,,,,,,,,,,,,,,,,,,,,,,,,,,,,536.555654829921,10.0,"('l',)",536.5562524883717,536.5562702973839,536.5729223294766,536.5729223294766,536.5729223294766,536.5729223294766,536.5729223294766,536.5729223294766,536.5729223294766,536.5729223294766,537.2437359810865,['l'],[0.6047485472809058],[None],,,,,,,,,,,,,,,,,,,,,3006,2023-11-07_12h23.40.620,eb_03,2023.2.3,99.91160665618936,2023-11-07 12h24.04.431313 -0500,
,,,,0,0,0,0,53,0,53,0,537.2633757017029,,,,,,,,,,,,,,,,,,,,,,,,,,,,,,,,,,,,,,,,,,,,,,,,,,,,,,,,,,,,,,,,,,,,,,,,,,,,,,,,,,,,,,,,,,,,,,,,,,,,,,,,,,537.2459609004727,9.0,"('h',)",537.24646106211,537.2464785692864,537.2633757017029,537.2633757017029,537.2633757017029,537.2633757017029,537.2633757017029,537.2633757017029,537.2633757017029,537.2633757017029,539.0750384327839,['h'],[1.7463226649269927],[None],,,,,,,,,,,,,,,,,,,,,3006,2023-11-07_12h23.40.620,eb_03,2023.2.3,99.91160665618936,2023-11-07 12h24.04.431313 -0500,
,,,,0,0,0,0,54,0,54,0,539.09457582701,,,,,,,,,,,,,,,,,,,,,,,,,,,,,,,,,,,,,,,,,,,,,,,,,,,,,,,,,,,,,,,,,,,,,,,,,,,,,,,,,,,,,,,,,,,,,,,,,,,,,,,,,,539.0772618429328,8.0,"('h', 'l')",539.0778027540073,539.0778389757324,539.09457582701,539.09457582701,539.09457582701,539.09457582701,539.09457582701,539.09457582701,539.09457582701,539.09457582701,539.9856109201501,"['h', 'l']","[0.8270998261868954, 0.8280892829352524]","[None, None]",,,,,,,,,,,,,,,,,,,,,3006,2023-11-07_12h23.40.620,eb_03,2023.2.3,99.91160665618936,2023-11-07 12h24.04.431313 -0500,
,,,,0,0,0,0,55,0,55,0,540.0051718585019,,,,,,,,,,,,,,,,,,,,,,,,,,,,,,,,,,,,,,,,,,,,,,,,,,,,,,,,,,,,,,,,,,,,,,,,,,,,,,,,,,,,,,,,,,,,,,,,,,,,,,,,,,539.9878418764856,9.0,"('h',)",539.9884446663491,539.9884621735255,540.0051718585019,540.0051718585019,540.0051718585019,540.0051718585019,540.0051718585019,540.0051718585019,540.0051718585019,540.0051718585019,540.5660543887352,['h'],[0.49955281263100915],[None],,,,,,,,,,,,,,,,,,,,,3006,2023-11-07_12h23.40.620,eb_03,2023.2.3,99.91160665618936,2023-11-07 12h24.04.431313 -0500,
,,,,0,0,0,0,56,0,56,0,540.5855591834406,,,,,,,,,,,,,,,,,,,,,,,,,,,,,,,,,,,,,,,,,,,,,,,,,,,,,,,,,,,,,,,,,,,,,,,,,,,,,,,,,,,,,,,,,,,,,,,,,,,,,,,,,,540.5683263963729,1.0,"('space',)",540.5688141822757,540.5688325949886,540.5855591834406,540.5855591834406,540.5855591834406,540.5855591834406,540.5855591834406,540.5855591834406,540.5855591834406,540.5855591834406,541.2964111214096,['space'],[0.6311716912896372],[None],,,,,,,,,,,,,,,,,,,,,3006,2023-11-07_12h23.40.620,eb_03,2023.2.3,99.91160665618936,2023-11-07 12h24.04.431313 -0500,
,,,,0,0,0,0,57,0,57,0,541.3160300145391,,,,,,,,,,,,,,,,,,,,,,,,,,,,,,,,,,,,,,,,,,,,,,,,,,,,,,,,,,,,,,,,,,,,,,,,,,,,,,,,,,,,,,,,,,,,,,,,,,,,,,,,,,541.2987142193597,2.0,"('k',)",541.2991703112493,541.2991887239332,541.3160300145391,541.3160300145391,541.3160300145391,541.3160300145391,541.3160300145391,541.3160300145391,541.3160300145391,541.3160300145391,542.1769476496556,['k'],[0.7967125163413584],[None],,,,,,,,,,,,,,,,,,,,,3006,2023-11-07_12h23.40.620,eb_03,2023.2.3,99.91160665618936,2023-11-07 12h24.04.431313 -0500,
,,,,0,0,0,0,58,0,58,0,542.1966160458105,,,,,,,,,,,,,,,,,,,,,,,,,,,,,,,,,,,,,,,,,,,,,,,,,,,,,,,,,,,,,,,,,,,,,,,,,,,,,,,,,,,,,,,,,,,,,,,,,,,,,,,,,,542.1792552753177,4.0,"('j', 'l')",542.1797291762196,542.1797478907683,542.1966160458105,542.1966160458105,542.1966160458105,542.1966160458105,542.1966160458105,542.1966160458105,542.1966160458105,542.1966160458105,543.2477248984214,"['j', 'l']","[0.9721430794161279, 0.9961366512870882]","[None, None]",,,,,,,,,,,,,,,,,,,,,3006,2023-11-07_12h23.40.620,eb_03,2023.2.3,99.91160665618936,2023-11-07 12h24.04.431313 -0500,
,,,,0,0,0,0,59,0,59,0,543.2673084753915,,,,,,,,,,,,,,,,,,,,,,,,,,,,,,,,,,,,,,,,,,,,,,,,,,,,,,,,,,,,,,,,,,,,,,,,,,,,,,,,,,,,,,,,,,,,,,,,,,,,,,,,,,543.2499999245629,1.0,"('space',)",543.2505169896467,543.2505341949873,543.2673084753915,543.2673084753915,543.2673084753915,543.2673084753915,543.2673084753915,543.2673084753915,543.2673084753915,543.2673084753915,543.9182128563698,['space'],[0.5894644889922347],[None],,,,,,,,,,,,,,,,,,,,,3006,2023-11-07_12h23.40.620,eb_03,2023.2.3,99.91160665618936,2023-11-07 12h24.04.431313 -0500,
,,,,0,0,0,0,60,0,60,0,543.9377626263886,,,,,,,,,,,,,,,,,,,,,,,,,,,,,,,,,,,,,,,,,,,,,,,,,,,,,,,,,,,,,,,,,,,,,,,,,,,,,,,,,,,,,,,,,,,,,,,,,,,,,,,,,,543.9204845621716,0.0,"('h', 'k')",543.9209720462095,543.9209904588934,543.9377626263886,543.9377626263886,543.9377626263886,543.9377626263886,543.9377626263886,543.9377626263886,543.9377626263886,543.9377626263886,545.5493157263554,"['k', 'h']","[1.5590322038333397, 1.591157250892138]","[None, None]",,,,,,,,,,,,,,,,,,,,,3006,2023-11-07_12h23.40.620,eb_03,2023.2.3,99.91160665618936,2023-11-07 12h24.04.431313 -0500,
,,,,0,0,0,0,61,0,61,0,545.5688162952138,,,,,,,,,,,,,,,,,,,,,,,,,,,,,,,,,,,,,,,,,,,,,,,,,,,,,,,,,,,,,,,,,,,,,,,,,,,,,,,,,,,,,,,,,,,,,,,,,,,,,,,,,,545.5516345204087,2.0,"('k',)",545.5521177785704,545.5521349838818,545.5688162952138,545.5688162952138,545.5688162952138,545.5688162952138,545.5688162952138,545.5688162952138,545.5688162952138,545.5688162952138,546.3496839201835,['k'],[0.7039692067191936],[None],,,,,,,,,,,,,,,,,,,,,3006,2023-11-07_12h23.40.620,eb_03,2023.2.3,99.91160665618936,2023-11-07 12h24.04.431313 -0500,
,,,,0,0,0,0,62,0,62,0,546.36933028145,,,,,,,,,,,,,,,,,,,,,,,,,,,,,,,,,,,,,,,,,,,,,,,,,,,,,,,,,,,,,,,,,,,,,,,,,,,,,,,,,,,,,,,,,,,,,,,,,,,,,,,,,,546.351924233837,4.0,"('j', 'l')",546.3524262065475,546.3524440155597,546.36933028145,546.36933028145,546.36933028145,546.36933028145,546.36933028145,546.36933028145,546.36933028145,546.36933028145,549.201649356226,"['j', 'l']","[2.7674984884797595, 2.7684924729692284]","[None, None]",,,,,,,,,,,,,,,,,,,,,3006,2023-11-07_12h23.40.620,eb_03,2023.2.3,99.91160665618936,2023-11-07 12h24.04.431313 -0500,
,,,,0,0,0,0,63,0,63,0,549.2212066724023,,,,,,,,,,,,,,,,,,,,,,,,,,,,,,,,,,,,,,,,,,,,,,,,,,,,,,,,,,,,,,,,,,,,,,,,,,,,,,,,,,,,,,,,,,,,,,,,,,,,,,,,,,549.2039868647989,12.0,"('l', 'space')",549.2045039299119,549.2045217389241,549.2212066724023,549.2212066724023,549.2212066724023,549.2212066724023,549.2212066724023,549.2212066724023,549.2212066724023,549.2212066724023,549.9921848612139,"['l', 'space']","[0.7076309211552143, 0.7086451294308063]","[None, None]",,,,,,,,,,,,,,,,,,,,,3006,2023-11-07_12h23.40.620,eb_03,2023.2.3,99.91160665618936,2023-11-07 12h24.04.431313 -0500,
,,,,0,0,0,0,64,0,64,0,550.0117255757796,,,,,,,,,,,,,,,,,,,,,,,,,,,,,,,,,,,,,,,,,,,,,,,,,,,,,,,,,,,,,,,,,,,,,,,,,,,,,,,,,,,,,,,,,,,,,,,,,,,,,,,,,,549.9944034417858,14.0,"('j', 'space')",549.9949832912243,549.9950004965649,550.0117255757796,550.0117255757796,550.0117255757796,550.0117255757796,550.0117255757796,550.0117255757796,550.0117255757796,550.0117255757796,552.6344687737292,"['k', 'k', 'space', 'j', 'space']","[1.2851428449212108, 1.8211603689705953, 1.8221558626974002, 2.5331481598550454, 2.5341249390039593]","[None, None, None, None, None]",,,,,,,,,,,,,,,,,,,,,3006,2023-11-07_12h23.40.620,eb_03,2023.2.3,99.91160665618936,2023-11-07 12h24.04.431313 -0500,
,,,,0,0,0,0,65,0,65,0,552.6534549940552,,,,,,,,,,,,,,,,,,,,,,,,,,,,,,,,,,,,,,,,,,,,,,,,,,,,,,,,,,,,,,,,,,,,,,,,,,,,,,,,,,,,,,,,,,,,,,,,,,,,,,,,,,552.6367477238527,0.0,"('h', 'k')",552.6372560353775,552.6372738443897,552.6534549940552,552.6534549940552,552.6534549940552,552.6534549940552,552.6534549940552,552.6534549940552,552.6534549940552,552.6534549940552,557.6576974634954,"['j', 'l', 'h', 'k']","[3.1625229517230764, 3.16344570016372, 4.914511298004072, 4.915485964214895]","[None, None, None, None]",,,,,,,,,,,,,,,,,,,,,3006,2023-11-07_12h23.40.620,eb_03,2023.2.3,99.91160665618936,2023-11-07 12h24.04.431313 -0500,
,,,,0,0,0,0,66,0,66,0,557.6767449589388,,,,,,,,,,,,,,,,,,,,,,,,,,,,,,,,,,,,,,,,,,,,,,,,,,,,,,,,,,,,,,,,,,,,,,,,,,,,,,,,,,,,,,,,,,,,,,,,,,,,,,,,,,557.6599498510477,3.0,"('k', 'space')",557.6604463905096,557.6604641995218,557.6767449589388,557.6767449589388,557.6767449589388,557.6767449589388,557.6767449589388,557.6767449589388,557.6767449589388,557.6767449589388,559.8486342448159,"['space', 'k']","[2.1072353195631877, 2.115230057766894]","[None, None]",,,,,,,,,,,,,,,,,,,,,3006,2023-11-07_12h23.40.620,eb_03,2023.2.3,99.91160665618936,2023-11-07 12h24.04.431313 -0500,
,,,,0,0,0,0,67,0,67,0,559.8681939757953,,,,,,,,,,,,,,,,,,,,,,,,,,,,,,,,,,,,,,,,,,,,,,,,,,,,,,,,,,,,,,,,,,,,,,,,,,,,,,,,,,,,,,,,,,,,,,,,,,,,,,,,,,559.8509352298279,1.0,"('space',)",559.8514848944906,559.851502401667,559.8681939757953,559.8681939757953,559.8681939757953,559.8681939757953,559.8681939757953,559.8681939757953,559.8681939757953,559.8681939757953,560.639055047679,['space'],[0.707779732067138],[None],,,,,,,,,,,,,,,,,,,,,3006,2023-11-07_12h23.40.620,eb_03,2023.2.3,99.91160665618936,2023-11-07 12h24.04.431313 -0500,
,,,,0,0,0,0,68,0,68,0,560.6586899387476,,,,,,,,,,,,,,,,,,,,,,,,,,,,,,,,,,,,,,,,,,,,,,,,,,,,,,,,,,,,,,,,,,,,,,,,,,,,,,,,,,,,,,,,,,,,,,,,,,,,,,,,,,560.6412422361027,3.0,"('k', 'space')",560.6417390774295,560.6417574901425,560.6586899387476,560.6586899387476,560.6586899387476,560.6586899387476,560.6586899387476,560.6586899387476,560.6586899387476,560.6586899387476,561.3196047968522,"['k', 'space']","[0.5813351267133839, 0.6052960990054999]","[None, None]",,,,,,,,,,,,,,,,,,,,,3006,2023-11-07_12h23.40.620,eb_03,2023.2.3,99.91160665618936,2023-11-07 12h24.04.431313 -0500,
,,,,0,0,0,0,69,0,69,0,561.3391612075211,,,,,,,,,,,,,,,,,,,,,,,,,,,,,,,,,,,,,,,,,,,,,,,,,,,,,,,,,,,,,,,,,,,,,,,,,,,,,,,,,,,,,,,,,,,,,,,,,,,,,,,,,,561.3218282070011,1.0,"('space',)",561.3224726518674,561.3224901590147,561.3391612075211,561.3391612075211,561.3391612075211,561.3391612075211,561.3391612075211,561.3391612075211,561.3391612075211,561.3391612075211,561.869855345547,['space'],[0.468845242401585],[None],,,,,,,,,,,,,,,,,,,,,3006,2023-11-07_12h23.40.620,eb_03,2023.2.3,99.91160665618936,2023-11-07 12h24.04.431313 -0500,
,,,,0,0,0,0,70,0,70,0,561.8894953679992,,,,,,,,,,,,,,,,,,,,,,,,,,,,,,,,,,,,,,,,,,,,,,,,,,,,,,,,,,,,,,,,,,,,,,,,,,,,,,,,,,,,,,,,,,,,,,,,,,,,,,,,,,561.872098979482,6.0,"('h', 'j')",561.8725324327825,561.8725511473604,561.8894953679992,561.8894953679992,561.8894953679992,561.8894953679992,561.8894953679992,561.8894953679992,561.8894953679992,561.8894953679992,563.571601443924,"['j', 'k', 'h', 'j']","[0.8065476199262775, 0.8074951198650524, 1.646541474328842, 1.647538477263879]","[None, None, None, None]",,,,,,,,,,,,,,,,,,,,,3006,2023-11-07_12h23.40.620,eb_03,2023.2.3,99.91160665618936,2023-11-07 12h24.04.431313 -0500,
,,,,0,0,0,0,71,0,71,0,563.5906118121056,,,,,,,,,,,,,,,,,,,,,,,,,,,,,,,,,,,,,,,,,,,,,,,,,,,,,,,,,,,,,,,,,,,,,,,,,,,,,,,,,,,,,,,,,,,,,,,,,,,,,,,,,,563.5739120880899,8.0,"('h', 'l')",563.5745347998745,563.5745526088867,563.5906118121056,563.5906118121056,563.5906118121056,563.5906118121056,563.5906118121056,563.5906118121056,563.5906118121056,563.5906118121056,564.9619783581293,"['h', 'l']","[1.2814548696915153, 1.282434667344205]","[None, None]",,,,,,,,,,,,,,,,,,,,,3006,2023-11-07_12h23.40.620,eb_03,2023.2.3,99.91160665618936,2023-11-07 12h24.04.431313 -0500,
,,,,0,0,0,0,72,0,72,0,564.9815097154351,,,,,,,,,,,,,,,,,,,,,,,,,,,,,,,,,,,,,,,,,,,,,,,,,,,,,,,,,,,,,,,,,,,,,,,,,,,,,,,,,,,,,,,,,,,,,,,,,,,,,,,,,,564.9642760228307,9.0,"('h',)",564.9647680345806,564.9647858435928,564.9815097154351,564.9815097154351,564.9815097154351,564.9815097154351,564.9815097154351,564.9815097154351,564.9815097154351,564.9815097154351,565.6024240181432,['h'],[0.5545536895224359],[None],,,,,,,,,,,,,,,,,,,,,3006,2023-11-07_12h23.40.620,eb_03,2023.2.3,99.91160665618936,2023-11-07 12h24.04.431313 -0500,
,,,,0,0,0,0,73,0,73,0,565.621946320025,,,,,,,,,,,,,,,,,,,,,,,,,,,,,,,,,,,,,,,,,,,,,,,,,,,,,,,,,,,,,,,,,,,,,,,,,,,,,,,,,,,,,,,,,,,,,,,,,,,,,,,,,,565.6047521694563,8.0,"('h', 'l')",565.6055230884813,565.6055384827196,565.621946320025,565.621946320025,565.621946320025,565.621946320025,565.621946320025,565.621946320025,565.621946320025,565.621946320025,566.3729050637921,"['l', 'h']","[0.6741252227220684, 0.7141375502105802]","[None, None]",,,,,,,,,,,,,,,,,,,,,3006,2023-11-07_12h23.40.620,eb_03,2023.2.3,99.91160665618936,2023-11-07 12h24.04.431313 -0500,
,,,,0,0,0,0,74,0,74,0,566.3924527208437,,,,,,,,,,,,,,,,,,,,,,,,,,,,,,,,,,,,,,,,,,,,,,,,,,,,,,,,,,,,,,,,,,,,,,,,,,,,,,,,,,,,,,,,,,,,,,,,,,,,,,,,,,566.3752087654138,7.0,"('j',)",566.3757119455549,566.3757297545671,566.3924527208437,566.3924527208437,566.3924527208437,566.3924527208437,566.3924527208437,566.3924527208437,566.3924527208437,566.3924527208437,567.2535010560241,['j'],[0.7996500981680583],[None],,,,,,,,,,,,,,,,,,,,,3006,2023-11-07_12h23.40.620,eb_03,2023.2.3,99.91160665618936,2023-11-07 12h24.04.431313 -0500,
,,,,0,0,0,0,75,0,75,0,567.273029998556,,,,,,,,,,,,,,,,,,,,,,,,,,,,,,,,,,,,,,,,,,,,,,,,,,,,,,,,,,,,,,,,,,,,,,,,,,,,,,,,,,,,,,,,,,,,,,,,,,,,,,,,,,567.2557344271627,8.0,"('h', 'l')",567.2563544223376,567.2563722313498,567.273029998556,567.273029998556,567.273029998556,567.273029998556,567.273029998556,567.273029998556,567.273029998556,567.273029998556,568.0239854219835,"['h', 'l']","[0.6870883740775753, 0.6880355721514206]","[None, None]",,,,,,,,,,,,,,,,,,,,,3006,2023-11-07_12h23.40.620,eb_03,2023.2.3,99.91160665618936,2023-11-07 12h24.04.431313 -0500,
,,,,0,0,0,0,76,0,76,0,568.043528853188,,,,,,,,,,,,,,,,,,,,,,,,,,,,,,,,,,,,,,,,,,,,,,,,,,,,,,,,,,,,,,,,,,,,,,,,,,,,,,,,,,,,,,,,,,,,,,,,,,,,,,,,,,568.0262821811193,5.0,"('h', 'space')",568.0267802298185,568.0267983406957,568.043528853188,568.043528853188,568.043528853188,568.043528853188,568.043528853188,568.043528853188,568.043528853188,568.043528853188,568.7444750551658,"['space', 'h']","[0.6365756706800312, 0.6606238769600168]","[None, None]",,,,,,,,,,,,,,,,,,,,,3006,2023-11-07_12h23.40.620,eb_03,2023.2.3,99.91160665618936,2023-11-07 12h24.04.431313 -0500,
,,,,0,0,0,0,77,0,77,0,568.7640058087709,,,,,,,,,,,,,,,,,,,,,,,,,,,,,,,,,,,,,,,,,,,,,,,,,,,,,,,,,,,,,,,,,,,,,,,,,,,,,,,,,,,,,,,,,,,,,,,,,,,,,,,,,,568.7467452517303,8.0,"('h', 'l')",568.7473854706914,568.7474026760028,568.7640058087709,568.7640058087709,568.7640058087709,568.7640058087709,568.7640058087709,568.7640058087709,568.7640058087709,568.7640058087709,569.7056112581922,"['h', 'l', 'h']","[0.4921261518029496, 0.9001303680124693, 0.9161168259161059]","[None, None, None]",,,,,,,,,,,,,,,,,,,,,3006,2023-11-07_12h23.40.620,eb_03,2023.2.3,99.91160665618936,2023-11-07 12h24.04.431313 -0500,
,,,,0,0,0,0,78,0,78,0,569.7246361150756,,,,,,,,,,,,,,,,,,,,,,,,,,,,,,,,,,,,,,,,,,,,,,,,,,,,,,,,,,,,,,,,,,,,,,,,,,,,,,,,,,,,,,,,,,,,,,,,,,,,,,,,,,569.7078117279452,6.0,"('h', 'j')",569.7084232713969,569.7084407785442,569.7246361150756,569.7246361150756,569.7246361150756,569.7246361150756,569.7246361150756,569.7246361150756,569.7246361150756,569.7246361150756,570.8658582782955,"['j', 'h']","[1.0755195780075155, 1.099516168324044]","[None, None]",,,,,,,,,,,,,,,,,,,,,3006,2023-11-07_12h23.40.620,eb_03,2023.2.3,99.91160665618936,2023-11-07 12h24.04.431313 -0500,
,,,,0,0,0,0,79,0,79,0,570.8853754487354,,,,,,,,,,,,,,,,,,,,,,,,,,,,,,,,,,,,,,,,,,,,,,,,,,,,,,,,,,,,,,,,,,,,,,,,,,,,,,,,,,,,,,,,,,,,,,,,,,,,,,,,,,570.8681444727699,8.0,"('h', 'l')",570.8687077205686,570.868725227745,570.8853754487354,570.8853754487354,570.8853754487354,570.8853754487354,570.8853754487354,570.8853754487354,570.8853754487354,570.8853754487354,571.686385068926,"['h', 'l']","[0.7378377260756679, 0.777774893474998]","[None, None]",,,,,,,,,,,,,,,,,,,,,3006,2023-11-07_12h23.40.620,eb_03,2023.2.3,99.91160665618936,2023-11-07 12h24.04.431313 -0500,
,,,,0,0,0,0,80,0,80,0,571.7059266890574,,,,,,,,,,,,,,,,,,,,,,,,,,,,,,,,,,,,,,,,,,,,,,,,,,,,,,,,,,,,,,,,,,,,,,,,,,,,,,,,,,,,,,,,,,,,,,,,,,,,,,,,,,571.688617534528,9.0,"('h',)",571.6891934599262,571.6892118726391,571.7059266890574,571.7059266890574,571.7059266890574,571.7059266890574,571.7059266890574,571.7059266890574,571.7059266890574,571.7059266890574,572.2567459187994,['h'],[0.4852382891403977],[None],,,,,,,,,,,,,,,,,,,,,3006,2023-11-07_12h23.40.620,eb_03,2023.2.3,99.91160665618936,2023-11-07 12h24.04.431313 -0500,
,,,,0,0,0,0,81,0,81,0,572.276330401306,,,,,,,,,,,,,,,,,,,,,,,,,,,,,,,,,,,,,,,,,,,,,,,,,,,,,,,,,,,,,,,,,,,,,,,,,,,,,,,,,,,,,,,,,,,,,,,,,,,,,,,,,,572.2590381502523,6.0,"('h', 'j')",572.2596189052274,572.2596367142396,572.276330401306,572.276330401306,572.276330401306,572.276330401306,572.276330401306,572.276330401306,572.276330401306,572.276330401306,572.9572589693416,"['j', 'h']","[0.6028538492682856, 0.6188572106475476]","[None, None]",,,,,,,,,,,,,,,,,,,,,3006,2023-11-07_12h23.40.620,eb_03,2023.2.3,99.91160665618936,2023-11-07 12h24.04.431313 -0500,
,,,,0,0,0,0,82,0,82,0,572.9767622548097,,,,,,,,,,,,,,,,,,,,,,,,,,,,,,,,,,,,,,,,,,,,,,,,,,,,,,,,,,,,,,,,,,,,,,,,,,,,,,,,,,,,,,,,,,,,,,,,,,,,,,,,,,572.9595397305675,7.0,"('j',)",572.9600975451176,572.9601153541298,572.9767622548097,572.9767622548097,572.9767622548097,572.9767622548097,572.9767622548097,572.9767622548097,572.9767622548097,572.9767622548097,573.6376629260776,['j'],[0.5984399303561077],[None],,,,,,,,,,,,,,,,,,,,,3006,2023-11-07_12h23.40.620,eb_03,2023.2.3,99.91160665618936,2023-11-07 12h24.04.431313 -0500,
,,,,0,0,0,0,83,0,83,0,573.6572169219435,,,,,,,,,,,,,,,,,,,,,,,,,,,,,,,,,,,,,,,,,,,,,,,,,,,,,,,,,,,,,,,,,,,,,,,,,,,,,,,,,,,,,,,,,,,,,,,,,,,,,,,,,,573.6399542519648,5.0,"('h', 'space')",573.6405319884652,573.6405500993424,573.6572169219435,573.6572169219435,573.6572169219435,573.6572169219435,573.6572169219435,573.6572169219435,573.6572169219435,573.6572169219435,575.3394509812933,"['h', 'j', 'space', 'j', 'h', 'h', 'space']","[0.5739715520467144, 0.5749640272988472, 1.1579837660246994, 1.2539770698349457, 1.3349573745508678, 1.677970762422774, 1.6789599173353054]","[None, None, None, None, None, None, None]",,,,,,,,,,,,,,,,,,,,,3006,2023-11-07_12h23.40.620,eb_03,2023.2.3,99.91160665618936,2023-11-07 12h24.04.431313 -0500,
,,,,0,0,0,0,84,0,84,0,575.3783011951309,,,,,,,,,,,,,,,,,,,,,,,,,,,,,,,,,,,,,,,,,,,,,,,,,,,,,,,,,,,,,,,,,,,,,,,,,,,,,,,,,,,,,,,,,,,,,,,,,,,,,,,,,,575.3416840505961,9.0,"('h',)",575.3422910663066,575.3423091771838,575.3783011951309,575.3783011951309,575.3783011951309,575.3783011951309,575.3783011951309,575.3783011951309,575.3783011951309,575.3783011951309,576.2693812635262,['h'],[0.8289033661712892],[None],,,,,,,,,,,,,,,,,,,,,3006,2023-11-07_12h23.40.620,eb_03,2023.2.3,99.91160665618936,2023-11-07 12h24.04.431313 -0500,
,,,,0,0,0,0,85,0,85,0,576.2889346557204,,,,,,,,,,,,,,,,,,,,,,,,,,,,,,,,,,,,,,,,,,,,,,,,,,,,,,,,,,,,,,,,,,,,,,,,,,,,,,,,,,,,,,,,,,,,,,,,,,,,,,,,,,576.2716647413909,6.0,"('h', 'j')",576.2721932767308,576.2722207448678,576.2889346557204,576.2889346557204,576.2889346557204,576.2889346557204,576.2889346557204,576.2889346557204,576.2889346557204,576.2889346557204,576.919806612219,"['h', 'j']","[0.5422929377818946, 0.5432842056325171]","[None, None]",,,,,,,,,,,,,,,,,,,,,3006,2023-11-07_12h23.40.620,eb_03,2023.2.3,99.91160665618936,2023-11-07 12h24.04.431313 -0500,
,,,,0,0,0,0,86,0,86,0,576.9393778134254,,,,,,,,,,,,,,,,,,,,,,,,,,,,,,,,,,,,,,,,,,,,,,,,,,,,,,,,,,,,,,,,,,,,,,,,,,,,,,,,,,,,,,,,,,,,,,,,,,,,,,,,,,576.9220375685836,7.0,"('j',)",576.92267476907,576.9226919743815,576.9393778134254,576.9393778134254,576.9393778134254,576.9393778134254,576.9393778134254,576.9393778134254,576.9393778134254,576.9393778134254,577.5200929449638,['j'],[0.5158447404101025],[None],,,,,,,,,,,,,,,,,,,,,3006,2023-11-07_12h23.40.620,eb_03,2023.2.3,99.91160665618936,2023-11-07 12h24.04.431313 -0500,
,,,,0,0,0,0,87,0,87,0,577.5397459468804,,,,,,,,,,,,,,,,,,,,,,,,,,,,,,,,,,,,,,,,,,,,,,,,,,,,,,,,,,,,,,,,,,,,,,,,,,,,,,,,,,,,,,,,,,,,,,,,,,,,,,,,,,577.5223809505114,6.0,"('h', 'j')",577.5229034489021,577.5229303133383,577.5397459468804,577.5397459468804,577.5397459468804,577.5397459468804,577.5397459468804,577.5397459468804,577.5397459468804,577.5397459468804,578.1406100160966,"['j', 'h']","[0.523518312635133, 0.539516542601632]","[None, None]",,,,,,,,,,,,,,,,,,,,,3006,2023-11-07_12h23.40.620,eb_03,2023.2.3,99.91160665618936,2023-11-07 12h24.04.431313 -0500,
,,,,0,0,0,0,88,0,88,0,578.1601597861154,,,,,,,,,,,,,,,,,,,,,,,,,,,,,,,,,,,,,,,,,,,,,,,,,,,,,,,,,,,,,,,,,,,,,,,,,,,,,,,,,,,,,,,,,,,,,,,,,,,,,,,,,,578.1428020340973,5.0,"('h', 'space')",578.1433746391849,578.1433918444964,578.1601597861154,578.1601597861154,578.1601597861154,578.1601597861154,578.1601597861154,578.1601597861154,578.1601597861154,578.1601597861154,578.9511531940661,"['h', 'space']","[0.7030953576322645, 0.7040890402568039]","[None, None]",,,,,,,,,,,,,,,,,,,,,3006,2023-11-07_12h23.40.620,eb_03,2023.2.3,99.91160665618936,2023-11-07 12h24.04.431313 -0500,
,,,,0,0,0,0,89,0,89,0,578.9706899846205,,,,,,,,,,,,,,,,,,,,,,,,,,,,,,,,,,,,,,,,,,,,,,,,,,,,,,,,,,,,,,,,,,,,,,,,,,,,,,,,,,,,,,,,,,,,,,,,,,,,,,,,,,578.9533678506268,7.0,"('j',)",578.9539730552642,578.9539905624406,578.9706899846205,578.9706899846205,578.9706899846205,578.9706899846205,578.9706899846205,578.9706899846205,578.9706899846205,578.9706899846205,579.7016401498695,['j'],[0.6525775227928534],[None],,,,,,,,,,,,,,,,,,,,,3006,2023-11-07_12h23.40.620,eb_03,2023.2.3,99.91160665618936,2023-11-07 12h24.04.431313 -0500,
,,,,0,0,0,0,90,0,90,0,579.7211802607344,,,,,,,,,,,,,,,,,,,,,,,,,,,,,,,,,,,,,,,,,,,,,,,,,,,,,,,,,,,,,,,,,,,,,,,,,,,,,,,,,,,,,,,,,,,,,,,,,,,,,,,,,,579.7038424306957,6.0,"('h', 'j')",579.704388171318,579.7044053766294,579.7211802607344,579.7211802607344,579.7211802607344,579.7211802607344,579.7211802607344,579.7211802607344,579.7211802607344,579.7211802607344,580.2619304549007,"['h', 'j']","[0.47811528711463325, 0.4791074605018366]","[None, None]",,,,,,,,,,,,,,,,,,,,,3006,2023-11-07_12h23.40.620,eb_03,2023.2.3,99.91160665618936,2023-11-07 12h24.04.431313 -0500,
,,,,0,0,0,0,91,0,91,0,580.2815490461944,,,,,,,,,,,,,,,,,,,,,,,,,,,,,,,,,,,,,,,,,,,,,,,,,,,,,,,,,,,,,,,,,,,,,,,,,,,,,,,,,,,,,,,,,,,,,,,,,,,,,,,,,,580.2641867664643,3.0,"('k', 'space')",580.2646688172536,580.2646866262658,580.2815490461944,580.2815490461944,580.2815490461944,580.2815490461944,580.2815490461944,580.2815490461944,580.2815490461944,580.2815490461944,581.5728610543883,"['k', 'space']","[1.229741416114848, 1.230753511452349]","[None, None]",,,,,,,,,,,,,,,,,,,,,3006,2023-11-07_12h23.40.620,eb_03,2023.2.3,99.91160665618936,2023-11-07 12h24.04.431313 -0500,
,,,,0,0,0,0,92,0,92,0,581.5924014671182,,,,,,,,,,,,,,,,,,,,,,,,,,,,,,,,,,,,,,,,,,,,,,,,,,,,,,,,,,,,,,,,,,,,,,,,,,,,,,,,,,,,,,,,,,,,,,,,,,,,,,,,,,581.5751306472521,1.0,"('space',)",581.5756093777018,581.575627186714,581.5924014671182,581.5924014671182,581.5924014671182,581.5924014671182,581.5924014671182,581.5924014671182,581.5924014671182,581.5924014671182,582.9642488565296,"['h', 'space']","[0.550905860029161, 1.2949293510464486]","[None, None]",,,,,,,,,,,,,,,,,,,,,3006,2023-11-07_12h23.40.620,eb_03,2023.2.3,99.91160665618936,2023-11-07 12h24.04.431313 -0500,
,,,,0,0,0,0,93,0,93,0,582.98333046076,,,,,,,,,,,,,,,,,,,,,,,,,,,,,,,,,,,,,,,,,,,,,,,,,,,,,,,,,,,,,,,,,,,,,,,,,,,,,,,,,,,,,,,,,,,,,,,,,,,,,,,,,,582.9665269011457,3.0,"('k', 'space')",582.9670720380673,582.9670913563168,582.98333046076,582.98333046076,582.98333046076,582.98333046076,582.98333046076,582.98333046076,582.98333046076,582.98333046076,584.2245668410033,"['k', 'space']","[1.1520198591751978, 1.1529984494263772]","[None, None]",,,,,,,,,,,,,,,,,,,,,3006,2023-11-07_12h23.40.620,eb_03,2023.2.3,99.91160665618936,2023-11-07 12h24.04.431313 -0500,
,,,,0,0,0,0,94,0,94,0,584.2441434754583,,,,,,,,,,,,,,,,,,,,,,,,,,,,,,,,,,,,,,,,,,,,,,,,,,,,,,,,,,,,,,,,,,,,,,,,,,,,,,,,,,,,,,,,,,,,,,,,,,,,,,,,,,584.2267827049945,4.0,"('j', 'l')",584.227355611918,584.2273818726826,584.2441434754583,584.2441434754583,584.2441434754583,584.2441434754583,584.2441434754583,584.2441434754583,584.2441434754583,584.2441434754583,585.9057329632051,"['j', 'l']","[1.5952174042758998, 1.5962065591884311]","[None, None]",,,,,,,,,,,,,,,,,,,,,3006,2023-11-07_12h23.40.620,eb_03,2023.2.3,99.91160665618936,2023-11-07 12h24.04.431313 -0500,
,,,,0,0,0,0,95,0,95,0,585.9252453040972,,,,,,,,,,,,,,,,,,,,,,,,,,,,,,,,,,,,,,,,,,,,,,,,,,,,,,,,,,,,,,,,,,,,,,,,,,,,,,,,,,,,,,,,,,,,,,,,,,,,,,,,,,585.9079947080172,1.0,"('space',)",585.9086415676284,585.9086593766406,585.9252453040972,585.9252453040972,585.9252453040972,585.9252453040972,585.9252453040972,585.9252453040972,585.9252453040972,585.9252453040972,586.6761038344121,['space'],[0.6741216005466413],[None],,,,,,,,,,,,,,,,,,,,,3006,2023-11-07_12h23.40.620,eb_03,2023.2.3,99.91160665618936,2023-11-07 12h24.04.431313 -0500,
,,,,0,0,0,0,96,0,96,0,586.6957414420904,,,,,,,,,,,,,,,,,,,,,,,,,,,,,,,,,,,,,,,,,,,,,,,,,,,,,,,,,,,,,,,,,,,,,,,,,,,,,,,,,,,,,,,,,,,,,,,,,,,,,,,,,,586.6784165914869,4.0,"('j', 'l')",586.6788581946748,586.6788766073878,586.6957414420904,586.6957414420904,586.6957414420904,586.6957414420904,586.6957414420904,586.6957414420904,586.6957414420904,586.6957414420904,588.0670234707941,"['j', 'l']","[1.3106691993889399, 1.3116628820134792]","[None, None]",,,,,,,,,,,,,,,,,,,,,3006,2023-11-07_12h23.40.620,eb_03,2023.2.3,99.91160665618936,2023-11-07 12h24.04.431313 -0500,
,,,,0,0,0,0,97,0,97,0,588.0866616821731,,,,,,,,,,,,,,,,,,,,,,,,,,,,,,,,,,,,,,,,,,,,,,,,,,,,,,,,,,,,,,,,,,,,,,,,,,,,,,,,,,,,,,,,,,,,,,,,,,,,,,,,,,588.0692918562563,3.0,"('k', 'space')",588.0698508781788,588.06987804448,588.0866616821731,588.0866616821731,588.0866616821731,588.0866616821731,588.0866616821731,588.0866616821731,588.0866616821731,588.0866616821731,591.3792788798164,"['k', 'space']","[3.231777378852712, 3.2477900975209195]","[None, None]",,,,,,,,,,,,,,,,,,,,,3006,2023-11-07_12h23.40.620,eb_03,2023.2.3,99.91160665618936,2023-11-07 12h24.04.431313 -0500,
,,,,0,0,0,0,98,0,98,0,591.3988310646091,,,,,,,,,,,,,,,,,,,,,,,,,,,,,,,,,,,,,,,,,,,,,,,,,,,,,,,,,,,,,,,,,,,,,,,,,,,,,,,,,,,,,,,,,,,,,,,,,,,,,,,,,,591.3815605465788,8.0,"('h', 'l')",591.3820579916064,591.3820758006186,591.3988310646091,591.3988310646091,591.3988310646091,591.3988310646091,591.3988310646091,591.3988310646091,591.3988310646091,591.3988310646091,596.5426989229163,"['h', 'l']","[5.0556800341873895, 5.05666949096485]","[None, None]",,,,,,,,,,,,,,,,,,,,,3006,2023-11-07_12h23.40.620,eb_03,2023.2.3,99.91160665618936,2023-11-07 12h24.04.431313 -0500,
,,,,0,0,0,0,99,0,99,0,596.5622094527353,,,,,,,,,,,,,,,,,,,,,,,,,,,,,,,,,,,,,,,,,,,,,,,,,,,,,,,,,,,,,,,,,,,,,,,,,,,,,,,,,,,,,,,,,,,,,,,,,,,,,,,,,,596.5449407458073,6.0,"('h', 'j')",596.5454955418827,596.5455227081547,596.5622094527353,596.5622094527353,596.5622094527353,596.5622094527353,596.5622094527353,596.5622094527353,596.5622094527353,596.5622094527353,597.3031779431622,"['h', 'j']","[0.6523079728067387, 0.6533013535663486]","[None, None]",,,,,,,,,,,,,,,,,,,,,3006,2023-11-07_12h23.40.620,eb_03,2023.2.3,99.91160665618936,2023-11-07 12h24.04.431313 -0500,
,,,,0,0,0,0,100,0,100,0,597.3227277131518,,,,,,,,,,,,,,,,,,,,,,,,,,,,,,,,,,,,,,,,,,,,,,,,,,,,,,,,,,,,,,,,,,,,,,,,,,,,,,,,,,,,,,,,,,,,,,,,,,,,,,,,,,597.3054647413373,9.0,"('h',)",597.305998408061,597.3060162170732,597.3227277131518,597.3227277131518,597.3227277131518,597.3227277131518,597.3227277131518,597.3227277131518,597.3227277131518,597.3227277131518,597.8434934766265,['h'],[0.44378011117805727],[None],,,,,,,,,,,,,,,,,,,,,3006,2023-11-07_12h23.40.620,eb_03,2023.2.3,99.91160665618936,2023-11-07 12h24.04.431313 -0500,
,,,,0,0,0,0,101,0,101,0,597.8630631685955,,,,,,,,,,,,,,,,,,,,,,,,,,,,,,,,,,,,,,,,,,,,,,,,,,,,,,,,,,,,,,,,,,,,,,,,,,,,,,,,,,,,,,,,,,,,,,,,,,,,,,,,,,597.8457271496009,7.0,"('j',)",597.846339900454,597.8463577094662,597.8630631685955,597.8630631685955,597.8630631685955,597.8630631685955,597.8630631685955,597.8630631685955,597.8630631685955,597.8630631685955,598.4939813077799,['j'],[0.5514953685924411],[None],,,,,,,,,,,,,,,,,,,,,3006,2023-11-07_12h23.40.620,eb_03,2023.2.3,99.91160665618936,2023-11-07 12h24.04.431313 -0500,
,,,,0,0,0,0,102,0,102,0,598.5135093447752,,,,,,,,,,,,,,,,,,,,,,,,,,,,,,,,,,,,,,,,,,,,,,,,,,,,,,,,,,,,,,,,,,,,,,,,,,,,,,,,,,,,,,,,,,,,,,,,,,,,,,,,,,598.4962186029588,6.0,"('h', 'j')",598.4967881895427,598.4968063004198,598.5135093447752,598.5135093447752,598.5135093447752,598.5135093447752,598.5135093447752,598.5135093447752,598.5135093447752,598.5135093447752,599.0242118077585,"['h', 'j']","[0.42104675350128673, 0.42202202341286466]","[None, None]",,,,,,,,,,,,,,,,,,,,,3006,2023-11-07_12h23.40.620,eb_03,2023.2.3,99.91160665618936,2023-11-07 12h24.04.431313 -0500,
,,,,0,0,0,0,103,0,103,0,599.0438294934866,,,,,,,,,,,,,,,,,,,,,,,,,,,,,,,,,,,,,,,,,,,,,,,,,,,,,,,,,,,,,,,,,,,,,,,,,,,,,,,,,,,,,,,,,,,,,,,,,,,,,,,,,,599.0264415567217,8.0,"('h', 'l')",599.0270201987587,599.0270383096067,599.0438294934866,599.0438294934866,599.0438294934866,599.0438294934866,599.0438294934866,599.0438294934866,599.0438294934866,599.0438294934866,599.8147998342465,"['h', 'l']","[0.706724170682719, 0.7077266068954486]","[None, None]",,,,,,,,,,,,,,,,,,,,,3006,2023-11-07_12h23.40.620,eb_03,2023.2.3,99.91160665618936,2023-11-07 12h24.04.431313 -0500,
,,,,0,0,0,0,104,0,104,0,599.8343544338131,,,,,,,,,,,,,,,,,,,,,,,,,,,,,,,,,,,,,,,,,,,,,,,,,,,,,,,,,,,,,,,,,,,,,,,,,,,,,,,,,,,,,,,,,,,,,,,,,,,,,,,,,,599.8170398460352,9.0,"('h',)",599.8176426358696,599.8176695003349,599.8343544338131,599.8343544338131,599.8343544338131,599.8343544338131,599.8343544338131,599.8343544338131,599.8343544338131,599.8343544338131,600.3551473635598,['h'],[0.4602256794460118],[None],,,,,,,,,,,,,,,,,,,,,3006,2023-11-07_12h23.40.620,eb_03,2023.2.3,99.91160665618936,2023-11-07 12h24.04.431313 -0500,
,,,,0,0,0,0,105,0,105,0,600.3747249035514,,,,,,,,,,,,,,,,,,,,,,,,,,,,,,,,,,,,,,,,,,,,,,,,,,,,,,,,,,,,,,,,,,,,,,,,,,,,,,,,,,,,,,,,,,,,,,,,,,,,,,,,,,600.3574094102369,6.0,"('h', 'j')",600.3579889578104,600.3580076723883,600.3747249035514,600.3747249035514,600.3747249035514,600.3747249035514,600.3747249035514,600.3747249035514,600.3747249035514,600.3747249035514,600.9655685346806,"['h', 'j']","[0.5038417665928137, 0.5048372603196185]","[None, None]",,,,,,,,,,,,,,,,,,,,,3006,2023-11-07_12h23.40.620,eb_03,2023.2.3,99.91160665618936,2023-11-07 12h24.04.431313 -0500,
,,,,0,0,0,0,106,0,106,0,600.9851125695859,,,,,,,,,,,,,,,,,,,,,,,,,,,,,,,,,,,,,,,,,,,,,,,,,,,,,,,,,,,,,,,,,,,,,,,,,,,,,,,,,,,,,,,,,,,,,,,,,,,,,,,,,,600.967868614156,5.0,"('h', 'space')",600.9683340633055,600.9683518723177,600.9851125695859,600.9851125695859,600.9851125695859,600.9851125695859,600.9851125695859,600.9851125695859,600.9851125695859,600.9851125695859,601.7560958897811,"['h', 'space']","[0.7094939251837786, 0.7104867022717372]","[None, None]",,,,,,,,,,,,,,,,,,,,,3006,2023-11-07_12h23.40.620,eb_03,2023.2.3,99.91160665618936,2023-11-07 12h24.04.431313 -0500,
,,,,0,0,0,0,107,0,107,0,601.7756254359847,,,,,,,,,,,,,,,,,,,,,,,,,,,,,,,,,,,,,,,,,,,,,,,,,,,,,,,,,,,,,,,,,,,,,,,,,,,,,,,,,,,,,,,,,,,,,,,,,,,,,,,,,,601.7583730288316,4.0,"('j', 'l')",601.7589154491434,601.7589311452175,601.7756254359847,601.7756254359847,601.7756254359847,601.7756254359847,601.7756254359847,601.7756254359847,601.7756254359847,601.7756254359847,603.2270691584563,"['j', 'l']","[1.3900122822087724, 1.4299811435921583]","[None, None]",,,,,,,,,,,,,,,,,,,,,3006,2023-11-07_12h23.40.620,eb_03,2023.2.3,99.91160665618936,2023-11-07 12h24.04.431313 -0500,
,,,,0,0,0,0,108,0,108,0,603.2466101748869,,,,,,,,,,,,,,,,,,,,,,,,,,,,,,,,,,,,,,,,,,,,,,,,,,,,,,,,,,,,,,,,,,,,,,,,,,,,,,,,,,,,,,,,,,,,,,,,,,,,,,,,,,603.2292684208078,1.0,"('space',)",603.2298612496816,603.2298781531572,603.2466101748869,603.2466101748869,603.2466101748869,603.2466101748869,603.2466101748869,603.2466101748869,603.2466101748869,603.2466101748869,604.197571091936,['space'],[0.8710331552720163],[None],,,,,,,,,,,,,,,,,,,,,3006,2023-11-07_12h23.40.620,eb_03,2023.2.3,99.91160665618936,2023-11-07 12h24.04.431313 -0500,
,,,,0,0,0,0,109,0,109,0,604.2172156421293,,,,,,,,,,,,,,,,,,,,,,,,,,,,,,,,,,,,,,,,,,,,,,,,,,,,,,,,,,,,,,,,,,,,,,,,,,,,,,,,,,,,,,,,,,,,,,,,,,,,,,,,,,604.1998322330473,4.0,"('j', 'l')",604.2003701256763,604.2003969901125,604.2172156421293,604.2172156421293,604.2172156421293,604.2172156421293,604.2172156421293,604.2172156421293,604.2172156421293,604.2172156421293,605.448995435785,"['j', 'l', 'k', 'l', 'j']","[0.6123976698436309, 0.7564052836678457, 0.7884352486871649, 1.1484414546866901, 1.1804370090540033]","[None, None, None, None, None]",,,,,,,,,,,,,,,,,,,,,3006,2023-11-07_12h23.40.620,eb_03,2023.2.3,99.91160665618936,2023-11-07 12h24.04.431313 -0500,
,,,,0,0,0,0,110,0,110,0,605.46803689425,,,,,,,,,,,,,,,,,,,,,,,,,,,,,,,,,,,,,,,,,,,,,,,,,,,,,,,,,,,,,,,,,,,,,,,,,,,,,,,,,,,,,,,,,,,,,,,,,,,,,,,,,,605.4512463140709,2.0,"('k',)",605.4517636810197,605.4517808863602,605.46803689425,605.46803689425,605.46803689425,605.46803689425,605.46803689425,605.46803689425,605.46803689425,605.46803689425,606.229013963195,['k'],[0.6816324768878985],[None],,,,,,,,,,,,,,,,,,,,,3006,2023-11-07_12h23.40.620,eb_03,2023.2.3,99.91160665618936,2023-11-07 12h24.04.431313 -0500,
,,,,0,0,0,0,111,0,111,0,606.2485552814614,,,,,,,,,,,,,,,,,,,,,,,,,,,,,,,,,,,,,,,,,,,,,,,,,,,,,,,,,,,,,,,,,,,,,,,,,,,,,,,,,,,,,,,,,,,,,,,,,,,,,,,,,,606.2312138292182,1.0,"('space',)",606.2318187320197,606.2318353336304,606.2485552814614,606.2485552814614,606.2485552814614,606.2485552814614,606.2485552814614,606.2485552814614,606.2485552814614,606.2485552814614,606.8793240060622,['space'],[0.565098437044071],[None],,,,,,,,,,,,,,,,,,,,,3006,2023-11-07_12h23.40.620,eb_03,2023.2.3,99.91160665618936,2023-11-07 12h24.04.431313 -0500,
,,,,0,0,0,0,112,0,112,0,606.8989727821026,,,,,,,,,,,,,,,,,,,,,,,,,,,,,,,,,,,,,,,,,,,,,,,,,,,,,,,,,,,,,,,,,,,,,,,,,,,,,,,,,,,,,,,,,,,,,,,,,,,,,,,,,,606.8815603956755,5.0,"('h', 'space')",606.8820279577631,606.8820463704469,606.8989727821026,606.8989727821026,606.8989727821026,606.8989727821026,606.8989727821026,606.8989727821026,606.8989727821026,606.8989727821026,608.0908027307596,"['h', 'j', 'space', 'h']","[0.4987127704662271, 0.4997076604922768, 1.1626898735121358, 1.186685860157013]","[None, None, None, None]",,,,,,,,,,,,,,,,,,,,,3006,2023-11-07_12h23.40.620,eb_03,2023.2.3,99.91160665618936,2023-11-07 12h24.04.431313 -0500,
,,,,0,0,0,0,113,0,113,0,608.1197336254409,,,,,,,,,,,,,,,,,,,,,,,,,,,,,,,,,,,,,,,,,,,,,,,,,,,,,,,,,,,,,,,,,,,,,,,,,,,,,,,,,,,,,,,,,,,,,,,,,,,,,,,,,,608.0929926358222,7.0,"('j',)",608.093580937013,608.0935975386237,608.1197336254409,608.1197336254409,608.1197336254409,608.1197336254409,608.1197336254409,608.1197336254409,608.1197336254409,608.1197336254409,608.9007841701386,['j'],[0.7019296218059026],[None],,,,,,,,,,,,,,,,,,,,,3006,2023-11-07_12h23.40.620,eb_03,2023.2.3,99.91160665618936,2023-11-07 12h24.04.431313 -0500,
,,,,0,0,0,0,114,0,114,0,608.920305264619,,,,,,,,,,,,,,,,,,,,,,,,,,,,,,,,,,,,,,,,,,,,,,,,,,,,,,,,,,,,,,,,,,,,,,,,,,,,,,,,,,,,,,,,,,,,,,,,,,,,,,,,,,608.9030682517041,9.0,"('h',)",608.903546378453,608.9035641874652,608.920305264619,608.920305264619,608.920305264619,608.920305264619,608.920305264619,608.920305264619,608.920305264619,608.920305264619,609.5311257802532,['h'],[0.5494135250046384],[None],,,,,,,,,,,,,,,,,,,,,3006,2023-11-07_12h23.40.620,eb_03,2023.2.3,99.91160665618936,2023-11-07 12h24.04.431313 -0500,
,,,,0,0,0,0,115,0,115,0,609.5507316939184,,,,,,,,,,,,,,,,,,,,,,,,,,,,,,,,,,,,,,,,,,,,,,,,,,,,,,,,,,,,,,,,,,,,,,,,,,,,,,,,,,,,,,,,,,,,,,,,,,,,,,,,,,609.5333983915916,6.0,"('h', 'j')",609.5339248139644,609.5339429248415,609.5507316939184,609.5507316939184,609.5507316939184,609.5507316939184,609.5507316939184,609.5507316939184,609.5507316939184,609.5507316939184,610.1115490250522,"['h', 'j']","[0.49497317933128215, 0.49596233424381353]","[None, None]",,,,,,,,,,,,,,,,,,,,,3006,2023-11-07_12h23.40.620,eb_03,2023.2.3,99.91160665618936,2023-11-07 12h24.04.431313 -0500,
,,,,0,0,0,0,116,0,116,0,610.1310978895344,,,,,,,,,,,,,,,,,,,,,,,,,,,,,,,,,,,,,,,,,,,,,,,,,,,,,,,,,,,,,,,,,,,,,,,,,,,,,,,,,,,,,,,,,,,,,,,,,,,,,,,,,,610.1138361250923,9.0,"('h',)",610.1143293442146,610.114346851391,610.1310978895344,610.1310978895344,610.1310978895344,610.1310978895344,610.1310978895344,610.1310978895344,610.1310978895344,610.1310978895344,610.5918795724283,['h'],[0.39462240209104493],[None],,,,,,,,,,,,,,,,,,,,,3006,2023-11-07_12h23.40.620,eb_03,2023.2.3,99.91160665618936,2023-11-07 12h24.04.431313 -0500,
,,,,0,0,0,0,117,0,117,0,610.6114100241975,,,,,,,,,,,,,,,,,,,,,,,,,,,,,,,,,,,,,,,,,,,,,,,,,,,,,,,,,,,,,,,,,,,,,,,,,,,,,,,,,,,,,,,,,,,,,,,,,,,,,,,,,,610.5941192823811,8.0,"('h', 'l')",610.5947320332052,610.5947498422174,610.6114100241975,610.6114100241975,610.6114100241975,610.6114100241975,610.6114100241975,610.6114100241975,610.6114100241975,610.6114100241975,611.4223987293663,"['h', 'l']","[0.7463305129786022, 0.7473217808292247]","[None, None]",,,,,,,,,,,,,,,,,,,,,3006,2023-11-07_12h23.40.620,eb_03,2023.2.3,99.91160665618936,2023-11-07 12h24.04.431313 -0500,
,,,,0,0,0,0,118,0,118,0,611.44195755478,,,,,,,,,,,,,,,,,,,,,,,,,,,,,,,,,,,,,,,,,,,,,,,,,,,,,,,,,,,,,,,,,,,,,,,,,,,,,,,,,,,,,,,,,,,,,,,,,,,,,,,,,,611.4246197247412,7.0,"('j',)",611.4252098369761,611.4252360977407,611.44195755478,611.44195755478,611.44195755478,611.44195755478,611.44195755478,611.44195755478,611.44195755478,611.44195755478,612.0127941166284,['j'],[0.5077944622316863],[None],,,,,,,,,,,,,,,,,,,,,3006,2023-11-07_12h23.40.620,eb_03,2023.2.3,99.91160665618936,2023-11-07 12h24.04.431313 -0500,
,,,,0,0,0,0,119,0,119,0,612.0323426792456,,,,,,,,,,,,,,,,,,,,,,,,,,,,,,,,,,,,,,,,,,,,,,,,,,,,,,,,,,,,,,,,,,,,,,,,,,,,,,,,,,,,,,,,,,,,,,,,,,,,,,,,,,612.0150721612445,1.0,"('space',)",612.0156034131942,612.0156215240422,612.0323426792456,612.0323426792456,612.0323426792456,612.0323426792456,612.0323426792456,612.0323426792456,612.0323426792456,612.0323426792456,612.8032049585308,['space'],[0.7094012579182163],[None],,,,,,,,,,,,,,,,,,,,,3006,2023-11-07_12h23.40.620,eb_03,2023.2.3,99.91160665618936,2023-11-07 12h24.04.431313 -0500,
,,,,0,0,0,0,120,0,120,0,612.8228549419728,,,,,,,,,,,,,,,,,,,,,,,,,,,,,,,,,,,,,,,,,,,,,,,,,,,,,,,,,,,,,,,,,,,,,,,,,,,,,,,,,,,,,,,,,,,,,,,,,,,,,,,,,,612.805464288569,2.0,"('k',)",612.806013047666,612.8060308567074,612.8228549419728,612.8228549419728,612.8228549419728,612.8228549419728,612.8228549419728,612.8228549419728,612.8228549419728,612.8228549419728,613.7740624686121,['k'],[0.8709033607156016],[None],,,,,,,,,,,,,,,,,,,,,3006,2023-11-07_12h23.40.620,eb_03,2023.2.3,99.91160665618936,2023-11-07 12h24.04.431313 -0500,
,,,,0,0,0,0,121,0,121,0,613.7934975364769,,,,,,,,,,,,,,,,,,,,,,,,,,,,,,,,,,,,,,,,,,,,,,,,,,,,,,,,,,,,,,,,,,,,,,,,,,,,,,,,,,,,,,,,,,,,,,,,,,,,,,,,,,613.7763936383999,0.0,"('h', 'k')",613.7768334304856,613.776850937662,613.7934975364769,613.7934975364769,613.7934975364769,613.7934975364769,613.7934975364769,613.7934975364769,613.7934975364769,613.7934975364769,614.6745070600882,"['h', 'k']","[0.820330891496269, 0.8212937856442295]","[None, None]",,,,,,,,,,,,,,,,,,,,,3006,2023-11-07_12h23.40.620,eb_03,2023.2.3,99.91160665618936,2023-11-07 12h24.04.431313 -0500,
,,,,0,0,0,0,122,0,122,0,614.6940849019156,,,,,,,,,,,,,,,,,,,,,,,,,,,,,,,,,,,,,,,,,,,,,,,,,,,,,,,,,,,,,,,,,,,,,,,,,,,,,,,,,,,,,,,,,,,,,,,,,,,,,,,,,,614.676826759649,3.0,"('k', 'space')",614.6772982457769,614.6773151492234,614.6940849019156,614.6940849019156,614.6940849019156,614.6940849019156,614.6940849019156,614.6940849019156,614.6940849019156,614.6940849019156,616.135984501947,"['space', 'k', 'space']","[0.5836943683389109, 1.3517147515085526, 1.3527002842456568]","[None, None, None]",,,,,,,,,,,,,,,,,,,,,3006,2023-11-07_12h23.40.620,eb_03,2023.2.3,99.91160665618936,2023-11-07 12h24.04.431313 -0500,
,,,,0,0,0,0,123,0,123,0,616.1550422601867,,,,,,,,,,,,,,,,,,,,,,,,,,,,,,,,,,,,,,,,,,,,,,,,,,,,,,,,,,,,,,,,,,,,,,,,,,,,,,,,,,,,,,,,,,,,,,,,,,,,,,,,,,616.1382284377469,0.0,"('h', 'k')",616.1387931947829,616.138820662949,616.1550422601867,616.1550422601867,616.1550422601867,616.1550422601867,616.1550422601867,616.1550422601867,616.1550422601867,616.1550422601867,617.0460984826495,"['h', 'k']","[0.8027594313025475, 0.8037368141813204]","[None, None]",,,,,,,,,,,,,,,,,,,,,3006,2023-11-07_12h23.40.620,eb_03,2023.2.3,99.91160665618936,2023-11-07 12h24.04.431313 -0500,
,,,,0,0,0,0,124,0,124,0,617.0656413101533,,,,,,,,,,,,,,,,,,,,,,,,,,,,,,,,,,,,,,,,,,,,,,,,,,,,,,,,,,,,,,,,,,,,,,,,,,,,,,,,,,,,,,,,,,,,,,,,,,,,,,,,,,617.0483119318378,1.0,"('space',)",617.0488839332247,617.0489014404011,617.0656413101533,617.0656413101533,617.0656413101533,617.0656413101533,617.0656413101533,617.0656413101533,617.0656413101533,617.0656413101533,617.7064543188317,['space'],[0.5641865551588126],[None],,,,,,,,,,,,,,,,,,,,,3006,2023-11-07_12h23.40.620,eb_03,2023.2.3,99.91160665618936,2023-11-07 12h24.04.431313 -0500,
,,,,0,0,0,0,125,0,125,0,617.7260720045597,,,,,,,,,,,,,,,,,,,,,,,,,,,,,,,,,,,,,,,,,,,,,,,,,,,,,,,,,,,,,,,,,,,,,,,,,,,,,,,,,,,,,,,,,,,,,,,,,,,,,,,,,,617.7087233079947,2.0,"('k',)",617.7091827201948,617.7092011329078,617.7260720045597,617.7260720045597,617.7260720045597,617.7260720045597,617.7260720045597,617.7260720045597,617.7260720045597,617.7260720045597,618.3969704753836,['k'],[0.5907908077933826],[None],,,,,,,,,,,,,,,,,,,,,3006,2023-11-07_12h23.40.620,eb_03,2023.2.3,99.91160665618936,2023-11-07 12h24.04.431313 -0500,
,,,,0,0,0,0,126,0,126,0,618.4165235657129,,,,,,,,,,,,,,,,,,,,,,,,,,,,,,,,,,,,,,,,,,,,,,,,,,,,,,,,,,,,,,,,,,,,,,,,,,,,,,,,,,,,,,,,,,,,,,,,,,,,,,,,,,618.3992397663824,9.0,"('h',)",618.3997486816079,618.3997661887843,618.4165235657129,618.4165235657129,618.4165235657129,618.4165235657129,618.4165235657129,618.4165235657129,618.4165235657129,618.4165235657129,619.137439106009,['h'],[0.6443277233047411],[None],,,,,,,,,,,,,,,,,,,,,3006,2023-11-07_12h23.40.620,eb_03,2023.2.3,99.91160665618936,2023-11-07 12h24.04.431313 -0500,
,,,,0,0,0,0,127,0,127,0,619.1570392845897,,,,,,,,,,,,,,,,,,,,,,,,,,,,,,,,,,,,,,,,,,,,,,,,,,,,,,,,,,,,,,,,,,,,,,,,,,,,,,,,,,,,,,,,,,,,,,,,,,,,,,,,,,619.1396528570331,6.0,"('h', 'j')",619.140140341071,619.1401581500832,619.1570392845897,619.1570392845897,619.1570392845897,619.1570392845897,619.1570392845897,619.1570392845897,619.1570392845897,619.1570392845897,619.9879825375101,"['j', 'h']","[0.7678118064068258, 0.799826679052785]","[None, None]",,,,,,,,,,,,,,,,,,,,,3006,2023-11-07_12h23.40.620,eb_03,2023.2.3,99.91160665618936,2023-11-07 12h24.04.431313 -0500,
,,,,0,0,0,0,128,0,128,0,620.007564001542,,,,,,,,,,,,,,,,,,,,,,,,,,,,,,,,,,,,,,,,,,,,,,,,,,,,,,,,,,,,,,,,,,,,,,,,,,,,,,,,,,,,,,,,,,,,,,,,,,,,,,,,,,619.9902364342997,7.0,"('j',)",619.9908651830629,619.9908829920751,620.007564001542,620.007564001542,620.007564001542,620.007564001542,620.007564001542,620.007564001542,620.007564001542,620.007564001542,620.498347534769,['j'],[0.429307117650751],[None],,,,,,,,,,,,,,,,,,,,,3006,2023-11-07_12h23.40.620,eb_03,2023.2.3,99.91160665618936,2023-11-07 12h24.04.431313 -0500,
,,,,0,0,0,0,129,0,129,0,620.5178991158609,,,,,,,,,,,,,,,,,,,,,,,,,,,,,,,,,,,,,,,,,,,,,,,,,,,,,,,,,,,,,,,,,,,,,,,,,,,,,,,,,,,,,,,,,,,,,,,,,,,,,,,,,,620.5006144109939,9.0,"('h',)",620.5010729176574,620.5010910285346,620.5178991158609,620.5178991158609,620.5178991158609,620.5178991158609,620.5178991158609,620.5178991158609,620.5178991158609,620.5178991158609,621.058631501015,['h'],[0.4629444217134733],[None],,,,,,,,,,,,,,,,,,,,,3006,2023-11-07_12h23.40.620,eb_03,2023.2.3,99.91160665618936,2023-11-07 12h24.04.431313 -0500,
,,,,0,0,0,0,130,0,130,0,621.0782609588059,,,,,,,,,,,,,,,,,,,,,,,,,,,,,,,,,,,,,,,,,,,,,,,,,,,,,,,,,,,,,,,,,,,,,,,,,,,,,,,,,,,,,,,,,,,,,,,,,,,,,,,,,,621.0609771595045,7.0,"('j',)",621.0615621403267,621.0615793456673,621.0782609588059,621.0782609588059,621.0782609588059,621.0782609588059,621.0782609588059,621.0782609588059,621.0782609588059,621.0782609588059,621.5089967216481,['j'],[0.35063323119538836],[None],,,,,,,,,,,,,,,,,,,,,3006,2023-11-07_12h23.40.620,eb_03,2023.2.3,99.91160665618936,2023-11-07 12h24.04.431313 -0500,
,,,,0,0,0,0,131,0,131,0,621.5285649043508,,,,,,,,,,,,,,,,,,,,,,,,,,,,,,,,,,,,,,,,,,,,,,,,,,,,,,,,,,,,,,,,,,,,,,,,,,,,,,,,,,,,,,,,,,,,,,,,,,,,,,,,,,621.5112131893111,5.0,"('h', 'space')",621.5117305562599,621.5117480634362,621.5285649043508,621.5285649043508,621.5285649043508,621.5285649043508,621.5285649043508,621.5285649043508,621.5285649043508,621.5285649043508,622.4595721791848,"['h', 'space']","[0.8683385608310346, 0.86931111413287]","[None, None]",,,,,,,,,,,,,,,,,,,,,3006,2023-11-07_12h23.40.620,eb_03,2023.2.3,99.91160665618936,2023-11-07 12h24.04.431313 -0500,
,,,,0,0,0,0,132,0,132,0,622.4791771873424,,,,,,,,,,,,,,,,,,,,,,,,,,,,,,,,,,,,,,,,,,,,,,,,,,,,,,,,,,,,,,,,,,,,,,,,,,,,,,,,,,,,,,,,,,,,,,,,,,,,,,,,,,622.4617898542492,6.0,"('h', 'j')",622.4623365004372,622.4623636667384,622.4791771873424,622.4791771873424,622.4791771873424,622.4791771873424,622.4791771873424,622.4791771873424,622.4791771873424,622.4791771873424,623.3702500114159,"['j', 'h']","[0.8137346137082204, 0.8376886435144115]","[None, None]",,,,,,,,,,,,,,,,,,,,,3006,2023-11-07_12h23.40.620,eb_03,2023.2.3,99.91160665618936,2023-11-07 12h24.04.431313 -0500,
,,,,0,0,0,0,133,0,133,0,623.3897843871673,,,,,,,,,,,,,,,,,,,,,,,,,,,,,,,,,,,,,,,,,,,,,,,,,,,,,,,,,,,,,,,,,,,,,,,,,,,,,,,,,,,,,,,,,,,,,,,,,,,,,,,,,,623.3725174913416,10.0,"('l',)",623.3730683633767,623.3730949259771,623.3897843871673,623.3897843871673,623.3897843871673,623.3897843871673,623.3897843871673,623.3897843871673,623.3897843871673,623.3897843871673,624.6209816147748,['l'],[1.1671306568896398],[None],,,,,,,,,,,,,,,,,,,,,3006,2023-11-07_12h23.40.620,eb_03,2023.2.3,99.91160665618936,2023-11-07 12h24.04.431313 -0500,
,,,,0,0,0,0,134,0,134,0,624.6405999042036,,,,,,,,,,,,,,,,,,,,,,,,,,,,,,,,,,,,,,,,,,,,,,,,,,,,,,,,,,,,,,,,,,,,,,,,,,,,,,,,,,,,,,,,,,,,,,,,,,,,,,,,,,624.6232599611976,13.0,"('k', 'l')",624.6237866854353,624.6238038907759,624.6405999042036,624.6405999042036,624.6405999042036,624.6405999042036,624.6405999042036,624.6405999042036,624.6405999042036,624.6405999042036,626.3527564279211,"['k', 'k', 'l']","[1.0763523757923394, 1.668356309470255, 1.6693515013612341]","[None, None, None]",,,,,,,,,,,,,,,,,,,,,3006,2023-11-07_12h23.40.620,eb_03,2023.2.3,99.91160665618936,2023-11-07 12h24.04.431313 -0500,
,,,,0,0,0,0,135,0,135,0,626.371734196553,,,,,,,,,,,,,,,,,,,,,,,,,,,,,,,,,,,,,,,,,,,,,,,,,,,,,,,,,,,,,,,,,,,,,,,,,,,,,,,,,,,,,,,,,,,,,,,,,,,,,,,,,,626.355021191237,14.0,"('j', 'space')",626.3555889667477,626.3556064739241,626.371734196553,626.371734196553,626.371734196553,626.371734196553,626.371734196553,626.371734196553,626.371734196553,626.371734196553,632.326718743454,"['k', 'space', 'j']","[1.1772395363659598, 1.1782169192156289, 5.9532978219504]","[None, None, None]",,,,,,,,,,,,,,,,,,,,,3006,2023-11-07_12h23.40.620,eb_03,2023.2.3,99.91160665618936,2023-11-07 12h24.04.431313 -0500,
,,,,0,0,0,0,136,0,136,0,632.3656124233385,,,,,,,,,,,,,,,,,,,,,,,,,,,,,,,,,,,,,,,,,,,,,,,,,,,,,,,,,,,,,,,,,,,,,,,,,,,,,,,,,,,,,,,,,,,,,,,,,,,,,,,,,,632.3290399522812,13.0,"('k', 'l')",632.3295117402158,632.329529851093,632.3656124233385,632.3656124233385,632.3656124233385,632.3656124233385,632.3656124233385,632.3656124233385,632.3656124233385,632.3656124233385,633.4168217912375,"['k', 'l']","[0.9514281773008406, 0.9664752851531375]","[None, None]",,,,,,,,,,,,,,,,,,,,,3006,2023-11-07_12h23.40.620,eb_03,2023.2.3,99.91160665618936,2023-11-07 12h24.04.431313 -0500,
,,,,0,0,0,0,137,0,137,0,633.43636069473,,,,,,,,,,,,,,,,,,,,,,,,,,,,,,,,,,,,,,,,,,,,,,,,,,,,,,,,,,,,,,,,,,,,,,,,,,,,,,,,,,,,,,,,,,,,,,,,,,,,,,,,,,633.4190841397503,11.0,"('j', 'k')",633.4197032293887,633.4197210384009,633.43636069473,633.43636069473,633.43636069473,633.43636069473,633.43636069473,633.43636069473,633.43636069473,633.43636069473,635.7383110232768,"['k', 'j']","[2.223740382003598, 2.2477602146100253]","[None, None]",,,,,,,,,,,,,,,,,,,,,3006,2023-11-07_12h23.40.620,eb_03,2023.2.3,99.91160665618936,2023-11-07 12h24.04.431313 -0500,
,,,,0,0,0,0,138,0,138,0,635.7578810170817,,,,,,,,,,,,,,,,,,,,,,,,,,,,,,,,,,,,,,,,,,,,,,,,,,,,,,,,,,,,,,,,,,,,,,,,,,,,,,,,,,,,,,,,,,,,,,,,,,,,,,,,,,635.7406129138544,13.0,"('k', 'l')",635.7411499008886,635.7411671062291,635.7578810170817,635.7578810170817,635.7578810170817,635.7578810170817,635.7578810170817,635.7578810170817,635.7578810170817,635.7578810170817,636.6089098196826,"['k', 'l']","[0.7741901501722168, 0.7982202456041705]","[None, None]",,,,,,,,,,,,,,,,,,,,,3006,2023-11-07_12h23.40.620,eb_03,2023.2.3,99.91160665618936,2023-11-07 12h24.04.431313 -0500,
,,,,0,0,0,0,139,0,139,0,636.6284502324124,,,,,,,,,,,,,,,,,,,,,,,,,,,,,,,,,,,,,,,,,,,,,,,,,,,,,,,,,,,,,,,,,,,,,,,,,,,,,,,,,,,,,,,,,,,,,,,,,,,,,,,,,,636.6111890716711,11.0,"('j', 'k')",636.6117489991593,636.6117662044708,636.6284502324124,636.6284502324124,636.6284502324124,636.6284502324124,636.6284502324124,636.6284502324124,636.6284502324124,636.6284502324124,637.4094428223616,"['j', 'k']","[0.7196538169228006, 0.7206948896346148]","[None, None]",,,,,,,,,,,,,,,,,,,,,3006,2023-11-07_12h23.40.620,eb_03,2023.2.3,99.91160665618936,2023-11-07 12h24.04.431313 -0500,
,,,,0,0,0,0,140,0,140,0,637.4289669353166,,,,,,,,,,,,,,,,,,,,,,,,,,,,,,,,,,,,,,,,,,,,,,,,,,,,,,,,,,,,,,,,,,,,,,,,,,,,,,,,,,,,,,,,,,,,,,,,,,,,,,,,,,637.4117320353107,11.0,"('j', 'k')",637.4123607840738,637.4123779893853,637.4289669353166,637.4289669353166,637.4289669353166,637.4289669353166,637.4289669353166,637.4289669353166,637.4289669353166,637.4289669353166,638.1699152019282,"['k', 'j']","[0.6631609068717808, 0.6791627590137068]","[None, None]",,,,,,,,,,,,,,,,,,,,,3006,2023-11-07_12h23.40.620,eb_03,2023.2.3,99.91160665618936,2023-11-07 12h24.04.431313 -0500,
,,,,0,0,0,0,141,0,141,0,638.1894658774836,,,,,,,,,,,,,,,,,,,,,,,,,,,,,,,,,,,,,,,,,,,,,,,,,,,,,,,,,,,,,,,,,,,,,,,,,,,,,,,,,,,,,,,,,,,,,,,,,,,,,,,,,,638.1723423592921,10.0,"('l',)",638.1728307488665,638.1728479542071,638.1894658774836,638.1894658774836,638.1894658774836,638.1894658774836,638.1894658774836,638.1894658774836,638.1894658774836,638.1894658774836,638.9804291006585,['l'],[0.726654570637038],[None],,,,,,,,,,,,,,,,,,,,,3006,2023-11-07_12h23.40.620,eb_03,2023.2.3,99.91160665618936,2023-11-07 12h24.04.431313 -0500,
,,,,0,0,0,0,142,0,142,0,639.0000027166388,,,,,,,,,,,,,,,,,,,,,,,,,,,,,,,,,,,,,,,,,,,,,,,,,,,,,,,,,,,,,,,,,,,,,,,,,,,,,,,,,,,,,,,,,,,,,,,,,,,,,,,,,,638.9826917510363,11.0,"('j', 'k')",638.9831771221361,638.9831943274476,639.0000027166388,639.0000027166388,639.0000027166388,639.0000027166388,639.0000027166388,639.0000027166388,639.0000027166388,639.0000027166388,639.5608695507981,"['k', 'j']","[0.48417850185069256, 0.5001438304316252]","[None, None]",,,,,,,,,,,,,,,,,,,,,3006,2023-11-07_12h23.40.620,eb_03,2023.2.3,99.91160665618936,2023-11-07 12h24.04.431313 -0500,
,,,,0,0,0,0,143,0,143,0,639.5803849101649,,,,,,,,,,,,,,,,,,,,,,,,,,,,,,,,,,,,,,,,,,,,,,,,,,,,,,,,,,,,,,,,,,,,,,,,,,,,,,,,,,,,,,,,,,,,,,,,,,,,,,,,,,639.5631898540596,13.0,"('k', 'l')",639.5636879027588,639.5637051080994,639.5803849101649,639.5803849101649,639.5803849101649,639.5803849101649,639.5803849101649,639.5803849101649,639.5803849101649,639.5803849101649,640.5715172284108,"['k', 'l']","[0.9277965208457317, 0.9438228226499632]","[None, None]",,,,,,,,,,,,,,,,,,,,,3006,2023-11-07_12h23.40.620,eb_03,2023.2.3,99.91160665618936,2023-11-07 12h24.04.431313 -0500,
,,,,0,0,0,0,144,0,144,0,640.5910437561688,,,,,,,,,,,,,,,,,,,,,,,,,,,,,,,,,,,,,,,,,,,,,,,,,,,,,,,,,,,,,,,,,,,,,,,,,,,,,,,,,,,,,,,,,,,,,,,,,,,,,,,,,,640.5738076487614,12.0,"('l', 'space')",640.5743488617009,640.574364557775,640.5910437561688,640.5910437561688,640.5910437561688,640.5910437561688,640.5910437561688,640.5910437561688,640.5910437561688,640.5910437561688,641.6622131050972,"['l', 'space']","[1.0051163185271434, 1.0061081900494173]","[None, None]",,,,,,,,,,,,,,,,,,,,,3006,2023-11-07_12h23.40.620,eb_03,2023.2.3,99.91160665618936,2023-11-07 12h24.04.431313 -0500,
,,,,0,0,0,0,145,0,145,0,641.6817589510756,,,,,,,,,,,,,,,,,,,,,,,,,,,,,,,,,,,,,,,,,,,,,,,,,,,,,,,,,,,,,,,,,,,,,,,,,,,,,,,,,,,,,,,,,,,,,,,,,,,,,,,,,,641.6644706240331,10.0,"('l',)",641.6650414180476,641.6650580196583,641.6817589510756,641.6817589510756,641.6817589510756,641.6817589510756,641.6817589510756,641.6817589510756,641.6817589510756,641.6817589510756,642.3426789406221,['l'],[0.5944196208147332],[None],,,,,,,,,,,,,,,,,,,,,3006,2023-11-07_12h23.40.620,eb_03,2023.2.3,99.91160665618936,2023-11-07 12h24.04.431313 -0500,
,,,,0,0,0,0,146,0,146,0,642.3622048646503,,,,,,,,,,,,,,,,,,,,,,,,,,,,,,,,,,,,,,,,,,,,,,,,,,,,,,,,,,,,,,,,,,,,,,,,,,,,,,,,,,,,,,,,,,,,,,,,,,,,,,,,,,642.3449606073846,12.0,"('l', 'space')",642.3455627935473,642.3455806025595,642.3622048646503,642.3622048646503,642.3622048646503,642.3622048646503,642.3622048646503,642.3622048646503,642.3622048646503,642.3622048646503,642.9630625950813,"['l', 'space']","[0.5219782856875099, 0.5379864766146056]","[None, None]",,,,,,,,,,,,,,,,,,,,,3006,2023-11-07_12h23.40.620,eb_03,2023.2.3,99.91160665618936,2023-11-07 12h24.04.431313 -0500,
,,,,0,0,0,0,147,0,147,0,642.982612365071,,,,,,,,,,,,,,,,,,,,,,,,,,,,,,,,,,,,,,,,,,,,,,,,,,,,,,,,,,,,,,,,,,,,,,,,,,,,,,,,,,,,,,,,,,,,,,,,,,,,,,,,,,642.9653759558569,12.0,"('l', 'space')",642.9658595158544,642.965876721195,642.982612365071,642.982612365071,642.982612365071,642.982612365071,642.982612365071,642.982612365071,642.982612365071,642.982612365071,643.893656338565,"['l', 'space']","[0.8135761436715256, 0.8145689207594842]","[None, None]",,,,,,,,,,,,,,,,,,,,,3006,2023-11-07_12h23.40.620,eb_03,2023.2.3,99.91160665618936,2023-11-07 12h24.04.431313 -0500,
,,,,0,0,0,0,148,0,148,0,643.9132242194319,,,,,,,,,,,,,,,,,,,,,,,,,,,,,,,,,,,,,,,,,,,,,,,,,,,,,,,,,,,,,,,,,,,,,,,,,,,,,,,,,,,,,,,,,,,,,,,,,,,,,,,,,,643.8959488718538,14.0,"('j', 'space')",643.8964882736909,643.8965051771665,643.9132242194319,643.9132242194319,643.9132242194319,643.9132242194319,643.9132242194319,643.9132242194319,643.9132242194319,643.9132242194319,646.39534110151,"['j', 'space']","[2.418998716835631, 2.4589995740971062]","[None, None]",,,,,,,,,,,,,,,,,,,,,3006,2023-11-07_12h23.40.620,eb_03,2023.2.3,99.91160665618936,2023-11-07 12h24.04.431313 -0500,
,,,,0,0,0,0,149,0,149,0,646.4148582719499,,,,,,,,,,,,,,,,,,,,,,,,,,,,,,,,,,,,,,,,,,,,,,,,,,,,,,,,,,,,,,,,,,,,,,,,,,,,,,,,,,,,,,,,,,,,,,,,,,,,,,,,,,646.3976330310979,11.0,"('j', 'k')",646.3982210303948,646.3982385375712,646.4148582719499,646.4148582719499,646.4148582719499,646.4148582719499,646.4148582719499,646.4148582719499,646.4148582719499,646.4148582719499,647.185764319147,"['j', 'k']","[0.7094036727212369, 0.7103940350061748]","[None, None]",,,,,,,,,,,,,,,,,,,,,3006,2023-11-07_12h23.40.620,eb_03,2023.2.3,99.91160665618936,2023-11-07 12h24.04.431313 -0500,
,,,,0,0,0,0,150,0,150,0,647.2053895510617,,,,,,,,,,,,,,,,,,,,,,,,,,,,,,,,,,,,,,,,,,,,,,,,,,,,,,,,,,,,,,,,,,,,,,,,,,,,,,,,,,,,,,,,,,,,,,,,,,,,,,,,,,647.1879825978831,14.0,"('j', 'space')",647.1885681824351,647.1886031967588,647.2053895510617,647.2053895510617,647.2053895510617,647.2053895510617,647.2053895510617,647.2053895510617,647.2053895510617,647.2053895510617,648.2064906914893,"['j', 'space']","[0.9028811060998123, 0.9038762979616877]","[None, None]",,,,,,,,,,,,,,,,,,,,,3006,2023-11-07_12h23.40.620,eb_03,2023.2.3,99.91160665618936,2023-11-07 12h24.04.431313 -0500,
,,,,0,0,0,0,151,0,151,0,648.226047403994,,,,,,,,,,,,,,,,,,,,,,,,,,,,,,,,,,,,,,,,,,,,,,,,,,,,,,,,,,,,,,,,,,,,,,,,,,,,,,,,,,,,,,,,,,,,,,,,,,,,,,,,,,648.208739758702,11.0,"('j', 'k')",648.209304515738,648.2093211173778,648.226047403994,648.226047403994,648.226047403994,648.226047403994,648.226047403994,648.226047403994,648.226047403994,648.226047403994,648.8469387662772,"['j', 'k']","[0.5222324414353352, 0.5232228037493769]","[None, None]",,,,,,,,,,,,,,,,,,,,,3006,2023-11-07_12h23.40.620,eb_03,2023.2.3,99.91160665618936,2023-11-07 12h24.04.431313 -0500,
,,,,0,0,0,0,152,0,152,0,648.8664803864085,,,,,,,,,,,,,,,,,,,,,,,,,,,,,,,,,,,,,,,,,,,,,,,,,,,,,,,,,,,,,,,,,,,,,,,,,,,,,,,,,,,,,,,,,,,,,,,,,,,,,,,,,,648.849199001852,14.0,"('j', 'space')",648.8498042064894,648.8498304672539,648.8664803864085,648.8664803864085,648.8664803864085,648.8664803864085,648.8664803864085,648.8664803864085,648.8664803864085,648.8664803864085,649.5474104636814,"['j', 'space']","[0.6008293567283545, 0.6407834275742061]","[None, None]",,,,,,,,,,,,,,,,,,,,,3006,2023-11-07_12h23.40.620,eb_03,2023.2.3,99.91160665618936,2023-11-07 12h24.04.431313 -0500,
,,,,0,0,0,0,153,0,153,0,649.5669234082743,,,,,,,,,,,,,,,,,,,,,,,,,,,,,,,,,,,,,,,,,,,,,,,,,,,,,,,,,,,,,,,,,,,,,,,,,,,,,,,,,,,,,,,,,,,,,,,,,,,,,,,,,,649.5496350812318,0.0,"('h', 'k')",649.5502004419686,649.5502182509808,649.5669234082743,649.5669234082743,649.5669234082743,649.5669234082743,649.5669234082743,649.5669234082743,649.5669234082743,649.5669234082743,650.6781050846621,"['h', 'k']","[1.012366700277198, 1.0133564588904846]","[None, None]",,,,,,,,,,,,,,,,,,,,,3006,2023-11-07_12h23.40.620,eb_03,2023.2.3,99.91160665618936,2023-11-07 12h24.04.431313 -0500,
,,,,0,0,0,0,154,0,154,0,650.6976648156415,,,,,,,,,,,,,,,,,,,,,,,,,,,,,,,,,,,,,,,,,,,,,,,,,,,,,,,,,,,,,,,,,,,,,,,,,,,,,,,,,,,,,,,,,,,,,,,,,,,,,,,,,,650.6803487186262,3.0,"('k', 'space')",650.680934605014,650.6809512066247,650.6976648156415,650.6976648156415,650.6976648156415,650.6976648156415,650.6976648156415,650.6976648156415,650.6976648156415,650.6976648156415,652.2991642742709,"['k', 'space']","[1.5376399554370437, 1.5386037551506888]","[None, None]",,,,,,,,,,,,,,,,,,,,,3006,2023-11-07_12h23.40.620,eb_03,2023.2.3,99.91160665618936,2023-11-07 12h24.04.431313 -0500,
,,,,0,0,0,0,155,0,155,0,652.3187261181884,,,,,,,,,,,,,,,,,,,,,,,,,,,,,,,,,,,,,,,,,,,,,,,,,,,,,,,,,,,,,,,,,,,,,,,,,,,,,,,,,,,,,,,,,,,,,,,,,,,,,,,,,,652.3014359800727,2.0,"('k',)",652.3019530451857,652.3019702504971,652.3187261181884,652.3187261181884,652.3187261181884,652.3187261181884,652.3187261181884,652.3187261181884,652.3187261181884,652.3187261181884,653.0897363028489,['k'],[0.7006446561426856],[None],,,,,,,,,,,,,,,,,,,,,3006,2023-11-07_12h23.40.620,eb_03,2023.2.3,99.91160665618936,2023-11-07 12h24.04.431313 -0500,
