practice_loop.thisRepN,practice_loop.thisTrialN,practice_loop.thisN,practice_loop.thisIndex,blocks.thisRepN,blocks.thisTrialN,blocks.thisN,blocks.thisIndex,trials.thisRepN,trials.thisTrialN,trials.thisN,trials.thisIndex,thisRow.t,notes,path,resp order,Instructions_0.started,welcome_text.started,instructions_0_keypress.started,Instructions_0.stopped,instructions_0_keypress.keys,instructions_0_keypress.rt,instructions_0_keypress.duration,consent_0.started,consent_image_0.started,consent0_key_resp.started,consent0_text.started,consent_0.stopped,consent0_key_resp.keys,consent0_key_resp.rt,consent0_key_resp.duration,consent_1.started,consent_image_1.started,consent1_key_resp.started,consent1_text.started,consent_1.stopped,consent1_key_resp.keys,consent1_key_resp.rt,consent1_key_resp.duration,consent_2.started,consent2_text.started,consent_image_2.started,consent2_key_resp.started,consent_2.stopped,consent2_key_resp.keys,consent2_key_resp.rt,consent2_key_resp.duration,consent_3.started,agree_button.started,disagree_button.started,consent_image_3.started,consent_3.stopped,agree_button.numClicks,agree_button.timesOn,agree_button.timesOff,disagree_button.numClicks,disagree_button.timesOn,disagree_button.timesOff,demographics.started,age_slider.started,Gender.started,Handedness.started,age_text.started,handedness_text.started,gender_text.started,demographics.stopped,age_slider.response,age_slider.rt,Gender.text,Handedness.response,Handedness.rt,instructions_1.started,instructions_text1.started,instructions1_key_resp.started,instr1_cnt_text.started,instructions_1.stopped,instructions1_key_resp.keys,instructions1_key_resp.rt,instructions1_key_resp.duration,instructions_2.started,instructions_text2.started,key_stim_association.started,instr2_cnt_text.started,instructions2_key_resp.started,instructions_2.stopped,instructions2_key_resp.keys,instructions2_key_resp.rt,instructions2_key_resp.duration,instructions_3.started,instructions_text3.started,examplestim_image_2.started,instructions3_key_resp.started,instr3_cnt_text.started,instructions_3.stopped,instructions3_key_resp.keys,instructions3_key_resp.rt,instructions3_key_resp.duration,instructions_4.started,instructions_text4.started,handplacement_image.started,instructions4_key_resp.started,instr4_cnt_text.started,instructions_4.stopped,instructions4_key_resp.keys,instructions4_key_resp.rt,instructions4_key_resp.duration,instructions_5.started,instructions_text5.started,image.started,instructions5_key_resp.started,instr5_cnt_text.started,instructions_5.stopped,instructions5_key_resp.keys,instructions5_key_resp.rt,instructions5_key_resp.duration,begin_exp_timer.started,text_countdown.started,begin_exp_timer.stopped,stim_resp_selector.started,node idx,stim,stim_resp_selector.stopped,stim_display.started,space.started,h.started,j.started,k.started,l.started,key_resp.started,text.started,accuracy_text.started,stim_display.stopped,key_resp.keys,key_resp.rt,key_resp.duration,break_2.started,break_text.started,break_key_resp.started,break_2.stopped,break_key_resp.keys,break_key_resp.rt,break_key_resp.duration,debriefing.started,graph.started,debrief_text.started,debriefing_title.started,demo_scr_adv.started,demo_scr_adv_keypress.started,debriefing.stopped,demo_scr_adv_keypress.keys,demo_scr_adv_keypress.rt,demo_scr_adv_keypress.duration,done.started,text_countdown_2.started,done.stopped,participant,date,expName,psychopyVersion,frameRate,expStart,
,,,,,,,,,,,,,,[12. 13. 11. ... 10. 12. 13.],"[('h', 'j'), ('j', 'l'), ('l', 'space'), ('h', 'space'), ('l',), ('h', 'l'), ('k', 'l'), ('j',), ('h', 'k'), ('j', 'k'), ('space',), ('h',), ('k', 'space'), ('k',), ('j', 'space')]",0.002957192999019753,0.011188856784428935,0.011188856784428935,8.337023712178052,return,8.320250689794193,None,,,,,,,,,,,,,,,,,,,,,,,,,,,,,,,,,,,,,,,,,,,,,,,,,,,,,,,,,,,,,,,,,,,,,,,,,,,,,,,,,,,,,,,,,,,,,,,,,,,,,,,,,,,,,,,,,,,,,,,,,,,,,,,,,,,,,3007,2023-11-07_12h26.42.279,eb_03,2023.2.3,119.95405237101579,2023-11-07 12h26.54.669478 -0500,
,,,,,,,,,,,,,,,,,,,,,,,8.337047859924496,8.3448566363586,8.3448566363586,8.3448566363586,12.820729569728428,space,4.473652246546408,None,,,,,,,,,,,,,,,,,,,,,,,,,,,,,,,,,,,,,,,,,,,,,,,,,,,,,,,,,,,,,,,,,,,,,,,,,,,,,,,,,,,,,,,,,,,,,,,,,,,,,,,,,,,,,,,,,,,,,,,,,,,,,3007,2023-11-07_12h26.42.279,eb_03,2023.2.3,119.95405237101579,2023-11-07 12h26.54.669478 -0500,
,,,,,,,,,,,,,,,,,,,,,,,,,,,,,,,12.820753113774117,12.828509972569009,12.828509972569009,12.828509972569009,13.704141247399093,space,0.8700060580667923,None,,,,,,,,,,,,,,,,,,,,,,,,,,,,,,,,,,,,,,,,,,,,,,,,,,,,,,,,,,,,,,,,,,,,,,,,,,,,,,,,,,,,,,,,,,,,,,,,,,,,,,,,,,,,,,,,,,,,,3007,2023-11-07_12h26.42.279,eb_03,2023.2.3,119.95405237101579,2023-11-07 12h26.54.669478 -0500,
,,,,,,,,,,,,,,,,,,,,,,,,,,,,,,,,,,,,,,,13.704164187751303,13.711909274512436,13.711909274512436,13.711909274512436,14.179037102709117,space,0.45859341207687976,None,,,,,,,,,,,,,,,,,,,,,,,,,,,,,,,,,,,,,,,,,,,,,,,,,,,,,,,,,,,,,,,,,,,,,,,,,,,,,,,,,,,,,,,,,,,,,,,,,,,,,,,,,,,,,3007,2023-11-07_12h26.42.279,eb_03,2023.2.3,119.95405237101579,2023-11-07 12h26.54.669478 -0500,
,,,,,,,,,,,,,,,,,,,,,,,,,,,,,,,,,,,,,,,,,,,,,,,14.179060344911704,14.195273441495374,14.195273441495374,14.195273441495374,16.121158886417106,1,[1.9406563175507472],[1.9406620526351617],0,,,16.12124310166837,16.17041515102028,16.17041515102028,16.17041515102028,16.17041515102028,16.17041515102028,16.17041515102028,26.261431617065682,18-20,6.321792221351643,Male,Right Handed,10.10814053624199,26.261457877735666,26.27113599133736,28.262946887945873,28.262946887945873,29.430278975858528,space,1.162773295858642,None,,,,,,,,,,,,,,,,,,,,,,,,,,,,,,,,,,,,,,,,,,,,,,,,,,,,,,,,,,,,,,,,,,,,,,,,,,,,,3007,2023-11-07_12h26.42.279,eb_03,2023.2.3,119.95405237101579,2023-11-07 12h26.54.669478 -0500,
,,,,,,,,,,,,,,,,,,,,,,,,,,,,,,,,,,,,,,,,,,,,,,,,,,,,,,,,,,,,,,,,,,,,,,,,,,,,,,,29.43030493468541,29.43803100509831,29.43803100509831,32.429911024621106,32.429911024621106,46.82321648542711,space,14.386985694574832,None,,,,,,,,,,,,,,,,,,,,,,,,,,,,,,,,,,,,,,,,,,,,,,,,,,,,,,,,,,,,,,,,,,,,3007,2023-11-07_12h26.42.279,eb_03,2023.2.3,119.95405237101579,2023-11-07 12h26.54.669478 -0500,
,,,,,,,,,,,,,,,,,,,,,,,,,,,,,,,,,,,,,,,,,,,,,,,,,,,,,,,,,,,,,,,,,,,,,,,,,,,,,,,,,,,,,,,,46.82324395348405,46.830976664525224,46.830976664525224,49.82282499013672,49.82282499013672,57.57394627550093,k,7.746175525717263,None,,,,,,,,,,,,,,,,,,,,,,,,,,,,,,,,,,,,,,,,,,,,,,,,,,,,,,,,,,,3007,2023-11-07_12h26.42.279,eb_03,2023.2.3,119.95405237101579,2023-11-07 12h26.54.669478 -0500,
,,,,,,,,,,,,,,,,,,,,,,,,,,,,,,,,,,,,,,,,,,,,,,,,,,,,,,,,,,,,,,,,,,,,,,,,,,,,,,,,,,,,,,,,,,,,,,,,,57.57399094882567,57.590053725711186,57.590053725711186,60.57360398124001,60.57360398124001,66.22466909290961,space,5.650523598531436,None,,,,,,,,,,,,,,,,,,,,,,,,,,,,,,,,,,,,,,,,,,,,,,,,,,3007,2023-11-07_12h26.42.279,eb_03,2023.2.3,119.95405237101579,2023-11-07 12h26.54.669478 -0500,
,,,,,,,,,,,,,,,,,,,,,,,,,,,,,,,,,,,,,,,,,,,,,,,,,,,,,,,,,,,,,,,,,,,,,,,,,,,,,,,,,,,,,,,,,,,,,,,,,,,,,,,,,,66.2246974665104,66.23235049000505,66.23235049000505,69.22422688736697,69.22422688736697,79.92559718123812,space,10.695069543988211,None,,,,,,,,,,,,,,,,,,,,,,,,,,,,,,,,,,,,,,,,,3007,2023-11-07_12h26.42.279,eb_03,2023.2.3,119.95405237101579,2023-11-07 12h26.54.669478 -0500,
,,,,0,0,0,0,0,0,0,0,84.95873211067374,,,,,,,,,,,,,,,,,,,,,,,,,,,,,,,,,,,,,,,,,,,,,,,,,,,,,,,,,,,,,,,,,,,,,,,,,,,,,,,,,,,,,,,,,,,,,,,,,,,,,,,79.92562555483164,79.95002654742711,84.933789303097,84.93801938399702,12.0,"('k', 'space')",84.93847366341652,84.9384884539104,84.95873211067374,84.95873211067374,84.95873211067374,84.95873211067374,84.95873211067374,84.95873211067374,84.95873211067374,84.95873211067374,100.76926921986887,"['space', 'h', 'l', 'space', 'l', 'space', 'space']","[2.2885881689944654, 6.047657382157922, 9.527687047659128, 9.551717674243264, 10.32769453345827, 10.343696337295114, 15.767764513620932]","[None, None, None, None, None, None, None]",,,,,,,,,,,,,,,,,,,,,3007,2023-11-07_12h26.42.279,eb_03,2023.2.3,119.95405237101579,2023-11-07 12h26.54.669478 -0500,
,,,,0,0,0,0,1,0,1,0,100.78490397801215,,,,,,,,,,,,,,,,,,,,,,,,,,,,,,,,,,,,,,,,,,,,,,,,,,,,,,,,,,,,,,,,,,,,,,,,,,,,,,,,,,,,,,,,,,,,,,,,,,,,,,,,,,100.77176458727627,13.0,"('k',)",100.77218958755839,100.77220105773449,100.78490397801215,100.78490397801215,100.78490397801215,100.78490397801215,100.78490397801215,100.78490397801215,100.78490397801215,100.78490397801215,101.66047760010406,['k'],[0.813605381801608],[None],,,,,,,,,,,,,,,,,,,,,3007,2023-11-07_12h26.42.279,eb_03,2023.2.3,119.95405237101579,2023-11-07 12h26.54.669478 -0500,
,,,,0,0,0,0,2,0,2,0,101.67669220592506,,,,,,,,,,,,,,,,,,,,,,,,,,,,,,,,,,,,,,,,,,,,,,,,,,,,,,,,,,,,,,,,,,,,,,,,,,,,,,,,,,,,,,,,,,,,,,,,,,,,,,,,,,101.66256487064675,11.0,"('h',)",101.66300828358362,101.66301975375973,101.67669220592506,101.67669220592506,101.67669220592506,101.67669220592506,101.67669220592506,101.67669220592506,101.67669220592506,101.67669220592506,106.41912000191223,['h'],[4.680867652561574],[None],,,,,,,,,,,,,,,,,,,,,3007,2023-11-07_12h26.42.279,eb_03,2023.2.3,119.95405237101579,2023-11-07 12h26.54.669478 -0500,
,,,,0,0,0,0,3,0,3,0,106.43531951539626,,,,,,,,,,,,,,,,,,,,,,,,,,,,,,,,,,,,,,,,,,,,,,,,,,,,,,,,,,,,,,,,,,,,,,,,,,,,,,,,,,,,,,,,,,,,,,,,,,,,,,,,,,106.421193689348,14.0,"('j', 'space')",106.42163559304754,106.42164676138054,106.43531951539626,106.43531951539626,106.43531951539626,106.43531951539626,106.43531951539626,106.43531951539626,106.43531951539626,106.43531951539626,109.6361475415033,"['space', 'j']","[3.1382766178285237, 3.170265435008332]","[None, None]",,,,,,,,,,,,,,,,,,,,,3007,2023-11-07_12h26.42.279,eb_03,2023.2.3,119.95405237101579,2023-11-07 12h26.54.669478 -0500,
,,,,0,0,0,0,4,0,4,0,109.65223476798565,,,,,,,,,,,,,,,,,,,,,,,,,,,,,,,,,,,,,,,,,,,,,,,,,,,,,,,,,,,,,,,,,,,,,,,,,,,,,,,,,,,,,,,,,,,,,,,,,,,,,,,,,,109.63821156985068,12.0,"('k', 'space')",109.63866222710931,109.63867399912851,109.65223476798565,109.65223476798565,109.65223476798565,109.65223476798565,109.65223476798565,109.65223476798565,109.65223476798565,109.65223476798565,113.10355669090495,"['h', 'j', 'space', 'space']","[1.4893799734854838, 2.0973833203679533, 2.529437155346386, 3.4014127637055935]","[None, None, None, None]",,,,,,,,,,,,,,,,,,,,,3007,2023-11-07_12h26.42.279,eb_03,2023.2.3,119.95405237101579,2023-11-07 12h26.54.669478 -0500,
,,,,0,0,0,0,5,0,5,0,113.11916216990357,,,,,,,,,,,,,,,,,,,,,,,,,,,,,,,,,,,,,,,,,,,,,,,,,,,,,,,,,,,,,,,,,,,,,,,,,,,,,,,,,,,,,,,,,,,,,,,,,,,,,,,,,,113.10566599626327,10.0,"('space',)",113.1060707728102,113.10608254483668,113.11916216990357,113.11916216990357,113.11916216990357,113.11916216990357,113.11916216990357,113.11916216990357,113.11916216990357,113.11916216990357,114.63696947030985,"['j', 'space']","[0.8944843234348809, 1.494491145174834]","[None, None]",,,,,,,,,,,,,,,,,,,,,3007,2023-11-07_12h26.42.279,eb_03,2023.2.3,119.95405237101579,2023-11-07 12h26.54.669478 -0500,
,,,,0,0,0,0,6,0,6,0,114.65262928173615,,,,,,,,,,,,,,,,,,,,,,,,,,,,,,,,,,,,,,,,,,,,,,,,,,,,,,,,,,,,,,,,,,,,,,,,,,,,,,,,,,,,,,,,,,,,,,,,,,,,,,,,,,114.63899365488032,9.0,"('j', 'k')",114.63941473115119,114.6394262013273,114.65262928173615,114.65262928173615,114.65262928173615,114.65262928173615,114.65262928173615,114.65262928173615,114.65262928173615,114.65262928173615,118.30338892446161,"['j', 'k']","[3.5770565048151184, 3.5780468641314656]","[None, None]",,,,,,,,,,,,,,,,,,,,,3007,2023-11-07_12h26.42.279,eb_03,2023.2.3,119.95405237101579,2023-11-07 12h26.54.669478 -0500,
,,,,0,0,0,0,7,0,7,0,118.31955523479701,,,,,,,,,,,,,,,,,,,,,,,,,,,,,,,,,,,,,,,,,,,,,,,,,,,,,,,,,,,,,,,,,,,,,,,,,,,,,,,,,,,,,,,,,,,,,,,,,,,,,,,,,,118.30547106361337,6.0,"('k', 'l')",118.30589817681903,118.30591206176905,118.31955523479701,118.31955523479701,118.31955523479701,118.31955523479701,118.31955523479701,118.31955523479701,118.31955523479701,118.31955523479701,119.91187643358717,"['k', 'l']","[1.5171347857613, 1.5181363134106505]","[None, None]",,,,,,,,,,,,,,,,,,,,,3007,2023-11-07_12h26.42.279,eb_03,2023.2.3,119.95405237101579,2023-11-07 12h26.54.669478 -0500,
,,,,0,0,0,0,8,0,8,0,119.92800712600001,,,,,,,,,,,,,,,,,,,,,,,,,,,,,,,,,,,,,,,,,,,,,,,,,,,,,,,,,,,,,,,,,,,,,,,,,,,,,,,,,,,,,,,,,,,,,,,,,,,,,,,,,,119.91392959544464,5.0,"('h', 'l')",119.91436485851591,119.91437632869201,119.92800712600001,119.92800712600001,119.92800712600001,119.92800712600001,119.92800712600001,119.92800712600001,119.92800712600001,119.92800712600001,123.21213218836783,"['h', 'l']","[3.2207481031218776, 3.244775107537862]","[None, None]",,,,,,,,,,,,,,,,,,,,,3007,2023-11-07_12h26.42.279,eb_03,2023.2.3,119.95405237101579,2023-11-07 12h26.54.669478 -0500,
,,,,0,0,0,0,9,0,9,0,123.22825412722887,,,,,,,,,,,,,,,,,,,,,,,,,,,,,,,,,,,,,,,,,,,,,,,,,,,,,,,,,,,,,,,,,,,,,,,,,,,,,,,,,,,,,,,,,,,,,,,,,,,,,,,,,,123.21434683826374,6.0,"('k', 'l')",123.21480806015461,123.21481953033071,123.22825412722887,123.22825412722887,123.22825412722887,123.22825412722887,123.22825412722887,123.22825412722887,123.22825412722887,123.22825412722887,125.02904490544461,"['k', 'l']","[1.7285081313020783, 1.7294906426031957]","[None, None]",,,,,,,,,,,,,,,,,,,,,3007,2023-11-07_12h26.42.279,eb_03,2023.2.3,119.95405237101579,2023-11-07 12h26.54.669478 -0500,
,,,,0,0,0,0,10,0,10,0,125.04510466387,,,,,,,,,,,,,,,,,,,,,,,,,,,,,,,,,,,,,,,,,,,,,,,,,,,,,,,,,,,,,,,,,,,,,,,,,,,,,,,,,,,,,,,,,,,,,,,,,,,,,,,,,,125.03111829104455,9.0,"('j', 'k')",125.03155385595892,125.03156532613502,125.04510466387,125.04510466387,125.04510466387,125.04510466387,125.04510466387,125.04510466387,125.04510466387,125.04510466387,126.279006646364,"['j', 'k']","[1.1596805736553506, 1.160658557251736]","[None, None]",,,,,,,,,,,,,,,,,,,,,3007,2023-11-07_12h26.42.279,eb_03,2023.2.3,119.95405237101579,2023-11-07 12h26.54.669478 -0500,
,,,,0,0,0,0,11,0,11,0,126.29519982107013,,,,,,,,,,,,,,,,,,,,,,,,,,,,,,,,,,,,,,,,,,,,,,,,,,,,,,,,,,,,,,,,,,,,,,,,,,,,,,,,,,,,,,,,,,,,,,,,,,,,,,,,,,126.28108305043133,7.0,"('j',)",126.28150774886308,126.28151891719608,126.29519982107013,126.29519982107013,126.29519982107013,126.29519982107013,126.29519982107013,126.29519982107013,126.29519982107013,126.29519982107013,127.50415205350873,['j'],[1.1495834967136034],[None],,,,,,,,,,,,,,,,,,,,,3007,2023-11-07_12h26.42.279,eb_03,2023.2.3,119.95405237101579,2023-11-07 12h26.54.669478 -0500,
,,,,0,0,0,0,12,0,12,0,127.52024410953891,,,,,,,,,,,,,,,,,,,,,,,,,,,,,,,,,,,,,,,,,,,,,,,,,,,,,,,,,,,,,,,,,,,,,,,,,,,,,,,,,,,,,,,,,,,,,,,,,,,,,,,,,,127.5062855066135,9.0,"('j', 'k')",127.50670718657784,127.5067195622978,127.52024410953891,127.52024410953891,127.52024410953891,127.52024410953891,127.52024410953891,127.52024410953891,127.52024410953891,127.52024410953891,128.66241636202903,"['j', 'k']","[1.0685533298383234, 1.069540368836897]","[None, None]",,,,,,,,,,,,,,,,,,,,,3007,2023-11-07_12h26.42.279,eb_03,2023.2.3,119.95405237101579,2023-11-07 12h26.54.669478 -0500,
,,,,0,0,0,0,13,0,13,0,128.67870401477558,,,,,,,,,,,,,,,,,,,,,,,,,,,,,,,,,,,,,,,,,,,,,,,,,,,,,,,,,,,,,,,,,,,,,,,,,,,,,,,,,,,,,,,,,,,,,,,,,,,,,,,,,,128.66453623202688,10.0,"('space',)",128.66497632464598,128.66498779482936,128.67870401477558,128.67870401477558,128.67870401477558,128.67870401477558,128.67870401477558,128.67870401477558,128.67870401477558,128.67870401477558,129.47924124169367,['space'],[0.7341457237853319],[None],,,,,,,,,,,,,,,,,,,,,3007,2023-11-07_12h26.42.279,eb_03,2023.2.3,119.95405237101579,2023-11-07 12h26.54.669478 -0500,
,,,,0,0,0,0,14,0,14,0,129.49544015147694,,,,,,,,,,,,,,,,,,,,,,,,,,,,,,,,,,,,,,,,,,,,,,,,,,,,,,,,,,,,,,,,,,,,,,,,,,,,,,,,,,,,,,,,,,,,,,,,,,,,,,,,,,129.48131945683417,11.0,"('h',)",129.4817414386489,129.48175532359892,129.49544015147694,129.49544015147694,129.49544015147694,129.49544015147694,129.49544015147694,129.49544015147694,129.49544015147694,129.49544015147694,130.9126932309955,['h'],[1.3574065203138161],[None],,,,,,,,,,,,,,,,,,,,,3007,2023-11-07_12h26.42.279,eb_03,2023.2.3,119.95405237101579,2023-11-07 12h26.54.669478 -0500,
,,,,0,0,0,0,15,0,15,0,130.92888429277082,,,,,,,,,,,,,,,,,,,,,,,,,,,,,,,,,,,,,,,,,,,,,,,,,,,,,,,,,,,,,,,,,,,,,,,,,,,,,,,,,,,,,,,,,,,,,,,,,,,,,,,,,,130.91477144614328,10.0,"('space',)",130.91521334984282,130.91522482001892,130.92888429277082,130.92888429277082,130.92888429277082,130.92888429277082,130.92888429277082,130.92888429277082,130.92888429277082,130.92888429277082,132.53776601380378,['space'],[1.5479789999153581],[None],,,,,,,,,,,,,,,,,,,,,3007,2023-11-07_12h26.42.279,eb_03,2023.2.3,119.95405237101579,2023-11-07 12h26.54.669478 -0500,
,,,,0,0,0,0,16,0,16,0,132.553999635973,,,,,,,,,,,,,,,,,,,,,,,,,,,,,,,,,,,,,,,,,,,,,,,,,,,,,,,,,,,,,,,,,,,,,,,,,,,,,,,,,,,,,,,,,,,,,,,,,,,,,,,,,,132.53989192074368,11.0,"('h',)",132.54031269516418,132.54032416534028,132.553999635973,132.553999635973,132.553999635973,132.553999635973,132.553999635973,132.553999635973,132.553999635973,132.553999635973,133.28786615147692,['h'],[0.6669220290496014],[None],,,,,,,,,,,,,,,,,,,,,3007,2023-11-07_12h26.42.279,eb_03,2023.2.3,119.95405237101579,2023-11-07 12h26.54.669478 -0500,
,,,,0,0,0,0,17,0,17,0,133.30407170189574,,,,,,,,,,,,,,,,,,,,,,,,,,,,,,,,,,,,,,,,,,,,,,,,,,,,,,,,,,,,,,,,,,,,,,,,,,,,,,,,,,,,,,,,,,,,,,,,,,,,,,,,,,133.28993380198517,13.0,"('k',)",133.29035668933648,133.29036815951258,133.30407170189574,133.30407170189574,133.30407170189574,133.30407170189574,133.30407170189574,133.30407170189574,133.30407170189574,133.30407170189574,135.78853096903185,"['j', 'k']","[1.8678164614611887, 2.4438098618775257]","[None, None]",,,,,,,,,,,,,,,,,,,,,3007,2023-11-07_12h26.42.279,eb_03,2023.2.3,119.95405237101579,2023-11-07 12h26.54.669478 -0500,
,,,,0,0,0,0,18,0,18,0,135.80420225063426,,,,,,,,,,,,,,,,,,,,,,,,,,,,,,,,,,,,,,,,,,,,,,,,,,,,,,,,,,,,,,,,,,,,,,,,,,,,,,,,,,,,,,,,,,,,,,,,,,,,,,,,,,135.79058564012666,14.0,"('j', 'space')",135.79107855592883,135.79109032795532,135.80420225063426,135.80420225063426,135.80420225063426,135.80420225063426,135.80420225063426,135.80420225063426,135.80420225063426,135.80420225063426,142.26356476832007,"['j', 'space']","[6.399766189475486, 6.400760774646187]","[None, None]",,,,,,,,,,,,,,,,,,,,,3007,2023-11-07_12h26.42.279,eb_03,2023.2.3,119.95405237101579,2023-11-07 12h26.54.669478 -0500,
,,,,0,0,0,0,19,0,19,0,142.27965078741545,,,,,,,,,,,,,,,,,,,,,,,,,,,,,,,,,,,,,,,,,,,,,,,,,,,,,,,,,,,,,,,,,,,,,,,,,,,,,,,,,,,,,,,,,,,,,,,,,,,,,,,,,,142.2656266837439,11.0,"('h',)",142.26613076787908,142.26614525652258,142.27965078741545,142.27965078741545,142.27965078741545,142.27965078741545,142.27965078741545,142.27965078741545,142.27965078741545,142.27965078741545,143.45531837441376,['h'],[1.1163311488708132],[None],,,,,,,,,,,,,,,,,,,,,3007,2023-11-07_12h26.42.279,eb_03,2023.2.3,119.95405237101579,2023-11-07 12h26.54.669478 -0500,
,,,,0,0,0,0,20,0,20,0,143.4714460483592,,,,,,,,,,,,,,,,,,,,,,,,,,,,,,,,,,,,,,,,,,,,,,,,,,,,,,,,,,,,,,,,,,,,,,,,,,,,,,,,,,,,,,,,,,,,,,,,,,,,,,,,,,143.45744216842286,14.0,"('j', 'space')",143.45811407937435,143.45812645509432,143.4714460483592,143.4714460483592,143.4714460483592,143.4714460483592,143.4714460483592,143.4714460483592,143.4714460483592,143.4714460483592,144.30539197975304,"['j', 'space']","[0.7725777625237242, 0.7735343149979599]","[None, None]",,,,,,,,,,,,,,,,,,,,,3007,2023-11-07_12h26.42.279,eb_03,2023.2.3,119.95405237101579,2023-11-07 12h26.54.669478 -0500,
,,,,0,0,0,0,21,0,21,0,144.3215136167637,,,,,,,,,,,,,,,,,,,,,,,,,,,,,,,,,,,,,,,,,,,,,,,,,,,,,,,,,,,,,,,,,,,,,,,,,,,,,,,,,,,,,,,,,,,,,,,,,,,,,,,,,,144.3074593284109,12.0,"('k', 'space')",144.30796461993305,144.3079857492121,144.3215136167637,144.3215136167637,144.3215136167637,144.3215136167637,144.3215136167637,144.3215136167637,144.3215136167637,144.3215136167637,145.83881924780871,"['k', 'space']","[1.4586097118008183, 1.4824876039128867]","[None, None]",,,,,,,,,,,,,,,,,,,,,3007,2023-11-07_12h26.42.279,eb_03,2023.2.3,119.95405237101579,2023-11-07 12h26.54.669478 -0500,
,,,,0,0,0,0,22,0,22,0,145.85501906313584,,,,,,,,,,,,,,,,,,,,,,,,,,,,,,,,,,,,,,,,,,,,,,,,,,,,,,,,,,,,,,,,,,,,,,,,,,,,,,,,,,,,,,,,,,,,,,,,,,,,,,,,,,145.84095632307435,14.0,"('j', 'space')",145.8414585961291,145.84147066999867,145.85501906313584,145.85501906313584,145.85501906313584,145.85501906313584,145.85501906313584,145.85501906313584,145.85501906313584,145.85501906313584,147.00602667299245,"['j', 'space']","[1.0129990319837816, 1.1089983848214615]","[None, None]",,,,,,,,,,,,,,,,,,,,,3007,2023-11-07_12h26.42.279,eb_03,2023.2.3,119.95405237101579,2023-11-07 12h26.54.669478 -0500,
,,,,0,0,0,0,23,0,23,0,147.02176707750914,,,,,,,,,,,,,,,,,,,,,,,,,,,,,,,,,,,,,,,,,,,,,,,,,,,,,,,,,,,,,,,,,,,,,,,,,,,,,,,,,,,,,,,,,,,,,,,,,,,,,,,,,,147.00806444066984,12.0,"('k', 'space')",147.00855554539157,147.00857607097714,147.02176707750914,147.02176707750914,147.02176707750914,147.02176707750914,147.02176707750914,147.02176707750914,147.02176707750914,147.02176707750914,150.26416514159064,"['k', 'space']","[3.181287068669917, 3.2212941439574934]","[None, None]",,,,,,,,,,,,,,,,,,,,,3007,2023-11-07_12h26.42.279,eb_03,2023.2.3,119.95405237101579,2023-11-07 12h26.54.669478 -0500,
,,,,0,0,0,0,24,0,24,0,150.28030005985784,,,,,,,,,,,,,,,,,,,,,,,,,,,,,,,,,,,,,,,,,,,,,,,,,,,,,,,,,,,,,,,,,,,,,,,,,,,,,,,,,,,,,,,,,,,,,,,,,,,,,,,,,,150.26631187595194,11.0,"('h',)",150.26681143238966,150.26682320441614,150.28030005985784,150.28030005985784,150.28030005985784,150.28030005985784,150.28030005985784,150.28030005985784,150.28030005985784,150.28030005985784,152.08982266199746,"['j', 'h']","[1.0507715354906395, 1.7787795066615217]","[None, None]",,,,,,,,,,,,,,,,,,,,,3007,2023-11-07_12h26.42.279,eb_03,2023.2.3,119.95405237101579,2023-11-07 12h26.54.669478 -0500,
,,,,0,0,0,0,25,0,25,0,152.1054848881904,,,,,,,,,,,,,,,,,,,,,,,,,,,,,,,,,,,,,,,,,,,,,,,,,,,,,,,,,,,,,,,,,,,,,,,,,,,,,,,,,,,,,,,,,,,,,,,,,,,,,,,,,,152.0918794460158,13.0,"('k',)",152.0924001317253,152.09241220560216,152.1054848881904,152.1054848881904,152.1054848881904,152.1054848881904,152.1054848881904,152.1054848881904,152.1054848881904,152.1054848881904,153.6310487455412,['k'],[1.465622518255259],[None],,,,,,,,,,,,,,,,,,,,,3007,2023-11-07_12h26.42.279,eb_03,2023.2.3,119.95405237101579,2023-11-07 12h26.54.669478 -0500,
,,,,0,0,0,0,26,0,26,0,153.64728810280212,,,,,,,,,,,,,,,,,,,,,,,,,,,,,,,,,,,,,,,,,,,,,,,,,,,,,,,,,,,,,,,,,,,,,,,,,,,,,,,,,,,,,,,,,,,,,,,,,,,,,,,,,,153.63306810056383,14.0,"('j', 'space')",153.6336434205441,153.6336554944137,153.64728810280212,153.64728810280212,153.64728810280212,153.64728810280212,153.64728810280212,153.64728810280212,153.64728810280212,153.64728810280212,155.13954075218498,"['j', 'space']","[1.419827228935901, 1.4208172864018707]","[None, None]",,,,,,,,,,,,,,,,,,,,,3007,2023-11-07_12h26.42.279,eb_03,2023.2.3,119.95405237101579,2023-11-07 12h26.54.669478 -0500,
,,,,0,0,0,0,27,0,27,0,155.15566842613043,,,,,,,,,,,,,,,,,,,,,,,,,,,,,,,,,,,,,,,,,,,,,,,,,,,,,,,,,,,,,,,,,,,,,,,,,,,,,,,,,,,,,,,,,,,,,,,,,,,,,,,,,,155.1416210802563,0.0,"('h', 'j')",155.14214780290058,155.14216832848615,155.15566842613043,155.15566842613043,155.15566842613043,155.15566842613043,155.15566842613043,155.15566842613043,155.15566842613043,155.15566842613043,156.5979874667173,"['h', 'j']","[1.3834667647024617, 1.384459236949624]","[None, None]",,,,,,,,,,,,,,,,,,,,,3007,2023-11-07_12h26.42.279,eb_03,2023.2.3,119.95405237101579,2023-11-07 12h26.54.669478 -0500,
,,,,0,0,0,0,28,0,28,0,156.6141619269183,,,,,,,,,,,,,,,,,,,,,,,,,,,,,,,,,,,,,,,,,,,,,,,,,,,,,,,,,,,,,,,,,,,,,,,,,,,,,,,,,,,,,,,,,,,,,,,,,,,,,,,,,,156.60006447447813,1.0,"('j', 'l')",156.6005914989728,156.60060357284237,156.6141619269183,156.6141619269183,156.6141619269183,156.6141619269183,156.6141619269183,156.6141619269183,156.6141619269183,156.6141619269183,168.80774351716536,"['k', 'space', 'j', 'space', 'l', 'j']","[3.86901207658957, 3.893008896331594, 6.069046547490871, 6.1010426089924295, 12.116082125270623, 12.156112442760787]","[None, None, None, None, None, None]",,,,,,,,,,,,,,,,,,,,,3007,2023-11-07_12h26.42.279,eb_03,2023.2.3,119.95405237101579,2023-11-07 12h26.54.669478 -0500,
,,,,0,0,0,0,29,0,29,0,168.82336921989918,,,,,,,,,,,,,,,,,,,,,,,,,,,,,,,,,,,,,,,,,,,,,,,,,,,,,,,,,,,,,,,,,,,,,,,,,,,,,,,,,,,,,,,,,,,,,,,,,,,,,,,,,,168.80981086582324,3.0,"('h', 'space')",168.8103146481153,168.8103351736936,168.82336921989918,168.82336921989918,168.82336921989918,168.82336921989918,168.82336921989918,168.82336921989918,168.82336921989918,168.82336921989918,170.85789687042416,"['k', 'j', 'h', 'h', 'space']","[0.03489892207289813, 1.1309526073309826, 1.1469169821721152, 2.002922178762674, 2.0039146510025603]","[None, None, None, None, None]",,,,,,,,,,,,,,,,,,,,,3007,2023-11-07_12h26.42.279,eb_03,2023.2.3,119.95405237101579,2023-11-07 12h26.54.669478 -0500,
,,,,0,0,0,0,30,0,30,0,170.8735729815744,,,,,,,,,,,,,,,,,,,,,,,,,,,,,,,,,,,,,,,,,,,,,,,,,,,,,,,,,,,,,,,,,,,,,,,,,,,,,,,,,,,,,,,,,,,,,,,,,,,,,,,,,,170.85994761750771,0.0,"('h', 'j')",170.86047343461541,170.86048701772233,170.8735729815744,170.8735729815744,170.8735729815744,170.8735729815744,170.8735729815744,170.8735729815744,170.8735729815744,170.8735729815744,171.79912850795517,"['h', 'j']","[0.8647330965104629, 0.8657225502829533]","[None, None]",,,,,,,,,,,,,,,,,,,,,3007,2023-11-07_12h26.42.279,eb_03,2023.2.3,119.95405237101579,2023-11-07 12h26.54.669478 -0500,
,,,,0,0,0,0,31,0,31,0,171.81532349373447,,,,,,,,,,,,,,,,,,,,,,,,,,,,,,,,,,,,,,,,,,,,,,,,,,,,,,,,,,,,,,,,,,,,,,,,,,,,,,,,,,,,,,,,,,,,,,,,,,,,,,,,,,171.8012003843105,2.0,"('l', 'space')",171.80170205367904,171.80171322200476,171.81532349373447,171.81532349373447,171.81532349373447,171.81532349373447,171.81532349373447,171.81532349373447,171.81532349373447,171.81532349373447,173.34933060946787,"['space', 'l']","[1.4750102552497992, 1.5310203417611774]","[None, None]",,,,,,,,,,,,,,,,,,,,,3007,2023-11-07_12h26.42.279,eb_03,2023.2.3,119.95405237101579,2023-11-07 12h26.54.669478 -0500,
,,,,0,0,0,0,32,0,32,0,173.3653982159085,,,,,,,,,,,,,,,,,,,,,,,,,,,,,,,,,,,,,,,,,,,,,,,,,,,,,,,,,,,,,,,,,,,,,,,,,,,,,,,,,,,,,,,,,,,,,,,,,,,,,,,,,,173.35147945676,0.0,"('h', 'j')",173.35198233351548,173.3519931999981,173.3653982159085,173.3653982159085,173.3653982159085,173.3653982159085,173.3653982159085,173.3653982159085,173.3653982159085,173.3653982159085,176.4167064349822,"['k', 'j', 'j']","[2.18095050950069, 2.196952615180635, 3.036962044876418]","[None, None, None]",,,,,,,,,,,,,,,,,,,,,3007,2023-11-07_12h26.42.279,eb_03,2023.2.3,119.95405237101579,2023-11-07 12h26.54.669478 -0500,
,,,,0,0,0,0,33,0,33,0,176.43235688915593,,,,,,,,,,,,,,,,,,,,,,,,,,,,,,,,,,,,,,,,,,,,,,,,,,,,,,,,,,,,,,,,,,,,,,,,,,,,,,,,,,,,,,,,,,,,,,,,,,,,,,,,,,176.4187583894527,2.0,"('l', 'space')",176.41924164616648,176.4192531163426,176.43235688915593,176.43235688915593,176.43235688915593,176.43235688915593,176.43235688915593,176.43235688915593,176.43235688915593,176.43235688915593,178.10013254092337,"['h', 'h', 'l', 'l', 'space']","[0.0020006405175081454, 0.9300107849849155, 0.9310014461443643, 1.6179987014547805, 1.619027697153797]","[None, None, None, None, None]",,,,,,,,,,,,,,,,,,,,,3007,2023-11-07_12h26.42.279,eb_03,2023.2.3,119.95405237101579,2023-11-07 12h26.54.669478 -0500,
,,,,0,0,0,0,34,0,34,0,178.11579627636092,,,,,,,,,,,,,,,,,,,,,,,,,,,,,,,,,,,,,,,,,,,,,,,,,,,,,,,,,,,,,,,,,,,,,,,,,,,,,,,,,,,,,,,,,,,,,,,,,,,,,,,,,,178.10222524471465,3.0,"('h', 'space')",178.1027263103897,178.10273747871543,178.11579627636092,178.11579627636092,178.11579627636092,178.11579627636092,178.11579627636092,178.11579627636092,178.11579627636092,178.11579627636092,179.5413866660383,"['h', 'space']","[1.3666255249481765, 1.390596084020217]","[None, None]",,,,,,,,,,,,,,,,,,,,,3007,2023-11-07_12h26.42.279,eb_03,2023.2.3,119.95405237101579,2023-11-07 12h26.54.669478 -0500,
,,,,0,0,0,0,35,0,35,0,179.55758165182488,,,,,,,,,,,,,,,,,,,,,,,,,,,,,,,,,,,,,,,,,,,,,,,,,,,,,,,,,,,,,,,,,,,,,,,,,,,,,,,,,,,,,,,,,,,,,,,,,,,,,,,,,,179.5434618627187,4.0,"('l',)",179.5439562877582,179.5439677579343,179.55758165182488,179.55758165182488,179.55758165182488,179.55758165182488,179.55758165182488,179.55758165182488,179.55758165182488,179.55758165182488,180.52468638873688,['l'],[0.8928208457800793],[None],,,,,,,,,,,,,,,,,,,,,3007,2023-11-07_12h26.42.279,eb_03,2023.2.3,119.95405237101579,2023-11-07 12h26.54.669478 -0500,
,,,,0,0,0,0,36,0,36,0,180.54098249319213,,,,,,,,,,,,,,,,,,,,,,,,,,,,,,,,,,,,,,,,,,,,,,,,,,,,,,,,,,,,,,,,,,,,,,,,,,,,,,,,,,,,,,,,,,,,,,,,,,,,,,,,,,180.52674709676648,2.0,"('l', 'space')",180.527241521806,180.52725329383247,180.54098249319213,180.54098249319213,180.54098249319213,180.54098249319213,180.54098249319213,180.54098249319213,180.54098249319213,180.54098249319213,181.71656827970583,"['l', 'space']","[1.1004597428400302, 1.1404275780514581]","[None, None]",,,,,,,,,,,,,,,,,,,,,3007,2023-11-07_12h26.42.279,eb_03,2023.2.3,119.95405237101579,2023-11-07 12h26.54.669478 -0500,
,,,,0,0,0,0,37,0,37,0,181.7327403251329,,,,,,,,,,,,,,,,,,,,,,,,,,,,,,,,,,,,,,,,,,,,,,,,,,,,,,,,,,,,,,,,,,,,,,,,,,,,,,,,,,,,,,,,,,,,,,,,,,,,,,,,,,181.7186437782293,1.0,"('j', 'l')",181.71913609034527,181.719147258671,181.7327403251329,181.7327403251329,181.7327403251329,181.7327403251329,181.7327403251329,181.7327403251329,181.7327403251329,181.7327403251329,183.9667192785637,"['j', 'l']","[2.1727402768374304, 2.173696225618187]","[None, None]",,,,,,,,,,,,,,,,,,,,,3007,2023-11-07_12h26.42.279,eb_03,2023.2.3,119.95405237101579,2023-11-07 12h26.54.669478 -0500,
,,,,0,0,0,0,38,0,38,0,183.98286325224035,,,,,,,,,,,,,,,,,,,,,,,,,,,,,,,,,,,,,,,,,,,,,,,,,,,,,,,,,,,,,,,,,,,,,,,,,,,,,,,,,,,,,,,,,,,,,,,,,,,,,,,,,,183.96884427995974,0.0,"('h', 'j')",183.96933266806445,183.96934474193404,183.98286325224035,183.98286325224035,183.98286325224035,183.98286325224035,183.98286325224035,183.98286325224035,183.98286325224035,183.98286325224035,186.23358232674946,"['j', 'h']","[2.1786148190512904, 2.202598961222975]","[None, None]",,,,,,,,,,,,,,,,,,,,,3007,2023-11-07_12h26.42.279,eb_03,2023.2.3,119.95405237101579,2023-11-07 12h26.54.669478 -0500,
,,,,0,0,0,0,39,0,39,0,186.24975407033344,,,,,,,,,,,,,,,,,,,,,,,,,,,,,,,,,,,,,,,,,,,,,,,,,,,,,,,,,,,,,,,,,,,,,,,,,,,,,,,,,,,,,,,,,,,,,,,,,,,,,,,,,,186.23569676351326,1.0,"('j', 'l')",186.23621231782454,186.23622439169412,186.24975407033344,186.24975407033344,186.24975407033344,186.24975407033344,186.24975407033344,186.24975407033344,186.24975407033344,186.24975407033344,196.6848828185539,"['h', 'h', 'h', 'l', 'h', 'l', 'j', 'l']","[0.05570793787774164, 6.039785217901226, 6.39979184645199, 6.400804542434344, 6.927791607391555, 6.928784985175298, 10.414857019706687, 10.415824136813171]","[None, None, None, None, None, None, None, None]",,,,,,,,,,,,,,,,,,,,,3007,2023-11-07_12h26.42.279,eb_03,2023.2.3,119.95405237101579,2023-11-07 12h26.54.669478 -0500,
,,,,0,0,0,0,40,0,40,0,196.7005024843529,,,,,,,,,,,,,,,,,,,,,,,,,,,,,,,,,,,,,,,,,,,,,,,,,,,,,,,,,,,,,,,,,,,,,,,,,,,,,,,,,,,,,,,,,,,,,,,,,,,,,,,,,,196.6869694854031,2.0,"('l', 'space')",196.687500433909,196.6875125077786,196.7005024843529,196.7005024843529,196.7005024843529,196.7005024843529,196.7005024843529,196.7005024843529,196.7005024843529,196.7005024843529,198.2678368059278,"['space', 'l']","[1.492086633654253, 1.5161196750123054]","[None, None]",,,,,,,,,,,,,,,,,,,,,3007,2023-11-07_12h26.42.279,eb_03,2023.2.3,119.95405237101579,2023-11-07 12h26.54.669478 -0500,
,,,,0,0,0,0,41,0,41,0,198.2839856091523,,,,,,,,,,,,,,,,,,,,,,,,,,,,,,,,,,,,,,,,,,,,,,,,,,,,,,,,,,,,,,,,,,,,,,,,,,,,,,,,,,,,,,,,,,,,,,,,,,,,,,,,,,198.269943092826,3.0,"('h', 'space')",198.27040401287377,198.2704178978238,198.2839856091523,198.2839856091523,198.2839856091523,198.2839856091523,198.2839856091523,198.2839856091523,198.2839856091523,198.2839856091523,199.73461720846535,"['h', 'space']","[1.3886380038966308, 1.389626853975642]","[None, None]",,,,,,,,,,,,,,,,,,,,,3007,2023-11-07_12h26.42.279,eb_03,2023.2.3,119.95405237101579,2023-11-07 12h26.54.669478 -0500,
,,,,0,0,0,0,42,0,42,0,199.75077416155546,,,,,,,,,,,,,,,,,,,,,,,,,,,,,,,,,,,,,,,,,,,,,,,,,,,,,,,,,,,,,,,,,,,,,,,,,,,,,,,,,,,,,,,,,,,,,,,,,,,,,,,,,,199.73672047689615,4.0,"('l',)",199.737216411173,199.7372278813491,199.75077416155546,199.75077416155546,199.75077416155546,199.75077416155546,199.75077416155546,199.75077416155546,199.75077416155546,199.75077416155546,200.92629746578314,['l'],[1.1138692864551558],[None],,,,,,,,,,,,,,,,,,,,,3007,2023-11-07_12h26.42.279,eb_03,2023.2.3,119.95405237101579,2023-11-07 12h26.54.669478 -0500,
,,,,0,0,0,0,43,0,43,0,200.9424903386389,,,,,,,,,,,,,,,,,,,,,,,,,,,,,,,,,,,,,,,,,,,,,,,,,,,,,,,,,,,,,,,,,,,,,,,,,,,,,,,,,,,,,,,,,,,,,,,,,,,,,,,,,,200.9283645125979,2.0,"('l', 'space')",200.9288190938605,200.9288338843544,200.9424903386389,200.9424903386389,200.9424903386389,200.9424903386389,200.9424903386389,200.9424903386389,200.9424903386389,200.9424903386389,203.82660230086185,"['l', 'space']","[2.8101652339537395, 2.8261682451775414]","[None, None]",,,,,,,,,,,,,,,,,,,,,3007,2023-11-07_12h26.42.279,eb_03,2023.2.3,119.95405237101579,2023-11-07 12h26.54.669478 -0500,
,,,,0,0,0,0,44,0,44,0,203.84276529087947,,,,,,,,,,,,,,,,,,,,,,,,,,,,,,,,,,,,,,,,,,,,,,,,,,,,,,,,,,,,,,,,,,,,,,,,,,,,,,,,,,,,,,,,,,,,,,,,,,,,,,,,,,203.82868866586796,3.0,"('h', 'space')",203.82918067613355,203.82919244816003,203.84276529087947,203.84276529087947,203.84276529087947,203.84276529087947,203.84276529087947,203.84276529087947,203.84276529087947,203.84276529087947,207.38577377971524,"['h', 'j', 'h', 'space']","[2.7259309634173405, 2.7269125691746012, 3.5259538434038404, 3.5269411842455156]","[None, None, None, None]",,,,,,,,,,,,,,,,,,,,,3007,2023-11-07_12h26.42.279,eb_03,2023.2.3,119.95405237101579,2023-11-07 12h26.54.669478 -0500,
,,,,0,0,0,0,45,0,45,0,207.401368995932,,,,,,,,,,,,,,,,,,,,,,,,,,,,,,,,,,,,,,,,,,,,,,,,,,,,,,,,,,,,,,,,,,,,,,,,,,,,,,,,,,,,,,,,,,,,,,,,,,,,,,,,,,207.38786014472862,2.0,"('l', 'space')",207.38837449165294,207.38838596182904,207.401368995932,207.401368995932,207.401368995932,207.401368995932,207.401368995932,207.401368995932,207.401368995932,207.401368995932,210.2438215735383,"['space', 'l']","[2.7833856886572903, 2.8393743440465187]","[None, None]",,,,,,,,,,,,,,,,,,,,,3007,2023-11-07_12h26.42.279,eb_03,2023.2.3,119.95405237101579,2023-11-07 12h26.54.669478 -0500,
,,,,0,0,0,0,46,0,46,0,210.26820687009604,,,,,,,,,,,,,,,,,,,,,,,,,,,,,,,,,,,,,,,,,,,,,,,,,,,,,,,,,,,,,,,,,,,,,,,,,,,,,,,,,,,,,,,,,,,,,,,,,,,,,,,,,,210.2459399342988,3.0,"('h', 'space')",210.24647510865907,210.24648778622213,210.26820687009604,210.26820687009604,210.26820687009604,210.26820687009604,210.26820687009604,210.26820687009604,210.26820687009604,210.26820687009604,211.4355126973387,"['h', 'space']","[1.0925537717412226, 1.108577610393695]","[None, None]",,,,,,,,,,,,,,,,,,,,,3007,2023-11-07_12h26.42.279,eb_03,2023.2.3,119.95405237101579,2023-11-07 12h26.54.669478 -0500,
,,,,0,0,0,0,47,0,47,0,211.45163946574758,,,,,,,,,,,,,,,,,,,,,,,,,,,,,,,,,,,,,,,,,,,,,,,,,,,,,,,,,,,,,,,,,,,,,,,,,,,,,,,,,,,,,,,,,,,,,,,,,,,,,,,,,,211.4377451561886,0.0,"('h', 'j')",211.43814178286993,211.43815476228338,211.45163946574758,211.45163946574758,211.45163946574758,211.45163946574758,211.45163946574758,211.45163946574758,211.45163946574758,211.45163946574758,214.48625042597996,"['j', 'k', 'h', 'j']","[1.3003043521166546, 1.3161271608041716, 2.988133195329283, 2.9891353266648366]","[None, None, None, None]",,,,,,,,,,,,,,,,,,,,,3007,2023-11-07_12h26.42.279,eb_03,2023.2.3,119.95405237101579,2023-11-07 12h26.54.669478 -0500,
,,,,0,0,0,0,48,0,48,0,214.50188669336058,,,,,,,,,,,,,,,,,,,,,,,,,,,,,,,,,,,,,,,,,,,,,,,,,,,,,,,,,,,,,,,,,,,,,,,,,,,,,,,,,,,,,,,,,,,,,,,,,,,,,,,,,,214.48834041315422,14.0,"('j', 'space')",214.48884268620895,214.48885445823544,214.50188669336058,214.50188669336058,214.50188669336058,214.50188669336058,214.50188669336058,214.50188669336058,214.50188669336058,214.50188669336058,216.7691708178172,"['space', 'j']","[2.193913319861167, 2.2338914178617415]","[None, None]",,,,,,,,,,,,,,,,,,,,,3007,2023-11-07_12h26.42.279,eb_03,2023.2.3,119.95405237101579,2023-11-07 12h26.54.669478 -0500,
,,,,0,0,0,0,49,0,49,0,216.78537304791826,,,,,,,,,,,,,,,,,,,,,,,,,,,,,,,,,,,,,,,,,,,,,,,,,,,,,,,,,,,,,,,,,,,,,,,,,,,,,,,,,,,,,,,,,,,,,,,,,,,,,,,,,,216.77126503083855,12.0,"('k', 'space')",216.77174315615412,216.7717603614219,216.78537304791826,216.78537304791826,216.78537304791826,216.78537304791826,216.78537304791826,216.78537304791826,216.78537304791826,216.78537304791826,218.34434893006255,"['space', 'k']","[1.4864520596383954, 1.5184336324964534]","[None, None]",,,,,,,,,,,,,,,,,,,,,3007,2023-11-07_12h26.42.279,eb_03,2023.2.3,119.95405237101579,2023-11-07 12h26.54.669478 -0500,
,,,,0,0,0,0,50,0,50,0,218.36047901878192,,,,,,,,,,,,,,,,,,,,,,,,,,,,,,,,,,,,,,,,,,,,,,,,,,,,,,,,,,,,,,,,,,,,,,,,,,,,,,,,,,,,,,,,,,,,,,,,,,,,,,,,,,218.34653792297468,11.0,"('h',)",218.34718810096092,218.34720228776132,218.36047901878192,218.36047901878192,218.36047901878192,218.36047901878192,218.36047901878192,218.36047901878192,218.36047901878192,218.36047901878192,219.61113893132278,['h'],[1.175355477418634],[None],,,,,,,,,,,,,,,,,,,,,3007,2023-11-07_12h26.42.279,eb_03,2023.2.3,119.95405237101579,2023-11-07 12h26.54.669478 -0500,
,,,,0,0,0,0,51,0,51,0,219.6272584554099,,,,,,,,,,,,,,,,,,,,,,,,,,,,,,,,,,,,,,,,,,,,,,,,,,,,,,,,,,,,,,,,,,,,,,,,,,,,,,,,,,,,,,,,,,,,,,,,,,,,,,,,,,219.61320084673935,14.0,"('j', 'space')",219.61368531084008,219.6136967810162,219.6272584554099,219.6272584554099,219.6272584554099,219.6272584554099,219.6272584554099,219.6272584554099,219.6272584554099,219.6272584554099,223.10361102332536,"['space', 'k', 'space', 'j']","[1.9005988338394673, 1.9406119460691116, 3.388636494659295, 3.42062772661302]","[None, None, None, None]",,,,,,,,,,,,,,,,,,,,,3007,2023-11-07_12h26.42.279,eb_03,2023.2.3,119.95405237101579,2023-11-07 12h26.54.669478 -0500,
,,,,0,0,0,0,52,0,52,0,223.11924306485162,,,,,,,,,,,,,,,,,,,,,,,,,,,,,,,,,,,,,,,,,,,,,,,,,,,,,,,,,,,,,,,,,,,,,,,,,,,,,,,,,,,,,,,,,,,,,,,,,,,,,,,,,,223.10572636562574,12.0,"('k', 'space')",223.10625218272617,223.10626455844613,223.11924306485162,223.11924306485162,223.11924306485162,223.11924306485162,223.11924306485162,223.11924306485162,223.11924306485162,223.11924306485162,224.86151510788477,"['space', 'k']","[1.6806708484509727, 1.7126575527072418]","[None, None]",,,,,,,,,,,,,,,,,,,,,3007,2023-11-07_12h26.42.279,eb_03,2023.2.3,119.95405237101579,2023-11-07 12h26.54.669478 -0500,
,,,,0,0,0,0,53,0,53,0,224.8776451966114,,,,,,,,,,,,,,,,,,,,,,,,,,,,,,,,,,,,,,,,,,,,,,,,,,,,,,,,,,,,,,,,,,,,,,,,,,,,,,,,,,,,,,,,,,,,,,,,,,,,,,,,,,224.86357732514443,10.0,"('space',)",224.86405907262815,224.86407325942127,224.8776451966114,224.8776451966114,224.8776451966114,224.8776451966114,224.8776451966114,224.8776451966114,224.8776451966114,224.8776451966114,225.75320915960765,['space'],[0.8022737514984328],[None],,,,,,,,,,,,,,,,,,,,,3007,2023-11-07_12h26.42.279,eb_03,2023.2.3,119.95405237101579,2023-11-07 12h26.54.669478 -0500,
,,,,0,0,0,0,54,0,54,0,225.76944640393776,,,,,,,,,,,,,,,,,,,,,,,,,,,,,,,,,,,,,,,,,,,,,,,,,,,,,,,,,,,,,,,,,,,,,,,,,,,,,,,,,,,,,,,,,,,,,,,,,,,,,,,,,,225.7552997504681,13.0,"('k',)",225.75579477919382,225.75580745676416,225.76944640393776,225.76944640393776,225.76944640393776,225.76944640393776,225.76944640393776,225.76944640393776,225.76944640393776,225.76944640393776,226.66162461790373,['k'],[0.8304846542596351],[None],,,,,,,,,,,,,,,,,,,,,3007,2023-11-07_12h26.42.279,eb_03,2023.2.3,119.95405237101579,2023-11-07 12h26.54.669478 -0500,
,,,,0,0,0,0,55,0,55,0,226.67780149287137,,,,,,,,,,,,,,,,,,,,,,,,,,,,,,,,,,,,,,,,,,,,,,,,,,,,,,,,,,,,,,,,,,,,,,,,,,,,,,,,,,,,,,,,,,,,,,,,,,,,,,,,,,226.66368472223985,11.0,"('h',)",226.66419061746274,226.66420269133232,226.67780149287137,226.67780149287137,226.67780149287137,226.67780149287137,226.67780149287137,226.67780149287137,226.67780149287137,226.67780149287137,228.1034471205203,['h'],[1.3531450473383302],[None],,,,,,,,,,,,,,,,,,,,,3007,2023-11-07_12h26.42.279,eb_03,2023.2.3,119.95405237101579,2023-11-07 12h26.54.669478 -0500,
,,,,0,0,0,0,56,0,56,0,228.1195781147835,,,,,,,,,,,,,,,,,,,,,,,,,,,,,,,,,,,,,,,,,,,,,,,,,,,,,,,,,,,,,,,,,,,,,,,,,,,,,,,,,,,,,,,,,,,,,,,,,,,,,,,,,,228.10552684489812,14.0,"('j', 'space')",228.1060025554325,228.10601493115246,228.1195781147835,228.1195781147835,228.1195781147835,228.1195781147835,228.1195781147835,228.1195781147835,228.1195781147835,228.1195781147835,230.1790983776009,"['space', 'j']","[1.911398610114702, 1.9913901221880224]","[None, None]",,,,,,,,,,,,,,,,,,,,,3007,2023-11-07_12h26.42.279,eb_03,2023.2.3,119.95405237101579,2023-11-07 12h26.54.669478 -0500,
,,,,0,0,0,0,57,0,57,0,230.1947871663142,,,,,,,,,,,,,,,,,,,,,,,,,,,,,,,,,,,,,,,,,,,,,,,,,,,,,,,,,,,,,,,,,,,,,,,,,,,,,,,,,,,,,,,,,,,,,,,,,,,,,,,,,,230.18114972837793,12.0,"('k', 'space')",230.1816474737425,230.18165954761207,230.1947871663142,230.1947871663142,230.1947871663142,230.1947871663142,230.1947871663142,230.1947871663142,230.1947871663142,230.1947871663142,231.88709058632958,"['space', 'k']","[1.6202006737876218, 1.6601953733479604]","[None, None]",,,,,,,,,,,,,,,,,,,,,3007,2023-11-07_12h26.42.279,eb_03,2023.2.3,119.95405237101579,2023-11-07 12h26.54.669478 -0500,
,,,,0,0,0,0,58,0,58,0,231.90324965234322,,,,,,,,,,,,,,,,,,,,,,,,,,,,,,,,,,,,,,,,,,,,,,,,,,,,,,,,,,,,,,,,,,,,,,,,,,,,,,,,,,,,,,,,,,,,,,,,,,,,,,,,,,231.88917212179513,10.0,"('space',)",231.88967590407992,231.88968767611368,231.90324965234322,231.90324965234322,231.90324965234322,231.90324965234322,231.90324965234322,231.90324965234322,231.90324965234322,231.90324965234322,232.58710800290282,['space'],[0.6237461661658017],[None],,,,,,,,,,,,,,,,,,,,,3007,2023-11-07_12h26.42.279,eb_03,2023.2.3,119.95405237101579,2023-11-07 12h26.54.669478 -0500,
,,,,0,0,0,0,59,0,59,0,232.6033041960618,,,,,,,,,,,,,,,,,,,,,,,,,,,,,,,,,,,,,,,,,,,,,,,,,,,,,,,,,,,,,,,,,,,,,,,,,,,,,,,,,,,,,,,,,,,,,,,,,,,,,,,,,,232.58917504971032,11.0,"('h',)",232.5896954335767,232.58970690374554,232.6033041960618,232.6033041960618,232.6033041960618,232.6033041960618,232.6033041960618,232.6033041960618,232.6033041960618,232.6033041960618,233.5122756561468,['h'],[0.8356601193081588],[None],,,,,,,,,,,,,,,,,,,,,3007,2023-11-07_12h26.42.279,eb_03,2023.2.3,119.95405237101579,2023-11-07 12h26.54.669478 -0500,
,,,,0,0,0,0,60,0,60,0,233.52832696285623,,,,,,,,,,,,,,,,,,,,,,,,,,,,,,,,,,,,,,,,,,,,,,,,,,,,,,,,,,,,,,,,,,,,,,,,,,,,,,,,,,,,,,,,,,,,,,,,,,,,,,,,,,233.51439763908274,13.0,"('k',)",233.514917117398,233.51492888943176,233.52832696285623,233.52832696285623,233.52832696285623,233.52832696285623,233.52832696285623,233.52832696285623,233.52832696285623,233.52832696285623,234.5955808422732,['k'],[1.0066777565079974],[None],,,,,,,,,,,,,,,,,,,,,3007,2023-11-07_12h26.42.279,eb_03,2023.2.3,119.95405237101579,2023-11-07 12h26.54.669478 -0500,
,,,,0,0,0,0,61,0,61,0,234.61174564337125,,,,,,,,,,,,,,,,,,,,,,,,,,,,,,,,,,,,,,,,,,,,,,,,,,,,,,,,,,,,,,,,,,,,,,,,,,,,,,,,,,,,,,,,,,,,,,,,,,,,,,,,,,234.59766026480065,11.0,"('h',)",234.59821777581237,234.59822954784613,234.61174564337125,234.61174564337125,234.61174564337125,234.61174564337125,234.61174564337125,234.61174564337125,234.61174564337125,234.61174564337125,236.50405546254478,['h'],[1.8192988159426022],[None],,,,,,,,,,,,,,,,,,,,,3007,2023-11-07_12h26.42.279,eb_03,2023.2.3,119.95405237101579,2023-11-07 12h26.54.669478 -0500,
,,,,0,0,0,0,62,0,62,0,236.52022690426384,,,,,,,,,,,,,,,,,,,,,,,,,,,,,,,,,,,,,,,,,,,,,,,,,,,,,,,,,,,,,,,,,,,,,,,,,,,,,,,,,,,,,,,,,,,,,,,,,,,,,,,,,,236.506171106681,13.0,"('k',)",236.5066537597013,236.50666583357088,236.52022690426384,236.52022690426384,236.52022690426384,236.52022690426384,236.52022690426384,236.52022690426384,236.52022690426384,236.52022690426384,237.21244248686708,['k'],[0.6308332269400125],[None],,,,,,,,,,,,,,,,,,,,,3007,2023-11-07_12h26.42.279,eb_03,2023.2.3,119.95405237101579,2023-11-07 12h26.54.669478 -0500,
,,,,0,0,0,0,63,0,63,0,237.22861181567714,,,,,,,,,,,,,,,,,,,,,,,,,,,,,,,,,,,,,,,,,,,,,,,,,,,,,,,,,,,,,,,,,,,,,,,,,,,,,,,,,,,,,,,,,,,,,,,,,,,,,,,,,,237.2145231167815,12.0,"('k', 'space')",237.21502237138338,237.21504350064788,237.22861181567714,237.22861181567714,237.22861181567714,237.22861181567714,237.22861181567714,237.22861181567714,237.22861181567714,237.22861181567714,238.31256053915422,"['k', 'space']","[1.0104487284552306, 1.0114387859212002]","[None, None]",,,,,,,,,,,,,,,,,,,,,3007,2023-11-07_12h26.42.279,eb_03,2023.2.3,119.95405237101579,2023-11-07 12h26.54.669478 -0500,
,,,,0,0,0,0,64,0,64,0,238.3286984758888,,,,,,,,,,,,,,,,,,,,,,,,,,,,,,,,,,,,,,,,,,,,,,,,,,,,,,,,,,,,,,,,,,,,,,,,,,,,,,,,,,,,,,,,,,,,,,,,,,,,,,,,,,238.31465324293822,10.0,"('space',)",238.31515883631073,238.3151712120307,238.3286984758888,238.3286984758888,238.3286984758888,238.3286984758888,238.3286984758888,238.3286984758888,238.3286984758888,238.3286984758888,239.04594440163055,['space'],[0.654372145087109],[None],,,,,,,,,,,,,,,,,,,,,3007,2023-11-07_12h26.42.279,eb_03,2023.2.3,119.95405237101579,2023-11-07 12h26.54.669478 -0500,
,,,,0,0,0,0,65,0,65,0,239.06213606710662,,,,,,,,,,,,,,,,,,,,,,,,,,,,,,,,,,,,,,,,,,,,,,,,,,,,,,,,,,,,,,,,,,,,,,,,,,,,,,,,,,,,,,,,,,,,,,,,,,,,,,,,,,239.04807755289949,12.0,"('k', 'space')",239.0486042755365,239.04861634940607,239.06213606710662,239.06213606710662,239.06213606710662,239.06213606710662,239.06213606710662,239.06213606710662,239.06213606710662,239.06213606710662,239.7709948779666,"['k', 'space']","[0.6489428268978372, 0.6499220178811811]","[None, None]",,,,,,,,,,,,,,,,,,,,,3007,2023-11-07_12h26.42.279,eb_03,2023.2.3,119.95405237101579,2023-11-07 12h26.54.669478 -0500,
,,,,0,0,0,0,66,0,66,0,239.7872091819445,,,,,,,,,,,,,,,,,,,,,,,,,,,,,,,,,,,,,,,,,,,,,,,,,,,,,,,,,,,,,,,,,,,,,,,,,,,,,,,,,,,,,,,,,,,,,,,,,,,,,,,,,,239.77308637436363,13.0,"('k',)",239.77357566800492,239.77359619359777,239.7872091819445,239.7872091819445,239.7872091819445,239.7872091819445,239.7872091819445,239.7872091819445,239.7872091819445,239.7872091819445,240.55434977824916,['k'],[0.7078756958653685],[None],,,,,,,,,,,,,,,,,,,,,3007,2023-11-07_12h26.42.279,eb_03,2023.2.3,119.95405237101579,2023-11-07 12h26.54.669478 -0500,
,,,,0,0,0,0,67,0,67,0,240.57053480308969,,,,,,,,,,,,,,,,,,,,,,,,,,,,,,,,,,,,,,,,,,,,,,,,,,,,,,,,,,,,,,,,,,,,,,,,,,,,,,,,,,,,,,,,,,,,,,,,,,,,,,,,,,240.55639811056608,12.0,"('k', 'space')",240.55692453136726,240.55693660523684,240.57053480308969,240.57053480308969,240.57053480308969,240.57053480308969,240.57053480308969,240.57053480308969,240.57053480308969,240.57053480308969,241.36280384275597,"['k', 'space']","[0.7325610281259287, 0.7336929535958916]","[None, None]",,,,,,,,,,,,,,,,,,,,,3007,2023-11-07_12h26.42.279,eb_03,2023.2.3,119.95405237101579,2023-11-07 12h26.54.669478 -0500,
,,,,0,0,0,0,68,0,68,0,241.37897890665045,,,,,,,,,,,,,,,,,,,,,,,,,,,,,,,,,,,,,,,,,,,,,,,,,,,,,,,,,,,,,,,,,,,,,,,,,,,,,,,,,,,,,,,,,,,,,,,,,,,,,,,,,,241.36486153231817,11.0,"('h',)",241.3653635035298,241.365375275549,241.37897890665045,241.37897890665045,241.37897890665045,241.37897890665045,241.37897890665045,241.37897890665045,241.37897890665045,241.37897890665045,242.27118126835558,['h'],[0.8201301020017127],[None],,,,,,,,,,,,,,,,,,,,,3007,2023-11-07_12h26.42.279,eb_03,2023.2.3,119.95405237101579,2023-11-07 12h26.54.669478 -0500,
,,,,0,0,0,0,69,0,69,0,242.28736146364827,,,,,,,,,,,,,,,,,,,,,,,,,,,,,,,,,,,,,,,,,,,,,,,,,,,,,,,,,,,,,,,,,,,,,,,,,,,,,,,,,,,,,,,,,,,,,,,,,,,,,,,,,,242.2732380523812,14.0,"('j', 'space')",242.27372523309896,242.27373700511816,242.28736146364827,242.28736146364827,242.28736146364827,242.28736146364827,242.28736146364827,242.28736146364827,242.28736146364827,242.28736146364827,245.5214530059311,"['space', 'j']","[3.1667948006361257, 3.214765197917586]","[None, None]",,,,,,,,,,,,,,,,,,,,,3007,2023-11-07_12h26.42.279,eb_03,2023.2.3,119.95405237101579,2023-11-07 12h26.54.669478 -0500,
,,,,0,0,0,0,70,0,70,0,245.5375858112675,,,,,,,,,,,,,,,,,,,,,,,,,,,,,,,,,,,,,,,,,,,,,,,,,,,,,,,,,,,,,,,,,,,,,,,,,,,,,,,,,,,,,,,,,,,,,,,,,,,,,,,,,,245.52351190288027,0.0,"('h', 'j')",245.52403047565895,245.5240422476927,245.5375858112675,245.5375858112675,245.5375858112675,245.5375858112675,245.5375858112675,245.5375858112675,245.5375858112675,245.5375858112675,246.55486593625392,"['h', 'j']","[0.9565705858112779, 0.9805957791541005]","[None, None]",,,,,,,,,,,,,,,,,,,,,3007,2023-11-07_12h26.42.279,eb_03,2023.2.3,119.95405237101579,2023-11-07 12h26.54.669478 -0500,
,,,,0,0,0,0,71,0,71,0,246.5710455278604,,,,,,,,,,,,,,,,,,,,,,,,,,,,,,,,,,,,,,,,,,,,,,,,,,,,,,,,,,,,,,,,,,,,,,,,,,,,,,,,,,,,,,,,,,,,,,,,,,,,,,,,,,246.5569788637804,3.0,"('h', 'space')",246.55748023130582,246.5575010587345,246.5710455278604,246.5710455278604,246.5710455278604,246.5710455278604,246.5710455278604,246.5710455278604,246.5710455278604,246.5710455278604,247.87993289342558,"['h', 'space']","[1.2351280841685366, 1.2361229711823398]","[None, None]",,,,,,,,,,,,,,,,,,,,,3007,2023-11-07_12h26.42.279,eb_03,2023.2.3,119.95405237101579,2023-11-07 12h26.54.669478 -0500,
,,,,0,0,0,0,72,0,72,0,247.8961647045071,,,,,,,,,,,,,,,,,,,,,,,,,,,,,,,,,,,,,,,,,,,,,,,,,,,,,,,,,,,,,,,,,,,,,,,,,,,,,,,,,,,,,,,,,,,,,,,,,,,,,,,,,,247.88205759297125,4.0,"('l',)",247.88254115152813,247.88255231986113,247.8961647045071,247.8961647045071,247.8961647045071,247.8961647045071,247.8961647045071,247.8961647045071,247.8961647045071,247.8961647045071,249.63063189512468,"['k', 'l']","[1.1100225509726442, 1.7020452232827665]","[None, None]",,,,,,,,,,,,,,,,,,,,,3007,2023-11-07_12h26.42.279,eb_03,2023.2.3,119.95405237101579,2023-11-07 12h26.54.669478 -0500,
,,,,0,0,0,0,73,0,73,0,249.64623465751356,,,,,,,,,,,,,,,,,,,,,,,,,,,,,,,,,,,,,,,,,,,,,,,,,,,,,,,,,,,,,,,,,,,,,,,,,,,,,,,,,,,,,,,,,,,,,,,,,,,,,,,,,,249.63267962374084,5.0,"('h', 'l')",249.6332030260819,249.6332154017873,249.64623465751356,249.64623465751356,249.64623465751356,249.64623465751356,249.64623465751356,249.64623465751356,249.64623465751356,249.64623465751356,251.72241837233014,"['h', 'l']","[1.9359813144692453, 2.0159592434356455]","[None, None]",,,,,,,,,,,,,,,,,,,,,3007,2023-11-07_12h26.42.279,eb_03,2023.2.3,119.95405237101579,2023-11-07 12h26.54.669478 -0500,
,,,,0,0,0,0,74,0,74,0,251.73806188402523,,,,,,,,,,,,,,,,,,,,,,,,,,,,,,,,,,,,,,,,,,,,,,,,,,,,,,,,,,,,,,,,,,,,,,,,,,,,,,,,,,,,,,,,,,,,,,,,,,,,,,,,,,251.72451318905223,8.0,"('h', 'k')",251.72500972701528,251.72503085629432,251.73806188402523,251.73806188402523,251.73806188402523,251.73806188402523,251.73806188402523,251.73806188402523,251.73806188402523,251.73806188402523,255.90558655018685,"['h', 'k']","[4.108198792673647, 4.109184020591783]","[None, None]",,,,,,,,,,,,,,,,,,,,,3007,2023-11-07_12h26.42.279,eb_03,2023.2.3,119.95405237101579,2023-11-07 12h26.54.669478 -0500,
,,,,0,0,0,0,75,0,75,0,255.9217193555378,,,,,,,,,,,,,,,,,,,,,,,,,,,,,,,,,,,,,,,,,,,,,,,,,,,,,,,,,,,,,,,,,,,,,,,,,,,,,,,,,,,,,,,,,,,,,,,,,,,,,,,,,,255.9076508803846,9.0,"('j', 'k')",255.9081453054241,255.90815707744332,255.9217193555378,255.9217193555378,255.9217193555378,255.9217193555378,255.9217193555378,255.9217193555378,255.9217193555378,255.9217193555378,263.5900851177721,"['j', 'l', 'h', 'k', 'l', 'j', 'k', 'j']","[1.3805678281496512, 1.3815563763782848, 2.4756380965700373, 2.4995694155659294, 3.691572950789123, 3.715575505630113, 7.635629572425387, 7.6516259430209175]","[None, None, None, None, None, None, None, None]",,,,,,,,,,,,,,,,,,,,,3007,2023-11-07_12h26.42.279,eb_03,2023.2.3,119.95405237101579,2023-11-07 12h26.54.669478 -0500,
,,,,0,0,0,0,76,0,76,0,263.6056902949349,,,,,,,,,,,,,,,,,,,,,,,,,,,,,,,,,,,,,,,,,,,,,,,,,,,,,,,,,,,,,,,,,,,,,,,,,,,,,,,,,,,,,,,,,,,,,,,,,,,,,,,,,,263.59222581521317,7.0,"('j',)",263.5927208439389,263.59273261597264,263.6056902949349,263.6056902949349,263.6056902949349,263.6056902949349,263.6056902949349,263.6056902949349,263.6056902949349,263.6056902949349,264.8062170779449,['j'],[1.1276709290395956],[None],,,,,,,,,,,,,,,,,,,,,3007,2023-11-07_12h26.42.279,eb_03,2023.2.3,119.95405237101579,2023-11-07 12h26.54.669478 -0500,
,,,,0,0,0,0,77,0,77,0,264.82245009642793,,,,,,,,,,,,,,,,,,,,,,,,,,,,,,,,,,,,,,,,,,,,,,,,,,,,,,,,,,,,,,,,,,,,,,,,,,,,,,,,,,,,,,,,,,,,,,,,,,,,,,,,,,264.8083767917269,5.0,"('h', 'l')",264.8088772537012,264.80888902573497,264.82245009642793,264.82245009642793,264.82245009642793,264.82245009642793,264.82245009642793,264.82245009642793,264.82245009642793,264.82245009642793,266.5397506564477,"['h', 'l']","[1.6549347875115927, 1.686929037925438]","[None, None]",,,,,,,,,,,,,,,,,,,,,3007,2023-11-07_12h26.42.279,eb_03,2023.2.3,119.95405237101579,2023-11-07 12h26.54.669478 -0500,
,,,,0,0,0,0,78,0,78,0,266.5558725953015,,,,,,,,,,,,,,,,,,,,,,,,,,,,,,,,,,,,,,,,,,,,,,,,,,,,,,,,,,,,,,,,,,,,,,,,,,,,,,,,,,,,,,,,,,,,,,,,,,,,,,,,,,266.5418717338325,8.0,"('h', 'k')",266.54239151399815,266.5424038897181,266.5558725953015,266.5558725953015,266.5558725953015,266.5558725953015,266.5558725953015,266.5558725953015,266.5558725953015,266.5558725953015,267.82314585328277,"['h', 'k']","[1.1935103543946752, 1.225555918776081]","[None, None]",,,,,,,,,,,,,,,,,,,,,3007,2023-11-07_12h26.42.279,eb_03,2023.2.3,119.95405237101579,2023-11-07 12h26.54.669478 -0500,
,,,,0,0,0,0,79,0,79,0,267.8393601572461,,,,,,,,,,,,,,,,,,,,,,,,,,,,,,,,,,,,,,,,,,,,,,,,,,,,,,,,,,,,,,,,,,,,,,,,,,,,,,,,,,,,,,,,,,,,,,,,,,,,,,,,,,267.825231312745,7.0,"('j',)",267.8257987847028,267.82581055673654,267.8393601572461,267.8393601572461,267.8393601572461,267.8393601572461,267.8393601572461,267.8393601572461,267.8393601572461,267.8393601572461,272.1234831066977,['j'],[4.222076228979859],[None],,,,,,,,,,,,,,,,,,,,,3007,2023-11-07_12h26.42.279,eb_03,2023.2.3,119.95405237101579,2023-11-07 12h26.54.669478 -0500,
,,,,0,0,0,0,80,0,80,0,272.1396355320758,,,,,,,,,,,,,,,,,,,,,,,,,,,,,,,,,,,,,,,,,,,,,,,,,,,,,,,,,,,,,,,,,,,,,,,,,,,,,,,,,,,,,,,,,,,,,,,,,,,,,,,,,,272.12559905268427,8.0,"('h', 'k')",272.12624892882013,272.1262610026897,272.1396355320758,272.1396355320758,272.1396355320758,272.1396355320758,272.1396355320758,272.1396355320758,272.1396355320758,272.1396355320758,274.66534729435807,"['h', 'k']","[2.4648446590726962, 2.5048257755406667]","[None, None]",,,,,,,,,,,,,,,,,,,,,3007,2023-11-07_12h26.42.279,eb_03,2023.2.3,119.95405237101579,2023-11-07 12h26.54.669478 -0500,
,,,,0,0,0,0,81,0,81,0,274.6815449967544,,,,,,,,,,,,,,,,,,,,,,,,,,,,,,,,,,,,,,,,,,,,,,,,,,,,,,,,,,,,,,,,,,,,,,,,,,,,,,,,,,,,,,,,,,,,,,,,,,,,,,,,,,274.66744271476637,7.0,"('j',)",274.66801803474664,274.6680394658615,274.6815449967544,274.6815449967544,274.6815449967544,274.6815449967544,274.6815449967544,274.6815449967544,274.6815449967544,274.6815449967544,276.54099969845265,"['j', 'space', 'j']","[1.290948007197585, 1.2920325427112402, 1.8349562125949888]","[None, None, None]",,,,,,,,,,,,,,,,,,,,,3007,2023-11-07_12h26.42.279,eb_03,2023.2.3,119.95405237101579,2023-11-07 12h26.54.669478 -0500,
,,,,0,0,0,0,82,0,82,0,276.5566495489329,,,,,,,,,,,,,,,,,,,,,,,,,,,,,,,,,,,,,,,,,,,,,,,,,,,,,,,,,,,,,,,,,,,,,,,,,,,,,,,,,,,,,,,,,,,,,,,,,,,,,,,,,,276.54306795266166,6.0,"('k', 'l')",276.54354517243337,276.54355724630295,276.5566495489329,276.5566495489329,276.5566495489329,276.5566495489329,276.5566495489329,276.5566495489329,276.5566495489329,276.5566495489329,277.9490322641068,"['k', 'l']","[1.3198631185223348, 1.3918448241893202]","[None, None]",,,,,,,,,,,,,,,,,,,,,3007,2023-11-07_12h26.42.279,eb_03,2023.2.3,119.95405237101579,2023-11-07 12h26.54.669478 -0500,
,,,,0,0,0,0,83,0,83,0,277.9734184662084,,,,,,,,,,,,,,,,,,,,,,,,,,,,,,,,,,,,,,,,,,,,,,,,,,,,,,,,,,,,,,,,,,,,,,,,,,,,,,,,,,,,,,,,,,,,,,,,,,,,,,,,,,277.95112044019334,7.0,"('j',)",277.95162090216763,277.9516332778876,277.9734184662084,277.9734184662084,277.9734184662084,277.9734184662084,277.9734184662084,277.9734184662084,277.9734184662084,277.9734184662084,286.2412428964162,['j'],[8.20719729521079],[None],,,,,,,,,,,,,,,,,,,,,3007,2023-11-07_12h26.42.279,eb_03,2023.2.3,119.95405237101579,2023-11-07 12h26.54.669478 -0500,
,,,,0,0,0,0,84,0,84,0,286.2573913977976,,,,,,,,,,,,,,,,,,,,,,,,,,,,,,,,,,,,,,,,,,,,,,,,,,,,,,,,,,,,,,,,,,,,,,,,,,,,,,,,,,,,,,,,,,,,,,,,,,,,,,,,,,286.24337393474707,5.0,"('h', 'l')",286.24385145636916,286.24386353023874,286.2573913977976,286.2573913977976,286.2573913977976,286.2573913977976,286.2573913977976,286.2573913977976,286.2573913977976,286.2573913977976,290.7582961835433,"['h', 'l']","[4.4182769438193645, 4.419257644040044]","[None, None]",,,,,,,,,,,,,,,,,,,,,3007,2023-11-07_12h26.42.279,eb_03,2023.2.3,119.95405237101579,2023-11-07 12h26.54.669478 -0500,
,,,,0,0,0,0,85,0,85,0,290.7743894469604,,,,,,,,,,,,,,,,,,,,,,,,,,,,,,,,,,,,,,,,,,,,,,,,,,,,,,,,,,,,,,,,,,,,,,,,,,,,,,,,,,,,,,,,,,,,,,,,,,,,,,,,,,290.7603885854769,6.0,"('k', 'l')",290.76089236777625,290.76090625273355,290.7743894469604,290.7743894469604,290.7743894469604,290.7743894469604,290.7743894469604,290.7743894469604,290.7743894469604,290.7743894469604,292.17500231668237,"['l', 'k']","[1.3253546171472408, 1.349280502894544]","[None, None]",,,,,,,,,,,,,,,,,,,,,3007,2023-11-07_12h26.42.279,eb_03,2023.2.3,119.95405237101579,2023-11-07 12h26.54.669478 -0500,
,,,,0,0,0,0,86,0,86,0,292.19118130457355,,,,,,,,,,,,,,,,,,,,,,,,,,,,,,,,,,,,,,,,,,,,,,,,,,,,,,,,,,,,,,,,,,,,,,,,,,,,,,,,,,,,,,,,,,,,,,,,,,,,,,,,,,292.17708988906816,7.0,"('j',)",292.1776030286128,292.17762989297626,292.19118130457355,292.19118130457355,292.19118130457355,292.19118130457355,292.19118130457355,292.19118130457355,292.19118130457355,292.19118130457355,294.00847314122075,['j'],[1.756521022572997],[None],,,,,,,,,,,,,,,,,,,,,3007,2023-11-07_12h26.42.279,eb_03,2023.2.3,119.95405237101579,2023-11-07 12h26.54.669478 -0500,
,,,,0,0,0,0,87,0,87,0,294.02469921721786,,,,,,,,,,,,,,,,,,,,,,,,,,,,,,,,,,,,,,,,,,,,,,,,,,,,,,,,,,,,,,,,,,,,,,,,,,,,,,,,,,,,,,,,,,,,,,,,,,,,,,,,,,294.0106038777012,6.0,"('k', 'l')",294.0110747587023,294.0110901528824,294.02469921721786,294.02469921721786,294.02469921721786,294.02469921721786,294.02469921721786,294.02469921721786,294.02469921721786,294.02469921721786,294.8669220894226,"['l', 'k']","[0.779004382507992, 0.8109977273852564]","[None, None]",,,,,,,,,,,,,,,,,,,,,3007,2023-11-07_12h26.42.279,eb_03,2023.2.3,119.95405237101579,2023-11-07 12h26.54.669478 -0500,
,,,,0,0,0,0,88,0,88,0,294.88310379393806,,,,,,,,,,,,,,,,,,,,,,,,,,,,,,,,,,,,,,,,,,,,,,,,,,,,,,,,,,,,,,,,,,,,,,,,,,,,,,,,,,,,,,,,,,,,,,,,,,,,,,,,,,294.8690141895204,7.0,"('j',)",294.86952189581643,294.86953366783564,294.88310379393806,294.88310379393806,294.88310379393806,294.88310379393806,294.88310379393806,294.88310379393806,294.88310379393806,294.88310379393806,295.6253263341059,['j'],[0.6806125920265913],[None],,,,,,,,,,,,,,,,,,,,,3007,2023-11-07_12h26.42.279,eb_03,2023.2.3,119.95405237101579,2023-11-07 12h26.54.669478 -0500,
,,,,0,0,0,0,89,0,89,0,295.64143408616656,,,,,,,,,,,,,,,,,,,,,,,,,,,,,,,,,,,,,,,,,,,,,,,,,,,,,,,,,,,,,,,,,,,,,,,,,,,,,,,,,,,,,,,,,,,,,,,,,,,,,,,,,,295.62740605848376,5.0,"('h', 'l')",295.6278869004309,295.627901087224,295.64143408616656,295.64143408616656,295.64143408616656,295.64143408616656,295.64143408616656,295.64143408616656,295.64143408616656,295.64143408616656,296.9754390286107,"['h', 'l']","[1.250337842022418, 1.25129107417888]","[None, None]",,,,,,,,,,,,,,,,,,,,,3007,2023-11-07_12h26.42.279,eb_03,2023.2.3,119.95405237101579,2023-11-07 12h26.54.669478 -0500,
,,,,0,0,0,0,90,0,90,0,296.991602320486,,,,,,,,,,,,,,,,,,,,,,,,,,,,,,,,,,,,,,,,,,,,,,,,,,,,,,,,,,,,,,,,,,,,,,,,,,,,,,,,,,,,,,,,,,,,,,,,,,,,,,,,,,296.9775172437512,6.0,"('k', 'l')",296.97800774477946,296.9780198186636,296.991602320486,296.991602320486,296.991602320486,296.991602320486,296.991602320486,296.991602320486,296.991602320486,296.991602320486,298.28388660341443,"['l', 'k']","[1.2281243331090081, 1.2761421203467762]","[None, None]",,,,,,,,,,,,,,,,,,,,,3007,2023-11-07_12h26.42.279,eb_03,2023.2.3,119.95405237101579,2023-11-07 12h26.54.669478 -0500,
,,,,0,0,0,0,91,0,91,0,298.29998741298914,,,,,,,,,,,,,,,,,,,,,,,,,,,,,,,,,,,,,,,,,,,,,,,,,,,,,,,,,,,,,,,,,,,,,,,,,,,,,,,,,,,,,,,,,,,,,,,,,,,,,,,,,,298.2859907773818,7.0,"('j',)",298.28653108312574,298.2865437606961,298.29998741298914,298.29998741298914,298.29998741298914,298.29998741298914,298.29998741298914,298.29998741298914,298.29998741298914,298.29998741298914,299.2672850300005,['j'],[0.8957665685884422],[None],,,,,,,,,,,,,,,,,,,,,3007,2023-11-07_12h26.42.279,eb_03,2023.2.3,119.95405237101579,2023-11-07 12h26.54.669478 -0500,
,,,,0,0,0,0,92,0,92,0,299.2833988189959,,,,,,,,,,,,,,,,,,,,,,,,,,,,,,,,,,,,,,,,,,,,,,,,,,,,,,,,,,,,,,,,,,,,,,,,,,,,,,,,,,,,,,,,,,,,,,,,,,,,,,,,,,299.26940731477225,8.0,"('h', 'k')",299.2699255857151,299.2699376595847,299.2833988189959,299.2833988189959,299.2833988189959,299.2833988189959,299.2833988189959,299.2833988189959,299.2833988189959,299.2833988189959,300.6339842055604,"['h', 'k']","[1.2883774799411185, 1.2893657263193745]","[None, None]",,,,,,,,,,,,,,,,,,,,,3007,2023-11-07_12h26.42.279,eb_03,2023.2.3,119.95405237101579,2023-11-07 12h26.54.669478 -0500,
,,,,0,0,0,0,93,0,93,0,300.650161382393,,,,,,,,,,,,,,,,,,,,,,,,,,,,,,,,,,,,,,,,,,,,,,,,,,,,,,,,,,,,,,,,,,,,,,,,,,,,,,,,,,,,,,,,,,,,,,,,,,,,,,,,,,300.6361544839747,5.0,"('h', 'l')",300.6366250631254,300.63663743884536,300.650161382393,300.650161382393,300.650161382393,300.650161382393,300.650161382393,300.650161382393,300.650161382393,300.650161382393,305.3016828864056,"['h', 'l']","[2.857643620969611, 4.648703462386038]","[None, None]",,,,,,,,,,,,,,,,,,,,,3007,2023-11-07_12h26.42.279,eb_03,2023.2.3,119.95405237101579,2023-11-07 12h26.54.669478 -0500,
,,,,0,0,0,0,94,0,94,0,305.32553029198607,,,,,,,,,,,,,,,,,,,,,,,,,,,,,,,,,,,,,,,,,,,,,,,,,,,,,,,,,,,,,,,,,,,,,,,,,,,,,,,,,,,,,,,,,,,,,,,,,,,,,,,,,,305.3038229801459,4.0,"('l',)",305.3043424584612,305.30435453233076,305.32553029198607,305.32553029198607,305.32553029198607,305.32553029198607,305.32553029198607,305.32553029198607,305.32553029198607,305.32553029198607,306.27660394592385,"['h', 'l']","[0.01331204708549194, 0.869308490131516]","[None, None]",,,,,,,,,,,,,,,,,,,,,3007,2023-11-07_12h26.42.279,eb_03,2023.2.3,119.95405237101579,2023-11-07 12h26.54.669478 -0500,
,,,,0,0,0,0,95,0,95,0,306.2923195990006,,,,,,,,,,,,,,,,,,,,,,,,,,,,,,,,,,,,,,,,,,,,,,,,,,,,,,,,,,,,,,,,,,,,,,,,,,,,,,,,,,,,,,,,,,,,,,,,,,,,,,,,,,306.27865076900343,1.0,"('j', 'l')",306.2792046578543,306.2792173354246,306.2923195990006,306.2923195990006,306.2923195990006,306.2923195990006,306.2923195990006,306.2923195990006,306.2923195990006,306.2923195990006,307.51791385232355,"['j', 'l']","[1.1665487955033313, 1.1675279864866752]","[None, None]",,,,,,,,,,,,,,,,,,,,,3007,2023-11-07_12h26.42.279,eb_03,2023.2.3,119.95405237101579,2023-11-07 12h26.54.669478 -0500,
,,,,0,0,0,0,96,0,96,0,307.53408287928323,,,,,,,,,,,,,,,,,,,,,,,,,,,,,,,,,,,,,,,,,,,,,,,,,,,,,,,,,,,,,,,,,,,,,,,,,,,,,,,,,,,,,,,,,,,,,,,,,,,,,,,,,,307.52004277773085,2.0,"('l', 'space')",307.52053720277036,307.52054927663994,307.53408287928323,307.53408287928323,307.53408287928323,307.53408287928323,307.53408287928323,307.53408287928323,307.53408287928323,307.53408287928323,309.5346177517931,"['l', 'space']","[1.908780692901928, 1.9097653171338607]","[None, None]",,,,,,,,,,,,,,,,,,,,,3007,2023-11-07_12h26.42.279,eb_03,2023.2.3,119.95405237101579,2023-11-07 12h26.54.669478 -0500,
,,,,0,0,0,0,97,0,97,0,309.55090570639004,,,,,,,,,,,,,,,,,,,,,,,,,,,,,,,,,,,,,,,,,,,,,,,,,,,,,,,,,,,,,,,,,,,,,,,,,,,,,,,,,,,,,,,,,,,,,,,,,,,,,,,,,,309.5367708249396,0.0,"('h', 'j')",309.5372260098957,309.53723748007906,309.55090570639004,309.55090570639004,309.55090570639004,309.55090570639004,309.55090570639004,309.55090570639004,309.55090570639004,309.55090570639004,311.16817001460004,"['j', 'h']","[1.55599273032567, 1.571985780596151]","[None, None]",,,,,,,,,,,,,,,,,,,,,3007,2023-11-07_12h26.42.279,eb_03,2023.2.3,119.95405237101579,2023-11-07 12h26.54.669478 -0500,
,,,,0,0,0,0,98,0,98,0,311.1843631892989,,,,,,,,,,,,,,,,,,,,,,,,,,,,,,,,,,,,,,,,,,,,,,,,,,,,,,,,,,,,,,,,,,,,,,,,,,,,,,,,,,,,,,,,,,,,,,,,,,,,,,,,,,311.17029531784647,1.0,"('j', 'l')",311.1707954779704,311.17080755183997,311.1843631892989,311.1843631892989,311.1843631892989,311.1843631892989,311.1843631892989,311.1843631892989,311.1843631892989,311.1843631892989,315.376802289451,"['j', 'l']","[4.130581033939961, 4.131566261858097]","[None, None]",,,,,,,,,,,,,,,,,,,,,3007,2023-11-07_12h26.42.279,eb_03,2023.2.3,119.95405237101579,2023-11-07 12h26.54.669478 -0500,
,,,,0,0,0,0,99,0,99,0,315.39302444143686,,,,,,,,,,,,,,,,,,,,,,,,,,,,,,,,,,,,,,,,,,,,,,,,,,,,,,,,,,,,,,,,,,,,,,,,,,,,,,,,,,,,,,,,,,,,,,,,,,,,,,,,,,315.37890585971763,0.0,"('h', 'j')",315.37942081035,315.37944224146486,315.39302444143686,315.39302444143686,315.39302444143686,315.39302444143686,315.39302444143686,315.39302444143686,315.39302444143686,315.39302444143686,316.97700199128303,"['h', 'j']","[1.5219392810977297, 1.5229118314600782]","[None, None]",,,,,,,,,,,,,,,,,,,,,3007,2023-11-07_12h26.42.279,eb_03,2023.2.3,119.95405237101579,2023-11-07 12h26.54.669478 -0500,
,,,,0,0,0,0,100,0,100,0,316.9931565295992,,,,,,,,,,,,,,,,,,,,,,,,,,,,,,,,,,,,,,,,,,,,,,,,,,,,,,,,,,,,,,,,,,,,,,,,,,,,,,,,,,,,,,,,,,,,,,,,,,,,,,,,,,316.979089261833,2.0,"('l', 'space')",316.9795906293439,316.9796117586229,316.9931565295992,316.9931565295992,316.9931565295992,316.9931565295992,316.9931565295992,316.9931565295992,316.9931565295992,316.9931565295992,320.7444383974507,"['l', 'l']","[2.5148226393503137, 3.71285496049677]","[None, None]",,,,,,,,,,,,,,,,,,,,,3007,2023-11-07_12h26.42.279,eb_03,2023.2.3,119.95405237101579,2023-11-07 12h26.54.669478 -0500,
,,,,0,0,0,0,101,0,101,0,320.77672453371633,,,,,,,,,,,,,,,,,,,,,,,,,,,,,,,,,,,,,,,,,,,,,,,,,,,,,,,,,,,,,,,,,,,,,,,,,,,,,,,,,,,,,,,,,,,,,,,,,,,,,,,,,,320.7465993186197,1.0,"('j', 'l')",320.7472377245722,320.74725010029215,320.77672453371633,320.77672453371633,320.77672453371633,320.77672453371633,320.77672453371633,320.77672453371633,320.77672453371633,320.77672453371633,324.60311614551756,"['h', 'l', 'l']","[1.8893004066776484, 1.9452954008447705, 3.769320533814607]","[None, None, None]",,,,,,,,,,,,,,,,,,,,,3007,2023-11-07_12h26.42.279,eb_03,2023.2.3,119.95405237101579,2023-11-07 12h26.54.669478 -0500,
,,,,0,0,0,0,102,0,102,0,324.61873732054664,,,,,,,,,,,,,,,,,,,,,,,,,,,,,,,,,,,,,,,,,,,,,,,,,,,,,,,,,,,,,,,,,,,,,,,,,,,,,,,,,,,,,,,,,,,,,,,,,,,,,,,,,,324.60519013479643,4.0,"('l',)",324.6056815413758,324.6056936152454,324.61873732054664,324.61873732054664,324.61873732054664,324.61873732054664,324.61873732054664,324.61873732054664,324.61873732054664,324.61873732054664,325.47759346006205,['l'],[0.7993168603425147],[None],,,,,,,,,,,,,,,,,,,,,3007,2023-11-07_12h26.42.279,eb_03,2023.2.3,119.95405237101579,2023-11-07 12h26.54.669478 -0500,
,,,,0,0,0,0,103,0,103,0,325.4937570537877,,,,,,,,,,,,,,,,,,,,,,,,,,,,,,,,,,,,,,,,,,,,,,,,,,,,,,,,,,,,,,,,,,,,,,,,,,,,,,,,,,,,,,,,,,,,,,,,,,,,,,,,,,325.47967288260406,2.0,"('l', 'space')",325.4802080569498,325.4802201308339,325.4937570537877,325.4937570537877,325.4937570537877,325.4937570537877,325.4937570537877,325.4937570537877,325.4937570537877,325.4937570537877,327.3449471904023,"['space', 'l']","[1.7163210671860725, 1.8123273625096772]","[None, None]",,,,,,,,,,,,,,,,,,,,,3007,2023-11-07_12h26.42.279,eb_03,2023.2.3,119.95405237101579,2023-11-07 12h26.54.669478 -0500,
,,,,0,0,0,0,104,0,104,0,327.3606160572235,,,,,,,,,,,,,,,,,,,,,,,,,,,,,,,,,,,,,,,,,,,,,,,,,,,,,,,,,,,,,,,,,,,,,,,,,,,,,,,,,,,,,,,,,,,,,,,,,,,,,,,,,,327.34708668044186,0.0,"('h', 'j')",327.3476426822308,327.3476547561004,327.3606160572235,327.3606160572235,327.3606160572235,327.3606160572235,327.3606160572235,327.3606160572235,327.3606160572235,327.3606160572235,329.7284848890995,"['h', 'h', 'j']","[1.5784664311649976, 2.3294884089264087, 2.3304811830166727]","[None, None, None]",,,,,,,,,,,,,,,,,,,,,3007,2023-11-07_12h26.42.279,eb_03,2023.2.3,119.95405237101579,2023-11-07 12h26.54.669478 -0500,
,,,,0,0,0,0,105,0,105,0,329.744098517971,,,,,,,,,,,,,,,,,,,,,,,,,,,,,,,,,,,,,,,,,,,,,,,,,,,,,,,,,,,,,,,,,,,,,,,,,,,,,,,,,,,,,,,,,,,,,,,,,,,,,,,,,,329.7305561617686,14.0,"('j', 'space')",329.7310644717654,329.7310774511716,329.744098517971,329.744098517971,329.744098517971,329.744098517971,329.744098517971,329.744098517971,329.744098517971,329.744098517971,334.44495446491055,"['j', 'space']","[4.64212833379861, 4.6430193855194375]","[None, None]",,,,,,,,,,,,,,,,,,,,,3007,2023-11-07_12h26.42.279,eb_03,2023.2.3,119.95405237101579,2023-11-07 12h26.54.669478 -0500,
,,,,0,0,0,0,106,0,106,0,334.4611711836478,,,,,,,,,,,,,,,,,,,,,,,,,,,,,,,,,,,,,,,,,,,,,,,,,,,,,,,,,,,,,,,,,,,,,,,,,,,,,,,,,,,,,,,,,,,,,,,,,,,,,,,,,,334.4471431559796,12.0,"('k', 'space')",334.44764995673904,334.4476620306086,334.4611711836478,334.4611711836478,334.4611711836478,334.4611711836478,334.4611711836478,334.4611711836478,334.4611711836478,334.4611711836478,335.5366911373858,"['k', 'space']","[1.0130029559950344, 1.013991504223668]","[None, None]",,,,,,,,,,,,,,,,,,,,,3007,2023-11-07_12h26.42.279,eb_03,2023.2.3,119.95405237101579,2023-11-07 12h26.54.669478 -0500,
,,,,0,0,0,0,107,0,107,0,335.55287163452886,,,,,,,,,,,,,,,,,,,,,,,,,,,,,,,,,,,,,,,,,,,,,,,,,,,,,,,,,,,,,,,,,,,,,,,,,,,,,,,,,,,,,,,,,,,,,,,,,,,,,,,,,,335.5387436955498,13.0,"('k',)",335.53922997073096,335.5392595517187,335.55287163452886,335.55287163452886,335.55287163452886,335.55287163452886,335.55287163452886,335.55287163452886,335.55287163452886,335.55287163452886,336.3034728378698,['k'],[0.6883096851524897],[None],,,,,,,,,,,,,,,,,,,,,3007,2023-11-07_12h26.42.279,eb_03,2023.2.3,119.95405237101579,2023-11-07 12h26.54.669478 -0500,
,,,,0,0,0,0,108,0,108,0,336.31959447487316,,,,,,,,,,,,,,,,,,,,,,,,,,,,,,,,,,,,,,,,,,,,,,,,,,,,,,,,,,,,,,,,,,,,,,,,,,,,,,,,,,,,,,,,,,,,,,,,,,,,,,,,,,336.30556946566503,12.0,"('k', 'space')",336.3060469872871,336.3060587593063,336.31959447487316,336.31959447487316,336.31959447487316,336.31959447487316,336.31959447487316,336.31959447487316,336.31959447487316,336.31959447487316,337.35351782813086,"['k', 'space']","[0.9455987568799173, 0.946575834939722]","[None, None]",,,,,,,,,,,,,,,,,,,,,3007,2023-11-07_12h26.42.279,eb_03,2023.2.3,119.95405237101579,2023-11-07 12h26.54.669478 -0500,
,,,,0,0,0,0,109,0,109,0,337.3696777996811,,,,,,,,,,,,,,,,,,,,,,,,,,,,,,,,,,,,,,,,,,,,,,,,,,,,,,,,,,,,,,,,,,,,,,,,,,,,,,,,,,,,,,,,,,,,,,,,,,,,,,,,,,337.35559272296086,14.0,"('j', 'space')",337.3561185400613,337.3561725706386,337.3696777996811,337.3696777996811,337.3696777996811,337.3696777996811,337.3696777996811,337.3696777996811,337.3696777996811,337.3696777996811,339.4371076557727,"['j', 'space']","[2.0155405819386942, 2.0634973961132346]","[None, None]",,,,,,,,,,,,,,,,,,,,,3007,2023-11-07_12h26.42.279,eb_03,2023.2.3,119.95405237101579,2023-11-07 12h26.54.669478 -0500,
,,,,0,0,0,0,110,0,110,0,339.46983660127444,,,,,,,,,,,,,,,,,,,,,,,,,,,,,,,,,,,,,,,,,,,,,,,,,,,,,,,,,,,,,,,,,,,,,,,,,,,,,,,,,,,,,,,,,,,,,,,,,,,,,,,,,,339.4392399014905,12.0,"('k', 'space')",339.4397542484221,339.4397660204413,339.46983660127444,339.46983660127444,339.46983660127444,339.46983660127444,339.46983660127444,339.46983660127444,339.46983660127444,339.46983660127444,340.6954580208112,"['k', 'space']","[1.163399024240789, 1.1643890817213105]","[None, None]",,,,,,,,,,,,,,,,,,,,,3007,2023-11-07_12h26.42.279,eb_03,2023.2.3,119.95405237101579,2023-11-07 12h26.54.669478 -0500,
,,,,0,0,0,0,111,0,111,0,340.7116490825865,,,,,,,,,,,,,,,,,,,,,,,,,,,,,,,,,,,,,,,,,,,,,,,,,,,,,,,,,,,,,,,,,,,,,,,,,,,,,,,,,,,,,,,,,,,,,,,,,,,,,,,,,,340.69756159107783,10.0,"('space',)",340.698081371258,340.6980931432772,340.7116490825865,340.7116490825865,340.7116490825865,340.7116490825865,340.7116490825865,340.7116490825865,340.7116490825865,340.7116490825865,341.3788512254541,['space'],[0.5855734138167463],[None],,,,,,,,,,,,,,,,,,,,,3007,2023-11-07_12h26.42.279,eb_03,2023.2.3,119.95405237101579,2023-11-07 12h26.54.669478 -0500,
,,,,0,0,0,0,112,0,112,0,341.3949725606217,,,,,,,,,,,,,,,,,,,,,,,,,,,,,,,,,,,,,,,,,,,,,,,,,,,,,,,,,,,,,,,,,,,,,,,,,,,,,,,,,,,,,,,,,,,,,,,,,,,,,,,,,,341.3809270258207,12.0,"('k', 'space')",341.38139126618626,341.3814054529794,341.3949725606217,341.3949725606217,341.3949725606217,341.3949725606217,341.3949725606217,341.3949725606217,341.3949725606217,341.3949725606217,342.037247591943,"['k', 'space']","[0.5822594379133079, 0.5832709265087033]","[None, None]",,,,,,,,,,,,,,,,,,,,,3007,2023-11-07_12h26.42.279,eb_03,2023.2.3,119.95405237101579,2023-11-07 12h26.54.669478 -0500,
,,,,0,0,0,0,113,0,113,0,342.0534398611053,,,,,,,,,,,,,,,,,,,,,,,,,,,,,,,,,,,,,,,,,,,,,,,,,,,,,,,,,,,,,,,,,,,,,,,,,,,,,,,,,,,,,,,,,,,,,,,,,,,,,,,,,,342.03932369416,11.0,"('h',)",342.0398223450611,342.0398434743256,342.0534398611053,342.0534398611053,342.0534398611053,342.0534398611053,342.0534398611053,342.0534398611053,342.0534398611053,342.0534398611053,343.14567820295633,['h'],[1.011800700231106],[None],,,,,,,,,,,,,,,,,,,,,3007,2023-11-07_12h26.42.279,eb_03,2023.2.3,119.95405237101579,2023-11-07 12h26.54.669478 -0500,
,,,,0,0,0,0,114,0,114,0,343.1617947085615,,,,,,,,,,,,,,,,,,,,,,,,,,,,,,,,,,,,,,,,,,,,,,,,,,,,,,,,,,,,,,,,,,,,,,,,,,,,,,,,,,,,,,,,,,,,,,,,,,,,,,,,,,343.14778177322296,14.0,"('j', 'space')",343.1482897813694,343.14830215708935,343.1617947085615,343.1617947085615,343.1617947085615,343.1617947085615,343.1617947085615,343.1617947085615,343.1617947085615,343.1617947085615,344.57912777748425,"['j', 'space']","[1.3274847499415046, 1.3284748074074741]","[None, None]",,,,,,,,,,,,,,,,,,,,,3007,2023-11-07_12h26.42.279,eb_03,2023.2.3,119.95405237101579,2023-11-07 12h26.54.669478 -0500,
,,,,0,0,0,0,115,0,115,0,344.5952925785823,,,,,,,,,,,,,,,,,,,,,,,,,,,,,,,,,,,,,,,,,,,,,,,,,,,,,,,,,,,,,,,,,,,,,,,,,,,,,,,,,,,,,,,,,,,,,,,,,,,,,,,,,,344.5812690786115,0.0,"('h', 'j')",344.5817840292293,344.5817961030989,344.5952925785823,344.5952925785823,344.5952925785823,344.5952925785823,344.5952925785823,344.5952925785823,344.5952925785823,344.5952925785823,345.57083906464686,"['h', 'j']","[0.8859948824829189, 0.8869855436496437]","[None, None]",,,,,,,,,,,,,,,,,,,,,3007,2023-11-07_12h26.42.279,eb_03,2023.2.3,119.95405237101579,2023-11-07 12h26.54.669478 -0500,
,,,,0,0,0,0,116,0,116,0,345.58698213277967,,,,,,,,,,,,,,,,,,,,,,,,,,,,,,,,,,,,,,,,,,,,,,,,,,,,,,,,,,,,,,,,,,,,,,,,,,,,,,,,,,,,,,,,,,,,,,,,,,,,,,,,,,345.5729667826672,2.0,"('l', 'space')",345.5736842724873,345.5736978555942,345.58698213277967,345.58698213277967,345.58698213277967,345.58698213277967,345.58698213277967,345.58698213277967,345.58698213277967,345.58698213277967,347.3376252928283,"['l', 'space']","[1.670306637097383, 1.718315368911135]","[None, None]",,,,,,,,,,,,,,,,,,,,,3007,2023-11-07_12h26.42.279,eb_03,2023.2.3,119.95405237101579,2023-11-07 12h26.54.669478 -0500,
,,,,0,0,0,0,117,0,117,0,347.35378345330537,,,,,,,,,,,,,,,,,,,,,,,,,,,,,,,,,,,,,,,,,,,,,,,,,,,,,,,,,,,,,,,,,,,,,,,,,,,,,,,,,,,,,,,,,,,,,,,,,,,,,,,,,,347.33978198813566,3.0,"('h', 'space')",347.340281242723,347.3403114274115,347.35378345330537,347.35378345330537,347.35378345330537,347.35378345330537,347.35378345330537,347.35378345330537,347.35378345330537,347.35378345330537,348.8710890843504,"['space', 'h']","[1.4475373678724281, 1.487537198830978]","[None, None]",,,,,,,,,,,,,,,,,,,,,3007,2023-11-07_12h26.42.279,eb_03,2023.2.3,119.95405237101579,2023-11-07 12h26.54.669478 -0500,
,,,,0,0,0,0,118,0,118,0,348.8872937292181,,,,,,,,,,,,,,,,,,,,,,,,,,,,,,,,,,,,,,,,,,,,,,,,,,,,,,,,,,,,,,,,,,,,,,,,,,,,,,,,,,,,,,,,,,,,,,,,,,,,,,,,,,348.8732189152943,4.0,"('l',)",348.87370036091306,348.8737124347972,348.8872937292181,348.8872937292181,348.8872937292181,348.8872937292181,348.8872937292181,348.8872937292181,348.8872937292181,348.8872937292181,350.02945602076943,['l'],[1.0820247520314297],[None],,,,,,,,,,,,,,,,,,,,,3007,2023-11-07_12h26.42.279,eb_03,2023.2.3,119.95405237101579,2023-11-07 12h26.54.669478 -0500,
,,,,0,0,0,0,119,0,119,0,350.04570654637064,,,,,,,,,,,,,,,,,,,,,,,,,,,,,,,,,,,,,,,,,,,,,,,,,,,,,,,,,,,,,,,,,,,,,,,,,,,,,,,,,,,,,,,,,,,,,,,,,,,,,,,,,,350.0315408765455,3.0,"('h', 'space')",350.0319806673215,350.0319924393407,350.04570654637064,350.04570654637064,350.04570654637064,350.04570654637064,350.04570654637064,350.04570654637064,350.04570654637064,350.04570654637064,351.16297915537143,"['space', 'h']","[1.0356384467158932, 1.0516680204600561]","[None, None]",,,,,,,,,,,,,,,,,,,,,3007,2023-11-07_12h26.42.279,eb_03,2023.2.3,119.95405237101579,2023-11-07 12h26.54.669478 -0500,
,,,,0,0,0,0,120,0,120,0,351.17908237972006,,,,,,,,,,,,,,,,,,,,,,,,,,,,,,,,,,,,,,,,,,,,,,,,,,,,,,,,,,,,,,,,,,,,,,,,,,,,,,,,,,,,,,,,,,,,,,,,,,,,,,,,,,351.165107477078,0.0,"('h', 'j')",351.16559978919395,351.16561186306353,351.17908237972006,351.17908237972006,351.17908237972006,351.17908237972006,351.17908237972006,351.17908237972006,351.17908237972006,351.17908237972006,352.12180966809683,"['h', 'j']","[0.8133041387191042, 0.8932832750724629]","[None, None]",,,,,,,,,,,,,,,,,,,,,3007,2023-11-07_12h26.42.279,eb_03,2023.2.3,119.95405237101579,2023-11-07 12h26.54.669478 -0500,
,,,,0,0,0,0,121,0,121,0,352.13750600298226,,,,,,,,,,,,,,,,,,,,,,,,,,,,,,,,,,,,,,,,,,,,,,,,,,,,,,,,,,,,,,,,,,,,,,,,,,,,,,,,,,,,,,,,,,,,,,,,,,,,,,,,,,352.1238516616286,3.0,"('h', 'space')",352.12440283385513,352.1244149077247,352.13750600298226,352.13750600298226,352.13750600298226,352.13750600298226,352.13750600298226,352.13750600298226,352.13750600298226,352.13750600298226,353.22147253541334,"['h', 'space']","[1.0228630831988994, 1.0468553752289154]","[None, None]",,,,,,,,,,,,,,,,,,,,,3007,2023-11-07_12h26.42.279,eb_03,2023.2.3,119.95405237101579,2023-11-07 12h26.54.669478 -0500,
,,,,0,0,0,0,122,0,122,0,353.2376297903538,,,,,,,,,,,,,,,,,,,,,,,,,,,,,,,,,,,,,,,,,,,,,,,,,,,,,,,,,,,,,,,,,,,,,,,,,,,,,,,,,,,,,,,,,,,,,,,,,,,,,,,,,,353.2235546745651,2.0,"('l', 'space')",353.2240747565811,353.22409498032357,353.2376297903538,353.2376297903538,353.2376297903538,353.2376297903538,353.2376297903538,353.2376297903538,353.2376297903538,353.2376297903538,355.255625895923,"['l', 'space', 'h', 'h', 'l', 'space']","[1.0187618908821605, 1.082750391724403, 1.1067475133168045, 1.9707637237006566, 1.9717549885535846, 1.9727559125021799]","[None, None, None, None, None, None]",,,,,,,,,,,,,,,,,,,,,3007,2023-11-07_12h26.42.279,eb_03,2023.2.3,119.95405237101579,2023-11-07 12h26.54.669478 -0500,
,,,,0,0,0,0,123,0,123,0,355.2711100325105,,,,,,,,,,,,,,,,,,,,,,,,,,,,,,,,,,,,,,,,,,,,,,,,,,,,,,,,,,,,,,,,,,,,,,,,,,,,,,,,,,,,,,,,,,,,,,,,,,,,,,,,,,355.25769113165734,3.0,"('h', 'space')",355.2582048748882,355.2582166469074,355.2711100325105,355.2711100325105,355.2711100325105,355.2711100325105,355.2711100325105,355.2711100325105,355.2711100325105,355.2711100325105,356.83052751650393,"['h', 'space']","[1.4333104231627658, 1.5052999768522568]","[None, None]",,,,,,,,,,,,,,,,,,,,,3007,2023-11-07_12h26.42.279,eb_03,2023.2.3,119.95405237101579,2023-11-07 12h26.54.669478 -0500,
,,,,0,0,0,0,124,0,124,0,356.8462338123354,,,,,,,,,,,,,,,,,,,,,,,,,,,,,,,,,,,,,,,,,,,,,,,,,,,,,,,,,,,,,,,,,,,,,,,,,,,,,,,,,,,,,,,,,,,,,,,,,,,,,,,,,,356.83259818548686,0.0,"('h', 'j')",356.83308476250386,356.83309623268724,356.8462338123354,356.8462338123354,356.8462338123354,356.8462338123354,356.8462338123354,356.8462338123354,356.8462338123354,356.8462338123354,357.81349792434776,"['h', 'j']","[0.8901962879608618, 0.9381896255945321]","[None, None]",,,,,,,,,,,,,,,,,,,,,3007,2023-11-07_12h26.42.279,eb_03,2023.2.3,119.95405237101579,2023-11-07 12h26.54.669478 -0500,
,,,,0,0,0,0,125,0,125,0,357.8295945080754,,,,,,,,,,,,,,,,,,,,,,,,,,,,,,,,,,,,,,,,,,,,,,,,,,,,,,,,,,,,,,,,,,,,,,,,,,,,,,,,,,,,,,,,,,,,,,,,,,,,,,,,,,357.81558700598544,14.0,"('j', 'space')",357.81609561781806,357.81610708800144,357.8295945080754,357.8295945080754,357.8295945080754,357.8295945080754,357.8295945080754,357.8295945080754,357.8295945080754,357.8295945080754,359.6635944700538,"['j', 'space']","[1.7708581413608044, 1.7718475951405708]","[None, None]",,,,,,,,,,,,,,,,,,,,,3007,2023-11-07_12h26.42.279,eb_03,2023.2.3,119.95405237101579,2023-11-07 12h26.54.669478 -0500,
,,,,0,0,0,0,126,0,126,0,359.67973663263547,,,,,,,,,,,,,,,,,,,,,,,,,,,,,,,,,,,,,,,,,,,,,,,,,,,,,,,,,,,,,,,,,,,,,,,,,,,,,,,,,,,,,,,,,,,,,,,,,,,,,,,,,,359.6657161511248,13.0,"('k',)",359.66621782048605,359.6662298943702,359.67973663263547,359.67973663263547,359.67973663263547,359.67973663263547,359.67973663263547,359.67973663263547,359.67973663263547,359.67973663263547,360.596993183397,['k'],[0.8567260067211464],[None],,,,,,,,,,,,,,,,,,,,,3007,2023-11-07_12h26.42.279,eb_03,2023.2.3,119.95405237101579,2023-11-07 12h26.54.669478 -0500,
,,,,0,0,0,0,127,0,127,0,360.6131444013881,,,,,,,,,,,,,,,,,,,,,,,,,,,,,,,,,,,,,,,,,,,,,,,,,,,,,,,,,,,,,,,,,,,,,,,,,,,,,,,,,,,,,,,,,,,,,,,,,,,,,,,,,,360.5990732096252,10.0,"('space',)",360.59956099402916,360.5995727660629,360.6131444013881,360.6131444013881,360.6131444013881,360.6131444013881,360.6131444013881,360.6131444013881,360.6131444013881,360.6131444013881,361.5887790267152,['space'],[0.9153141666611191],[None],,,,,,,,,,,,,,,,,,,,,3007,2023-11-07_12h26.42.279,eb_03,2023.2.3,119.95405237101579,2023-11-07 12h26.54.669478 -0500,
,,,,0,0,0,0,128,0,128,0,361.6048855713889,,,,,,,,,,,,,,,,,,,,,,,,,,,,,,,,,,,,,,,,,,,,,,,,,,,,,,,,,,,,,,,,,,,,,,,,,,,,,,,,,,,,,,,,,,,,,,,,,,,,,,,,,,361.59087233419996,9.0,"('j', 'k')",361.5914180731925,361.59143135446357,361.6048855713889,361.6048855713889,361.6048855713889,361.6048855713889,361.6048855713889,361.6048855713889,361.6048855713889,361.6048855713889,363.18894039401494,"['k', 'j']","[1.5236066827637842, 1.5475766381423455]","[None, None]",,,,,,,,,,,,,,,,,,,,,3007,2023-11-07_12h26.42.279,eb_03,2023.2.3,119.95405237101579,2023-11-07 12h26.54.669478 -0500,
,,,,0,0,0,0,129,0,129,0,363.2050212817121,,,,,,,,,,,,,,,,,,,,,,,,,,,,,,,,,,,,,,,,,,,,,,,,,,,,,,,,,,,,,,,,,,,,,,,,,,,,,,,,,,,,,,,,,,,,,,,,,,,,,,,,,,363.1910822988284,8.0,"('h', 'k')",363.19155499090266,363.1915673666226,363.2050212817121,363.2050212817121,363.2050212817121,363.2050212817121,363.2050212817121,363.2050212817121,363.2050212817121,363.2050212817121,366.59807228566206,"['h', 'l', 'h', 'k']","[2.235496639084886, 2.2594889311294537, 3.3555012633878505, 3.3714937099721283]","[None, None, None, None]",,,,,,,,,,,,,,,,,,,,,3007,2023-11-07_12h26.42.279,eb_03,2023.2.3,119.95405237101579,2023-11-07 12h26.54.669478 -0500,
,,,,0,0,0,0,130,0,130,0,366.6136246396345,,,,,,,,,,,,,,,,,,,,,,,,,,,,,,,,,,,,,,,,,,,,,,,,,,,,,,,,,,,,,,,,,,,,,,,,,,,,,,,,,,,,,,,,,,,,,,,,,,,,,,,,,,366.6001278623007,6.0,"('k', 'l')",366.6006355685968,366.60064945355407,366.6136246396345,366.6136246396345,366.6136246396345,366.6136246396345,366.6136246396345,366.6136246396345,366.6136246396345,366.6136246396345,368.12266298897157,"['k', 'l']","[1.425920006382512, 1.5058964261115761]","[None, None]",,,,,,,,,,,,,,,,,,,,,3007,2023-11-07_12h26.42.279,eb_03,2023.2.3,119.95405237101579,2023-11-07 12h26.54.669478 -0500,
,,,,0,0,0,0,131,0,131,0,368.15539253817406,,,,,,,,,,,,,,,,,,,,,,,,,,,,,,,,,,,,,,,,,,,,,,,,,,,,,,,,,,,,,,,,,,,,,,,,,,,,,,,,,,,,,,,,,,,,,,,,,,,,,,,,,,368.1247834626556,5.0,"('h', 'l')",368.1252887541923,368.1253008280619,368.15539253817406,368.15539253817406,368.15539253817406,368.15539253817406,368.15539253817406,368.15539253817406,368.15539253817406,368.15539253817406,370.2810930113774,"['l', 'h']","[2.044175277595059, 2.0681557976204203]","[None, None]",,,,,,,,,,,,,,,,,,,,,3007,2023-11-07_12h26.42.279,eb_03,2023.2.3,119.95405237101579,2023-11-07 12h26.54.669478 -0500,
,,,,0,0,0,0,132,0,132,0,370.29722913702426,,,,,,,,,,,,,,,,,,,,,,,,,,,,,,,,,,,,,,,,,,,,,,,,,,,,,,,,,,,,,,,,,,,,,,,,,,,,,,,,,,,,,,,,,,,,,,,,,,,,,,,,,,370.2831709246675,8.0,"('h', 'k')",370.2837435280235,370.28375590374344,370.29722913702426,370.29722913702426,370.29722913702426,370.29722913702426,370.29722913702426,370.29722913702426,370.29722913702426,370.29722913702426,372.95681930756837,"['h', 'j', 'k', 'h']","[1.6303569127048831, 1.6313517997186864, 2.566367506311508, 2.5983668881381163]","[None, None, None, None]",,,,,,,,,,,,,,,,,,,,,3007,2023-11-07_12h26.42.279,eb_03,2023.2.3,119.95405237101579,2023-11-07 12h26.54.669478 -0500,
,,,,0,0,0,0,133,0,133,0,372.9724833448563,,,,,,,,,,,,,,,,,,,,,,,,,,,,,,,,,,,,,,,,,,,,,,,,,,,,,,,,,,,,,,,,,,,,,,,,,,,,,,,,,,,,,,,,,,,,,,,,,,,,,,,,,,372.958882732215,9.0,"('j', 'k')",372.9593955699238,372.95940704009263,372.9724833448563,372.9724833448563,372.9724833448563,372.9724833448563,372.9724833448563,372.9724833448563,372.9724833448563,372.9724833448563,374.25638534243626,"['k', 'j']","[1.2031290041777538, 1.2351226509053959]","[None, None]",,,,,,,,,,,,,,,,,,,,,3007,2023-11-07_12h26.42.279,eb_03,2023.2.3,119.95405237101579,2023-11-07 12h26.54.669478 -0500,
,,,,0,0,0,0,134,0,134,0,374.27258606330724,,,,,,,,,,,,,,,,,,,,,,,,,,,,,,,,,,,,,,,,,,,,,,,,,,,,,,,,,,,,,,,,,,,,,,,,,,,,,,,,,,,,,,,,,,,,,,,,,,,,,,,,,,374.2585040050617,7.0,"('j',)",374.2589957134769,374.2590074854961,374.27258606330724,374.27258606330724,374.27258606330724,374.27258606330724,374.27258606330724,374.27258606330724,374.27258606330724,374.27258606330724,375.32314630605106,['j'],[0.9910463186970446],[None],,,,,,,,,,,,,,,,,,,,,3007,2023-11-07_12h26.42.279,eb_03,2023.2.3,119.95405237101579,2023-11-07 12h26.54.669478 -0500,
,,,,0,0,0,0,135,0,135,0,375.3392462100892,,,,,,,,,,,,,,,,,,,,,,,,,,,,,,,,,,,,,,,,,,,,,,,,,,,,,,,,,,,,,,,,,,,,,,,,,,,,,,,,,,,,,,,,,,,,,,,,,,,,,,,,,,375.32520459929947,5.0,"('h', 'l')",375.3257095889858,375.32572256839194,375.3392462100892,375.3392462100892,375.3392462100892,375.3392462100892,375.3392462100892,375.3392462100892,375.3392462100892,375.3392462100892,377.1821041679359,"['l', 'h']","[1.7244033168244641, 1.8043945270474069]","[None, None]",,,,,,,,,,,,,,,,,,,,,3007,2023-11-07_12h26.42.279,eb_03,2023.2.3,119.95405237101579,2023-11-07 12h26.54.669478 -0500,
,,,,0,0,0,0,136,0,136,0,377.1978110674536,,,,,,,,,,,,,,,,,,,,,,,,,,,,,,,,,,,,,,,,,,,,,,,,,,,,,,,,,,,,,,,,,,,,,,,,,,,,,,,,,,,,,,,,,,,,,,,,,,,,,,,,,,377.18414948177815,6.0,"('k', 'l')",377.1846580936108,377.1846786192036,377.1978110674536,377.1978110674536,377.1978110674536,377.1978110674536,377.1978110674536,377.1978110674536,377.1978110674536,377.1978110674536,383.04093344308785,"['k', 'l', 'j', 'k', 'l', 'j', 'k', 'l']","[1.713856186310295, 1.7148486585501814, 1.7378490820410661, 3.0418549813330173, 3.042845642499742, 3.05785738886334, 5.736905508980271, 5.816902152437251]","[None, None, None, None, None, None, None, None]",,,,,,,,,,,,,,,,,,,,,3007,2023-11-07_12h26.42.279,eb_03,2023.2.3,119.95405237101579,2023-11-07 12h26.54.669478 -0500,
,,,,0,0,0,0,137,0,137,0,383.056598084062,,,,,,,,,,,,,,,,,,,,,,,,,,,,,,,,,,,,,,,,,,,,,,,,,,,,,,,,,,,,,,,,,,,,,,,,,,,,,,,,,,,,,,,,,,,,,,,,,,,,,,,,,,383.04303912629257,8.0,"('h', 'k')",383.0435625286191,383.0435743006383,383.056598084062,383.056598084062,383.056598084062,383.056598084062,383.056598084062,383.056598084062,383.056598084062,383.056598084062,395.62523095052165,"['h', 'l', 'l', 'j', 'h', 'l', 'k', 'j', 'h', 'h']","[1.9501264587015612, 1.9511343251360813, 7.942205093422672, 7.982204924381222, 10.382222854081192, 10.383211100474, 11.446251198707614, 11.598242829088122, 11.871229443087941, 12.54225417370617]","[None, None, None, None, None, None, None, None, None, None]",,,,,,,,,,,,,,,,,,,,,3007,2023-11-07_12h26.42.279,eb_03,2023.2.3,119.95405237101579,2023-11-07 12h26.54.669478 -0500,
,,,,0,0,0,0,138,0,138,0,395.6408801973157,,,,,,,,,,,,,,,,,,,,,,,,,,,,,,,,,,,,,,,,,,,,,,,,,,,,,,,,,,,,,,,,,,,,,,,,,,,,,,,,,,,,,,,,,,,,,,,,,,,,,,,,,,395.6273354263394,6.0,"('k', 'l')",395.6278443400224,395.627856413892,395.6408801973157,395.6408801973157,395.6408801973157,395.6408801973157,395.6408801973157,395.6408801973157,395.6408801973157,395.6408801973157,398.43382839225524,"['k', 'l']","[0.013978524802951142, 2.764997484104242]","[None, None]",,,,,,,,,,,,,,,,,,,,,3007,2023-11-07_12h26.42.279,eb_03,2023.2.3,119.95405237101579,2023-11-07 12h26.54.669478 -0500,
,,,,0,0,0,0,139,0,139,0,398.44945922638,,,,,,,,,,,,,,,,,,,,,,,,,,,,,,,,,,,,,,,,,,,,,,,,,,,,,,,,,,,,,,,,,,,,,,,,,,,,,,,,,,,,,,,,,,,,,,,,,,,,,,,,,,398.43599746328255,7.0,"('j',)",398.43649188832205,398.43650396219164,398.44945922638,398.44945922638,398.44945922638,398.44945922638,398.44945922638,398.44945922638,398.44945922638,398.44945922638,400.2755818926962,"['k', 'k', 'j']","[0.06042610503209289, 1.2364317604369717, 1.7724455536226742]","[None, None, None]",,,,,,,,,,,,,,,,,,,,,3007,2023-11-07_12h26.42.279,eb_03,2023.2.3,119.95405237101579,2023-11-07 12h26.54.669478 -0500,
,,,,0,0,0,0,140,0,140,0,400.2912248007051,,,,,,,,,,,,,,,,,,,,,,,,,,,,,,,,,,,,,,,,,,,,,,,,,,,,,,,,,,,,,,,,,,,,,,,,,,,,,,,,,,,,,,,,,,,,,,,,,,,,,,,,,,400.2776887832879,6.0,"('k', 'l')",400.2781261592754,400.2781376294588,400.2912248007051,400.2912248007051,400.2912248007051,400.2912248007051,400.2912248007051,400.2912248007051,400.2912248007051,400.2912248007051,401.41682717369986,"['k', 'l']","[1.0666785594221437, 1.0676800870714942]","[None, None]",,,,,,,,,,,,,,,,,,,,,3007,2023-11-07_12h26.42.279,eb_03,2023.2.3,119.95405237101579,2023-11-07 12h26.54.669478 -0500,
,,,,0,0,0,0,141,0,141,0,401.4330257816473,,,,,,,,,,,,,,,,,,,,,,,,,,,,,,,,,,,,,,,,,,,,,,,,,,,,,,,,,,,,,,,,,,,,,,,,,,,,,,,,,,,,,,,,,,,,,,,,,,,,,,,,,,401.4189238014951,7.0,"('j',)",401.41941701914766,401.4194287911814,401.4330257816473,401.4330257816473,401.4330257816473,401.4330257816473,401.4330257816473,401.4330257816473,401.4330257816473,401.4330257816473,404.81760183330334,"['k', 'j']","[2.7969268374727108, 3.3569311116152676]","[None, None]",,,,,,,,,,,,,,,,,,,,,3007,2023-11-07_12h26.42.279,eb_03,2023.2.3,119.95405237101579,2023-11-07 12h26.54.669478 -0500,
,,,,0,0,0,0,142,0,142,0,404.8331976532063,,,,,,,,,,,,,,,,,,,,,,,,,,,,,,,,,,,,,,,,,,,,,,,,,,,,,,,,,,,,,,,,,,,,,,,,,,,,,,,,,,,,,,,,,,,,,,,,,,,,,,,,,,404.8196622394753,6.0,"('k', 'l')",404.82013251677563,404.8201467035833,404.8331976532063,404.8331976532063,404.8331976532063,404.8331976532063,404.8331976532063,404.8331976532063,404.8331976532063,404.8331976532063,405.81719041612814,"['k', 'l']","[0.876774066768121, 0.8777731796435546]","[None, None]",,,,,,,,,,,,,,,,,,,,,3007,2023-11-07_12h26.42.279,eb_03,2023.2.3,119.95405237101579,2023-11-07 12h26.54.669478 -0500,
,,,,0,0,0,0,143,0,143,0,405.8333177882305,,,,,,,,,,,,,,,,,,,,,,,,,,,,,,,,,,,,,,,,,,,,,,,,,,,,,,,,,,,,,,,,,,,,,,,,,,,,,,,,,,,,,,,,,,,,,,,,,,,,,,,,,,405.81928794946,7.0,"('j',)",405.8197651692317,405.81977724310127,405.8333177882305,405.8333177882305,405.8333177882305,405.8333177882305,405.8333177882305,405.8333177882305,405.8333177882305,405.8333177882305,408.126190068695,"['k', 'j']","[1.2366705212480156, 2.244687571976101]","[None, None]",,,,,,,,,,,,,,,,,,,,,3007,2023-11-07_12h26.42.279,eb_03,2023.2.3,119.95405237101579,2023-11-07 12h26.54.669478 -0500,
,,,,0,0,0,0,144,0,144,0,408.1418788574083,,,,,,,,,,,,,,,,,,,,,,,,,,,,,,,,,,,,,,,,,,,,,,,,,,,,,,,,,,,,,,,,,,,,,,,,,,,,,,,,,,,,,,,,,,,,,,,,,,,,,,,,,,408.1282504748815,5.0,"('h', 'l')",408.12875244609313,408.12876421811234,408.1418788574083,408.1418788574083,408.1418788574083,408.1418788574083,408.1418788574083,408.1418788574083,408.1418788574083,408.1418788574083,409.5679307708342,"['h', 'l']","[1.3041172807570547, 1.3761358117335476]","[None, None]",,,,,,,,,,,,,,,,,,,,,3007,2023-11-07_12h26.42.279,eb_03,2023.2.3,119.95405237101579,2023-11-07 12h26.54.669478 -0500,
,,,,0,0,0,0,145,0,145,0,409.58365729040815,,,,,,,,,,,,,,,,,,,,,,,,,,,,,,,,,,,,,,,,,,,,,,,,,,,,,,,,,,,,,,,,,,,,,,,,,,,,,,,,,,,,,,,,,,,,,,,,,,,,,,,,,,409.57000476012763,8.0,"('h', 'k')",409.5705088442628,409.5705203144462,409.58365729040815,409.58365729040815,409.58365729040815,409.58365729040815,409.58365729040815,409.58365729040815,409.58365729040815,409.58365729040815,418.81034181432915,"['j', 'l', 'k', 'j', 'h', 'l', 'k', 'h']","[2.358365185718867, 2.3593256621970795, 3.190377184728277, 3.278394802924595, 7.669443657126976, 7.829428190496401, 9.085460070346016, 9.197456095629605]","[None, None, None, None, None, None, None, None]",,,,,,,,,,,,,,,,,,,,,3007,2023-11-07_12h26.42.279,eb_03,2023.2.3,119.95405237101579,2023-11-07 12h26.54.669478 -0500,
,,,,0,0,0,0,146,0,146,0,418.8259949851199,,,,,,,,,,,,,,,,,,,,,,,,,,,,,,,,,,,,,,,,,,,,,,,,,,,,,,,,,,,,,,,,,,,,,,,,,,,,,,,,,,,,,,,,,,,,,,,,,,,,,,,,,,418.81240705004893,7.0,"('j',)",418.81292320806824,418.81293467823707,418.8259949851199,418.8259949851199,418.8259949851199,418.8259949851199,418.8259949851199,418.8259949851199,418.8259949851199,418.8259949851199,419.86823210449074,['j'],[0.9791170317330398],[None],,,,,,,,,,,,,,,,,,,,,3007,2023-11-07_12h26.42.279,eb_03,2023.2.3,119.95405237101579,2023-11-07 12h26.54.669478 -0500,
,,,,0,0,0,0,147,0,147,0,419.8844560675643,,,,,,,,,,,,,,,,,,,,,,,,,,,,,,,,,,,,,,,,,,,,,,,,,,,,,,,,,,,,,,,,,,,,,,,,,,,,,,,,,,,,,,,,,,,,,,,,,,,,,,,,,,419.8703057919338,5.0,"('h', 'l')",419.87079085971345,419.87080293358304,419.8844560675643,419.8844560675643,419.8844560675643,419.8844560675643,419.8844560675643,419.8844560675643,419.8844560675643,419.8844560675643,421.7767710181215,"['h', 'l']","[1.8326987004547846, 1.8486968821234768]","[None, None]",,,,,,,,,,,,,,,,,,,,,3007,2023-11-07_12h26.42.279,eb_03,2023.2.3,119.95405237101579,2023-11-07 12h26.54.669478 -0500,
,,,,0,0,0,0,148,0,148,0,421.79287514802127,,,,,,,,,,,,,,,,,,,,,,,,,,,,,,,,,,,,,,,,,,,,,,,,,,,,,,,,,,,,,,,,,,,,,,,,,,,,,,,,,,,,,,,,,,,,,,,,,,,,,,,,,,421.7788776068628,8.0,"('h', 'k')",421.77939376486756,421.7794082535256,421.79287514802127,421.79287514802127,421.79287514802127,421.79287514802127,421.79287514802127,421.79287514802127,421.79287514802127,421.79287514802127,425.10259923289414,"['h', 'l', 'k', 'j', 'h', 'k']","[1.8763010728580412, 1.9402950069488725, 2.5643067982891807, 2.6043005923129385, 3.0443065809522523, 3.276317795171053]","[None, None, None, None, None, None]",,,,,,,,,,,,,,,,,,,,,3007,2023-11-07_12h26.42.279,eb_03,2023.2.3,119.95405237101579,2023-11-07 12h26.54.669478 -0500,
,,,,0,0,0,0,149,0,149,0,425.11815641639987,,,,,,,,,,,,,,,,,,,,,,,,,,,,,,,,,,,,,,,,,,,,,,,,,,,,,,,,,,,,,,,,,,,,,,,,,,,,,,,,,,,,,,,,,,,,,,,,,,,,,,,,,,425.1046641667781,5.0,"('h', 'l')",425.1052020577481,425.10522228149057,425.11815641639987,425.11815641639987,425.11815641639987,425.11815641639987,425.11815641639987,425.11815641639987,425.11815641639987,425.11815641639987,428.9779476772819,"['l', 'h']","[0.2550348798977211, 3.855104183923686]","[None, None]",,,,,,,,,,,,,,,,,,,,,3007,2023-11-07_12h26.42.279,eb_03,2023.2.3,119.95405237101579,2023-11-07 12h26.54.669478 -0500,
,,,,0,0,0,0,150,0,150,0,429.0184546108503,,,,,,,,,,,,,,,,,,,,,,,,,,,,,,,,,,,,,,,,,,,,,,,,,,,,,,,,,,,,,,,,,,,,,,,,,,,,,,,,,,,,,,,,,,,,,,,,,,,,,,,,,,428.980004461293,7.0,"('j',)",428.9804816810647,428.98049345309846,429.0184546108503,429.0184546108503,429.0184546108503,429.0184546108503,429.0184546108503,429.0184546108503,429.0184546108503,429.0184546108503,430.3862778638577,"['k', 'j']","[0.9138019142556004, 1.3297848224901827]","[None, None]",,,,,,,,,,,,,,,,,,,,,3007,2023-11-07_12h26.42.279,eb_03,2023.2.3,119.95405237101579,2023-11-07 12h26.54.669478 -0500,
,,,,0,0,0,0,151,0,151,0,430.4019391845213,,,,,,,,,,,,,,,,,,,,,,,,,,,,,,,,,,,,,,,,,,,,,,,,,,,,,,,,,,,,,,,,,,,,,,,,,,,,,,,,,,,,,,,,,,,,,,,,,,,,,,,,,,430.3883548716112,5.0,"('h', 'l')",430.3888163953525,430.38882786553586,430.4019391845213,430.4019391845213,430.4019391845213,430.4019391845213,430.4019391845213,430.4019391845213,430.4019391845213,430.4019391845213,431.4526216751983,"['l', 'h']","[0.9623074858973268, 1.018320590868825]","[None, None]",,,,,,,,,,,,,,,,,,,,,3007,2023-11-07_12h26.42.279,eb_03,2023.2.3,119.95405237101579,2023-11-07 12h26.54.669478 -0500,
,,,,0,0,0,0,152,0,152,0,431.468642193533,,,,,,,,,,,,,,,,,,,,,,,,,,,,,,,,,,,,,,,,,,,,,,,,,,,,,,,,,,,,,,,,,,,,,,,,,,,,,,,,,,,,,,,,,,,,,,,,,,,,,,,,,,431.4547780686553,7.0,"('j',)",431.45529935805826,431.455311130092,431.468642193533,431.468642193533,431.468642193533,431.468642193533,431.468642193533,431.468642193533,431.468642193533,431.468642193533,432.360865080831,['j'],[0.8316271443472942],[None],,,,,,,,,,,,,,,,,,,,,3007,2023-11-07_12h26.42.279,eb_03,2023.2.3,119.95405237101579,2023-11-07 12h26.54.669478 -0500,
,,,,0,0,0,0,153,0,153,0,432.37704406872217,,,,,,,,,,,,,,,,,,,,,,,,,,,,,,,,,,,,,,,,,,,,,,,,,,,,,,,,,,,,,,,,,,,,,,,,,,,,,,,,,,,,,,,,,,,,,,,,,,,,,,,,,,432.36293574979936,5.0,"('h', 'l')",432.36345432257804,432.3634660946118,432.37704406872217,432.37704406872217,432.37704406872217,432.37704406872217,432.37704406872217,432.37704406872217,432.37704406872217,432.37704406872217,433.26151854894124,"['h', 'l']","[0.7632449616503436, 0.8832435490039643]","[None, None]",,,,,,,,,,,,,,,,,,,,,3007,2023-11-07_12h26.42.279,eb_03,2023.2.3,119.95405237101579,2023-11-07 12h26.54.669478 -0500,
,,,,0,0,0,0,154,0,154,0,433.30211694208265,,,,,,,,,,,,,,,,,,,,,,,,,,,,,,,,,,,,,,,,,,,,,,,,,,,,,,,,,,,,,,,,,,,,,,,,,,,,,,,,,,,,,,,,,,,,,,,,,,,,,,,,,,433.26362785430683,7.0,"('j',)",433.26410507407854,433.26411684609775,433.30211694208265,433.30211694208265,433.30211694208265,433.30211694208265,433.30211694208265,433.30211694208265,433.30211694208265,433.30211694208265,433.9193238994194,['j'],[0.5581696493609343],[None],,,,,,,,,,,,,,,,,,,,,3007,2023-11-07_12h26.42.279,eb_03,2023.2.3,119.95405237101579,2023-11-07 12h26.54.669478 -0500,
,,,,0,0,0,0,155,0,155,0,433.93554876802955,,,,,,,,,,,,,,,,,,,,,,,,,,,,,,,,,,,,,,,,,,,,,,,,,,,,,,,,,,,,,,,,,,,,,,,,,,,,,,,,,,,,,,,,,,,,,,,,,,,,,,,,,,433.92137585388264,8.0,"('h', 'k')",433.9218569976656,433.921868467849,433.93554876802955,433.93554876802955,433.93554876802955,433.93554876802955,433.93554876802955,433.93554876802955,433.93554876802955,433.93554876802955,443.7290731884859,"['j', 'l', 'h', 'j', 'h', 'l', 'k', 'h']","[1.9167624275578419, 1.9727411220083013, 3.484789185677073, 3.6207693531323457, 9.100887761582271, 9.101847936224658, 9.164840040815761, 9.788852435856825]","[None, None, None, None, None, None, None, None]",,,,,,,,,,,,,,,,,,,,,3007,2023-11-07_12h26.42.279,eb_03,2023.2.3,119.95405237101579,2023-11-07 12h26.54.669478 -0500,
,,,,0,0,0,0,156,0,156,0,443.7695979310229,,,,,,,,,,,,,,,,,,,,,,,,,,,,,,,,,,,,,,,,,,,,,,,,,,,,,,,,,,,,,,,,,,,,,,,,,,,,,,,,,,,,,,,,,,,,,,,,,,,,,,,,,,443.7311912474106,9.0,"('j', 'k')",443.73171314051433,443.73172491253354,443.7695979310229,443.7695979310229,443.7695979310229,443.7695979310229,443.7695979310229,443.7695979310229,443.7695979310229,443.7695979310229,444.8291139679932,"['k', 'k', 'j']","[0.01881229928403627, 0.9868222747172695, 1.025812126332312]","[None, None, None]",,,,,,,,,,,,,,,,,,,,,3007,2023-11-07_12h26.42.279,eb_03,2023.2.3,119.95405237101579,2023-11-07 12h26.54.669478 -0500,
,,,,0,0,0,0,157,0,157,0,444.84472880425164,,,,,,,,,,,,,,,,,,,,,,,,,,,,,,,,,,,,,,,,,,,,,,,,,,,,,,,,,,,,,,,,,,,,,,,,,,,,,,,,,,,,,,,,,,,,,,,,,,,,,,,,,,444.8312021440797,8.0,"('h', 'k')",444.8317071337515,444.83171890578524,444.84472880425164,444.84472880425164,444.84472880425164,444.84472880425164,444.84472880425164,444.84472880425164,444.84472880425164,444.84472880425164,446.17081117400085,"['h', 'k']","[1.1746929237124277, 1.2947186772798887]","[None, None]",,,,,,,,,,,,,,,,,,,,,3007,2023-11-07_12h26.42.279,eb_03,2023.2.3,119.95405237101579,2023-11-07 12h26.54.669478 -0500,
,,,,0,0,0,0,158,0,158,0,446.211454844175,,,,,,,,,,,,,,,,,,,,,,,,,,,,,,,,,,,,,,,,,,,,,,,,,,,,,,,,,,,,,,,,,,,,,,,,,,,,,,,,,,,,,,,,,,,,,,,,,,,,,,,,,,446.17282358654484,9.0,"('j', 'k')",446.17330201371806,446.1733134838869,446.211454844175,446.211454844175,446.211454844175,446.211454844175,446.211454844175,446.211454844175,446.211454844175,446.211454844175,447.16253906274505,"['j', 'k']","[0.7839893822383601, 0.8879837509884965]","[None, None]",,,,,,,,,,,,,,,,,,,,,3007,2023-11-07_12h26.42.279,eb_03,2023.2.3,119.95405237101579,2023-11-07 12h26.54.669478 -0500,
