practice_loop.thisRepN,practice_loop.thisTrialN,practice_loop.thisN,practice_loop.thisIndex,blocks.thisRepN,blocks.thisTrialN,blocks.thisN,blocks.thisIndex,trials.thisRepN,trials.thisTrialN,trials.thisN,trials.thisIndex,thisRow.t,notes,path,resp order,Instructions_0.started,welcome_text.started,instructions_0_keypress.started,Instructions_0.stopped,instructions_0_keypress.keys,instructions_0_keypress.rt,instructions_0_keypress.duration,consent_0.started,consent_image_0.started,consent0_key_resp.started,consent0_text.started,consent_0.stopped,consent0_key_resp.keys,consent0_key_resp.rt,consent0_key_resp.duration,consent_1.started,consent_image_1.started,consent1_key_resp.started,consent1_text.started,consent_1.stopped,consent1_key_resp.keys,consent1_key_resp.rt,consent1_key_resp.duration,consent_2.started,consent2_text.started,consent_image_2.started,consent2_key_resp.started,consent_2.stopped,consent2_key_resp.keys,consent2_key_resp.rt,consent2_key_resp.duration,consent_3.started,agree_button.started,disagree_button.started,consent_image_3.started,consent_3.stopped,agree_button.numClicks,agree_button.timesOn,agree_button.timesOff,disagree_button.numClicks,disagree_button.timesOn,disagree_button.timesOff,demographics.started,age_slider.started,Gender.started,Handedness.started,age_text.started,handedness_text.started,gender_text.started,demographics.stopped,age_slider.response,age_slider.rt,Gender.text,Handedness.response,Handedness.rt,instructions_1.started,instructions_text1.started,instructions1_key_resp.started,instr1_cnt_text.started,instructions_1.stopped,instructions1_key_resp.keys,instructions1_key_resp.rt,instructions1_key_resp.duration,instructions_2.started,instructions_text2.started,key_stim_association.started,instr2_cnt_text.started,instructions2_key_resp.started,instructions_2.stopped,instructions2_key_resp.keys,instructions2_key_resp.rt,instructions2_key_resp.duration,instructions_3.started,instructions_text3.started,examplestim_image_2.started,instructions3_key_resp.started,instr3_cnt_text.started,instructions_3.stopped,instructions3_key_resp.keys,instructions3_key_resp.rt,instructions3_key_resp.duration,instructions_4.started,instructions_text4.started,handplacement_image.started,instructions4_key_resp.started,instr4_cnt_text.started,instructions_4.stopped,instructions4_key_resp.keys,instructions4_key_resp.rt,instructions4_key_resp.duration,instructions_5.started,instructions_text5.started,image.started,instructions5_key_resp.started,instr5_cnt_text.started,instructions_5.stopped,instructions5_key_resp.keys,instructions5_key_resp.rt,instructions5_key_resp.duration,begin_exp_timer.started,text_countdown.started,begin_exp_timer.stopped,stim_resp_selector.started,node idx,stim,stim_resp_selector.stopped,stim_display.started,space.started,h.started,j.started,k.started,l.started,key_resp.started,text.started,accuracy_text.started,stim_display.stopped,key_resp.keys,key_resp.rt,key_resp.duration,break_2.started,break_text.started,break_key_resp.started,break_2.stopped,break_key_resp.keys,break_key_resp.rt,break_key_resp.duration,debriefing.started,graph.started,debrief_text.started,debriefing_title.started,demo_scr_adv.started,demo_scr_adv_keypress.started,debriefing.stopped,demo_scr_adv_keypress.keys,demo_scr_adv_keypress.rt,demo_scr_adv_keypress.duration,done.started,text_countdown_2.started,done.stopped,participant,date,expName,psychopyVersion,frameRate,expStart,
,,,,,,,,,,,,,,[10. 14. 13. ...  6.  6. 10.],"[('l',), ('h', 'k'), ('j',), ('h',), ('k',), ('space',), ('l', 'space'), ('j', 'l'), ('j', 'space'), ('k', 'l'), ('h', 'space'), ('h', 'l'), ('j', 'k'), ('h', 'j'), ('k', 'space')]",0.016839124873513356,0.03321701963432133,0.03321701963432133,21.44926166960795,return,21.40352442587755,None,,,,,,,,,,,,,,,,,,,,,,,,,,,,,,,,,,,,,,,,,,,,,,,,,,,,,,,,,,,,,,,,,,,,,,,,,,,,,,,,,,,,,,,,,,,,,,,,,,,,,,,,,,,,,,,,,,,,,,,,,,,,,,,,,,,,,3008,2023-11-07_12h31.31.169,eb_03,2023.2.3,60.00518022849961,2023-11-07 12h31.41.608841 -0500,
,,,,,,,,,,,,,,,,,,,,,,,21.449287327035563,21.465402006710065,21.465402006710065,21.465402006710065,23.982491668881266,space,2.507473859601305,None,,,,,,,,,,,,,,,,,,,,,,,,,,,,,,,,,,,,,,,,,,,,,,,,,,,,,,,,,,,,,,,,,,,,,,,,,,,,,,,,,,,,,,,,,,,,,,,,,,,,,,,,,,,,,,,,,,,,,,,,,,,,,3008,2023-11-07_12h31.31.169,eb_03,2023.2.3,60.00518022849961,2023-11-07 12h31.41.608841 -0500,
,,,,,,,,,,,,,,,,,,,,,,,,,,,,,,,23.982516722608125,23.998621743012336,23.998621743012336,23.998621743012336,25.165768757091428,space,1.1663009224575944,None,,,,,,,,,,,,,,,,,,,,,,,,,,,,,,,,,,,,,,,,,,,,,,,,,,,,,,,,,,,,,,,,,,,,,,,,,,,,,,,,,,,,,,,,,,,,,,,,,,,,,,,,,,,,,,,,,,,,,3008,2023-11-07_12h31.31.169,eb_03,2023.2.3,60.00518022849961,2023-11-07 12h31.41.608841 -0500,
,,,,,,,,,,,,,,,,,,,,,,,,,,,,,,,,,,,,,,,25.16579320711753,25.181892794185842,25.181892794185842,25.181892794185842,25.882447900316038,space,0.695039965226897,None,,,,,,,,,,,,,,,,,,,,,,,,,,,,,,,,,,,,,,,,,,,,,,,,,,,,,,,,,,,,,,,,,,,,,,,,,,,,,,,,,,,,,,,,,,,,,,,,,,,,,,,,,,,,,3008,2023-11-07_12h31.31.169,eb_03,2023.2.3,60.00518022849961,2023-11-07 12h31.41.608841 -0500,
,,,,,,,,,,,,,,,,,,,,,,,,,,,,,,,,,,,,,,,,,,,,,,,25.882473557750927,25.898532696628536,25.898532696628536,25.898532696628536,30.5156190384223,1,[4.6303687426043325],[4.630374779648264],0,,,30.515705368139606,30.581307804692187,30.581307804692187,30.581307804692187,30.581307804692187,30.581307804692187,30.581307804692187,39.95509647195286,18-20,2.1294571490725502,female,Right Handed,9.39882519137609,39.955125147906074,39.964463850184984,41.96437118157337,41.96437118157337,43.048129120281374,space,1.0720623747329228,None,,,,,,,,,,,,,,,,,,,,,,,,,,,,,,,,,,,,,,,,,,,,,,,,,,,,,,,,,,,,,,,,,,,,,,,,,,,,,3008,2023-11-07_12h31.31.169,eb_03,2023.2.3,60.00518022849961,2023-11-07 12h31.41.608841 -0500,
,,,,,,,,,,,,,,,,,,,,,,,,,,,,,,,,,,,,,,,,,,,,,,,,,,,,,,,,,,,,,,,,,,,,,,,,,,,,,,,43.04815598512505,43.064296925935196,43.064296925935196,46.04750911593874,46.04750911593874,55.13090815242322,space,9.07627502354444,None,,,,,,,,,,,,,,,,,,,,,,,,,,,,,,,,,,,,,,,,,,,,,,,,,,,,,,,,,,,,,,,,,,,,3008,2023-11-07_12h31.31.169,eb_03,2023.2.3,60.00518022849961,2023-11-07 12h31.41.608841 -0500,
,,,,,,,,,,,,,,,,,,,,,,,,,,,,,,,,,,,,,,,,,,,,,,,,,,,,,,,,,,,,,,,,,,,,,,,,,,,,,,,,,,,,,,,,55.13093652652606,55.14700955060107,55.14700955060107,58.13019578131207,58.13019578131207,59.597375093573646,h,1.4657563811488217,None,,,,,,,,,,,,,,,,,,,,,,,,,,,,,,,,,,,,,,,,,,,,,,,,,,,,,,,,,,,3008,2023-11-07_12h31.31.169,eb_03,2023.2.3,60.00518022849961,2023-11-07 12h31.41.608841 -0500,
,,,,,,,,,,,,,,,,,,,,,,,,,,,,,,,,,,,,,,,,,,,,,,,,,,,,,,,,,,,,,,,,,,,,,,,,,,,,,,,,,,,,,,,,,,,,,,,,,59.59740376952686,59.613455060251,59.613455060251,62.59664732800593,62.59664732800593,65.71364884934155,space,3.1024296080722706,None,,,,,,,,,,,,,,,,,,,,,,,,,,,,,,,,,,,,,,,,,,,,,,,,,,3008,2023-11-07_12h31.31.169,eb_03,2023.2.3,60.00518022849961,2023-11-07 12h31.41.608841 -0500,
,,,,,,,,,,,,,,,,,,,,,,,,,,,,,,,,,,,,,,,,,,,,,,,,,,,,,,,,,,,,,,,,,,,,,,,,,,,,,,,,,,,,,,,,,,,,,,,,,,,,,,,,,,65.7136805438131,65.72982329574006,65.72982329574006,68.71299624496169,68.71299624496169,69.29680248001387,space,0.5781881625662209,None,,,,,,,,,,,,,,,,,,,,,,,,,,,,,,,,,,,,,,,,,3008,2023-11-07_12h31.31.169,eb_03,2023.2.3,60.00518022849961,2023-11-07 12h31.41.608841 -0500,
,,,,0,0,0,0,0,0,0,0,74.34607079037232,,,,,,,,,,,,,,,,,,,,,,,,,,,,,,,,,,,,,,,,,,,,,,,,,,,,,,,,,,,,,,,,,,,,,,,,,,,,,,,,,,,,,,,,,,,,,,,,,,,,,,,69.29683266523352,69.32964701407764,74.31276774287107,74.31706279732316,10.0,"('h', 'space')",74.31749655888416,74.31751134963997,74.34607079037232,74.34607079037232,74.34607079037232,74.34607079037232,74.34607079037232,74.34607079037232,74.34607079037232,74.34607079037232,77.5466485354118,"['h', 'j', 'space', 'h']","[1.4012913235565065, 1.4023043394263368, 2.921359662890609, 3.1693369515342056]","[None, None, None, None]",,,,,,,,,,,,,,,,,,,,,3008,2023-11-07_12h31.31.169,eb_03,2023.2.3,60.00518022849961,2023-11-07 12h31.41.608841 -0500,
,,,,0,0,0,0,1,0,1,0,77.56224553862558,,,,,,,,,,,,,,,,,,,,,,,,,,,,,,,,,,,,,,,,,,,,,,,,,,,,,,,,,,,,,,,,,,,,,,,,,,,,,,,,,,,,,,,,,,,,,,,,,,,,,,,,,,77.54931570114422,14.0,"('k', 'space')",77.54976063123468,77.5497733090233,77.56224553862558,77.56224553862558,77.56224553862558,77.56224553862558,77.56224553862558,77.56224553862558,77.56224553862558,77.56224553862558,79.84651360749558,"['h', 'k', 'space']","[1.2332058511019568, 1.3682367003930267, 2.2482697833911516]","[None, None, None]",,,,,,,,,,,,,,,,,,,,,3008,2023-11-07_12h31.31.169,eb_03,2023.2.3,60.00518022849961,2023-11-07 12h31.41.608841 -0500,
,,,,0,0,0,0,2,0,2,0,79.8621314385091,,,,,,,,,,,,,,,,,,,,,,,,,,,,,,,,,,,,,,,,,,,,,,,,,,,,,,,,,,,,,,,,,,,,,,,,,,,,,,,,,,,,,,,,,,,,,,,,,,,,,,,,,,79.84872407090006,13.0,"('h', 'j')",79.8490947453538,79.84910772500007,79.8621314385091,79.8621314385091,79.8621314385091,79.8621314385091,79.8621314385091,79.8621314385091,79.8621314385091,79.8621314385091,83.44634879621299,"['k', 'h', 'j']","[0.07636316437128698, 3.516468752262881, 3.5174280384380836]","[None, None, None]",,,,,,,,,,,,,,,,,,,,,3008,2023-11-07_12h31.31.169,eb_03,2023.2.3,60.00518022849961,2023-11-07 12h31.41.608841 -0500,
,,,,0,0,0,0,3,0,3,0,83.46195274202182,,,,,,,,,,,,,,,,,,,,,,,,,,,,,,,,,,,,,,,,,,,,,,,,,,,,,,,,,,,,,,,,,,,,,,,,,,,,,,,,,,,,,,,,,,,,,,,,,,,,,,,,,,83.44862778006063,8.0,"('j', 'space')",83.44908418053092,83.44909685831954,83.46195274202182,83.46195274202182,83.46195274202182,83.46195274202182,83.46195274202182,83.46195274202182,83.46195274202182,83.46195274202182,91.36259055564733,"['k', 'space', 'j', 'h', 'j', 'space']","[1.8046871604165062, 1.8056790466289385, 6.7008406582754105, 6.748833341378486, 7.348876808093337, 7.820864625340619]","[None, None, None, None, None, None]",,,,,,,,,,,,,,,,,,,,,3008,2023-11-07_12h31.31.169,eb_03,2023.2.3,60.00518022849961,2023-11-07 12h31.41.608841 -0500,
,,,,0,0,0,0,4,0,4,0,91.37822891261021,,,,,,,,,,,,,,,,,,,,,,,,,,,,,,,,,,,,,,,,,,,,,,,,,,,,,,,,,,,,,,,,,,,,,,,,,,,,,,,,,,,,,,,,,,,,,,,,,,,,,,,,,,91.36485595614795,5.0,"('space',)",91.36523508246319,91.36524776025908,91.37822891261021,91.37822891261021,91.37822891261021,91.37822891261021,91.37822891261021,91.37822891261021,91.37822891261021,91.37822891261021,92.21206231436372,['space'],[0.7526167564210482],[None],,,,,,,,,,,,,,,,,,,,,3008,2023-11-07_12h31.31.169,eb_03,2023.2.3,60.00518022849961,2023-11-07 12h31.41.608841 -0500,
,,,,0,0,0,0,5,0,5,0,92.22818816256768,,,,,,,,,,,,,,,,,,,,,,,,,,,,,,,,,,,,,,,,,,,,,,,,,,,,,,,,,,,,,,,,,,,,,,,,,,,,,,,,,,,,,,,,,,,,,,,,,,,,,,,,,,92.21427579628653,4.0,"('k',)",92.21469959672686,92.21471257636586,92.22818816256768,92.22818816256768,92.22818816256768,92.22818816256768,92.22818816256768,92.22818816256768,92.22818816256768,92.22818816256768,95.36188180676254,['k'],[3.0617483881069347],[None],,,,,,,,,,,,,,,,,,,,,3008,2023-11-07_12h31.31.169,eb_03,2023.2.3,60.00518022849961,2023-11-07 12h31.41.608841 -0500,
,,,,0,0,0,0,6,0,6,0,95.37805806428514,,,,,,,,,,,,,,,,,,,,,,,,,,,,,,,,,,,,,,,,,,,,,,,,,,,,,,,,,,,,,,,,,,,,,,,,,,,,,,,,,,,,,,,,,,,,,,,,,,,,,,,,,,95.36411732390116,12.0,"('j', 'k')",95.36454202989262,95.36455470768851,95.37805806428514,95.37805806428514,95.37805806428514,95.37805806428514,95.37805806428514,95.37805806428514,95.37805806428514,95.37805806428514,96.61233971649926,"['k', 'j']","[1.0159272294768016, 1.223904276637768]","[None, None]",,,,,,,,,,,,,,,,,,,,,3008,2023-11-07_12h31.31.169,eb_03,2023.2.3,60.00518022849961,2023-11-07 12h31.41.608841 -0500,
,,,,0,0,0,0,7,0,7,0,96.62797988457169,,,,,,,,,,,,,,,,,,,,,,,,,,,,,,,,,,,,,,,,,,,,,,,,,,,,,,,,,,,,,,,,,,,,,,,,,,,,,,,,,,,,,,,,,,,,,,,,,,,,,,,,,,96.61454444471019,11.0,"('h', 'l')",96.61499148776784,96.61500446741411,96.62797988457169,96.62797988457169,96.62797988457169,96.62797988457169,96.62797988457169,96.62797988457169,96.62797988457169,96.62797988457169,99.5283502571765,"['h', 'l']","[2.8300979812120204, 2.8310711525919032]","[None, None]",,,,,,,,,,,,,,,,,,,,,3008,2023-11-07_12h31.31.169,eb_03,2023.2.3,60.00518022849961,2023-11-07 12h31.41.608841 -0500,
,,,,0,0,0,0,8,0,8,0,99.54449723503058,,,,,,,,,,,,,,,,,,,,,,,,,,,,,,,,,,,,,,,,,,,,,,,,,,,,,,,,,,,,,,,,,,,,,,,,,,,,,,,,,,,,,,,,,,,,,,,,,,,,,,,,,,99.53064463548071,6.0,"('l', 'space')",99.5311070730022,99.53111975079082,99.54449723503058,99.54449723503058,99.54449723503058,99.54449723503058,99.54449723503058,99.54449723503058,99.54449723503058,99.54449723503058,101.24493854289904,"['space', 'l']","[1.6256103450796218, 1.6656253773180651]","[None, None]",,,,,,,,,,,,,,,,,,,,,3008,2023-11-07_12h31.31.169,eb_03,2023.2.3,60.00518022849961,2023-11-07 12h31.41.608841 -0500,
,,,,0,0,0,0,9,0,9,0,101.26109035038826,,,,,,,,,,,,,,,,,,,,,,,,,,,,,,,,,,,,,,,,,,,,,,,,,,,,,,,,,,,,,,,,,,,,,,,,,,,,,,,,,,,,,,,,,,,,,,,,,,,,,,,,,,101.24718794523505,0.0,"('l',)",101.24762231049681,101.24763498828543,101.26109035038826,101.26109035038826,101.26109035038826,101.26109035038826,101.26109035038826,101.26109035038826,101.26109035038826,101.26109035038826,102.72869316123979,"['space', 'l']","[0.5010552751700743, 1.3890563497625408]","[None, None]",,,,,,,,,,,,,,,,,,,,,3008,2023-11-07_12h31.31.169,eb_03,2023.2.3,60.00518022849961,2023-11-07 12h31.41.608841 -0500,
,,,,0,0,0,0,10,0,10,0,102.74434812006803,,,,,,,,,,,,,,,,,,,,,,,,,,,,,,,,,,,,,,,,,,,,,,,,,,,,,,,,,,,,,,,,,,,,,,,,,,,,,,,,,,,,,,,,,,,,,,,,,,,,,,,,,,102.73094226171816,11.0,"('h', 'l')",102.73137058993598,102.73138326773187,102.74434812006803,102.74434812006803,102.74434812006803,102.74434812006803,102.74434812006803,102.74434812006803,102.74434812006803,102.74434812006803,114.19485583540518,"['l', 'j', 'j', 'h', 'space', 'h', 'j', 'k', 'l', 'space', 'h', 'l']","[0.6738303228557925, 2.057862947040121, 3.105903624636994, 4.025929704665032, 5.377993769769091, 6.834006664896151, 6.882023496167676, 7.146024305133324, 7.282018666533986, 8.809063111249998, 11.393163954016927, 11.394154934678227]","[None, None, None, None, None, None, None, None, None, None, None, None]",,,,,,,,,,,,,,,,,,,,,3008,2023-11-07_12h31.31.169,eb_03,2023.2.3,60.00518022849961,2023-11-07 12h31.41.608841 -0500,
,,,,0,0,0,0,11,0,11,0,114.21046974234196,,,,,,,,,,,,,,,,,,,,,,,,,,,,,,,,,,,,,,,,,,,,,,,,,,,,,,,,,,,,,,,,,,,,,,,,,,,,,,,,,,,,,,,,,,,,,,,,,,,,,,,,,,114.19711399145308,13.0,"('h', 'j')",114.19752601965592,114.19753869744454,114.21046974234196,114.21046974234196,114.21046974234196,114.21046974234196,114.21046974234196,114.21046974234196,114.21046974234196,114.21046974234196,117.07747790442227,"['h', 'j']","[2.791105322256044, 2.7920993214356713]","[None, None]",,,,,,,,,,,,,,,,,,,,,3008,2023-11-07_12h31.31.169,eb_03,2023.2.3,60.00518022849961,2023-11-07 12h31.41.608841 -0500,
,,,,0,0,0,0,12,0,12,0,117.09365023786086,,,,,,,,,,,,,,,,,,,,,,,,,,,,,,,,,,,,,,,,,,,,,,,,,,,,,,,,,,,,,,,,,,,,,,,,,,,,,,,,,,,,,,,,,,,,,,,,,,,,,,,,,,117.07972277897352,11.0,"('h', 'l')",117.08016137016966,117.08017434980866,117.09365023786086,117.09365023786086,117.09365023786086,117.09365023786086,117.09365023786086,117.09365023786086,117.09365023786086,117.09365023786086,118.19410029943538,"['l', 'h']","[1.0199533336563036, 1.036020924395416]","[None, None]",,,,,,,,,,,,,,,,,,,,,3008,2023-11-07_12h31.31.169,eb_03,2023.2.3,60.00518022849961,2023-11-07 12h31.41.608841 -0500,
,,,,0,0,0,0,13,0,13,0,118.2102572384174,,,,,,,,,,,,,,,,,,,,,,,,,,,,,,,,,,,,,,,,,,,,,,,,,,,,,,,,,,,,,,,,,,,,,,,,,,,,,,,,,,,,,,,,,,,,,,,,,,,,,,,,,,118.19636509622796,12.0,"('j', 'k')",118.19682874115824,118.19684172079724,118.2102572384174,118.2102572384174,118.2102572384174,118.2102572384174,118.2102572384174,118.2102572384174,118.2102572384174,118.2102572384174,119.36072027963382,"['j', 'k']","[1.0793789693561848, 1.0803735722438432]","[None, None]",,,,,,,,,,,,,,,,,,,,,3008,2023-11-07_12h31.31.169,eb_03,2023.2.3,60.00518022849961,2023-11-07 12h31.41.608841 -0500,
,,,,0,0,0,0,14,0,14,0,119.37687208712305,,,,,,,,,,,,,,,,,,,,,,,,,,,,,,,,,,,,,,,,,,,,,,,,,,,,,,,,,,,,,,,,,,,,,,,,,,,,,,,,,,,,,,,,,,,,,,,,,,,,,,,,,,119.36297119122901,4.0,"('k',)",119.36341310280113,119.36342578058975,119.37687208712305,119.37687208712305,119.37687208712305,119.37687208712305,119.37687208712305,119.37687208712305,119.37687208712305,119.37687208712305,120.19399072710075,['k'],[0.736792156676529],[None],,,,,,,,,,,,,,,,,,,,,3008,2023-11-07_12h31.31.169,eb_03,2023.2.3,60.00518022849961,2023-11-07 12h31.41.608841 -0500,
,,,,0,0,0,0,15,0,15,0,120.21018117167114,,,,,,,,,,,,,,,,,,,,,,,,,,,,,,,,,,,,,,,,,,,,,,,,,,,,,,,,,,,,,,,,,,,,,,,,,,,,,,,,,,,,,,,,,,,,,,,,,,,,,,,,,,120.19626276834606,11.0,"('h', 'l')",120.19665728912514,120.19667026877141,120.21018117167114,120.21018117167114,120.21018117167114,120.21018117167114,120.21018117167114,120.21018117167114,120.21018117167114,120.21018117167114,122.56111842264363,"['h', 'k', 'j', 'h', 'l']","[0.7195422110089567, 0.823505228079739, 1.2795634010326467, 2.2795389510065434, 2.2805091038680985]","[None, None, None, None, None]",,,,,,,,,,,,,,,,,,,,,3008,2023-11-07_12h31.31.169,eb_03,2023.2.3,60.00518022849961,2023-11-07 12h31.41.608841 -0500,
,,,,0,0,0,0,16,0,16,0,122.57673293328116,,,,,,,,,,,,,,,,,,,,,,,,,,,,,,,,,,,,,,,,,,,,,,,,,,,,,,,,,,,,,,,,,,,,,,,,,,,,,,,,,,,,,,,,,,,,,,,,,,,,,,,,,,122.56335273236618,12.0,"('j', 'k')",122.56378256985045,122.56379554948944,122.57673293328116,122.57673293328116,122.57673293328116,122.57673293328116,122.57673293328116,122.57673293328116,122.57673293328116,122.57673293328116,124.01051743498101,"['j', 'k']","[1.3610477892289055, 1.3770381058129715]","[None, None]",,,,,,,,,,,,,,,,,,,,,3008,2023-11-07_12h31.31.169,eb_03,2023.2.3,60.00518022849961,2023-11-07 12h31.41.608841 -0500,
,,,,0,0,0,0,17,0,17,0,124.02666562024388,,,,,,,,,,,,,,,,,,,,,,,,,,,,,,,,,,,,,,,,,,,,,,,,,,,,,,,,,,,,,,,,,,,,,,,,,,,,,,,,,,,,,,,,,,,,,,,,,,,,,,,,,,124.01280396513175,2.0,"('j',)",124.0131861099726,124.01319939146924,124.02666562024388,124.02666562024388,124.02666562024388,124.02666562024388,124.02666562024388,124.02666562024388,124.02666562024388,124.02666562024388,124.82706346140185,['j'],[0.7191344087332254],[None],,,,,,,,,,,,,,,,,,,,,3008,2023-11-07_12h31.31.169,eb_03,2023.2.3,60.00518022849961,2023-11-07 12h31.41.608841 -0500,
,,,,0,0,0,0,18,0,18,0,124.84329224118846,,,,,,,,,,,,,,,,,,,,,,,,,,,,,,,,,,,,,,,,,,,,,,,,,,,,,,,,,,,,,,,,,,,,,,,,,,,,,,,,,,,,,,,,,,,,,,,,,,,,,,,,,,124.82932010818331,11.0,"('h', 'l')",124.82985891430144,124.82987430875801,124.84329224118846,124.84329224118846,124.84329224118846,124.84329224118846,124.84329224118846,124.84329224118846,124.84329224118846,124.84329224118846,128.7769083093881,"['h', 'l']","[3.8616228176033474, 3.862619231600547]","[None, None]",,,,,,,,,,,,,,,,,,,,,3008,2023-11-07_12h31.31.169,eb_03,2023.2.3,60.00518022849961,2023-11-07 12h31.41.608841 -0500,
,,,,0,0,0,0,19,0,19,0,128.79306192798686,,,,,,,,,,,,,,,,,,,,,,,,,,,,,,,,,,,,,,,,,,,,,,,,,,,,,,,,,,,,,,,,,,,,,,,,,,,,,,,,,,,,,,,,,,,,,,,,,,,,,,,,,,128.77919363213005,14.0,"('k', 'space')",128.7797749993988,128.7797909975634,128.79306192798686,128.79306192798686,128.79306192798686,128.79306192798686,128.79306192798686,128.79306192798686,128.79306192798686,128.79306192798686,130.4602306754241,"['space', 'k']","[1.5918901378827286, 1.631896718259668]","[None, None]",,,,,,,,,,,,,,,,,,,,,3008,2023-11-07_12h31.31.169,eb_03,2023.2.3,60.00518022849961,2023-11-07 12h31.41.608841 -0500,
,,,,0,0,0,0,20,0,20,0,130.476329356934,,,,,,,,,,,,,,,,,,,,,,,,,,,,,,,,,,,,,,,,,,,,,,,,,,,,,,,,,,,,,,,,,,,,,,,,,,,,,,,,,,,,,,,,,,,,,,,,,,,,,,,,,,130.4625039240782,7.0,"('j', 'l')",130.46305299316737,130.46306929318234,130.476329356934,130.476329356934,130.476329356934,130.476329356934,130.476329356934,130.476329356934,130.476329356934,130.476329356934,137.41040333486308,"['k', 'j', 'k', 'l', 'j', 'l']","[1.8847410712114652, 5.7728281736781355, 6.044827763158537, 6.092803844388982, 6.852846164067159, 6.85384801140026]","[None, None, None, None, None, None]",,,,,,,,,,,,,,,,,,,,,3008,2023-11-07_12h31.31.169,eb_03,2023.2.3,60.00518022849961,2023-11-07 12h31.41.608841 -0500,
,,,,0,0,0,0,21,0,21,0,137.42600154548563,,,,,,,,,,,,,,,,,,,,,,,,,,,,,,,,,,,,,,,,,,,,,,,,,,,,,,,,,,,,,,,,,,,,,,,,,,,,,,,,,,,,,,,,,,,,,,,,,,,,,,,,,,137.41264398347994,7.0,"('j', 'l')",137.413201806281,137.41321750259522,137.42600154548563,137.42600154548563,137.42600154548563,137.42600154548563,137.42600154548563,137.42600154548563,137.42600154548563,137.42600154548563,138.20982558981632,"['l', 'j']","[0.7032062736907392, 0.74318085773848]","[None, None]",,,,,,,,,,,,,,,,,,,,,3008,2023-11-07_12h31.31.169,eb_03,2023.2.3,60.00518022849961,2023-11-07 12h31.41.608841 -0500,
,,,,0,0,0,0,22,0,22,0,138.22595656951307,,,,,,,,,,,,,,,,,,,,,,,,,,,,,,,,,,,,,,,,,,,,,,,,,,,,,,,,,,,,,,,,,,,,,,,,,,,,,,,,,,,,,,,,,,,,,,,,,,,,,,,,,,138.21206955880916,0.0,"('l',)",138.2126370408805,138.21265273719473,138.22595656951307,138.22595656951307,138.22595656951307,138.22595656951307,138.22595656951307,138.22595656951307,138.22595656951307,138.22595656951307,138.9764507015061,['l'],[0.6712606553846854],[None],,,,,,,,,,,,,,,,,,,,,3008,2023-11-07_12h31.31.169,eb_03,2023.2.3,60.00518022849961,2023-11-07 12h31.41.608841 -0500,
,,,,0,0,0,0,23,0,23,0,138.99258832194027,,,,,,,,,,,,,,,,,,,,,,,,,,,,,,,,,,,,,,,,,,,,,,,,,,,,,,,,,,,,,,,,,,,,,,,,,,,,,,,,,,,,,,,,,,,,,,,,,,,,,,,,,,138.97869617975812,3.0,"('h',)",138.97924917292403,138.97926456738787,138.99258832194027,138.99258832194027,138.99258832194027,138.99258832194027,138.99258832194027,138.99258832194027,138.99258832194027,138.99258832194027,141.42689050010813,"['j', 'h']","[0.9686918934603455, 2.4247108256313368]","[None, None]",,,,,,,,,,,,,,,,,,,,,3008,2023-11-07_12h31.31.169,eb_03,2023.2.3,60.00518022849961,2023-11-07 12h31.41.608841 -0500,
,,,,0,0,0,0,24,0,24,0,141.44247090144927,,,,,,,,,,,,,,,,,,,,,,,,,,,,,,,,,,,,,,,,,,,,,,,,,,,,,,,,,,,,,,,,,,,,,,,,,,,,,,,,,,,,,,,,,,,,,,,,,,,,,,,,,,141.42910488758935,8.0,"('j', 'space')",141.4295966047648,141.42960958441108,141.44247090144927,141.44247090144927,141.44247090144927,141.44247090144927,141.44247090144927,141.44247090144927,141.44247090144927,141.44247090144927,145.47674440366245,"['k', 'space', 'j']","[2.2698802854283713, 2.3338717369770166, 4.029933169927972]","[None, None, None]",,,,,,,,,,,,,,,,,,,,,3008,2023-11-07_12h31.31.169,eb_03,2023.2.3,60.00518022849961,2023-11-07 12h31.41.608841 -0500,
,,,,0,0,0,0,25,0,25,0,145.50901149452693,,,,,,,,,,,,,,,,,,,,,,,,,,,,,,,,,,,,,,,,,,,,,,,,,,,,,,,,,,,,,,,,,,,,,,,,,,,,,,,,,,,,,,,,,,,,,,,,,,,,,,,,,,145.47900286156073,12.0,"('j', 'k')",145.47949729540414,145.4795105769008,145.50901149452693,145.50901149452693,145.50901149452693,145.50901149452693,145.50901149452693,145.50901149452693,145.50901149452693,145.50901149452693,147.35999945666845,"['space', 'j', 'k']","[0.0034094201982952654, 1.8354670256667305, 1.8364441211233498]","[None, None, None]",,,,,,,,,,,,,,,,,,,,,3008,2023-11-07_12h31.31.169,eb_03,2023.2.3,60.00518022849961,2023-11-07 12h31.41.608841 -0500,
,,,,0,0,0,0,26,0,26,0,147.37552703388064,,,,,,,,,,,,,,,,,,,,,,,,,,,,,,,,,,,,,,,,,,,,,,,,,,,,,,,,,,,,,,,,,,,,,,,,,,,,,,,,,,,,,,,,,,,,,,,,,,,,,,,,,,147.36227089420572,1.0,"('h', 'k')",147.362924404144,147.36294010045822,147.37552703388064,147.37552703388064,147.37552703388064,147.37552703388064,147.37552703388064,147.37552703388064,147.37552703388064,147.37552703388064,150.29255028857006,"['k', 'h']","[2.841020501793537, 2.8570307406189386]","[None, None]",,,,,,,,,,,,,,,,,,,,,3008,2023-11-07_12h31.31.169,eb_03,2023.2.3,60.00518022849961,2023-11-07 12h31.41.608841 -0500,
,,,,0,0,0,0,27,0,27,0,150.308709340512,,,,,,,,,,,,,,,,,,,,,,,,,,,,,,,,,,,,,,,,,,,,,,,,,,,,,,,,,,,,,,,,,,,,,,,,,,,,,,,,,,,,,,,,,,,,,,,,,,,,,,,,,,150.29485945763008,2.0,"('j',)",150.29530438772053,150.2953185747756,150.308709340512,150.308709340512,150.308709340512,150.308709340512,150.308709340512,150.308709340512,150.308709340512,150.308709340512,150.99251285890205,['j'],[0.6038555576960789],[None],,,,,,,,,,,,,,,,,,,,,3008,2023-11-07_12h31.31.169,eb_03,2023.2.3,60.00518022849961,2023-11-07 12h31.41.608841 -0500,
,,,,0,0,0,0,28,0,28,0,151.00870541643235,,,,,,,,,,,,,,,,,,,,,,,,,,,,,,,,,,,,,,,,,,,,,,,,,,,,,,,,,,,,,,,,,,,,,,,,,,,,,,,,,,,,,,,,,,,,,,,,,,,,,,,,,,150.9947501871502,8.0,"('j', 'space')",150.99530106734892,150.99531706551352,151.00870541643235,151.00870541643235,151.00870541643235,151.00870541643235,151.00870541643235,151.00870541643235,151.00870541643235,151.00870541643235,153.15908937239146,"['space', 'j']","[2.079922001401428, 2.103931624449615]","[None, None]",,,,,,,,,,,,,,,,,,,,,3008,2023-11-07_12h31.31.169,eb_03,2023.2.3,60.00518022849961,2023-11-07 12h31.41.608841 -0500,
,,,,0,0,0,0,29,0,29,0,153.17524389654864,,,,,,,,,,,,,,,,,,,,,,,,,,,,,,,,,,,,,,,,,,,,,,,,,,,,,,,,,,,,,,,,,,,,,,,,,,,,,,,,,,,,,,,,,,,,,,,,,,,,,,,,,,153.16139371181634,8.0,"('j', 'space')",153.16203001618123,153.16204571248818,153.17524389654864,153.17524389654864,153.17524389654864,153.17524389654864,153.17524389654864,153.17524389654864,153.17524389654864,153.17524389654864,155.4923972495235,"['j', 'space']","[2.249474475385796, 2.2894526816598955]","[None, None]",,,,,,,,,,,,,,,,,,,,,3008,2023-11-07_12h31.31.169,eb_03,2023.2.3,60.00518022849961,2023-11-07 12h31.41.608841 -0500,
,,,,0,0,0,0,30,0,30,0,155.5084735939745,,,,,,,,,,,,,,,,,,,,,,,,,,,,,,,,,,,,,,,,,,,,,,,,,,,,,,,,,,,,,,,,,,,,,,,,,,,,,,,,,,,,,,,,,,,,,,,,,,,,,,,,,,155.49463337036286,0.0,"('l',)",155.49514380237088,155.49515980053548,155.5084735939745,155.5084735939745,155.5084735939745,155.5084735939745,155.5084735939745,155.5084735939745,155.5084735939745,155.5084735939745,156.79224028639874,['l'],[1.2033230904780794],[None],,,,,,,,,,,,,,,,,,,,,3008,2023-11-07_12h31.31.169,eb_03,2023.2.3,60.00518022849961,2023-11-07 12h31.41.608841 -0500,
,,,,0,0,0,0,31,0,31,0,156.80840145130787,,,,,,,,,,,,,,,,,,,,,,,,,,,,,,,,,,,,,,,,,,,,,,,,,,,,,,,,,,,,,,,,,,,,,,,,,,,,,,,,,,,,,,,,,,,,,,,,,,,,,,,,,,156.79449180169468,7.0,"('j', 'l')",156.79503905966703,156.79505505783163,156.80840145130787,156.80840145130787,156.80840145130787,156.80840145130787,156.80840145130787,156.80840145130787,156.80840145130787,156.80840145130787,159.7759822269436,"['j', 'k', 'l', 'j']","[2.6634330250381026, 2.823431878001429, 2.855431829702866, 2.9194066793788807]","[None, None, None, None]",,,,,,,,,,,,,,,,,,,,,3008,2023-11-07_12h31.31.169,eb_03,2023.2.3,60.00518022849961,2023-11-07 12h31.41.608841 -0500,
,,,,0,0,0,0,32,0,32,0,159.79158828571963,,,,,,,,,,,,,,,,,,,,,,,,,,,,,,,,,,,,,,,,,,,,,,,,,,,,,,,,,,,,,,,,,,,,,,,,,,,,,,,,,,,,,,,,,,,,,,,,,,,,,,,,,,159.77823193113,1.0,"('h', 'k')",159.7788308058225,159.77884620028635,159.79158828571963,159.79158828571963,159.79158828571963,159.79158828571963,159.79158828571963,159.79158828571963,159.79158828571963,159.79158828571963,161.608696662719,"['h', 'k']","[1.7442829199935659, 1.74529321918817]","[None, None]",,,,,,,,,,,,,,,,,,,,,3008,2023-11-07_12h31.31.169,eb_03,2023.2.3,60.00518022849961,2023-11-07 12h31.41.608841 -0500,
,,,,0,0,0,0,33,0,33,0,161.62488529617985,,,,,,,,,,,,,,,,,,,,,,,,,,,,,,,,,,,,,,,,,,,,,,,,,,,,,,,,,,,,,,,,,,,,,,,,,,,,,,,,,,,,,,,,,,,,,,,,,,,,,,,,,,161.61095572432532,5.0,"('space',)",161.6114887952499,161.61150418970647,161.62488529617985,161.62488529617985,161.62488529617985,161.62488529617985,161.62488529617985,161.62488529617985,161.62488529617985,161.62488529617985,162.6753435077626,['space'],[0.983033795368101],[None],,,,,,,,,,,,,,,,,,,,,3008,2023-11-07_12h31.31.169,eb_03,2023.2.3,60.00518022849961,2023-11-07 12h31.41.608841 -0500,
,,,,0,0,0,0,34,0,34,0,162.6914527541012,,,,,,,,,,,,,,,,,,,,,,,,,,,,,,,,,,,,,,,,,,,,,,,,,,,,,,,,,,,,,,,,,,,,,,,,,,,,,,,,,,,,,,,,,,,,,,,,,,,,,,,,,,162.67759472120815,3.0,"('h',)",162.67810847359215,162.6781226606472,162.6914527541012,162.6914527541012,162.6914527541012,162.6914527541012,162.6914527541012,162.6914527541012,162.6914527541012,162.6914527541012,163.55855509405956,['h'],[0.7884795102800126],[None],,,,,,,,,,,,,,,,,,,,,3008,2023-11-07_12h31.31.169,eb_03,2023.2.3,60.00518022849961,2023-11-07 12h31.41.608841 -0500,
,,,,0,0,0,0,35,0,35,0,163.57477421458316,,,,,,,,,,,,,,,,,,,,,,,,,,,,,,,,,,,,,,,,,,,,,,,,,,,,,,,,,,,,,,,,,,,,,,,,,,,,,,,,,,,,,,,,,,,,,,,,,,,,,,,,,,163.56077642413584,0.0,"('l',)",163.5613650358573,163.56138133587956,163.57477421458316,163.57477421458316,163.57477421458316,163.57477421458316,163.57477421458316,163.57477421458316,163.57477421458316,163.57477421458316,164.2918518026636,['l'],[0.649191941753088],[None],,,,,,,,,,,,,,,,,,,,,3008,2023-11-07_12h31.31.169,eb_03,2023.2.3,60.00518022849961,2023-11-07 12h31.41.608841 -0500,
,,,,0,0,0,0,36,0,36,0,164.3080676028112,,,,,,,,,,,,,,,,,,,,,,,,,,,,,,,,,,,,,,,,,,,,,,,,,,,,,,,,,,,,,,,,,,,,,,,,,,,,,,,,,,,,,,,,,,,,,,,,,,,,,,,,,,164.29409546980605,6.0,"('l', 'space')",164.2945947332846,164.2946110332996,164.3080676028112,164.3080676028112,164.3080676028112,164.3080676028112,164.3080676028112,164.3080676028112,164.3080676028112,164.3080676028112,166.1590305112186,"['space', 'l', 'space']","[0.6919085508707212, 1.803937661490636, 1.8279557364003267]","[None, None, None]",,,,,,,,,,,,,,,,,,,,,3008,2023-11-07_12h31.31.169,eb_03,2023.2.3,60.00518022849961,2023-11-07 12h31.41.608841 -0500,
,,,,0,0,0,0,37,0,37,0,166.1746229866476,,,,,,,,,,,,,,,,,,,,,,,,,,,,,,,,,,,,,,,,,,,,,,,,,,,,,,,,,,,,,,,,,,,,,,,,,,,,,,,,,,,,,,,,,,,,,,,,,,,,,,,,,,166.16124882277654,14.0,"('k', 'space')",166.16175080292305,166.16176649923727,166.1746229866476,166.1746229866476,166.1746229866476,166.1746229866476,166.1746229866476,166.1746229866476,166.1746229866476,166.1746229866476,168.8922040641337,"['space', 'k']","[2.5694758035315317, 2.689484074282518]","[None, None]",,,,,,,,,,,,,,,,,,,,,3008,2023-11-07_12h31.31.169,eb_03,2023.2.3,60.00518022849961,2023-11-07 12h31.41.608841 -0500,
,,,,0,0,0,0,38,0,38,0,168.90784996739967,,,,,,,,,,,,,,,,,,,,,,,,,,,,,,,,,,,,,,,,,,,,,,,,,,,,,,,,,,,,,,,,,,,,,,,,,,,,,,,,,,,,,,,,,,,,,,,,,,,,,,,,,,168.89445316461934,3.0,"('h',)",168.89501974113227,168.8950463041183,168.90784996739967,168.90784996739967,168.90784996739967,168.90784996739967,168.90784996739967,168.90784996739967,168.90784996739967,168.90784996739967,170.22552401536086,"['j', 'h']","[0.8602376180278952, 1.3003444133209996]","[None, None]",,,,,,,,,,,,,,,,,,,,,3008,2023-11-07_12h31.31.169,eb_03,2023.2.3,60.00518022849961,2023-11-07 12h31.41.608841 -0500,
,,,,0,0,0,0,39,0,39,0,170.24110622781154,,,,,,,,,,,,,,,,,,,,,,,,,,,,,,,,,,,,,,,,,,,,,,,,,,,,,,,,,,,,,,,,,,,,,,,,,,,,,,,,,,,,,,,,,,,,,,,,,,,,,,,,,,170.2277595324922,10.0,"('h', 'space')",170.22831433676765,170.22833003308187,170.24110622781154,170.24110622781154,170.24110622781154,170.24110622781154,170.24110622781154,170.24110622781154,170.24110622781154,170.24110622781154,171.82490974620305,"['h', 'space']","[1.5110779744500178, 1.535072504892014]","[None, None]",,,,,,,,,,,,,,,,,,,,,3008,2023-11-07_12h31.31.169,eb_03,2023.2.3,60.00518022849961,2023-11-07 12h31.41.608841 -0500,
,,,,0,0,0,0,40,0,40,0,171.8410153703153,,,,,,,,,,,,,,,,,,,,,,,,,,,,,,,,,,,,,,,,,,,,,,,,,,,,,,,,,,,,,,,,,,,,,,,,,,,,,,,,,,,,,,,,,,,,,,,,,,,,,,,,,,171.82715975223982,2.0,"('j',)",171.82766384535353,171.82767923981737,171.8410153703153,171.8410153703153,171.8410153703153,171.8410153703153,171.8410153703153,171.8410153703153,171.8410153703153,171.8410153703153,174.79204196952196,"['k', 'j']","[2.334216754003137, 2.94227590495575]","[None, None]",,,,,,,,,,,,,,,,,,,,,3008,2023-11-07_12h31.31.169,eb_03,2023.2.3,60.00518022849961,2023-11-07 12h31.41.608841 -0500,
,,,,0,0,0,0,41,0,41,0,174.82426468812628,,,,,,,,,,,,,,,,,,,,,,,,,,,,,,,,,,,,,,,,,,,,,,,,,,,,,,,,,,,,,,,,,,,,,,,,,,,,,,,,,,,,,,,,,,,,,,,,,,,,,,,,,,174.79427446813497,11.0,"('h', 'l')",174.7948347057536,174.79485100576858,174.82426468812628,174.82426468812628,174.82426468812628,174.82426468812628,174.82426468812628,174.82426468812628,174.82426468812628,174.82426468812628,176.55801357127348,"['h', 'l']","[1.6550517978321295, 1.6560518340556882]","[None, None]",,,,,,,,,,,,,,,,,,,,,3008,2023-11-07_12h31.31.169,eb_03,2023.2.3,60.00518022849961,2023-11-07 12h31.41.608841 -0500,
,,,,0,0,0,0,42,0,42,0,176.57412855279836,,,,,,,,,,,,,,,,,,,,,,,,,,,,,,,,,,,,,,,,,,,,,,,,,,,,,,,,,,,,,,,,,,,,,,,,,,,,,,,,,,,,,,,,,,,,,,,,,,,,,,,,,,176.56024093840097,9.0,"('k', 'l')",176.5607842722966,176.56079966675316,176.57412855279836,176.57412855279836,176.57412855279836,176.57412855279836,176.57412855279836,176.57412855279836,176.57412855279836,176.57412855279836,177.80802896573005,"['k', 'l']","[1.177218311560864, 1.2252206539342296]","[None, None]",,,,,,,,,,,,,,,,,,,,,3008,2023-11-07_12h31.31.169,eb_03,2023.2.3,60.00518022849961,2023-11-07 12h31.41.608841 -0500,
,,,,0,0,0,0,43,0,43,0,177.84078958489408,,,,,,,,,,,,,,,,,,,,,,,,,,,,,,,,,,,,,,,,,,,,,,,,,,,,,,,,,,,,,,,,,,,,,,,,,,,,,,,,,,,,,,,,,,,,,,,,,,,,,,,,,,177.8102566347079,1.0,"('h', 'k')",177.81079423341725,177.81080962787382,177.84078958489408,177.84078958489408,177.84078958489408,177.84078958489408,177.84078958489408,177.84078958489408,177.84078958489408,177.84078958489408,179.65786717297306,"['h', 'k']","[1.742660766460176, 1.7436040544780553]","[None, None]",,,,,,,,,,,,,,,,,,,,,3008,2023-11-07_12h31.31.169,eb_03,2023.2.3,60.00518022849961,2023-11-07 12h31.41.608841 -0500,
,,,,0,0,0,0,44,0,44,0,179.67400630267366,,,,,,,,,,,,,,,,,,,,,,,,,,,,,,,,,,,,,,,,,,,,,,,,,,,,,,,,,,,,,,,,,,,,,,,,,,,,,,,,,,,,,,,,,,,,,,,,,,,,,,,,,,179.66011234937469,10.0,"('h', 'space')",179.6607217888959,179.66073718335974,179.67400630267366,179.67400630267366,179.67400630267366,179.67400630267366,179.67400630267366,179.67400630267366,179.67400630267366,179.67400630267366,181.20779080437205,"['h', 'space']","[1.4534525850613136, 1.4544375286714057]","[None, None]",,,,,,,,,,,,,,,,,,,,,3008,2023-11-07_12h31.31.169,eb_03,2023.2.3,60.00518022849961,2023-11-07 12h31.41.608841 -0500,
,,,,0,0,0,0,45,0,45,0,181.22393355629902,,,,,,,,,,,,,,,,,,,,,,,,,,,,,,,,,,,,,,,,,,,,,,,,,,,,,,,,,,,,,,,,,,,,,,,,,,,,,,,,,,,,,,,,,,,,,,,,,,,,,,,,,,181.2100444326352,9.0,"('k', 'l')",181.21068496293447,181.2107006592414,181.22393355629902,181.22393355629902,181.22393355629902,181.22393355629902,181.22393355629902,181.22393355629902,181.22393355629902,181.22393355629902,182.72436761971767,"['k', 'l']","[1.4315592475395533, 1.4325505300512305]","[None, None]",,,,,,,,,,,,,,,,,,,,,3008,2023-11-07_12h31.31.169,eb_03,2023.2.3,60.00518022849961,2023-11-07 12h31.41.608841 -0500,
,,,,0,0,0,0,46,0,46,0,182.74050735311903,,,,,,,,,,,,,,,,,,,,,,,,,,,,,,,,,,,,,,,,,,,,,,,,,,,,,,,,,,,,,,,,,,,,,,,,,,,,,,,,,,,,,,,,,,,,,,,,,,,,,,,,,,182.72659498683788,10.0,"('h', 'space')",182.72716669483634,182.72718239115056,182.74050735311903,182.74050735311903,182.74050735311903,182.74050735311903,182.74050735311903,182.74050735311903,182.74050735311903,182.74050735311903,184.52428581778076,"['h', 'space']","[1.7070518702748814, 1.7080277583227144]","[None, None]",,,,,,,,,,,,,,,,,,,,,3008,2023-11-07_12h31.31.169,eb_03,2023.2.3,60.00518022849961,2023-11-07 12h31.41.608841 -0500,
,,,,0,0,0,0,47,0,47,0,184.54040623264154,,,,,,,,,,,,,,,,,,,,,,,,,,,,,,,,,,,,,,,,,,,,,,,,,,,,,,,,,,,,,,,,,,,,,,,,,,,,,,,,,,,,,,,,,,,,,,,,,,,,,,,,,,184.5265297867736,8.0,"('j', 'space')",184.5271159836775,184.52713167999173,184.54040623264154,184.54040623264154,184.54040623264154,184.54040623264154,184.54040623264154,184.54040623264154,184.54040623264154,184.54040623264154,186.97414424911403,"['j', 'space']","[2.363246480403177, 2.3872225978630013]","[None, None]",,,,,,,,,,,,,,,,,,,,,3008,2023-11-07_12h31.31.169,eb_03,2023.2.3,60.00518022849961,2023-11-07 12h31.41.608841 -0500,
,,,,0,0,0,0,48,0,48,0,186.99030903624953,,,,,,,,,,,,,,,,,,,,,,,,,,,,,,,,,,,,,,,,,,,,,,,,,,,,,,,,,,,,,,,,,,,,,,,,,,,,,,,,,,,,,,,,,,,,,,,,,,,,,,,,,,186.97640059404512,14.0,"('k', 'space')",186.97698769650742,186.977003090964,186.99030903624953,186.99030903624953,186.99030903624953,186.99030903624953,186.99030903624953,186.99030903624953,186.99030903624953,186.99030903624953,188.09088919610804,"['k', 'space']","[1.0323600613410235, 1.0883732583170058]","[None, None]",,,,,,,,,,,,,,,,,,,,,3008,2023-11-07_12h31.31.169,eb_03,2023.2.3,60.00518022849961,2023-11-07 12h31.41.608841 -0500,
,,,,0,0,0,0,49,0,49,0,188.1236528337904,,,,,,,,,,,,,,,,,,,,,,,,,,,,,,,,,,,,,,,,,,,,,,,,,,,,,,,,,,,,,,,,,,,,,,,,,,,,,,,,,,,,,,,,,,,,,,,,,,,,,,,,,,188.09310811137402,5.0,"('space',)",188.09364269155776,188.0936583878647,188.1236528337904,188.1236528337904,188.1236528337904,188.1236528337904,188.1236528337904,188.1236528337904,188.1236528337904,188.1236528337904,188.92412885465455,['space'],[0.7230219627672341],[None],,,,,,,,,,,,,,,,,,,,,3008,2023-11-07_12h31.31.169,eb_03,2023.2.3,60.00518022849961,2023-11-07 12h31.41.608841 -0500,
,,,,0,0,0,0,50,0,50,0,188.9402121417006,,,,,,,,,,,,,,,,,,,,,,,,,,,,,,,,,,,,,,,,,,,,,,,,,,,,,,,,,,,,,,,,,,,,,,,,,,,,,,,,,,,,,,,,,,,,,,,,,,,,,,,,,,188.9263803699505,0.0,"('l',)",188.92696777426318,188.92698377242777,188.9402121417006,188.9402121417006,188.9402121417006,188.9402121417006,188.9402121417006,188.9402121417006,188.9402121417006,188.9402121417006,189.5573685131967,['l'],[0.5384623046993511],[None],,,,,,,,,,,,,,,,,,,,,3008,2023-11-07_12h31.31.169,eb_03,2023.2.3,60.00518022849961,2023-11-07 12h31.41.608841 -0500,
,,,,0,0,0,0,51,0,51,0,189.57353601700015,,,,,,,,,,,,,,,,,,,,,,,,,,,,,,,,,,,,,,,,,,,,,,,,,,,,,,,,,,,,,,,,,,,,,,,,,,,,,,,,,,,,,,,,,,,,,,,,,,,,,,,,,,189.55961248218955,12.0,"('j', 'k')",189.5601564197932,189.56017181424977,189.57353601700015,189.57353601700015,189.57353601700015,189.57353601700015,189.57353601700015,189.57353601700015,189.57353601700015,189.57353601700015,191.10786264519265,"['k', 'j']","[1.369192666199524, 1.4651976527966326]","[None, None]",,,,,,,,,,,,,,,,,,,,,3008,2023-11-07_12h31.31.169,eb_03,2023.2.3,60.00518022849961,2023-11-07 12h31.41.608841 -0500,
,,,,0,0,0,0,52,0,52,0,191.12343217985472,,,,,,,,,,,,,,,,,,,,,,,,,,,,,,,,,,,,,,,,,,,,,,,,,,,,,,,,,,,,,,,,,,,,,,,,,,,,,,,,,,,,,,,,,,,,,,,,,,,,,,,,,,191.11006797710434,11.0,"('h', 'l')",191.11053464055294,191.11054912945838,191.12343217985472,191.12343217985472,191.12343217985472,191.12343217985472,191.12343217985472,191.12343217985472,191.12343217985472,191.12343217985472,199.60692026273318,"['l', 'h']","[8.41155610827991, 8.427543406338373]","[None, None]",,,,,,,,,,,,,,,,,,,,,3008,2023-11-07_12h31.31.169,eb_03,2023.2.3,60.00518022849961,2023-11-07 12h31.41.608841 -0500,
,,,,0,0,0,0,53,0,53,0,199.62305637390818,,,,,,,,,,,,,,,,,,,,,,,,,,,,,,,,,,,,,,,,,,,,,,,,,,,,,,,,,,,,,,,,,,,,,,,,,,,,,,,,,,,,,,,,,,,,,,,,,,,,,,,,,,199.60919381323765,10.0,"('h', 'space')",199.6097519378891,199.60976733235293,199.62305637390818,199.62305637390818,199.62305637390818,199.62305637390818,199.62305637390818,199.62305637390818,199.62305637390818,199.62305637390818,200.69023447875952,"['h', 'space']","[0.9839755741268164, 0.9849638381128898]","[None, None]",,,,,,,,,,,,,,,,,,,,,3008,2023-11-07_12h31.31.169,eb_03,2023.2.3,60.00518022849961,2023-11-07 12h31.41.608841 -0500,
,,,,0,0,0,0,54,0,54,0,200.70632953804306,,,,,,,,,,,,,,,,,,,,,,,,,,,,,,,,,,,,,,,,,,,,,,,,,,,,,,,,,,,,,,,,,,,,,,,,,,,,,,,,,,,,,,,,,,,,,,,,,,,,,,,,,,200.69249474777462,7.0,"('j', 'l')",200.69306373910513,200.6930791335617,200.70632953804306,200.70632953804306,200.70632953804306,200.70632953804306,200.70632953804306,200.70632953804306,200.70632953804306,200.70632953804306,205.84001714520127,"['j', 'l']","[5.067855159257306, 5.099829755381506]","[None, None]",,,,,,,,,,,,,,,,,,,,,3008,2023-11-07_12h31.31.169,eb_03,2023.2.3,60.00518022849961,2023-11-07 12h31.41.608841 -0500,
,,,,0,0,0,0,55,0,55,0,205.85608654704993,,,,,,,,,,,,,,,,,,,,,,,,,,,,,,,,,,,,,,,,,,,,,,,,,,,,,,,,,,,,,,,,,,,,,,,,,,,,,,,,,,,,,,,,,,,,,,,,,,,,,,,,,,205.84233416242205,1.0,"('h', 'k')",205.84286029074428,205.8428759870585,205.85608654704993,205.85608654704993,205.85608654704993,205.85608654704993,205.85608654704993,205.85608654704993,205.85608654704993,205.85608654704993,208.00707692400465,"['h', 'k']","[2.014157772093313, 2.134160609501123]","[None, None]",,,,,,,,,,,,,,,,,,,,,3008,2023-11-07_12h31.31.169,eb_03,2023.2.3,60.00518022849961,2023-11-07 12h31.41.608841 -0500,
,,,,0,0,0,0,56,0,56,0,208.02262472531584,,,,,,,,,,,,,,,,,,,,,,,,,,,,,,,,,,,,,,,,,,,,,,,,,,,,,,,,,,,,,,,,,,,,,,,,,,,,,,,,,,,,,,,,,,,,,,,,,,,,,,,,,,208.00931063002645,11.0,"('h', 'l')",208.0098621139332,208.00987750838976,208.02262472531584,208.02262472531584,208.02262472531584,208.02262472531584,208.02262472531584,208.02262472531584,208.02262472531584,208.02262472531584,210.0064720122682,"['l', 'h']","[1.9036620704646339, 1.9516523387501366]","[None, None]",,,,,,,,,,,,,,,,,,,,,3008,2023-11-07_12h31.31.169,eb_03,2023.2.3,60.00518022849961,2023-11-07 12h31.41.608841 -0500,
,,,,0,0,0,0,57,0,57,0,210.02256465673418,,,,,,,,,,,,,,,,,,,,,,,,,,,,,,,,,,,,,,,,,,,,,,,,,,,,,,,,,,,,,,,,,,,,,,,,,,,,,,,,,,,,,,,,,,,,,,,,,,,,,,,,,,210.00874194054632,12.0,"('j', 'k')",210.00932542078226,210.00934081523883,210.02256465673418,210.02256465673418,210.02256465673418,210.02256465673418,210.02256465673418,210.02256465673418,210.02256465673418,210.02256465673418,211.27356922073523,"['j', 'k']","[1.0957607881937292, 1.1997473497394822]","[None, None]",,,,,,,,,,,,,,,,,,,,,3008,2023-11-07_12h31.31.169,eb_03,2023.2.3,60.00518022849961,2023-11-07 12h31.41.608841 -0500,
,,,,0,0,0,0,58,0,58,0,211.28918192026322,,,,,,,,,,,,,,,,,,,,,,,,,,,,,,,,,,,,,,,,,,,,,,,,,,,,,,,,,,,,,,,,,,,,,,,,,,,,,,,,,,,,,,,,,,,,,,,,,,,,,,,,,,211.27581047306012,13.0,"('h', 'j')",211.27634807176946,211.27636346622603,211.28918192026322,211.28918192026322,211.28918192026322,211.28918192026322,211.28918192026322,211.28918192026322,211.28918192026322,211.28918192026322,213.8896226244251,"['h', 'j']","[2.517225495641469, 2.518214665185951]","[None, None]",,,,,,,,,,,,,,,,,,,,,3008,2023-11-07_12h31.31.169,eb_03,2023.2.3,60.00518022849961,2023-11-07 12h31.41.608841 -0500,
,,,,0,0,0,0,59,0,59,0,213.90570198739442,,,,,,,,,,,,,,,,,,,,,,,,,,,,,,,,,,,,,,,,,,,,,,,,,,,,,,,,,,,,,,,,,,,,,,,,,,,,,,,,,,,,,,,,,,,,,,,,,,,,,,,,,,213.89185029340297,10.0,"('h', 'space')",213.89239272174018,213.8924084180544,213.90570198739442,213.90570198739442,213.90570198739442,213.90570198739442,213.90570198739442,213.90570198739442,213.90570198739442,213.90570198739442,215.07289458114974,"['space', 'h']","[1.0847398638070445, 1.1167162710407865]","[None, None]",,,,,,,,,,,,,,,,,,,,,3008,2023-11-07_12h31.31.169,eb_03,2023.2.3,60.00518022849961,2023-11-07 12h31.41.608841 -0500,
,,,,0,0,0,0,60,0,60,0,215.08898028301337,,,,,,,,,,,,,,,,,,,,,,,,,,,,,,,,,,,,,,,,,,,,,,,,,,,,,,,,,,,,,,,,,,,,,,,,,,,,,,,,,,,,,,,,,,,,,,,,,,,,,,,,,,215.07513855014258,0.0,"('l',)",215.0756746395855,215.07569003404933,215.08898028301337,215.08898028301337,215.08898028301337,215.08898028301337,215.08898028301337,215.08898028301337,215.08898028301337,215.08898028301337,215.7728148921815,['l'],[0.6134737750835484],[None],,,,,,,,,,,,,,,,,,,,,3008,2023-11-07_12h31.31.169,eb_03,2023.2.3,60.00518022849961,2023-11-07 12h31.41.608841 -0500,
,,,,0,0,0,0,61,0,61,0,215.7889507015061,,,,,,,,,,,,,,,,,,,,,,,,,,,,,,,,,,,,,,,,,,,,,,,,,,,,,,,,,,,,,,,,,,,,,,,,,,,,,,,,,,,,,,,,,,,,,,,,,,,,,,,,,,215.77506399265985,2.0,"('j',)",215.77558378208778,215.77559917654435,215.7889507015061,215.7889507015061,215.7889507015061,215.7889507015061,215.7889507015061,215.7889507015061,215.7889507015061,215.7889507015061,216.43941585568973,['j'],[0.569542512857879],[None],,,,,,,,,,,,,,,,,,,,,3008,2023-11-07_12h31.31.169,eb_03,2023.2.3,60.00518022849961,2023-11-07 12h31.41.608841 -0500,
,,,,0,0,0,0,62,0,62,0,216.4555628335438,,,,,,,,,,,,,,,,,,,,,,,,,,,,,,,,,,,,,,,,,,,,,,,,,,,,,,,,,,,,,,,,,,,,,,,,,,,,,,,,,,,,,,,,,,,,,,,,,,,,,,,,,,216.44166103209136,11.0,"('h', 'l')",216.44220889377175,216.44222459008597,216.4555628335438,216.4555628335438,216.4555628335438,216.4555628335438,216.4555628335438,216.4555628335438,216.4555628335438,216.4555628335438,217.35610616744088,"['l', 'h']","[0.8469419357206789, 0.8709470309840981]","[None, None]",,,,,,,,,,,,,,,,,,,,,3008,2023-11-07_12h31.31.169,eb_03,2023.2.3,60.00518022849961,2023-11-07 12h31.41.608841 -0500,
,,,,0,0,0,0,63,0,63,0,217.37221873415547,,,,,,,,,,,,,,,,,,,,,,,,,,,,,,,,,,,,,,,,,,,,,,,,,,,,,,,,,,,,,,,,,,,,,,,,,,,,,,,,,,,,,,,,,,,,,,,,,,,,,,,,,,217.35835013643373,14.0,"('k', 'space')",217.35896953708288,217.35898462968908,217.37221873415547,217.37221873415547,217.37221873415547,217.37221873415547,217.37221873415547,217.37221873415547,217.37221873415547,217.37221873415547,220.68922900920006,"['k', 'space']","[3.249396295672341, 3.2503951244798372]","[None, None]",,,,,,,,,,,,,,,,,,,,,3008,2023-11-07_12h31.31.169,eb_03,2023.2.3,60.00518022849961,2023-11-07 12h31.41.608841 -0500,
,,,,0,0,0,0,64,0,64,0,220.7054052667154,,,,,,,,,,,,,,,,,,,,,,,,,,,,,,,,,,,,,,,,,,,,,,,,,,,,,,,,,,,,,,,,,,,,,,,,,,,,,,,,,,,,,,,,,,,,,,,,,,,,,,,,,,220.69148112820403,0.0,"('l',)",220.69201661394618,220.69203231025313,220.7054052667154,220.7054052667154,220.7054052667154,220.7054052667154,220.7054052667154,220.7054052667154,220.7054052667154,220.7054052667154,221.40587857091305,['l'],[0.6202627321254113],[None],,,,,,,,,,,,,,,,,,,,,3008,2023-11-07_12h31.31.169,eb_03,2023.2.3,60.00518022849961,2023-11-07 12h31.41.608841 -0500,
,,,,0,0,0,0,65,0,65,0,221.42201558764646,,,,,,,,,,,,,,,,,,,,,,,,,,,,,,,,,,,,,,,,,,,,,,,,,,,,,,,,,,,,,,,,,,,,,,,,,,,,,,,,,,,,,,,,,,,,,,,,,,,,,,,,,,221.40812435101543,10.0,"('h', 'space')",221.4086480645201,221.40866376083432,221.42201558764646,221.42201558764646,221.42201558764646,221.42201558764646,221.42201558764646,221.42201558764646,221.42201558764646,221.42201558764646,222.53913784984616,"['h', 'space']","[1.0476295549451606, 1.0636817512204289]","[None, None]",,,,,,,,,,,,,,,,,,,,,3008,2023-11-07_12h31.31.169,eb_03,2023.2.3,60.00518022849961,2023-11-07 12h31.41.608841 -0500,
,,,,0,0,0,0,66,0,66,0,222.55531954070466,,,,,,,,,,,,,,,,,,,,,,,,,,,,,,,,,,,,,,,,,,,,,,,,,,,,,,,,,,,,,,,,,,,,,,,,,,,,,,,,,,,,,,,,,,,,,,,,,,,,,,,,,,222.54136280215607,2.0,"('j',)",222.54186719712015,222.54188289343438,222.55531954070466,222.55531954070466,222.55531954070466,222.55531954070466,222.55531954070466,222.55531954070466,222.55531954070466,222.55531954070466,223.28912154983118,['j'],[0.6663781966199167],[None],,,,,,,,,,,,,,,,,,,,,3008,2023-11-07_12h31.31.169,eb_03,2023.2.3,60.00518022849961,2023-11-07 12h31.41.608841 -0500,
,,,,0,0,0,0,67,0,67,0,223.30526218879095,,,,,,,,,,,,,,,,,,,,,,,,,,,,,,,,,,,,,,,,,,,,,,,,,,,,,,,,,,,,,,,,,,,,,,,,,,,,,,,,,,,,,,,,,,,,,,,,,,,,,,,,,,223.2914074762739,1.0,"('h', 'k')",223.29201872690464,223.29203472506924,223.30526218879095,223.30526218879095,223.30526218879095,223.30526218879095,223.30526218879095,223.30526218879095,223.30526218879095,223.30526218879095,224.15573187075643,"['h', 'k']","[0.7804574871406658, 0.8044601675865124]","[None, None]",,,,,,,,,,,,,,,,,,,,,3008,2023-11-07_12h31.31.169,eb_03,2023.2.3,60.00518022849961,2023-11-07 12h31.41.608841 -0500,
,,,,0,0,0,0,68,0,68,0,224.171890620848,,,,,,,,,,,,,,,,,,,,,,,,,,,,,,,,,,,,,,,,,,,,,,,,,,,,,,,,,,,,,,,,,,,,,,,,,,,,,,,,,,,,,,,,,,,,,,,,,,,,,,,,,,224.15797885827487,4.0,"('k',)",224.15847600878624,224.15849140325008,224.171890620848,224.171890620848,224.171890620848,224.171890620848,224.171890620848,224.171890620848,224.171890620848,224.171890620848,224.92239078988496,['k'],[0.6818535534039256],[None],,,,,,,,,,,,,,,,,,,,,3008,2023-11-07_12h31.31.169,eb_03,2023.2.3,60.00518022849961,2023-11-07 12h31.41.608841 -0500,
,,,,0,0,0,0,69,0,69,0,224.93852056216565,,,,,,,,,,,,,,,,,,,,,,,,,,,,,,,,,,,,,,,,,,,,,,,,,,,,,,,,,,,,,,,,,,,,,,,,,,,,,,,,,,,,,,,,,,,,,,,,,,,,,,,,,,224.92462359034835,4.0,"('k',)",224.92516903721116,224.92518503537576,224.93852056216565,224.93852056216565,224.93852056216565,224.93852056216565,224.93852056216565,224.93852056216565,224.93852056216565,224.93852056216565,227.40557098355202,['k'],[2.387290514598135],[None],,,,,,,,,,,,,,,,,,,,,3008,2023-11-07_12h31.31.169,eb_03,2023.2.3,60.00518022849961,2023-11-07 12h31.41.608841 -0500,
,,,,0,0,0,0,70,0,70,0,227.42172369659966,,,,,,,,,,,,,,,,,,,,,,,,,,,,,,,,,,,,,,,,,,,,,,,,,,,,,,,,,,,,,,,,,,,,,,,,,,,,,,,,,,,,,,,,,,,,,,,,,,,,,,,,,,227.40788105817046,1.0,"('h', 'k')",227.40843918282917,227.40845578469452,227.42172369659966,227.42172369659966,227.42172369659966,227.42172369659966,227.42172369659966,227.42172369659966,227.42172369659966,227.42172369659966,228.8893594093388,"['h', 'k']","[1.31212660887104, 1.3841186520439805]","[None, None]",,,,,,,,,,,,,,,,,,,,,3008,2023-11-07_12h31.31.169,eb_03,2023.2.3,60.00518022849961,2023-11-07 12h31.41.608841 -0500,
,,,,0,0,0,0,71,0,71,0,228.9050062181559,,,,,,,,,,,,,,,,,,,,,,,,,,,,,,,,,,,,,,,,,,,,,,,,,,,,,,,,,,,,,,,,,,,,,,,,,,,,,,,,,,,,,,,,,,,,,,,,,,,,,,,,,,228.8915943227621,12.0,"('j', 'k')",228.89211682886526,228.8921325251722,228.9050062181559,228.9050062181559,228.9050062181559,228.9050062181559,228.9050062181559,228.9050062181559,228.9050062181559,228.9050062181559,231.32213029146806,"['j', 'k']","[2.348920274809643, 2.349910349905258]","[None, None]",,,,,,,,,,,,,,,,,,,,,3008,2023-11-07_12h31.31.169,eb_03,2023.2.3,60.00518022849961,2023-11-07 12h31.41.608841 -0500,
,,,,0,0,0,0,72,0,72,0,231.33822142667486,,,,,,,,,,,,,,,,,,,,,,,,,,,,,,,,,,,,,,,,,,,,,,,,,,,,,,,,,,,,,,,,,,,,,,,,,,,,,,,,,,,,,,,,,,,,,,,,,,,,,,,,,,231.3243978049286,13.0,"('h', 'j')",231.3251053464046,231.3251201371604,231.33822142667486,231.33822142667486,231.33822142667486,231.33822142667486,231.33822142667486,231.33822142667486,231.33822142667486,231.33822142667486,232.7720059283747,"['j', 'h']","[1.363710125326179, 1.3877158242976293]","[None, None]",,,,,,,,,,,,,,,,,,,,,3008,2023-11-07_12h31.31.169,eb_03,2023.2.3,60.00518022849961,2023-11-07 12h31.41.608841 -0500,
,,,,0,0,0,0,73,0,73,0,232.7881209098996,,,,,,,,,,,,,,,,,,,,,,,,,,,,,,,,,,,,,,,,,,,,,,,,,,,,,,,,,,,,,,,,,,,,,,,,,,,,,,,,,,,,,,,,,,,,,,,,,,,,,,,,,,232.77427585665282,2.0,"('j',)",232.7748409239066,232.7748569220712,232.7881209098996,232.7881209098996,232.7881209098996,232.7881209098996,232.7881209098996,232.7881209098996,232.7881209098996,232.7881209098996,233.48860236410837,['j'],[0.6258762768338784],[None],,,,,,,,,,,,,,,,,,,,,3008,2023-11-07_12h31.31.169,eb_03,2023.2.3,60.00518022849961,2023-11-07 12h31.41.608841 -0500,
,,,,0,0,0,0,74,0,74,0,233.50478013088286,,,,,,,,,,,,,,,,,,,,,,,,,,,,,,,,,,,,,,,,,,,,,,,,,,,,,,,,,,,,,,,,,,,,,,,,,,,,,,,,,,,,,,,,,,,,,,,,,,,,,,,,,,233.49084089975804,13.0,"('h', 'j')",233.4914165318405,233.49143222815474,233.50478013088286,233.50478013088286,233.50478013088286,233.50478013088286,233.50478013088286,233.50478013088286,233.50478013088286,233.50478013088286,234.43857580111217,"['h', 'j']","[0.861239767211373, 0.862217768226401]","[None, None]",,,,,,,,,,,,,,,,,,,,,3008,2023-11-07_12h31.31.169,eb_03,2023.2.3,60.00518022849961,2023-11-07 12h31.41.608841 -0500,
,,,,0,0,0,0,75,0,75,0,234.4547614160474,,,,,,,,,,,,,,,,,,,,,,,,,,,,,,,,,,,,,,,,,,,,,,,,,,,,,,,,,,,,,,,,,,,,,,,,,,,,,,,,,,,,,,,,,,,,,,,,,,,,,,,,,,234.440806790466,9.0,"('k', 'l')",234.44141502257844,234.44143071889266,234.4547614160474,234.4547614160474,234.4547614160474,234.4547614160474,234.4547614160474,234.4547614160474,234.4547614160474,234.4547614160474,235.4885914974293,"['k', 'l']","[0.9663039409861085, 0.9672837531106779]","[None, None]",,,,,,,,,,,,,,,,,,,,,3008,2023-11-07_12h31.31.169,eb_03,2023.2.3,60.00518022849961,2023-11-07 12h31.41.608841 -0500,
,,,,0,0,0,0,76,0,76,0,235.50469199004874,,,,,,,,,,,,,,,,,,,,,,,,,,,,,,,,,,,,,,,,,,,,,,,,,,,,,,,,,,,,,,,,,,,,,,,,,,,,,,,,,,,,,,,,,,,,,,,,,,,,,,,,,,235.49082701456064,14.0,"('k', 'space')",235.49130333727953,235.49131692062656,235.50469199004874,235.50469199004874,235.50469199004874,235.50469199004874,235.50469199004874,235.50469199004874,235.50469199004874,235.50469199004874,237.28848162323993,"['k', 'space']","[1.716394496630528, 1.7404149863577913]","[None, None]",,,,,,,,,,,,,,,,,,,,,3008,2023-11-07_12h31.31.169,eb_03,2023.2.3,60.00518022849961,2023-11-07 12h31.41.608841 -0500,
,,,,0,0,0,0,77,0,77,0,237.3046074714439,,,,,,,,,,,,,,,,,,,,,,,,,,,,,,,,,,,,,,,,,,,,,,,,,,,,,,,,,,,,,,,,,,,,,,,,,,,,,,,,,,,,,,,,,,,,,,,,,,,,,,,,,,237.2907400811382,10.0,"('h', 'space')",237.29128190577467,237.2912976020889,237.3046074714439,237.3046074714439,237.3046074714439,237.3046074714439,237.3046074714439,237.3046074714439,237.3046074714439,237.3046074714439,238.70506477747404,"['h', 'space']","[1.324538166190905, 1.3485348095928202]","[None, None]",,,,,,,,,,,,,,,,,,,,,3008,2023-11-07_12h31.31.169,eb_03,2023.2.3,60.00518022849961,2023-11-07 12h31.41.608841 -0500,
,,,,0,0,0,0,78,0,78,0,238.72119756828033,,,,,,,,,,,,,,,,,,,,,,,,,,,,,,,,,,,,,,,,,,,,,,,,,,,,,,,,,,,,,,,,,,,,,,,,,,,,,,,,,,,,,,,,,,,,,,,,,,,,,,,,,,238.7073181038868,11.0,"('h', 'l')",238.70787683223898,238.7078925285532,238.72119756828033,238.72119756828033,238.72119756828033,238.72119756828033,238.72119756828033,238.72119756828033,238.72119756828033,238.72119756828033,240.12164280022262,"['h', 'l']","[1.3319718794518849, 1.3329640675146948]","[None, None]",,,,,,,,,,,,,,,,,,,,,3008,2023-11-07_12h31.31.169,eb_03,2023.2.3,60.00518022849961,2023-11-07 12h31.41.608841 -0500,
,,,,0,0,0,0,79,0,79,0,240.1378078892085,,,,,,,,,,,,,,,,,,,,,,,,,,,,,,,,,,,,,,,,,,,,,,,,,,,,,,,,,,,,,,,,,,,,,,,,,,,,,,,,,,,,,,,,,,,,,,,,,,,,,,,,,,240.12390940812475,1.0,"('h', 'k')",240.12452941247466,240.12454510878888,240.1378078892085,240.1378078892085,240.1378078892085,240.1378078892085,240.1378078892085,240.1378078892085,240.1378078892085,240.1378078892085,241.9554765038265,"['k', 'h', 'k']","[0.8914283040721784, 1.7794248508871533, 1.8034290405921638]","[None, None, None]",,,,,,,,,,,,,,,,,,,,,3008,2023-11-07_12h31.31.169,eb_03,2023.2.3,60.00518022849961,2023-11-07 12h31.41.608841 -0500,
,,,,0,0,0,0,80,0,80,0,241.97105539590848,,,,,,,,,,,,,,,,,,,,,,,,,,,,,,,,,,,,,,,,,,,,,,,,,,,,,,,,,,,,,,,,,,,,,,,,,,,,,,,,,,,,,,,,,,,,,,,,,,,,,,,,,,241.95773103764805,8.0,"('j', 'space')",241.9582538455943,241.95826954190852,241.97105539590848,241.97105539590848,241.97105539590848,241.97105539590848,241.97105539590848,241.97105539590848,241.97105539590848,241.97105539590848,245.98857157518796,"['j', 'j', 'space']","[3.178281736734789, 3.9782859626648133, 3.979279056286032]","[None, None, None]",,,,,,,,,,,,,,,,,,,,,3008,2023-11-07_12h31.31.169,eb_03,2023.2.3,60.00518022849961,2023-11-07 12h31.41.608841 -0500,
,,,,0,0,0,0,81,0,81,0,246.00420449880767,,,,,,,,,,,,,,,,,,,,,,,,,,,,,,,,,,,,,,,,,,,,,,,,,,,,,,,,,,,,,,,,,,,,,,,,,,,,,,,,,,,,,,,,,,,,,,,,,,,,,,,,,,245.99079169785546,12.0,"('j', 'k')",245.991378196617,245.99139389292395,246.00420449880767,246.00420449880767,246.00420449880767,246.00420449880767,246.00420449880767,246.00420449880767,246.00420449880767,246.00420449880767,247.52132313878246,"['j', 'k']","[1.4491982806430315, 1.450205561319308]","[None, None]",,,,,,,,,,,,,,,,,,,,,3008,2023-11-07_12h31.31.169,eb_03,2023.2.3,60.00518022849961,2023-11-07 12h31.41.608841 -0500,
,,,,0,0,0,0,82,0,82,0,247.53745532588073,,,,,,,,,,,,,,,,,,,,,,,,,,,,,,,,,,,,,,,,,,,,,,,,,,,,,,,,,,,,,,,,,,,,,,,,,,,,,,,,,,,,,,,,,,,,,,,,,,,,,,,,,,247.52359246335254,6.0,"('l', 'space')",247.5241596435735,247.5241759435885,247.53745532588073,247.53745532588073,247.53745532588073,247.53745532588073,247.53745532588073,247.53745532588073,247.53745532588073,247.53745532588073,248.8212603535285,"['l', 'space']","[1.203985052277858, 1.2049588273657719]","[None, None]",,,,,,,,,,,,,,,,,,,,,3008,2023-11-07_12h31.31.169,eb_03,2023.2.3,60.00518022849961,2023-11-07 12h31.41.608841 -0500,
,,,,0,0,0,0,83,0,83,0,248.8374070295322,,,,,,,,,,,,,,,,,,,,,,,,,,,,,,,,,,,,,,,,,,,,,,,,,,,,,,,,,,,,,,,,,,,,,,,,,,,,,,,,,,,,,,,,,,,,,,,,,,,,,,,,,,248.82353179107304,0.0,"('l',)",248.8240373934459,248.82405308976013,248.8374070295322,248.8374070295322,248.8374070295322,248.8374070295322,248.8374070295322,248.8374070295322,248.8374070295322,248.8374070295322,249.48789301151555,['l'],[0.5760244862467516],[None],,,,,,,,,,,,,,,,,,,,,3008,2023-11-07_12h31.31.169,eb_03,2023.2.3,60.00518022849961,2023-11-07 12h31.41.608841 -0500,
,,,,0,0,0,0,84,0,84,0,249.50403727270168,,,,,,,,,,,,,,,,,,,,,,,,,,,,,,,,,,,,,,,,,,,,,,,,,,,,,,,,,,,,,,,,,,,,,,,,,,,,,,,,,,,,,,,,,,,,,,,,,,,,,,,,,,249.4901092101136,6.0,"('l', 'space')",249.49066250512988,249.49067850329448,249.50403727270168,249.50403727270168,249.50403727270168,249.50403727270168,249.50403727270168,249.50403727270168,249.50403727270168,249.50403727270168,250.2879382893443,"['l', 'space']","[0.7094337857124628, 0.7244379512703745]","[None, None]",,,,,,,,,,,,,,,,,,,,,3008,2023-11-07_12h31.31.169,eb_03,2023.2.3,60.00518022849961,2023-11-07 12h31.41.608841 -0500,
,,,,0,0,0,0,85,0,85,0,250.30399742822192,,,,,,,,,,,,,,,,,,,,,,,,,,,,,,,,,,,,,,,,,,,,,,,,,,,,,,,,,,,,,,,,,,,,,,,,,,,,,,,,,,,,,,,,,,,,,,,,,,,,,,,,,,250.29020489724644,5.0,"('space',)",250.29074853299971,250.29076392745628,250.30399742822192,250.30399742822192,250.30399742822192,250.30399742822192,250.30399742822192,250.30399742822192,250.30399742822192,250.30399742822192,250.88785527999426,['space'],[0.5084832532375003],[None],,,,,,,,,,,,,,,,,,,,,3008,2023-11-07_12h31.31.169,eb_03,2023.2.3,60.00518022849961,2023-11-07 12h31.41.608841 -0500,
,,,,0,0,0,0,86,0,86,0,250.90396875226725,,,,,,,,,,,,,,,,,,,,,,,,,,,,,,,,,,,,,,,,,,,,,,,,,,,,,,,,,,,,,,,,,,,,,,,,,,,,,,,,,,,,,,,,,,,,,,,,,,,,,,,,,,250.89011373789253,9.0,"('k', 'l')",250.89067910699669,250.89069540701894,250.90396875226725,250.90396875226725,250.90396875226725,250.90396875226725,250.90396875226725,250.90396875226725,250.90396875226725,250.90396875226725,252.73831469899596,"['k', 'l']","[1.204577588083339, 1.820589638024103]","[None, None]",,,,,,,,,,,,,,,,,,,,,3008,2023-11-07_12h31.31.169,eb_03,2023.2.3,60.00518022849961,2023-11-07 12h31.41.608841 -0500,
,,,,0,0,0,0,87,0,87,0,252.77056066021032,,,,,,,,,,,,,,,,,,,,,,,,,,,,,,,,,,,,,,,,,,,,,,,,,,,,,,,,,,,,,,,,,,,,,,,,,,,,,,,,,,,,,,,,,,,,,,,,,,,,,,,,,,252.74060394581466,14.0,"('k', 'space')",252.7411620704661,252.74117837048107,252.77056066021032,252.77056066021032,252.77056066021032,252.77056066021032,252.77056066021032,252.77056066021032,252.77056066021032,252.77056066021032,254.08773635024409,"['k', 'space']","[1.2340151167591102, 1.2900198618735885]","[None, None]",,,,,,,,,,,,,,,,,,,,,3008,2023-11-07_12h31.31.169,eb_03,2023.2.3,60.00518022849961,2023-11-07 12h31.41.608841 -0500,
,,,,0,0,0,0,88,0,88,0,254.1038190335894,,,,,,,,,,,,,,,,,,,,,,,,,,,,,,,,,,,,,,,,,,,,,,,,,,,,,,,,,,,,,,,,,,,,,,,,,,,,,,,,,,,,,,,,,,,,,,,,,,,,,,,,,,254.08998967665684,14.0,"('k', 'space')",254.0905091642344,254.09053451981163,254.1038190335894,254.1038190335894,254.1038190335894,254.1038190335894,254.1038190335894,254.1038190335894,254.1038190335894,254.1038190335894,255.0709627272954,"['k', 'space']","[0.8927887517857016, 0.9167778488845215]","[None, None]",,,,,,,,,,,,,,,,,,,,,3008,2023-11-07_12h31.31.169,eb_03,2023.2.3,60.00518022849961,2023-11-07 12h31.41.608841 -0500,
,,,,0,0,0,0,89,0,89,0,255.08711211996706,,,,,,,,,,,,,,,,,,,,,,,,,,,,,,,,,,,,,,,,,,,,,,,,,,,,,,,,,,,,,,,,,,,,,,,,,,,,,,,,,,,,,,,,,,,,,,,,,,,,,,,,,,255.07321484629938,5.0,"('space',)",255.07375878389576,255.07377448020998,255.08711211996706,255.08711211996706,255.08711211996706,255.08711211996706,255.08711211996706,255.08711211996706,255.08711211996706,255.08711211996706,256.0709539735835,['space'],[0.909520115426858],[None],,,,,,,,,,,,,,,,,,,,,3008,2023-11-07_12h31.31.169,eb_03,2023.2.3,60.00518022849961,2023-11-07 12h31.41.608841 -0500,
,,,,0,0,0,0,90,0,90,0,256.0870608050973,,,,,,,,,,,,,,,,,,,,,,,,,,,,,,,,,,,,,,,,,,,,,,,,,,,,,,,,,,,,,,,,,,,,,,,,,,,,,,,,,,,,,,,,,,,,,,,,,,,,,,,,,,256.07318858515646,10.0,"('h', 'space')",256.0736953949454,256.07371169496037,256.0870608050973,256.0870608050973,256.0870608050973,256.0870608050973,256.0870608050973,256.0870608050973,256.0870608050973,256.0870608050973,256.90426275627397,"['space', 'h']","[0.7415994542534463, 0.8055933206196642]","[None, None]",,,,,,,,,,,,,,,,,,,,,3008,2023-11-07_12h31.31.169,eb_03,2023.2.3,60.00518022849961,2023-11-07 12h31.41.608841 -0500,
,,,,0,0,0,0,91,0,91,0,256.93702428098914,,,,,,,,,,,,,,,,,,,,,,,,,,,,,,,,,,,,,,,,,,,,,,,,,,,,,,,,,,,,,,,,,,,,,,,,,,,,,,,,,,,,,,,,,,,,,,,,,,,,,,,,,,256.9065024993324,9.0,"('k', 'l')",256.9070675665862,256.9070832629004,256.93702428098914,256.93702428098914,256.93702428098914,256.93702428098914,256.93702428098914,256.93702428098914,256.93702428098914,256.93702428098914,257.7880665765115,"['k', 'k']","[0.7156751829243149, 0.8436577841639519]","[None, None]",,,,,,,,,,,,,,,,,,,,,3008,2023-11-07_12h31.31.169,eb_03,2023.2.3,60.00518022849961,2023-11-07 12h31.41.608841 -0500,
,,,,0,0,0,0,92,0,92,0,257.82031978218583,,,,,,,,,,,,,,,,,,,,,,,,,,,,,,,,,,,,,,,,,,,,,,,,,,,,,,,,,,,,,,,,,,,,,,,,,,,,,,,,,,,,,,,,,,,,,,,,,,,,,,,,,,257.79031658254826,7.0,"('j', 'l')",257.7908466349545,257.79086233126145,257.82031978218583,257.82031978218583,257.82031978218583,257.82031978218583,257.82031978218583,257.82031978218583,257.82031978218583,257.82031978218583,260.98788335225254,"['l', 'j']","[0.008367643858946394, 3.128463753593678]","[None, None]",,,,,,,,,,,,,,,,,,,,,3008,2023-11-07_12h31.31.169,eb_03,2023.2.3,60.00518022849961,2023-11-07 12h31.41.608841 -0500,
,,,,0,0,0,0,93,0,93,0,261.0034975610324,,,,,,,,,,,,,,,,,,,,,,,,,,,,,,,,,,,,,,,,,,,,,,,,,,,,,,,,,,,,,,,,,,,,,,,,,,,,,,,,,,,,,,,,,,,,,,,,,,,,,,,,,,260.9901077008544,2.0,"('j',)",260.9906634106883,260.99067971070326,261.0034975610324,261.0034975610324,261.0034975610324,261.0034975610324,261.0034975610324,261.0034975610324,261.0034975610324,261.0034975610324,263.3710719977753,"['l', 'space', 'j', 'k', 'l', 'j']","[0.02530155031126924, 0.02627472169115208, 1.7373532998462906, 1.7612910820753314, 1.7622739127255045, 2.3213714351222734]","[None, None, None, None, None, None]",,,,,,,,,,,,,,,,,,,,,3008,2023-11-07_12h31.31.169,eb_03,2023.2.3,60.00518022849961,2023-11-07 12h31.41.608841 -0500,
,,,,0,0,0,0,94,0,94,0,263.38672122141725,,,,,,,,,,,,,,,,,,,,,,,,,,,,,,,,,,,,,,,,,,,,,,,,,,,,,,,,,,,,,,,,,,,,,,,,,,,,,,,,,,,,,,,,,,,,,,,,,,,,,,,,,,263.3733383038343,4.0,"('k',)",263.3739033710881,263.37391876554466,263.38672122141725,263.38672122141725,263.38672122141725,263.38672122141725,263.38672122141725,263.38672122141725,263.38672122141725,263.38672122141725,264.25389872256346,['k'],[0.7941670087602688],[None],,,,,,,,,,,,,,,,,,,,,3008,2023-11-07_12h31.31.169,eb_03,2023.2.3,60.00518022849961,2023-11-07 12h31.41.608841 -0500,
,,,,0,0,0,0,95,0,95,0,264.27001038371236,,,,,,,,,,,,,,,,,,,,,,,,,,,,,,,,,,,,,,,,,,,,,,,,,,,,,,,,,,,,,,,,,,,,,,,,,,,,,,,,,,,,,,,,,,,,,,,,,,,,,,,,,,264.2561589915713,8.0,"('j', 'space')",264.2567074569524,264.256723455117,264.27001038371236,264.27001038371236,264.27001038371236,264.27001038371236,264.27001038371236,264.27001038371236,264.27001038371236,264.27001038371236,269.2875778778616,"['k', 'space', 'j', 'space']","[3.7979727608617395, 3.821974837606831, 4.9499951703619445, 5.006026780327375]","[None, None, None, None]",,,,,,,,,,,,,,,,,,,,,3008,2023-11-07_12h31.31.169,eb_03,2023.2.3,60.00518022849961,2023-11-07 12h31.41.608841 -0500,
,,,,0,0,0,0,96,0,96,0,269.31976346864394,,,,,,,,,,,,,,,,,,,,,,,,,,,,,,,,,,,,,,,,,,,,,,,,,,,,,,,,,,,,,,,,,,,,,,,,,,,,,,,,,,,,,,,,,,,,,,,,,,,,,,,,,,269.2898459950229,2.0,"('j',)",269.29036759556766,269.2903829900242,269.31976346864394,269.31976346864394,269.31976346864394,269.31976346864394,269.31976346864394,269.31976346864394,269.31976346864394,269.31976346864394,270.07028023954626,['j'],[0.6683215208540787],[None],,,,,,,,,,,,,,,,,,,,,3008,2023-11-07_12h31.31.169,eb_03,2023.2.3,60.00518022849961,2023-11-07 12h31.41.608841 -0500,
,,,,0,0,0,0,97,0,97,0,270.08641635072854,,,,,,,,,,,,,,,,,,,,,,,,,,,,,,,,,,,,,,,,,,,,,,,,,,,,,,,,,,,,,,,,,,,,,,,,,,,,,,,,,,,,,,,,,,,,,,,,,,,,,,,,,,270.0725350752182,2.0,"('j',)",270.0730989350632,270.07311493322777,270.08641635072854,270.08641635072854,270.08641635072854,270.08641635072854,270.08641635072854,270.08641635072854,270.08641635072854,270.08641635072854,270.73691018087266,['j'],[0.5736712467696634],[None],,,,,,,,,,,,,,,,,,,,,3008,2023-11-07_12h31.31.169,eb_03,2023.2.3,60.00518022849961,2023-11-07 12h31.41.608841 -0500,
,,,,0,0,0,0,98,0,98,0,270.7530680254058,,,,,,,,,,,,,,,,,,,,,,,,,,,,,,,,,,,,,,,,,,,,,,,,,,,,,,,,,,,,,,,,,,,,,,,,,,,,,,,,,,,,,,,,,,,,,,,,,,,,,,,,,,270.7391903721218,14.0,"('k', 'space')",270.73974517640454,270.7397614764195,270.7530680254058,270.7530680254058,270.7530680254058,270.7530680254058,270.7530680254058,270.7530680254058,270.7530680254058,270.7530680254058,272.4201990413203,"['k', 'space']","[1.5950463041226612, 1.5960535847916617]","[None, None]",,,,,,,,,,,,,,,,,,,,,3008,2023-11-07_12h31.31.169,eb_03,2023.2.3,60.00518022849961,2023-11-07 12h31.41.608841 -0500,
,,,,0,0,0,0,99,0,99,0,272.43629862838134,,,,,,,,,,,,,,,,,,,,,,,,,,,,,,,,,,,,,,,,,,,,,,,,,,,,,,,,,,,,,,,,,,,,,,,,,,,,,,,,,,,,,,,,,,,,,,,,,,,,,,,,,,272.42248677887255,12.0,"('j', 'k')",272.4230545627943,272.42308897394105,272.43629862838134,272.43629862838134,272.43629862838134,272.43629862838134,272.43629862838134,272.43629862838134,272.43629862838134,272.43629862838134,274.3367788751784,"['j', 'k']","[1.8238894858877757, 1.855884004253312]","[None, None]",,,,,,,,,,,,,,,,,,,,,3008,2023-11-07_12h31.31.169,eb_03,2023.2.3,60.00518022849961,2023-11-07 12h31.41.608841 -0500,
,,,,0,0,0,0,100,0,100,0,274.3528832918819,,,,,,,,,,,,,,,,,,,,,,,,,,,,,,,,,,,,,,,,,,,,,,,,,,,,,,,,,,,,,,,,,,,,,,,,,,,,,,,,,,,,,,,,,,,,,,,,,,,,,,,,,,274.3390204293537,0.0,"('l',)",274.3396002873633,274.3396159836775,274.3528832918819,274.3528832918819,274.3528832918819,274.3528832918819,274.3528832918819,274.3528832918819,274.3528832918819,274.3528832918819,274.88673721958185,['l'],[0.45930157445400255],[None],,,,,,,,,,,,,,,,,,,,,3008,2023-11-07_12h31.31.169,eb_03,2023.2.3,60.00518022849961,2023-11-07 12h31.41.608841 -0500,
,,,,0,0,0,0,101,0,101,0,274.9028494844388,,,,,,,,,,,,,,,,,,,,,,,,,,,,,,,,,,,,,,,,,,,,,,,,,,,,,,,,,,,,,,,,,,,,,,,,,,,,,,,,,,,,,,,,,,,,,,,,,,,,,,,,,,274.8889618700341,11.0,"('h', 'l')",274.8895559150915,274.8895719132561,274.9028494844388,274.9028494844388,274.9028494844388,274.9028494844388,274.9028494844388,274.9028494844388,274.9028494844388,274.9028494844388,276.71995997440536,"['h', 'l']","[1.7414135133221862, 1.7814034918264952]","[None, None]",,,,,,,,,,,,,,,,,,,,,3008,2023-11-07_12h31.31.169,eb_03,2023.2.3,60.00518022849961,2023-11-07 12h31.41.608841 -0500,
,,,,0,0,0,0,102,0,102,0,276.73610483929224,,,,,,,,,,,,,,,,,,,,,,,,,,,,,,,,,,,,,,,,,,,,,,,,,,,,,,,,,,,,,,,,,,,,,,,,,,,,,,,,,,,,,,,,,,,,,,,,,,,,,,,,,,276.72219730264624,7.0,"('j', 'l')",276.72275874767365,276.72277474583825,276.73610483929224,276.73610483929224,276.73610483929224,276.73610483929224,276.73610483929224,276.73610483929224,276.73610483929224,276.73610483929224,278.43725851826457,"['j', 'k', 'l', 'l']","[0.9401611286884872, 1.0761573011986911, 1.1241605491304654, 1.6681814614494215]","[None, None, None, None]",,,,,,,,,,,,,,,,,,,,,3008,2023-11-07_12h31.31.169,eb_03,2023.2.3,60.00518022849961,2023-11-07 12h31.41.608841 -0500,
,,,,0,0,0,0,103,0,103,0,278.46936230711435,,,,,,,,,,,,,,,,,,,,,,,,,,,,,,,,,,,,,,,,,,,,,,,,,,,,,,,,,,,,,,,,,,,,,,,,,,,,,,,,,,,,,,,,,,,,,,,,,,,,,,,,,,278.43951697616285,13.0,"('h', 'j')",278.4400932119461,278.4401089082603,278.46936230711435,278.46936230711435,278.46936230711435,278.46936230711435,278.46936230711435,278.46936230711435,278.46936230711435,278.46936230711435,279.5364881915448,"['h', 'j']","[0.9670051435678033, 0.9679505445456016]","[None, None]",,,,,,,,,,,,,,,,,,,,,3008,2023-11-07_12h31.31.169,eb_03,2023.2.3,60.00518022849961,2023-11-07 12h31.41.608841 -0500,
,,,,0,0,0,0,104,0,104,0,279.55263516939885,,,,,,,,,,,,,,,,,,,,,,,,,,,,,,,,,,,,,,,,,,,,,,,,,,,,,,,,,,,,,,,,,,,,,,,,,,,,,,,,,,,,,,,,,,,,,,,,,,,,,,,,,,279.53872008644976,0.0,"('l',)",279.5393108111384,279.539326205595,279.55263516939885,279.55263516939885,279.55263516939885,279.55263516939885,279.55263516939885,279.55263516939885,279.55263516939885,279.55263516939885,280.1864906063638,['l'],[0.5636956364251091],[None],,,,,,,,,,,,,,,,,,,,,3008,2023-11-07_12h31.31.169,eb_03,2023.2.3,60.00518022849961,2023-11-07 12h31.41.608841 -0500,
,,,,0,0,0,0,105,0,105,0,280.2026098138158,,,,,,,,,,,,,,,,,,,,,,,,,,,,,,,,,,,,,,,,,,,,,,,,,,,,,,,,,,,,,,,,,,,,,,,,,,,,,,,,,,,,,,,,,,,,,,,,,,,,,,,,,,280.18870137161866,5.0,"('space',)",280.1892712685003,280.1892969259352,280.2026098138158,280.2026098138158,280.2026098138158,280.2026098138158,280.2026098138158,280.2026098138158,280.2026098138158,280.2026098138158,281.10303723648394,['space'],[0.8177652073136414],[None],,,,,,,,,,,,,,,,,,,,,3008,2023-11-07_12h31.31.169,eb_03,2023.2.3,60.00518022849961,2023-11-07 12h31.41.608841 -0500,
,,,,0,0,0,0,106,0,106,0,281.11922405882797,,,,,,,,,,,,,,,,,,,,,,,,,,,,,,,,,,,,,,,,,,,,,,,,,,,,,,,,,,,,,,,,,,,,,,,,,,,,,,,,,,,,,,,,,,,,,,,,,,,,,,,,,,281.1053630074166,6.0,"('l', 'space')",281.10587072275666,281.10588702277164,281.11922405882797,281.11922405882797,281.11922405882797,281.11922405882797,281.11922405882797,281.11922405882797,281.11922405882797,281.11922405882797,281.95306742170214,"['l', 'space']","[0.7561608026881004, 0.7571611407620367]","[None, None]",,,,,,,,,,,,,,,,,,,,,3008,2023-11-07_12h31.31.169,eb_03,2023.2.3,60.00518022849961,2023-11-07 12h31.41.608841 -0500,
,,,,0,0,0,0,107,0,107,0,281.9691890439717,,,,,,,,,,,,,,,,,,,,,,,,,,,,,,,,,,,,,,,,,,,,,,,,,,,,,,,,,,,,,,,,,,,,,,,,,,,,,,,,,,,,,,,,,,,,,,,,,,,,,,,,,,281.9552999203079,6.0,"('l', 'space')",281.9558514042146,281.95586710052885,281.9691890439717,281.9691890439717,281.9691890439717,281.9691890439717,281.9691890439717,281.9691890439717,281.9691890439717,281.9691890439717,282.90301278646075,"['l', 'space']","[0.8662170075622271, 0.8672194585960824]","[None, None]",,,,,,,,,,,,,,,,,,,,,3008,2023-11-07_12h31.31.169,eb_03,2023.2.3,60.00518022849961,2023-11-07 12h31.41.608841 -0500,
,,,,0,0,0,0,108,0,108,0,282.91914980319416,,,,,,,,,,,,,,,,,,,,,,,,,,,,,,,,,,,,,,,,,,,,,,,,,,,,,,,,,,,,,,,,,,,,,,,,,,,,,,,,,,,,,,,,,,,,,,,,,,,,,,,,,,282.90528362029727,12.0,"('j', 'k')",282.90581457825465,282.9058302745616,282.91914980319416,282.91914980319416,282.91914980319416,282.91914980319416,282.91914980319416,282.91914980319416,282.91914980319416,282.91914980319416,284.1529484919447,"['j', 'k']","[1.1563111250652582, 1.1572972760841367]","[None, None]",,,,,,,,,,,,,,,,,,,,,3008,2023-11-07_12h31.31.169,eb_03,2023.2.3,60.00518022849961,2023-11-07 12h31.41.608841 -0500,
,,,,0,0,0,0,109,0,109,0,284.16908520682773,,,,,,,,,,,,,,,,,,,,,,,,,,,,,,,,,,,,,,,,,,,,,,,,,,,,,,,,,,,,,,,,,,,,,,,,,,,,,,,,,,,,,,,,,,,,,,,,,,,,,,,,,,284.155190649828,4.0,"('k',)",284.155747868921,284.15576356523525,284.16908520682773,284.16908520682773,284.16908520682773,284.16908520682773,284.16908520682773,284.16908520682773,284.16908520682773,284.16908520682773,284.8862590857534,['k'],[0.6343909226998221],[None],,,,,,,,,,,,,,,,,,,,,3008,2023-11-07_12h31.31.169,eb_03,2023.2.3,60.00518022849961,2023-11-07 12h31.41.608841 -0500,
,,,,0,0,0,0,110,0,110,0,284.90240847842506,,,,,,,,,,,,,,,,,,,,,,,,,,,,,,,,,,,,,,,,,,,,,,,,,,,,,,,,,,,,,,,,,,,,,,,,,,,,,,,,,,,,,,,,,,,,,,,,,,,,,,,,,,284.88854923812323,9.0,"('k', 'l')",284.88909981647157,284.88911581463617,284.90240847842506,284.90240847842506,284.90240847842506,284.90240847842506,284.90240847842506,284.90240847842506,284.90240847842506,284.90240847842506,288.13671729733323,"['k', 'l', 'j', 'k', 'l']","[2.5971481007436523, 2.613158339569054, 2.6291534857882652, 3.1651614305374096, 3.229161937648314]","[None, None, None, None, None]",,,,,,,,,,,,,,,,,,,,,3008,2023-11-07_12h31.31.169,eb_03,2023.2.3,60.00518022849961,2023-11-07 12h31.41.608841 -0500,
,,,,0,0,0,0,111,0,111,0,288.16890832145873,,,,,,,,,,,,,,,,,,,,,,,,,,,,,,,,,,,,,,,,,,,,,,,,,,,,,,,,,,,,,,,,,,,,,,,,,,,,,,,,,,,,,,,,,,,,,,,,,,,,,,,,,,288.1389697181876,12.0,"('j', 'k')",288.13948980947316,288.13950580763776,288.16890832145873,288.16890832145873,288.16890832145873,288.16890832145873,288.16890832145873,288.16890832145873,288.16890832145873,288.16890832145873,289.46939219048363,"['j', 'k']","[1.2027015768762794, 1.2036940667894669]","[None, None]",,,,,,,,,,,,,,,,,,,,,3008,2023-11-07_12h31.31.169,eb_03,2023.2.3,60.00518022849961,2023-11-07 12h31.41.608841 -0500,
,,,,0,0,0,0,112,0,112,0,289.48550475719094,,,,,,,,,,,,,,,,,,,,,,,,,,,,,,,,,,,,,,,,,,,,,,,,,,,,,,,,,,,,,,,,,,,,,,,,,,,,,,,,,,,,,,,,,,,,,,,,,,,,,,,,,,289.4716521576411,6.0,"('l', 'space')",289.4721647026163,289.47218009707285,289.48550475719094,289.48550475719094,289.48550475719094,289.48550475719094,289.48550475719094,289.48550475719094,289.48550475719094,289.48550475719094,291.0026007582492,"['l', 'space']","[1.438151698828733, 1.439161394315306]","[None, None]",,,,,,,,,,,,,,,,,,,,,3008,2023-11-07_12h31.31.169,eb_03,2023.2.3,60.00518022849961,2023-11-07 12h31.41.608841 -0500,
,,,,0,0,0,0,113,0,113,0,291.0187884861516,,,,,,,,,,,,,,,,,,,,,,,,,,,,,,,,,,,,,,,,,,,,,,,,,,,,,,,,,,,,,,,,,,,,,,,,,,,,,,,,,,,,,,,,,,,,,,,,,,,,,,,,,,291.0048362753878,1.0,"('h', 'k')",291.0054043611599,291.0054194537661,291.0187884861516,291.0187884861516,291.0187884861516,291.0187884861516,291.0187884861516,291.0187884861516,291.0187884861516,291.0187884861516,292.65254914153047,"['k', 'h']","[1.5529143826497602, 1.5769107242012979]","[None, None]",,,,,,,,,,,,,,,,,,,,,3008,2023-11-07_12h31.31.169,eb_03,2023.2.3,60.00518022849961,2023-11-07 12h31.41.608841 -0500,
,,,,0,0,0,0,114,0,114,0,292.6686912897567,,,,,,,,,,,,,,,,,,,,,,,,,,,,,,,,,,,,,,,,,,,,,,,,,,,,,,,,,,,,,,,,,,,,,,,,,,,,,,,,,,,,,,,,,,,,,,,,,,,,,,,,,,292.65483386057167,1.0,"('h', 'k')",292.65539892781817,292.6554146241324,292.6686912897567,292.6686912897567,292.6686912897567,292.6686912897567,292.6686912897567,292.6686912897567,292.6686912897567,292.6686912897567,293.65248122479534,"['k', 'h']","[0.911042054045538, 0.9270287484032451]","[None, None]",,,,,,,,,,,,,,,,,,,,,3008,2023-11-07_12h31.31.169,eb_03,2023.2.3,60.00518022849961,2023-11-07 12h31.41.608841 -0500,
,,,,0,0,0,0,115,0,115,0,293.6686454082228,,,,,,,,,,,,,,,,,,,,,,,,,,,,,,,,,,,,,,,,,,,,,,,,,,,,,,,,,,,,,,,,,,,,,,,,,,,,,,,,,,,,,,,,,,,,,,,,,,,,,,,,,,293.65477349013236,12.0,"('j', 'k')",293.65533734997734,293.65535304629157,293.6686454082228,293.6686454082228,293.6686454082228,293.6686454082228,293.6686454082228,293.6686454082228,293.6686454082228,293.6686454082228,294.70245677477214,"['j', 'k']","[0.9591105020372197, 0.9601041993664694]","[None, None]",,,,,,,,,,,,,,,,,,,,,3008,2023-11-07_12h31.31.169,eb_03,2023.2.3,60.00518022849961,2023-11-07 12h31.41.608841 -0500,
,,,,0,0,0,0,116,0,116,0,294.71861944894044,,,,,,,,,,,,,,,,,,,,,,,,,,,,,,,,,,,,,,,,,,,,,,,,,,,,,,,,,,,,,,,,,,,,,,,,,,,,,,,,,,,,,,,,,,,,,,,,,,,,,,,,,,294.70467659558926,13.0,"('h', 'j')",294.7057025910981,294.7057575281942,294.71861944894044,294.71861944894044,294.71861944894044,294.71861944894044,294.71861944894044,294.71861944894044,294.71861944894044,294.71861944894044,295.65247880997777,"['h', 'j']","[0.8771718263233197, 0.878165825502947]","[None, None]",,,,,,,,,,,,,,,,,,,,,3008,2023-11-07_12h31.31.169,eb_03,2023.2.3,60.00518022849961,2023-11-07 12h31.41.608841 -0500,
,,,,0,0,0,0,117,0,117,0,295.66855304146156,,,,,,,,,,,,,,,,,,,,,,,,,,,,,,,,,,,,,,,,,,,,,,,,,,,,,,,,,,,,,,,,,,,,,,,,,,,,,,,,,,,,,,,,,,,,,,,,,,,,,,,,,,295.6547677549461,1.0,"('h', 'k')",295.655286940666,295.6553023351298,295.66855304146156,295.66855304146156,295.66855304146156,295.66855304146156,295.66855304146156,295.66855304146156,295.66855304146156,295.66855304146156,296.58615736156935,"['k', 'h']","[0.759245128101611, 0.8792660766484914]","[None, None]",,,,,,,,,,,,,,,,,,,,,3008,2023-11-07_12h31.31.169,eb_03,2023.2.3,60.00518022849961,2023-11-07 12h31.41.608841 -0500,
,,,,0,0,0,0,118,0,118,0,296.6018512593291,,,,,,,,,,,,,,,,,,,,,,,,,,,,,,,,,,,,,,,,,,,,,,,,,,,,,,,,,,,,,,,,,,,,,,,,,,,,,,,,,,,,,,,,,,,,,,,,,,,,,,,,,,296.5883551471852,11.0,"('h', 'l')",296.5889081403511,296.5889232329573,296.6018512593291,296.6018512593291,296.6018512593291,296.6018512593291,296.6018512593291,296.6018512593291,296.6018512593291,296.6018512593291,298.33566685180267,"['h', 'l']","[1.6650038637089892, 1.6660054091917118]","[None, None]",,,,,,,,,,,,,,,,,,,,,3008,2023-11-07_12h31.31.169,eb_03,2023.2.3,60.00518022849961,2023-11-07 12h31.41.608841 -0500,
,,,,0,0,0,0,119,0,119,0,298.35176160923584,,,,,,,,,,,,,,,,,,,,,,,,,,,,,,,,,,,,,,,,,,,,,,,,,,,,,,,,,,,,,,,,,,,,,,,,,,,,,,,,,,,,,,,,,,,,,,,,,,,,,,,,,,298.33790055782447,13.0,"('h', 'j')",298.33846985100536,298.3384852454692,298.35176160923584,298.35176160923584,298.35176160923584,298.35176160923584,298.35176160923584,298.35176160923584,298.35176160923584,298.35176160923584,299.5355841443088,"['j', 'h']","[1.1151575064577628, 1.1551426553342026]","[None, None]",,,,,,,,,,,,,,,,,,,,,3008,2023-11-07_12h31.31.169,eb_03,2023.2.3,60.00518022849961,2023-11-07 12h31.41.608841 -0500,
,,,,0,0,0,0,120,0,120,0,299.55170395546884,,,,,,,,,,,,,,,,,,,,,,,,,,,,,,,,,,,,,,,,,,,,,,,,,,,,,,,,,,,,,,,,,,,,,,,,,,,,,,,,,,,,,,,,,,,,,,,,,,,,,,,,,,299.53785377073655,3.0,"('h',)",299.5383871435115,299.5384028398257,299.55170395546884,299.55170395546884,299.55170395546884,299.55170395546884,299.55170395546884,299.55170395546884,299.55170395546884,299.55170395546884,300.21884131027764,['h'],[0.587212636739423],[None],,,,,,,,,,,,,,,,,,,,,3008,2023-11-07_12h31.31.169,eb_03,2023.2.3,60.00518022849961,2023-11-07 12h31.41.608841 -0500,
,,,,0,0,0,0,121,0,121,0,300.2349988529604,,,,,,,,,,,,,,,,,,,,,,,,,,,,,,,,,,,,,,,,,,,,,,,,,,,,,,,,,,,,,,,,,,,,,,,,,,,,,,,,,,,,,,,,,,,,,,,,,,,,,,,,,,300.2210735070403,3.0,"('h',)",300.2216222742718,300.2216382724364,300.2349988529604,300.2349988529604,300.2349988529604,300.2349988529604,300.2349988529604,300.2349988529604,300.2349988529604,300.2349988529604,300.90217605225916,['h'],[0.5999544203223195],[None],,,,,,,,,,,,,,,,,,,,,3008,2023-11-07_12h31.31.169,eb_03,2023.2.3,60.00518022849961,2023-11-07 12h31.41.608841 -0500,
,,,,0,0,0,0,122,0,122,0,300.91830703194864,,,,,,,,,,,,,,,,,,,,,,,,,,,,,,,,,,,,,,,,,,,,,,,,,,,,,,,,,,,,,,,,,,,,,,,,,,,,,,,,,,,,,,,,,,,,,,,,,,,,,,,,,,300.9043988916019,6.0,"('l', 'space')",300.9049868996153,300.90500229407917,300.91830703194864,300.91830703194864,300.91830703194864,300.91830703194864,300.91830703194864,300.91830703194864,300.91830703194864,300.91830703194864,302.0021464707461,"['l', 'space']","[1.0126693390629953, 1.0136642437937553]","[None, None]",,,,,,,,,,,,,,,,,,,,,3008,2023-11-07_12h31.31.169,eb_03,2023.2.3,60.00518022849961,2023-11-07 12h31.41.608841 -0500,
,,,,0,0,0,0,123,0,123,0,302.01826054671255,,,,,,,,,,,,,,,,,,,,,,,,,,,,,,,,,,,,,,,,,,,,,,,,,,,,,,,,,,,,,,,,,,,,,,,,,,,,,,,,,,,,,,,,,,,,,,,,,,,,,,,,,,302.004397986042,9.0,"('k', 'l')",302.0049069087909,302.004931962525,302.01826054671255,302.01826054671255,302.01826054671255,302.01826054671255,302.01826054671255,302.01826054671255,302.01826054671255,302.01826054671255,303.53540484412224,"['k', 'l']","[1.4487578783373465, 1.4497941368244938]","[None, None]",,,,,,,,,,,,,,,,,,,,,3008,2023-11-07_12h31.31.169,eb_03,2023.2.3,60.00518022849961,2023-11-07 12h31.41.608841 -0500,
,,,,0,0,0,0,124,0,124,0,303.55149597932905,,,,,,,,,,,,,,,,,,,,,,,,,,,,,,,,,,,,,,,,,,,,,,,,,,,,,,,,,,,,,,,,,,,,,,,,,,,,,,,,,,,,,,,,,,,,,,,,,,,,,,,,,,303.53767809277633,5.0,"('space',)",303.53824074521253,303.5382561396764,303.55149597932905,303.55149597932905,303.55149597932905,303.55149597932905,303.55149597932905,303.55149597932905,303.55149597932905,303.55149597932905,305.0192711477648,"['h', 'space']","[0.787563992664218, 1.459584409945819]","[None, None]",,,,,,,,,,,,,,,,,,,,,3008,2023-11-07_12h31.31.169,eb_03,2023.2.3,60.00518022849961,2023-11-07 12h31.41.608841 -0500,
,,,,0,0,0,0,125,0,125,0,305.0514739441205,,,,,,,,,,,,,,,,,,,,,,,,,,,,,,,,,,,,,,,,,,,,,,,,,,,,,,,,,,,,,,,,,,,,,,,,,,,,,,,,,,,,,,,,,,,,,,,,,,,,,,,,,,305.021551942722,3.0,"('h',)",305.0220647895476,305.022079278453,305.0514739441205,305.0514739441205,305.0514739441205,305.0514739441205,305.0514739441205,305.0514739441205,305.0514739441205,305.0514739441205,306.05190649827273,['h'],[0.9276182656758465],[None],,,,,,,,,,,,,,,,,,,,,3008,2023-11-07_12h31.31.169,eb_03,2023.2.3,60.00518022849961,2023-11-07 12h31.41.608841 -0500,
,,,,0,0,0,0,126,0,126,0,306.06806977614906,,,,,,,,,,,,,,,,,,,,,,,,,,,,,,,,,,,,,,,,,,,,,,,,,,,,,,,,,,,,,,,,,,,,,,,,,,,,,,,,,,,,,,,,,,,,,,,,,,,,,,,,,,306.05416888024774,4.0,"('k',)",306.0547010456139,306.05471674192813,306.06806977614906,306.06806977614906,306.06806977614906,306.06806977614906,306.06806977614906,306.06806977614906,306.06806977614906,306.06806977614906,306.8185470044191,['k'],[0.6790402912301943],[None],,,,,,,,,,,,,,,,,,,,,3008,2023-11-07_12h31.31.169,eb_03,2023.2.3,60.00518022849961,2023-11-07 12h31.41.608841 -0500,
,,,,0,0,0,0,127,0,127,0,306.8347178285985,,,,,,,,,,,,,,,,,,,,,,,,,,,,,,,,,,,,,,,,,,,,,,,,,,,,,,,,,,,,,,,,,,,,,,,,,,,,,,,,,,,,,,,,,,,,,,,,,,,,,,,,,,306.82077376783855,6.0,"('l', 'space')",306.82131861099333,306.82133460915793,306.8347178285985,306.8347178285985,306.8347178285985,306.8347178285985,306.8347178285985,306.8347178285985,306.8347178285985,306.8347178285985,308.5350580159866,"['l', 'space']","[1.6324648040390457, 1.6484632706269622]","[None, None]",,,,,,,,,,,,,,,,,,,,,3008,2023-11-07_12h31.31.169,eb_03,2023.2.3,60.00518022849961,2023-11-07 12h31.41.608841 -0500,
,,,,0,0,0,0,128,0,128,0,308.55130309579545,,,,,,,,,,,,,,,,,,,,,,,,,,,,,,,,,,,,,,,,,,,,,,,,,,,,,,,,,,,,,,,,,,,,,,,,,,,,,,,,,,,,,,,,,,,,,,,,,,,,,,,,,,308.53734847021406,2.0,"('j',)",308.53782841515203,308.53785588370374,308.55130309579545,308.55130309579545,308.55130309579545,308.55130309579545,308.55130309579545,308.55130309579545,308.55130309579545,308.55130309579545,309.3017776073975,['j'],[0.6678771944643813],[None],,,,,,,,,,,,,,,,,,,,,3008,2023-11-07_12h31.31.169,eb_03,2023.2.3,60.00518022849961,2023-11-07 12h31.41.608841 -0500,
,,,,0,0,0,0,129,0,129,0,309.31791734080616,,,,,,,,,,,,,,,,,,,,,,,,,,,,,,,,,,,,,,,,,,,,,,,,,,,,,,,,,,,,,,,,,,,,,,,,,,,,,,,,,,,,,,,,,,,,,,,,,,,,,,,,,,309.3040116152697,9.0,"('k', 'l')",309.3045606843589,309.30457698437385,309.31791734080616,309.31791734080616,309.31791734080616,309.31791734080616,309.31791734080616,309.31791734080616,309.31791734080616,309.31791734080616,310.2688763251281,"['k', 'l']","[0.8053095795767149, 0.9253172466269461]","[None, None]",,,,,,,,,,,,,,,,,,,,,3008,2023-11-07_12h31.31.169,eb_03,2023.2.3,60.00518022849961,2023-11-07 12h31.41.608841 -0500,
,,,,0,0,0,0,130,0,130,0,310.28454154693463,,,,,,,,,,,,,,,,,,,,,,,,,,,,,,,,,,,,,,,,,,,,,,,,,,,,,,,,,,,,,,,,,,,,,,,,,,,,,,,,,,,,,,,,,,,,,,,,,,,,,,,,,,310.2711308589496,10.0,"('h', 'space')",310.27167932433076,310.2716947187946,310.28454154693463,310.28454154693463,310.28454154693463,310.28454154693463,310.28454154693463,310.28454154693463,310.28454154693463,310.28454154693463,311.8683435560597,"['h', 'space']","[1.502743836172158, 1.518715136073297]","[None, None]",,,,,,,,,,,,,,,,,,,,,3008,2023-11-07_12h31.31.169,eb_03,2023.2.3,60.00518022849961,2023-11-07 12h31.41.608841 -0500,
,,,,0,0,0,0,131,0,131,0,311.88447242278926,,,,,,,,,,,,,,,,,,,,,,,,,,,,,,,,,,,,,,,,,,,,,,,,,,,,,,,,,,,,,,,,,,,,,,,,,,,,,,,,,,,,,,,,,,,,,,,,,,,,,,,,,,311.87057333800476,5.0,"('space',)",311.8710889014983,311.8711045978125,311.88447242278926,311.88447242278926,311.88447242278926,311.88447242278926,311.88447242278926,311.88447242278926,311.88447242278926,311.88447242278926,312.484938180678,['space'],[0.5268198667035904],[None],,,,,,,,,,,,,,,,,,,,,3008,2023-11-07_12h31.31.169,eb_03,2023.2.3,60.00518022849961,2023-11-07 12h31.41.608841 -0500,
,,,,0,0,0,0,132,0,132,0,312.50111111781735,,,,,,,,,,,,,,,,,,,,,,,,,,,,,,,,,,,,,,,,,,,,,,,,,,,,,,,,,,,,,,,,,,,,,,,,,,,,,,,,,,,,,,,,,,,,,,,,,,,,,,,,,,312.4871462292649,3.0,"('h',)",312.48767356499593,312.4876898650109,312.50111111781735,312.50111111781735,312.50111111781735,312.50111111781735,312.50111111781735,312.50111111781735,312.50111111781735,312.50111111781735,313.05160977759806,['h'],[0.47818484219169477],[None],,,,,,,,,,,,,,,,,,,,,3008,2023-11-07_12h31.31.169,eb_03,2023.2.3,60.00518022849961,2023-11-07 12h31.41.608841 -0500,
,,,,0,0,0,0,133,0,133,0,313.06774498321465,,,,,,,,,,,,,,,,,,,,,,,,,,,,,,,,,,,,,,,,,,,,,,,,,,,,,,,,,,,,,,,,,,,,,,,,,,,,,,,,,,,,,,,,,,,,,,,,,,,,,,,,,,313.05382235396246,5.0,"('space',)",313.05434697302553,313.0543623674894,313.06774498321465,313.06774498321465,313.06774498321465,313.06774498321465,313.06774498321465,313.06774498321465,313.06774498321465,313.06774498321465,313.7181938373833,['space'],[0.5826377653283998],[None],,,,,,,,,,,,,,,,,,,,,3008,2023-11-07_12h31.31.169,eb_03,2023.2.3,60.00518022849961,2023-11-07 12h31.41.608841 -0500,
,,,,0,0,0,0,134,0,134,0,313.73439001714723,,,,,,,,,,,,,,,,,,,,,,,,,,,,,,,,,,,,,,,,,,,,,,,,,,,,,,,,,,,,,,,,,,,,,,,,,,,,,,,,,,,,,,,,,,,,,,,,,,,,,,,,,,313.72056850836816,12.0,"('j', 'k')",313.7209509550594,313.72096514211444,313.73439001714723,313.73439001714723,313.73439001714723,313.73439001714723,313.73439001714723,313.73439001714723,313.73439001714723,313.73439001714723,315.3515385404826,"['j', 'k']","[1.547968836785003, 1.548961024847813]","[None, None]",,,,,,,,,,,,,,,,,,,,,3008,2023-11-07_12h31.31.169,eb_03,2023.2.3,60.00518022849961,2023-11-07 12h31.41.608841 -0500,
,,,,0,0,0,0,135,0,135,0,315.36763541088294,,,,,,,,,,,,,,,,,,,,,,,,,,,,,,,,,,,,,,,,,,,,,,,,,,,,,,,,,,,,,,,,,,,,,,,,,,,,,,,,,,,,,,,,,,,,,,,,,,,,,,,,,,315.3537731520628,6.0,"('l', 'space')",315.3543228248527,315.354348784138,315.36763541088294,315.36763541088294,315.36763541088294,315.36763541088294,315.36763541088294,315.36763541088294,315.36763541088294,315.36763541088294,316.4014401366803,"['l', 'space']","[0.9627837410298525, 0.9637750235415297]","[None, None]",,,,,,,,,,,,,,,,,,,,,3008,2023-11-07_12h31.31.169,eb_03,2023.2.3,60.00518022849961,2023-11-07 12h31.41.608841 -0500,
,,,,0,0,0,0,136,0,136,0,316.41758892564394,,,,,,,,,,,,,,,,,,,,,,,,,,,,,,,,,,,,,,,,,,,,,,,,,,,,,,,,,,,,,,,,,,,,,,,,,,,,,,,,,,,,,,,,,,,,,,,,,,,,,,,,,,316.4036548260119,7.0,"('j', 'l')",316.40419061360444,316.40420630991866,316.41758892564394,316.41758892564394,316.41758892564394,316.41758892564394,316.41758892564394,316.41758892564394,316.41758892564394,316.41758892564394,318.16812773176207,"['j', 'l']","[1.6808532153299893, 1.7448516094736988]","[None, None]",,,,,,,,,,,,,,,,,,,,,3008,2023-11-07_12h31.31.169,eb_03,2023.2.3,60.00518022849961,2023-11-07 12h31.41.608841 -0500,
,,,,0,0,0,0,137,0,137,0,318.20086661756795,,,,,,,,,,,,,,,,,,,,,,,,,,,,,,,,,,,,,,,,,,,,,,,,,,,,,,,,,,,,,,,,,,,,,,,,,,,,,,,,,,,,,,,,,,,,,,,,,,,,,,,,,,318.1703822655836,10.0,"('h', 'space')",318.1709219772529,318.17093737170944,318.20086661756795,318.20086661756795,318.20086661756795,318.20086661756795,318.20086661756795,318.20086661756795,318.20086661756795,318.20086661756795,320.98507612711546,"['h', 'j', 'h', 'space']","[1.5136455289612059, 1.5146214170090389, 2.705654898454668, 2.7066537272694404]","[None, None, None, None]",,,,,,,,,,,,,,,,,,,,,3008,2023-11-07_12h31.31.169,eb_03,2023.2.3,60.00518022849961,2023-11-07 12h31.41.608841 -0500,
,,,,0,0,0,0,138,0,138,0,321.0007087488848,,,,,,,,,,,,,,,,,,,,,,,,,,,,,,,,,,,,,,,,,,,,,,,,,,,,,,,,,,,,,,,,,,,,,,,,,,,,,,,,,,,,,,,,,,,,,,,,,,,,,,,,,,320.9872926275639,7.0,"('j', 'l')",320.98791233005613,320.98792772452,321.0007087488848,321.0007087488848,321.0007087488848,321.0007087488848,321.0007087488848,321.0007087488848,321.0007087488848,321.0007087488848,323.3678204462558,"['j', 'l']","[2.2899154210244888, 2.2908870831452077]","[None, None]",,,,,,,,,,,,,,,,,,,,,3008,2023-11-07_12h31.31.169,eb_03,2023.2.3,60.00518022849961,2023-11-07 12h31.41.608841 -0500,
,,,,0,0,0,0,139,0,139,0,323.38394206853263,,,,,,,,,,,,,,,,,,,,,,,,,,,,,,,,,,,,,,,,,,,,,,,,,,,,,,,,,,,,,,,,,,,,,,,,,,,,,,,,,,,,,,,,,,,,,,,,,,,,,,,,,,323.3700508319016,3.0,"('h',)",323.37060563618434,323.37062133249856,323.38394206853263,323.38394206853263,323.38394206853263,323.38394206853263,323.38394206853263,323.38394206853263,323.38394206853263,323.38394206853263,324.68498013812496,"['j', 'h']","[0.7546826326361042, 1.2986987153199152]","[None, None]",,,,,,,,,,,,,,,,,,,,,3008,2023-11-07_12h31.31.169,eb_03,2023.2.3,60.00518022849961,2023-11-07 12h31.41.608841 -0500,
,,,,0,0,0,0,140,0,140,0,324.71721070488275,,,,,,,,,,,,,,,,,,,,,,,,,,,,,,,,,,,,,,,,,,,,,,,,,,,,,,,,,,,,,,,,,,,,,,,,,,,,,,,,,,,,,,,,,,,,,,,,,,,,,,,,,,324.6871954311646,6.0,"('l', 'space')",324.6878136243977,324.68782992441265,324.71721070488275,324.71721070488275,324.71721070488275,324.71721070488275,324.71721070488275,324.71721070488275,324.71721070488275,324.71721070488275,327.65151016638265,"['space', 'l']","[2.789512146533525, 2.917531573737506]","[None, None]",,,,,,,,,,,,,,,,,,,,,3008,2023-11-07_12h31.31.169,eb_03,2023.2.3,60.00518022849961,2023-11-07 12h31.41.608841 -0500,
,,,,0,0,0,0,141,0,141,0,327.66709117142454,,,,,,,,,,,,,,,,,,,,,,,,,,,,,,,,,,,,,,,,,,,,,,,,,,,,,,,,,,,,,,,,,,,,,,,,,,,,,,,,,,,,,,,,,,,,,,,,,,,,,,,,,,327.65384197435196,3.0,"('h',)",327.6544112675401,327.6544269638471,327.66709117142454,327.66709117142454,327.66709117142454,327.66709117142454,327.66709117142454,327.66709117142454,327.66709117142454,327.66709117142454,328.5513836903265,"['k', 'h']","[0.03962564294488402, 0.8476657772116596]","[None, None]",,,,,,,,,,,,,,,,,,,,,3008,2023-11-07_12h31.31.169,eb_03,2023.2.3,60.00518022849961,2023-11-07 12h31.41.608841 -0500,
,,,,0,0,0,0,142,0,142,0,328.5670241602493,,,,,,,,,,,,,,,,,,,,,,,,,,,,,,,,,,,,,,,,,,,,,,,,,,,,,,,,,,,,,,,,,,,,,,,,,,,,,,,,,,,,,,,,,,,,,,,,,,,,,,,,,,328.55361558523146,5.0,"('space',)",328.55418367100356,328.55419966916816,328.5670241602493,328.5670241602493,328.5670241602493,328.5670241602493,328.5670241602493,328.5670241602493,328.5670241602493,328.5670241602493,329.21757202192384,['space'],[0.5707453937357059],[None],,,,,,,,,,,,,,,,,,,,,3008,2023-11-07_12h31.31.169,eb_03,2023.2.3,60.00518022849961,2023-11-07 12h31.41.608841 -0500,
,,,,0,0,0,0,143,0,143,0,329.2336571200867,,,,,,,,,,,,,,,,,,,,,,,,,,,,,,,,,,,,,,,,,,,,,,,,,,,,,,,,,,,,,,,,,,,,,,,,,,,,,,,,,,,,,,,,,,,,,,,,,,,,,,,,,,329.2198307816725,7.0,"('j', 'l')",329.220386793364,329.2204027915286,329.2336571200867,329.2336571200867,329.2336571200867,329.2336571200867,329.2336571200867,329.2336571200867,329.2336571200867,329.2336571200867,331.28475254159275,"['j', 'l', 'k', 'l', 'j']","[1.4321602352065383, 1.456114317450556, 1.4881462654884672, 2.024206732508901, 2.0481840573775116]","[None, None, None, None, None]",,,,,,,,,,,,,,,,,,,,,3008,2023-11-07_12h31.31.169,eb_03,2023.2.3,60.00518022849961,2023-11-07 12h31.41.608841 -0500,
,,,,0,0,0,0,144,0,144,0,331.3169055323451,,,,,,,,,,,,,,,,,,,,,,,,,,,,,,,,,,,,,,,,,,,,,,,,,,,,,,,,,,,,,,,,,,,,,,,,,,,,,,,,,,,,,,,,,,,,,,,,,,,,,,,,,,331.2870067735639,9.0,"('k', 'l')",331.2875827074895,331.28759810195334,331.3169055323451,331.3169055323451,331.3169055323451,331.3169055323451,331.3169055323451,331.3169055323451,331.3169055323451,331.3169055323451,333.5173347661257,"['k', 'l']","[2.1249927555472823, 2.125983736201306]","[None, None]",,,,,,,,,,,,,,,,,,,,,3008,2023-11-07_12h31.31.169,eb_03,2023.2.3,60.00518022849961,2023-11-07 12h31.41.608841 -0500,
,,,,0,0,0,0,145,0,145,0,333.5334615198881,,,,,,,,,,,,,,,,,,,,,,,,,,,,,,,,,,,,,,,,,,,,,,,,,,,,,,,,,,,,,,,,,,,,,,,,,,,,,,,,,,,,,,,,,,,,,,,,,,,,,,,,,,333.51959714810073,10.0,"('h', 'space')",333.5202135302243,333.52022892468085,333.5334615198881,333.5334615198881,333.5334615198881,333.5334615198881,333.5334615198881,333.5334615198881,333.5334615198881,333.5334615198881,335.86775283137104,"['h', 'j', 'j', 'h', 'j', 'h', 'space']","[0.6524561710612033, 0.6764516070616082, 0.8204607471416239, 1.2284462461611838, 1.2294372268224834, 2.284499589477491, 2.285510190529749]","[None, None, None, None, None, None, None]",,,,,,,,,,,,,,,,,,,,,3008,2023-11-07_12h31.31.169,eb_03,2023.2.3,60.00518022849961,2023-11-07 12h31.41.608841 -0500,
,,,,0,0,0,0,146,0,146,0,335.88335345681116,,,,,,,,,,,,,,,,,,,,,,,,,,,,,,,,,,,,,,,,,,,,,,,,,,,,,,,,,,,,,,,,,,,,,,,,,,,,,,,,,,,,,,,,,,,,,,,,,,,,,,,,,,335.87001310038613,4.0,"('k',)",335.870581789859,335.87059688247246,335.88335345681116,335.88335345681116,335.88335345681116,335.88335345681116,335.88335345681116,335.88335345681116,335.88335345681116,335.88335345681116,337.31714369370457,['k'],[1.3586565163859632],[None],,,,,,,,,,,,,,,,,,,,,3008,2023-11-07_12h31.31.169,eb_03,2023.2.3,60.00518022849961,2023-11-07 12h31.41.608841 -0500,
,,,,0,0,0,0,147,0,147,0,337.33329187896743,,,,,,,,,,,,,,,,,,,,,,,,,,,,,,,,,,,,,,,,,,,,,,,,,,,,,,,,,,,,,,,,,,,,,,,,,,,,,,,,,,,,,,,,,,,,,,,,,,,,,,,,,,337.31938192750385,1.0,"('h', 'k')",337.3198872280336,337.31990292434057,337.33329187896743,337.33329187896743,337.33329187896743,337.33329187896743,337.33329187896743,337.33329187896743,337.33329187896743,337.33329187896743,339.55040025596827,"['h', 'k']","[2.148776895031915, 2.1498062109094462]","[None, None]",,,,,,,,,,,,,,,,,,,,,3008,2023-11-07_12h31.31.169,eb_03,2023.2.3,60.00518022849961,2023-11-07 12h31.41.608841 -0500,
,,,,0,0,0,0,148,0,148,0,339.5665149356428,,,,,,,,,,,,,,,,,,,,,,,,,,,,,,,,,,,,,,,,,,,,,,,,,,,,,,,,,,,,,,,,,,,,,,,,,,,,,,,,,,,,,,,,,,,,,,,,,,,,,,,,,,339.55267682499834,6.0,"('l', 'space')",339.5532808311764,339.5532962256402,339.5665149356428,339.5665149356428,339.5665149356428,339.5665149356428,339.5665149356428,339.5665149356428,339.5665149356428,339.5665149356428,340.7336516867508,"['l', 'space']","[1.0995840477116872, 1.1005895172784221]","[None, None]",,,,,,,,,,,,,,,,,,,,,3008,2023-11-07_12h31.31.169,eb_03,2023.2.3,60.00518022849961,2023-11-07 12h31.41.608841 -0500,
,,,,0,0,0,0,149,0,149,0,340.7497953442289,,,,,,,,,,,,,,,,,,,,,,,,,,,,,,,,,,,,,,,,,,,,,,,,,,,,,,,,,,,,,,,,,,,,,,,,,,,,,,,,,,,,,,,,,,,,,,,,,,,,,,,,,,340.7359131631674,13.0,"('h', 'j')",340.73671337325504,340.7367287677189,340.7497953442289,340.7497953442289,340.7497953442289,340.7497953442289,340.7497953442289,340.7497953442289,340.7497953442289,340.7497953442289,341.65030155031127,"['h', 'j']","[0.8283553886649315, 0.8293315785704181]","[None, None]",,,,,,,,,,,,,,,,,,,,,3008,2023-11-07_12h31.31.169,eb_03,2023.2.3,60.00518022849961,2023-11-07 12h31.41.608841 -0500,
,,,,0,0,0,0,150,0,150,0,341.66641743739456,,,,,,,,,,,,,,,,,,,,,,,,,,,,,,,,,,,,,,,,,,,,,,,,,,,,,,,,,,,,,,,,,,,,,,,,,,,,,,,,,,,,,,,,,,,,,,,,,,,,,,,,,,341.65252469150437,5.0,"('space',)",341.6530450846403,341.65306078095455,341.66641743739456,341.66641743739456,341.66641743739456,341.66641743739456,341.66641743739456,341.66641743739456,341.66641743739456,341.66641743739456,342.4168551230323,['space'],[0.6717559947865084],[None],,,,,,,,,,,,,,,,,,,,,3008,2023-11-07_12h31.31.169,eb_03,2023.2.3,60.00518022849961,2023-11-07 12h31.41.608841 -0500,
,,,,0,0,0,0,151,0,151,0,342.4330739417055,,,,,,,,,,,,,,,,,,,,,,,,,,,,,,,,,,,,,,,,,,,,,,,,,,,,,,,,,,,,,,,,,,,,,,,,,,,,,,,,,,,,,,,,,,,,,,,,,,,,,,,,,,342.41909758276597,13.0,"('h', 'j')",342.4196330685081,342.4196490666727,342.4330739417055,342.4330739417055,342.4330739417055,342.4330739417055,342.4330739417055,342.4330739417055,342.4330739417055,342.4330739417055,343.1668868175111,"['h', 'j']","[0.6571022795906174, 0.658101712106145]","[None, None]",,,,,,,,,,,,,,,,,,,,,3008,2023-11-07_12h31.31.169,eb_03,2023.2.3,60.00518022849961,2023-11-07 12h31.41.608841 -0500,
,,,,0,0,0,0,152,0,152,0,343.18301387312385,,,,,,,,,,,,,,,,,,,,,,,,,,,,,,,,,,,,,,,,,,,,,,,,,,,,,,,,,,,,,,,,,,,,,,,,,,,,,,,,,,,,,,,,,,,,,,,,,,,,,,,,,,343.1691410494823,5.0,"('space',)",343.1696949481993,343.16971034266317,343.18301387312385,343.18301387312385,343.18301387312385,343.18301387312385,343.18301387312385,343.18301387312385,343.18301387312385,343.18301387312385,343.666829163747,['space'],[0.40317518292431487],[None],,,,,,,,,,,,,,,,,,,,,3008,2023-11-07_12h31.31.169,eb_03,2023.2.3,60.00518022849961,2023-11-07 12h31.41.608841 -0500,
,,,,0,0,0,0,153,0,153,0,343.68299153606495,,,,,,,,,,,,,,,,,,,,,,,,,,,,,,,,,,,,,,,,,,,,,,,,,,,,,,,,,,,,,,,,,,,,,,,,,,,,,,,,,,,,,,,,,,,,,,,,,,,,,,,,,,343.66909999758354,6.0,"('l', 'space')",343.66962854072335,343.66964453888795,343.68299153606495,343.68299153606495,343.68299153606495,343.68299153606495,343.68299153606495,343.68299153606495,343.68299153606495,343.68299153606495,344.6340253797316,"['l', 'space']","[0.3752037502126768, 0.9342312429071171]","[None, None]",,,,,,,,,,,,,,,,,,,,,3008,2023-11-07_12h31.31.169,eb_03,2023.2.3,60.00518022849961,2023-11-07 12h31.41.608841 -0500,
,,,,0,0,0,0,154,0,154,0,344.6496235903469,,,,,,,,,,,,,,,,,,,,,,,,,,,,,,,,,,,,,,,,,,,,,,,,,,,,,,,,,,,,,,,,,,,,,,,,,,,,,,,,,,,,,,,,,,,,,,,,,,,,,,,,,,344.63627055613324,4.0,"('k',)",344.6367794788821,344.6367951751963,344.6496235903469,344.6496235903469,344.6496235903469,344.6496235903469,344.6496235903469,344.6496235903469,344.6496235903469,344.6496235903469,345.40008210379165,['k'],[0.6796183381229639],[None],,,,,,,,,,,,,,,,,,,,,3008,2023-11-07_12h31.31.169,eb_03,2023.2.3,60.00518022849961,2023-11-07 12h31.41.608841 -0500,
,,,,0,0,0,0,155,0,155,0,345.4162631909421,,,,,,,,,,,,,,,,,,,,,,,,,,,,,,,,,,,,,,,,,,,,,,,,,,,,,,,,,,,,,,,,,,,,,,,,,,,,,,,,,,,,,,,,,,,,,,,,,,,,,,,,,,345.4023514283617,13.0,"('h', 'j')",345.4028543140739,345.4028703122385,345.4162631909421,345.4162631909421,345.4162631909421,345.4162631909421,345.4162631909421,345.4162631909421,345.4162631909421,345.4162631909421,346.6500516167216,"['h', 'j']","[1.1610163966106484, 1.1620028494871804]","[None, None]",,,,,,,,,,,,,,,,,,,,,3008,2023-11-07_12h31.31.169,eb_03,2023.2.3,60.00518022849961,2023-11-07 12h31.41.608841 -0500,
,,,,0,0,0,0,156,0,156,0,346.6661889353054,,,,,,,,,,,,,,,,,,,,,,,,,,,,,,,,,,,,,,,,,,,,,,,,,,,,,,,,,,,,,,,,,,,,,,,,,,,,,,,,,,,,,,,,,,,,,,,,,,,,,,,,,,346.6523058486855,14.0,"('k', 'space')",346.652828052931,346.6528437492452,346.6661889353054,346.6661889353054,346.6661889353054,346.6661889353054,346.6661889353054,346.6661889353054,346.6661889353054,346.6661889353054,348.01667069135874,"['k', 'space']","[1.2711287459896994, 1.2721432711114176]","[None, None]",,,,,,,,,,,,,,,,,,,,,3008,2023-11-07_12h31.31.169,eb_03,2023.2.3,60.00518022849961,2023-11-07 12h31.41.608841 -0500,
,,,,0,0,0,0,157,0,157,0,348.0327911062268,,,,,,,,,,,,,,,,,,,,,,,,,,,,,,,,,,,,,,,,,,,,,,,,,,,,,,,,,,,,,,,,,,,,,,,,,,,,,,,,,,,,,,,,,,,,,,,,,,,,,,,,,,348.01896174929425,1.0,"('h', 'k')",348.0195518702749,348.0195675665891,348.0327911062268,348.0327911062268,348.0327911062268,348.0327911062268,348.0327911062268,348.0327911062268,348.0327911062268,348.0327911062268,349.98325686412136,"['h', 'k']","[1.8805996595110628, 1.881578867934877]","[None, None]",,,,,,,,,,,,,,,,,,,,,3008,2023-11-07_12h31.31.169,eb_03,2023.2.3,60.00518022849961,2023-11-07 12h31.41.608841 -0500,
,,,,0,0,0,0,158,0,158,0,349.9993646011935,,,,,,,,,,,,,,,,,,,,,,,,,,,,,,,,,,,,,,,,,,,,,,,,,,,,,,,,,,,,,,,,,,,,,,,,,,,,,,,,,,,,,,,,,,,,,,,,,,,,,,,,,,349.9855349424033,2.0,"('j',)",349.98610544300027,349.98612083745684,349.9993646011935,349.9993646011935,349.9993646011935,349.9993646011935,349.9993646011935,349.9993646011935,349.9993646011935,349.9993646011935,350.5498303590866,['j'],[0.47405882494786056],[None],,,,,,,,,,,,,,,,,,,,,3008,2023-11-07_12h31.31.169,eb_03,2023.2.3,60.00518022849961,2023-11-07 12h31.41.608841 -0500,
,,,,0,0,0,0,159,0,159,0,350.5660038999267,,,,,,,,,,,,,,,,,,,,,,,,,,,,,,,,,,,,,,,,,,,,,,,,,,,,,,,,,,,,,,,,,,,,,,,,,,,,,,,,,,,,,,,,,,,,,,,,,,,,,,,,,,350.55207251696265,1.0,"('h', 'k')",350.5526221897526,350.5526381879172,350.5660038999267,350.5660038999267,350.5660038999267,350.5660038999267,350.5660038999267,350.5660038999267,350.5660038999267,350.5660038999267,351.19984273501905,"['h', 'k']","[0.5634257805941161, 0.5644031779011129]","[None, None]",,,,,,,,,,,,,,,,,,,,,3008,2023-11-07_12h31.31.169,eb_03,2023.2.3,60.00518022849961,2023-11-07 12h31.41.608841 -0500,
,,,,0,0,0,0,160,0,160,0,351.2159758276757,,,,,,,,,,,,,,,,,,,,,,,,,,,,,,,,,,,,,,,,,,,,,,,,,,,,,,,,,,,,,,,,,,,,,,,,,,,,,,,,,,,,,,,,,,,,,,,,,,,,,,,,,,351.20207644104084,1.0,"('h', 'k')",351.2026345656923,351.2026502620065,351.2159758276757,351.2159758276757,351.2159758276757,351.2159758276757,351.2159758276757,351.2159758276757,351.2159758276757,351.2159758276757,351.74980651276564,"['h', 'k']","[0.46548199754033703, 0.4664436985331122]","[None, None]",,,,,,,,,,,,,,,,,,,,,3008,2023-11-07_12h31.31.169,eb_03,2023.2.3,60.00518022849961,2023-11-07 12h31.41.608841 -0500,
