practice_loop.thisRepN,practice_loop.thisTrialN,practice_loop.thisN,practice_loop.thisIndex,blocks.thisRepN,blocks.thisTrialN,blocks.thisN,blocks.thisIndex,trials.thisRepN,trials.thisTrialN,trials.thisN,trials.thisIndex,thisRow.t,notes,path,resp order,Instructions_0.started,welcome_text.started,instructions_0_keypress.started,Instructions_0.stopped,instructions_0_keypress.keys,instructions_0_keypress.rt,instructions_0_keypress.duration,consent_0.started,consent_image_0.started,consent0_key_resp.started,consent0_text.started,consent_0.stopped,consent0_key_resp.keys,consent0_key_resp.rt,consent0_key_resp.duration,consent_1.started,consent_image_1.started,consent1_key_resp.started,consent1_text.started,consent_1.stopped,consent1_key_resp.keys,consent1_key_resp.rt,consent1_key_resp.duration,consent_2.started,consent2_text.started,consent_image_2.started,consent2_key_resp.started,consent_2.stopped,consent2_key_resp.keys,consent2_key_resp.rt,consent2_key_resp.duration,consent_3.started,agree_button.started,disagree_button.started,consent_image_3.started,consent_3.stopped,agree_button.numClicks,agree_button.timesOn,agree_button.timesOff,disagree_button.numClicks,disagree_button.timesOn,disagree_button.timesOff,demographics.started,age_slider.started,Gender.started,Handedness.started,age_text.started,handedness_text.started,gender_text.started,demographics.stopped,age_slider.response,age_slider.rt,Gender.text,Handedness.response,Handedness.rt,instructions_1.started,instructions_text1.started,instructions1_key_resp.started,instr1_cnt_text.started,instructions_1.stopped,instructions1_key_resp.keys,instructions1_key_resp.rt,instructions1_key_resp.duration,instructions_2.started,instructions_text2.started,key_stim_association.started,instr2_cnt_text.started,instructions2_key_resp.started,instructions_2.stopped,instructions2_key_resp.keys,instructions2_key_resp.rt,instructions2_key_resp.duration,instructions_3.started,instructions_text3.started,examplestim_image_2.started,instructions3_key_resp.started,instr3_cnt_text.started,instructions_3.stopped,instructions3_key_resp.keys,instructions3_key_resp.rt,instructions3_key_resp.duration,instructions_4.started,instructions_text4.started,handplacement_image.started,instructions4_key_resp.started,instr4_cnt_text.started,instructions_4.stopped,instructions4_key_resp.keys,instructions4_key_resp.rt,instructions4_key_resp.duration,instructions_5.started,instructions_text5.started,image.started,instructions5_key_resp.started,instr5_cnt_text.started,instructions_5.stopped,instructions5_key_resp.keys,instructions5_key_resp.rt,instructions5_key_resp.duration,begin_exp_timer.started,text_countdown.started,begin_exp_timer.stopped,stim_resp_selector.started,node idx,stim,stim_resp_selector.stopped,stim_display.started,space.started,h.started,j.started,k.started,l.started,key_resp.started,text.started,accuracy_text.started,stim_display.stopped,key_resp.keys,key_resp.rt,key_resp.duration,break_2.started,break_text.started,break_key_resp.started,break_2.stopped,break_key_resp.keys,break_key_resp.rt,break_key_resp.duration,debriefing.started,graph.started,debrief_text.started,debriefing_title.started,demo_scr_adv.started,demo_scr_adv_keypress.started,debriefing.stopped,demo_scr_adv_keypress.keys,demo_scr_adv_keypress.rt,demo_scr_adv_keypress.duration,done.started,text_countdown_2.started,done.stopped,participant,date,expName,psychopyVersion,frameRate,expStart,
,,,,,,,,,,,,,,[12. 14. 12. ...  7.  8.  5.],"[('l', 'space'), ('l',), ('k', 'space'), ('space',), ('j', 'k'), ('h', 'j'), ('j',), ('h', 'k'), ('k',), ('h', 'l'), ('h', 'space'), ('h',), ('k', 'l'), ('j', 'space'), ('j', 'l')]",0.0026924498088192195,0.011002219165675342,0.011002219165675342,13.328803356998833,return,13.312743437301833,None,,,,,,,,,,,,,,,,,,,,,,,,,,,,,,,,,,,,,,,,,,,,,,,,,,,,,,,,,,,,,,,,,,,,,,,,,,,,,,,,,,,,,,,,,,,,,,,,,,,,,,,,,,,,,,,,,,,,,,,,,,,,,,,,,,,,,3009,2010-05-15_03h37.27.644,eb_03,2023.2.3,119.99116263247103,2010-05-15 03h37.38.331749 -0400,
,,,,,,,,,,,,,,,,,,,,,,,13.328828410070855,13.336593350744806,13.336593350744806,13.336593350744806,42.22230670505087,space,28.88222826179117,None,,,,,,,,,,,,,,,,,,,,,,,,,,,,,,,,,,,,,,,,,,,,,,,,,,,,,,,,,,,,,,,,,,,,,,,,,,,,,,,,,,,,,,,,,,,,,,,,,,,,,,,,,,,,,,,,,,,,,,,,,,,,,3009,2010-05-15_03h37.27.644,eb_03,2023.2.3,119.99116263247103,2010-05-15 03h37.38.331749 -0400,
,,,,,,,,,,,,,,,,,,,,,,,,,,,,,,,42.22233175812289,42.230179404083174,42.230179404083174,42.230179404083174,54.19816309725866,space,11.963673358754022,None,,,,,,,,,,,,,,,,,,,,,,,,,,,,,,,,,,,,,,,,,,,,,,,,,,,,,,,,,,,,,,,,,,,,,,,,,,,,,,,,,,,,,,,,,,,,,,,,,,,,,,,,,,,,,,,,,,,,,3009,2010-05-15_03h37.27.644,eb_03,2023.2.3,119.99116263247103,2010-05-15 03h37.38.331749 -0400,
,,,,,,,,,,,,,,,,,,,,,,,,,,,,,,,,,,,,,,,54.19818815033068,54.206004102685256,54.206004102685256,54.206004102685256,58.50681533900206,space,4.299864653090481,None,,,,,,,,,,,,,,,,,,,,,,,,,,,,,,,,,,,,,,,,,,,,,,,,,,,,,,,,,,,,,,,,,,,,,,,,,,,,,,,,,,,,,,,,,,,,,,,,,,,,,,,,,,,,,3009,2010-05-15_03h37.27.644,eb_03,2023.2.3,119.99116263247103,2010-05-15 03h37.38.331749 -0400,
,,,,,,,,,,,,,,,,,,,,,,,,,,,,,,,,,,,,,,,,,,,,,,,58.50685940825497,58.52292808142374,58.52292808142374,58.52292808142374,63.54071364409174,1,[5.031113792821998],[5.031120433413889],0,,,63.540801480732625,63.58996102589299,63.58996102589299,63.58996102589299,63.58996102589299,63.58996102589299,63.58996102589299,75.57273598780739,18-20,3.2214047947491053,Female,Right Handed,12.000670697685564,75.57276436116081,75.58239107651752,77.57421200568206,77.57421200568206,80.68327282366226,space,3.105737513920758,None,,,,,,,,,,,,,,,,,,,,,,,,,,,,,,,,,,,,,,,,,,,,,,,,,,,,,,,,,,,,,,,,,,,,,,,,,,,,,3009,2010-05-15_03h37.27.644,eb_03,2023.2.3,119.99116263247103,2010-05-15 03h37.38.331749 -0400,
,,,,,,,,,,,,,,,,,,,,,,,,,,,,,,,,,,,,,,,,,,,,,,,,,,,,,,,,,,,,,,,,,,,,,,,,,,,,,,,80.68329998961417,80.69105074362596,80.69105074362596,83.68293445635936,83.68293445635936,100.95128507129266,space,17.2600381289667,None,,,,,,,,,,,,,,,,,,,,,,,,,,,,,,,,,,,,,,,,,,,,,,,,,,,,,,,,,,,,,,,,,,,,3009,2010-05-15_03h37.27.644,eb_03,2023.2.3,119.99116263247103,2010-05-15 03h37.38.331749 -0400,
,,,,,,,,,,,,,,,,,,,,,,,,,,,,,,,,,,,,,,,,,,,,,,,,,,,,,,,,,,,,,,,,,,,,,,,,,,,,,,,,,,,,,,,,100.95131495385431,100.95912969880737,100.95912969880737,103.95097869946039,103.95097869946039,119.62756265682401,k,15.672058106196346,None,,,,,,,,,,,,,,,,,,,,,,,,,,,,,,,,,,,,,,,,,,,,,,,,,,,,,,,,,,,3009,2010-05-15_03h37.27.644,eb_03,2023.2.3,119.99116263247103,2010-05-15 03h37.38.331749 -0400,
,,,,,,,,,,,,,,,,,,,,,,,,,,,,,,,,,,,,,,,,,,,,,,,,,,,,,,,,,,,,,,,,,,,,,,,,,,,,,,,,,,,,,,,,,,,,,,,,,119.62759435045882,119.64368475638912,119.64368475638912,122.62720738624921,122.62720738624921,128.73647255272954,space,6.1058573460322805,None,,,,,,,,,,,,,,,,,,,,,,,,,,,,,,,,,,,,,,,,,,,,,,,,,,3009,2010-05-15_03h37.27.644,eb_03,2023.2.3,119.99116263247103,2010-05-15 03h37.38.331749 -0400,
,,,,,,,,,,,,,,,,,,,,,,,,,,,,,,,,,,,,,,,,,,,,,,,,,,,,,,,,,,,,,,,,,,,,,,,,,,,,,,,,,,,,,,,,,,,,,,,,,,,,,,,,,,128.73650334082777,128.74430208804552,128.74430208804552,131.73617704730714,131.73617704730714,137.02032165721175,space,5.275952257914469,None,,,,,,,,,,,,,,,,,,,,,,,,,,,,,,,,,,,,,,,,,3009,2010-05-15_03h37.27.644,eb_03,2023.2.3,119.99116263247103,2010-05-15 03h37.38.331749 -0400,
,,,,0,0,0,0,0,0,0,0,142.05348044412676,,,,,,,,,,,,,,,,,,,,,,,,,,,,,,,,,,,,,,,,,,,,,,,,,,,,,,,,,,,,,,,,,,,,,,,,,,,,,,,,,,,,,,,,,,,,,,,,,,,,,,,137.02035123793758,137.03650714404648,142.02858373519848,142.03296168270754,12.0,"('k', 'l')",142.03334321369766,142.03335770222475,142.05348044412676,142.05348044412676,142.05348044412676,142.05348044412676,142.05348044412676,142.05348044412676,142.05348044412676,142.05348044412676,143.63761285954388,"['k', 'l']","[1.5186105027387384, 1.5196002497104928]","[None, None]",,,,,,,,,,,,,,,,,,,,,3009,2010-05-15_03h37.27.644,eb_03,2023.2.3,119.99116263247103,2010-05-15 03h37.38.331749 -0400,
,,,,0,0,0,0,1,0,1,0,143.65360003476962,,,,,,,,,,,,,,,,,,,,,,,,,,,,,,,,,,,,,,,,,,,,,,,,,,,,,,,,,,,,,,,,,,,,,,,,,,,,,,,,,,,,,,,,,,,,,,,,,,,,,,,,,,143.64082689600764,14.0,"('j', 'l')",143.64122714134282,143.64123951696092,143.65360003476962,143.65360003476962,143.65360003476962,143.65360003476962,143.65360003476962,143.65360003476962,143.65360003476962,143.65360003476962,145.89591266805655,"['j', 'l']","[2.182474445871776, 2.1984990497876424]","[None, None]",,,,,,,,,,,,,,,,,,,,,3009,2010-05-15_03h37.27.644,eb_03,2023.2.3,119.99116263247103,2010-05-15 03h37.38.331749 -0400,
,,,,0,0,0,0,2,0,2,0,145.9120646501833,,,,,,,,,,,,,,,,,,,,,,,,,,,,,,,,,,,,,,,,,,,,,,,,,,,,,,,,,,,,,,,,,,,,,,,,,,,,,,,,,,,,,,,,,,,,,,,,,,,,,,,,,,145.89820034484728,12.0,"('k', 'l')",145.898553502484,145.89856919838348,145.9120646501833,145.9120646501833,145.9120646501833,145.9120646501833,145.9120646501833,145.9120646501833,145.9120646501833,145.9120646501833,146.90437758530607,"['k', 'l']","[0.9400465081562288, 0.964037080964772]","[None, None]",,,,,,,,,,,,,,,,,,,,,3009,2010-05-15_03h37.27.644,eb_03,2023.2.3,119.99116263247103,2010-05-15 03h37.38.331749 -0400,
,,,,0,0,0,0,3,0,3,0,146.92050089227268,,,,,,,,,,,,,,,,,,,,,,,,,,,,,,,,,,,,,,,,,,,,,,,,,,,,,,,,,,,,,,,,,,,,,,,,,,,,,,,,,,,,,,,,,,,,,,,,,,,,,,,,,,146.9065683701192,10.0,"('h', 'space')",146.90698732979945,146.90699970541755,146.92050089227268,146.92050089227268,146.92050089227268,146.92050089227268,146.92050089227268,146.92050089227268,146.92050089227268,146.92050089227268,154.35559202503646,"['h', 'j', 'h', 'j', 'space', 'h']","[0.9076064121618401, 0.9087407424522098, 4.155620881356299, 4.171615300845588, 7.378621224255767, 7.402639264852041]","[None, None, None, None, None, None]",,,,,,,,,,,,,,,,,,,,,3009,2010-05-15_03h37.27.644,eb_03,2023.2.3,119.99116263247103,2010-05-15 03h37.38.331749 -0400,
,,,,0,0,0,0,4,0,4,0,154.37098185071955,,,,,,,,,,,,,,,,,,,,,,,,,,,,,,,,,,,,,,,,,,,,,,,,,,,,,,,,,,,,,,,,,,,,,,,,,,,,,,,,,,,,,,,,,,,,,,,,,,,,,,,,,,154.35787849445478,14.0,"('j', 'l')",154.35831375370617,154.35832733669668,154.37098185071955,154.37098185071955,154.37098185071955,154.37098185071955,154.37098185071955,154.37098185071955,154.37098185071955,154.37098185071955,157.00504200463183,"['j', 'l']","[2.5601364094181918, 2.5611282692698296]","[None, None]",,,,,,,,,,,,,,,,,,,,,3009,2010-05-15_03h37.27.644,eb_03,2023.2.3,119.99116263247103,2010-05-15 03h37.38.331749 -0400,
,,,,0,0,0,0,5,0,5,0,157.0212075697782,,,,,,,,,,,,,,,,,,,,,,,,,,,,,,,,,,,,,,,,,,,,,,,,,,,,,,,,,,,,,,,,,,,,,,,,,,,,,,,,,,,,,,,,,,,,,,,,,,,,,,,,,,157.00732485193294,12.0,"('k', 'l')",157.00775950748357,157.0077721849375,157.0212075697782,157.0212075697782,157.0212075697782,157.0212075697782,157.0212075697782,157.0212075697782,157.0212075697782,157.0212075697782,157.88836143302615,"['k', 'l']","[0.8059268909564707, 0.821897162910318]","[None, None]",,,,,,,,,,,,,,,,,,,,,3009,2010-05-15_03h37.27.644,eb_03,2023.2.3,119.99116263247103,2010-05-15 03h37.38.331749 -0400,
,,,,0,0,0,0,6,0,6,0,157.904584348551,,,,,,,,,,,,,,,,,,,,,,,,,,,,,,,,,,,,,,,,,,,,,,,,,,,,,,,,,,,,,,,,,,,,,,,,,,,,,,,,,,,,,,,,,,,,,,,,,,,,,,,,,,157.89055825473042,14.0,"('j', 'l')",157.89094008755637,157.89095306687523,157.904584348551,157.904584348551,157.904584348551,157.904584348551,157.904584348551,157.904584348551,157.904584348551,157.904584348551,159.872324755328,"['j', 'j', 'l']","[1.3385308883152902, 1.9305287585011683, 1.9315157888631802]","[None, None, None]",,,,,,,,,,,,,,,,,,,,,3009,2010-05-15_03h37.27.644,eb_03,2023.2.3,119.99116263247103,2010-05-15 03h37.38.331749 -0400,
,,,,0,0,0,0,7,0,7,0,159.88804359114147,,,,,,,,,,,,,,,,,,,,,,,,,,,,,,,,,,,,,,,,,,,,,,,,,,,,,,,,,,,,,,,,,,,,,,,,,,,,,,,,,,,,,,,,,,,,,,,,,,,,,,,,,,159.87457168317633,13.0,"('j', 'space')",159.87494446069468,159.87495743998443,159.88804359114147,159.88804359114147,159.88804359114147,159.88804359114147,159.88804359114147,159.88804359114147,159.88804359114147,159.88804359114147,161.99704071998713,"['j', 'space']","[2.0350748935888987, 2.0360516612417996]","[None, None]",,,,,,,,,,,,,,,,,,,,,3009,2010-05-15_03h37.27.644,eb_03,2023.2.3,119.99116263247103,2010-05-15 03h37.38.331749 -0400,
,,,,0,0,0,0,8,0,8,0,162.01317791178008,,,,,,,,,,,,,,,,,,,,,,,,,,,,,,,,,,,,,,,,,,,,,,,,,,,,,,,,,,,,,,,,,,,,,,,,,,,,,,,,,,,,,,,,,,,,,,,,,,,,,,,,,,161.9992647076724,13.0,"('j', 'space')",161.99964291838114,161.9996558976709,162.01317791178008,162.01317791178008,162.01317791178008,162.01317791178008,162.01317791178008,162.01317791178008,162.01317791178008,162.01317791178008,164.42229294095887,"['j', 'space']","[2.3499617261695676, 2.405967398430221]","[None, None]",,,,,,,,,,,,,,,,,,,,,3009,2010-05-15_03h37.27.644,eb_03,2023.2.3,119.99116263247103,2010-05-15 03h37.38.331749 -0400,
,,,,0,0,0,0,9,0,9,0,164.4383136209217,,,,,,,,,,,,,,,,,,,,,,,,,,,,,,,,,,,,,,,,,,,,,,,,,,,,,,,,,,,,,,,,,,,,,,,,,,,,,,,,,,,,,,,,,,,,,,,,,,,,,,,,,,164.42452236183453,11.0,"('h',)",164.42487310472643,164.4248863858811,164.4383136209217,164.4383136209217,164.4383136209217,164.4383136209217,164.4383136209217,164.4383136209217,164.4383136209217,164.4383136209217,165.5638955764298,['h'],[1.0608436302281916],[None],,,,,,,,,,,,,,,,,,,,,3009,2010-05-15_03h37.27.644,eb_03,2023.2.3,119.99116263247103,2010-05-15 03h37.38.331749 -0400,
,,,,0,0,0,0,10,0,10,0,165.5801293583354,,,,,,,,,,,,,,,,,,,,,,,,,,,,,,,,,,,,,,,,,,,,,,,,,,,,,,,,,,,,,,,,,,,,,,,,,,,,,,,,,,,,,,,,,,,,,,,,,,,,,,,,,,165.5661108106142,14.0,"('j', 'l')",165.56650049140444,165.56651316885836,165.5801293583354,165.5801293583354,165.5801293583354,165.5801293583354,165.5801293583354,165.5801293583354,165.5801293583354,165.5801293583354,167.69745798932854,"['j', 'l']","[2.0549969091371167, 2.079032758541871]","[None, None]",,,,,,,,,,,,,,,,,,,,,3009,2010-05-15_03h37.27.644,eb_03,2023.2.3,119.99116263247103,2010-05-15 03h37.38.331749 -0400,
,,,,0,0,0,0,11,0,11,0,167.71357193912263,,,,,,,,,,,,,,,,,,,,,,,,,,,,,,,,,,,,,,,,,,,,,,,,,,,,,,,,,,,,,,,,,,,,,,,,,,,,,,,,,,,,,,,,,,,,,,,,,,,,,,,,,,167.6997009931947,11.0,"('h',)",167.70011301044724,167.7001259897661,167.71357193912263,167.71357193912263,167.71357193912263,167.71357193912263,167.71357193912263,167.71357193912263,167.71357193912263,167.71357193912263,169.34757866663858,['h'],[1.5765911412308924],[None],,,,,,,,,,,,,,,,,,,,,3009,2010-05-15_03h37.27.644,eb_03,2023.2.3,119.99116263247103,2010-05-15 03h37.38.331749 -0400,
,,,,0,0,0,0,12,0,12,0,169.36371797134052,,,,,,,,,,,,,,,,,,,,,,,,,,,,,,,,,,,,,,,,,,,,,,,,,,,,,,,,,,,,,,,,,,,,,,,,,,,,,,,,,,,,,,,,,,,,,,,,,,,,,,,,,,169.3497679422435,13.0,"('j', 'space')",169.35018841113197,169.3502010885859,169.36371797134052,169.36371797134052,169.36371797134052,169.36371797134052,169.36371797134052,169.36371797134052,169.36371797134052,169.36371797134052,170.6475779422035,"['j', 'space']","[1.222431668516947, 1.223417793342378]","[None, None]",,,,,,,,,,,,,,,,,,,,,3009,2010-05-15_03h37.27.644,eb_03,2023.2.3,119.99116263247103,2010-05-15 03h37.38.331749 -0400,
,,,,0,0,0,0,13,0,13,0,170.6637540718948,,,,,,,,,,,,,,,,,,,,,,,,,,,,,,,,,,,,,,,,,,,,,,,,,,,,,,,,,,,,,,,,,,,,,,,,,,,,,,,,,,,,,,,,,,,,,,,,,,,,,,,,,,170.64980947598815,14.0,"('j', 'l')",170.65018255534233,170.65019523279625,170.6637540718948,170.6637540718948,170.6637540718948,170.6637540718948,170.6637540718948,170.6637540718948,170.6637540718948,170.6637540718948,172.11439742249786,"['j', 'l']","[1.3784192905004602, 1.3794168854074087]","[None, None]",,,,,,,,,,,,,,,,,,,,,3009,2010-05-15_03h37.27.644,eb_03,2023.2.3,119.99116263247103,2010-05-15 03h37.38.331749 -0400,
,,,,0,0,0,0,14,0,14,0,172.13055121572688,,,,,,,,,,,,,,,,,,,,,,,,,,,,,,,,,,,,,,,,,,,,,,,,,,,,,,,,,,,,,,,,,,,,,,,,,,,,,,,,,,,,,,,,,,,,,,,,,,,,,,,,,,172.11660692165606,11.0,"('h',)",172.11704308644403,172.11705606576288,172.13055121572688,172.13055121572688,172.13055121572688,172.13055121572688,172.13055121572688,172.13055121572688,172.13055121572688,172.13055121572688,173.7144264599192,['h'],[1.5196259064250626],[None],,,,,,,,,,,,,,,,,,,,,3009,2010-05-15_03h37.27.644,eb_03,2023.2.3,119.99116263247103,2010-05-15 03h37.38.331749 -0400,
,,,,0,0,0,0,15,0,15,0,173.730597156391,,,,,,,,,,,,,,,,,,,,,,,,,,,,,,,,,,,,,,,,,,,,,,,,,,,,,,,,,,,,,,,,,,,,,,,,,,,,,,,,,,,,,,,,,,,,,,,,,,,,,,,,,,173.7166214705503,13.0,"('j', 'space')",173.71700330340536,173.71701567899436,173.730597156391,173.730597156391,173.730597156391,173.730597156391,173.730597156391,173.730597156391,173.730597156391,173.730597156391,175.08124014479108,"['j', 'space']","[1.2875786907679867, 1.288577191211516]","[None, None]",,,,,,,,,,,,,,,,,,,,,3009,2010-05-15_03h37.27.644,eb_03,2023.2.3,119.99116263247103,2010-05-15 03h37.38.331749 -0400,
,,,,0,0,0,0,16,0,16,0,175.09736888494808,,,,,,,,,,,,,,,,,,,,,,,,,,,,,,,,,,,,,,,,,,,,,,,,,,,,,,,,,,,,,,,,,,,,,,,,,,,,,,,,,,,,,,,,,,,,,,,,,,,,,,,,,,175.08347892283928,13.0,"('j', 'space')",175.08391055997345,175.08392323742737,175.09736888494808,175.09736888494808,175.09736888494808,175.09736888494808,175.09736888494808,175.09736888494808,175.09736888494808,175.09736888494808,176.9813955341524,"['j', 'space']","[1.8088940189045388, 1.8098164546245243]","[None, None]",,,,,,,,,,,,,,,,,,,,,3009,2010-05-15_03h37.27.644,eb_03,2023.2.3,119.99116263247103,2010-05-15 03h37.38.331749 -0400,
,,,,0,0,0,0,17,0,17,0,176.99752487801015,,,,,,,,,,,,,,,,,,,,,,,,,,,,,,,,,,,,,,,,,,,,,,,,,,,,,,,,,,,,,,,,,,,,,,,,,,,,,,,,,,,,,,,,,,,,,,,,,,,,,,,,,,176.98363461403642,11.0,"('h',)",176.98400799525552,176.98402067270945,176.99752487801015,176.99752487801015,176.99752487801015,176.99752487801015,176.99752487801015,176.99752487801015,176.99752487801015,176.99752487801015,178.0898653412878,['h'],[1.0286362560873386],[None],,,,,,,,,,,,,,,,,,,,,3009,2010-05-15_03h37.27.644,eb_03,2023.2.3,119.99116263247103,2010-05-15 03h37.38.331749 -0400,
,,,,0,0,0,0,18,0,18,0,178.1059826113633,,,,,,,,,,,,,,,,,,,,,,,,,,,,,,,,,,,,,,,,,,,,,,,,,,,,,,,,,,,,,,,,,,,,,,,,,,,,,,,,,,,,,,,,,,,,,,,,,,,,,,,,,,178.0920567298017,12.0,"('k', 'l')",178.0926094064489,178.09263144107535,178.1059826113633,178.1059826113633,178.1059826113633,178.1059826113633,178.1059826113633,178.1059826113633,178.1059826113633,178.1059826113633,179.54821386744152,"['k', 'l']","[1.376204358151881, 1.4082547733560205]","[None, None]",,,,,,,,,,,,,,,,,,,,,3009,2010-05-15_03h37.27.644,eb_03,2023.2.3,119.99116263247103,2010-05-15 03h37.38.331749 -0400,
,,,,0,0,0,0,19,0,19,0,179.56437369756168,,,,,,,,,,,,,,,,,,,,,,,,,,,,,,,,,,,,,,,,,,,,,,,,,,,,,,,,,,,,,,,,,,,,,,,,,,,,,,,,,,,,,,,,,,,,,,,,,,,,,,,,,,179.5504411754082,10.0,"('h', 'space')",179.55100592580857,179.55102162170806,179.56437369756168,179.56437369756168,179.56437369756168,179.56437369756168,179.56437369756168,179.56437369756168,179.56437369756168,179.56437369756168,180.76493796499562,"['h', 'space']","[1.1418100023875013, 1.1428157470945735]","[None, None]",,,,,,,,,,,,,,,,,,,,,3009,2010-05-15_03h37.27.644,eb_03,2023.2.3,119.99116263247103,2010-05-15 03h37.38.331749 -0400,
,,,,0,0,0,0,20,0,20,0,180.7810980969516,,,,,,,,,,,,,,,,,,,,,,,,,,,,,,,,,,,,,,,,,,,,,,,,,,,,,,,,,,,,,,,,,,,,,,,,,,,,,,,,,,,,,,,,,,,,,,,,,,,,,,,,,,180.76721175696002,7.0,"('h', 'k')",180.76777560182381,180.7677912977233,180.7810980969516,180.7810980969516,180.7810980969516,180.7810980969516,180.7810980969516,180.7810980969516,180.7810980969516,180.7810980969516,184.74863355155685,"['h', 'k']","[3.908082722191466, 3.9090682433452457]","[None, None]",,,,,,,,,,,,,,,,,,,,,3009,2010-05-15_03h37.27.644,eb_03,2023.2.3,119.99116263247103,2010-05-15 03h37.38.331749 -0400,
,,,,0,0,0,0,21,0,21,0,184.76469709337107,,,,,,,,,,,,,,,,,,,,,,,,,,,,,,,,,,,,,,,,,,,,,,,,,,,,,,,,,,,,,,,,,,,,,,,,,,,,,,,,,,,,,,,,,,,,,,,,,,,,,,,,,,184.75083218433429,9.0,"('h', 'l')",184.75151284286403,184.7515282369277,184.76469709337107,184.76469709337107,184.76469709337107,184.76469709337107,184.76469709337107,184.76469709337107,184.76469709337107,184.76469709337107,186.3570013353601,"['l', 'h']","[1.5324899003026076, 1.5485305019537918]","[None, None]",,,,,,,,,,,,,,,,,,,,,3009,2010-05-15_03h37.27.644,eb_03,2023.2.3,119.99116263247103,2010-05-15 03h37.38.331749 -0400,
,,,,0,0,0,0,22,0,22,0,186.37319376462256,,,,,,,,,,,,,,,,,,,,,,,,,,,,,,,,,,,,,,,,,,,,,,,,,,,,,,,,,,,,,,,,,,,,,,,,,,,,,,,,,,,,,,,,,,,,,,,,,,,,,,,,,,186.3592162677087,10.0,"('h', 'space')",186.3597339304397,186.35974932447425,186.37319376462256,186.37319376462256,186.37319376462256,186.37319376462256,186.37319376462256,186.37319376462256,186.37319376462256,186.37319376462256,187.95714809198398,"['h', 'space']","[1.5240337365248706, 1.5250038636149839]","[None, None]",,,,,,,,,,,,,,,,,,,,,3009,2010-05-15_03h37.27.644,eb_03,2023.2.3,119.99116263247103,2010-05-15 03h37.38.331749 -0400,
,,,,0,0,0,0,23,0,23,0,187.9732285370701,,,,,,,,,,,,,,,,,,,,,,,,,,,,,,,,,,,,,,,,,,,,,,,,,,,,,,,,,,,,,,,,,,,,,,,,,,,,,,,,,,,,,,,,,,,,,,,,,,,,,,,,,,187.9594028677675,11.0,"('h',)",187.9600874503085,187.96010284434306,187.9732285370701,187.9732285370701,187.9732285370701,187.9732285370701,187.9732285370701,187.9732285370701,187.9732285370701,187.9732285370701,189.21555173490196,['h'],[1.179966724710539],[None],,,,,,,,,,,,,,,,,,,,,3009,2010-05-15_03h37.27.644,eb_03,2023.2.3,119.99116263247103,2010-05-15 03h37.38.331749 -0400,
,,,,0,0,0,0,24,0,24,0,189.23166417545872,,,,,,,,,,,,,,,,,,,,,,,,,,,,,,,,,,,,,,,,,,,,,,,,,,,,,,,,,,,,,,,,,,,,,,,,,,,,,,,,,,,,,,,,,,,,,,,,,,,,,,,,,,189.21776032852358,5.0,"('h', 'j')",189.21836371495738,189.21837910902104,189.23166417545872,189.23166417545872,189.23166417545872,189.23166417545872,189.23166417545872,189.23166417545872,189.23166417545872,189.23166417545872,190.09887176696793,"['h', 'j']","[0.7935552049020771, 0.7945479702902958]","[None, None]",,,,,,,,,,,,,,,,,,,,,3009,2010-05-15_03h37.27.644,eb_03,2023.2.3,119.99116263247103,2010-05-15 03h37.38.331749 -0400,
,,,,0,0,0,0,25,0,25,0,190.1151085673191,,,,,,,,,,,,,,,,,,,,,,,,,,,,,,,,,,,,,,,,,,,,,,,,,,,,,,,,,,,,,,,,,,,,,,,,,,,,,,,,,,,,,,,,,,,,,,,,,,,,,,,,,,190.1010788513522,7.0,"('h', 'k')",190.10156572595588,190.10158112001955,190.1151085673191,190.1151085673191,190.1151085673191,190.1151085673191,190.1151085673191,190.1151085673191,190.1151085673191,190.1151085673191,191.09898163823527,"['h', 'k']","[0.9101207738858648, 0.9111093134561088]","[None, None]",,,,,,,,,,,,,,,,,,,,,3009,2010-05-15_03h37.27.644,eb_03,2023.2.3,119.99116263247103,2010-05-15 03h37.38.331749 -0400,
,,,,0,0,0,0,26,0,26,0,191.11512124477304,,,,,,,,,,,,,,,,,,,,,,,,,,,,,,,,,,,,,,,,,,,,,,,,,,,,,,,,,,,,,,,,,,,,,,,,,,,,,,,,,,,,,,,,,,,,,,,,,,,,,,,,,,191.10119989086525,6.0,"('j',)",191.10189352871384,191.1019179780851,191.11512124477304,191.11512124477304,191.11512124477304,191.11512124477304,191.11512124477304,191.11512124477304,191.11512124477304,191.11512124477304,192.45731501179398,['j'],[1.2700807855580933],[None],,,,,,,,,,,,,,,,,,,,,3009,2010-05-15_03h37.27.644,eb_03,2023.2.3,119.99116263247103,2010-05-15 03h37.38.331749 -0400,
,,,,0,0,0,0,27,0,27,0,192.47355966010946,,,,,,,,,,,,,,,,,,,,,,,,,,,,,,,,,,,,,,,,,,,,,,,,,,,,,,,,,,,,,,,,,,,,,,,,,,,,,,,,,,,,,,,,,,,,,,,,,,,,,,,,,,192.4595112298266,9.0,"('h', 'l')",192.46019188838545,192.46021694142837,192.47355966010946,192.47355966010946,192.47355966010946,192.47355966010946,192.47355966010946,192.47355966010946,192.47355966010946,192.47355966010946,194.53252461238299,"['h', 'l']","[1.9837245635862928, 1.9846642044140026]","[None, None]",,,,,,,,,,,,,,,,,,,,,3009,2010-05-15_03h37.27.644,eb_03,2023.2.3,119.99116263247103,2010-05-15 03h37.38.331749 -0400,
,,,,0,0,0,0,28,0,28,0,194.5486986291653,,,,,,,,,,,,,,,,,,,,,,,,,,,,,,,,,,,,,,,,,,,,,,,,,,,,,,,,,,,,,,,,,,,,,,,,,,,,,,,,,,,,,,,,,,,,,,,,,,,,,,,,,,194.5347579572117,4.0,"('j', 'k')",194.53540450739092,194.53541990142548,194.5486986291653,194.5486986291653,194.5486986291653,194.5486986291653,194.5486986291653,194.5486986291653,194.5486986291653,194.5486986291653,196.3659012100543,"['j', 'k']","[1.7565168151340913, 1.7575074676133227]","[None, None]",,,,,,,,,,,,,,,,,,,,,3009,2010-05-15_03h37.27.644,eb_03,2023.2.3,119.99116263247103,2010-05-15 03h37.38.331749 -0400,
,,,,0,0,0,0,29,0,29,0,196.3821757409023,,,,,,,,,,,,,,,,,,,,,,,,,,,,,,,,,,,,,,,,,,,,,,,,,,,,,,,,,,,,,,,,,,,,,,,,,,,,,,,,,,,,,,,,,,,,,,,,,,,,,,,,,,196.3681119165849,5.0,"('h', 'j')",196.3686162981321,196.3686319940316,196.3821757409023,196.3821757409023,196.3821757409023,196.3821757409023,196.3821757409023,196.3821757409023,196.3821757409023,196.3821757409023,197.73284016025718,"['h', 'j']","[1.291052615037188, 1.3221000021731015]","[None, None]",,,,,,,,,,,,,,,,,,,,,3009,2010-05-15_03h37.27.644,eb_03,2023.2.3,119.99116263247103,2010-05-15 03h37.38.331749 -0400,
,,,,0,0,0,0,30,0,30,0,197.74894565841532,,,,,,,,,,,,,,,,,,,,,,,,,,,,,,,,,,,,,,,,,,,,,,,,,,,,,,,,,,,,,,,,,,,,,,,,,,,,,,,,,,,,,,,,,,,,,,,,,,,,,,,,,,197.7351196872478,7.0,"('h', 'k')",197.73563553890563,197.73565153664094,197.74894565841532,197.74894565841532,197.74894565841532,197.74894565841532,197.74894565841532,197.74894565841532,197.74894565841532,197.74894565841532,198.68283726254595,"['h', 'k']","[0.8593234223953914, 0.860262459522346]","[None, None]",,,,,,,,,,,,,,,,,,,,,3009,2010-05-15_03h37.27.644,eb_03,2023.2.3,119.99116263247103,2010-05-15 03h37.38.331749 -0400,
,,,,0,0,0,0,31,0,31,0,198.69902486231877,,,,,,,,,,,,,,,,,,,,,,,,,,,,,,,,,,,,,,,,,,,,,,,,,,,,,,,,,,,,,,,,,,,,,,,,,,,,,,,,,,,,,,,,,,,,,,,,,,,,,,,,,,198.68503468795097,6.0,"('j',)",198.68560819182312,198.6856238877226,198.69902486231877,198.69902486231877,198.69902486231877,198.69902486231877,198.69902486231877,198.69902486231877,198.69902486231877,198.69902486231877,201.0912728405674,['j'],[2.333219940541312],[None],,,,,,,,,,,,,,,,,,,,,3009,2010-05-15_03h37.27.644,eb_03,2023.2.3,119.99116263247103,2010-05-15 03h37.38.331749 -0400,
,,,,0,0,0,0,32,0,32,0,201.10747462700238,,,,,,,,,,,,,,,,,,,,,,,,,,,,,,,,,,,,,,,,,,,,,,,,,,,,,,,,,,,,,,,,,,,,,,,,,,,,,,,,,,,,,,,,,,,,,,,,,,,,,,,,,,201.09353486058535,0.0,"('l', 'space')",201.09403139422648,201.09404799563345,201.10747462700238,201.10747462700238,201.10747462700238,201.10747462700238,201.10747462700238,201.10747462700238,201.10747462700238,201.10747462700238,202.54976806297782,"['l', 'space']","[1.380782428313978, 1.3817760992387775]","[None, None]",,,,,,,,,,,,,,,,,,,,,3009,2010-05-15_03h37.27.644,eb_03,2023.2.3,119.99116263247103,2010-05-15 03h37.38.331749 -0400,
,,,,0,0,0,0,33,0,33,0,202.5659179321956,,,,,,,,,,,,,,,,,,,,,,,,,,,,,,,,,,,,,,,,,,,,,,,,,,,,,,,,,,,,,,,,,,,,,,,,,,,,,,,,,,,,,,,,,,,,,,,,,,,,,,,,,,202.55199386170716,14.0,"('j', 'l')",202.5526259233593,202.5526416192588,202.5659179321956,202.5659179321956,202.5659179321956,202.5659179321956,202.5659179321956,202.5659179321956,202.5659179321956,202.5659179321956,205.7415531933948,"['j', 'l']","[3.11432558359229, 3.1153105010453146]","[None, None]",,,,,,,,,,,,,,,,,,,,,3009,2010-05-15_03h37.27.644,eb_03,2023.2.3,119.99116263247103,2010-05-15 03h37.38.331749 -0400,
,,,,0,0,0,0,34,0,34,0,205.75775497982977,,,,,,,,,,,,,,,,,,,,,,,,,,,,,,,,,,,,,,,,,,,,,,,,,,,,,,,,,,,,,,,,,,,,,,,,,,,,,,,,,,,,,,,,,,,,,,,,,,,,,,,,,,205.7438112894597,11.0,"('h',)",205.74429454194615,205.7443099359807,205.75775497982977,205.75775497982977,205.75775497982977,205.75775497982977,205.75775497982977,205.75775497982977,205.75775497982977,205.75775497982977,206.83339078433346,['h'],[1.0024669722188264],[None],,,,,,,,,,,,,,,,,,,,,3009,2010-05-15_03h37.27.644,eb_03,2023.2.3,119.99116263247103,2010-05-15 03h37.38.331749 -0400,
,,,,0,0,0,0,35,0,35,0,206.84950805440894,,,,,,,,,,,,,,,,,,,,,,,,,,,,,,,,,,,,,,,,,,,,,,,,,,,,,,,,,,,,,,,,,,,,,,,,,,,,,,,,,,,,,,,,,,,,,,,,,,,,,,,,,,206.83558398392051,12.0,"('k', 'l')",206.8361973312276,206.83622298797127,206.84950805440894,206.84950805440894,206.84950805440894,206.84950805440894,206.84950805440894,206.84950805440894,206.84950805440894,206.84950805440894,207.77510407587397,"['k', 'l']","[0.8627544848131947, 0.8637258192757145]","[None, None]",,,,,,,,,,,,,,,,,,,,,3009,2010-05-15_03h37.27.644,eb_03,2023.2.3,119.99116263247103,2010-05-15 03h37.38.331749 -0400,
,,,,0,0,0,0,36,0,36,0,207.79125756723806,,,,,,,,,,,,,,,,,,,,,,,,,,,,,,,,,,,,,,,,,,,,,,,,,,,,,,,,,,,,,,,,,,,,,,,,,,,,,,,,,,,,,,,,,,,,,,,,,,,,,,,,,,207.77743069056305,5.0,"('h', 'j')",207.7779851782543,207.77800117598963,207.79125756723806,207.79125756723806,207.79125756723806,207.79125756723806,207.79125756723806,207.79125756723806,207.79125756723806,207.79125756723806,210.29181145125767,"['j', 'h']","[2.4409792065562215, 2.464967364590848]","[None, None]",,,,,,,,,,,,,,,,,,,,,3009,2010-05-15_03h37.27.644,eb_03,2023.2.3,119.99116263247103,2010-05-15 03h37.38.331749 -0400,
,,,,0,0,0,0,37,0,37,0,210.30802893359214,,,,,,,,,,,,,,,,,,,,,,,,,,,,,,,,,,,,,,,,,,,,,,,,,,,,,,,,,,,,,,,,,,,,,,,,,,,,,,,,,,,,,,,,,,,,,,,,,,,,,,,,,,210.29408373398473,4.0,"('j', 'k')",210.29450027892017,210.29451386191067,210.30802893359214,210.30802893359214,210.30802893359214,210.30802893359214,210.30802893359214,210.30802893359214,210.30802893359214,210.30802893359214,211.76692198659293,"['j', 'k']","[1.3962057586759329, 1.397206673893379]","[None, None]",,,,,,,,,,,,,,,,,,,,,3009,2010-05-15_03h37.27.644,eb_03,2023.2.3,119.99116263247103,2010-05-15 03h37.38.331749 -0400,
,,,,0,0,0,0,38,0,38,0,211.7831608998531,,,,,,,,,,,,,,,,,,,,,,,,,,,,,,,,,,,,,,,,,,,,,,,,,,,,,,,,,,,,,,,,,,,,,,,,,,,,,,,,,,,,,,,,,,,,,,,,,,,,,,,,,,211.76924316806253,5.0,"('h', 'j')",211.7698190867086,211.76983327337075,211.7831608998531,211.7831608998531,211.7831608998531,211.7831608998531,211.7831608998531,211.7831608998531,211.7831608998531,211.7831608998531,212.76699473100598,"['h', 'j']","[0.9211003547243308, 0.9220882906229235]","[None, None]",,,,,,,,,,,,,,,,,,,,,3009,2010-05-15_03h37.27.644,eb_03,2023.2.3,119.99116263247103,2010-05-15 03h37.38.331749 -0400,
,,,,0,0,0,0,39,0,39,0,212.7832239852578,,,,,,,,,,,,,,,,,,,,,,,,,,,,,,,,,,,,,,,,,,,,,,,,,,,,,,,,,,,,,,,,,,,,,,,,,,,,,,,,,,,,,,,,,,,,,,,,,,,,,,,,,,212.7692754653981,7.0,"('h', 'k')",212.76987854999606,212.7698924348224,212.7832239852578,212.7832239852578,212.7832239852578,212.7832239852578,212.7832239852578,212.7832239852578,212.7832239852578,212.7832239852578,215.50889927099342,"['h', 'k']","[2.664042333024554, 2.665001291898079]","[None, None]",,,,,,,,,,,,,,,,,,,,,3009,2010-05-15_03h37.27.644,eb_03,2023.2.3,119.99116263247103,2010-05-15 03h37.38.331749 -0400,
,,,,0,0,0,0,40,0,40,0,215.52506574167637,,,,,,,,,,,,,,,,,,,,,,,,,,,,,,,,,,,,,,,,,,,,,,,,,,,,,,,,,,,,,,,,,,,,,,,,,,,,,,,,,,,,,,,,,,,,,,,,,,,,,,,,,,215.51117547770264,13.0,"('j', 'space')",215.51169102752465,215.5117052141868,215.52506574167637,215.52506574167637,215.52506574167637,215.52506574167637,215.52506574167637,215.52506574167637,215.52506574167637,215.52506574167637,218.55913670160226,"['j', 'space']","[2.9622036796063185, 2.9631967468594667]","[None, None]",,,,,,,,,,,,,,,,,,,,,3009,2010-05-15_03h37.27.644,eb_03,2023.2.3,119.99116263247103,2010-05-15 03h37.38.331749 -0400,
,,,,0,0,0,0,41,0,41,0,218.57529049483128,,,,,,,,,,,,,,,,,,,,,,,,,,,,,,,,,,,,,,,,,,,,,,,,,,,,,,,,,,,,,,,,,,,,,,,,,,,,,,,,,,,,,,,,,,,,,,,,,,,,,,,,,,218.56147267346387,11.0,"('h',)",218.5618360938097,218.561854204454,218.57529049483128,218.57529049483128,218.57529049483128,218.57529049483128,218.57529049483128,218.57529049483128,218.57529049483128,218.57529049483128,219.69255151273683,['h'],[1.0559613011719193],[None],,,,,,,,,,,,,,,,,,,,,3009,2010-05-15_03h37.27.644,eb_03,2023.2.3,119.99116263247103,2010-05-15 03h37.38.331749 -0400,
,,,,0,0,0,0,42,0,42,0,219.7086865916208,,,,,,,,,,,,,,,,,,,,,,,,,,,,,,,,,,,,,,,,,,,,,,,,,,,,,,,,,,,,,,,,,,,,,,,,,,,,,,,,,,,,,,,,,,,,,,,,,,,,,,,,,,219.69483224709984,12.0,"('k', 'l')",219.6952807875059,219.69530342583312,219.7086865916208,219.7086865916208,219.7086865916208,219.7086865916208,219.7086865916208,219.7086865916208,219.7086865916208,219.7086865916208,221.1099799334188,"['k', 'l', 'k']","[0.8185726514784619, 1.3545751121127978, 1.3865724027564283]","[None, None, None]",,,,,,,,,,,,,,,,,,,,,3009,2010-05-15_03h37.27.644,eb_03,2023.2.3,119.99116263247103,2010-05-15 03h37.38.331749 -0400,
,,,,0,0,0,0,43,0,43,0,221.12551011663163,,,,,,,,,,,,,,,,,,,,,,,,,,,,,,,,,,,,,,,,,,,,,,,,,,,,,,,,,,,,,,,,,,,,,,,,,,,,,,,,,,,,,,,,,,,,,,,,,,,,,,,,,,221.11225281984662,14.0,"('j', 'l')",221.1127342612599,221.1127490516228,221.12551011663163,221.12551011663163,221.12551011663163,221.12551011663163,221.12551011663163,221.12551011663163,221.12551011663163,221.12551011663163,222.96780198300257,"['l', 'j']","[1.7697732063825242, 1.7857558539835736]","[None, None]",,,,,,,,,,,,,,,,,,,,,3009,2010-05-15_03h37.27.644,eb_03,2023.2.3,119.99116263247103,2010-05-15 03h37.38.331749 -0400,
,,,,0,0,0,0,44,0,44,0,222.98395426699426,,,,,,,,,,,,,,,,,,,,,,,,,,,,,,,,,,,,,,,,,,,,,,,,,,,,,,,,,,,,,,,,,,,,,,,,,,,,,,,,,,,,,,,,,,,,,,,,,,,,,,,,,,222.97007517126622,2.0,"('k', 'space')",222.97062965898658,222.97065501389443,222.98395426699426,222.98395426699426,222.98395426699426,222.98395426699426,222.98395426699426,222.98395426699426,222.98395426699426,222.98395426699426,226.0853425085952,"['k', 'k', 'space']","[2.575332451146096, 3.0873050992377102, 3.088295449881116]","[None, None, None]",,,,,,,,,,,,,,,,,,,,,3009,2010-05-15_03h37.27.644,eb_03,2023.2.3,119.99116263247103,2010-05-15 03h37.38.331749 -0400,
,,,,0,0,0,0,45,0,45,0,226.10078696807614,,,,,,,,,,,,,,,,,,,,,,,,,,,,,,,,,,,,,,,,,,,,,,,,,,,,,,,,,,,,,,,,,,,,,,,,,,,,,,,,,,,,,,,,,,,,,,,,,,,,,,,,,,226.08761116920505,1.0,"('l',)",226.08816143107833,226.08818618231453,226.10078696807614,226.10078696807614,226.10078696807614,226.10078696807614,226.10078696807614,226.10078696807614,226.10078696807614,226.10078696807614,227.12638999230694,['l'],[0.9625046182190999],[None],,,,,,,,,,,,,,,,,,,,,3009,2010-05-15_03h37.27.644,eb_03,2023.2.3,119.99116263247103,2010-05-15 03h37.38.331749 -0400,
,,,,0,0,0,0,46,0,46,0,227.1425283914723,,,,,,,,,,,,,,,,,,,,,,,,,,,,,,,,,,,,,,,,,,,,,,,,,,,,,,,,,,,,,,,,,,,,,,,,,,,,,,,,,,,,,,,,,,,,,,,,,,,,,,,,,,227.1286565400078,2.0,"('k', 'space')",227.12921132953488,227.12922793097096,227.1425283914723,227.1425283914723,227.1425283914723,227.1425283914723,227.1425283914723,227.1425283914723,227.1425283914723,227.1425283914723,228.7765019161161,"['k', 'space']","[1.5607524733059108, 1.5617404092045035]","[None, None]",,,,,,,,,,,,,,,,,,,,,3009,2010-05-15_03h37.27.644,eb_03,2023.2.3,119.99116263247103,2010-05-15 03h37.38.331749 -0400,
,,,,0,0,0,0,47,0,47,0,228.79263125994476,,,,,,,,,,,,,,,,,,,,,,,,,,,,,,,,,,,,,,,,,,,,,,,,,,,,,,,,,,,,,,,,,,,,,,,,,,,,,,,,,,,,,,,,,,,,,,,,,,,,,,,,,,228.77893508179113,1.0,"('l',)",228.77944489655783,228.77945878138416,228.79263125994476,228.79263125994476,228.79263125994476,228.79263125994476,228.79263125994476,228.79263125994476,228.79263125994476,228.79263125994476,229.46812616361422,['l'],[0.6146410107321572],[None],,,,,,,,,,,,,,,,,,,,,3009,2010-05-15_03h37.27.644,eb_03,2023.2.3,119.99116263247103,2010-05-15 03h37.38.331749 -0400,
,,,,0,0,0,0,48,0,48,0,229.48434636255843,,,,,,,,,,,,,,,,,,,,,,,,,,,,,,,,,,,,,,,,,,,,,,,,,,,,,,,,,,,,,,,,,,,,,,,,,,,,,,,,,,,,,,,,,,,,,,,,,,,,,,,,,,229.4704189717595,2.0,"('k', 'space')",229.47099821068696,229.4710133028857,229.48434636255843,229.48434636255843,229.48434636255843,229.48434636255843,229.48434636255843,229.48434636255843,229.48434636255843,229.48434636255843,230.36824563352275,"['space', 'k']","[0.8099854873435106, 0.8419296533975285]","[None, None]",,,,,,,,,,,,,,,,,,,,,3009,2010-05-15_03h37.27.644,eb_03,2023.2.3,119.99116263247103,2010-05-15 03h37.38.331749 -0400,
,,,,0,0,0,0,49,0,49,0,230.38441693369532,,,,,,,,,,,,,,,,,,,,,,,,,,,,,,,,,,,,,,,,,,,,,,,,,,,,,,,,,,,,,,,,,,,,,,,,,,,,,,,,,,,,,,,,,,,,,,,,,,,,,,,,,,230.37056198550272,3.0,"('space',)",230.37111979350448,230.3711345838674,230.38441693369532,230.38441693369532,230.38441693369532,230.38441693369532,230.38441693369532,230.38441693369532,230.38441693369532,230.38441693369532,231.69335502185277,['space'],[1.2458740923611913],[None],,,,,,,,,,,,,,,,,,,,,3009,2010-05-15_03h37.27.644,eb_03,2023.2.3,119.99116263247103,2010-05-15 03h37.38.331749 -0400,
,,,,0,0,0,0,50,0,50,0,231.70949704313534,,,,,,,,,,,,,,,,,,,,,,,,,,,,,,,,,,,,,,,,,,,,,,,,,,,,,,,,,,,,,,,,,,,,,,,,,,,,,,,,,,,,,,,,,,,,,,,,,,,,,,,,,,231.6956529613526,0.0,"('l', 'space')",231.69619446975412,231.69621891912539,231.70949704313534,231.70949704313534,231.70949704313534,231.70949704313534,231.70949704313534,231.70949704313534,231.70949704313534,231.70949704313534,233.2184509479266,"['l', 'space']","[1.4488277580821887, 1.4498036201985087]","[None, None]",,,,,,,,,,,,,,,,,,,,,3009,2010-05-15_03h37.27.644,eb_03,2023.2.3,119.99116263247103,2010-05-15 03h37.38.331749 -0400,
,,,,0,0,0,0,51,0,51,0,233.2345929692092,,,,,,,,,,,,,,,,,,,,,,,,,,,,,,,,,,,,,,,,,,,,,,,,,,,,,,,,,,,,,,,,,,,,,,,,,,,,,,,,,,,,,,,,,,,,,,,,,,,,,,,,,,233.22071749562747,1.0,"('l',)",233.22124753394746,233.22127137961797,233.2345929692092,233.2345929692092,233.2345929692092,233.2345929692092,233.2345929692092,233.2345929692092,233.2345929692092,233.2345929692092,234.25182736446732,['l'],[0.955686260771472],[None],,,,,,,,,,,,,,,,,,,,,3009,2010-05-15_03h37.27.644,eb_03,2023.2.3,119.99116263247103,2010-05-15 03h37.38.331749 -0400,
,,,,0,0,0,0,52,0,52,0,234.26799564622343,,,,,,,,,,,,,,,,,,,,,,,,,,,,,,,,,,,,,,,,,,,,,,,,,,,,,,,,,,,,,,,,,,,,,,,,,,,,,,,,,,,,,,,,,,,,,,,,,,,,,,,,,,234.2540930066316,6.0,"('j',)",234.25479479428031,234.25480837727082,234.26799564622343,234.26799564622343,234.26799564622343,234.26799564622343,234.26799564622343,234.26799564622343,234.26799564622343,234.26799564622343,235.81030634767376,['j'],[1.4823330620711204],[None],,,,,,,,,,,,,,,,,,,,,3009,2010-05-15_03h37.27.644,eb_03,2023.2.3,119.99116263247103,2010-05-15 03h37.38.331749 -0400,
,,,,0,0,0,0,53,0,53,0,235.82642361774924,,,,,,,,,,,,,,,,,,,,,,,,,,,,,,,,,,,,,,,,,,,,,,,,,,,,,,,,,,,,,,,,,,,,,,,,,,,,,,,,,,,,,,,,,,,,,,,,,,,,,,,,,,235.81256655664765,5.0,"('h', 'j')",235.8131210443389,235.8131445881736,235.82642361774924,235.82642361774924,235.82642361774924,235.82642361774924,235.82642361774924,235.82642361774924,235.82642361774924,235.82642361774924,237.06937917903997,"['h', 'j']","[0.7878923068346921, 1.2278808609116822]","[None, None]",,,,,,,,,,,,,,,,,,,,,3009,2010-05-15_03h37.27.644,eb_03,2023.2.3,119.99116263247103,2010-05-15 03h37.38.331749 -0400,
,,,,0,0,0,0,54,0,54,0,237.09320524678333,,,,,,,,,,,,,,,,,,,,,,,,,,,,,,,,,,,,,,,,,,,,,,,,,,,,,,,,,,,,,,,,,,,,,,,,,,,,,,,,,,,,,,,,,,,,,,,,,,,,,,,,,,237.07163214375032,7.0,"('h', 'k')",237.0723357424722,237.0723493254627,237.09320524678333,237.09320524678333,237.09320524678333,237.09320524678333,237.09320524678333,237.09320524678333,237.09320524678333,237.09320524678333,238.3688088747149,"['h', 'k']","[1.201120868063299, 1.2251322681258898]","[None, None]",,,,,,,,,,,,,,,,,,,,,3009,2010-05-15_03h37.27.644,eb_03,2023.2.3,119.99116263247103,2010-05-15 03h37.38.331749 -0400,
,,,,0,0,0,0,55,0,55,0,238.38493972778087,,,,,,,,,,,,,,,,,,,,,,,,,,,,,,,,,,,,,,,,,,,,,,,,,,,,,,,,,,,,,,,,,,,,,,,,,,,,,,,,,,,,,,,,,,,,,,,,,,,,,,,,,,238.37107119659777,6.0,"('j',)",238.37159127404448,238.37161602528067,238.38493972778087,238.38493972778087,238.38493972778087,238.38493972778087,238.38493972778087,238.38493972778087,238.38493972778087,238.38493972778087,239.58549433620647,['j'],[1.1413847039802931],[None],,,,,,,,,,,,,,,,,,,,,3009,2010-05-15_03h37.27.644,eb_03,2023.2.3,119.99116263247103,2010-05-15 03h37.38.331749 -0400,
,,,,0,0,0,0,56,0,56,0,239.60168525626068,,,,,,,,,,,,,,,,,,,,,,,,,,,,,,,,,,,,,,,,,,,,,,,,,,,,,,,,,,,,,,,,,,,,,,,,,,,,,,,,,,,,,,,,,,,,,,,,,,,,,,,,,,239.5877955959877,9.0,"('h', 'l')",239.5883594408515,239.58838630496757,239.60168525626068,239.60168525626068,239.60168525626068,239.60168525626068,239.60168525626068,239.60168525626068,239.60168525626068,239.60168525626068,242.18572440181742,"['h', 'l']","[2.5087389917462133, 2.5246706276666373]","[None, None]",,,,,,,,,,,,,,,,,,,,,3009,2010-05-15_03h37.27.644,eb_03,2023.2.3,119.99116263247103,2010-05-15 03h37.38.331749 -0400,
,,,,0,0,0,0,57,0,57,0,242.20185706592747,,,,,,,,,,,,,,,,,,,,,,,,,,,,,,,,,,,,,,,,,,,,,,,,,,,,,,,,,,,,,,,,,,,,,,,,,,,,,,,,,,,,,,,,,,,,,,,,,,,,,,,,,,242.187966500147,10.0,"('h', 'space')",242.18856022757245,242.1885744142637,242.20185706592747,242.20185706592747,242.20185706592747,242.20185706592747,242.20185706592747,242.20185706592747,242.20185706592747,242.20185706592747,243.3107883927878,"['h', 'space']","[1.0364612637204118, 1.0374488977831788]","[None, None]",,,,,,,,,,,,,,,,,,,,,3009,2010-05-15_03h37.27.644,eb_03,2023.2.3,119.99116263247103,2010-05-15 03h37.38.331749 -0400,
,,,,0,0,0,0,58,0,58,0,243.32696090033278,,,,,,,,,,,,,,,,,,,,,,,,,,,,,,,,,,,,,,,,,,,,,,,,,,,,,,,,,,,,,,,,,,,,,,,,,,,,,,,,,,,,,,,,,,,,,,,,,,,,,,,,,,243.31306580686942,9.0,"('h', 'l')",243.31384064079612,243.31385482745827,243.32696090033278,243.32696090033278,243.32696090033278,243.32696090033278,243.32696090033278,243.32696090033278,243.32696090033278,243.32696090033278,243.96918865502812,"['h', 'l']","[0.567388818715699, 0.5833642220532056]","[None, None]",,,,,,,,,,,,,,,,,,,,,3009,2010-05-15_03h37.27.644,eb_03,2023.2.3,119.99116263247103,2010-05-15 03h37.38.331749 -0400,
,,,,0,0,0,0,59,0,59,0,243.98531286750222,,,,,,,,,,,,,,,,,,,,,,,,,,,,,,,,,,,,,,,,,,,,,,,,,,,,,,,,,,,,,,,,,,,,,,,,,,,,,,,,,,,,,,,,,,,,,,,,,,,,,,,,,,243.97146878569038,10.0,"('h', 'space')",243.97199369268492,243.97200757751125,243.98531286750222,243.98531286750222,243.98531286750222,243.98531286750222,243.98531286750222,243.98531286750222,243.98531286750222,243.98531286750222,244.6442486012529,"['h', 'space']","[0.5970247825898696, 0.5980241885699797]","[None, None]",,,,,,,,,,,,,,,,,,,,,3009,2010-05-15_03h37.27.644,eb_03,2023.2.3,119.99116263247103,2010-05-15 03h37.38.331749 -0400,
,,,,0,0,0,0,60,0,60,0,244.66038820779067,,,,,,,,,,,,,,,,,,,,,,,,,,,,,,,,,,,,,,,,,,,,,,,,,,,,,,,,,,,,,,,,,,,,,,,,,,,,,,,,,,,,,,,,,,,,,,,,,,,,,,,,,,244.6464894922101,14.0,"('j', 'l')",244.64698964796844,244.64700534386793,244.66038820779067,244.66038820779067,244.66038820779067,244.66038820779067,244.66038820779067,244.66038820779067,244.66038820779067,244.66038820779067,246.57771732175024,"['j', 'l']","[1.856949116307078, 1.8579627089493442]","[None, None]",,,,,,,,,,,,,,,,,,,,,3009,2010-05-15_03h37.27.644,eb_03,2023.2.3,119.99116263247103,2010-05-15 03h37.38.331749 -0400,
,,,,0,0,0,0,61,0,61,0,246.5938297623361,,,,,,,,,,,,,,,,,,,,,,,,,,,,,,,,,,,,,,,,,,,,,,,,,,,,,,,,,,,,,,,,,,,,,,,,,,,,,,,,,,,,,,,,,,,,,,,,,,,,,,,,,,246.57998990634223,12.0,"('k', 'l')",246.5805637120793,246.5805794079497,246.5938297623361,246.5938297623361,246.5938297623361,246.5938297623361,246.5938297623361,246.5938297623361,246.5938297623361,246.5938297623361,247.4193360756908,"['k', 'l']","[0.7635343896981794, 0.7645268532505725]","[None, None]",,,,,,,,,,,,,,,,,,,,,3009,2010-05-15_03h37.27.644,eb_03,2023.2.3,119.99116263247103,2010-05-15 03h37.38.331749 -0400,
,,,,0,0,0,0,62,0,62,0,247.43552397729945,,,,,,,,,,,,,,,,,,,,,,,,,,,,,,,,,,,,,,,,,,,,,,,,,,,,,,,,,,,,,,,,,,,,,,,,,,,,,,,,,,,,,,,,,,,,,,,,,,,,,,,,,,247.4216086602828,11.0,"('h',)",247.422077726078,247.4220937238133,247.43552397729945,247.43552397729945,247.43552397729945,247.43552397729945,247.43552397729945,247.43552397729945,247.43552397729945,247.43552397729945,248.52782188056153,['h'],[1.0178444222838152],[None],,,,,,,,,,,,,,,,,,,,,3009,2010-05-15_03h37.27.644,eb_03,2023.2.3,119.99116263247103,2010-05-15 03h37.38.331749 -0400,
,,,,0,0,0,0,63,0,63,0,248.54394065987435,,,,,,,,,,,,,,,,,,,,,,,,,,,,,,,,,,,,,,,,,,,,,,,,,,,,,,,,,,,,,,,,,,,,,,,,,,,,,,,,,,,,,,,,,,,,,,,,,,,,,,,,,,248.53006277151871,12.0,"('k', 'l')",248.53061001494643,248.53062571084592,248.54394065987435,248.54394065987435,248.54394065987435,248.54394065987435,248.54394065987435,248.54394065987435,248.54394065987435,248.54394065987435,249.32787941207062,"['k', 'l']","[0.7094439185748342, 0.7254811999446247]","[None, None]",,,,,,,,,,,,,,,,,,,,,3009,2010-05-15_03h37.27.644,eb_03,2023.2.3,119.99116263247103,2010-05-15 03h37.38.331749 -0400,
,,,,0,0,0,0,64,0,64,0,249.34396710142028,,,,,,,,,,,,,,,,,,,,,,,,,,,,,,,,,,,,,,,,,,,,,,,,,,,,,,,,,,,,,,,,,,,,,,,,,,,,,,,,,,,,,,,,,,,,,,,,,,,,,,,,,,249.33008559094742,1.0,"('l',)",249.3306898829178,249.33070497511653,249.34396710142028,249.34396710142028,249.34396710142028,249.34396710142028,249.34396710142028,249.34396710142028,249.34396710142028,249.34396710142028,250.1362584848539,['l'],[0.7174264888744801],[None],,,,,,,,,,,,,,,,,,,,,3009,2010-05-15_03h37.27.644,eb_03,2023.2.3,119.99116263247103,2010-05-15 03h37.38.331749 -0400,
,,,,0,0,0,0,65,0,65,0,250.15246993029723,,,,,,,,,,,,,,,,,,,,,,,,,,,,,,,,,,,,,,,,,,,,,,,,,,,,,,,,,,,,,,,,,,,,,,,,,,,,,,,,,,,,,,,,,,,,,,,,,,,,,,,,,,250.13854646348045,2.0,"('k', 'space')",250.1390321307117,250.13904843031196,250.15246993029723,250.15246993029723,250.15246993029723,250.15246993029723,250.15246993029723,250.15246993029723,250.15246993029723,250.15246993029723,252.14475328466506,"['k', 'space']","[1.9169406405417249, 1.9178860164247453]","[None, None]",,,,,,,,,,,,,,,,,,,,,3009,2010-05-15_03h37.27.644,eb_03,2023.2.3,119.99116263247103,2010-05-15 03h37.38.331749 -0400,
,,,,0,0,0,0,66,0,66,0,252.16086572525091,,,,,,,,,,,,,,,,,,,,,,,,,,,,,,,,,,,,,,,,,,,,,,,,,,,,,,,,,,,,,,,,,,,,,,,,,,,,,,,,,,,,,,,,,,,,,,,,,,,,,,,,,,252.14699689223198,0.0,"('l', 'space')",252.14754111721413,252.1475565112778,252.16086572525091,252.16086572525091,252.16086572525091,252.16086572525091,252.16086572525091,252.16086572525091,252.16086572525091,252.16086572525091,253.87872143648565,"['space', 'l', 'space']","[1.2605681672866922, 1.6765048741945066, 1.7005464586545713]","[None, None, None]",,,,,,,,,,,,,,,,,,,,,3009,2010-05-15_03h37.27.644,eb_03,2023.2.3,119.99116263247103,2010-05-15 03h37.38.331749 -0400,
,,,,0,0,0,0,67,0,67,0,253.89431681804126,,,,,,,,,,,,,,,,,,,,,,,,,,,,,,,,,,,,,,,,,,,,,,,,,,,,,,,,,,,,,,,,,,,,,,,,,,,,,,,,,,,,,,,,,,,,,,,,,,,,,,,,,,253.8809710809146,3.0,"('space',)",253.88157356184092,253.8815889559046,253.89431681804126,253.89431681804126,253.89431681804126,253.89431681804126,253.89431681804126,253.89431681804126,253.89431681804126,253.89431681804126,254.91987758409232,['space'],[0.9510638194915373],[None],,,,,,,,,,,,,,,,,,,,,3009,2010-05-15_03h37.27.644,eb_03,2023.2.3,119.99116263247103,2010-05-15 03h37.38.331749 -0400,
,,,,0,0,0,0,68,0,68,0,254.93603379206616,,,,,,,,,,,,,,,,,,,,,,,,,,,,,,,,,,,,,,,,,,,,,,,,,,,,,,,,,,,,,,,,,,,,,,,,,,,,,,,,,,,,,,,,,,,,,,,,,,,,,,,,,,254.92212390823988,3.0,"('space',)",254.92264549492393,254.92266179449507,254.93603379206616,254.93603379206616,254.93603379206616,254.93603379206616,254.93603379206616,254.93603379206616,254.93603379206616,254.93603379206616,255.92838325031335,['space'],[0.917373786913231],[None],,,,,,,,,,,,,,,,,,,,,3009,2010-05-15_03h37.27.644,eb_03,2023.2.3,119.99116263247103,2010-05-15 03h37.38.331749 -0400,
,,,,0,0,0,0,69,0,69,0,255.94448965400807,,,,,,,,,,,,,,,,,,,,,,,,,,,,,,,,,,,,,,,,,,,,,,,,,,,,,,,,,,,,,,,,,,,,,,,,,,,,,,,,,,,,,,,,,,,,,,,,,,,,,,,,,,255.93062987629673,4.0,"('j', 'k')",255.93112097671838,255.93113727631862,255.94448965400807,255.94448965400807,255.94448965400807,255.94448965400807,255.94448965400807,255.94448965400807,255.94448965400807,255.94448965400807,258.00347573537147,"['j', 'k']","[1.9969172657292802, 2.020882785465801]","[None, None]",,,,,,,,,,,,,,,,,,,,,3009,2010-05-15_03h37.27.644,eb_03,2023.2.3,119.99116263247103,2010-05-15 03h37.38.331749 -0400,
,,,,0,0,0,0,70,0,70,0,258.01957157449215,,,,,,,,,,,,,,,,,,,,,,,,,,,,,,,,,,,,,,,,,,,,,,,,,,,,,,,,,,,,,,,,,,,,,,,,,,,,,,,,,,,,,,,,,,,,,,,,,,,,,,,,,,258.0057486217993,1.0,"('l',)",258.0062472683203,258.0062629642198,258.01957157449215,258.01957157449215,258.01957157449215,258.01957157449215,258.01957157449215,258.01957157449215,258.01957157449215,258.01957157449215,258.69513710969477,['l'],[0.6018241045530885],[None],,,,,,,,,,,,,,,,,,,,,3009,2010-05-15_03h37.27.644,eb_03,2023.2.3,119.99116263247103,2010-05-15 03h37.38.331749 -0400,
,,,,0,0,0,0,71,0,71,0,258.7112830549595,,,,,,,,,,,,,,,,,,,,,,,,,,,,,,,,,,,,,,,,,,,,,,,,,,,,,,,,,,,,,,,,,,,,,,,,,,,,,,,,,,,,,,,,,,,,,,,,,,,,,,,,,,258.6974045629322,3.0,"('space',)",258.69795210819575,258.697968407796,258.7112830549595,258.7112830549595,258.7112830549595,258.7112830549595,258.7112830549595,258.7112830549595,258.7112830549595,258.7112830549595,259.46185686069657,['space'],[0.6781263809243683],[None],,,,,,,,,,,,,,,,,,,,,3009,2010-05-15_03h37.27.644,eb_03,2023.2.3,119.99116263247103,2010-05-15 03h37.38.331749 -0400,
,,,,0,0,0,0,72,0,72,0,259.47802031290485,,,,,,,,,,,,,,,,,,,,,,,,,,,,,,,,,,,,,,,,,,,,,,,,,,,,,,,,,,,,,,,,,,,,,,,,,,,,,,,,,,,,,,,,,,,,,,,,,,,,,,,,,,259.4641059014248,3.0,"('space',)",259.46468182007084,259.4646963085688,259.47802031290485,259.47802031290485,259.47802031290485,259.47802031290485,259.47802031290485,259.47802031290485,259.47802031290485,259.47802031290485,260.59525929621304,['space'],[1.0543844673375133],[None],,,,,,,,,,,,,,,,,,,,,3009,2010-05-15_03h37.27.644,eb_03,2023.2.3,119.99116263247103,2010-05-15 03h37.38.331749 -0400,
,,,,0,0,0,0,73,0,73,0,260.6114203336765,,,,,,,,,,,,,,,,,,,,,,,,,,,,,,,,,,,,,,,,,,,,,,,,,,,,,,,,,,,,,,,,,,,,,,,,,,,,,,,,,,,,,,,,,,,,,,,,,,,,,,,,,,260.5975324844767,4.0,"('j', 'k')",260.59812077871175,260.5981461336196,260.6114203336765,260.6114203336765,260.6114203336765,260.6114203336765,260.6114203336765,260.6114203336765,260.6114203336765,260.6114203336765,261.4870273422566,"['j', 'k']","[0.8010056239436381, 0.8019763547345065]","[None, None]",,,,,,,,,,,,,,,,,,,,,3009,2010-05-15_03h37.27.644,eb_03,2023.2.3,119.99116263247103,2010-05-15 03h37.38.331749 -0400,
,,,,0,0,0,0,74,0,74,0,261.5032258084102,,,,,,,,,,,,,,,,,,,,,,,,,,,,,,,,,,,,,,,,,,,,,,,,,,,,,,,,,,,,,,,,,,,,,,,,,,,,,,,,,,,,,,,,,,,,,,,,,,,,,,,,,,261.48928574015736,3.0,"('space',)",261.48984052971355,261.4898649790848,261.5032258084102,261.5032258084102,261.5032258084102,261.5032258084102,261.5032258084102,261.5032258084102,261.5032258084102,261.5032258084102,262.3786296758917,['space'],[0.8131608877447434],[None],,,,,,,,,,,,,,,,,,,,,3009,2010-05-15_03h37.27.644,eb_03,2023.2.3,119.99116263247103,2010-05-15 03h37.38.331749 -0400,
,,,,0,0,0,0,75,0,75,0,262.3948652688705,,,,,,,,,,,,,,,,,,,,,,,,,,,,,,,,,,,,,,,,,,,,,,,,,,,,,,,,,,,,,,,,,,,,,,,,,,,,,,,,,,,,,,,,,,,,,,,,,,,,,,,,,,262.38087569817435,4.0,"('j', 'k')",262.381368911505,262.38139456827776,262.3948652688705,262.3948652688705,262.3948652688705,262.3948652688705,262.3948652688705,262.3948652688705,262.3948652688705,262.3948652688705,263.12047445072676,"['j', 'k']","[0.6655286136083305, 0.6665742017212324]","[None, None]",,,,,,,,,,,,,,,,,,,,,3009,2010-05-15_03h37.27.644,eb_03,2023.2.3,119.99116263247103,2010-05-15 03h37.38.331749 -0400,
,,,,0,0,0,0,76,0,76,0,263.13662582918187,,,,,,,,,,,,,,,,,,,,,,,,,,,,,,,,,,,,,,,,,,,,,,,,,,,,,,,,,,,,,,,,,,,,,,,,,,,,,,,,,,,,,,,,,,,,,,,,,,,,,,,,,,263.1226706687303,13.0,"('j', 'space')",263.12327496070066,263.1232900529285,263.13662582918187,263.13662582918187,263.13662582918187,263.13662582918187,263.13662582918187,263.13662582918187,263.13662582918187,263.13662582918187,266.2456676309812,"['j', 'space']","[3.0357893586624414, 3.0367794074700214]","[None, None]",,,,,,,,,,,,,,,,,,,,,3009,2010-05-15_03h37.27.644,eb_03,2023.2.3,119.99116263247103,2010-05-15 03h37.38.331749 -0400,
,,,,0,0,0,0,77,0,77,0,266.26180965226376,,,,,,,,,,,,,,,,,,,,,,,,,,,,,,,,,,,,,,,,,,,,,,,,,,,,,,,,,,,,,,,,,,,,,,,,,,,,,,,,,,,,,,,,,,,,,,,,,,,,,,,,,,266.24789131680154,12.0,"('k', 'l')",266.24855778866913,266.2485734845686,266.26180965226376,266.26180965226376,266.26180965226376,266.26180965226376,266.26180965226376,266.26180965226376,266.26180965226376,266.26180965226376,268.32134358075564,"['j', 'k', 'k', 'l']","[1.4866225692385342, 1.4876144291192759, 2.05457221440156, 2.05557162038167]","[None, None, None, None]",,,,,,,,,,,,,,,,,,,,,3009,2010-05-15_03h37.27.644,eb_03,2023.2.3,119.99116263247103,2010-05-15 03h37.38.331749 -0400,
,,,,0,0,0,0,78,0,78,0,268.3452602017496,,,,,,,,,,,,,,,,,,,,,,,,,,,,,,,,,,,,,,,,,,,,,,,,,,,,,,,,,,,,,,,,,,,,,,,,,,,,,,,,,,,,,,,,,,,,,,,,,,,,,,,,,,268.3236134487379,10.0,"('h', 'space')",268.3241142081679,268.3241302059032,268.3452602017496,268.3452602017496,268.3452602017496,268.3452602017496,268.3452602017496,268.3452602017496,268.3452602017496,268.3452602017496,269.7208789822471,"['space', 'h']","[1.3151717734872364, 1.331163778231712]","[None, None]",,,,,,,,,,,,,,,,,,,,,3009,2010-05-15_03h37.27.644,eb_03,2023.2.3,119.99116263247103,2010-05-15 03h37.38.331749 -0400,
,,,,0,0,0,0,79,0,79,0,269.7370216072304,,,,,,,,,,,,,,,,,,,,,,,,,,,,,,,,,,,,,,,,,,,,,,,,,,,,,,,,,,,,,,,,,,,,,,,,,,,,,,,,,,,,,,,,,,,,,,,,,,,,,,,,,,269.72312741930364,12.0,"('k', 'l')",269.7236794922501,269.72369488628465,269.7370216072304,269.7370216072304,269.7370216072304,269.7370216072304,269.7370216072304,269.7370216072304,269.7370216072304,269.7370216072304,270.6043019431527,"['k', 'l']","[0.79538287120522, 0.8353844649391249]","[None, None]",,,,,,,,,,,,,,,,,,,,,3009,2010-05-15_03h37.27.644,eb_03,2023.2.3,119.99116263247103,2010-05-15 03h37.38.331749 -0400,
,,,,0,0,0,0,80,0,80,0,270.62043249438284,,,,,,,,,,,,,,,,,,,,,,,,,,,,,,,,,,,,,,,,,,,,,,,,,,,,,,,,,,,,,,,,,,,,,,,,,,,,,,,,,,,,,,,,,,,,,,,,,,,,,,,,,,270.6065220068558,14.0,"('j', 'l')",270.6070813240658,270.6070970199653,270.62043249438284,270.62043249438284,270.62043249438284,270.62043249438284,270.62043249438284,270.62043249438284,270.62043249438284,270.62043249438284,272.0210958874377,"['j', 'l']","[1.3279907925461885, 1.3839865039335564]","[None, None]",,,,,,,,,,,,,,,,,,,,,3009,2010-05-15_03h37.27.644,eb_03,2023.2.3,119.99116263247103,2010-05-15 03h37.38.331749 -0400,
,,,,0,0,0,0,81,0,81,0,272.03724092716584,,,,,,,,,,,,,,,,,,,,,,,,,,,,,,,,,,,,,,,,,,,,,,,,,,,,,,,,,,,,,,,,,,,,,,,,,,,,,,,,,,,,,,,,,,,,,,,,,,,,,,,,,,272.02332078065956,13.0,"('j', 'space')",272.0238988121855,272.02391390441335,272.03724092716584,272.03724092716584,272.03724092716584,272.03724092716584,272.03724092716584,272.03724092716584,272.03724092716584,272.03724092716584,273.60449784001685,"['j', 'space']","[1.4951952448755037, 1.4961886139644776]","[None, None]",,,,,,,,,,,,,,,,,,,,,3009,2010-05-15_03h37.27.644,eb_03,2023.2.3,119.99116263247103,2010-05-15 03h37.38.331749 -0400,
,,,,0,0,0,0,82,0,82,0,273.62061631746474,,,,,,,,,,,,,,,,,,,,,,,,,,,,,,,,,,,,,,,,,,,,,,,,,,,,,,,,,,,,,,,,,,,,,,,,,,,,,,,,,,,,,,,,,,,,,,,,,,,,,,,,,,273.60674718261,12.0,"('k', 'l')",273.6073747165792,273.60740097702364,273.62061631746474,273.62061631746474,273.62061631746474,273.62061631746474,273.62061631746474,273.62061631746474,273.62061631746474,273.62061631746474,274.71287649020087,"['k', 'l']","[1.0318173915147781, 1.0328149864217266]","[None, None]",,,,,,,,,,,,,,,,,,,,,3009,2010-05-15_03h37.27.644,eb_03,2023.2.3,119.99116263247103,2010-05-15 03h37.38.331749 -0400,
,,,,0,0,0,0,83,0,83,0,274.72903994243825,,,,,,,,,,,,,,,,,,,,,,,,,,,,,,,,,,,,,,,,,,,,,,,,,,,,,,,,,,,,,,,,,,,,,,,,,,,,,,,,,,,,,,,,,,,,,,,,,,,,,,,,,,274.7151213051402,10.0,"('h', 'space')",274.71572771001956,274.71574310408323,274.72903994243825,274.72903994243825,274.72903994243825,274.72903994243825,274.72903994243825,274.72903994243825,274.72903994243825,274.72903994243825,276.0296800331271,"['space', 'h']","[1.2274051545246039, 1.2424318616976961]","[None, None]",,,,,,,,,,,,,,,,,,,,,3009,2010-05-15_03h37.27.644,eb_03,2023.2.3,119.99116263247103,2010-05-15 03h37.38.331749 -0400,
,,,,0,0,0,0,84,0,84,0,276.0458075659117,,,,,,,,,,,,,,,,,,,,,,,,,,,,,,,,,,,,,,,,,,,,,,,,,,,,,,,,,,,,,,,,,,,,,,,,,,,,,,,,,,,,,,,,,,,,,,,,,,,,,,,,,,276.03195141034666,1.0,"('l',)",276.0324808449659,276.0324965408654,276.0458075659117,276.0458075659117,276.0458075659117,276.0458075659117,276.0458075659117,276.0458075659117,276.0458075659117,276.0458075659117,276.6962955875206,['l'],[0.5896839329507202],[None],,,,,,,,,,,,,,,,,,,,,3009,2010-05-15_03h37.27.644,eb_03,2023.2.3,119.99116263247103,2010-05-15 03h37.38.331749 -0400,
,,,,0,0,0,0,85,0,85,0,276.7125396321353,,,,,,,,,,,,,,,,,,,,,,,,,,,,,,,,,,,,,,,,,,,,,,,,,,,,,,,,,,,,,,,,,,,,,,,,,,,,,,,,,,,,,,,,,,,,,,,,,,,,,,,,,,276.6985603241774,2.0,"('k', 'space')",276.69895121234003,276.6989644934656,276.7125396321353,276.7125396321353,276.7125396321353,276.7125396321353,276.7125396321353,276.7125396321353,276.7125396321353,276.7125396321353,280.23827395858825,"['k', 'space']","[3.466941123479046, 3.467911250569159]","[None, None]",,,,,,,,,,,,,,,,,,,,,3009,2010-05-15_03h37.27.644,eb_03,2023.2.3,119.99116263247103,2010-05-15 03h37.38.331749 -0400,
,,,,0,0,0,0,86,0,86,0,280.2544606528245,,,,,,,,,,,,,,,,,,,,,,,,,,,,,,,,,,,,,,,,,,,,,,,,,,,,,,,,,,,,,,,,,,,,,,,,,,,,,,,,,,,,,,,,,,,,,,,,,,,,,,,,,,280.2405097181909,3.0,"('space',)",280.24102919196594,280.24104186941986,280.2544606528245,280.2544606528245,280.2544606528245,280.2544606528245,280.2544606528245,280.2544606528245,280.2544606528245,280.2544606528245,281.2133075236634,['space'],[0.88500220948481],[None],,,,,,,,,,,,,,,,,,,,,3009,2010-05-15_03h37.27.644,eb_03,2023.2.3,119.99116263247103,2010-05-15 03h37.38.331749 -0400,
,,,,0,0,0,0,87,0,87,0,281.2295144414529,,,,,,,,,,,,,,,,,,,,,,,,,,,,,,,,,,,,,,,,,,,,,,,,,,,,,,,,,,,,,,,,,,,,,,,,,,,,,,,,,,,,,,,,,,,,,,,,,,,,,,,,,,281.2155450943101,2.0,"('k', 'space')",281.21605219249614,281.21606577545754,281.2295144414529,281.2295144414529,281.2295144414529,281.2295144414529,281.2295144414529,281.2295144414529,281.2295144414529,281.2295144414529,282.25508728125715,"['space', 'k']","[0.9659223994822241, 1.0059487444523256]","[None, None]",,,,,,,,,,,,,,,,,,,,,3009,2010-05-15_03h37.27.644,eb_03,2023.2.3,119.99116263247103,2010-05-15 03h37.38.331749 -0400,
,,,,0,0,0,0,88,0,88,0,282.27125797775807,,,,,,,,,,,,,,,,,,,,,,,,,,,,,,,,,,,,,,,,,,,,,,,,,,,,,,,,,,,,,,,,,,,,,,,,,,,,,,,,,,,,,,,,,,,,,,,,,,,,,,,,,,282.25731941874255,14.0,"('j', 'l')",282.25780327490065,282.2578165560262,282.27125797775807,282.27125797775807,282.27125797775807,282.27125797775807,282.27125797775807,282.27125797775807,282.27125797775807,282.27125797775807,284.46359578482225,"['j', 'l']","[2.1322013976459857, 2.133194464899134]","[None, None]",,,,,,,,,,,,,,,,,,,,,3009,2010-05-15_03h37.27.644,eb_03,2023.2.3,119.99116263247103,2010-05-15 03h37.38.331749 -0400,
,,,,0,0,0,0,89,0,89,0,284.47967743728077,,,,,,,,,,,,,,,,,,,,,,,,,,,,,,,,,,,,,,,,,,,,,,,,,,,,,,,,,,,,,,,,,,,,,,,,,,,,,,,,,,,,,,,,,,,,,,,,,,,,,,,,,,284.46582671490614,13.0,"('j', 'space')",284.4663256632921,284.46633864258183,284.47967743728077,284.47967743728077,284.47967743728077,284.47967743728077,284.47967743728077,284.47967743728077,284.47967743728077,284.47967743728077,286.1970055249694,"['j', 'space']","[1.6358005872461945, 1.6367882213089615]","[None, None]",,,,,,,,,,,,,,,,,,,,,3009,2010-05-15_03h37.27.644,eb_03,2023.2.3,119.99116263247103,2010-05-15 03h37.38.331749 -0400,
,,,,0,0,0,0,90,0,90,0,286.2131698827143,,,,,,,,,,,,,,,,,,,,,,,,,,,,,,,,,,,,,,,,,,,,,,,,,,,,,,,,,,,,,,,,,,,,,,,,,,,,,,,,,,,,,,,,,,,,,,,,,,,,,,,,,,286.19926271549775,10.0,"('h', 'space')",286.1997571362008,286.1997707191913,286.2131698827143,286.2131698827143,286.2131698827143,286.2131698827143,286.2131698827143,286.2131698827143,286.2131698827143,286.2131698827143,287.4221082123404,"['h', 'space']","[1.126311814674409, 1.1272746975009795]","[None, None]",,,,,,,,,,,,,,,,,,,,,3009,2010-05-15_03h37.27.644,eb_03,2023.2.3,119.99116263247103,2010-05-15 03h37.38.331749 -0400,
,,,,0,0,0,0,91,0,91,0,287.43825113915955,,,,,,,,,,,,,,,,,,,,,,,,,,,,,,,,,,,,,,,,,,,,,,,,,,,,,,,,,,,,,,,,,,,,,,,,,,,,,,,,,,,,,,,,,,,,,,,,,,,,,,,,,,287.42437808032264,11.0,"('h',)",287.42486314388225,287.42487672687275,287.43825113915955,287.43825113915955,287.43825113915955,287.43825113915955,287.43825113915955,287.43825113915955,287.43825113915955,287.43825113915955,288.3720790542138,['h'],[0.8611999874410685],[None],,,,,,,,,,,,,,,,,,,,,3009,2010-05-15_03h37.27.644,eb_03,2023.2.3,119.99116263247103,2010-05-15 03h37.38.331749 -0400,
,,,,0,0,0,0,92,0,92,0,288.38833456888096,,,,,,,,,,,,,,,,,,,,,,,,,,,,,,,,,,,,,,,,,,,,,,,,,,,,,,,,,,,,,,,,,,,,,,,,,,,,,,,,,,,,,,,,,,,,,,,,,,,,,,,,,,288.374261387391,12.0,"('k', 'l')",288.3748001791828,288.37481346033746,288.38833456888096,288.38833456888096,288.38833456888096,288.38833456888096,288.38833456888096,288.38833456888096,288.38833456888096,288.38833456888096,289.83893867977895,"['k', 'l']","[1.367136959976051, 1.3681336493464187]","[None, None]",,,,,,,,,,,,,,,,,,,,,3009,2010-05-15_03h37.27.644,eb_03,2023.2.3,119.99116263247103,2010-05-15 03h37.38.331749 -0400,
,,,,0,0,0,0,93,0,93,0,289.85503119861824,,,,,,,,,,,,,,,,,,,,,,,,,,,,,,,,,,,,,,,,,,,,,,,,,,,,,,,,,,,,,,,,,,,,,,,,,,,,,,,,,,,,,,,,,,,,,,,,,,,,,,,,,,289.841169308027,11.0,"('h',)",289.8416121133778,289.84162539453246,289.85503119861824,289.85503119861824,289.85503119861824,289.85503119861824,289.85503119861824,289.85503119861824,289.85503119861824,289.85503119861824,292.5474025103904,['h'],[2.6194602543546353],[None],,,,,,,,,,,,,,,,,,,,,3009,2010-05-15_03h37.27.644,eb_03,2023.2.3,119.99116263247103,2010-05-15 03h37.38.331749 -0400,
,,,,0,0,0,0,94,0,94,0,292.56361878535245,,,,,,,,,,,,,,,,,,,,,,,,,,,,,,,,,,,,,,,,,,,,,,,,,,,,,,,,,,,,,,,,,,,,,,,,,,,,,,,,,,,,,,,,,,,,,,,,,,,,,,,,,,292.54964672162896,10.0,"('h', 'space')",292.55011790033313,292.55013178515946,292.56361878535245,292.56361878535245,292.56361878535245,292.56361878535245,292.56361878535245,292.56361878535245,292.56361878535245,292.56361878535245,293.53084243496414,"['space', 'h']","[0.8948640614689793, 0.9188615767052397]","[None, None]",,,,,,,,,,,,,,,,,,,,,3009,2010-05-15_03h37.27.644,eb_03,2023.2.3,119.99116263247103,2010-05-15 03h37.38.331749 -0400,
,,,,0,0,0,0,95,0,95,0,293.54697358986596,,,,,,,,,,,,,,,,,,,,,,,,,,,,,,,,,,,,,,,,,,,,,,,,,,,,,,,,,,,,,,,,,,,,,,,,,,,,,,,,,,,,,,,,,,,,,,,,,,,,,,,,,,293.5330854388012,9.0,"('h', 'l')",293.5335273386445,293.533540921635,293.54697358986596,293.54697358986596,293.54697358986596,293.54697358986596,293.54697358986596,293.54697358986596,293.54697358986596,293.54697358986596,295.78093630846706,"['h', 'l']","[2.1514693169447128, 2.152456045441795]","[None, None]",,,,,,,,,,,,,,,,,,,,,3009,2010-05-15_03h37.27.644,eb_03,2023.2.3,119.99116263247103,2010-05-15 03h37.38.331749 -0400,
,,,,0,0,0,0,96,0,96,0,295.79711123078596,,,,,,,,,,,,,,,,,,,,,,,,,,,,,,,,,,,,,,,,,,,,,,,,,,,,,,,,,,,,,,,,,,,,,,,,,,,,,,,,,,,,,,,,,,,,,,,,,,,,,,,,,,295.7832553770568,8.0,"('k',)",295.7836963713635,295.783709954354,295.79711123078596,295.79711123078596,295.79711123078596,295.79711123078596,295.79711123078596,295.79711123078596,295.79711123078596,295.79711123078596,296.639313147607,['k'],[0.7813782083103433],[None],,,,,,,,,,,,,,,,,,,,,3009,2010-05-15_03h37.27.644,eb_03,2023.2.3,119.99116263247103,2010-05-15 03h37.38.331749 -0400,
,,,,0,0,0,0,97,0,97,0,296.6555309317773,,,,,,,,,,,,,,,,,,,,,,,,,,,,,,,,,,,,,,,,,,,,,,,,,,,,,,,,,,,,,,,,,,,,,,,,,,,,,,,,,,,,,,,,,,,,,,,,,,,,,,,,,,296.64154528509243,7.0,"('h', 'k')",296.6420378947223,296.642051175877,296.6555309317773,296.6555309317773,296.6555309317773,296.6555309317773,296.6555309317773,296.6555309317773,296.6555309317773,296.6555309317773,297.91448906238656,"['h', 'k']","[1.1869568314577918, 1.210953139292542]","[None, None]",,,,,,,,,,,,,,,,,,,,,3009,2010-05-15_03h37.27.644,eb_03,2023.2.3,119.99116263247103,2010-05-15 03h37.38.331749 -0400,
,,,,0,0,0,0,98,0,98,0,297.93059154209914,,,,,,,,,,,,,,,,,,,,,,,,,,,,,,,,,,,,,,,,,,,,,,,,,,,,,,,,,,,,,,,,,,,,,,,,,,,,,,,,,,,,,,,,,,,,,,,,,,,,,,,,,,297.91673236808856,6.0,"('j',)",297.91723071277374,297.91724429576425,297.93059154209914,297.93059154209914,297.93059154209914,297.93059154209914,297.93059154209914,297.93059154209914,297.93059154209914,297.93059154209914,298.8561099896033,['j'],[0.8639093404926825],[None],,,,,,,,,,,,,,,,,,,,,3009,2010-05-15_03h37.27.644,eb_03,2023.2.3,119.99116263247103,2010-05-15 03h37.38.331749 -0400,
,,,,0,0,0,0,99,0,99,0,298.8723461862828,,,,,,,,,,,,,,,,,,,,,,,,,,,,,,,,,,,,,,,,,,,,,,,,,,,,,,,,,,,,,,,,,,,,,,,,,,,,,,,,,,,,,,,,,,,,,,,,,,,,,,,,,,298.8583593321964,7.0,"('h', 'k')",298.85886039346224,298.8588745801535,298.8723461862828,298.8723461862828,298.8723461862828,298.8723461862828,298.8723461862828,298.8723461862828,298.8723461862828,298.8723461862828,299.7895168320392,"['h', 'k']","[0.8581730943114962, 0.8591782353469171]","[None, None]",,,,,,,,,,,,,,,,,,,,,3009,2010-05-15_03h37.27.644,eb_03,2023.2.3,119.99116263247103,2010-05-15 03h37.38.331749 -0400,
,,,,0,0,0,0,100,0,100,0,299.80574850106495,,,,,,,,,,,,,,,,,,,,,,,,,,,,,,,,,,,,,,,,,,,,,,,,,,,,,,,,,,,,,,,,,,,,,,,,,,,,,,,,,,,,,,,,,,,,,,,,,,,,,,,,,,299.7918048106949,12.0,"('k', 'l')",299.7922406736179,299.79225425660843,299.80574850106495,299.80574850106495,299.80574850106495,299.80574850106495,299.80574850106495,299.80574850106495,299.80574850106495,299.80574850106495,300.9896699877572,"['k', 'l']","[1.1247826722101308, 1.1257515918987337]","[None, None]",,,,,,,,,,,,,,,,,,,,,3009,2010-05-15_03h37.27.644,eb_03,2023.2.3,119.99116263247103,2010-05-15 03h37.38.331749 -0400,
,,,,0,0,0,0,101,0,101,0,301.0057600918808,,,,,,,,,,,,,,,,,,,,,,,,,,,,,,,,,,,,,,,,,,,,,,,,,,,,,,,,,,,,,,,,,,,,,,,,,,,,,,,,,,,,,,,,,,,,,,,,,,,,,,,,,,300.99191570823314,11.0,"('h',)",300.9924297487887,300.9924430299434,301.0057600918808,301.0057600918808,301.0057600918808,301.0057600918808,301.0057600918808,301.0057600918808,301.0057600918808,301.0057600918808,301.78971544548403,['h'],[0.7088363062939607],[None],,,,,,,,,,,,,,,,,,,,,3009,2010-05-15_03h37.27.644,eb_03,2023.2.3,119.99116263247103,2010-05-15 03h37.38.331749 -0400,
,,,,0,0,0,0,102,0,102,0,301.80582728236914,,,,,,,,,,,,,,,,,,,,,,,,,,,,,,,,,,,,,,,,,,,,,,,,,,,,,,,,,,,,,,,,,,,,,,,,,,,,,,,,,,,,,,,,,,,,,,,,,,,,,,,,,,301.7919913503574,10.0,"('h', 'space')",301.7925017688249,301.7925156536512,301.80582728236914,301.80582728236914,301.80582728236914,301.80582728236914,301.80582728236914,301.80582728236914,301.80582728236914,301.80582728236914,302.86477201108937,"['h', 'space']","[0.9966969195229467, 0.9976902885828167]","[None, None]",,,,,,,,,,,,,,,,,,,,,3009,2010-05-15_03h37.27.644,eb_03,2023.2.3,119.99116263247103,2010-05-15 03h37.38.331749 -0400,
,,,,0,0,0,0,103,0,103,0,302.88089803463663,,,,,,,,,,,,,,,,,,,,,,,,,,,,,,,,,,,,,,,,,,,,,,,,,,,,,,,,,,,,,,,,,,,,,,,,,,,,,,,,,,,,,,,,,,,,,,,,,,,,,,,,,,302.8670255795005,9.0,"('h', 'l')",302.8674895139411,302.8675030969316,302.88089803463663,302.88089803463663,302.88089803463663,302.88089803463663,302.88089803463663,302.88089803463663,302.88089803463663,302.88089803463663,304.7481131722452,"['l', 'h']","[1.7936309677606914, 1.8096413850144017]","[None, None]",,,,,,,,,,,,,,,,,,,,,3009,2010-05-15_03h37.27.644,eb_03,2023.2.3,119.99116263247103,2010-05-15 03h37.38.331749 -0400,
,,,,0,0,0,0,104,0,104,0,304.7644064174674,,,,,,,,,,,,,,,,,,,,,,,,,,,,,,,,,,,,,,,,,,,,,,,,,,,,,,,,,,,,,,,,,,,,,,,,,,,,,,,,,,,,,,,,,,,,,,,,,,,,,,,,,,304.7503362543939,10.0,"('h', 'space')",304.7508886291762,304.75090191033087,304.7644064174674,304.7644064174674,304.7644064174674,304.7644064174674,304.7644064174674,304.7644064174674,304.7644064174674,304.7644064174674,305.92332011659164,"['h', 'space']","[1.0861215683398768, 1.1020912366220728]","[None, None]",,,,,,,,,,,,,,,,,,,,,3009,2010-05-15_03h37.27.644,eb_03,2023.2.3,119.99116263247103,2010-05-15 03h37.38.331749 -0400,
,,,,0,0,0,0,105,0,105,0,305.9395025850099,,,,,,,,,,,,,,,,,,,,,,,,,,,,,,,,,,,,,,,,,,,,,,,,,,,,,,,,,,,,,,,,,,,,,,,,,,,,,,,,,,,,,,,,,,,,,,,,,,,,,,,,,,305.92556945918477,13.0,"('j', 'space')",305.9261103638855,305.9261233431753,305.9395025850099,305.9395025850099,305.9395025850099,305.9395025850099,305.9395025850099,305.9395025850099,305.9395025850099,305.9395025850099,315.66626752811135,"['k', 'h', 'h', 'k', 'k', 'space', 'j', 'space']","[1.7500811960780993, 1.7660206799628213, 2.2620402612083126, 2.286035361670656, 7.238017994764959, 7.239008345408365, 9.702046624064678, 9.703016449318966]","[None, None, None, None, None, None, None, None]",,,,,,,,,,,,,,,,,,,,,3009,2010-05-15_03h37.27.644,eb_03,2023.2.3,119.99116263247103,2010-05-15 03h37.38.331749 -0400,
,,,,0,0,0,0,106,0,106,0,315.6817989186966,,,,,,,,,,,,,,,,,,,,,,,,,,,,,,,,,,,,,,,,,,,,,,,,,,,,,,,,,,,,,,,,,,,,,,,,,,,,,,,,,,,,,,,,,,,,,,,,,,,,,,,,,,315.66849845819524,14.0,"('j', 'l')",315.6689989157894,315.6690124987799,315.6817989186966,315.6817989186966,315.6817989186966,315.6817989186966,315.6817989186966,315.6817989186966,315.6817989186966,315.6817989186966,317.28289859727374,"['l', 'j']","[1.3997478997625876, 1.5837677876697853]","[None, None]",,,,,,,,,,,,,,,,,,,,,3009,2010-05-15_03h37.27.644,eb_03,2023.2.3,119.99116263247103,2010-05-15 03h37.38.331749 -0400,
,,,,0,0,0,0,107,0,107,0,317.298551027372,,,,,,,,,,,,,,,,,,,,,,,,,,,,,,,,,,,,,,,,,,,,,,,,,,,,,,,,,,,,,,,,,,,,,,,,,,,,,,,,,,,,,,,,,,,,,,,,,,,,,,,,,,317.28514763803105,13.0,"('j', 'space')",317.2856511140708,317.2856646970322,317.298551027372,317.298551027372,317.298551027372,317.298551027372,317.298551027372,317.298551027372,317.298551027372,317.298551027372,318.9741253160464,"['j', 'space']","[1.6150050347787328, 1.6159993094042875]","[None, None]",,,,,,,,,,,,,,,,,,,,,3009,2010-05-15_03h37.27.644,eb_03,2023.2.3,119.99116263247103,2010-05-15 03h37.38.331749 -0400,
,,,,0,0,0,0,108,0,108,0,318.99035487213405,,,,,,,,,,,,,,,,,,,,,,,,,,,,,,,,,,,,,,,,,,,,,,,,,,,,,,,,,,,,,,,,,,,,,,,,,,,,,,,,,,,,,,,,,,,,,,,,,,,,,,,,,,318.9763761678478,6.0,"('j',)",318.97691254489473,318.97692612788524,318.99035487213405,318.99035487213405,318.99035487213405,318.99035487213405,318.99035487213405,318.99035487213405,318.99035487213405,318.99035487213405,319.7658896796056,['j'],[0.7151819758000784],[None],,,,,,,,,,,,,,,,,,,,,3009,2010-05-15_03h37.27.644,eb_03,2023.2.3,119.99116263247103,2010-05-15 03h37.38.331749 -0400,
,,,,0,0,0,0,109,0,109,0,319.78204135989654,,,,,,,,,,,,,,,,,,,,,,,,,,,,,,,,,,,,,,,,,,,,,,,,,,,,,,,,,,,,,,,,,,,,,,,,,,,,,,,,,,,,,,,,,,,,,,,,,,,,,,,,,,319.76814234245103,5.0,"('h', 'j')",319.76867358817253,319.7686865674623,319.78204135989654,319.78204135989654,319.78204135989654,319.78204135989654,319.78204135989654,319.78204135989654,319.78204135989654,319.78204135989654,321.733237085311,"['j', 'h']","[1.4195238227548543, 1.9475062843994237]","[None, None]",,,,,,,,,,,,,,,,,,,,,3009,2010-05-15_03h37.27.644,eb_03,2023.2.3,119.99116263247103,2010-05-15 03h37.38.331749 -0400,
,,,,0,0,0,0,110,0,110,0,321.7655332016584,,,,,,,,,,,,,,,,,,,,,,,,,,,,,,,,,,,,,,,,,,,,,,,,,,,,,,,,,,,,,,,,,,,,,,,,,,,,,,,,,,,,,,,,,,,,,,,,,,,,,,,,,,321.73552415840095,4.0,"('j', 'k')",321.73613780757296,321.73615350344335,321.7655332016584,321.7655332016584,321.7655332016584,321.7655332016584,321.7655332016584,321.7655332016584,321.7655332016584,321.7655332016584,322.73279035597807,"['j', 'k']","[0.907997300295392, 0.9089997247210704]","[None, None]",,,,,,,,,,,,,,,,,,,,,3009,2010-05-15_03h37.27.644,eb_03,2023.2.3,119.99116263247103,2010-05-15 03h37.38.331749 -0400,
,,,,0,0,0,0,111,0,111,0,322.7489058149804,,,,,,,,,,,,,,,,,,,,,,,,,,,,,,,,,,,,,,,,,,,,,,,,,,,,,,,,,,,,,,,,,,,,,,,,,,,,,,,,,,,,,,,,,,,,,,,,,,,,,,,,,,322.73504724464146,1.0,"('l',)",322.7356080710888,322.73562346512335,322.7489058149804,322.7489058149804,322.7489058149804,322.7489058149804,322.7489058149804,322.7489058149804,322.7489058149804,322.7489058149804,325.8412897438393,['l'],[3.019668164604809],[None],,,,,,,,,,,,,,,,,,,,,3009,2010-05-15_03h37.27.644,eb_03,2023.2.3,119.99116263247103,2010-05-15 03h37.38.331749 -0400,
,,,,0,0,0,0,112,0,112,0,325.8574960579281,,,,,,,,,,,,,,,,,,,,,,,,,,,,,,,,,,,,,,,,,,,,,,,,,,,,,,,,,,,,,,,,,,,,,,,,,,,,,,,,,,,,,,,,,,,,,,,,,,,,,,,,,,325.84354361408623,7.0,"('h', 'k')",325.8440443735162,325.8440609749523,325.8574960579281,325.8574960579281,325.8574960579281,325.8574960579281,325.8574960579281,325.8574960579281,325.8574960579281,325.8574960579281,329.32488209969597,"['h', 'k']","[3.4070842217770405, 3.4080603857291862]","[None, None]",,,,,,,,,,,,,,,,,,,,,3009,2010-05-15_03h37.27.644,eb_03,2023.2.3,119.99116263247103,2010-05-15 03h37.38.331749 -0400,
,,,,0,0,0,0,113,0,113,0,329.3410120472254,,,,,,,,,,,,,,,,,,,,,,,,,,,,,,,,,,,,,,,,,,,,,,,,,,,,,,,,,,,,,,,,,,,,,,,,,,,,,,,,,,,,,,,,,,,,,,,,,,,,,,,,,,329.3271924147848,5.0,"('h', 'j')",329.32773211211315,329.3277475061768,329.3410120472254,329.3410120472254,329.3410120472254,329.3410120472254,329.3410120472254,329.3410120472254,329.3410120472254,329.3410120472254,330.10828749329085,"['h', 'j']","[0.7075730885553639, 0.7086440315761138]","[None, None]",,,,,,,,,,,,,,,,,,,,,3009,2010-05-15_03h37.27.644,eb_03,2023.2.3,119.99116263247103,2010-05-15 03h37.38.331749 -0400,
,,,,0,0,0,0,114,0,114,0,330.1244461160095,,,,,,,,,,,,,,,,,,,,,,,,,,,,,,,,,,,,,,,,,,,,,,,,,,,,,,,,,,,,,,,,,,,,,,,,,,,,,,,,,,,,,,,,,,,,,,,,,,,,,,,,,,330.1105745663808,7.0,"('h', 'k')",330.1110964549007,330.1111121508002,330.1244461160095,330.1244461160095,330.1244461160095,330.1244461160095,330.1244461160095,330.1244461160095,330.1244461160095,330.1244461160095,331.4255607056839,"['k', 'h', 'k']","[0.7561509800434578, 1.2601099678722676, 1.2610963945335243]","[None, None, None]",,,,,,,,,,,,,,,,,,,,,3009,2010-05-15_03h37.27.644,eb_03,2023.2.3,119.99116263247103,2010-05-15 03h37.38.331749 -0400,
,,,,0,0,0,0,115,0,115,0,331.441138278431,,,,,,,,,,,,,,,,,,,,,,,,,,,,,,,,,,,,,,,,,,,,,,,,,,,,,,,,,,,,,,,,,,,,,,,,,,,,,,,,,,,,,,,,,,,,,,,,,,,,,,,,,,331.427784995205,6.0,"('j',)",331.42843305459246,331.4284481468203,331.441138278431,331.441138278431,331.441138278431,331.441138278431,331.441138278431,331.441138278431,331.441138278431,331.441138278431,332.23338347973186,['j'],[0.7194479391328059],[None],,,,,,,,,,,,,,,,,,,,,3009,2010-05-15_03h37.27.644,eb_03,2023.2.3,119.99116263247103,2010-05-15 03h37.38.331749 -0400,
,,,,0,0,0,0,116,0,116,0,332.2495333489496,,,,,,,,,,,,,,,,,,,,,,,,,,,,,,,,,,,,,,,,,,,,,,,,,,,,,,,,,,,,,,,,,,,,,,,,,,,,,,,,,,,,,,,,,,,,,,,,,,,,,,,,,,332.23563825548626,2.0,"('k', 'space')",332.23610973605537,332.2361257337907,332.2495333489496,332.2495333489496,332.2495333489496,332.2495333489496,332.2495333489496,332.2495333489496,332.2495333489496,332.2495333489496,335.90086411943776,"['space', 'k']","[3.50306522732717, 3.5910618515044916]","[None, None]",,,,,,,,,,,,,,,,,,,,,3009,2010-05-15_03h37.27.644,eb_03,2023.2.3,119.99116263247103,2010-05-15 03h37.38.331749 -0400,
,,,,0,0,0,0,117,0,117,0,335.91645255856565,,,,,,,,,,,,,,,,,,,,,,,,,,,,,,,,,,,,,,,,,,,,,,,,,,,,,,,,,,,,,,,,,,,,,,,,,,,,,,,,,,,,,,,,,,,,,,,,,,,,,,,,,,335.9031137638667,1.0,"('l',)",335.9037249982648,335.9037406941643,335.91645255856565,335.91645255856565,335.91645255856565,335.91645255856565,335.91645255856565,335.91645255856565,335.91645255856565,335.91645255856565,337.17536963833845,['l'],[1.1961510041728616],[None],,,,,,,,,,,,,,,,,,,,,3009,2010-05-15_03h37.27.644,eb_03,2023.2.3,119.99116263247103,2010-05-15 03h37.38.331749 -0400,
,,,,0,0,0,0,118,0,118,0,337.19157746166456,,,,,,,,,,,,,,,,,,,,,,,,,,,,,,,,,,,,,,,,,,,,,,,,,,,,,,,,,,,,,,,,,,,,,,,,,,,,,,,,,,,,,,,,,,,,,,,,,,,,,,,,,,337.1776346768311,3.0,"('space',)",337.17820486042183,337.17822085815715,337.19157746166456,337.19157746166456,337.19157746166456,337.19157746166456,337.19157746166456,337.19157746166456,337.19157746166456,337.19157746166456,337.96706759618246,['space'],[0.7130337510316167],[None],,,,,,,,,,,,,,,,,,,,,3009,2010-05-15_03h37.27.644,eb_03,2023.2.3,119.99116263247103,2010-05-15 03h37.38.331749 -0400,
,,,,0,0,0,0,119,0,119,0,337.98323799084756,,,,,,,,,,,,,,,,,,,,,,,,,,,,,,,,,,,,,,,,,,,,,,,,,,,,,,,,,,,,,,,,,,,,,,,,,,,,,,,,,,,,,,,,,,,,,,,,,,,,,,,,,,337.9693314273027,1.0,"('l',)",337.9698198111146,337.9698361107148,337.98323799084756,337.98323799084756,337.98323799084756,337.98323799084756,337.98323799084756,337.98323799084756,337.98323799084756,337.98323799084756,338.5503916729649,['l'],[0.5053613557538483],[None],,,,,,,,,,,,,,,,,,,,,3009,2010-05-15_03h37.27.644,eb_03,2023.2.3,119.99116263247103,2010-05-15 03h37.38.331749 -0400,
,,,,0,0,0,0,120,0,120,0,338.5666272659437,,,,,,,,,,,,,,,,,,,,,,,,,,,,,,,,,,,,,,,,,,,,,,,,,,,,,,,,,,,,,,,,,,,,,,,,,,,,,,,,,,,,,,,,,,,,,,,,,,,,,,,,,,338.5526684833749,2.0,"('k', 'space')",338.55311038321815,338.5531263809535,338.5666272659437,338.5666272659437,338.5666272659437,338.5666272659437,338.5666272659437,338.5666272659437,338.5666272659437,338.5666272659437,340.8262244006037,"['h', 'k', 'k', 'space']","[1.1849574158259202, 1.2010197502677329, 2.2569680721499026, 2.257968987338245]","[None, None, None, None]",,,,,,,,,,,,,,,,,,,,,3009,2010-05-15_03h37.27.644,eb_03,2023.2.3,119.99116263247103,2010-05-15 03h37.38.331749 -0400,
,,,,0,0,0,0,121,0,121,0,340.8584616573644,,,,,,,,,,,,,,,,,,,,,,,,,,,,,,,,,,,,,,,,,,,,,,,,,,,,,,,,,,,,,,,,,,,,,,,,,,,,,,,,,,,,,,,,,,,,,,,,,,,,,,,,,,340.8284981925681,0.0,"('l', 'space')",340.82902370323427,340.829038795433,340.8584616573644,340.8584616573644,340.8584616573644,340.8584616573644,340.8584616573644,340.8584616573644,340.8584616573644,340.8584616573644,342.45074265735457,"['l', 'space']","[1.5331790104974061, 1.5341775109409355]","[None, None]",,,,,,,,,,,,,,,,,,,,,3009,2010-05-15_03h37.27.644,eb_03,2023.2.3,119.99116263247103,2010-05-15 03h37.38.331749 -0400,
,,,,0,0,0,0,122,0,122,0,342.46686988827423,,,,,,,,,,,,,,,,,,,,,,,,,,,,,,,,,,,,,,,,,,,,,,,,,,,,,,,,,,,,,,,,,,,,,,,,,,,,,,,,,,,,,,,,,,,,,,,,,,,,,,,,,,342.4529941128276,2.0,"('k', 'space')",342.4535368286306,342.4535528263659,342.46686988827423,342.46686988827423,342.46686988827423,342.46686988827423,342.46686988827423,342.46686988827423,342.46686988827423,342.46686988827423,344.6425486150256,"['k', 'space']","[2.092761234031059, 2.0937431330385152]","[None, None]",,,,,,,,,,,,,,,,,,,,,3009,2010-05-15_03h37.27.644,eb_03,2023.2.3,119.99116263247103,2010-05-15 03h37.38.331749 -0400,
,,,,0,0,0,0,123,0,123,0,344.6586930510821,,,,,,,,,,,,,,,,,,,,,,,,,,,,,,,,,,,,,,,,,,,,,,,,,,,,,,,,,,,,,,,,,,,,,,,,,,,,,,,,,,,,,,,,,,,,,,,,,,,,,,,,,,344.6448269346438,1.0,"('l',)",344.6454888788576,344.64550427292124,344.6586930510821,344.6586930510821,344.6586930510821,344.6586930510821,344.6586930510821,344.6586930510821,344.6586930510821,344.6586930510821,345.7759999493137,['l'],[1.0449135035159998],[None],,,,,,,,,,,,,,,,,,,,,3009,2010-05-15_03h37.27.644,eb_03,2023.2.3,119.99116263247103,2010-05-15 03h37.38.331749 -0400,
,,,,0,0,0,0,124,0,124,0,345.7920906570798,,,,,,,,,,,,,,,,,,,,,,,,,,,,,,,,,,,,,,,,,,,,,,,,,,,,,,,,,,,,,,,,,,,,,,,,,,,,,,,,,,,,,,,,,,,,,,,,,,,,,,,,,,345.7782556306047,11.0,"('h',)",345.7788466414495,345.77886294102063,345.7920906570798,345.7920906570798,345.7920906570798,345.7920906570798,345.7920906570798,345.7920906570798,345.7920906570798,345.7920906570798,346.809343766683,['h'],[0.9435373357264325],[None],,,,,,,,,,,,,,,,,,,,,3009,2010-05-15_03h37.27.644,eb_03,2023.2.3,119.99116263247103,2010-05-15 03h37.38.331749 -0400,
,,,,0,0,0,0,125,0,125,0,346.82555883427267,,,,,,,,,,,,,,,,,,,,,,,,,,,,,,,,,,,,,,,,,,,,,,,,,,,,,,,,,,,,,,,,,,,,,,,,,,,,,,,,,,,,,,,,,,,,,,,,,,,,,,,,,,346.8116238973744,10.0,"('h', 'space')",346.81210624432424,346.8121225438954,346.82555883427267,346.82555883427267,346.82555883427267,346.82555883427267,346.82555883427267,346.82555883427267,346.82555883427267,346.82555883427267,347.64272066619014,"['h', 'space']","[0.7340949263598304, 0.7350629405409563]","[None, None]",,,,,,,,,,,,,,,,,,,,,3009,2010-05-15_03h37.27.644,eb_03,2023.2.3,119.99116263247103,2010-05-15 03h37.38.331749 -0400,
,,,,0,0,0,0,126,0,126,0,347.65888321289094,,,,,,,,,,,,,,,,,,,,,,,,,,,,,,,,,,,,,,,,,,,,,,,,,,,,,,,,,,,,,,,,,,,,,,,,,,,,,,,,,,,,,,,,,,,,,,,,,,,,,,,,,,347.6449908360082,11.0,"('h',)",347.6455453237286,347.6455610196281,347.65888321289094,347.65888321289094,347.65888321289094,347.65888321289094,347.65888321289094,347.65888321289094,347.65888321289094,347.65888321289094,348.426132398512,['h'],[0.6927495224808808],[None],,,,,,,,,,,,,,,,,,,,,3009,2010-05-15_03h37.27.644,eb_03,2023.2.3,119.99116263247103,2010-05-15 03h37.38.331749 -0400,
,,,,0,0,0,0,127,0,127,0,348.44230158577557,,,,,,,,,,,,,,,,,,,,,,,,,,,,,,,,,,,,,,,,,,,,,,,,,,,,,,,,,,,,,,,,,,,,,,,,,,,,,,,,,,,,,,,,,,,,,,,,,,,,,,,,,,348.4283929093217,14.0,"('j', 'l')",348.4289386435412,348.42895494314143,348.44230158577557,348.44230158577557,348.44230158577557,348.44230158577557,348.44230158577557,348.44230158577557,348.44230158577557,348.44230158577557,350.3095804124896,"['j', 'l']","[1.8053310505929403, 1.806321401236346]","[None, None]",,,,,,,,,,,,,,,,,,,,,3009,2010-05-15_03h37.27.644,eb_03,2023.2.3,119.99116263247103,2010-05-15 03h37.38.331749 -0400,
,,,,0,0,0,0,128,0,128,0,350.3257680122624,,,,,,,,,,,,,,,,,,,,,,,,,,,,,,,,,,,,,,,,,,,,,,,,,,,,,,,,,,,,,,,,,,,,,,,,,,,,,,,,,,,,,,,,,,,,,,,,,,,,,,,,,,350.31182341635576,14.0,"('j', 'l')",350.31234077722183,350.3123561712855,350.3257680122624,350.3257680122624,350.3257680122624,350.3257680122624,350.3257680122624,350.3257680122624,350.3257680122624,350.3257680122624,352.1097767922911,"['l', 'j']","[1.721852731454419, 1.7378728077164851]","[None, None]",,,,,,,,,,,,,,,,,,,,,3009,2010-05-15_03h37.27.644,eb_03,2023.2.3,119.99116263247103,2010-05-15 03h37.38.331749 -0400,
,,,,0,0,0,0,129,0,129,0,352.1258662927139,,,,,,,,,,,,,,,,,,,,,,,,,,,,,,,,,,,,,,,,,,,,,,,,,,,,,,,,,,,,,,,,,,,,,,,,,,,,,,,,,,,,,,,,,,,,,,,,,,,,,,,,,,352.1120674875274,12.0,"('k', 'l')",352.11266061128117,352.1126766090165,352.1258662927139,352.1258662927139,352.1258662927139,352.1258662927139,352.1258662927139,352.1258662927139,352.1258662927139,352.1258662927139,353.1014600805065,"['k', 'l']","[0.9137767101929057, 0.9147598165727686]","[None, None]",,,,,,,,,,,,,,,,,,,,,3009,2010-05-15_03h37.27.644,eb_03,2023.2.3,119.99116263247103,2010-05-15 03h37.38.331749 -0400,
,,,,0,0,0,0,130,0,130,0,353.1175806708634,,,,,,,,,,,,,,,,,,,,,,,,,,,,,,,,,,,,,,,,,,,,,,,,,,,,,,,,,,,,,,,,,,,,,,,,,,,,,,,,,,,,,,,,,,,,,,,,,,,,,,,,,,353.10372210055357,14.0,"('j', 'l')",353.10422044523875,353.10423614113824,353.1175806708634,353.1175806708634,353.1175806708634,353.1175806708634,353.1175806708634,353.1175806708634,353.1175806708634,353.1175806708634,355.5015686840343,"['j', 'l']","[2.3210673933499493, 2.337052153830882]","[None, None]",,,,,,,,,,,,,,,,,,,,,3009,2010-05-15_03h37.27.644,eb_03,2023.2.3,119.99116263247103,2010-05-15 03h37.38.331749 -0400,
,,,,0,0,0,0,131,0,131,0,355.5177517561533,,,,,,,,,,,,,,,,,,,,,,,,,,,,,,,,,,,,,,,,,,,,,,,,,,,,,,,,,,,,,,,,,,,,,,,,,,,,,,,,,,,,,,,,,,,,,,,,,,,,,,,,,,355.50382979854476,13.0,"('j', 'space')",355.50447393395007,355.50448932801373,355.5177517561533,355.5177517561533,355.5177517561533,355.5177517561533,355.5177517561533,355.5177517561533,355.5177517561533,355.5177517561533,359.16853709422867,"['j', 'space']","[3.56890649109846, 3.569907406286802]","[None, None]",,,,,,,,,,,,,,,,,,,,,3009,2010-05-15_03h37.27.644,eb_03,2023.2.3,119.99116263247103,2010-05-15 03h37.38.331749 -0400,
,,,,0,0,0,0,132,0,132,0,359.1846697583678,,,,,,,,,,,,,,,,,,,,,,,,,,,,,,,,,,,,,,,,,,,,,,,,,,,,,,,,,,,,,,,,,,,,,,,,,,,,,,,,,,,,,,,,,,,,,,,,,,,,,,,,,,359.1707761741127,6.0,"('j',)",359.1712962515885,359.17131164565217,359.1846697583678,359.1846697583678,359.1846697583678,359.1846697583678,359.1846697583678,359.1846697583678,359.1846697583678,359.1846697583678,359.90200086450204,['j'],[0.6539873008150607],[None],,,,,,,,,,,,,,,,,,,,,3009,2010-05-15_03h37.27.644,eb_03,2023.2.3,119.99116263247103,2010-05-15 03h37.38.331749 -0400,
,,,,0,0,0,0,133,0,133,0,359.9180625952431,,,,,,,,,,,,,,,,,,,,,,,,,,,,,,,,,,,,,,,,,,,,,,,,,,,,,,,,,,,,,,,,,,,,,,,,,,,,,,,,,,,,,,,,,,,,,,,,,,,,,,,,,,359.9042314927501,8.0,"('k',)",359.9048209943576,359.90483759579365,359.9180625952431,359.9180625952431,359.9180625952431,359.9180625952431,359.9180625952431,359.9180625952431,359.9180625952431,359.9180625952431,360.98531648964854,['k'],[0.9925800671917386],[None],,,,,,,,,,,,,,,,,,,,,3009,2010-05-15_03h37.27.644,eb_03,2023.2.3,119.99116263247103,2010-05-15 03h37.38.331749 -0400,
,,,,0,0,0,0,134,0,134,0,361.0014853750472,,,,,,,,,,,,,,,,,,,,,,,,,,,,,,,,,,,,,,,,,,,,,,,,,,,,,,,,,,,,,,,,,,,,,,,,,,,,,,,,,,,,,,,,,,,,,,,,,,,,,,,,,,360.98752629064256,6.0,"('j',)",360.98809466316015,360.9881109627604,361.0014853750472,361.0014853750472,361.0014853750472,361.0014853750472,361.0014853750472,361.0014853750472,361.0014853750472,361.0014853750472,361.85210451777675,['j'],[0.789179068437079],[None],,,,,,,,,,,,,,,,,,,,,3009,2010-05-15_03h37.27.644,eb_03,2023.2.3,119.99116263247103,2010-05-15 03h37.38.331749 -0400,
,,,,0,0,0,0,135,0,135,0,361.8681943200354,,,,,,,,,,,,,,,,,,,,,,,,,,,,,,,,,,,,,,,,,,,,,,,,,,,,,,,,,,,,,,,,,,,,,,,,,,,,,,,,,,,,,,,,,,,,,,,,,,,,,,,,,,361.8543641230499,9.0,"('h', 'l')",361.8549810925033,361.85499437362887,361.8681943200354,361.8681943200354,361.8681943200354,361.8681943200354,361.8681943200354,361.8681943200354,361.8681943200354,361.8681943200354,364.67720696367905,"['h', 'l']","[2.7464922691870015, 2.747487449320033]","[None, None]",,,,,,,,,,,,,,,,,,,,,3009,2010-05-15_03h37.27.644,eb_03,2023.2.3,119.99116263247103,2010-05-15 03h37.38.331749 -0400,
,,,,0,0,0,0,136,0,136,0,364.69341448514024,,,,,,,,,,,,,,,,,,,,,,,,,,,,,,,,,,,,,,,,,,,,,,,,,,,,,,,,,,,,,,,,,,,,,,,,,,,,,,,,,,,,,,,,,,,,,,,,,,,,,,,,,,364.6794698892336,2.0,"('k', 'space')",364.6800026441633,364.6800183400628,364.69341448514024,364.69341448514024,364.69341448514024,364.69341448514024,364.69341448514024,364.69341448514024,364.69341448514024,364.69341448514024,367.64471495046746,"['h', 'k', 'k', 'space']","[2.06526534515433, 2.0972412048722617, 2.921252786036348, 2.9372758807148784]","[None, None, None, None]",,,,,,,,,,,,,,,,,,,,,3009,2010-05-15_03h37.27.644,eb_03,2023.2.3,119.99116263247103,2010-05-15 03h37.38.331749 -0400,
,,,,0,0,0,0,137,0,137,0,367.66025388715207,,,,,,,,,,,,,,,,,,,,,,,,,,,,,,,,,,,,,,,,,,,,,,,,,,,,,,,,,,,,,,,,,,,,,,,,,,,,,,,,,,,,,,,,,,,,,,,,,,,,,,,,,,367.64695916170604,0.0,"('l', 'space')",367.6475260250154,367.6475417209149,367.66025388715207,367.66025388715207,367.66025388715207,367.66025388715207,367.66025388715207,367.66025388715207,367.66025388715207,367.66025388715207,370.7193404826103,"['l', 'space']","[2.9854502065863926, 3.0093879566411488]","[None, None]",,,,,,,,,,,,,,,,,,,,,3009,2010-05-15_03h37.27.644,eb_03,2023.2.3,119.99116263247103,2010-05-15 03h37.38.331749 -0400,
,,,,0,0,0,0,138,0,138,0,370.735419720324,,,,,,,,,,,,,,,,,,,,,,,,,,,,,,,,,,,,,,,,,,,,,,,,,,,,,,,,,,,,,,,,,,,,,,,,,,,,,,,,,,,,,,,,,,,,,,,,,,,,,,,,,,370.7215931454848,1.0,"('l',)",370.72215216085897,370.72216785675846,370.735419720324,370.735419720324,370.735419720324,370.735419720324,370.735419720324,370.735419720324,370.735419720324,370.735419720324,372.4943805675139,['l'],[1.6862921706342604],[None],,,,,,,,,,,,,,,,,,,,,3009,2010-05-15_03h37.27.644,eb_03,2023.2.3,119.99116263247103,2010-05-15 03h37.38.331749 -0400,
,,,,0,0,0,0,139,0,139,0,372.51052621094277,,,,,,,,,,,,,,,,,,,,,,,,,,,,,,,,,,,,,,,,,,,,,,,,,,,,,,,,,,,,,,,,,,,,,,,,,,,,,,,,,,,,,,,,,,,,,,,,,,,,,,,,,,372.4965668246732,3.0,"('space',)",372.4971985844895,372.497214280389,372.51052621094277,372.51052621094277,372.51052621094277,372.51052621094277,372.51052621094277,372.51052621094277,372.51052621094277,372.51052621094277,373.61944576585665,['space'],[1.0471405096468516],[None],,,,,,,,,,,,,,,,,,,,,3009,2010-05-15_03h37.27.644,eb_03,2023.2.3,119.99116263247103,2010-05-15 03h37.38.331749 -0400,
,,,,0,0,0,0,140,0,140,0,373.63562974348315,,,,,,,,,,,,,,,,,,,,,,,,,,,,,,,,,,,,,,,,,,,,,,,,,,,,,,,,,,,,,,,,,,,,,,,,,,,,,,,,,,,,,,,,,,,,,,,,,,,,,,,,,,373.6217325371108,14.0,"('j', 'l')",373.62231751106447,373.62233320696396,373.63562974348315,373.63562974348315,373.63562974348315,373.63562974348315,373.63562974348315,373.63562974348315,373.63562974348315,373.63562974348315,375.4279594611435,"['j', 'l']","[1.7300689291150775, 1.7310290953610092]","[None, None]",,,,,,,,,,,,,,,,,,,,,3009,2010-05-15_03h37.27.644,eb_03,2023.2.3,119.99116263247103,2010-05-15 03h37.38.331749 -0400,
,,,,0,0,0,0,141,0,141,0,375.4440897105087,,,,,,,,,,,,,,,,,,,,,,,,,,,,,,,,,,,,,,,,,,,,,,,,,,,,,,,,,,,,,,,,,,,,,,,,,,,,,,,,,,,,,,,,,,,,,,,,,,,,,,,,,,375.4302157461352,0.0,"('l', 'space')",375.43080283299787,375.43081852889736,375.4440897105087,375.4440897105087,375.4440897105087,375.4440897105087,375.4440897105087,375.4440897105087,375.4440897105087,375.4440897105087,377.6531635681458,"['space', 'l']","[2.1456216902588494, 2.17762381042121]","[None, None]",,,,,,,,,,,,,,,,,,,,,3009,2010-05-15_03h37.27.644,eb_03,2023.2.3,119.99116263247103,2010-05-15 03h37.38.331749 -0400,
,,,,0,0,0,0,142,0,142,0,377.66920326426043,,,,,,,,,,,,,,,,,,,,,,,,,,,,,,,,,,,,,,,,,,,,,,,,,,,,,,,,,,,,,,,,,,,,,,,,,,,,,,,,,,,,,,,,,,,,,,,,,,,,,,,,,,377.6554029498657,14.0,"('j', 'l')",377.6559613615391,377.6559773592744,377.66920326426043,377.66920326426043,377.66920326426043,377.66920326426043,377.66920326426043,377.66920326426043,377.66920326426043,377.66920326426043,379.63657270459225,"['j', 'l']","[1.9045239796978422, 1.9365191574324854]","[None, None]",,,,,,,,,,,,,,,,,,,,,3009,2010-05-15_03h37.27.644,eb_03,2023.2.3,119.99116263247103,2010-05-15 03h37.38.331749 -0400,
,,,,0,0,0,0,143,0,143,0,379.6526860507147,,,,,,,,,,,,,,,,,,,,,,,,,,,,,,,,,,,,,,,,,,,,,,,,,,,,,,,,,,,,,,,,,,,,,,,,,,,,,,,,,,,,,,,,,,,,,,,,,,,,,,,,,,379.6388033328403,0.0,"('l', 'space')",379.6393086199532,379.6393240140169,379.6526860507147,379.6526860507147,379.6526860507147,379.6526860507147,379.6526860507147,379.6526860507147,379.6526860507147,379.6526860507147,381.2700605620339,"['space', 'l']","[1.5530385442834813, 1.568997346184915]","[None, None]",,,,,,,,,,,,,,,,,,,,,3009,2010-05-15_03h37.27.644,eb_03,2023.2.3,119.99116263247103,2010-05-15 03h37.38.331749 -0400,
,,,,0,0,0,0,144,0,144,0,381.2861241038481,,,,,,,,,,,,,,,,,,,,,,,,,,,,,,,,,,,,,,,,,,,,,,,,,,,,,,,,,,,,,,,,,,,,,,,,,,,,,,,,,,,,,,,,,,,,,,,,,,,,,,,,,,381.2723412963969,4.0,"('j', 'k')",381.2729256666498,381.27294166441425,381.2861241038481,381.2861241038481,381.2861241038481,381.2861241038481,381.2861241038481,381.2861241038481,381.2861241038481,381.2861241038481,383.72847398466547,"['j', 'k']","[2.3835974268440623, 2.4075831701338757]","[None, None]",,,,,,,,,,,,,,,,,,,,,3009,2010-05-15_03h37.27.644,eb_03,2023.2.3,119.99116263247103,2010-05-15 03h37.38.331749 -0400,
,,,,0,0,0,0,145,0,145,0,383.7446169114846,,,,,,,,,,,,,,,,,,,,,,,,,,,,,,,,,,,,,,,,,,,,,,,,,,,,,,,,,,,,,,,,,,,,,,,,,,,,,,,,,,,,,,,,,,,,,,,,,,,,,,,,,,383.73074747479404,3.0,"('space',)",383.7313152436109,383.7313312413753,383.7446169114846,383.7446169114846,383.7446169114846,383.7446169114846,383.7446169114846,383.7446169114846,383.7446169114846,383.7446169114846,384.5118763598148,['space'],[0.6922043919621501],[None],,,,,,,,,,,,,,,,,,,,,3009,2010-05-15_03h37.27.644,eb_03,2023.2.3,119.99116263247103,2010-05-15 03h37.38.331749 -0400,
,,,,0,0,0,0,146,0,146,0,384.5280416230962,,,,,,,,,,,,,,,,,,,,,,,,,,,,,,,,,,,,,,,,,,,,,,,,,,,,,,,,,,,,,,,,,,,,,,,,,,,,,,,,,,,,,,,,,,,,,,,,,,,,,,,,,,384.51412389133475,2.0,"('k', 'space')",384.5148045498936,384.5148202457931,384.5280416230962,384.5280416230962,384.5280416230962,384.5280416230962,384.5280416230962,384.5280416230962,384.5280416230962,384.5280416230962,386.0286468206323,"['k', 'space']","[1.4206626807281282, 1.4216675198986195]","[None, None]",,,,,,,,,,,,,,,,,,,,,3009,2010-05-15_03h37.27.644,eb_03,2023.2.3,119.99116263247103,2010-05-15 03h37.38.331749 -0400,
,,,,0,0,0,0,147,0,147,0,386.04474145238055,,,,,,,,,,,,,,,,,,,,,,,,,,,,,,,,,,,,,,,,,,,,,,,,,,,,,,,,,,,,,,,,,,,,,,,,,,,,,,,,,,,,,,,,,,,,,,,,,,,,,,,,,,386.03089767243364,4.0,"('j', 'k')",386.0315466373577,386.03156233322807,386.04474145238055,386.04474145238055,386.04474145238055,386.04474145238055,386.04474145238055,386.04474145238055,386.04474145238055,386.04474145238055,387.6458737301582,"['j', 'k', 'j']","[0.8959679054969456, 1.52796465283609, 1.543984125397401]","[None, None, None]",,,,,,,,,,,,,,,,,,,,,3009,2010-05-15_03h37.27.644,eb_03,2023.2.3,119.99116263247103,2010-05-15 03h37.38.331749 -0400,
,,,,0,0,0,0,148,0,148,0,387.66156298521673,,,,,,,,,,,,,,,,,,,,,,,,,,,,,,,,,,,,,,,,,,,,,,,,,,,,,,,,,,,,,,,,,,,,,,,,,,,,,,,,,,,,,,,,,,,,,,,,,,,,,,,,,,387.648152955313,10.0,"('h', 'space')",387.64865431844373,387.6486790696508,387.66156298521673,387.66156298521673,387.66156298521673,387.66156298521673,387.66156298521673,387.66156298521673,387.66156298521673,387.66156298521673,389.9205730330141,"['h', 'space']","[2.1991966116183903, 2.2002008471172303]","[None, None]",,,,,,,,,,,,,,,,,,,,,3009,2010-05-15_03h37.27.644,eb_03,2023.2.3,119.99116263247103,2010-05-15 03h37.38.331749 -0400,
,,,,0,0,0,0,149,0,149,0,389.93670720636146,,,,,,,,,,,,,,,,,,,,,,,,,,,,,,,,,,,,,,,,,,,,,,,,,,,,,,,,,,,,,,,,,,,,,,,,,,,,,,,,,,,,,,,,,,,,,,,,,,,,,,,,,,389.92283988255076,9.0,"('h', 'l')",389.9234514187847,389.9234662091476,389.93670720636146,389.93670720636146,389.93670720636146,389.93670720636146,389.93670720636146,389.93670720636146,389.93670720636146,389.93670720636146,391.72065531573026,"['h', 'l']","[1.724017255823128, 1.7250299429288134]","[None, None]",,,,,,,,,,,,,,,,,,,,,3009,2010-05-15_03h37.27.644,eb_03,2023.2.3,119.99116263247103,2010-05-15 03h37.38.331749 -0400,
,,,,0,0,0,0,150,0,150,0,391.7368682703818,,,,,,,,,,,,,,,,,,,,,,,,,,,,,,,,,,,,,,,,,,,,,,,,,,,,,,,,,,,,,,,,,,,,,,,,,,,,,,,,,,,,,,,,,,,,,,,,,,,,,,,,,,391.7229755916924,8.0,"('k',)",391.72354154946515,391.7235554342915,391.7368682703818,391.7368682703818,391.7368682703818,391.7368682703818,391.7368682703818,391.7368682703818,391.7368682703818,391.7368682703818,393.3874577116512,['k'],[1.5878435891936533],[None],,,,,,,,,,,,,,,,,,,,,3009,2010-05-15_03h37.27.644,eb_03,2023.2.3,119.99116263247103,2010-05-15 03h37.38.331749 -0400,
,,,,0,0,0,0,151,0,151,0,393.4036235786334,,,,,,,,,,,,,,,,,,,,,,,,,,,,,,,,,,,,,,,,,,,,,,,,,,,,,,,,,,,,,,,,,,,,,,,,,,,,,,,,,,,,,,,,,,,,,,,,,,,,,,,,,,393.3897402570874,9.0,"('h', 'l')",393.39027572859777,393.39029142449726,393.4036235786334,393.4036235786334,393.4036235786334,393.4036235786334,393.4036235786334,393.4036235786334,393.4036235786334,393.4036235786334,395.61263223792776,"['h', 'l']","[2.129142207239056, 2.1301349726272747]","[None, None]",,,,,,,,,,,,,,,,,,,,,3009,2010-05-15_03h37.27.644,eb_03,2023.2.3,119.99116263247103,2010-05-15 03h37.38.331749 -0400,
,,,,0,0,0,0,152,0,152,0,395.6287549411936,,,,,,,,,,,,,,,,,,,,,,,,,,,,,,,,,,,,,,,,,,,,,,,,,,,,,,,,,,,,,,,,,,,,,,,,,,,,,,,,,,,,,,,,,,,,,,,,,,,,,,,,,,395.61487795837456,14.0,"('j', 'l')",395.6153702661977,395.6153856602323,395.6287549411936,395.6287549411936,395.6287549411936,395.6287549411936,395.6287549411936,395.6287549411936,395.6287549411936,395.6287549411936,396.7626895279391,"['j', 'l']","[1.071969907352468, 1.1040013063757215]","[None, None]",,,,,,,,,,,,,,,,,,,,,3009,2010-05-15_03h37.27.644,eb_03,2023.2.3,119.99116263247103,2010-05-15 03h37.38.331749 -0400,
,,,,0,0,0,0,153,0,153,0,396.7788499617309,,,,,,,,,,,,,,,,,,,,,,,,,,,,,,,,,,,,,,,,,,,,,,,,,,,,,,,,,,,,,,,,,,,,,,,,,,,,,,,,,,,,,,,,,,,,,,,,,,,,,,,,,,396.7649738844484,0.0,"('l', 'space')",396.76560141844675,396.76561620880966,396.7788499617309,396.7788499617309,396.7788499617309,396.7788499617309,396.7788499617309,396.7788499617309,396.7788499617309,396.7788499617309,398.0378337490838,"['l', 'space']","[1.1858973585185595, 1.2019086812797468]","[None, None]",,,,,,,,,,,,,,,,,,,,,3009,2010-05-15_03h37.27.644,eb_03,2023.2.3,119.99116263247103,2010-05-15 03h37.38.331749 -0400,
,,,,0,0,0,0,154,0,154,0,398.05392355134245,,,,,,,,,,,,,,,,,,,,,,,,,,,,,,,,,,,,,,,,,,,,,,,,,,,,,,,,,,,,,,,,,,,,,,,,,,,,,,,,,,,,,,,,,,,,,,,,,,,,,,,,,,398.0400930525211,14.0,"('j', 'l')",398.0406559918483,398.0406716877478,398.05392355134245,398.05392355134245,398.05392355134245,398.05392355134245,398.05392355134245,398.05392355134245,398.05392355134245,398.05392355134245,399.21286260537454,"['j', 'l']","[1.0868242615251802, 1.1188022341229953]","[None, None]",,,,,,,,,,,,,,,,,,,,,3009,2010-05-15_03h37.27.644,eb_03,2023.2.3,119.99116263247103,2010-05-15 03h37.38.331749 -0400,
,,,,0,0,0,0,155,0,155,0,399.2290013064048,,,,,,,,,,,,,,,,,,,,,,,,,,,,,,,,,,,,,,,,,,,,,,,,,,,,,,,,,,,,,,,,,,,,,,,,,,,,,,,,,,,,,,,,,,,,,,,,,,,,,,,,,,399.21508448015084,11.0,"('h',)",399.21565073975944,399.2156661338231,399.2290013064048,399.2290013064048,399.2290013064048,399.2290013064048,399.2290013064048,399.2290013064048,399.2290013064048,399.2290013064048,400.1379246645374,['h'],[0.847781204036437],[None],,,,,,,,,,,,,,,,,,,,,3009,2010-05-15_03h37.27.644,eb_03,2023.2.3,119.99116263247103,2010-05-15 03h37.38.331749 -0400,
,,,,0,0,0,0,156,0,156,0,400.154062460002,,,,,,,,,,,,,,,,,,,,,,,,,,,,,,,,,,,,,,,,,,,,,,,,,,,,,,,,,,,,,,,,,,,,,,,,,,,,,,,,,,,,,,,,,,,,,,,,,,,,,,,,,,400.140137483977,10.0,"('h', 'space')",400.1406596743618,400.14067567209713,400.154062460002,400.154062460002,400.154062460002,400.154062460002,400.154062460002,400.154062460002,400.154062460002,400.154062460002,400.91302028877544,"['h', 'space']","[0.6986837784352247, 0.6996946544677485]","[None, None]",,,,,,,,,,,,,,,,,,,,,3009,2010-05-15_03h37.27.644,eb_03,2023.2.3,119.99116263247103,2010-05-15 03h37.38.331749 -0400,
,,,,0,0,0,0,157,0,157,0,400.9291257869045,,,,,,,,,,,,,,,,,,,,,,,,,,,,,,,,,,,,,,,,,,,,,,,,,,,,,,,,,,,,,,,,,,,,,,,,,,,,,,,,,,,,,,,,,,,,,,,,,,,,,,,,,,400.91529891022947,13.0,"('j', 'space')",400.91583558911225,400.9158506813401,400.9291257869045,400.9291257869045,400.9291257869045,400.9291257869045,400.9291257869045,400.9291257869045,400.9291257869045,400.9291257869045,402.9881625780836,"['j', 'space']","[1.9786605243280064, 1.9796520823729225]","[None, None]",,,,,,,,,,,,,,,,,,,,,3009,2010-05-15_03h37.27.644,eb_03,2023.2.3,119.99116263247103,2010-05-15 03h37.38.331749 -0400,
,,,,0,0,0,0,158,0,158,0,403.0042451361078,,,,,,,,,,,,,,,,,,,,,,,,,,,,,,,,,,,,,,,,,,,,,,,,,,,,,,,,,,,,,,,,,,,,,,,,,,,,,,,,,,,,,,,,,,,,,,,,,,,,,,,,,,402.990423994459,12.0,"('k', 'l')",402.99101379790227,402.99102919196594,403.0042451361078,403.0042451361078,403.0042451361078,403.0042451361078,403.0042451361078,403.0042451361078,403.0042451361078,403.0042451361078,404.03826176407165,"['k', 'l']","[0.9595236054155976, 0.9995520632655825]","[None, None]",,,,,,,,,,,,,,,,,,,,,3009,2010-05-15_03h37.27.644,eb_03,2023.2.3,119.99116263247103,2010-05-15 03h37.38.331749 -0400,
,,,,0,0,0,0,159,0,159,0,404.05435217003105,,,,,,,,,,,,,,,,,,,,,,,,,,,,,,,,,,,,,,,,,,,,,,,,,,,,,,,,,,,,,,,,,,,,,,,,,,,,,,,,,,,,,,,,,,,,,,,,,,,,,,,,,,404.04052861363743,13.0,"('j', 'space')",404.0410405413131,404.04105321876705,404.05435217003105,404.05435217003105,404.05435217003105,404.05435217003105,404.05435217003105,404.05435217003105,404.05435217003105,404.05435217003105,405.62995990304626,"['j', 'space']","[1.493429154768819, 1.4944306736579165]","[None, None]",,,,,,,,,,,,,,,,,,,,,3009,2010-05-15_03h37.27.644,eb_03,2023.2.3,119.99116263247103,2010-05-15 03h37.38.331749 -0400,
,,,,0,0,0,0,160,0,160,0,405.646076569421,,,,,,,,,,,,,,,,,,,,,,,,,,,,,,,,,,,,,,,,,,,,,,,,,,,,,,,,,,,,,,,,,,,,,,,,,,,,,,,,,,,,,,,,,,,,,,,,,,,,,,,,,,405.63216578005813,1.0,"('l',)",405.6326423919818,405.6326550694357,405.646076569421,405.646076569421,405.646076569421,405.646076569421,405.646076569421,405.646076569421,405.646076569421,405.646076569421,406.40500451560365,['l'],[0.6856915008102078],[None],,,,,,,,,,,,,,,,,,,,,3009,2010-05-15_03h37.27.644,eb_03,2023.2.3,119.99116263247103,2010-05-15 03h37.38.331749 -0400,
,,,,0,0,0,0,161,0,161,0,406.4211272188695,,,,,,,,,,,,,,,,,,,,,,,,,,,,,,,,,,,,,,,,,,,,,,,,,,,,,,,,,,,,,,,,,,,,,,,,,,,,,,,,,,,,,,,,,,,,,,,,,,,,,,,,,,406.40726140429615,4.0,"('j', 'k')",406.40770602072007,406.4077190000098,406.4211272188695,406.4211272188695,406.4211272188695,406.4211272188695,406.4211272188695,406.4211272188695,406.4211272188695,406.4211272188695,410.171904467541,"['j', 'k']","[3.670678074762691, 3.671669632807607]","[None, None]",,,,,,,,,,,,,,,,,,,,,3009,2010-05-15_03h37.27.644,eb_03,2023.2.3,119.99116263247103,2010-05-15 03h37.38.331749 -0400,
,,,,0,0,0,0,162,0,162,0,410.1880461869878,,,,,,,,,,,,,,,,,,,,,,,,,,,,,,,,,,,,,,,,,,,,,,,,,,,,,,,,,,,,,,,,,,,,,,,,,,,,,,,,,,,,,,,,,,,,,,,,,,,,,,,,,,410.1741622617701,2.0,"('k', 'space')",410.1746901871811,410.17470286463504,410.1880461869878,410.1880461869878,410.1880461869878,410.1880461869878,410.1880461869878,410.1880461869878,410.1880461869878,410.1880461869878,412.72212378750555,"['k', 'space']","[2.471765800321009, 2.472755849128589]","[None, None]",,,,,,,,,,,,,,,,,,,,,3009,2010-05-15_03h37.27.644,eb_03,2023.2.3,119.99116263247103,2010-05-15 03h37.38.331749 -0400,
