practice_loop.thisRepN,practice_loop.thisTrialN,practice_loop.thisN,practice_loop.thisIndex,blocks.thisRepN,blocks.thisTrialN,blocks.thisN,blocks.thisIndex,trials.thisRepN,trials.thisTrialN,trials.thisN,trials.thisIndex,thisRow.t,notes,path,resp order,Instructions_0.started,welcome_text.started,instructions_0_keypress.started,Instructions_0.stopped,instructions_0_keypress.keys,instructions_0_keypress.rt,instructions_0_keypress.duration,consent_0.started,consent_image_0.started,consent0_key_resp.started,consent0_text.started,consent_0.stopped,consent0_key_resp.keys,consent0_key_resp.rt,consent0_key_resp.duration,consent_1.started,consent_image_1.started,consent1_key_resp.started,consent1_text.started,consent_1.stopped,consent1_key_resp.keys,consent1_key_resp.rt,consent1_key_resp.duration,consent_2.started,consent2_text.started,consent_image_2.started,consent2_key_resp.started,consent_2.stopped,consent2_key_resp.keys,consent2_key_resp.rt,consent2_key_resp.duration,consent_3.started,agree_button.started,disagree_button.started,consent_image_3.started,consent_3.stopped,agree_button.numClicks,agree_button.timesOn,agree_button.timesOff,disagree_button.numClicks,disagree_button.timesOn,disagree_button.timesOff,demographics.started,age_slider.started,Gender.started,Handedness.started,age_text.started,handedness_text.started,gender_text.started,demographics.stopped,age_slider.response,age_slider.rt,Gender.text,Handedness.response,Handedness.rt,instructions_1.started,instructions_text1.started,instructions1_key_resp.started,instr1_cnt_text.started,instructions_1.stopped,instructions1_key_resp.keys,instructions1_key_resp.rt,instructions1_key_resp.duration,instructions_2.started,instructions_text2.started,key_stim_association.started,instr2_cnt_text.started,instructions2_key_resp.started,instructions_2.stopped,instructions2_key_resp.keys,instructions2_key_resp.rt,instructions2_key_resp.duration,instructions_3.started,instructions_text3.started,examplestim_image_2.started,instructions3_key_resp.started,instr3_cnt_text.started,instructions_3.stopped,instructions3_key_resp.keys,instructions3_key_resp.rt,instructions3_key_resp.duration,instructions_4.started,instructions_text4.started,handplacement_image.started,instructions4_key_resp.started,instr4_cnt_text.started,instructions_4.stopped,instructions4_key_resp.keys,instructions4_key_resp.rt,instructions4_key_resp.duration,instructions_5.started,instructions_text5.started,image.started,instructions5_key_resp.started,instr5_cnt_text.started,instructions_5.stopped,instructions5_key_resp.keys,instructions5_key_resp.rt,instructions5_key_resp.duration,begin_exp_timer.started,text_countdown.started,begin_exp_timer.stopped,stim_resp_selector.started,node idx,stim,stim_resp_selector.stopped,stim_display.started,space.started,h.started,j.started,k.started,l.started,key_resp.started,text.started,accuracy_text.started,stim_display.stopped,key_resp.keys,key_resp.rt,key_resp.duration,break_2.started,break_text.started,break_key_resp.started,break_2.stopped,break_key_resp.keys,break_key_resp.rt,break_key_resp.duration,debriefing.started,graph.started,debrief_text.started,debriefing_title.started,demo_scr_adv.started,demo_scr_adv_keypress.started,debriefing.stopped,demo_scr_adv_keypress.keys,demo_scr_adv_keypress.rt,demo_scr_adv_keypress.duration,done.started,text_countdown_2.started,done.stopped,participant,date,expName,psychopyVersion,frameRate,expStart,
,,,,,,,,,,,,,,[ 7.  5.  7. ... 11. 12. 13.],"[('k', 'l'), ('space',), ('j', 'k'), ('h',), ('j',), ('k', 'space'), ('h', 'l'), ('l', 'space'), ('j', 'space'), ('h', 'k'), ('k',), ('j', 'l'), ('l',), ('h', 'j'), ('h', 'space')]",0.005961757939076051,0.02226385011454113,0.02226385011454113,9.055411055218428,return,9.025326378381578,None,,,,,,,,,,,,,,,,,,,,,,,,,,,,,,,,,,,,,,,,,,,,,,,,,,,,,,,,,,,,,,,,,,,,,,,,,,,,,,,,,,,,,,,,,,,,,,,,,,,,,,,,,,,,,,,,,,,,,,,,,,,,,,,,,,,,,3010,2023-11-07_13h15.49.394,eb_03,2023.2.3,59.99751893702394,2023-11-07 13h16.05.162454 -0500,
,,,,,,,,,,,,,,,,,,,,,,,9.05543580657104,9.07162832870381,9.07162832870381,9.07162832870381,47.18591110216221,space,38.1103394588863,None,,,,,,,,,,,,,,,,,,,,,,,,,,,,,,,,,,,,,,,,,,,,,,,,,,,,,,,,,,,,,,,,,,,,,,,,,,,,,,,,,,,,,,,,,,,,,,,,,,,,,,,,,,,,,,,,,,,,,,,,,,,,,3010,2023-11-07_13h15.49.394,eb_03,2023.2.3,59.99751893702394,2023-11-07 13h16.05.162454 -0500,
,,,,,,,,,,,,,,,,,,,,,,,,,,,,,,,47.185947625519475,47.20206378062721,47.20206378062721,47.20206378062721,57.78510656216531,space,10.570987660845276,None,,,,,,,,,,,,,,,,,,,,,,,,,,,,,,,,,,,,,,,,,,,,,,,,,,,,,,,,,,,,,,,,,,,,,,,,,,,,,,,,,,,,,,,,,,,,,,,,,,,,,,,,,,,,,,,,,,,,,3010,2023-11-07_13h15.49.394,eb_03,2023.2.3,59.99751893702394,2023-11-07 13h16.05.162454 -0500,
,,,,,,,,,,,,,,,,,,,,,,,,,,,,,,,,,,,,,,,57.78513252089033,57.80127222000738,57.80127222000738,57.80127222000738,74.66715575760463,space,16.85089598421473,None,,,,,,,,,,,,,,,,,,,,,,,,,,,,,,,,,,,,,,,,,,,,,,,,,,,,,,,,,,,,,,,,,,,,,,,,,,,,,,,,,,,,,,,,,,,,,,,,,,,,,,,,,,,,,3010,2023-11-07_13h15.49.394,eb_03,2023.2.3,59.99751893702394,2023-11-07 13h16.05.162454 -0500,
,,,,,,,,,,,,,,,,,,,,,,,,,,,,,,,,,,,,,,,,,,,,,,,74.66718413110357,74.68334345018957,74.68334345018957,74.68334345018957,80.55001993692713,1,[5.8799999637994915],[5.880006000719732],0,,,80.55010898146429,80.61592345670215,80.61592345670215,80.61592345670215,80.61592345670215,80.61592345670215,80.61592345670215,90.4562276690558,18-20,2.9296013913990464,female,Right Handed,9.865684922988294,90.45626479611383,90.46550761873368,92.46535729948664,92.46535729948664,93.78241470060311,space,1.3059690927912015,None,,,,,,,,,,,,,,,,,,,,,,,,,,,,,,,,,,,,,,,,,,,,,,,,,,,,,,,,,,,,,,,,,,,,,,,,,,,,,3010,2023-11-07_13h15.49.394,eb_03,2023.2.3,59.99751893702394,2023-11-07 13h16.05.162454 -0500,
,,,,,,,,,,,,,,,,,,,,,,,,,,,,,,,,,,,,,,,,,,,,,,,,,,,,,,,,,,,,,,,,,,,,,,,,,,,,,,,93.78244216859457,93.79858307508403,93.79858307508403,96.78170626834617,96.78170626834617,107.91462349705398,space,11.116739497054368,None,,,,,,,,,,,,,,,,,,,,,,,,,,,,,,,,,,,,,,,,,,,,,,,,,,,,,,,,,,,,,,,,,,,,3010,2023-11-07_13h15.49.394,eb_03,2023.2.3,59.99751893702394,2023-11-07 13h16.05.162454 -0500,
,,,,,,,,,,,,,,,,,,,,,,,,,,,,,,,,,,,,,,,,,,,,,,,,,,,,,,,,,,,,,,,,,,,,,,,,,,,,,,,,,,,,,,,,107.91466273702099,107.93086642745766,107.93086642745766,110.91397181182401,110.91397181182401,143.06211143001565,k,32.13475184797426,None,,,,,,,,,,,,,,,,,,,,,,,,,,,,,,,,,,,,,,,,,,,,,,,,,,,,,,,,,,,3010,2023-11-07_13h15.49.394,eb_03,2023.2.3,59.99751893702394,2023-11-07 13h16.05.162454 -0500,
,,,,,,,,,,,,,,,,,,,,,,,,,,,,,,,,,,,,,,,,,,,,,,,,,,,,,,,,,,,,,,,,,,,,,,,,,,,,,,,,,,,,,,,,,,,,,,,,,143.0621443312266,143.0782689380285,143.0782689380285,146.0613525894878,146.0613525894878,153.14465058170026,space,7.0666502865205985,None,,,,,,,,,,,,,,,,,,,,,,,,,,,,,,,,,,,,,,,,,,,,,,,,,,3010,2023-11-07_13h15.49.394,eb_03,2023.2.3,59.99751893702394,2023-11-07 13h16.05.162454 -0500,
,,,,,,,,,,,,,,,,,,,,,,,,,,,,,,,,,,,,,,,,,,,,,,,,,,,,,,,,,,,,,,,,,,,,,,,,,,,,,,,,,,,,,,,,,,,,,,,,,,,,,,,,,,153.1446801626007,153.1608482352167,153.1608482352167,156.14393671619473,156.14393671619473,158.04428048848058,space,1.8959410483075771,None,,,,,,,,,,,,,,,,,,,,,,,,,,,,,,,,,,,,,,,,,3010,2023-11-07_13h15.49.394,eb_03,2023.2.3,59.99751893702394,2023-11-07 13h16.05.162454 -0500,
,,,,0,0,0,0,0,0,0,0,163.09344967277138,,,,,,,,,,,,,,,,,,,,,,,,,,,,,,,,,,,,,,,,,,,,,,,,,,,,,,,,,,,,,,,,,,,,,,,,,,,,,,,,,,,,,,,,,,,,,,,,,,,,,,,158.04431188042508,158.07714818429668,163.06016965548042,163.06475952389883,7.0,"('l', 'space')",163.06520595395705,163.06522195180878,163.09344967277138,163.09344967277138,163.09344967277138,163.09344967277138,163.09344967277138,163.09344967277138,163.09344967277138,163.09344967277138,181.65952871594345,"['h', 'l', 'h', 'l', 'j', 'k', 'h', 'l', 'h', 'k', 'l', 'h', 'l', 'h', 'l', 'h', 'l', 'l']","[1.4254756110021845, 1.4734343933523633, 3.369460562156746, 3.393489003297873, 8.193528786592651, 8.209531447646441, 10.161533425358357, 10.561572786042234, 11.76054626860423, 11.90452192290104, 15.528595218347618, 16.752579650317784, 16.872633415128803, 17.64058698154986, 17.641580054507358, 18.120614594430663, 18.121590462134918, 18.552582910255296]","[None, None, None, None, None, None, None, None, None, None, None, None, None, None, None, None, None, None]",,,,,,,,,,,,,,,,,,,,,3010,2023-11-07_13h15.49.394,eb_03,2023.2.3,59.99751893702394,2023-11-07 13h16.05.162454 -0500,
,,,,0,0,0,0,1,0,1,0,181.67506985468208,,,,,,,,,,,,,,,,,,,,,,,,,,,,,,,,,,,,,,,,,,,,,,,,,,,,,,,,,,,,,,,,,,,,,,,,,,,,,,,,,,,,,,,,,,,,,,,,,,,,,,,,,,181.6622266143968,5.0,"('k', 'space')",181.6626069402264,181.66261961773853,181.67506985468208,181.67506985468208,181.67506985468208,181.67506985468208,181.67506985468208,181.67506985468208,181.67506985468208,181.67506985468208,190.04225570632843,"['h', 'k', 'k']","[7.498083127749851, 7.514063452224946, 8.283065027586417]","[None, None, None]",,,,,,,,,,,,,,,,,,,,,3010,2023-11-07_13h15.49.394,eb_03,2023.2.3,59.99751893702394,2023-11-07 13h16.05.162454 -0500,
,,,,0,0,0,0,2,0,2,0,190.05781163548818,,,,,,,,,,,,,,,,,,,,,,,,,,,,,,,,,,,,,,,,,,,,,,,,,,,,,,,,,,,,,,,,,,,,,,,,,,,,,,,,,,,,,,,,,,,,,,,,,,,,,,,,,,190.0444830270426,7.0,"('l', 'space')",190.044959641702,190.0449720173783,190.05781163548818,190.05781163548818,190.05781163548818,190.05781163548818,190.05781163548818,190.05781163548818,190.05781163548818,190.05781163548818,194.9919207932253,"['l', 'h', 'l', 'l']","[1.8683321113639977, 3.307356376433745, 3.3233176846406423, 4.924304298067]","[None, None, None, None]",,,,,,,,,,,,,,,,,,,,,3010,2023-11-07_13h15.49.394,eb_03,2023.2.3,59.99751893702394,2023-11-07 13h16.05.162454 -0500,
,,,,0,0,0,0,3,0,3,0,195.02410239336314,,,,,,,,,,,,,,,,,,,,,,,,,,,,,,,,,,,,,,,,,,,,,,,,,,,,,,,,,,,,,,,,,,,,,,,,,,,,,,,,,,,,,,,,,,,,,,,,,,,,,,,,,,194.9941152127576,9.0,"('h', 'k')",194.99454624866485,194.9945592280419,195.02410239336314,195.02410239336314,195.02410239336314,195.02410239336314,195.02410239336314,195.02410239336314,195.02410239336314,195.02410239336314,196.47466864113812,"['h', 'k']","[1.3890823553083465, 1.4130827247863635]","[None, None]",,,,,,,,,,,,,,,,,,,,,3010,2023-11-07_13h15.49.394,eb_03,2023.2.3,59.99751893702394,2023-11-07 13h16.05.162454 -0500,
,,,,0,0,0,0,4,0,4,0,196.49065077668638,,,,,,,,,,,,,,,,,,,,,,,,,,,,,,,,,,,,,,,,,,,,,,,,,,,,,,,,,,,,,,,,,,,,,,,,,,,,,,,,,,,,,,,,,,,,,,,,,,,,,,,,,,196.47698651562678,10.0,"('k',)",196.47740668509505,196.47742238108185,196.49065077668638,196.49065077668638,196.49065077668638,196.49065077668638,196.49065077668638,196.49065077668638,196.49065077668638,196.49065077668638,197.49120979526197,['k'],[0.9225092206324916],[None],,,,,,,,,,,,,,,,,,,,,3010,2023-11-07_13h15.49.394,eb_03,2023.2.3,59.99751893702394,2023-11-07 13h16.05.162454 -0500,
,,,,0,0,0,0,5,0,5,0,197.50722815230256,,,,,,,,,,,,,,,,,,,,,,,,,,,,,,,,,,,,,,,,,,,,,,,,,,,,,,,,,,,,,,,,,,,,,,,,,,,,,,,,,,,,,,,,,,,,,,,,,,,,,,,,,,197.49348239286337,12.0,"('l',)",197.4940027751727,197.49401877299533,197.50722815230256,197.50722815230256,197.50722815230256,197.50722815230256,197.50722815230256,197.50722815230256,197.50722815230256,197.50722815230256,198.49102808404132,['l'],[0.9059457299299538],[None],,,,,,,,,,,,,,,,,,,,,3010,2023-11-07_13h15.49.394,eb_03,2023.2.3,59.99751893702394,2023-11-07 13h16.05.162454 -0500,
,,,,0,0,0,0,6,0,6,0,198.50716748129344,,,,,,,,,,,,,,,,,,,,,,,,,,,,,,,,,,,,,,,,,,,,,,,,,,,,,,,,,,,,,,,,,,,,,,,,,,,,,,,,,,,,,,,,,,,,,,,,,,,,,,,,,,198.49326053613913,14.0,"('h', 'space')",198.49368644069182,198.49369942006888,198.50716748129344,198.50716748129344,198.50716748129344,198.50716748129344,198.50716748129344,198.50716748129344,198.50716748129344,198.50716748129344,201.27479807264172,"['h', 'h']","[1.1550087248615455, 2.7620446315559093]","[None, None]",,,,,,,,,,,,,,,,,,,,,3010,2023-11-07_13h15.49.394,eb_03,2023.2.3,59.99751893702394,2023-11-07 13h16.05.162454 -0500,
,,,,0,0,0,0,7,0,7,0,201.30698299309006,,,,,,,,,,,,,,,,,,,,,,,,,,,,,,,,,,,,,,,,,,,,,,,,,,,,,,,,,,,,,,,,,,,,,,,,,,,,,,,,,,,,,,,,,,,,,,,,,,,,,,,,,,201.2770501447376,12.0,"('l',)",201.27747997327242,201.27749295264948,201.30698299309006,201.30698299309006,201.30698299309006,201.30698299309006,201.30698299309006,201.30698299309006,201.30698299309006,201.30698299309006,202.29076541776885,['l'],[0.9142310974129941],[None],,,,,,,,,,,,,,,,,,,,,3010,2023-11-07_13h15.49.394,eb_03,2023.2.3,59.99751893702394,2023-11-07 13h16.05.162454 -0500,
,,,,0,0,0,0,8,0,8,0,202.30689938177238,,,,,,,,,,,,,,,,,,,,,,,,,,,,,,,,,,,,,,,,,,,,,,,,,,,,,,,,,,,,,,,,,,,,,,,,,,,,,,,,,,,,,,,,,,,,,,,,,,,,,,,,,,202.29297100557596,11.0,"('j', 'l')",202.2933751772216,202.29338815659867,202.30689938177238,202.30689938177238,202.30689938177238,202.30689938177238,202.30689938177238,202.30689938177238,202.30689938177238,202.30689938177238,204.69067196626565,"['l', 'j']","[2.3143709728028625, 2.3383339133870322]","[None, None]",,,,,,,,,,,,,,,,,,,,,3010,2023-11-07_13h15.49.394,eb_03,2023.2.3,59.99751893702394,2023-11-07 13h16.05.162454 -0500,
,,,,0,0,0,0,9,0,9,0,204.70672262084554,,,,,,,,,,,,,,,,,,,,,,,,,,,,,,,,,,,,,,,,,,,,,,,,,,,,,,,,,,,,,,,,,,,,,,,,,,,,,,,,,,,,,,,,,,,,,,,,,,,,,,,,,,204.69291105898446,13.0,"('h', 'j')",204.69334360412904,204.69335628167028,204.70672262084554,204.70672262084554,204.70672262084554,204.70672262084554,204.70672262084554,204.70672262084554,204.70672262084554,204.70672262084554,208.20765306075918,"['h', 'h']","[2.4095562594011426, 3.489555679843761]","[None, None]",,,,,,,,,,,,,,,,,,,,,3010,2023-11-07_13h15.49.394,eb_03,2023.2.3,59.99751893702394,2023-11-07 13h16.05.162454 -0500,
,,,,0,0,0,0,10,0,10,0,208.23980326892342,,,,,,,,,,,,,,,,,,,,,,,,,,,,,,,,,,,,,,,,,,,,,,,,,,,,,,,,,,,,,,,,,,,,,,,,,,,,,,,,,,,,,,,,,,,,,,,,,,,,,,,,,,208.20994950420572,12.0,"('l',)",208.21033345215255,208.21034643152962,208.23980326892342,208.23980326892342,208.23980326892342,208.23980326892342,208.23980326892342,208.23980326892342,208.23980326892342,208.23980326892342,209.67359020619188,['l'],[1.3645075731619727],[None],,,,,,,,,,,,,,,,,,,,,3010,2023-11-07_13h15.49.394,eb_03,2023.2.3,59.99751893702394,2023-11-07 13h16.05.162454 -0500,
,,,,0,0,0,0,11,0,11,0,209.68969217455015,,,,,,,,,,,,,,,,,,,,,,,,,,,,,,,,,,,,,,,,,,,,,,,,,,,,,,,,,,,,,,,,,,,,,,,,,,,,,,,,,,,,,,,,,,,,,,,,,,,,,,,,,,209.67584107088624,14.0,"('h', 'space')",209.67622169855167,209.67623467792873,209.68969217455015,209.68969217455015,209.68969217455015,209.68969217455015,209.68969217455015,209.68969217455015,209.68969217455015,209.68969217455015,212.67390744620934,"['h', 'j', 'h', 'h']","[1.2346199715102557, 1.235581954329973, 2.1225986274075694, 2.939580717968056]","[None, None, None, None]",,,,,,,,,,,,,,,,,,,,,3010,2023-11-07_13h15.49.394,eb_03,2023.2.3,59.99751893702394,2023-11-07 13h16.05.162454 -0500,
,,,,0,0,0,0,12,0,12,0,212.68943137972383,,,,,,,,,,,,,,,,,,,,,,,,,,,,,,,,,,,,,,,,,,,,,,,,,,,,,,,,,,,,,,,,,,,,,,,,,,,,,,,,,,,,,,,,,,,,,,,,,,,,,,,,,,212.67611846726504,0.0,"('k', 'l')",212.67668654120644,212.67670133165666,212.68943137972383,212.68943137972383,212.68943137972383,212.68943137972383,212.68943137972383,212.68943137972383,212.68943137972383,212.68943137972383,213.9566172011546,"['k', 'l']","[1.1949172776076011, 1.1959079357911833]","[None, None]",,,,,,,,,,,,,,,,,,,,,3010,2023-11-07_13h15.49.394,eb_03,2023.2.3,59.99751893702394,2023-11-07 13h16.05.162454 -0500,
,,,,0,0,0,0,13,0,13,0,213.97270800123806,,,,,,,,,,,,,,,,,,,,,,,,,,,,,,,,,,,,,,,,,,,,,,,,,,,,,,,,,,,,,,,,,,,,,,,,,,,,,,,,,,,,,,,,,,,,,,,,,,,,,,,,,,213.95886233079364,1.0,"('space',)",213.95923692153883,213.9592499009159,213.97270800123806,213.97270800123806,213.97270800123806,213.97270800123806,213.97270800123806,213.97270800123806,213.97270800123806,213.97270800123806,242.6551709670166,"['h', 'h', 'h', 'h', 'h', 'j', 'k', 'l', 'h', 'h', 'h', 'h', 'h', 'space']","[3.583655528665986, 4.087658155913232, 4.9356703046069015, 6.8467232667899225, 7.47066193894716, 7.7507003578939475, 8.542709531611763, 8.806683712900849, 15.750767971388996, 16.42273334119818, 16.790763757599052, 17.10273656490608, 17.4067587518075, 28.677865249366732]","[None, None, None, None, None, None, None, None, None, None, None, None, None, None]",,,,,,,,,,,,,,,,,,,,,3010,2023-11-07_13h15.49.394,eb_03,2023.2.3,59.99751893702394,2023-11-07 13h16.05.162454 -0500,
,,,,0,0,0,0,14,0,14,0,242.68726563552627,,,,,,,,,,,,,,,,,,,,,,,,,,,,,,,,,,,,,,,,,,,,,,,,,,,,,,,,,,,,,,,,,,,,,,,,,,,,,,,,,,,,,,,,,,,,,,,,,,,,,,,,,,242.65742485018563,4.0,"('j',)",242.65788999467622,242.65790267221746,242.68726563552627,242.68726563552627,242.68726563552627,242.68726563552627,242.68726563552627,242.68726563552627,242.68726563552627,242.68726563552627,245.42094369698316,['j'],[2.6353252042026725],[None],,,,,,,,,,,,,,,,,,,,,3010,2023-11-07_13h15.49.394,eb_03,2023.2.3,59.99751893702394,2023-11-07 13h16.05.162454 -0500,
,,,,0,0,0,0,15,0,15,0,245.4370664927119,,,,,,,,,,,,,,,,,,,,,,,,,,,,,,,,,,,,,,,,,,,,,,,,,,,,,,,,,,,,,,,,,,,,,,,,,,,,,,,,,,,,,,,,,,,,,,,,,,,,,,,,,,245.42317343250033,3.0,"('h',)",245.42364883975824,245.42366121543455,245.4370664927119,245.4370664927119,245.4370664927119,245.4370664927119,245.4370664927119,245.4370664927119,245.4370664927119,245.4370664927119,246.35422760809888,['h'],[0.8375320597842801],[None],,,,,,,,,,,,,,,,,,,,,3010,2023-11-07_13h15.49.394,eb_03,2023.2.3,59.99751893702394,2023-11-07 13h16.05.162454 -0500,
,,,,0,0,0,0,16,0,16,0,246.3703313875303,,,,,,,,,,,,,,,,,,,,,,,,,,,,,,,,,,,,,,,,,,,,,,,,,,,,,,,,,,,,,,,,,,,,,,,,,,,,,,,,,,,,,,,,,,,,,,,,,,,,,,,,,,246.35642897008802,1.0,"('space',)",246.35686242076918,246.35687479644548,246.3703313875303,246.3703313875303,246.3703313875303,246.3703313875303,246.3703313875303,246.3703313875303,246.3703313875303,246.3703313875303,248.32076437034993,['space'],[1.8722708982240874],[None],,,,,,,,,,,,,,,,,,,,,3010,2023-11-07_13h15.49.394,eb_03,2023.2.3,59.99751893702394,2023-11-07 13h16.05.162454 -0500,
,,,,0,0,0,0,17,0,17,0,248.33685215195874,,,,,,,,,,,,,,,,,,,,,,,,,,,,,,,,,,,,,,,,,,,,,,,,,,,,,,,,,,,,,,,,,,,,,,,,,,,,,,,,,,,,,,,,,,,,,,,,,,,,,,,,,,248.32300799075165,0.0,"('k', 'l')",248.32351207337342,248.32352776936023,248.33685215195874,248.33685215195874,248.33685215195874,248.33685215195874,248.33685215195874,248.33685215195874,248.33685215195874,248.33685215195874,250.35396802064497,"['l', 'k']","[1.9298039299901575, 1.9857779277663212]","[None, None]",,,,,,,,,,,,,,,,,,,,,3010,2023-11-07_13h15.49.394,eb_03,2023.2.3,59.99751893702394,2023-11-07 13h16.05.162454 -0500,
,,,,0,0,0,0,18,0,18,0,250.3700461431872,,,,,,,,,,,,,,,,,,,,,,,,,,,,,,,,,,,,,,,,,,,,,,,,,,,,,,,,,,,,,,,,,,,,,,,,,,,,,,,,,,,,,,,,,,,,,,,,,,,,,,,,,,250.35619202104863,14.0,"('h', 'space')",250.35666199508705,250.35668402982992,250.3700461431872,250.3700461431872,250.3700461431872,250.3700461431872,250.3700461431872,250.3700461431872,250.3700461431872,250.3700461431872,252.67096867473447,"['h', 'space']","[1.3276171773322858, 2.2636330954846926]","[None, None]",,,,,,,,,,,,,,,,,,,,,3010,2023-11-07_13h15.49.394,eb_03,2023.2.3,59.99751893702394,2023-11-07 13h16.05.162454 -0500,
,,,,0,0,0,0,19,0,19,0,252.68651796330232,,,,,,,,,,,,,,,,,,,,,,,,,,,,,,,,,,,,,,,,,,,,,,,,,,,,,,,,,,,,,,,,,,,,,,,,,,,,,,,,,,,,,,,,,,,,,,,,,,,,,,,,,,252.67320293793455,11.0,"('j', 'l')",252.67371215191088,252.67373629959184,252.68651796330232,252.68651796330232,252.68651796330232,252.68651796330232,252.68651796330232,252.68651796330232,252.68651796330232,252.68651796330232,254.17025858230772,"['j', 'l']","[1.411162985023111, 1.4271629294671584]","[None, None]",,,,,,,,,,,,,,,,,,,,,3010,2023-11-07_13h15.49.394,eb_03,2023.2.3,59.99751893702394,2023-11-07 13h16.05.162454 -0500,
,,,,0,0,0,0,20,0,20,0,254.186408544163,,,,,,,,,,,,,,,,,,,,,,,,,,,,,,,,,,,,,,,,,,,,,,,,,,,,,,,,,,,,,,,,,,,,,,,,,,,,,,,,,,,,,,,,,,,,,,,,,,,,,,,,,,254.1724949584168,10.0,"('k',)",254.17314754921244,254.1731626414985,254.186408544163,254.186408544163,254.186408544163,254.186408544163,254.186408544163,254.186408544163,254.186408544163,254.186408544163,255.08691682244535,['k'],[0.8232583719072863],[None],,,,,,,,,,,,,,,,,,,,,3010,2023-11-07_13h15.49.394,eb_03,2023.2.3,59.99751893702394,2023-11-07 13h16.05.162454 -0500,
,,,,0,0,0,0,21,0,21,0,255.1030073206639,,,,,,,,,,,,,,,,,,,,,,,,,,,,,,,,,,,,,,,,,,,,,,,,,,,,,,,,,,,,,,,,,,,,,,,,,,,,,,,,,,,,,,,,,,,,,,,,,,,,,,,,,,255.0891205992084,14.0,"('h', 'space')",255.08967509007198,255.08969078605878,255.1030073206639,255.1030073206639,255.1030073206639,255.1030073206639,255.1030073206639,255.1030073206639,255.1030073206639,255.1030073206639,259.32046463739243,"['h', 'j', 'j', 'k', 'h', 'h']","[1.1226647316361777, 1.1236550879839342, 2.4986949693702627, 2.4996774776955135, 3.5076993337424938, 4.147712204459822]","[None, None, None, None, None, None]",,,,,,,,,,,,,,,,,,,,,3010,2023-11-07_13h15.49.394,eb_03,2023.2.3,59.99751893702394,2023-11-07 13h16.05.162454 -0500,
,,,,0,0,0,0,22,0,22,0,259.33604018655024,,,,,,,,,,,,,,,,,,,,,,,,,,,,,,,,,,,,,,,,,,,,,,,,,,,,,,,,,,,,,,,,,,,,,,,,,,,,,,,,,,,,,,,,,,,,,,,,,,,,,,,,,,259.3227221427078,11.0,"('j', 'l')",259.32331315695774,259.3233285510796,259.33604018655024,259.33604018655024,259.33604018655024,259.33604018655024,259.33604018655024,259.33604018655024,259.33604018655024,259.33604018655024,262.83703310857527,"['h', 'space', 'j', 'l']","[0.4266679022402968, 0.8656861304189079, 3.4657174016465433, 3.497727855166886]","[None, None, None, None]",,,,,,,,,,,,,,,,,,,,,3010,2023-11-07_13h15.49.394,eb_03,2023.2.3,59.99751893702394,2023-11-07 13h16.05.162454 -0500,
,,,,0,0,0,0,23,0,23,0,262.8691048368055,,,,,,,,,,,,,,,,,,,,,,,,,,,,,,,,,,,,,,,,,,,,,,,,,,,,,,,,,,,,,,,,,,,,,,,,,,,,,,,,,,,,,,,,,,,,,,,,,,,,,,,,,,262.83925046838704,14.0,"('h', 'space')",262.8397847355809,262.83979982789606,262.8691048368055,262.8691048368055,262.8691048368055,262.8691048368055,262.8691048368055,262.8691048368055,262.8691048368055,262.8691048368055,267.1032255552418,"['h', 'h', 'j', 'h', 'space']","[1.5576744465506636, 2.6686212193453684, 2.6696013129258063, 3.63662133042817, 4.187665430421475]","[None, None, None, None, None]",,,,,,,,,,,,,,,,,,,,,3010,2023-11-07_13h15.49.394,eb_03,2023.2.3,59.99751893702394,2023-11-07 13h16.05.162454 -0500,
,,,,0,0,0,0,24,0,24,0,267.118795671151,,,,,,,,,,,,,,,,,,,,,,,,,,,,,,,,,,,,,,,,,,,,,,,,,,,,,,,,,,,,,,,,,,,,,,,,,,,,,,,,,,,,,,,,,,,,,,,,,,,,,,,,,,267.1054395947431,12.0,"('l',)",267.1060873559909,267.10610244830605,267.118795671151,267.118795671151,267.118795671151,267.118795671151,267.118795671151,267.118795671151,267.118795671151,267.118795671151,268.0192517300893,['l'],[0.8019429215346463],[None],,,,,,,,,,,,,,,,,,,,,3010,2023-11-07_13h15.49.394,eb_03,2023.2.3,59.99751893702394,2023-11-07 13h16.05.162454 -0500,
,,,,0,0,0,0,25,0,25,0,268.0353941458161,,,,,,,,,,,,,,,,,,,,,,,,,,,,,,,,,,,,,,,,,,,,,,,,,,,,,,,,,,,,,,,,,,,,,,,,,,,,,,,,,,,,,,,,,,,,,,,,,,,,,,,,,,268.02148448405205,11.0,"('j', 'l')",268.02206493369886,268.0220809315215,268.0353941458161,268.0353941458161,268.0353941458161,268.0353941458161,268.0353941458161,268.0353941458161,268.0353941458161,268.0353941458161,269.5025090938434,"['j', 'l']","[1.3894152913417201, 1.421412463649176]","[None, None]",,,,,,,,,,,,,,,,,,,,,3010,2023-11-07_13h15.49.394,eb_03,2023.2.3,59.99751893702394,2023-11-07 13h16.05.162454 -0500,
,,,,0,0,0,0,26,0,26,0,269.5186493966612,,,,,,,,,,,,,,,,,,,,,,,,,,,,,,,,,,,,,,,,,,,,,,,,,,,,,,,,,,,,,,,,,,,,,,,,,,,,,,,,,,,,,,,,,,,,,,,,,,,,,,,,,,269.50472524628276,13.0,"('h', 'j')",269.5052625319513,269.5052779261023,269.5186493966612,269.5186493966612,269.5186493966612,269.5186493966612,269.5186493966612,269.5186493966612,269.5186493966612,269.5186493966612,270.65241269938997,"['j', 'h']","[1.0582067517389078, 1.0741707765555475]","[None, None]",,,,,,,,,,,,,,,,,,,,,3010,2023-11-07_13h15.49.394,eb_03,2023.2.3,59.99751893702394,2023-11-07 13h16.05.162454 -0500,
,,,,0,0,0,0,27,0,27,0,270.66854394678376,,,,,,,,,,,,,,,,,,,,,,,,,,,,,,,,,,,,,,,,,,,,,,,,,,,,,,,,,,,,,,,,,,,,,,,,,,,,,,,,,,,,,,,,,,,,,,,,,,,,,,,,,,270.65462341858074,10.0,"('k',)",270.65516281715827,270.6551751928637,270.66854394678376,270.66854394678376,270.66854394678376,270.66854394678376,270.66854394678376,270.66854394678376,270.66854394678376,270.66854394678376,271.81904188683257,['k'],[1.0522769894741941],[None],,,,,,,,,,,,,,,,,,,,,3010,2023-11-07_13h15.49.394,eb_03,2023.2.3,59.99751893702394,2023-11-07 13h16.05.162454 -0500,
,,,,0,0,0,0,28,0,28,0,271.8351399312087,,,,,,,,,,,,,,,,,,,,,,,,,,,,,,,,,,,,,,,,,,,,,,,,,,,,,,,,,,,,,,,,,,,,,,,,,,,,,,,,,,,,,,,,,,,,,,,,,,,,,,,,,,271.8212924497202,1.0,"('space',)",271.8217959286412,271.8218212836946,271.8351399312087,271.8351399312087,271.8351399312087,271.8351399312087,271.8351399312087,271.8351399312087,271.8351399312087,271.8351399312087,275.8692204437684,"['h', 'space']","[3.005672891449649, 3.957696602039505]","[None, None]",,,,,,,,,,,,,,,,,,,,,3010,2023-11-07_13h15.49.394,eb_03,2023.2.3,59.99751893702394,2023-11-07 13h16.05.162454 -0500,
,,,,0,0,0,0,29,0,29,0,275.884861795319,,,,,,,,,,,,,,,,,,,,,,,,,,,,,,,,,,,,,,,,,,,,,,,,,,,,,,,,,,,,,,,,,,,,,,,,,,,,,,,,,,,,,,,,,,,,,,,,,,,,,,,,,,275.87144867004827,0.0,"('k', 'l')",275.87198535201605,275.87200074616703,275.884861795319,275.884861795319,275.884861795319,275.884861795319,275.884861795319,275.884861795319,275.884861795319,275.884861795319,277.05204185153707,"['k', 'l']","[1.0920433728315402, 1.1160208020010032]","[None, None]",,,,,,,,,,,,,,,,,,,,,3010,2023-11-07_13h15.49.394,eb_03,2023.2.3,59.99751893702394,2023-11-07 13h16.05.162454 -0500,
,,,,0,0,0,0,30,0,30,0,277.06810457992833,,,,,,,,,,,,,,,,,,,,,,,,,,,,,,,,,,,,,,,,,,,,,,,,,,,,,,,,,,,,,,,,,,,,,,,,,,,,,,,,,,,,,,,,,,,,,,,,,,,,,,,,,,277.0542788313469,3.0,"('h',)",277.05479378040764,277.0548088726937,277.06810457992833,277.06810457992833,277.06810457992833,277.06810457992833,277.06810457992833,277.06810457992833,277.06810457992833,277.06810457992833,278.00189498841064,['h'],[0.8607741924060974],[None],,,,,,,,,,,,,,,,,,,,,3010,2023-11-07_13h15.49.394,eb_03,2023.2.3,59.99751893702394,2023-11-07 13h16.05.162454 -0500,
,,,,0,0,0,0,31,0,31,0,278.01800631399965,,,,,,,,,,,,,,,,,,,,,,,,,,,,,,,,,,,,,,,,,,,,,,,,,,,,,,,,,,,,,,,,,,,,,,,,,,,,,,,,,,,,,,,,,,,,,,,,,,,,,,,,,,278.00411717777024,2.0,"('j', 'k')",278.00460918655153,278.00462488253834,278.01800631399965,278.01800631399965,278.01800631399965,278.01800631399965,278.01800631399965,278.01800631399965,278.01800631399965,278.01800631399965,279.0851166136272,"['j', 'k']","[0.9668823757965583, 1.0068407331418712]","[None, None]",,,,,,,,,,,,,,,,,,,,,3010,2023-11-07_13h15.49.394,eb_03,2023.2.3,59.99751893702394,2023-11-07 13h16.05.162454 -0500,
,,,,0,0,0,0,32,0,32,0,279.10127351793926,,,,,,,,,,,,,,,,,,,,,,,,,,,,,,,,,,,,,,,,,,,,,,,,,,,,,,,,,,,,,,,,,,,,,,,,,,,,,,,,,,,,,,,,,,,,,,,,,,,,,,,,,,279.0873611395655,4.0,"('j',)",279.0879240821232,279.08793917443836,279.10127351793926,279.10127351793926,279.10127351793926,279.10127351793926,279.10127351793926,279.10127351793926,279.10127351793926,279.10127351793926,282.2515260572836,['j'],[3.0516388872929383],[None],,,,,,,,,,,,,,,,,,,,,3010,2023-11-07_13h15.49.394,eb_03,2023.2.3,59.99751893702394,2023-11-07 13h16.05.162454 -0500,
,,,,0,0,0,0,33,0,33,0,282.2677140517335,,,,,,,,,,,,,,,,,,,,,,,,,,,,,,,,,,,,,,,,,,,,,,,,,,,,,,,,,,,,,,,,,,,,,,,,,,,,,,,,,,,,,,,,,,,,,,,,,,,,,,,,,,282.25375760387396,1.0,"('space',)",282.2543057559815,282.25432990366244,282.2677140517335,282.2677140517335,282.2677140517335,282.2677140517335,282.2677140517335,282.2677140517335,282.2677140517335,282.2677140517335,283.1347781085642,['space'],[0.788192030711798],[None],,,,,,,,,,,,,,,,,,,,,3010,2023-11-07_13h15.49.394,eb_03,2023.2.3,59.99751893702394,2023-11-07 13h16.05.162454 -0500,
,,,,0,0,0,0,34,0,34,0,283.1509968912869,,,,,,,,,,,,,,,,,,,,,,,,,,,,,,,,,,,,,,,,,,,,,,,,,,,,,,,,,,,,,,,,,,,,,,,,,,,,,,,,,,,,,,,,,,,,,,,,,,,,,,,,,,283.1370407452632,3.0,"('h',)",283.1375952361559,283.1376109321427,283.1509968912869,283.1509968912869,283.1509968912869,283.1509968912869,283.1509968912869,283.1509968912869,283.1509968912869,283.1509968912869,284.91803526104195,['h'],[1.6969355700712185],[None],,,,,,,,,,,,,,,,,,,,,3010,2023-11-07_13h15.49.394,eb_03,2023.2.3,59.99751893702394,2023-11-07 13h16.05.162454 -0500,
,,,,0,0,0,0,35,0,35,0,284.93417797857546,,,,,,,,,,,,,,,,,,,,,,,,,,,,,,,,,,,,,,,,,,,,,,,,,,,,,,,,,,,,,,,,,,,,,,,,,,,,,,,,,,,,,,,,,,,,,,,,,,,,,,,,,,284.9202556392993,9.0,"('h', 'k')",284.9207603256218,284.92077632344444,284.93417797857546,284.93417797857546,284.93417797857546,284.93417797857546,284.93417797857546,284.93417797857546,284.93417797857546,284.93417797857546,286.08465328020975,"['h', 'k']","[1.033773837145418, 1.0347557417699136]","[None, None]",,,,,,,,,,,,,,,,,,,,,3010,2023-11-07_13h15.49.394,eb_03,2023.2.3,59.99751893702394,2023-11-07 13h16.05.162454 -0500,
,,,,0,0,0,0,36,0,36,0,286.1007347230334,,,,,,,,,,,,,,,,,,,,,,,,,,,,,,,,,,,,,,,,,,,,,,,,,,,,,,,,,,,,,,,,,,,,,,,,,,,,,,,,,,,,,,,,,,,,,,,,,,,,,,,,,,286.0869008246227,10.0,"('k',)",286.0873958518496,286.08741124600056,286.1007347230334,286.1007347230334,286.1007347230334,286.1007347230334,286.1007347230334,286.1007347230334,286.1007347230334,286.1007347230334,286.85123284420115,['k'],[0.6512228229257744],[None],,,,,,,,,,,,,,,,,,,,,3010,2023-11-07_13h15.49.394,eb_03,2023.2.3,59.99751893702394,2023-11-07 13h16.05.162454 -0500,
,,,,0,0,0,0,37,0,37,0,286.86734960300964,,,,,,,,,,,,,,,,,,,,,,,,,,,,,,,,,,,,,,,,,,,,,,,,,,,,,,,,,,,,,,,,,,,,,,,,,,,,,,,,,,,,,,,,,,,,,,,,,,,,,,,,,,286.8534520151152,9.0,"('h', 'k')",286.85403880348895,286.8540541976399,286.86734960300964,286.86734960300964,286.86734960300964,286.86734960300964,286.86734960300964,286.86734960300964,286.86734960300964,286.86734960300964,287.68450072730775,"['h', 'k']","[0.7006108454952482, 0.7015984852041584]","[None, None]",,,,,,,,,,,,,,,,,,,,,3010,2023-11-07_13h15.49.394,eb_03,2023.2.3,59.99751893702394,2023-11-07 13h16.05.162454 -0500,
,,,,0,0,0,0,38,0,38,0,287.7006217119633,,,,,,,,,,,,,,,,,,,,,,,,,,,,,,,,,,,,,,,,,,,,,,,,,,,,,,,,,,,,,,,,,,,,,,,,,,,,,,,,,,,,,,,,,,,,,,,,,,,,,,,,,,287.68674404587364,7.0,"('l', 'space')",287.6873697723786,287.6873845627997,287.7006217119633,287.7006217119633,287.7006217119633,287.7006217119633,287.7006217119633,287.7006217119633,287.7006217119633,287.7006217119633,288.95112873756443,"['l', 'space']","[1.17936104661203, 1.1803399327909574]","[None, None]",,,,,,,,,,,,,,,,,,,,,3010,2023-11-07_13h15.49.394,eb_03,2023.2.3,59.99751893702394,2023-11-07 13h16.05.162454 -0500,
,,,,0,0,0,0,39,0,39,0,288.9671923714923,,,,,,,,,,,,,,,,,,,,,,,,,,,,,,,,,,,,,,,,,,,,,,,,,,,,,,,,,,,,,,,,,,,,,,,,,,,,,,,,,,,,,,,,,,,,,,,,,,,,,,,,,,288.95335334169795,8.0,"('j', 'space')",288.95394707252854,288.95396276851534,288.9671923714923,288.9671923714923,288.9671923714923,288.9671923714923,288.9671923714923,288.9671923714923,288.9671923714923,288.9671923714923,292.0681290294451,"['j', 'j']","[1.617806069465587, 3.0887885687407106]","[None, None]",,,,,,,,,,,,,,,,,,,,,3010,2023-11-07_13h15.49.394,eb_03,2023.2.3,59.99751893702394,2023-11-07 13h16.05.162454 -0500,
,,,,0,0,0,0,40,0,40,0,292.11700421586283,,,,,,,,,,,,,,,,,,,,,,,,,,,,,,,,,,,,,,,,,,,,,,,,,,,,,,,,,,,,,,,,,,,,,,,,,,,,,,,,,,,,,,,,,,,,,,,,,,,,,,,,,,292.0703518225055,6.0,"('h', 'l')",292.07091506689903,292.07094555333606,292.11700421586283,292.11700421586283,292.11700421586283,292.11700421586283,292.11700421586283,292.11700421586283,292.11700421586283,292.11700421586283,294.26738171943,"['h', 'l']","[2.05101376445964, 2.0830211995344143]","[None, None]",,,,,,,,,,,,,,,,,,,,,3010,2023-11-07_13h15.49.394,eb_03,2023.2.3,59.99751893702394,2023-11-07 13h16.05.162454 -0500,
,,,,0,0,0,0,41,0,41,0,294.2834695010388,,,,,,,,,,,,,,,,,,,,,,,,,,,,,,,,,,,,,,,,,,,,,,,,,,,,,,,,,,,,,,,,,,,,,,,,,,,,,,,,,,,,,,,,,,,,,,,,,,,,,,,,,,294.26960813460755,8.0,"('j', 'space')",294.27022661681985,294.2702417091059,294.2834695010388,294.2834695010388,294.2834695010388,294.2834695010388,294.2834695010388,294.2834695010388,294.2834695010388,294.2834695010388,296.83382207210525,"['space', 'j']","[2.4516423283494078, 2.4845619416446425]","[None, None]",,,,,,,,,,,,,,,,,,,,,3010,2023-11-07_13h15.49.394,eb_03,2023.2.3,59.99751893702394,2023-11-07 13h16.05.162454 -0500,
,,,,0,0,0,0,42,0,42,0,296.8499415475526,,,,,,,,,,,,,,,,,,,,,,,,,,,,,,,,,,,,,,,,,,,,,,,,,,,,,,,,,,,,,,,,,,,,,,,,,,,,,,,,,,,,,,,,,,,,,,,,,,,,,,,,,,296.8360629759263,13.0,"('h', 'j')",296.8366310498677,296.8366467458545,296.8499415475526,296.8499415475526,296.8499415475526,296.8499415475526,296.8499415475526,296.8499415475526,296.8499415475526,296.8499415475526,300.4341488504724,"['space', 'j', 'h', 'j']","[1.4691080363700166, 1.4851230731292162, 3.5251264054968487, 3.5261167618155014]","[None, None, None, None]",,,,,,,,,,,,,,,,,,,,,3010,2023-11-07_13h15.49.394,eb_03,2023.2.3,59.99751893702394,2023-11-07 13h16.05.162454 -0500,
,,,,0,0,0,0,43,0,43,0,300.44968002827954,,,,,,,,,,,,,,,,,,,,,,,,,,,,,,,,,,,,,,,,,,,,,,,,,,,,,,,,,,,,,,,,,,,,,,,,,,,,,,,,,,,,,,,,,,,,,,,,,,,,,,,,,,300.4363834155083,14.0,"('h', 'space')",300.43692039931193,300.43693730267114,300.44968002827954,300.44968002827954,300.44968002827954,300.44968002827954,300.44968002827954,300.44968002827954,300.44968002827954,300.44968002827954,302.5841478392831,"['h', 'j', 'space', 'h']","[0.13336848831386305, 0.14939076936570928, 2.0294133715797216, 2.0533911025850102]","[None, None, None, None]",,,,,,,,,,,,,,,,,,,,,3010,2023-11-07_13h15.49.394,eb_03,2023.2.3,59.99751893702394,2023-11-07 13h16.05.162454 -0500,
,,,,0,0,0,0,44,0,44,0,302.59955616580555,,,,,,,,,,,,,,,,,,,,,,,,,,,,,,,,,,,,,,,,,,,,,,,,,,,,,,,,,,,,,,,,,,,,,,,,,,,,,,,,,,,,,,,,,,,,,,,,,,,,,,,,,,302.58642647380475,12.0,"('l',)",302.5869323674997,302.58694776165066,302.59955616580555,302.59955616580555,302.59955616580555,302.59955616580555,302.59955616580555,302.59955616580555,302.59955616580555,302.59955616580555,303.5999926349614,['l'],[0.9035345850279555],[None],,,,,,,,,,,,,,,,,,,,,3010,2023-11-07_13h15.49.394,eb_03,2023.2.3,59.99751893702394,2023-11-07 13h16.05.162454 -0500,
,,,,0,0,0,0,45,0,45,0,303.6161531614198,,,,,,,,,,,,,,,,,,,,,,,,,,,,,,,,,,,,,,,,,,,,,,,,,,,,,,,,,,,,,,,,,,,,,,,,,,,,,,,,,,,,,,,,,,,,,,,,,,,,,,,,,,303.6022142206202,10.0,"('k',)",303.60275935428217,303.60277474840404,303.6161531614198,303.6161531614198,303.6161531614198,303.6161531614198,303.6161531614198,303.6161531614198,303.6161531614198,303.6161531614198,304.5166083148215,['k'],[0.8229462632734794],[None],,,,,,,,,,,,,,,,,,,,,3010,2023-11-07_13h15.49.394,eb_03,2023.2.3,59.99751893702394,2023-11-07 13h16.05.162454 -0500,
,,,,0,0,0,0,46,0,46,0,304.53272477179416,,,,,,,,,,,,,,,,,,,,,,,,,,,,,,,,,,,,,,,,,,,,,,,,,,,,,,,,,,,,,,,,,,,,,,,,,,,,,,,,,,,,,,,,,,,,,,,,,,,,,,,,,,304.51887034781976,12.0,"('l',)",304.5194178962556,304.51943389407825,304.53272477179416,304.53272477179416,304.53272477179416,304.53272477179416,304.53272477179416,304.53272477179416,304.53272477179416,304.53272477179416,305.249870734493,['l'],[0.6183747471077368],[None],,,,,,,,,,,,,,,,,,,,,3010,2023-11-07_13h15.49.394,eb_03,2023.2.3,59.99751893702394,2023-11-07 13h16.05.162454 -0500,
,,,,0,0,0,0,47,0,47,0,305.2660255258961,,,,,,,,,,,,,,,,,,,,,,,,,,,,,,,,,,,,,,,,,,,,,,,,,,,,,,,,,,,,,,,,,,,,,,,,,,,,,,,,,,,,,,,,,,,,,,,,,,,,,,,,,,305.2521342767286,13.0,"('h', 'j')",305.2526987285237,305.25271412267466,305.2660255258961,305.2660255258961,305.2660255258961,305.2660255258961,305.2660255258961,305.2660255258961,305.2660255258961,305.2660255258961,307.60036149062216,"['space', 'j', 'j', 'h']","[1.1650819255155511, 1.1810679850459564, 2.2850750192592386, 2.2930986864084844]","[None, None, None, None]",,,,,,,,,,,,,,,,,,,,,3010,2023-11-07_13h15.49.394,eb_03,2023.2.3,59.99751893702394,2023-11-07 13h16.05.162454 -0500,
,,,,0,0,0,0,48,0,48,0,307.6158513155533,,,,,,,,,,,,,,,,,,,,,,,,,,,,,,,,,,,,,,,,,,,,,,,,,,,,,,,,,,,,,,,,,,,,,,,,,,,,,,,,,,,,,,,,,,,,,,,,,,,,,,,,,,307.6025731153786,11.0,"('j', 'l')",307.6032057843404,307.60322117846226,307.6158513155533,307.6158513155533,307.6158513155533,307.6158513155533,307.6158513155533,307.6158513155533,307.6158513155533,307.6158513155533,309.916293308459,"['j', 'l']","[2.2232775089505594, 2.263297744706506]","[None, None]",,,,,,,,,,,,,,,,,,,,,3010,2023-11-07_13h15.49.394,eb_03,2023.2.3,59.99751893702394,2023-11-07 13h16.05.162454 -0500,
,,,,0,0,0,0,49,0,49,0,309.9323367187462,,,,,,,,,,,,,,,,,,,,,,,,,,,,,,,,,,,,,,,,,,,,,,,,,,,,,,,,,,,,,,,,,,,,,,,,,,,,,,,,,,,,,,,,,,,,,,,,,,,,,,,,,,309.9185248550493,2.0,"('j', 'k')",309.91909232528997,309.91911798217916,309.9323367187462,309.9323367187462,309.9323367187462,309.9323367187462,309.9323367187462,309.9323367187462,309.9323367187462,309.9323367187462,312.8665527299163,"['h', 'j', 'j', 'k']","[1.4988253667543177, 1.5148126336862333, 2.8579024307255168, 2.858841473265784]","[None, None, None, None]",,,,,,,,,,,,,,,,,,,,,3010,2023-11-07_13h15.49.394,eb_03,2023.2.3,59.99751893702394,2023-11-07 13h16.05.162454 -0500,
,,,,0,0,0,0,50,0,50,0,312.8821370326041,,,,,,,,,,,,,,,,,,,,,,,,,,,,,,,,,,,,,,,,,,,,,,,,,,,,,,,,,,,,,,,,,,,,,,,,,,,,,,,,,,,,,,,,,,,,,,,,,,,,,,,,,,312.8687583177234,0.0,"('k', 'l')",312.86931703446317,312.8693321267492,312.8821370326041,312.8821370326041,312.8821370326041,312.8821370326041,312.8821370326041,312.8821370326041,312.8821370326041,312.8821370326041,314.54973740916466,"['k', 'l']","[1.4920422862051055, 1.5720088054367807]","[None, None]",,,,,,,,,,,,,,,,,,,,,3010,2023-11-07_13h15.49.394,eb_03,2023.2.3,59.99751893702394,2023-11-07 13h16.05.162454 -0500,
,,,,0,0,0,0,51,0,51,0,314.5652945457259,,,,,,,,,,,,,,,,,,,,,,,,,,,,,,,,,,,,,,,,,,,,,,,,,,,,,,,,,,,,,,,,,,,,,,,,,,,,,,,,,,,,,,,,,,,,,,,,,,,,,,,,,,314.55195959852426,1.0,"('space',)",314.55251952263643,314.55253521862323,314.5652945457259,314.5652945457259,314.5652945457259,314.5652945457259,314.5652945457259,314.5652945457259,314.5652945457259,314.5652945457259,315.7324746019149,['space'],[1.088891498191515],[None],,,,,,,,,,,,,,,,,,,,,3010,2023-11-07_13h15.49.394,eb_03,2023.2.3,59.99751893702394,2023-11-07 13h16.05.162454 -0500,
,,,,0,0,0,0,52,0,52,0,315.74860222719144,,,,,,,,,,,,,,,,,,,,,,,,,,,,,,,,,,,,,,,,,,,,,,,,,,,,,,,,,,,,,,,,,,,,,,,,,,,,,,,,,,,,,,,,,,,,,,,,,,,,,,,,,,315.7347085632791,0.0,"('k', 'l')",315.7353056144202,315.73532161224284,315.74860222719144,315.74860222719144,315.74860222719144,315.74860222719144,315.74860222719144,315.74860222719144,315.74860222719144,315.74860222719144,318.0656351787911,"['l', 'k']","[2.2496355965558905, 2.26560928040999]","[None, None]",,,,,,,,,,,,,,,,,,,,,3010,2023-11-07_13h15.49.394,eb_03,2023.2.3,59.99751893702394,2023-11-07 13h16.05.162454 -0500,
,,,,0,0,0,0,53,0,53,0,318.0817519376287,,,,,,,,,,,,,,,,,,,,,,,,,,,,,,,,,,,,,,,,,,,,,,,,,,,,,,,,,,,,,,,,,,,,,,,,,,,,,,,,,,,,,,,,,,,,,,,,,,,,,,,,,,318.0678628013993,3.0,"('h',)",318.0684643802233,318.06847947250935,318.0817519376287,318.0817519376287,318.0817519376287,318.0817519376287,318.0817519376287,318.0817519376287,318.0817519376287,318.0817519376287,319.46549705413054,['h'],[1.2844954751781188],[None],,,,,,,,,,,,,,,,,,,,,3010,2023-11-07_13h15.49.394,eb_03,2023.2.3,59.99751893702394,2023-11-07 13h16.05.162454 -0500,
,,,,0,0,0,0,54,0,54,0,319.48164188460214,,,,,,,,,,,,,,,,,,,,,,,,,,,,,,,,,,,,,,,,,,,,,,,,,,,,,,,,,,,,,,,,,,,,,,,,,,,,,,,,,,,,,,,,,,,,,,,,,,,,,,,,,,319.4677627093042,1.0,"('space',)",319.46835794937215,319.468373343494,319.48164188460214,319.48164188460214,319.48164188460214,319.48164188460214,319.48164188460214,319.48164188460214,319.48164188460214,319.48164188460214,320.34873703157064,['space'],[0.796641602384625],[None],,,,,,,,,,,,,,,,,,,,,3010,2023-11-07_13h15.49.394,eb_03,2023.2.3,59.99751893702394,2023-11-07 13h16.05.162454 -0500,
,,,,0,0,0,0,55,0,55,0,320.364906311559,,,,,,,,,,,,,,,,,,,,,,,,,,,,,,,,,,,,,,,,,,,,,,,,,,,,,,,,,,,,,,,,,,,,,,,,,,,,,,,,,,,,,,,,,,,,,,,,,,,,,,,,,,320.35095710799214,2.0,"('j', 'k')",320.3514454946271,320.35146149244974,320.364906311559,320.364906311559,320.364906311559,320.364906311559,320.364906311559,320.364906311559,320.364906311559,320.364906311559,321.6154172611714,"['j', 'k']","[1.1773525641474407, 1.1783226967963856]","[None, None]",,,,,,,,,,,,,,,,,,,,,3010,2023-11-07_13h15.49.394,eb_03,2023.2.3,59.99751893702394,2023-11-07 13h16.05.162454 -0500,
,,,,0,0,0,0,56,0,56,0,321.63149236526806,,,,,,,,,,,,,,,,,,,,,,,,,,,,,,,,,,,,,,,,,,,,,,,,,,,,,,,,,,,,,,,,,,,,,,,,,,,,,,,,,,,,,,,,,,,,,,,,,,,,,,,,,,321.61763914869516,12.0,"('l',)",321.61813689253177,321.6181519848178,321.63149236526806,321.63149236526806,321.63149236526806,321.63149236526806,321.63149236526806,321.63149236526806,321.63149236526806,321.63149236526806,322.3153546885296,['l'],[0.6147583316487726],[None],,,,,,,,,,,,,,,,,,,,,3010,2023-11-07_13h15.49.394,eb_03,2023.2.3,59.99751893702394,2023-11-07 13h16.05.162454 -0500,
,,,,0,0,0,0,57,0,57,0,322.33141017262824,,,,,,,,,,,,,,,,,,,,,,,,,,,,,,,,,,,,,,,,,,,,,,,,,,,,,,,,,,,,,,,,,,,,,,,,,,,,,,,,,,,,,,,,,,,,,,,,,,,,,,,,,,322.3175955923216,13.0,"('h', 'j')",322.3180776402005,322.31809393985895,322.33141017262824,322.33141017262824,322.33141017262824,322.33141017262824,322.33141017262824,322.33141017262824,322.33141017262824,322.33141017262824,324.3818280933483,"['h', 'j']","[1.9788550925441086, 2.002860593376681]","[None, None]",,,,,,,,,,,,,,,,,,,,,3010,2023-11-07_13h15.49.394,eb_03,2023.2.3,59.99751893702394,2023-11-07 13h16.05.162454 -0500,
,,,,0,0,0,0,58,0,58,0,324.39796537766233,,,,,,,,,,,,,,,,,,,,,,,,,,,,,,,,,,,,,,,,,,,,,,,,,,,,,,,,,,,,,,,,,,,,,,,,,,,,,,,,,,,,,,,,,,,,,,,,,,,,,,,,,,324.38404726423323,11.0,"('j', 'l')",324.3846542763058,324.38466936859186,324.39796537766233,324.39796537766233,324.39796537766233,324.39796537766233,324.39796537766233,324.39796537766233,324.39796537766233,324.39796537766233,325.8984261454025,"['j', 'l']","[1.4243107877555303, 1.4253077846951783]","[None, None]",,,,,,,,,,,,,,,,,,,,,3010,2023-11-07_13h15.49.394,eb_03,2023.2.3,59.99751893702394,2023-11-07 13h16.05.162454 -0500,
,,,,0,0,0,0,59,0,59,0,325.9145118141023,,,,,,,,,,,,,,,,,,,,,,,,,,,,,,,,,,,,,,,,,,,,,,,,,,,,,,,,,,,,,,,,,,,,,,,,,,,,,,,,,,,,,,,,,,,,,,,,,,,,,,,,,,325.90069029133883,14.0,"('h', 'space')",325.9012055422354,325.9012212382222,325.9145118141023,325.9145118141023,325.9145118141023,325.9145118141023,325.9145118141023,325.9145118141023,325.9145118141023,325.9145118141023,327.29827202289016,"['space', 'h']","[1.3077786588401068, 1.347778369061416]","[None, None]",,,,,,,,,,,,,,,,,,,,,3010,2023-11-07_13h15.49.394,eb_03,2023.2.3,59.99751893702394,2023-11-07 13h16.05.162454 -0500,
,,,,0,0,0,0,60,0,60,0,327.31439300754573,,,,,,,,,,,,,,,,,,,,,,,,,,,,,,,,,,,,,,,,,,,,,,,,,,,,,,,,,,,,,,,,,,,,,,,,,,,,,,,,,,,,,,,,,,,,,,,,,,,,,,,,,,327.3005271134607,0.0,"('k', 'l')",327.30112386276596,327.301138955052,327.31439300754573,327.31439300754573,327.31439300754573,327.31439300754573,327.31439300754573,327.31439300754573,327.31439300754573,327.31439300754573,328.9481344264641,"['k', 'l']","[1.5549041050544474, 1.555844354967121]","[None, None]",,,,,,,,,,,,,,,,,,,,,3010,2023-11-07_13h15.49.394,eb_03,2023.2.3,59.99751893702394,2023-11-07 13h16.05.162454 -0500,
,,,,0,0,0,0,61,0,61,0,328.96430913967197,,,,,,,,,,,,,,,,,,,,,,,,,,,,,,,,,,,,,,,,,,,,,,,,,,,,,,,,,,,,,,,,,,,,,,,,,,,,,,,,,,,,,,,,,,,,,,,,,,,,,,,,,,328.95037955610314,3.0,"('h',)",328.9509038623946,328.95091955838143,328.96430913967197,328.96430913967197,328.96430913967197,328.96430913967197,328.96430913967197,328.96430913967197,328.96430913967197,328.96430913967197,330.24801891003153,['h'],[1.185010695917299],[None],,,,,,,,,,,,,,,,,,,,,3010,2023-11-07_13h15.49.394,eb_03,2023.2.3,59.99751893702394,2023-11-07 13h16.05.162454 -0500,
,,,,0,0,0,0,62,0,62,0,330.2641679663502,,,,,,,,,,,,,,,,,,,,,,,,,,,,,,,,,,,,,,,,,,,,,,,,,,,,,,,,,,,,,,,,,,,,,,,,,,,,,,,,,,,,,,,,,,,,,,,,,,,,,,,,,,330.2502404956904,4.0,"('j',)",330.25080374011304,330.25082818962983,330.2641679663502,330.2641679663502,330.2641679663502,330.2641679663502,330.2641679663502,330.2641679663502,330.2641679663502,330.2641679663502,331.93130350028514,['j'],[1.5891723657841794],[None],,,,,,,,,,,,,,,,,,,,,3010,2023-11-07_13h15.49.394,eb_03,2023.2.3,59.99751893702394,2023-11-07 13h16.05.162454 -0500,
,,,,0,0,0,0,63,0,63,0,331.94740124282544,,,,,,,,,,,,,,,,,,,,,,,,,,,,,,,,,,,,,,,,,,,,,,,,,,,,,,,,,,,,,,,,,,,,,,,,,,,,,,,,,,,,,,,,,,,,,,,,,,,,,,,,,,331.9335350468755,12.0,"('l',)",331.9340355073218,331.93405150517356,331.94740124282544,331.94740124282544,331.94740124282544,331.94740124282544,331.94740124282544,331.94740124282544,331.94740124282544,331.94740124282544,332.96454729608377,['l'],[0.9459421198407654],[None],,,,,,,,,,,,,,,,,,,,,3010,2023-11-07_13h15.49.394,eb_03,2023.2.3,59.99751893702394,2023-11-07 13h16.05.162454 -0500,
,,,,0,0,0,0,64,0,64,0,332.98064715153305,,,,,,,,,,,,,,,,,,,,,,,,,,,,,,,,,,,,,,,,,,,,,,,,,,,,,,,,,,,,,,,,,,,,,,,,,,,,,,,,,,,,,,,,,,,,,,,,,,,,,,,,,,332.9668054050999,14.0,"('h', 'space')",332.9673728753405,332.9673885713273,332.98064715153305,332.98064715153305,332.98064715153305,332.98064715153305,332.98064715153305,332.98064715153305,332.98064715153305,332.98064715153305,334.29780657656374,"['h', 'space']","[1.248677537747426, 1.2496355965849943]","[None, None]",,,,,,,,,,,,,,,,,,,,,3010,2023-11-07_13h15.49.394,eb_03,2023.2.3,59.99751893702394,2023-11-07 13h16.05.162454 -0500,
,,,,0,0,0,0,65,0,65,0,334.3138738326379,,,,,,,,,,,,,,,,,,,,,,,,,,,,,,,,,,,,,,,,,,,,,,,,,,,,,,,,,,,,,,,,,,,,,,,,,,,,,,,,,,,,,,,,,,,,,,,,,,,,,,,,,,334.30003661388764,13.0,"('h', 'j')",334.30063396689366,334.30064936104463,334.3138738326379,334.3138738326379,334.3138738326379,334.3138738326379,334.3138738326379,334.3138738326379,334.3138738326379,334.3138738326379,336.6809715452837,"['h', 'j']","[2.2915130900219083, 2.292491976200836]","[None, None]",,,,,,,,,,,,,,,,,,,,,3010,2023-11-07_13h15.49.394,eb_03,2023.2.3,59.99751893702394,2023-11-07 13h16.05.162454 -0500,
,,,,0,0,0,0,66,0,66,0,336.6970306515286,,,,,,,,,,,,,,,,,,,,,,,,,,,,,,,,,,,,,,,,,,,,,,,,,,,,,,,,,,,,,,,,,,,,,,,,,,,,,,,,,,,,,,,,,,,,,,,,,,,,,,,,,,336.683172605437,11.0,"('j', 'l')",336.6837464144337,336.6837618085847,336.6970306515286,336.6970306515286,336.6970306515286,336.6970306515286,336.6970306515286,336.6970306515286,336.6970306515286,336.6970306515286,339.4640391385474,"['j', 'l']","[2.6523628948198166, 2.6533339330053423]","[None, None]",,,,,,,,,,,,,,,,,,,,,3010,2023-11-07_13h15.49.394,eb_03,2023.2.3,59.99751893702394,2023-11-07 13h16.05.162454 -0500,
,,,,0,0,0,0,67,0,67,0,339.4801595195022,,,,,,,,,,,,,,,,,,,,,,,,,,,,,,,,,,,,,,,,,,,,,,,,,,,,,,,,,,,,,,,,,,,,,,,,,,,,,,,,,,,,,,,,,,,,,,,,,,,,,,,,,,339.4666341075499,13.0,"('h', 'j')",339.46714815107407,339.46716233785264,339.4801595195022,339.4801595195022,339.4801595195022,339.4801595195022,339.4801595195022,339.4801595195022,339.4801595195022,339.4801595195022,340.94726028078003,"['h', 'j']","[1.3972521158575546, 1.3982391518657096]","[None, None]",,,,,,,,,,,,,,,,,,,,,3010,2023-11-07_13h15.49.394,eb_03,2023.2.3,59.99751893702394,2023-11-07 13h16.05.162454 -0500,
,,,,0,0,0,0,68,0,68,0,340.96339756512316,,,,,,,,,,,,,,,,,,,,,,,,,,,,,,,,,,,,,,,,,,,,,,,,,,,,,,,,,,,,,,,,,,,,,,,,,,,,,,,,,,,,,,,,,,,,,,,,,,,,,,,,,,340.9495032975101,11.0,"('j', 'l')",340.95008887851145,340.95010457449825,340.96339756512316,340.96339756512316,340.96339756512316,340.96339756512316,340.96339756512316,340.96339756512316,340.96339756512316,340.96339756512316,342.24720030400204,"['j', 'l']","[1.1700020132993814, 1.1709932751837187]","[None, None]",,,,,,,,,,,,,,,,,,,,,3010,2023-11-07_13h15.49.394,eb_03,2023.2.3,59.99751893702394,2023-11-07 13h16.05.162454 -0500,
,,,,0,0,0,0,69,0,69,0,342.2632911040855,,,,,,,,,,,,,,,,,,,,,,,,,,,,,,,,,,,,,,,,,,,,,,,,,,,,,,,,,,,,,,,,,,,,,,,,,,,,,,,,,,,,,,,,,,,,,,,,,,,,,,,,,,342.2494243044348,10.0,"('k',)",342.2500370515918,342.25005244571366,342.2632911040855,342.2632911040855,342.2632911040855,342.2632911040855,342.2632911040855,342.2632911040855,342.2632911040855,342.2632911040855,343.16377463098615,['k'],[0.8301199324196205],[None],,,,,,,,,,,,,,,,,,,,,3010,2023-11-07_13h15.49.394,eb_03,2023.2.3,59.99751893702394,2023-11-07 13h16.05.162454 -0500,
,,,,0,0,0,0,70,0,70,0,343.1799028599635,,,,,,,,,,,,,,,,,,,,,,,,,,,,,,,,,,,,,,,,,,,,,,,,,,,,,,,,,,,,,,,,,,,,,,,,,,,,,,,,,,,,,,,,,,,,,,,,,,,,,,,,,,343.16601372373407,11.0,"('j', 'l')",343.16646739808493,343.1664806792978,343.1799028599635,343.1799028599635,343.1799028599635,343.1799028599635,343.1799028599635,343.1799028599635,343.1799028599635,343.1799028599635,344.28045285333064,"['j', 'l']","[1.0494797837163787, 1.0504704418999609]","[None, None]",,,,,,,,,,,,,,,,,,,,,3010,2023-11-07_13h15.49.394,eb_03,2023.2.3,59.99751893702394,2023-11-07 13h16.05.162454 -0500,
,,,,0,0,0,0,71,0,71,0,344.2964911322051,,,,,,,,,,,,,,,,,,,,,,,,,,,,,,,,,,,,,,,,,,,,,,,,,,,,,,,,,,,,,,,,,,,,,,,,,,,,,,,,,,,,,,,,,,,,,,,,,,,,,,,,,,344.282710358646,10.0,"('k',)",344.28321776157827,344.2832334575651,344.2964911322051,344.2964911322051,344.2964911322051,344.2964911322051,344.2964911322051,344.2964911322051,344.2964911322051,344.2964911322051,344.98029701030464,['k'],[0.6120112322969362],[None],,,,,,,,,,,,,,,,,,,,,3010,2023-11-07_13h15.49.394,eb_03,2023.2.3,59.99751893702394,2023-11-07 13h16.05.162454 -0500,
,,,,0,0,0,0,72,0,72,0,344.9964590460004,,,,,,,,,,,,,,,,,,,,,,,,,,,,,,,,,,,,,,,,,,,,,,,,,,,,,,,,,,,,,,,,,,,,,,,,,,,,,,,,,,,,,,,,,,,,,,,,,,,,,,,,,,344.98253368824953,11.0,"('j', 'l')",344.9830610130157,344.9830770108383,344.9964590460004,344.9964590460004,344.9964590460004,344.9964590460004,344.9964590460004,344.9964590460004,344.9964590460004,344.9964590460004,345.5802724400419,"['j', 'l']","[0.5119680381321814, 0.5129695627547335]","[None, None]",,,,,,,,,,,,,,,,,,,,,3010,2023-11-07_13h15.49.394,eb_03,2023.2.3,59.99751893702394,2023-11-07 13h16.05.162454 -0500,
,,,,0,0,0,0,73,0,73,0,345.5963964431721,,,,,,,,,,,,,,,,,,,,,,,,,,,,,,,,,,,,,,,,,,,,,,,,,,,,,,,,,,,,,,,,,,,,,,,,,,,,,,,,,,,,,,,,,,,,,,,,,,,,,,,,,,345.58252088999143,13.0,"('h', 'j')",345.58300293787033,345.5830159172474,345.5963964431721,345.5963964431721,345.5963964431721,345.5963964431721,345.5963964431721,345.5963964431721,345.5963964431721,345.5963964431721,347.080144608306,"['h', 'j']","[1.4080578964494634, 1.409059722936945]","[None, None]",,,,,,,,,,,,,,,,,,,,,3010,2023-11-07_13h15.49.394,eb_03,2023.2.3,59.99751893702394,2023-11-07 13h16.05.162454 -0500,
,,,,0,0,0,0,74,0,74,0,347.0962963812635,,,,,,,,,,,,,,,,,,,,,,,,,,,,,,,,,,,,,,,,,,,,,,,,,,,,,,,,,,,,,,,,,,,,,,,,,,,,,,,,,,,,,,,,,,,,,,,,,,,,,,,,,,347.08234959247056,10.0,"('k',)",347.08299252417055,347.0830076164857,347.0962963812635,347.0962963812635,347.0962963812635,347.0962963812635,347.0962963812635,347.0962963812635,347.0962963812635,347.0962963812635,348.26338890215266,['k'],[1.0681622324918862],[None],,,,,,,,,,,,,,,,,,,,,3010,2023-11-07_13h15.49.394,eb_03,2023.2.3,59.99751893702394,2023-11-07 13h16.05.162454 -0500,
,,,,0,0,0,0,75,0,75,0,348.27954127878183,,,,,,,,,,,,,,,,,,,,,,,,,,,,,,,,,,,,,,,,,,,,,,,,,,,,,,,,,,,,,,,,,,,,,,,,,,,,,,,,,,,,,,,,,,,,,,,,,,,,,,,,,,348.26564006871195,9.0,"('h', 'k')",348.26613328486565,348.2661492827174,348.27954127878183,348.27954127878183,348.27954127878183,348.27954127878183,348.27954127878183,348.27954127878183,348.27954127878183,348.27954127878183,349.3967136228166,"['h', 'k']","[1.0449523974093609, 1.0459388297167607]","[None, None]",,,,,,,,,,,,,,,,,,,,,3010,2023-11-07_13h15.49.394,eb_03,2023.2.3,59.99751893702394,2023-11-07 13h16.05.162454 -0500,
,,,,0,0,0,0,76,0,76,0,349.4127923490596,,,,,,,,,,,,,,,,,,,,,,,,,,,,,,,,,,,,,,,,,,,,,,,,,,,,,,,,,,,,,,,,,,,,,,,,,,,,,,,,,,,,,,,,,,,,,,,,,,,,,,,,,,349.3989524136996,10.0,"('k',)",349.39947641812614,349.3994918122771,349.4127923490596,349.4127923490596,349.4127923490596,349.4127923490596,349.4127923490596,349.4127923490596,349.4127923490596,349.4127923490596,350.26322771643754,['k'],[0.7516873939312063],[None],,,,,,,,,,,,,,,,,,,,,3010,2023-11-07_13h15.49.394,eb_03,2023.2.3,59.99751893702394,2023-11-07 13h16.05.162454 -0500,
,,,,0,0,0,0,77,0,77,0,350.2794021278387,,,,,,,,,,,,,,,,,,,,,,,,,,,,,,,,,,,,,,,,,,,,,,,,,,,,,,,,,,,,,,,,,,,,,,,,,,,,,,,,,,,,,,,,,,,,,,,,,,,,,,,,,,350.26549005130073,9.0,"('h', 'k')",350.2660007745435,350.26601677236613,350.2794021278387,350.2794021278387,350.2794021278387,350.2794021278387,350.2794021278387,350.2794021278387,350.2794021278387,350.2794021278387,351.16324549517594,"['h', 'k']","[0.8050664227048401, 0.8060712676378898]","[None, None]",,,,,,,,,,,,,,,,,,,,,3010,2023-11-07_13h15.49.394,eb_03,2023.2.3,59.99751893702394,2023-11-07 13h16.05.162454 -0500,
,,,,0,0,0,0,78,0,78,0,351.17930641249404,,,,,,,,,,,,,,,,,,,,,,,,,,,,,,,,,,,,,,,,,,,,,,,,,,,,,,,,,,,,,,,,,,,,,,,,,,,,,,,,,,,,,,,,,,,,,,,,,,,,,,,,,,351.16545681806747,7.0,"('l', 'space')",351.16608948702924,351.1661048811802,351.17930641249404,351.17930641249404,351.17930641249404,351.17930641249404,351.17930641249404,351.17930641249404,351.17930641249404,351.17930641249404,352.54650645088986,"['space', 'l']","[1.2891970265773125, 1.3291994534083642]","[None, None]",,,,,,,,,,,,,,,,,,,,,3010,2023-11-07_13h15.49.394,eb_03,2023.2.3,59.99751893702394,2023-11-07 13h16.05.162454 -0500,
,,,,0,0,0,0,79,0,79,0,352.5625731032924,,,,,,,,,,,,,,,,,,,,,,,,,,,,,,,,,,,,,,,,,,,,,,,,,,,,,,,,,,,,,,,,,,,,,,,,,,,,,,,,,,,,,,,,,,,,,,,,,,,,,,,,,,352.5487718041986,5.0,"('k', 'space')",352.54924389117514,352.5492580779246,352.5625731032924,352.5625731032924,352.5625731032924,352.5625731032924,352.5625731032924,352.5625731032924,352.5625731032924,352.5625731032924,354.3962720223062,"['k', 'space']","[1.7619498519343324, 1.7629429248918314]","[None, None]",,,,,,,,,,,,,,,,,,,,,3010,2023-11-07_13h15.49.394,eb_03,2023.2.3,59.99751893702394,2023-11-07 13h16.05.162454 -0500,
,,,,0,0,0,0,80,0,80,0,354.41241021215683,,,,,,,,,,,,,,,,,,,,,,,,,,,,,,,,,,,,,,,,,,,,,,,,,,,,,,,,,,,,,,,,,,,,,,,,,,,,,,,,,,,,,,,,,,,,,,,,,,,,,,,,,,354.398491495027,8.0,"('j', 'space')",354.39915676336386,354.3991809110157,354.41241021215683,354.41241021215683,354.41241021215683,354.41241021215683,354.41241021215683,354.41241021215683,354.41241021215683,354.41241021215683,355.3962617595389,"['j', 'space']","[0.9121217984356917, 0.9131127584550995]","[None, None]",,,,,,,,,,,,,,,,,,,,,3010,2023-11-07_13h15.49.394,eb_03,2023.2.3,59.99751893702394,2023-11-07 13h16.05.162454 -0500,
,,,,0,0,0,0,81,0,81,0,355.4123459190014,,,,,,,,,,,,,,,,,,,,,,,,,,,,,,,,,,,,,,,,,,,,,,,,,,,,,,,,,,,,,,,,,,,,,,,,,,,,,,,,,,,,,,,,,,,,,,,,,,,,,,,,,,355.39850145595847,7.0,"('l', 'space')",355.3989315863291,355.39894547124277,355.4123459190014,355.4123459190014,355.4123459190014,355.4123459190014,355.4123459190014,355.4123459190014,355.4123459190014,355.4123459190014,356.51283222288475,"['l', 'space']","[1.0241881176189054, 1.0251845108577982]","[None, None]",,,,,,,,,,,,,,,,,,,,,3010,2023-11-07_13h15.49.394,eb_03,2023.2.3,59.99751893702394,2023-11-07 13h16.05.162454 -0500,
,,,,0,0,0,0,82,0,82,0,356.5289538112411,,,,,,,,,,,,,,,,,,,,,,,,,,,,,,,,,,,,,,,,,,,,,,,,,,,,,,,,,,,,,,,,,,,,,,,,,,,,,,,,,,,,,,,,,,,,,,,,,,,,,,,,,,356.5150462624151,6.0,"('h', 'l')",356.51551050136914,356.5155234807462,356.5289538112411,356.5289538112411,356.5289538112411,356.5289538112411,356.5289538112411,356.5289538112411,356.5289538112411,356.5289538112411,361.46305119697354,"['space', 'h', 'h', 'l']","[1.3475975633773487, 1.3635932820034213, 4.930635817232542, 4.931635530781932]","[None, None, None, None]",,,,,,,,,,,,,,,,,,,,,3010,2023-11-07_13h15.49.394,eb_03,2023.2.3,59.99751893702394,2023-11-07 13h16.05.162454 -0500,
,,,,0,0,0,0,83,0,83,0,361.51190827265964,,,,,,,,,,,,,,,,,,,,,,,,,,,,,,,,,,,,,,,,,,,,,,,,,,,,,,,,,,,,,,,,,,,,,,,,,,,,,,,,,,,,,,,,,,,,,,,,,,,,,,,,,,361.4652794232534,7.0,"('l', 'space')",361.4658064461546,361.4658218403056,361.51190827265964,361.51190827265964,361.51190827265964,361.51190827265964,361.51190827265964,361.51190827265964,361.51190827265964,361.51190827265964,364.56227548327297,"['space', 'l']","[2.9716799141897354, 3.0196885010809638]","[None, None]",,,,,,,,,,,,,,,,,,,,,3010,2023-11-07_13h15.49.394,eb_03,2023.2.3,59.99751893702394,2023-11-07 13h16.05.162454 -0500,
,,,,0,0,0,0,84,0,84,0,364.5783527002495,,,,,,,,,,,,,,,,,,,,,,,,,,,,,,,,,,,,,,,,,,,,,,,,,,,,,,,,,,,,,,,,,,,,,,,,,,,,,,,,,,,,,,,,,,,,,,,,,,,,,,,,,,364.56452121658367,5.0,"('k', 'space')",364.5650237899681,364.5650391841191,364.5783527002495,364.5783527002495,364.5783527002495,364.5783527002495,364.5783527002495,364.5783527002495,364.5783527002495,364.5783527002495,367.2787444056594,"['k', 'space']","[2.6412785104766954, 2.642267961258767]","[None, None]",,,,,,,,,,,,,,,,,,,,,3010,2023-11-07_13h15.49.394,eb_03,2023.2.3,59.99751893702394,2023-11-07 13h16.05.162454 -0500,
,,,,0,0,0,0,85,0,85,0,367.29478932515485,,,,,,,,,,,,,,,,,,,,,,,,,,,,,,,,,,,,,,,,,,,,,,,,,,,,,,,,,,,,,,,,,,,,,,,,,,,,,,,,,,,,,,,,,,,,,,,,,,,,,,,,,,367.2809838002431,8.0,"('j', 'space')",367.2816107341205,367.2816264301073,367.29478932515485,367.29478932515485,367.29478932515485,367.29478932515485,367.29478932515485,367.29478932515485,367.29478932515485,367.29478932515485,368.27870697676553,"['j', 'space']","[0.9327943170792423, 0.9337840697262436]","[None, None]",,,,,,,,,,,,,,,,,,,,,3010,2023-11-07_13h15.49.394,eb_03,2023.2.3,59.99751893702394,2023-11-07 13h16.05.162454 -0500,
,,,,0,0,0,0,86,0,86,0,368.2947349929018,,,,,,,,,,,,,,,,,,,,,,,,,,,,,,,,,,,,,,,,,,,,,,,,,,,,,,,,,,,,,,,,,,,,,,,,,,,,,,,,,,,,,,,,,,,,,,,,,,,,,,,,,,368.28090833875467,9.0,"('h', 'k')",368.2814498502703,368.2814655462571,368.2947349929018,368.2947349929018,368.2947349929018,368.2947349929018,368.2947349929018,368.2947349929018,368.2947349929018,368.2947349929018,370.7784653491399,"['h', 'k']","[2.4049042107071728, 2.40591116854921]","[None, None]",,,,,,,,,,,,,,,,,,,,,3010,2023-11-07_13h15.49.394,eb_03,2023.2.3,59.99751893702394,2023-11-07 13h16.05.162454 -0500,
,,,,0,0,0,0,87,0,87,0,370.794563393516,,,,,,,,,,,,,,,,,,,,,,,,,,,,,,,,,,,,,,,,,,,,,,,,,,,,,,,,,,,,,,,,,,,,,,,,,,,,,,,,,,,,,,,,,,,,,,,,,,,,,,,,,,370.7806866329629,10.0,"('k',)",370.7811723029881,370.78118769711,370.794563393516,370.794563393516,370.794563393516,370.794563393516,370.794563393516,370.794563393516,370.794563393516,370.794563393516,371.6950128118333,['k'],[0.8250981225573923],[None],,,,,,,,,,,,,,,,,,,,,3010,2023-11-07_13h15.49.394,eb_03,2023.2.3,59.99751893702394,2023-11-07 13h16.05.162454 -0500,
,,,,0,0,0,0,88,0,88,0,371.7111645847908,,,,,,,,,,,,,,,,,,,,,,,,,,,,,,,,,,,,,,,,,,,,,,,,,,,,,,,,,,,,,,,,,,,,,,,,,,,,,,,,,,,,,,,,,,,,,,,,,,,,,,,,,,371.69724556579604,9.0,"('h', 'k')",371.6977484410454,371.69776443886803,371.7111645847908,371.7111645847908,371.7111645847908,371.7111645847908,371.7111645847908,371.7111645847908,371.7111645847908,371.7111645847908,372.562251335592,"['h', 'k']","[0.7165274805156514, 0.8204865212319419]","[None, None]",,,,,,,,,,,,,,,,,,,,,3010,2023-11-07_13h15.49.394,eb_03,2023.2.3,59.99751893702394,2023-11-07 13h16.05.162454 -0500,
,,,,0,0,0,0,89,0,89,0,372.57774357526796,,,,,,,,,,,,,,,,,,,,,,,,,,,,,,,,,,,,,,,,,,,,,,,,,,,,,,,,,,,,,,,,,,,,,,,,,,,,,,,,,,,,,,,,,,,,,,,,,,,,,,,,,,372.5645260461315,8.0,"('j', 'space')",372.565052465332,372.5650681613188,372.57774357526796,372.57774357526796,372.57774357526796,372.57774357526796,372.57774357526796,372.57774357526796,372.57774357526796,372.57774357526796,375.67813057187595,"['j', 'space']","[2.9859409245254938, 2.986926149489591]","[None, None]",,,,,,,,,,,,,,,,,,,,,3010,2023-11-07_13h15.49.394,eb_03,2023.2.3,59.99751893702394,2023-11-07 13h16.05.162454 -0500,
,,,,0,0,0,0,90,0,90,0,375.6941854523029,,,,,,,,,,,,,,,,,,,,,,,,,,,,,,,,,,,,,,,,,,,,,,,,,,,,,,,,,,,,,,,,,,,,,,,,,,,,,,,,,,,,,,,,,,,,,,,,,,,,,,,,,,375.6803488372534,6.0,"('h', 'l')",375.6809697342105,375.6809932781907,375.6941854523029,375.6941854523029,375.6941854523029,375.6941854523029,375.6941854523029,375.6941854523029,375.6941854523029,375.6941854523029,378.92788147355895,"['l', 'h']","[3.164549771230668, 3.1965393973805476]","[None, None]",,,,,,,,,,,,,,,,,,,,,3010,2023-11-07_13h15.49.394,eb_03,2023.2.3,59.99751893702394,2023-11-07 13h16.05.162454 -0500,
,,,,0,0,0,0,91,0,91,0,378.9439451075159,,,,,,,,,,,,,,,,,,,,,,,,,,,,,,,,,,,,,,,,,,,,,,,,,,,,,,,,,,,,,,,,,,,,,,,,,,,,,,,,,,,,,,,,,,,,,,,,,,,,,,,,,,378.93013505489216,1.0,"('space',)",378.9306599648844,378.93068531993777,378.9439451075159,378.9439451075159,378.9439451075159,378.9439451075159,378.9439451075159,378.9439451075159,378.9439451075159,378.9439451075159,379.92772602295736,['space'],[0.9067863707023207],[None],,,,,,,,,,,,,,,,,,,,,3010,2023-11-07_13h15.49.394,eb_03,2023.2.3,59.99751893702394,2023-11-07 13h16.05.162454 -0500,
,,,,0,0,0,0,92,0,92,0,379.943846705748,,,,,,,,,,,,,,,,,,,,,,,,,,,,,,,,,,,,,,,,,,,,,,,,,,,,,,,,,,,,,,,,,,,,,,,,,,,,,,,,,,,,,,,,,,,,,,,,,,,,,,,,,,379.93003423837945,2.0,"('j', 'k')",379.9305467726663,379.930562770518,379.943846705748,379.943846705748,379.943846705748,379.943846705748,379.943846705748,379.943846705748,379.943846705748,379.943846705748,381.1278069780092,"['j', 'k']","[1.1309259514964651, 1.1788949965848587]","[None, None]",,,,,,,,,,,,,,,,,,,,,3010,2023-11-07_13h15.49.394,eb_03,2023.2.3,59.99751893702394,2023-11-07 13h16.05.162454 -0500,
,,,,0,0,0,0,93,0,93,0,381.1604757574096,,,,,,,,,,,,,,,,,,,,,,,,,,,,,,,,,,,,,,,,,,,,,,,,,,,,,,,,,,,,,,,,,,,,,,,,,,,,,,,,,,,,,,,,,,,,,,,,,,,,,,,,,,381.13005572979455,0.0,"('k', 'l')",381.13055800134316,381.13057339549414,381.1604757574096,381.1604757574096,381.1604757574096,381.1604757574096,381.1604757574096,381.1604757574096,381.1604757574096,381.1604757574096,382.8276067636325,"['k', 'l']","[1.6102870886097662, 1.6582519078801852]","[None, None]",,,,,,,,,,,,,,,,,,,,,3010,2023-11-07_13h15.49.394,eb_03,2023.2.3,59.99751893702394,2023-11-07 13h16.05.162454 -0500,
,,,,0,0,0,0,94,0,94,0,382.86034889158327,,,,,,,,,,,,,,,,,,,,,,,,,,,,,,,,,,,,,,,,,,,,,,,,,,,,,,,,,,,,,,,,,,,,,,,,,,,,,,,,,,,,,,,,,,,,,,,,,,,,,,,,,,382.82989203877514,2.0,"('j', 'k')",382.83039521586034,382.8304106100113,382.86034889158327,382.86034889158327,382.86034889158327,382.86034889158327,382.86034889158327,382.86034889158327,382.86034889158327,382.86034889158327,384.1274169931421,"['j', 'k']","[1.1504261007357854, 1.1514191736641806]","[None, None]",,,,,,,,,,,,,,,,,,,,,3010,2023-11-07_13h15.49.394,eb_03,2023.2.3,59.99751893702394,2023-11-07 13h16.05.162454 -0500,
,,,,0,0,0,0,95,0,95,0,384.14360800603754,,,,,,,,,,,,,,,,,,,,,,,,,,,,,,,,,,,,,,,,,,,,,,,,,,,,,,,,,,,,,,,,,,,,,,,,,,,,,,,,,,,,,,,,,,,,,,,,,,,,,,,,,,384.12968204461504,4.0,"('j',)",384.1301894475182,384.1302048416692,384.14360800603754,384.14360800603754,384.14360800603754,384.14360800603754,384.14360800603754,384.14360800603754,384.14360800603754,384.14360800603754,385.09400386179914,['j'],[0.8831820230116136],[None],,,,,,,,,,,,,,,,,,,,,3010,2023-11-07_13h15.49.394,eb_03,2023.2.3,59.99751893702394,2023-11-07 13h16.05.162454 -0500,
,,,,0,0,0,0,96,0,96,0,385.11018913963926,,,,,,,,,,,,,,,,,,,,,,,,,,,,,,,,,,,,,,,,,,,,,,,,,,,,,,,,,,,,,,,,,,,,,,,,,,,,,,,,,,,,,,,,,,,,,,,,,,,,,,,,,,385.09622635302367,3.0,"('h',)",385.09683577984106,385.09685147582786,385.11018913963926,385.11018913963926,385.11018913963926,385.11018913963926,385.11018913963926,385.11018913963926,385.11018913963926,385.11018913963926,386.2439835325058,['h'],[1.060588013875531],[None],,,,,,,,,,,,,,,,,,,,,3010,2023-11-07_13h15.49.394,eb_03,2023.2.3,59.99751893702394,2023-11-07 13h16.05.162454 -0500,
,,,,0,0,0,0,97,0,97,0,386.2601024042233,,,,,,,,,,,,,,,,,,,,,,,,,,,,,,,,,,,,,,,,,,,,,,,,,,,,,,,,,,,,,,,,,,,,,,,,,,,,,,,,,,,,,,,,,,,,,,,,,,,,,,,,,,386.24620391076314,2.0,"('j', 'k')",386.24669622140937,386.246712219232,386.2601024042233,386.2601024042233,386.2601024042233,386.2601024042233,386.2601024042233,386.2601024042233,386.2601024042233,386.2601024042233,387.2438751698355,"['j', 'k']","[0.9106856157304719, 0.9116768776148092]","[None, None]",,,,,,,,,,,,,,,,,,,,,3010,2023-11-07_13h15.49.394,eb_03,2023.2.3,59.99751893702394,2023-11-07 13h16.05.162454 -0500,
,,,,0,0,0,0,98,0,98,0,387.26000339878374,,,,,,,,,,,,,,,,,,,,,,,,,,,,,,,,,,,,,,,,,,,,,,,,,,,,,,,,,,,,,,,,,,,,,,,,,,,,,,,,,,,,,,,,,,,,,,,,,,,,,,,,,,387.24610792376916,0.0,"('k', 'l')",387.2466138174641,387.2466292116151,387.26000339878374,387.26000339878374,387.26000339878374,387.26000339878374,387.26000339878374,387.26000339878374,387.26000339878374,387.26000339878374,388.64373855438316,"['k', 'l']","[1.2867409066529945, 1.3267937417549547]","[None, None]",,,,,,,,,,,,,,,,,,,,,3010,2023-11-07_13h15.49.394,eb_03,2023.2.3,59.99751893702394,2023-11-07 13h16.05.162454 -0500,
,,,,0,0,0,0,99,0,99,0,388.6599196063762,,,,,,,,,,,,,,,,,,,,,,,,,,,,,,,,,,,,,,,,,,,,,,,,,,,,,,,,,,,,,,,,,,,,,,,,,,,,,,,,,,,,,,,,,,,,,,,,,,,,,,,,,,388.64597523232806,14.0,"('h', 'space')",388.6464989349188,388.64651161246,388.6599196063762,388.6599196063762,388.6599196063762,388.6599196063762,388.6599196063762,388.6599196063762,388.6599196063762,388.6599196063762,390.4769524070434,"['h', 'space']","[1.7429082065355033, 1.7438979591825046]","[None, None]",,,,,,,,,,,,,,,,,,,,,3010,2023-11-07_13h15.49.394,eb_03,2023.2.3,59.99751893702394,2023-11-07 13h16.05.162454 -0500,
,,,,0,0,0,0,100,0,100,0,390.49312772395206,,,,,,,,,,,,,,,,,,,,,,,,,,,,,,,,,,,,,,,,,,,,,,,,,,,,,,,,,,,,,,,,,,,,,,,,,,,,,,,,,,,,,,,,,,,,,,,,,,,,,,,,,,390.4791863684077,12.0,"('l',)",390.47981692443136,390.47983231858234,390.49312772395206,390.49312772395206,390.49312772395206,390.49312772395206,390.49312772395206,390.49312772395206,390.49312772395206,390.49312772395206,392.9434633615019,['l'],[2.3807221300376114],[None],,,,,,,,,,,,,,,,,,,,,3010,2023-11-07_13h15.49.394,eb_03,2023.2.3,59.99751893702394,2023-11-07 13h16.05.162454 -0500,
,,,,0,0,0,0,101,0,101,0,392.9596199639491,,,,,,,,,,,,,,,,,,,,,,,,,,,,,,,,,,,,,,,,,,,,,,,,,,,,,,,,,,,,,,,,,,,,,,,,,,,,,,,,,,,,,,,,,,,,,,,,,,,,,,,,,,392.94570366159314,14.0,"('h', 'space')",392.94638040006976,392.94639579419163,392.9596199639491,392.9596199639491,392.9596199639491,392.9596199639491,392.9596199639491,392.9596199639491,392.9596199639491,392.9596199639491,394.1434344446461,"['h', 'space']","[1.1222575415449683, 1.1542284532624763]","[None, None]",,,,,,,,,,,,,,,,,,,,,3010,2023-11-07_13h15.49.394,eb_03,2023.2.3,59.99751893702394,2023-11-07 13h16.05.162454 -0500,
,,,,0,0,0,0,102,0,102,0,394.159524339193,,,,,,,,,,,,,,,,,,,,,,,,,,,,,,,,,,,,,,,,,,,,,,,,,,,,,,,,,,,,,,,,,,,,,,,,,,,,,,,,,,,,,,,,,,,,,,,,,,,,,,,,,,394.1456744429306,12.0,"('l',)",394.1462313485681,394.14624674269,394.159524339193,394.159524339193,394.159524339193,394.159524339193,394.159524339193,394.159524339193,394.159524339193,394.159524339193,395.01009161325055,['l'],[0.7783370646357071],[None],,,,,,,,,,,,,,,,,,,,,3010,2023-11-07_13h15.49.394,eb_03,2023.2.3,59.99751893702394,2023-11-07 13h16.05.162454 -0500,
,,,,0,0,0,0,103,0,103,0,395.0261027259985,,,,,,,,,,,,,,,,,,,,,,,,,,,,,,,,,,,,,,,,,,,,,,,,,,,,,,,,,,,,,,,,,,,,,,,,,,,,,,,,,,,,,,,,,,,,,,,,,,,,,,,,,,395.0123343281157,14.0,"('h', 'space')",395.01283810887253,395.01286316209007,395.0261027259985,395.0261027259985,395.0261027259985,395.0261027259985,395.0261027259985,395.0261027259985,395.0261027259985,395.0261027259985,395.8432692444185,"['h', 'space']","[0.7437615248782095, 0.7447561070439406]","[None, None]",,,,,,,,,,,,,,,,,,,,,3010,2023-11-07_13h15.49.394,eb_03,2023.2.3,59.99751893702394,2023-11-07 13h16.05.162454 -0500,
,,,,0,0,0,0,104,0,104,0,395.85940049181227,,,,,,,,,,,,,,,,,,,,,,,,,,,,,,,,,,,,,,,,,,,,,,,,,,,,,,,,,,,,,,,,,,,,,,,,,,,,,,,,,,,,,,,,,,,,,,,,,,,,,,,,,,395.8454905282124,13.0,"('h', 'j')",395.8461123307352,395.8461277248862,395.85940049181227,395.85940049181227,395.85940049181227,395.85940049181227,395.85940049181227,395.85940049181227,395.85940049181227,395.85940049181227,397.77653474290855,"['h', 'j']","[1.8624889788334258, 1.886478481843369]","[None, None]",,,,,,,,,,,,,,,,,,,,,3010,2023-11-07_13h15.49.394,eb_03,2023.2.3,59.99751893702394,2023-11-07 13h16.05.162454 -0500,
,,,,0,0,0,0,105,0,105,0,397.79258539748844,,,,,,,,,,,,,,,,,,,,,,,,,,,,,,,,,,,,,,,,,,,,,,,,,,,,,,,,,,,,,,,,,,,,,,,,,,,,,,,,,,,,,,,,,,,,,,,,,,,,,,,,,,397.7787684024079,7.0,"('l', 'space')",397.7792878791515,397.7793032733025,397.79258539748844,397.79258539748844,397.79258539748844,397.79258539748844,397.79258539748844,397.79258539748844,397.79258539748844,397.79258539748844,399.2596251858922,"['space', 'l']","[1.3692939432512503, 1.393306990241399]","[None, None]",,,,,,,,,,,,,,,,,,,,,3010,2023-11-07_13h15.49.394,eb_03,2023.2.3,59.99751893702394,2023-11-07 13h16.05.162454 -0500,
,,,,0,0,0,0,106,0,106,0,399.2757890326611,,,,,,,,,,,,,,,,,,,,,,,,,,,,,,,,,,,,,,,,,,,,,,,,,,,,,,,,,,,,,,,,,,,,,,,,,,,,,,,,,,,,,,,,,,,,,,,,,,,,,,,,,,399.2618920484383,9.0,"('h', 'k')",399.26241484549246,399.2624395968742,399.2757890326611,399.2757890326611,399.2757890326611,399.2757890326611,399.2757890326611,399.2757890326611,399.2757890326611,399.2757890326611,401.50951493668254,"['k', 'h']","[2.134135780535871, 2.1821150883915834]","[None, None]",,,,,,,,,,,,,,,,,,,,,3010,2023-11-07_13h15.49.394,eb_03,2023.2.3,59.99751893702394,2023-11-07 13h16.05.162454 -0500,
,,,,0,0,0,0,107,0,107,0,401.52562867704546,,,,,,,,,,,,,,,,,,,,,,,,,,,,,,,,,,,,,,,,,,,,,,,,,,,,,,,,,,,,,,,,,,,,,,,,,,,,,,,,,,,,,,,,,,,,,,,,,,,,,,,,,,401.51171599683585,10.0,"('k',)",401.5123809633078,401.5124054128246,401.52562867704546,401.52562867704546,401.52562867704546,401.52562867704546,401.52562867704546,401.52562867704546,401.52562867704546,401.52562867704546,402.30949586004135,['k'],[0.7162672893609852],[None],,,,,,,,,,,,,,,,,,,,,3010,2023-11-07_13h15.49.394,eb_03,2023.2.3,59.99751893702394,2023-11-07 13h16.05.162454 -0500,
,,,,0,0,0,0,108,0,108,0,402.32556462535285,,,,,,,,,,,,,,,,,,,,,,,,,,,,,,,,,,,,,,,,,,,,,,,,,,,,,,,,,,,,,,,,,,,,,,,,,,,,,,,,,,,,,,,,,,,,,,,,,,,,,,,,,,402.3117455173633,12.0,"('l',)",402.31233562604757,402.3123516238702,402.32556462535285,402.32556462535285,402.32556462535285,402.32556462535285,402.32556462535285,402.32556462535285,402.32556462535285,402.32556462535285,403.12603302978096,['l'],[0.7323774075484835],[None],,,,,,,,,,,,,,,,,,,,,3010,2023-11-07_13h15.49.394,eb_03,2023.2.3,59.99751893702394,2023-11-07 13h16.05.162454 -0500,
,,,,0,0,0,0,109,0,109,0,403.14218540641014,,,,,,,,,,,,,,,,,,,,,,,,,,,,,,,,,,,,,,,,,,,,,,,,,,,,,,,,,,,,,,,,,,,,,,,,,,,,,,,,,,,,,,,,,,,,,,,,,,,,,,,,,,403.12825310620246,14.0,"('h', 'space')",403.12874632238527,403.1287623202079,403.14218540641014,403.14218540641014,403.14218540641014,403.14218540641014,403.14218540641014,403.14218540641014,403.14218540641014,403.14218540641014,404.542615053826,"['h', 'space']","[1.3237106879823841, 1.3247267011902295]","[None, None]",,,,,,,,,,,,,,,,,,,,,3010,2023-11-07_13h15.49.394,eb_03,2023.2.3,59.99751893702394,2023-11-07 13h16.05.162454 -0500,
,,,,0,0,0,0,110,0,110,0,404.5587508289318,,,,,,,,,,,,,,,,,,,,,,,,,,,,,,,,,,,,,,,,,,,,,,,,,,,,,,,,,,,,,,,,,,,,,,,,,,,,,,,,,,,,,,,,,,,,,,,,,,,,,,,,,,404.5448179250525,11.0,"('j', 'l')",404.54533860919764,404.54535098487395,404.5587508289318,404.5587508289318,404.5587508289318,404.5587508289318,404.5587508289318,404.5587508289318,404.5587508289318,404.5587508289318,406.0592882655328,"['j', 'l']","[1.3871719727758318, 1.403245869470993]","[None, None]",,,,,,,,,,,,,,,,,,,,,3010,2023-11-07_13h15.49.394,eb_03,2023.2.3,59.99751893702394,2023-11-07 13h16.05.162454 -0500,
,,,,0,0,0,0,111,0,111,0,406.0753223185602,,,,,,,,,,,,,,,,,,,,,,,,,,,,,,,,,,,,,,,,,,,,,,,,,,,,,,,,,,,,,,,,,,,,,,,,,,,,,,,,,,,,,,,,,,,,,,,,,,,,,,,,,,406.0615327914711,10.0,"('k',)",406.0621711955173,406.06218658963917,406.0753223185602,406.0753223185602,406.0753223185602,406.0753223185602,406.0753223185602,406.0753223185602,406.0753223185602,406.0753223185602,407.09243728170986,['k'],[0.9186181254335679],[None],,,,,,,,,,,,,,,,,,,,,3010,2023-11-07_13h15.49.394,eb_03,2023.2.3,59.99751893702394,2023-11-07 13h16.05.162454 -0500,
,,,,0,0,0,0,112,0,112,0,407.1085793955717,,,,,,,,,,,,,,,,,,,,,,,,,,,,,,,,,,,,,,,,,,,,,,,,,,,,,,,,,,,,,,,,,,,,,,,,,,,,,,,,,,,,,,,,,,,,,,,,,,,,,,,,,,407.09465705629555,0.0,"('k', 'l')",407.0952673886495,407.09528248096467,407.1085793955717,407.1085793955717,407.1085793955717,407.1085793955717,407.1085793955717,407.1085793955717,407.1085793955717,407.1085793955717,408.2259219806874,"['k', 'l']","[1.0603963417524938, 1.0613876036077272]","[None, None]",,,,,,,,,,,,,,,,,,,,,3010,2023-11-07_13h15.49.394,eb_03,2023.2.3,59.99751893702394,2023-11-07 13h16.05.162454 -0500,
,,,,0,0,0,0,113,0,113,0,408.24183771014214,,,,,,,,,,,,,,,,,,,,,,,,,,,,,,,,,,,,,,,,,,,,,,,,,,,,,,,,,,,,,,,,,,,,,,,,,,,,,,,,,,,,,,,,,,,,,,,,,,,,,,,,,,408.22828301915433,2.0,"('j', 'k')",408.2286630430899,408.2286763243319,408.24183771014214,408.24183771014214,408.24183771014214,408.24183771014214,408.24183771014214,408.24183771014214,408.24183771014214,408.24183771014214,409.5755947344878,"['j', 'k']","[1.2551065531151835, 1.2561168312677182]","[None, None]",,,,,,,,,,,,,,,,,,,,,3010,2023-11-07_13h15.49.394,eb_03,2023.2.3,59.99751893702394,2023-11-07 13h16.05.162454 -0500,
,,,,0,0,0,0,114,0,114,0,409.5917226616002,,,,,,,,,,,,,,,,,,,,,,,,,,,,,,,,,,,,,,,,,,,,,,,,,,,,,,,,,,,,,,,,,,,,,,,,,,,,,,,,,,,,,,,,,,,,,,,,,,,,,,,,,,409.5778187348915,1.0,"('space',)",409.578410654678,409.57842574696406,409.5917226616002,409.5917226616002,409.5917226616002,409.5917226616002,409.5917226616002,409.5917226616002,409.5917226616002,409.5917226616002,410.5588347420853,['space'],[0.8892032445874065],[None],,,,,,,,,,,,,,,,,,,,,3010,2023-11-07_13h15.49.394,eb_03,2023.2.3,59.99751893702394,2023-11-07 13h16.05.162454 -0500,
,,,,0,0,0,0,115,0,115,0,410.57497987442184,,,,,,,,,,,,,,,,,,,,,,,,,,,,,,,,,,,,,,,,,,,,,,,,,,,,,,,,,,,,,,,,,,,,,,,,,,,,,,,,,,,,,,,,,,,,,,,,,,,,,,,,,,410.5610889271193,2.0,"('j', 'k')",410.56156282513984,410.56157520081615,410.57497987442184,410.57497987442184,410.57497987442184,410.57497987442184,410.57497987442184,410.57497987442184,410.57497987442184,410.57497987442184,411.9587566847622,"['j', 'k']","[1.3059639614075422, 1.3069522048172075]","[None, None]",,,,,,,,,,,,,,,,,,,,,3010,2023-11-07_13h15.49.394,eb_03,2023.2.3,59.99751893702394,2023-11-07 13h16.05.162454 -0500,
,,,,0,0,0,0,116,0,116,0,411.97488853585673,,,,,,,,,,,,,,,,,,,,,,,,,,,,,,,,,,,,,,,,,,,,,,,,,,,,,,,,,,,,,,,,,,,,,,,,,,,,,,,,,,,,,,,,,,,,,,,,,,,,,,,,,,411.96101177530363,3.0,"('h',)",411.96148627702496,411.961499256402,411.97488853585673,411.97488853585673,411.97488853585673,411.97488853585673,411.97488853585673,411.97488853585673,411.97488853585673,411.97488853585673,413.5919336518564,['h'],[1.5381595068320166],[None],,,,,,,,,,,,,,,,,,,,,3010,2023-11-07_13h15.49.394,eb_03,2023.2.3,59.99751893702394,2023-11-07 13h16.05.162454 -0500,
,,,,0,0,0,0,117,0,117,0,413.6080875377229,,,,,,,,,,,,,,,,,,,,,,,,,,,,,,,,,,,,,,,,,,,,,,,,,,,,,,,,,,,,,,,,,,,,,,,,,,,,,,,,,,,,,,,,,,,,,,,,,,,,,,,,,,413.59417365011177,4.0,"('j',)",413.59468226041645,413.5946976545674,413.6080875377229,413.6080875377229,413.6080875377229,413.6080875377229,413.6080875377229,413.6080875377229,413.6080875377229,413.6080875377229,414.52522480726475,['j'],[0.8489297601627186],[None],,,,,,,,,,,,,,,,,,,,,3010,2023-11-07_13h15.49.394,eb_03,2023.2.3,59.99751893702394,2023-11-07 13h16.05.162454 -0500,
,,,,0,0,0,0,118,0,118,0,414.5413264737872,,,,,,,,,,,,,,,,,,,,,,,,,,,,,,,,,,,,,,,,,,,,,,,,,,,,,,,,,,,,,,,,,,,,,,,,,,,,,,,,,,,,,,,,,,,,,,,,,,,,,,,,,,414.52745363721624,3.0,"('h',)",414.5279788490443,414.52799273395794,414.5413264737872,414.5413264737872,414.5413264737872,414.5413264737872,414.5413264737872,414.5413264737872,414.5413264737872,414.5413264737872,415.425170746661,['h'],[0.7876885518198833],[None],,,,,,,,,,,,,,,,,,,,,3010,2023-11-07_13h15.49.394,eb_03,2023.2.3,59.99751893702394,2023-11-07 13h16.05.162454 -0500,
,,,,0,0,0,0,119,0,119,0,415.44127573349397,,,,,,,,,,,,,,,,,,,,,,,,,,,,,,,,,,,,,,,,,,,,,,,,,,,,,,,,,,,,,,,,,,,,,,,,,,,,,,,,,,,,,,,,,,,,,,,,,,,,,,,,,,415.4273983692401,8.0,"('j', 'space')",415.4280147385143,415.4280301326653,415.44127573349397,415.44127573349397,415.44127573349397,415.44127573349397,415.44127573349397,415.44127573349397,415.44127573349397,415.44127573349397,416.5751247604494,"['j', 'space']","[1.0557406709122006, 1.0567331401689444]","[None, None]",,,,,,,,,,,,,,,,,,,,,3010,2023-11-07_13h15.49.394,eb_03,2023.2.3,59.99751893702394,2023-11-07 13h16.05.162454 -0500,
,,,,0,0,0,0,120,0,120,0,416.59119835530873,,,,,,,,,,,,,,,,,,,,,,,,,,,,,,,,,,,,,,,,,,,,,,,,,,,,,,,,,,,,,,,,,,,,,,,,,,,,,,,,,,,,,,,,,,,,,,,,,,,,,,,,,,416.5773493645538,6.0,"('h', 'l')",416.5779153255862,416.57793041787227,416.59119835530873,416.59119835530873,416.59119835530873,416.59119835530873,416.59119835530873,416.59119835530873,416.59119835530873,416.59119835530873,418.1750597428472,"['h', 'l']","[1.529859047033824, 1.5308521199622191]","[None, None]",,,,,,,,,,,,,,,,,,,,,3010,2023-11-07_13h15.49.394,eb_03,2023.2.3,59.99751893702394,2023-11-07 13h16.05.162454 -0500,
,,,,0,0,0,0,121,0,121,0,418.1911046623427,,,,,,,,,,,,,,,,,,,,,,,,,,,,,,,,,,,,,,,,,,,,,,,,,,,,,,,,,,,,,,,,,,,,,,,,,,,,,,,,,,,,,,,,,,,,,,,,,,,,,,,,,,418.17729430788313,7.0,"('l', 'space')",418.1778654002701,418.17788049258525,418.1911046623427,418.1911046623427,418.1911046623427,418.1911046623427,418.1911046623427,418.1911046623427,418.1911046623427,418.1911046623427,419.8748486620316,"['l', 'space']","[1.5699484054930508, 1.5709387618117034]","[None, None]",,,,,,,,,,,,,,,,,,,,,3010,2023-11-07_13h15.49.394,eb_03,2023.2.3,59.99751893702394,2023-11-07 13h16.05.162454 -0500,
,,,,0,0,0,0,122,0,122,0,419.89097960758954,,,,,,,,,,,,,,,,,,,,,,,,,,,,,,,,,,,,,,,,,,,,,,,,,,,,,,,,,,,,,,,,,,,,,,,,,,,,,,,,,,,,,,,,,,,,,,,,,,,,,,,,,,419.8771194485598,5.0,"('k', 'space')",419.87769325758563,419.8777083498717,419.89097960758954,419.89097960758954,419.89097960758954,419.89097960758954,419.89097960758954,419.89097960758954,419.89097960758954,419.89097960758954,421.274738609005,"['k', 'space']","[1.3101046831870917, 1.311106811510399]","[None, None]",,,,,,,,,,,,,,,,,,,,,3010,2023-11-07_13h15.49.394,eb_03,2023.2.3,59.99751893702394,2023-11-07 13h16.05.162454 -0500,
,,,,0,0,0,0,123,0,123,0,421.29085506597767,,,,,,,,,,,,,,,,,,,,,,,,,,,,,,,,,,,,,,,,,,,,,,,,,,,,,,,,,,,,,,,,,,,,,,,,,,,,,,,,,,,,,,,,,,,,,,,,,,,,,,,,,,421.2770178472274,8.0,"('j', 'space')",421.2775638864259,421.2775792805769,421.29085506597767,421.29085506597767,421.29085506597767,421.29085506597767,421.29085506597767,421.29085506597767,421.29085506597767,421.29085506597767,422.4746716595837,"['j', 'space']","[1.110238642373588, 1.111241676233476]","[None, None]",,,,,,,,,,,,,,,,,,,,,3010,2023-11-07_13h15.49.394,eb_03,2023.2.3,59.99751893702394,2023-11-07 13h16.05.162454 -0500,
,,,,0,0,0,0,124,0,124,0,422.4907751371793,,,,,,,,,,,,,,,,,,,,,,,,,,,,,,,,,,,,,,,,,,,,,,,,,,,,,,,,,,,,,,,,,,,,,,,,,,,,,,,,,,,,,,,,,,,,,,,,,,,,,,,,,,422.4769116578682,5.0,"('k', 'space')",422.4775391954463,422.47755428773235,422.4907751371793,422.4907751371793,422.4907751371793,422.4907751371793,422.4907751371793,422.4907751371793,422.4907751371793,422.4907751371793,423.69125452882145,"['k', 'space']","[1.1333702993870247, 1.1573024516983423]","[None, None]",,,,,,,,,,,,,,,,,,,,,3010,2023-11-07_13h15.49.394,eb_03,2023.2.3,59.99751893702394,2023-11-07 13h16.05.162454 -0500,
,,,,0,0,0,0,125,0,125,0,423.70734321596683,,,,,,,,,,,,,,,,,,,,,,,,,,,,,,,,,,,,,,,,,,,,,,,,,,,,,,,,,,,,,,,,,,,,,,,,,,,,,,,,,,,,,,,,,,,,,,,,,,,,,,,,,,423.69349905475974,7.0,"('l', 'space')",423.6939974022971,423.6940127964481,423.70734321596683,423.70734321596683,423.70734321596683,423.70734321596683,423.70734321596683,423.70734321596683,423.70734321596683,423.70734321596683,424.6578202682722,"['l', 'space']","[0.8367529956158251, 0.8377406353247352]","[None, None]",,,,,,,,,,,,,,,,,,,,,3010,2023-11-07_13h15.49.394,eb_03,2023.2.3,59.99751893702394,2023-11-07 13h16.05.162454 -0500,
,,,,0,0,0,0,126,0,126,0,424.673938536318,,,,,,,,,,,,,,,,,,,,,,,,,,,,,,,,,,,,,,,,,,,,,,,,,,,,,,,,,,,,,,,,,,,,,,,,,,,,,,,,,,,,,,,,,,,,,,,,,,,,,,,,,,424.6600605683925,12.0,"('l',)",424.66059423191473,424.6606093242008,424.673938536318,424.673938536318,424.673938536318,424.673938536318,424.673938536318,424.673938536318,424.673938536318,424.673938536318,425.50773223492433,['l'],[0.7341761071584187],[None],,,,,,,,,,,,,,,,,,,,,3010,2023-11-07_13h15.49.394,eb_03,2023.2.3,59.99751893702394,2023-11-07 13h16.05.162454 -0500,
,,,,0,0,0,0,127,0,127,0,425.5238752543519,,,,,,,,,,,,,,,,,,,,,,,,,,,,,,,,,,,,,,,,,,,,,,,,,,,,,,,,,,,,,,,,,,,,,,,,,,,,,,,,,,,,,,,,,,,,,,,,,,,,,,,,,,425.5099707239715,10.0,"('k',)",425.5104898988793,425.51050589670194,425.5238752543519,425.5238752543519,425.5238752543519,425.5238752543519,425.5238752543519,425.5238752543519,425.5238752543519,425.5238752543519,427.3242609529989,['k'],[1.7242236448510084],[None],,,,,,,,,,,,,,,,,,,,,3010,2023-11-07_13h15.49.394,eb_03,2023.2.3,59.99751893702394,2023-11-07 13h16.05.162454 -0500,
,,,,0,0,0,0,128,0,128,0,427.34044985298533,,,,,,,,,,,,,,,,,,,,,,,,,,,,,,,,,,,,,,,,,,,,,,,,,,,,,,,,,,,,,,,,,,,,,,,,,,,,,,,,,,,,,,,,,,,,,,,,,,,,,,,,,,427.3264810294495,9.0,"('h', 'k')",427.32699265819974,427.3270053357119,427.34044985298533,427.34044985298533,427.34044985298533,427.34044985298533,427.34044985298533,427.34044985298533,427.34044985298533,427.34044985298533,428.6576630065683,"['h', 'k']","[1.2596879698394332, 1.2836964891466778]","[None, None]",,,,,,,,,,,,,,,,,,,,,3010,2023-11-07_13h15.49.394,eb_03,2023.2.3,59.99751893702394,2023-11-07 13h16.05.162454 -0500,
,,,,0,0,0,0,129,0,129,0,428.67364785875543,,,,,,,,,,,,,,,,,,,,,,,,,,,,,,,,,,,,,,,,,,,,,,,,,,,,,,,,,,,,,,,,,,,,,,,,,,,,,,,,,,,,,,,,,,,,,,,,,,,,,,,,,,428.6598936476221,10.0,"('k',)",428.6604149354389,428.66043002775405,428.67364785875543,428.67364785875543,428.67364785875543,428.67364785875543,428.67364785875543,428.67364785875543,428.67364785875543,428.67364785875543,429.40744605485816,['k'],[0.6624415286642034],[None],,,,,,,,,,,,,,,,,,,,,3010,2023-11-07_13h15.49.394,eb_03,2023.2.3,59.99751893702394,2023-11-07 13h16.05.162454 -0500,
,,,,0,0,0,0,130,0,130,0,429.4235923945671,,,,,,,,,,,,,,,,,,,,,,,,,,,,,,,,,,,,,,,,,,,,,,,,,,,,,,,,,,,,,,,,,,,,,,,,,,,,,,,,,,,,,,,,,,,,,,,,,,,,,,,,,,429.4096954103443,12.0,"('l',)",429.4101282573247,429.4101415385376,429.4235923945671,429.4235923945671,429.4235923945671,429.4235923945671,429.4235923945671,429.4235923945671,429.4235923945671,429.4235923945671,430.0740427938872,['l'],[0.5765524914604612],[None],,,,,,,,,,,,,,,,,,,,,3010,2023-11-07_13h15.49.394,eb_03,2023.2.3,59.99751893702394,2023-11-07 13h16.05.162454 -0500,
,,,,0,0,0,0,131,0,131,0,430.0902235440444,,,,,,,,,,,,,,,,,,,,,,,,,,,,,,,,,,,,,,,,,,,,,,,,,,,,,,,,,,,,,,,,,,,,,,,,,,,,,,,,,,,,,,,,,,,,,,,,,,,,,,,,,,430.07626105926465,10.0,"('k',)",430.0767729898507,430.0767859692278,430.0902235440444,430.0902235440444,430.0902235440444,430.0902235440444,430.0902235440444,430.0902235440444,430.0902235440444,430.0902235440444,431.0573624888202,['k'],[0.89392803813098],[None],,,,,,,,,,,,,,,,,,,,,3010,2023-11-07_13h15.49.394,eb_03,2023.2.3,59.99751893702394,2023-11-07 13h16.05.162454 -0500,
,,,,0,0,0,0,132,0,132,0,431.07349735838943,,,,,,,,,,,,,,,,,,,,,,,,,,,,,,,,,,,,,,,,,,,,,,,,,,,,,,,,,,,,,,,,,,,,,,,,,,,,,,,,,,,,,,,,,,,,,,,,,,,,,,,,,,431.05958075416856,11.0,"('j', 'l')",431.06018354039406,431.06019893454504,431.07349735838943,431.07349735838943,431.07349735838943,431.07349735838943,431.07349735838943,431.07349735838943,431.07349735838943,431.07349735838943,432.9578260939161,"['j', 'j', 'l']","[1.0226318002678454, 1.8466798010049388, 1.8786685216182377]","[None, None, None]",,,,,,,,,,,,,,,,,,,,,3010,2023-11-07_13h15.49.394,eb_03,2023.2.3,59.99751893702394,2023-11-07 13h16.05.162454 -0500,
,,,,0,0,0,0,133,0,133,0,433.0066879991209,,,,,,,,,,,,,,,,,,,,,,,,,,,,,,,,,,,,,,,,,,,,,,,,,,,,,,,,,,,,,,,,,,,,,,,,,,,,,,,,,,,,,,,,,,,,,,,,,,,,,,,,,,432.96002685220446,2.0,"('j', 'k')",432.96056685448275,432.9605922095361,433.0066879991209,433.0066879991209,433.0066879991209,433.0066879991209,433.0066879991209,433.0066879991209,433.0066879991209,433.0066879991209,434.60708057985175,"['j', 'k']","[1.529503170721, 1.5304992621240672]","[None, None]",,,,,,,,,,,,,,,,,,,,,3010,2023-11-07_13h15.49.394,eb_03,2023.2.3,59.99751893702394,2023-11-07 13h16.05.162454 -0500,
,,,,0,0,0,0,134,0,134,0,434.6232447284856,,,,,,,,,,,,,,,,,,,,,,,,,,,,,,,,,,,,,,,,,,,,,,,,,,,,,,,,,,,,,,,,,,,,,,,,,,,,,,,,,,,,,,,,,,,,,,,,,,,,,,,,,,434.60933959440445,1.0,"('space',)",434.609874767164,434.60988985945005,434.6232447284856,434.6232447284856,434.6232447284856,434.6232447284856,434.6232447284856,434.6232447284856,434.6232447284856,434.6232447284856,435.6902901312278,['space'],[0.9929491821385454],[None],,,,,,,,,,,,,,,,,,,,,3010,2023-11-07_13h15.49.394,eb_03,2023.2.3,59.99751893702394,2023-11-07 13h16.05.162454 -0500,
,,,,0,0,0,0,135,0,135,0,435.70647872937843,,,,,,,,,,,,,,,,,,,,,,,,,,,,,,,,,,,,,,,,,,,,,,,,,,,,,,,,,,,,,,,,,,,,,,,,,,,,,,,,,,,,,,,,,,,,,,,,,,,,,,,,,,435.6925292239466,4.0,"('j',)",435.693025458575,435.69303843795205,435.70647872937843,435.70647872937843,435.70647872937843,435.70647872937843,435.70647872937843,435.70647872937843,435.70647872937843,435.70647872937843,436.92347482559853,['j'],[1.1497049909376074],[None],,,,,,,,,,,,,,,,,,,,,3010,2023-11-07_13h15.49.394,eb_03,2023.2.3,59.99751893702394,2023-11-07 13h16.05.162454 -0500,
,,,,0,0,0,0,136,0,136,0,436.93972167998436,,,,,,,,,,,,,,,,,,,,,,,,,,,,,,,,,,,,,,,,,,,,,,,,,,,,,,,,,,,,,,,,,,,,,,,,,,,,,,,,,,,,,,,,,,,,,,,,,,,,,,,,,,436.9256991278671,5.0,"('k', 'space')",436.92620170125156,436.9262146806286,436.93972167998436,436.93972167998436,436.93972167998436,436.93972167998436,436.93972167998436,436.93972167998436,436.93972167998436,436.93972167998436,438.3568883794942,"['space', 'k']","[1.3635446848056745, 1.3795331591391005]","[None, None]",,,,,,,,,,,,,,,,,,,,,3010,2023-11-07_13h15.49.394,eb_03,2023.2.3,59.99751893702394,2023-11-07 13h16.05.162454 -0500,
,,,,0,0,0,0,137,0,137,0,438.37297012418276,,,,,,,,,,,,,,,,,,,,,,,,,,,,,,,,,,,,,,,,,,,,,,,,,,,,,,,,,,,,,,,,,,,,,,,,,,,,,,,,,,,,,,,,,,,,,,,,,,,,,,,,,,438.35910573933506,6.0,"('h', 'l')",438.35972391968244,438.35973871013266,438.37297012418276,438.37297012418276,438.37297012418276,438.37297012418276,438.37297012418276,438.37297012418276,438.37297012418276,438.37297012418276,441.0405720100098,"['space', 'l', 'h', 'l']","[1.4342774368124083, 1.466285475587938, 2.5862598548992537, 2.6582763574260753]","[None, None, None, None]",,,,,,,,,,,,,,,,,,,,,3010,2023-11-07_13h15.49.394,eb_03,2023.2.3,59.99751893702394,2023-11-07 13h16.05.162454 -0500,
,,,,0,0,0,0,138,0,138,0,441.0893832051079,,,,,,,,,,,,,,,,,,,,,,,,,,,,,,,,,,,,,,,,,,,,,,,,,,,,,,,,,,,,,,,,,,,,,,,,,,,,,,,,,,,,,,,,,,,,,,,,,,,,,,,,,,441.04279721781495,9.0,"('h', 'k')",441.0433824969805,441.0433972874307,441.0893832051079,441.0893832051079,441.0893832051079,441.0893832051079,441.0893832051079,441.0893832051079,441.0893832051079,441.0893832051079,442.08997814334,"['k', 'h']","[0.941869011556264, 0.9578608061710838]","[None, None]",,,,,,,,,,,,,,,,,,,,,3010,2023-11-07_13h15.49.394,eb_03,2023.2.3,59.99751893702394,2023-11-07 13h16.05.162454 -0500,
,,,,0,0,0,0,139,0,139,0,442.10600314100157,,,,,,,,,,,,,,,,,,,,,,,,,,,,,,,,,,,,,,,,,,,,,,,,,,,,,,,,,,,,,,,,,,,,,,,,,,,,,,,,,,,,,,,,,,,,,,,,,,,,,,,,,,442.0922305172717,10.0,"('k',)",442.0927394294413,442.09275452172733,442.10600314100157,442.10600314100157,442.10600314100157,442.10600314100157,442.10600314100157,442.10600314100157,442.10600314100157,442.10600314100157,443.28979256848106,['k'],[1.109262472775299],[None],,,,,,,,,,,,,,,,,,,,,3010,2023-11-07_13h15.49.394,eb_03,2023.2.3,59.99751893702394,2023-11-07 13h16.05.162454 -0500,
,,,,0,0,0,0,140,0,140,0,443.3059123457642,,,,,,,,,,,,,,,,,,,,,,,,,,,,,,,,,,,,,,,,,,,,,,,,,,,,,,,,,,,,,,,,,,,,,,,,,,,,,,,,,,,,,,,,,,,,,,,,,,,,,,,,,,443.29201898368774,11.0,"('j', 'l')",443.2926269012969,443.2926425972837,443.3059123457642,443.3059123457642,443.3059123457642,443.3059123457642,443.3059123457642,443.3059123457642,443.3059123457642,443.3059123457642,444.8730505661224,"['j', 'l']","[1.4533522852289025, 1.4543408304743934]","[None, None]",,,,,,,,,,,,,,,,,,,,,3010,2023-11-07_13h15.49.394,eb_03,2023.2.3,59.99751893702394,2023-11-07 13h16.05.162454 -0500,
,,,,0,0,0,0,141,0,141,0,444.889145290188,,,,,,,,,,,,,,,,,,,,,,,,,,,,,,,,,,,,,,,,,,,,,,,,,,,,,,,,,,,,,,,,,,,,,,,,,,,,,,,,,,,,,,,,,,,,,,,,,,,,,,,,,,444.87530807143776,12.0,"('l',)",444.87581336143194,444.8758287555829,444.889145290188,444.889145290188,444.889145290188,444.889145290188,444.889145290188,444.889145290188,444.889145290188,444.889145290188,445.67296266861376,['l'],[0.7101416290970519],[None],,,,,,,,,,,,,,,,,,,,,3010,2023-11-07_13h15.49.394,eb_03,2023.2.3,59.99751893702394,2023-11-07 13h16.05.162454 -0500,
,,,,0,0,0,0,142,0,142,0,445.68909723631805,,,,,,,,,,,,,,,,,,,,,,,,,,,,,,,,,,,,,,,,,,,,,,,,,,,,,,,,,,,,,,,,,,,,,,,,,,,,,,,,,,,,,,,,,,,,,,,,,,,,,,,,,,445.6752503585012,14.0,"('h', 'space')",445.6756726409076,445.6756883368944,445.68909723631805,445.68909723631805,445.68909723631805,445.68909723631805,445.68909723631805,445.68909723631805,445.68909723631805,445.68909723631805,447.00615614667186,"['h', 'space']","[1.2461915351159405, 1.2621957054070663]","[None, None]",,,,,,,,,,,,,,,,,,,,,3010,2023-11-07_13h15.49.394,eb_03,2023.2.3,59.99751893702394,2023-11-07 13h16.05.162454 -0500,
,,,,0,0,0,0,143,0,143,0,447.0223507817427,,,,,,,,,,,,,,,,,,,,,,,,,,,,,,,,,,,,,,,,,,,,,,,,,,,,,,,,,,,,,,,,,,,,,,,,,,,,,,,,,,,,,,,,,,,,,,,,,,,,,,,,,,447.0084202926082,11.0,"('j', 'l')",447.00896784104407,447.0089829333301,447.0223507817427,447.0223507817427,447.0223507817427,447.0223507817427,447.0223507817427,447.0223507817427,447.0223507817427,447.0223507817427,449.68940391173237,"['l', 'j']","[2.552929731202312, 2.5689553325646557]","[None, None]",,,,,,,,,,,,,,,,,,,,,3010,2023-11-07_13h15.49.394,eb_03,2023.2.3,59.99751893702394,2023-11-07 13h16.05.162454 -0500,
,,,,0,0,0,0,144,0,144,0,449.7054270983208,,,,,,,,,,,,,,,,,,,,,,,,,,,,,,,,,,,,,,,,,,,,,,,,,,,,,,,,,,,,,,,,,,,,,,,,,,,,,,,,,,,,,,,,,,,,,,,,,,,,,,,,,,449.69164270261535,10.0,"('k',)",449.6921507092193,449.69216610337025,449.7054270983208,449.7054270983208,449.7054270983208,449.7054270983208,449.7054270983208,449.7054270983208,449.7054270983208,449.7054270983208,450.55590291306726,['k'],[0.7818961293960456],[None],,,,,,,,,,,,,,,,,,,,,3010,2023-11-07_13h15.49.394,eb_03,2023.2.3,59.99751893702394,2023-11-07 13h16.05.162454 -0500,
,,,,0,0,0,0,145,0,145,0,450.5720604210801,,,,,,,,,,,,,,,,,,,,,,,,,,,,,,,,,,,,,,,,,,,,,,,,,,,,,,,,,,,,,,,,,,,,,,,,,,,,,,,,,,,,,,,,,,,,,,,,,,,,,,,,,,450.5581091046042,9.0,"('h', 'k')",450.55894038814586,450.5589530656871,450.5720604210801,450.5720604210801,450.5720604210801,450.5720604210801,450.5720604210801,450.5720604210801,450.5720604210801,450.5720604210801,451.93921699369093,"['h', 'k']","[1.2992687179939821, 1.363266986591043]","[None, None]",,,,,,,,,,,,,,,,,,,,,3010,2023-11-07_13h15.49.394,eb_03,2023.2.3,59.99751893702394,2023-11-07 13h16.05.162454 -0500,
,,,,0,0,0,0,146,0,146,0,451.98861316608964,,,,,,,,,,,,,,,,,,,,,,,,,,,,,,,,,,,,,,,,,,,,,,,,,,,,,,,,,,,,,,,,,,,,,,,,,,,,,,,,,,,,,,,,,,,,,,,,,,,,,,,,,,451.9414669528487,10.0,"('k',)",451.9419900517678,451.9420024274441,451.98861316608964,451.98861316608964,451.98861316608964,451.98861316608964,451.98861316608964,451.98861316608964,451.98861316608964,451.98861316608964,452.7391852394794,['k'],[0.6507404732110444],[None],,,,,,,,,,,,,,,,,,,,,3010,2023-11-07_13h15.49.394,eb_03,2023.2.3,59.99751893702394,2023-11-07 13h16.05.162454 -0500,
,,,,0,0,0,0,147,0,147,0,452.75525672142976,,,,,,,,,,,,,,,,,,,,,,,,,,,,,,,,,,,,,,,,,,,,,,,,,,,,,,,,,,,,,,,,,,,,,,,,,,,,,,,,,,,,,,,,,,,,,,,,,,,,,,,,,,452.7414321802207,10.0,"('k',)",452.74192358530127,452.7419398849888,452.75525672142976,452.75525672142976,452.75525672142976,452.75525672142976,452.75525672142976,452.75525672142976,452.75525672142976,452.75525672142976,453.45580116083147,['k'],[0.6281071637349669],[None],,,,,,,,,,,,,,,,,,,,,3010,2023-11-07_13h15.49.394,eb_03,2023.2.3,59.99751893702394,2023-11-07 13h16.05.162454 -0500,
,,,,0,0,0,0,148,0,148,0,453.4718693224713,,,,,,,,,,,,,,,,,,,,,,,,,,,,,,,,,,,,,,,,,,,,,,,,,,,,,,,,,,,,,,,,,,,,,,,,,,,,,,,,,,,,,,,,,,,,,,,,,,,,,,,,,,453.45801097451476,9.0,"('h', 'k')",453.45855641001253,453.4585715022986,453.4718693224713,453.4718693224713,453.4718693224713,453.4718693224713,453.4718693224713,453.4718693224713,453.4718693224713,453.4718693224713,454.4056416201929,"['h', 'k']","[0.8544547471392434, 0.8554770991322584]","[None, None]",,,,,,,,,,,,,,,,,,,,,3010,2023-11-07_13h15.49.394,eb_03,2023.2.3,59.99751893702394,2023-11-07 13h16.05.162454 -0500,
,,,,0,0,0,0,149,0,149,0,454.42177920637187,,,,,,,,,,,,,,,,,,,,,,,,,,,,,,,,,,,,,,,,,,,,,,,,,,,,,,,,,,,,,,,,,,,,,,,,,,,,,,,,,,,,,,,,,,,,,,,,,,,,,,,,,,454.4078393600357,8.0,"('j', 'space')",454.40837634383934,454.4083890213806,454.42177920637187,454.42177920637187,454.42177920637187,454.42177920637187,454.42177920637187,454.42177920637187,454.42177920637187,454.42177920637187,457.28941888330155,"['h', 'space', 'j', 'space']","[1.3285942524380516, 1.3845996421878226, 2.768586839112686, 2.8245831734966487]","[None, None, None, None]",,,,,,,,,,,,,,,,,,,,,3010,2023-11-07_13h15.49.394,eb_03,2023.2.3,59.99751893702394,2023-11-07 13h16.05.162454 -0500,
,,,,0,0,0,0,150,0,150,0,457.30491836729925,,,,,,,,,,,,,,,,,,,,,,,,,,,,,,,,,,,,,,,,,,,,,,,,,,,,,,,,,,,,,,,,,,,,,,,,,,,,,,,,,,,,,,,,,,,,,,,,,,,,,,,,,,457.291625980346,9.0,"('h', 'k')",457.29213549618726,457.2921505885024,457.30491836729925,457.30491836729925,457.30491836729925,457.30491836729925,457.30491836729925,457.30491836729925,457.30491836729925,457.30491836729925,459.7387659755768,"['h', 'k']","[2.293458184838528, 2.317450102622388]","[None, None]",,,,,,,,,,,,,,,,,,,,,3010,2023-11-07_13h15.49.394,eb_03,2023.2.3,59.99751893702394,2023-11-07 13h16.05.162454 -0500,
,,,,0,0,0,0,151,0,151,0,459.75472517084563,,,,,,,,,,,,,,,,,,,,,,,,,,,,,,,,,,,,,,,,,,,,,,,,,,,,,,,,,,,,,,,,,,,,,,,,,,,,,,,,,,,,,,,,,,,,,,,,,,,,,,,,,,459.74105004331795,10.0,"('k',)",459.7415480890195,459.7415616720973,459.75472517084563,459.75472517084563,459.75472517084563,459.75472517084563,459.75472517084563,459.75472517084563,459.75472517084563,459.75472517084563,460.4885761899641,['k'],[0.6196630253107287],[None],,,,,,,,,,,,,,,,,,,,,3010,2023-11-07_13h15.49.394,eb_03,2023.2.3,59.99751893702394,2023-11-07 13h16.05.162454 -0500,
,,,,0,0,0,0,152,0,152,0,460.5046841952426,,,,,,,,,,,,,,,,,,,,,,,,,,,,,,,,,,,,,,,,,,,,,,,,,,,,,,,,,,,,,,,,,,,,,,,,,,,,,,,,,,,,,,,,,,,,,,,,,,,,,,,,,,460.490799888561,12.0,"('l',)",460.49131242284784,460.49132811883464,460.5046841952426,460.5046841952426,460.5046841952426,460.5046841952426,460.5046841952426,460.5046841952426,460.5046841952426,460.5046841952426,461.37186265166383,['l'],[0.7896955250180326],[None],,,,,,,,,,,,,,,,,,,,,3010,2023-11-07_13h15.49.394,eb_03,2023.2.3,59.99751893702394,2023-11-07 13h16.05.162454 -0500,
,,,,0,0,0,0,153,0,153,0,461.38792507821927,,,,,,,,,,,,,,,,,,,,,,,,,,,,,,,,,,,,,,,,,,,,,,,,,,,,,,,,,,,,,,,,,,,,,,,,,,,,,,,,,,,,,,,,,,,,,,,,,,,,,,,,,,461.3741104979126,14.0,"('h', 'space')",461.3748805067735,461.37489590089535,461.38792507821927,461.38792507821927,461.38792507821927,461.38792507821927,461.38792507821927,461.38792507821927,461.38792507821927,461.38792507821927,463.28842128266115,"['h', 'space']","[1.842500141094206, 1.8585031040129252]","[None, None]",,,,,,,,,,,,,,,,,,,,,3010,2023-11-07_13h15.49.394,eb_03,2023.2.3,59.99751893702394,2023-11-07 13h16.05.162454 -0500,
,,,,0,0,0,0,154,0,154,0,463.30448914243607,,,,,,,,,,,,,,,,,,,,,,,,,,,,,,,,,,,,,,,,,,,,,,,,,,,,,,,,,,,,,,,,,,,,,,,,,,,,,,,,,,,,,,,,,,,,,,,,,,,,,,,,,,463.29070625596796,0.0,"('k', 'l')",463.2912269401131,463.29124203239917,463.30448914243607,463.30448914243607,463.30448914243607,463.30448914243607,463.30448914243607,463.30448914243607,463.30448914243607,463.30448914243607,464.57210117028444,"['k', 'l']","[1.0859379362664185, 1.1899419520341326]","[None, None]",,,,,,,,,,,,,,,,,,,,,3010,2023-11-07_13h15.49.394,eb_03,2023.2.3,59.99751893702394,2023-11-07 13h16.05.162454 -0500,
,,,,0,0,0,0,155,0,155,0,464.5877144501719,,,,,,,,,,,,,,,,,,,,,,,,,,,,,,,,,,,,,,,,,,,,,,,,,,,,,,,,,,,,,,,,,,,,,,,,,,,,,,,,,,,,,,,,,,,,,,,,,,,,,,,,,,464.5743064562557,1.0,"('space',)",464.5748374031682,464.57485249545425,464.5877144501719,464.5877144501719,464.5877144501719,464.5877144501719,464.5877144501719,464.5877144501719,464.5877144501719,464.5877144501719,467.5713471592753,['space'],[2.914753592631314],[None],,,,,,,,,,,,,,,,,,,,,3010,2023-11-07_13h15.49.394,eb_03,2023.2.3,59.99751893702394,2023-11-07 13h16.05.162454 -0500,
,,,,0,0,0,0,156,0,156,0,467.58753907770733,,,,,,,,,,,,,,,,,,,,,,,,,,,,,,,,,,,,,,,,,,,,,,,,,,,,,,,,,,,,,,,,,,,,,,,,,,,,,,,,,,,,,,,,,,,,,,,,,,,,,,,,,,467.5735980239988,2.0,"('j', 'k')",467.57419688621303,467.5742213357298,467.58753907770733,467.58753907770733,467.58753907770733,467.58753907770733,467.58753907770733,467.58753907770733,467.58753907770733,467.58753907770733,470.5545681506046,"['j', 'k']","[2.905923393322155, 2.9219453725381754]","[None, None]",,,,,,,,,,,,,,,,,,,,,3010,2023-11-07_13h15.49.394,eb_03,2023.2.3,59.99751893702394,2023-11-07 13h16.05.162454 -0500,
,,,,0,0,0,0,157,0,157,0,470.57060733504477,,,,,,,,,,,,,,,,,,,,,,,,,,,,,,,,,,,,,,,,,,,,,,,,,,,,,,,,,,,,,,,,,,,,,,,,,,,,,,,,,,,,,,,,,,,,,,,,,,,,,,,,,,470.55679547134787,1.0,"('space',)",470.55730770379887,470.557320381311,470.57060733504477,470.57060733504477,470.57060733504477,470.57060733504477,470.57060733504477,470.57060733504477,470.57060733504477,470.57060733504477,471.5543475012819,['space'],[0.9068551915697753],[None],,,,,,,,,,,,,,,,,,,,,3010,2023-11-07_13h15.49.394,eb_03,2023.2.3,59.99751893702394,2023-11-07 13h16.05.162454 -0500,
,,,,0,0,0,0,158,0,158,0,471.57053006248316,,,,,,,,,,,,,,,,,,,,,,,,,,,,,,,,,,,,,,,,,,,,,,,,,,,,,,,,,,,,,,,,,,,,,,,,,,,,,,,,,,,,,,,,,,,,,,,,,,,,,,,,,,471.55658387739095,0.0,"('k', 'l')",471.5570565680391,471.557069849252,471.57053006248316,471.57053006248316,471.57053006248316,471.57053006248316,471.57053006248316,471.57053006248316,471.57053006248316,471.57053006248316,472.6710048962268,"['k', 'l']","[1.0029626172909047, 1.0350050664856099]","[None, None]",,,,,,,,,,,,,,,,,,,,,3010,2023-11-07_13h15.49.394,eb_03,2023.2.3,59.99751893702394,2023-11-07 13h16.05.162454 -0500,
,,,,0,0,0,0,159,0,159,0,472.6871373510512,,,,,,,,,,,,,,,,,,,,,,,,,,,,,,,,,,,,,,,,,,,,,,,,,,,,,,,,,,,,,,,,,,,,,,,,,,,,,,,,,,,,,,,,,,,,,,,,,,,,,,,,,,472.6732418760366,1.0,"('space',)",472.6738217219827,472.6738368142687,472.6871373510512,472.6871373510512,472.6871373510512,472.6871373510512,472.6871373510512,472.6871373510512,472.6871373510512,472.6871373510512,473.27097338353633,['space'],[0.48636094309040345],[None],,,,,,,,,,,,,,,,,,,,,3010,2023-11-07_13h15.49.394,eb_03,2023.2.3,59.99751893702394,2023-11-07 13h16.05.162454 -0500,
,,,,0,0,0,0,160,0,160,0,473.28708501096116,,,,,,,,,,,,,,,,,,,,,,,,,,,,,,,,,,,,,,,,,,,,,,,,,,,,,,,,,,,,,,,,,,,,,,,,,,,,,,,,,,,,,,,,,,,,,,,,,,,,,,,,,,473.273243264528,0.0,"('k', 'l')",473.2737301419256,473.27374613977736,473.28708501096116,473.28708501096116,473.28708501096116,473.28708501096116,473.28708501096116,473.28708501096116,473.28708501096116,473.28708501096116,474.4708499889239,"['k', 'l']","[1.0704010233748704, 1.0864317561208736]","[None, None]",,,,,,,,,,,,,,,,,,,,,3010,2023-11-07_13h15.49.394,eb_03,2023.2.3,59.99751893702394,2023-11-07 13h16.05.162454 -0500,
,,,,0,0,0,0,161,0,161,0,474.48698425482144,,,,,,,,,,,,,,,,,,,,,,,,,,,,,,,,,,,,,,,,,,,,,,,,,,,,,,,,,,,,,,,,,,,,,,,,,,,,,,,,,,,,,,,,,,,,,,,,,,,,,,,,,,474.4730736875208,9.0,"('h', 'k')",474.4735937679652,474.4736067473423,474.48698425482144,474.48698425482144,474.48698425482144,474.48698425482144,474.48698425482144,474.48698425482144,474.48698425482144,474.48698425482144,477.08734091589577,"['h', 'k']","[2.5265698324947152, 2.5275475113012362]","[None, None]",,,,,,,,,,,,,,,,,,,,,3010,2023-11-07_13h15.49.394,eb_03,2023.2.3,59.99751893702394,2023-11-07 13h16.05.162454 -0500,
