trials.thisRepN,trials.thisTrialN,trials.thisN,trials.thisIndex,image_loop.thisRepN,image_loop.thisTrialN,image_loop.thisN,image_loop.thisIndex,break_loop.thisRepN,break_loop.thisTrialN,break_loop.thisN,break_loop.thisIndex,test_trials.thisRepN,test_trials.thisTrialN,test_trials.thisN,test_trials.thisIndex,distance matrix,tools,welcome_text.started,instructions_0_keypress.started,instructions_0_keypress.keys,instructions_0_keypress.rt,consent_image_0.started,consent0_key_resp.started,consent0_text.started,consent0_key_resp.keys,consent0_key_resp.rt,consent_image_1.started,consent1_key_resp.started,consent1_text.started,consent1_key_resp.keys,consent1_key_resp.rt,consent2_text.started,consent_image_2.started,consent2_key_resp.started,consent2_key_resp.keys,consent2_key_resp.rt,agree_button.started,disagree_button.started,consent_image_3.started,agree_button.numClicks,agree_button.timesOn,agree_button.timesOff,disagree_button.numClicks,disagree_button.timesOn,disagree_button.timesOff,instructions_text1.started,instructions1_key_resp.started,instr1_cnt_text.started,instructions1_key_resp.keys,instructions1_key_resp.rt,instructions_text2.started,instr2_cnt_text.started,instructions2_key_resp.started,instructions2_key_resp.keys,instructions2_key_resp.rt,instructions_text3.started,instructions3_key_resp.started,instr3_cnt_text.started,instructions3_key_resp.keys,instructions3_key_resp.rt,text_countdown.started,image.started,small_large_keyresp.started,task_question_text.started,smalleroption_text.started,largeroption_text.started,accuracy_score_text.started,small_large_keyresp.keys,small_large_keyresp.corr,small_large_keyresp.rt,fb_2.started,fb_2.stopped,break_text.started,break_key_resp.started,break_key_resp.keys,break_key_resp.rt,reveal_seq_text.started,start_test_text.started,continue_to_test.started,continue_to_test.keys,continue_to_test.rt,test_structure_info.started,start_test_text_2.started,continue_to_test_2.started,continue_to_test_2.keys,continue_to_test_2.rt,test_cntdown_text.started,parent index,left child index,right child index,left distance,right distance,parent_image.started,top_image_text.started,left_child_image.started,right_child_image.started,path_resp.started,child_choice_text.started,left_choice_text.started,right_choice_text.started,path_resp.keys,path_resp.rt,graph.started,debrief_text.started,debriefing_title.started,demo_scr_adv.started,demo_scr_adv_keypress.started,demo_scr_adv_keypress.keys,demo_scr_adv_keypress.rt,text_countdown_2.started,participant,date,expName,psychopyVersion,frameRate,
,,,,,,,,,,,,,,,,"[[0. 1. 1. 2. 2. 3. 4. 5. 5. 6. 6. 7.]
 [1. 0. 2. 1. 1. 2. 3. 4. 4. 5. 5. 6.]
 [1. 2. 0. 1. 1. 2. 3. 4. 4. 5. 5. 6.]
 [2. 1. 1. 0. 1. 1. 2. 3. 3. 4. 4. 5.]
 [2. 1. 1. 1. 0. 1. 2. 3. 3. 4. 4. 5.]
 [3. 2. 2. 1. 1. 0. 1. 2. 2. 3. 3. 4.]
 [4. 3. 3. 2. 2. 1. 0. 1. 1. 2. 2. 3.]
 [5. 4. 4. 3. 3. 2. 1. 0. 1. 1. 1. 2.]
 [5. 4. 4. 3. 3. 2. 1. 1. 0. 1. 1. 2.]
 [6. 5. 5. 4. 4. 3. 2. 1. 1. 0. 2. 1.]
 [6. 5. 5. 4. 4. 3. 2. 1. 1. 2. 0. 1.]
 [7. 6. 6. 5. 5. 4. 3. 2. 2. 1. 1. 0.]]",[11  3  5  7  8  4  6  0 10  1  9  2],9.040709416614845,9.040709416614845,return,12.261510487180203,,,,,,,,,,,,,,,,,,,,,,,,,,,,,,,,,,,,,,,,,,,,,,,,,,,,,,,,,,,,,,,,,,,,,,,,,,,,,,,,,,,,,,,,,,009551,2010-12-29_13h01.32.896,eb_02psyexp,2022.2.4,119.96809701393055,
,,,,,,,,,,,,,,,,,,,,,,21.31633130775299,21.31633130775299,21.31633130775299,space,36.47255881037563,,,,,,,,,,,,,,,,,,,,,,,,,,,,,,,,,,,,,,,,,,,,,,,,,,,,,,,,,,,,,,,,,,,,,,,,,,,,,,,,,,,,,009551,2010-12-29_13h01.32.896,eb_02psyexp,2022.2.4,119.96809701393055,
,,,,,,,,,,,,,,,,,,,,,,,,,,,57.80267069605179,57.80267069605179,57.80267069605179,space,1.8101834248518571,,,,,,,,,,,,,,,,,,,,,,,,,,,,,,,,,,,,,,,,,,,,,,,,,,,,,,,,,,,,,,,,,,,,,,,,,,,,,,,,009551,2010-12-29_13h01.32.896,eb_02psyexp,2022.2.4,119.96809701393055,
,,,,,,,,,,,,,,,,,,,,,,,,,,,,,,,,59.627870768890716,59.627870768890716,59.627870768890716,space,13.00820969720371,,,,,,,,,,,,,,,,,,,,,,,,,,,,,,,,,,,,,,,,,,,,,,,,,,,,,,,,,,,,,,,,,,,,,,,,,,,009551,2010-12-29_13h01.32.896,eb_02psyexp,2022.2.4,119.96809701393055,
,,,,,,,,,,,,,,,,,,,,,,,,,,,,,,,,,,,,,72.65389766544104,72.65389766544104,72.65389766544104,1,[6.7086427407339215],[6.708646966726519],0,,,79.35442218778189,81.34626986051444,81.34626986051444,space,1.1050179802114144,,,,,,,,,,,,,,,,,,,,,,,,,,,,,,,,,,,,,,,,,,,,,,,,,,,,,,,,,,,,,009551,2010-12-29_13h01.32.896,eb_02psyexp,2022.2.4,119.96809701393055,
,,,,,,,,,,,,,,,,,,,,,,,,,,,,,,,,,,,,,,,,,,,,,,,,,,,82.46301252755802,85.45495075487997,85.45495075487997,space,4.8364874185062945,,,,,,,,,,,,,,,,,,,,,,,,,,,,,,,,,,,,,,,,,,,,,,,,,,,,,,,,009551,2010-12-29_13h01.32.896,eb_02psyexp,2022.2.4,119.96809701393055,
,,,,,,,,,,,,,,,,,,,,,,,,,,,,,,,,,,,,,,,,,,,,,,,,,,,,,,,,90.30533918878064,93.29727228463162,93.29727228463162,space,11.409482713555917,,,,,,,,,,,,,,,,,,,,,,,,,,,,,,,,,,,,,,,,,,,,,,,,,,,009551,2010-12-29_13h01.32.896,eb_02psyexp,2022.2.4,119.96809701393055,
0,0,0,0,,,,,,,,,,,,,,,,,,,,,,,,,,,,,,,,,,,,,,,,,,,,,,,,,,,,,,,,,,104.73152346909046,109.78195180743933,109.78195180743933,109.78195180743933,109.78195180743933,109.78195180743933,109.78195180743933,s,1,15.356076940544881,125.14988956868183,126.17497711232863,,,,,,,,,,,,,,,,,,,,,,,,,,,,,,,,,,,,,,,009551,2010-12-29_13h01.32.896,eb_02psyexp,2022.2.4,119.96809701393055,
1,0,1,0,,,,,,,,,,,,,,,,,,,,,,,,,,,,,,,,,,,,,,,,,,,,,,,,,,,,,,,,,,,126.17497711232863,126.17497711232863,126.17497711232863,126.17497711232863,126.17497711232863,126.17497711232863,l,1,2.8581513952231035,129.04185251728632,130.07528496766463,,,,,,,,,,,,,,,,,,,,,,,,,,,,,,,,,,,,,,,009551,2010-12-29_13h01.32.896,eb_02psyexp,2022.2.4,119.96809701393055,
2,0,2,0,,,,,,,,,,,,,,,,,,,,,,,,,,,,,,,,,,,,,,,,,,,,,,,,,,,,,,,,,,,130.07528496766463,130.07528496766463,130.07528496766463,130.07528496766463,130.07528496766463,130.07528496766463,s,1,3.6218959961552173,133.70889931207057,134.72563530830666,,,,,,,,,,,,,,,,,,,,,,,,,,,,,,,,,,,,,,,009551,2010-12-29_13h01.32.896,eb_02psyexp,2022.2.4,119.96809701393055,
3,0,3,0,,,,,,,,,,,,,,,,,,,,,,,,,,,,,,,,,,,,,,,,,,,,,,,,,,,,,,,,,,,134.72563530830666,134.72563530830666,134.72563530830666,134.72563530830666,134.72563530830666,134.72563530830666,l,1,1.0676059576217085,135.80910158075858,136.84251048695296,,,,,,,,,,,,,,,,,,,,,,,,,,,,,,,,,,,,,,,009551,2010-12-29_13h01.32.896,eb_02psyexp,2022.2.4,119.96809701393055,
4,0,4,0,,,,,,,,,,,,,,,,,,,,,,,,,,,,,,,,,,,,,,,,,,,,,,,,,,,,,,,,,,,136.84251048695296,136.84251048695296,136.84251048695296,136.84251048695296,136.84251048695296,136.84251048695296,l,1,0.8067435581469908,137.65925185615197,138.6926583474269,,,,,,,,,,,,,,,,,,,,,,,,,,,,,,,,,,,,,,,009551,2010-12-29_13h01.32.896,eb_02psyexp,2022.2.4,119.96809701393055,
5,0,5,0,,,,,,,,,,,,,,,,,,,,,,,,,,,,,,,,,,,,,,,,,,,,,,,,,,,,,,,,,,,138.6926583474269,138.6926583474269,138.6926583474269,138.6926583474269,138.6926583474269,138.6926583474269,s,1,0.7326207074802369,139.4344262566883,140.4511070146691,,,,,,,,,,,,,,,,,,,,,,,,,,,,,,,,,,,,,,,009551,2010-12-29_13h01.32.896,eb_02psyexp,2022.2.4,119.96809701393055,
6,0,6,0,,,,,,,,,,,,,,,,,,,,,,,,,,,,,,,,,,,,,,,,,,,,,,,,,,,,,,,,,,,140.4511070146691,140.4511070146691,140.4511070146691,140.4511070146691,140.4511070146691,140.4511070146691,l,1,0.7342111478792503,141.20118240138981,142.23461424803827,,,,,,,,,,,,,,,,,,,,,,,,,,,,,,,,,,,,,,,009551,2010-12-29_13h01.32.896,eb_02psyexp,2022.2.4,119.96809701393055,
7,0,7,0,,,,,,,,,,,,,,,,,,,,,,,,,,,,,,,,,,,,,,,,,,,,,,,,,,,,,,,,,,,142.23461424803827,142.23461424803827,142.23461424803827,142.23461424803827,142.23461424803827,142.23461424803827,l,1,1.45373885135632,143.70141225901898,144.7348072802415,,,,,,,,,,,,,,,,,,,,,,,,,,,,,,,,,,,,,,,009551,2010-12-29_13h01.32.896,eb_02psyexp,2022.2.4,119.96809701393055,
8,0,8,0,,,,,,,,,,,,,,,,,,,,,,,,,,,,,,,,,,,,,,,,,,,,,,,,,,,,,,,,,,,144.7348072802415,144.7348072802415,144.7348072802415,144.7348072802415,144.7348072802415,144.7348072802415,s,1,0.9295793413184583,145.67658581444994,146.70167788583785,,,,,,,,,,,,,,,,,,,,,,,,,,,,,,,,,,,,,,,009551,2010-12-29_13h01.32.896,eb_02psyexp,2022.2.4,119.96809701393055,
9,0,9,0,,,,,,,,,,,,,,,,,,,,,,,,,,,,,,,,,,,,,,,,,,,,,,,,,,,,,,,,,,,146.70167788583785,146.70167788583785,146.70167788583785,146.70167788583785,146.70167788583785,146.70167788583785,l,1,0.5467375030275434,147.2600452953484,148.27677978237625,,,,,,,,,,,,,,,,,,,,,,,,,,,,,,,,,,,,,,,009551,2010-12-29_13h01.32.896,eb_02psyexp,2022.2.4,119.96809701393055,
10,0,10,0,,,,,,,,,,,,,,,,,,,,,,,,,,,,,,,,,,,,,,,,,,,,,,,,,,,,,,,,,,,148.27677978237625,148.27677978237625,148.27677978237625,148.27677978237625,148.27677978237625,148.27677978237625,l,1,0.6116609134478495,148.90184154815506,149.93525317090098,,,,,,,,,,,,,,,,,,,,,,,,,,,,,,,,,,,,,,,009551,2010-12-29_13h01.32.896,eb_02psyexp,2022.2.4,119.96809701393055,
11,0,11,0,,,,,,,,,,,,,,,,,,,,,,,,,,,,,,,,,,,,,,,,,,,,,,,,,,,,,,,,,,,149.93525317090098,149.93525317090098,149.93525317090098,149.93525317090098,149.93525317090098,149.93525317090098,l,1,0.8412445525173098,150.7853089676937,151.8187643585261,,,,,,,,,,,,,,,,,,,,,,,,,,,,,,,,,,,,,,,009551,2010-12-29_13h01.32.896,eb_02psyexp,2022.2.4,119.96809701393055,
12,0,12,0,,,,,,,,,,,,,,,,,,,,,,,,,,,,,,,,,,,,,,,,,,,,,,,,,,,,,,,,,,,151.8187643585261,151.8187643585261,151.8187643585261,151.8187643585261,151.8187643585261,151.8187643585261,s,1,0.6297416453016922,152.46049661946017,153.47719186614268,,,,,,,,,,,,,,,,,,,,,,,,,,,,,,,,,,,,,,,009551,2010-12-29_13h01.32.896,eb_02psyexp,2022.2.4,119.96809701393055,
13,0,13,0,,,,,,,,,,,,,,,,,,,,,,,,,,,,,,,,,,,,,,,,,,,,,,,,,,,,,,,,,,,153.47719186614268,153.47719186614268,153.47719186614268,153.47719186614268,153.47719186614268,153.47719186614268,l,1,0.5633210657397285,154.05227716092486,155.06897482241038,,,,,,,,,,,,,,,,,,,,,,,,,,,,,,,,,,,,,,,009551,2010-12-29_13h01.32.896,eb_02psyexp,2022.2.4,119.96809701393055,
14,0,14,0,,,,,,,,,,,,,,,,,,,,,,,,,,,,,,,,,,,,,,,,,,,,,,,,,,,,,,,,,,,155.06897482241038,155.06897482241038,155.06897482241038,155.06897482241038,155.06897482241038,155.06897482241038,s,1,1.4435997564578429,156.52748225955293,157.54418112849817,,,,,,,,,,,,,,,,,,,,,,,,,,,,,,,,,,,,,,,009551,2010-12-29_13h01.32.896,eb_02psyexp,2022.2.4,119.96809701393055,
15,0,15,0,,,,,,,,,,,,,,,,,,,,,,,,,,,,,,,,,,,,,,,,,,,,,,,,,,,,,,,,,,,157.54418112849817,157.54418112849817,157.54418112849817,157.54418112849817,157.54418112849817,157.54418112849817,l,1,0.535391919198446,158.09427939529996,159.12769977166317,,,,,,,,,,,,,,,,,,,,,,,,,,,,,,,,,,,,,,,009551,2010-12-29_13h01.32.896,eb_02psyexp,2022.2.4,119.96809701393055,
16,0,16,0,,,,,,,,,,,,,,,,,,,,,,,,,,,,,,,,,,,,,,,,,,,,,,,,,,,,,,,,,,,159.12769977166317,159.12769977166317,159.12769977166317,159.12769977166317,159.12769977166317,159.12769977166317,l,1,0.5679321051575243,159.71105330367573,160.72777994268108,,,,,,,,,,,,,,,,,,,,,,,,,,,,,,,,,,,,,,,009551,2010-12-29_13h01.32.896,eb_02psyexp,2022.2.4,119.96809701393055,
17,0,17,0,,,,,,,,,,,,,,,,,,,,,,,,,,,,,,,,,,,,,,,,,,,,,,,,,,,,,,,,,,,160.72777994268108,160.72777994268108,160.72777994268108,160.72777994268108,160.72777994268108,160.72777994268108,l,1,0.4958835581783205,161.23617933306377,162.26963230909314,,,,,,,,,,,,,,,,,,,,,,,,,,,,,,,,,,,,,,,009551,2010-12-29_13h01.32.896,eb_02psyexp,2022.2.4,119.96809701393055,
18,0,18,0,,,,,,,,,,,,,,,,,,,,,,,,,,,,,,,,,,,,,,,,,,,,,,,,,,,,,,,,,,,162.26963230909314,162.26963230909314,162.26963230909314,162.26963230909314,162.26963230909314,162.26963230909314,s,1,0.6180471245897934,162.90302419103682,163.9197091748938,,,,,,,,,,,,,,,,,,,,,,,,,,,,,,,,,,,,,,,009551,2010-12-29_13h01.32.896,eb_02psyexp,2022.2.4,119.96809701393055,
19,0,19,0,,,,,,,,,,,,,,,,,,,,,,,,,,,,,,,,,,,,,,,,,,,,,,,,,,,,,,,,,,,163.9197091748938,163.9197091748938,163.9197091748938,163.9197091748938,163.9197091748938,163.9197091748938,l,1,0.5039830619934946,164.43643294624053,165.46155791915953,,,,,,,,,,,,,,,,,,,,,,,,,,,,,,,,,,,,,,,009551,2010-12-29_13h01.32.896,eb_02psyexp,2022.2.4,119.96809701393055,
20,0,20,0,,,,,,,,,,,,,,,,,,,,,,,,,,,,,,,,,,,,,,,,,,,,,,,,,,,,,,,,,,,165.46155791915953,165.46155791915953,165.46155791915953,165.46155791915953,165.46155791915953,165.46155791915953,l,1,0.7461857841117308,166.21995104616508,167.2450111216167,,,,,,,,,,,,,,,,,,,,,,,,,,,,,,,,,,,,,,,009551,2010-12-29_13h01.32.896,eb_02psyexp,2022.2.4,119.96809701393055,
21,0,21,0,,,,,,,,,,,,,,,,,,,,,,,,,,,,,,,,,,,,,,,,,,,,,,,,,,,,,,,,,,,167.2450111216167,167.2450111216167,167.2450111216167,167.2450111216167,167.2450111216167,167.2450111216167,s,1,0.9787704021437094,168.23677970992867,169.26187721453607,,,,,,,,,,,,,,,,,,,,,,,,,,,,,,,,,,,,,,,009551,2010-12-29_13h01.32.896,eb_02psyexp,2022.2.4,119.96809701393055,
22,0,22,0,,,,,,,,,,,,,,,,,,,,,,,,,,,,,,,,,,,,,,,,,,,,,,,,,,,,,,,,,,,169.26187721453607,169.26187721453607,169.26187721453607,169.26187721453607,169.26187721453607,169.26187721453607,l,1,0.9379254553932697,170.21194179507438,171.24532836442813,,,,,,,,,,,,,,,,,,,,,,,,,,,,,,,,,,,,,,,009551,2010-12-29_13h01.32.896,eb_02psyexp,2022.2.4,119.96809701393055,
23,0,23,0,,,,,,,,,,,,,,,,,,,,,,,,,,,,,,,,,,,,,,,,,,,,,,,,,,,,,,,,,,,171.24532836442813,171.24532836442813,171.24532836442813,171.24532836442813,171.24532836442813,171.24532836442813,s,1,0.754517711349763,172.0120884331409,173.03719227656256,,,,,,,,,,,,,,,,,,,,,,,,,,,,,,,,,,,,,,,009551,2010-12-29_13h01.32.896,eb_02psyexp,2022.2.4,119.96809701393055,
24,0,24,0,,,,,,,,,,,,,,,,,,,,,,,,,,,,,,,,,,,,,,,,,,,,,,,,,,,,,,,,,,,173.03719227656256,173.03719227656256,173.03719227656256,173.03719227656256,173.03719227656256,173.03719227656256,l,1,0.5776745708426461,173.628878339543,174.65393660392147,,,,,,,,,,,,,,,,,,,,,,,,,,,,,,,,,,,,,,,009551,2010-12-29_13h01.32.896,eb_02psyexp,2022.2.4,119.96809701393055,
25,0,25,0,,,,,,,,,,,,,,,,,,,,,,,,,,,,,,,,,,,,,,,,,,,,,,,,,,,,,,,,,,,174.65393660392147,174.65393660392147,174.65393660392147,174.65393660392147,174.65393660392147,174.65393660392147,s,1,0.5449478426016867,175.21236106276046,176.23742294928525,,,,,,,,,,,,,,,,,,,,,,,,,,,,,,,,,,,,,,,009551,2010-12-29_13h01.32.896,eb_02psyexp,2022.2.4,119.96809701393055,
26,0,26,0,,,,,,,,,,,,,,,,,,,,,,,,,,,,,,,,,,,,,,,,,,,,,,,,,,,,,,,,,,,176.23742294928525,176.23742294928525,176.23742294928525,176.23742294928525,176.23742294928525,176.23742294928525,l,1,0.45749596098903567,176.7041186337592,177.72918565163855,,,,,,,,,,,,,,,,,,,,,,,,,,,,,,,,,,,,,,,009551,2010-12-29_13h01.32.896,eb_02psyexp,2022.2.4,119.96809701393055,
27,0,27,0,,,,,,,,,,,,,,,,,,,,,,,,,,,,,,,,,,,,,,,,,,,,,,,,,,,,,,,,,,,177.72918565163855,177.72918565163855,177.72918565163855,177.72918565163855,177.72918565163855,177.72918565163855,s,1,0.6217734457459301,178.36260198324453,179.38768077327404,,,,,,,,,,,,,,,,,,,,,,,,,,,,,,,,,,,,,,,009551,2010-12-29_13h01.32.896,eb_02psyexp,2022.2.4,119.96809701393055,
28,0,28,0,,,,,,,,,,,,,,,,,,,,,,,,,,,,,,,,,,,,,,,,,,,,,,,,,,,,,,,,,,,179.38768077327404,179.38768077327404,179.38768077327404,179.38768077327404,179.38768077327404,179.38768077327404,l,1,0.33929144113790244,179.7376998953987,180.762802833342,,,,,,,,,,,,,,,,,,,,,,,,,,,,,,,,,,,,,,,009551,2010-12-29_13h01.32.896,eb_02psyexp,2022.2.4,119.96809701393055,
29,0,29,0,,,,,,,,,,,,,,,,,,,,,,,,,,,,,,,,,,,,,,,,,,,,,,,,,,,,,,,,,,,180.762802833342,180.762802833342,180.762802833342,180.762802833342,180.762802833342,180.762802833342,s,1,0.3562242427142337,181.12949395983014,182.15460625500418,,,,,,,,,,,,,,,,,,,,,,,,,,,,,,,,,,,,,,,009551,2010-12-29_13h01.32.896,eb_02psyexp,2022.2.4,119.96809701393055,
30,0,30,0,,,,,,,,,,,,,,,,,,,,,,,,,,,,,,,,,,,,,,,,,,,,,,,,,,,,,,,,,,,182.15460625500418,182.15460625500418,182.15460625500418,182.15460625500418,182.15460625500418,182.15460625500418,l,1,0.6044280170463026,182.7713022865355,183.80471541860607,,,,,,,,,,,,,,,,,,,,,,,,,,,,,,,,,,,,,,,009551,2010-12-29_13h01.32.896,eb_02psyexp,2022.2.4,119.96809701393055,
31,0,31,0,,,,,,,,,,,,,,,,,,,,,,,,,,,,,,,,,,,,,,,,,,,,,,,,,,,,,,,,,,,183.80471541860607,183.80471541860607,183.80471541860607,183.80471541860607,183.80471541860607,183.80471541860607,s,1,0.514353976584971,184.32977504120208,185.3548483980121,,,,,,,,,,,,,,,,,,,,,,,,,,,,,,,,,,,,,,,009551,2010-12-29_13h01.32.896,eb_02psyexp,2022.2.4,119.96809701393055,
32,0,32,0,,,,,,,,,,,,,,,,,,,,,,,,,,,,,,,,,,,,,,,,,,,,,,,,,,,,,,,,,,,185.3548483980121,185.3548483980121,185.3548483980121,185.3548483980121,185.3548483980121,185.3548483980121,l,1,0.508246069890447,185.87154138088226,186.90497141645756,,,,,,,,,,,,,,,,,,,,,,,,,,,,,,,,,,,,,,,009551,2010-12-29_13h01.32.896,eb_02psyexp,2022.2.4,119.96809701393055,
33,0,33,0,,,,,,,,,,,,,,,,,,,,,,,,,,,,,,,,,,,,,,,,,,,,,,,,,,,,,,,,,,,186.90497141645756,186.90497141645756,186.90497141645756,186.90497141645756,186.90497141645756,186.90497141645756,s,1,0.509199307882227,187.43001443741377,188.44673141720705,,,,,,,,,,,,,,,,,,,,,,,,,,,,,,,,,,,,,,,009551,2010-12-29_13h01.32.896,eb_02psyexp,2022.2.4,119.96809701393055,
34,0,34,0,,,,,,,,,,,,,,,,,,,,,,,,,,,,,,,,,,,,,,,,,,,,,,,,,,,,,,,,,,,188.44673141720705,188.44673141720705,188.44673141720705,188.44673141720705,188.44673141720705,188.44673141720705,s,1,1.0394202399766073,189.49685247358866,190.5219668817008,,,,,,,,,,,,,,,,,,,,,,,,,,,,,,,,,,,,,,,009551,2010-12-29_13h01.32.896,eb_02psyexp,2022.2.4,119.96809701393055,
35,0,35,0,,,,,,,,,,,,,,,,,,,,,,,,,,,,,,,,,,,,,,,,,,,,,,,,,,,,,,,,,,,190.5219668817008,190.5219668817008,190.5219668817008,190.5219668817008,190.5219668817008,190.5219668817008,s,1,0.9722465481609106,191.50534287129994,192.52206890657544,,,,,,,,,,,,,,,,,,,,,,,,,,,,,,,,,,,,,,,009551,2010-12-29_13h01.32.896,eb_02psyexp,2022.2.4,119.96809701393055,
36,0,36,0,,,,,,,,,,,,,,,,,,,,,,,,,,,,,,,,,,,,,,,,,,,,,,,,,,,,,,,,,,,192.52206890657544,192.52206890657544,192.52206890657544,192.52206890657544,192.52206890657544,192.52206890657544,s,1,0.6841522722970694,193.22217657591682,194.2472614030121,,,,,,,,,,,,,,,,,,,,,,,,,,,,,,,,,,,,,,,009551,2010-12-29_13h01.32.896,eb_02psyexp,2022.2.4,119.96809701393055,
37,0,37,0,,,,,,,,,,,,,,,,,,,,,,,,,,,,,,,,,,,,,,,,,,,,,,,,,,,,,,,,,,,194.2472614030121,194.2472614030121,194.2472614030121,194.2472614030121,194.2472614030121,194.2472614030121,s,1,0.5829831825103611,194.8389426363865,195.85567742516287,,,,,,,,,,,,,,,,,,,,,,,,,,,,,,,,,,,,,,,009551,2010-12-29_13h01.32.896,eb_02psyexp,2022.2.4,119.96809701393055,
38,0,38,0,,,,,,,,,,,,,,,,,,,,,,,,,,,,,,,,,,,,,,,,,,,,,,,,,,,,,,,,,,,195.85567742516287,195.85567742516287,195.85567742516287,195.85567742516287,195.85567742516287,195.85567742516287,s,1,0.5185931384330615,196.38907471019775,197.4225373454392,,,,,,,,,,,,,,,,,,,,,,,,,,,,,,,,,,,,,,,009551,2010-12-29_13h01.32.896,eb_02psyexp,2022.2.4,119.96809701393055,
39,0,39,0,,,,,,,,,,,,,,,,,,,,,,,,,,,,,,,,,,,,,,,,,,,,,,,,,,,,,,,,,,,197.4225373454392,197.4225373454392,197.4225373454392,197.4225373454392,197.4225373454392,197.4225373454392,s,1,0.39175846485886723,197.82254863460548,198.8476153506199,,,,,,,,,,,,,,,,,,,,,,,,,,,,,,,,,,,,,,,009551,2010-12-29_13h01.32.896,eb_02psyexp,2022.2.4,119.96809701393055,
40,0,40,0,,,,,,,,,,,,,,,,,,,,,,,,,,,,,,,,,,,,,,,,,,,,,,,,,,,,,,,,,,,198.8476153506199,198.8476153506199,198.8476153506199,198.8476153506199,198.8476153506199,198.8476153506199,l,1,0.38273953017778695,199.23933093436062,200.26437923777848,,,,,,,,,,,,,,,,,,,,,,,,,,,,,,,,,,,,,,,009551,2010-12-29_13h01.32.896,eb_02psyexp,2022.2.4,119.96809701393055,
41,0,41,0,,,,,,,,,,,,,,,,,,,,,,,,,,,,,,,,,,,,,,,,,,,,,,,,,,,,,,,,,,,200.26437923777848,200.26437923777848,200.26437923777848,200.26437923777848,200.26437923777848,200.26437923777848,s,1,0.5419740300858393,200.8227949430002,201.83952309121378,,,,,,,,,,,,,,,,,,,,,,,,,,,,,,,,,,,,,,,009551,2010-12-29_13h01.32.896,eb_02psyexp,2022.2.4,119.96809701393055,
42,0,42,0,,,,,,,,,,,,,,,,,,,,,,,,,,,,,,,,,,,,,,,,,,,,,,,,,,,,,,,,,,,201.83952309121378,201.83952309121378,201.83952309121378,201.83952309121378,201.83952309121378,201.83952309121378,l,1,0.8788280250737444,202.7313007048797,203.75636228953954,,,,,,,,,,,,,,,,,,,,,,,,,,,,,,,,,,,,,,,009551,2010-12-29_13h01.32.896,eb_02psyexp,2022.2.4,119.96809701393055,
43,0,43,0,,,,,,,,,,,,,,,,,,,,,,,,,,,,,,,,,,,,,,,,,,,,,,,,,,,,,,,,,,,203.75636228953954,203.75636228953954,203.75636228953954,203.75636228953954,203.75636228953954,203.75636228953954,l,1,0.5130104484269395,204.28142281773034,205.31481663149316,,,,,,,,,,,,,,,,,,,,,,,,,,,,,,,,,,,,,,,009551,2010-12-29_13h01.32.896,eb_02psyexp,2022.2.4,119.96809701393055,
44,0,44,0,,,,,,,,,,,,,,,,,,,,,,,,,,,,,,,,,,,,,,,,,,,,,,,,,,,,,,,,,,,205.31481663149316,205.31481663149316,205.31481663149316,205.31481663149316,205.31481663149316,205.31481663149316,s,1,0.786622631479986,206.11487845005468,207.13160871120635,,,,,,,,,,,,,,,,,,,,,,,,,,,,,,,,,,,,,,,009551,2010-12-29_13h01.32.896,eb_02psyexp,2022.2.4,119.96809701393055,
45,0,45,0,,,,,,,,,,,,,,,,,,,,,,,,,,,,,,,,,,,,,,,,,,,,,,,,,,,,,,,,,,,207.13160871120635,207.13160871120635,207.13160871120635,207.13160871120635,207.13160871120635,207.13160871120635,l,1,0.5218579330248758,207.66504946234636,208.69845323706977,,,,,,,,,,,,,,,,,,,,,,,,,,,,,,,,,,,,,,,009551,2010-12-29_13h01.32.896,eb_02psyexp,2022.2.4,119.96809701393055,
46,0,46,0,,,,,,,,,,,,,,,,,,,,,,,,,,,,,,,,,,,,,,,,,,,,,,,,,,,,,,,,,,,208.69845323706977,208.69845323706977,208.69845323706977,208.69845323706977,208.69845323706977,208.69845323706977,s,1,0.683032413944602,209.39017223170958,210.4068795524072,,,,,,,,,,,,,,,,,,,,,,,,,,,,,,,,,,,,,,,009551,2010-12-29_13h01.32.896,eb_02psyexp,2022.2.4,119.96809701393055,
47,0,47,0,,,,,,,,,,,,,,,,,,,,,,,,,,,,,,,,,,,,,,,,,,,,,,,,,,,,,,,,,,,210.4068795524072,210.4068795524072,210.4068795524072,210.4068795524072,210.4068795524072,210.4068795524072,l,1,0.5666872814763337,210.98196243250277,212.0070128487423,,,,,,,,,,,,,,,,,,,,,,,,,,,,,,,,,,,,,,,009551,2010-12-29_13h01.32.896,eb_02psyexp,2022.2.4,119.96809701393055,
48,0,48,0,,,,,,,,,,,,,,,,,,,,,,,,,,,,,,,,,,,,,,,,,,,,,,,,,,,,,,,,,,,212.0070128487423,212.0070128487423,212.0070128487423,212.0070128487423,212.0070128487423,212.0070128487423,l,1,0.5505335511406884,212.57374387956224,213.60716214310378,,,,,,,,,,,,,,,,,,,,,,,,,,,,,,,,,,,,,,,009551,2010-12-29_13h01.32.896,eb_02psyexp,2022.2.4,119.96809701393055,
49,0,49,0,,,,,,,,,,,,,,,,,,,,,,,,,,,,,,,,,,,,,,,,,,,,,,,,,,,,,,,,,,,213.60716214310378,213.60716214310378,213.60716214310378,213.60716214310378,213.60716214310378,213.60716214310378,s,1,0.5505670564016327,214.1738895517774,215.19900426175445,,,,,,,,,,,,,,,,,,,,,,,,,,,,,,,,,,,,,,,009551,2010-12-29_13h01.32.896,eb_02psyexp,2022.2.4,119.96809701393055,
50,0,50,0,,,,,,,,,,,,,,,,,,,,,,,,,,,,,,,,,,,,,,,,,,,,,,,,,,,,,,,,,,,215.19900426175445,215.19900426175445,215.19900426175445,215.19900426175445,215.19900426175445,215.19900426175445,l,1,0.526603898848407,215.7406984595582,216.76579143642448,,,,,,,,,,,,,,,,,,,,,,,,,,,,,,,,,,,,,,,009551,2010-12-29_13h01.32.896,eb_02psyexp,2022.2.4,119.96809701393055,
51,0,51,0,,,,,,,,,,,,,,,,,,,,,,,,,,,,,,,,,,,,,,,,,,,,,,,,,,,,,,,,,,,216.76579143642448,216.76579143642448,216.76579143642448,216.76579143642448,216.76579143642448,216.76579143642448,s,1,1.2878573433263227,218.06588298710994,219.09095392911695,,,,,,,,,,,,,,,,,,,,,,,,,,,,,,,,,,,,,,,009551,2010-12-29_13h01.32.896,eb_02psyexp,2022.2.4,119.96809701393055,
52,0,52,0,,,,,,,,,,,,,,,,,,,,,,,,,,,,,,,,,,,,,,,,,,,,,,,,,,,,,,,,,,,219.09095392911695,219.09095392911695,219.09095392911695,219.09095392911695,219.09095392911695,219.09095392911695,l,1,0.6658231189940125,219.76602053956594,220.79109027411323,,,,,,,,,,,,,,,,,,,,,,,,,,,,,,,,,,,,,,,009551,2010-12-29_13h01.32.896,eb_02psyexp,2022.2.4,119.96809701393055,
53,0,53,0,,,,,,,,,,,,,,,,,,,,,,,,,,,,,,,,,,,,,,,,,,,,,,,,,,,,,,,,,,,220.79109027411323,220.79109027411323,220.79109027411323,220.79109027411323,220.79109027411323,220.79109027411323,s,1,0.9896360465791076,221.79118958231993,222.81626927794423,,,,,,,,,,,,,,,,,,,,,,,,,,,,,,,,,,,,,,,009551,2010-12-29_13h01.32.896,eb_02psyexp,2022.2.4,119.96809701393055,
54,0,54,0,,,,,,,,,,,,,,,,,,,,,,,,,,,,,,,,,,,,,,,,,,,,,,,,,,,,,,,,,,,222.81626927794423,222.81626927794423,222.81626927794423,222.81626927794423,222.81626927794423,222.81626927794423,l,1,0.9884775516111404,223.81635258812457,224.83307047351263,,,,,,,,,,,,,,,,,,,,,,,,,,,,,,,,,,,,,,,009551,2010-12-29_13h01.32.896,eb_02psyexp,2022.2.4,119.96809701393055,
55,0,55,0,,,,,,,,,,,,,,,,,,,,,,,,,,,,,,,,,,,,,,,,,,,,,,,,,,,,,,,,,,,224.83307047351263,224.83307047351263,224.83307047351263,224.83307047351263,224.83307047351263,224.83307047351263,l,1,0.4997333353385329,225.34147710818797,226.37492827314418,,,,,,,,,,,,,,,,,,,,,,,,,,,,,,,,,,,,,,,009551,2010-12-29_13h01.32.896,eb_02psyexp,2022.2.4,119.96809701393055,
56,0,56,0,,,,,,,,,,,,,,,,,,,,,,,,,,,,,,,,,,,,,,,,,,,,,,,,,,,,,,,,,,,226.37492827314418,226.37492827314418,226.37492827314418,226.37492827314418,226.37492827314418,226.37492827314418,s,1,0.7419348502298817,227.13331385399215,228.15834163164254,,,,,,,,,,,,,,,,,,,,,,,,,,,,,,,,,,,,,,,009551,2010-12-29_13h01.32.896,eb_02psyexp,2022.2.4,119.96809701393055,
57,0,57,0,,,,,,,,,,,,,,,,,,,,,,,,,,,,,,,,,,,,,,,,,,,,,,,,,,,,,,,,,,,228.15834163164254,228.15834163164254,228.15834163164254,228.15834163164254,228.15834163164254,228.15834163164254,l,1,0.5424889838322997,228.71675431844778,229.74184246582445,,,,,,,,,,,,,,,,,,,,,,,,,,,,,,,,,,,,,,,009551,2010-12-29_13h01.32.896,eb_02psyexp,2022.2.4,119.96809701393055,
58,0,58,0,,,,,,,,,,,,,,,,,,,,,,,,,,,,,,,,,,,,,,,,,,,,,,,,,,,,,,,,,,,229.74184246582445,229.74184246582445,229.74184246582445,229.74184246582445,229.74184246582445,229.74184246582445,s,1,0.5109995329985395,230.26687009248417,231.29196367308032,,,,,,,,,,,,,,,,,,,,,,,,,,,,,,,,,,,,,,,009551,2010-12-29_13h01.32.896,eb_02psyexp,2022.2.4,119.96809701393055,
59,0,59,0,,,,,,,,,,,,,,,,,,,,,,,,,,,,,,,,,,,,,,,,,,,,,,,,,,,,,,,,,,,231.29196367308032,231.29196367308032,231.29196367308032,231.29196367308032,231.29196367308032,231.29196367308032,l,1,0.49692523782141507,231.80034827289637,232.8337623104453,,,,,,,,,,,,,,,,,,,,,,,,,,,,,,,,,,,,,,,009551,2010-12-29_13h01.32.896,eb_02psyexp,2022.2.4,119.96809701393055,
60,0,60,0,,,,,,,,,,,,,,,,,,,,,,,,,,,,,,,,,,,,,,,,,,,,,,,,,,,,,,,,,,,232.8337623104453,232.8337623104453,232.8337623104453,232.8337623104453,232.8337623104453,232.8337623104453,s,1,0.4511172962374985,233.3004519578535,234.32553527562413,,,,,,,,,,,,,,,,,,,,,,,,,,,,,,,,,,,,,,,009551,2010-12-29_13h01.32.896,eb_02psyexp,2022.2.4,119.96809701393055,
61,0,61,0,,,,,,,,,,,,,,,,,,,,,,,,,,,,,,,,,,,,,,,,,,,,,,,,,,,,,,,,,,,234.32553527562413,234.32553527562413,234.32553527562413,234.32553527562413,234.32553527562413,234.32553527562413,l,1,0.47842825669795275,234.8172599450918,235.85067730292212,,,,,,,,,,,,,,,,,,,,,,,,,,,,,,,,,,,,,,,009551,2010-12-29_13h01.32.896,eb_02psyexp,2022.2.4,119.96809701393055,
62,0,62,0,,,,,,,,,,,,,,,,,,,,,,,,,,,,,,,,,,,,,,,,,,,,,,,,,,,,,,,,,,,235.85067730292212,235.85067730292212,235.85067730292212,235.85067730292212,235.85067730292212,235.85067730292212,s,1,0.4012875236803666,236.267393497983,237.29245176224504,,,,,,,,,,,,,,,,,,,,,,,,,,,,,,,,,,,,,,,009551,2010-12-29_13h01.32.896,eb_02psyexp,2022.2.4,119.96809701393055,
63,0,63,0,,,,,,,,,,,,,,,,,,,,,,,,,,,,,,,,,,,,,,,,,,,,,,,,,,,,,,,,,,,237.29245176224504,237.29245176224504,237.29245176224504,237.29245176224504,237.29245176224504,237.29245176224504,l,1,0.43154875258915126,237.73417007771786,238.7675829079235,,,,,,,,,,,,,,,,,,,,,,,,,,,,,,,,,,,,,,,009551,2010-12-29_13h01.32.896,eb_02psyexp,2022.2.4,119.96809701393055,
64,0,64,0,,,,,,,,,,,,,,,,,,,,,,,,,,,,,,,,,,,,,,,,,,,,,,,,,,,,,,,,,,,238.7675829079235,238.7675829079235,238.7675829079235,238.7675829079235,238.7675829079235,238.7675829079235,s,1,0.5164642003364861,239.29264856758527,240.31771347252652,,,,,,,,,,,,,,,,,,,,,,,,,,,,,,,,,,,,,,,009551,2010-12-29_13h01.32.896,eb_02psyexp,2022.2.4,119.96809701393055,
65,0,65,0,,,,,,,,,,,,,,,,,,,,,,,,,,,,,,,,,,,,,,,,,,,,,,,,,,,,,,,,,,,240.31771347252652,240.31771347252652,240.31771347252652,240.31771347252652,240.31771347252652,240.31771347252652,l,1,0.4383291779085994,240.76777035591658,241.79286272916943,,,,,,,,,,,,,,,,,,,,,,,,,,,,,,,,,,,,,,,009551,2010-12-29_13h01.32.896,eb_02psyexp,2022.2.4,119.96809701393055,
66,0,66,0,,,,,,,,,,,,,,,,,,,,,,,,,,,,,,,,,,,,,,,,,,,,,,,,,,,,,,,,,,,241.79286272916943,241.79286272916943,241.79286272916943,241.79286272916943,241.79286272916943,241.79286272916943,s,1,0.4032054697163403,242.20954240043648,243.2262829245301,,,,,,,,,,,,,,,,,,,,,,,,,,,,,,,,,,,,,,,009551,2010-12-29_13h01.32.896,eb_02psyexp,2022.2.4,119.96809701393055,
67,0,67,0,,,,,,,,,,,,,,,,,,,,,,,,,,,,,,,,,,,,,,,,,,,,,,,,,,,,,,,,,,,243.2262829245301,243.2262829245301,243.2262829245301,243.2262829245301,243.2262829245301,243.2262829245301,l,1,0.43384159461129457,243.67631143413018,244.70139445003588,,,,,,,,,,,,,,,,,,,,,,,,,,,,,,,,,,,,,,,009551,2010-12-29_13h01.32.896,eb_02psyexp,2022.2.4,119.96809701393055,
68,0,68,0,,,,,,,,,,,,,,,,,,,,,,,,,,,,,,,,,,,,,,,,,,,,,,,,,,,,,,,,,,,244.70139445003588,244.70139445003588,244.70139445003588,244.70139445003588,244.70139445003588,244.70139445003588,s,1,0.4707259857095778,245.18478266440798,246.20986960432492,,,,,,,,,,,,,,,,,,,,,,,,,,,,,,,,,,,,,,,009551,2010-12-29_13h01.32.896,eb_02psyexp,2022.2.4,119.96809701393055,
69,0,69,0,,,,,,,,,,,,,,,,,,,,,,,,,,,,,,,,,,,,,,,,,,,,,,,,,,,,,,,,,,,246.20986960432492,246.20986960432492,246.20986960432492,246.20986960432492,246.20986960432492,246.20986960432492,l,1,0.4103043454233557,246.63488603243604,247.66829161834903,,,,,,,,,,,,,,,,,,,,,,,,,,,,,,,,,,,,,,,009551,2010-12-29_13h01.32.896,eb_02psyexp,2022.2.4,119.96809701393055,
70,0,70,0,,,,,,,,,,,,,,,,,,,,,,,,,,,,,,,,,,,,,,,,,,,,,,,,,,,,,,,,,,,247.66829161834903,247.66829161834903,247.66829161834903,247.66829161834903,247.66829161834903,247.66829161834903,s,1,0.43187656009104103,248.1100226114504,249.12674291152507,,,,,,,,,,,,,,,,,,,,,,,,,,,,,,,,,,,,,,,009551,2010-12-29_13h01.32.896,eb_02psyexp,2022.2.4,119.96809701393055,
71,0,71,0,,,,,,,,,,,,,,,,,,,,,,,,,,,,,,,,,,,,,,,,,,,,,,,,,,,,,,,,,,,249.12674291152507,249.12674291152507,249.12674291152507,249.12674291152507,249.12674291152507,249.12674291152507,l,1,0.42945784714538604,249.56851706909947,250.59352824499365,,,,,,,,,,,,,,,,,,,,,,,,,,,,,,,,,,,,,,,009551,2010-12-29_13h01.32.896,eb_02psyexp,2022.2.4,119.96809701393055,
72,0,72,0,,,,,,,,,,,,,,,,,,,,,,,,,,,,,,,,,,,,,,,,,,,,,,,,,,,,,,,,,,,250.59352824499365,250.59352824499365,250.59352824499365,250.59352824499365,250.59352824499365,250.59352824499365,s,1,0.4577241586521268,251.06027101771906,252.0769855827093,,,,,,,,,,,,,,,,,,,,,,,,,,,,,,,,,,,,,,,009551,2010-12-29_13h01.32.896,eb_02psyexp,2022.2.4,119.96809701393055,
73,0,73,0,,,,,,,,,,,,,,,,,,,,,,,,,,,,,,,,,,,,,,,,,,,,,,,,,,,,,,,,,,,252.0769855827093,252.0769855827093,252.0769855827093,252.0769855827093,252.0769855827093,252.0769855827093,l,1,0.4302643866976723,252.51875400508288,253.55210465448909,,,,,,,,,,,,,,,,,,,,,,,,,,,,,,,,,,,,,,,009551,2010-12-29_13h01.32.896,eb_02psyexp,2022.2.4,119.96809701393055,
74,0,74,0,,,,,,,,,,,,,,,,,,,,,,,,,,,,,,,,,,,,,,,,,,,,,,,,,,,,,,,,,,,253.55210465448909,253.55210465448909,253.55210465448909,253.55210465448909,253.55210465448909,253.55210465448909,s,1,0.44316569820512086,254.0104979928583,255.02725451474544,,,,,,,,,,,,,,,,,,,,,,,,,,,,,,,,,,,,,,,009551,2010-12-29_13h01.32.896,eb_02psyexp,2022.2.4,119.96809701393055,
75,0,75,0,,,,,,,,,,,,,,,,,,,,,,,,,,,,,,,,,,,,,,,,,,,,,,,,,,,,,,,,,,,255.02725451474544,255.02725451474544,255.02725451474544,255.02725451474544,255.02725451474544,255.02725451474544,l,1,0.35207563533913344,255.393938095076,256.4190310719423,,,,,,,,,,,,,,,,,,,,,,,,,,,,,,,,,,,,,,,009551,2010-12-29_13h01.32.896,eb_02psyexp,2022.2.4,119.96809701393055,
76,0,76,0,,,,,,,,,,,,,,,,,,,,,,,,,,,,,,,,,,,,,,,,,,,,,,,,,,,,,,,,,,,256.4190310719423,256.4190310719423,256.4190310719423,256.4190310719423,256.4190310719423,256.4190310719423,s,1,0.48032235680148005,256.91075483581517,257.9358336258447,,,,,,,,,,,,,,,,,,,,,,,,,,,,,,,,,,,,,,,009551,2010-12-29_13h01.32.896,eb_02psyexp,2022.2.4,119.96809701393055,
77,0,77,0,,,,,,,,,,,,,,,,,,,,,,,,,,,,,,,,,,,,,,,,,,,,,,,,,,,,,,,,,,,257.9358336258447,257.9358336258447,257.9358336258447,257.9358336258447,257.9358336258447,257.9358336258447,l,1,0.4355156470555812,258.3858880944317,259.410957828979,,,,,,,,,,,,,,,,,,,,,,,,,,,,,,,,,,,,,,,009551,2010-12-29_13h01.32.896,eb_02psyexp,2022.2.4,119.96809701393055,
78,0,78,0,,,,,,,,,,,,,,,,,,,,,,,,,,,,,,,,,,,,,,,,,,,,,,,,,,,,,,,,,,,259.410957828979,259.410957828979,259.410957828979,259.410957828979,259.410957828979,259.410957828979,s,1,0.4963991156546399,259.9193216012791,260.9444157856051,,,,,,,,,,,,,,,,,,,,,,,,,,,,,,,,,,,,,,,009551,2010-12-29_13h01.32.896,eb_02psyexp,2022.2.4,119.96809701393055,
79,0,79,0,,,,,,,,,,,,,,,,,,,,,,,,,,,,,,,,,,,,,,,,,,,,,,,,,,,,,,,,,,,260.9444157856051,260.9444157856051,260.9444157856051,260.9444157856051,260.9444157856051,260.9444157856051,l,1,0.4350085413316265,261.3944744800683,262.4278716141125,,,,,,,,,,,,,,,,,,,,,,,,,,,,,,,,,,,,,,,009551,2010-12-29_13h01.32.896,eb_02psyexp,2022.2.4,119.96809701393055,
80,0,80,0,,,,,,,,,,,,,,,,,,,,,,,,,,,,,,,,,,,,,,,,,,,,,,,,,,,,,,,,,,,262.4278716141125,262.4278716141125,262.4278716141125,262.4278716141125,262.4278716141125,262.4278716141125,s,1,0.5195620725862682,262.9612510900479,263.98632505047135,,,,,,,,,,,,,,,,,,,,,,,,,,,,,,,,,,,,,,,009551,2010-12-29_13h01.32.896,eb_02psyexp,2022.2.4,119.96809701393055,
81,0,81,0,,,,,,,,,,,,,,,,,,,,,,,,,,,,,,,,,,,,,,,,,,,,,,,,,,,,,,,,,,,263.98632505047135,263.98632505047135,263.98632505047135,263.98632505047135,263.98632505047135,263.98632505047135,l,1,0.47315164119936526,264.46972956473473,265.494796884479,,,,,,,,,,,,,,,,,,,,,,,,,,,,,,,,,,,,,,,009551,2010-12-29_13h01.32.896,eb_02psyexp,2022.2.4,119.96809701393055,
82,0,82,0,,,,,,,,,,,,,,,,,,,,,,,,,,,,,,,,,,,,,,,,,,,,,,,,,,,,,,,,,,,265.494796884479,265.494796884479,265.494796884479,265.494796884479,265.494796884479,265.494796884479,s,1,0.5237396573647857,266.02817062532995,267.05325937632006,,,,,,,,,,,,,,,,,,,,,,,,,,,,,,,,,,,,,,,009551,2010-12-29_13h01.32.896,eb_02psyexp,2022.2.4,119.96809701393055,
83,0,83,0,,,,,,,,,,,,,,,,,,,,,,,,,,,,,,,,,,,,,,,,,,,,,,,,,,,,,,,,,,,267.05325937632006,267.05325937632006,267.05325937632006,267.05325937632006,267.05325937632006,267.05325937632006,l,1,0.35726380930282176,267.4199363159714,268.44502416148316,,,,,,,,,,,,,,,,,,,,,,,,,,,,,,,,,,,,,,,009551,2010-12-29_13h01.32.896,eb_02psyexp,2022.2.4,119.96809701393055,
84,0,84,0,,,,,,,,,,,,,,,,,,,,,,,,,,,,,,,,,,,,,,,,,,,,,,,,,,,,,,,,,,,268.44502416148316,268.44502416148316,268.44502416148316,268.44502416148316,268.44502416148316,268.44502416148316,s,1,0.45350129646249115,268.9117672360735,269.93682338739745,,,,,,,,,,,,,,,,,,,,,,,,,,,,,,,,,,,,,,,009551,2010-12-29_13h01.32.896,eb_02psyexp,2022.2.4,119.96809701393055,
85,0,85,0,,,,,,,,,,,,,,,,,,,,,,,,,,,,,,,,,,,,,,,,,,,,,,,,,,,,,,,,,,,269.93682338739745,269.93682338739745,269.93682338739745,269.93682338739745,269.93682338739745,269.93682338739745,l,1,0.3456845947075635,270.2951819830341,271.3202571508009,,,,,,,,,,,,,,,,,,,,,,,,,,,,,,,,,,,,,,,009551,2010-12-29_13h01.32.896,eb_02psyexp,2022.2.4,119.96809701393055,
86,0,86,0,,,,,,,,,,,,,,,,,,,,,,,,,,,,,,,,,,,,,,,,,,,,,,,,,,,,,,,,,,,271.3202571508009,271.3202571508009,271.3202571508009,271.3202571508009,271.3202571508009,271.3202571508009,s,1,0.34632511739619076,271.6786534774583,272.70371385477483,,,,,,,,,,,,,,,,,,,,,,,,,,,,,,,,,,,,,,,009551,2010-12-29_13h01.32.896,eb_02psyexp,2022.2.4,119.96809701393055,
87,0,87,0,,,,,,,,,,,,,,,,,,,,,,,,,,,,,,,,,,,,,,,,,,,,,,,,,,,,,,,,,,,272.70371385477483,272.70371385477483,272.70371385477483,272.70371385477483,272.70371385477483,272.70371385477483,l,1,0.29890228575095534,273.0120811887318,274.03718654147815,,,,,,,,,,,,,,,,,,,,,,,,,,,,,,,,,,,,,,,009551,2010-12-29_13h01.32.896,eb_02psyexp,2022.2.4,119.96809701393055,
88,0,88,0,,,,,,,,,,,,,,,,,,,,,,,,,,,,,,,,,,,,,,,,,,,,,,,,,,,,,,,,,,,274.03718654147815,274.03718654147815,274.03718654147815,274.03718654147815,274.03718654147815,274.03718654147815,s,1,0.30142755119595677,274.35384535510093,275.37893772823736,,,,,,,,,,,,,,,,,,,,,,,,,,,,,,,,,,,,,,,009551,2010-12-29_13h01.32.896,eb_02psyexp,2022.2.4,119.96809701393055,
89,0,89,0,,,,,,,,,,,,,,,,,,,,,,,,,,,,,,,,,,,,,,,,,,,,,,,,,,,,,,,,,,,275.37893772823736,275.37893772823736,275.37893772823736,275.37893772823736,275.37893772823736,275.37893772823736,l,1,0.37572124821599573,275.77063640847337,276.7956922580488,,,,,,,,,,,,,,,,,,,,,,,,,,,,,,,,,,,,,,,009551,2010-12-29_13h01.32.896,eb_02psyexp,2022.2.4,119.96809701393055,
90,0,90,0,,,,,,,,,,,,,,,,,,,,,,,,,,,,,,,,,,,,,,,,,,,,,,,,,,,,,,,,,,,276.7956922580488,276.7956922580488,276.7956922580488,276.7956922580488,276.7956922580488,276.7956922580488,s,1,0.4149742453591898,277.22078173351474,278.2458424126962,,,,,,,,,,,,,,,,,,,,,,,,,,,,,,,,,,,,,,,009551,2010-12-29_13h01.32.896,eb_02psyexp,2022.2.4,119.96809701393055,
91,0,91,0,,,,,,,,,,,,,,,,,,,,,,,,,,,,,,,,,,,,,,,,,,,,,,,,,,,,,,,,,,,278.2458424126962,278.2458424126962,278.2458424126962,278.2458424126962,278.2458424126962,278.2458424126962,l,1,0.5728661224711686,278.8292324683862,279.86266220209654,,,,,,,,,,,,,,,,,,,,,,,,,,,,,,,,,,,,,,,009551,2010-12-29_13h01.32.896,eb_02psyexp,2022.2.4,119.96809701393055,
92,0,92,0,,,,,,,,,,,,,,,,,,,,,,,,,,,,,,,,,,,,,,,,,,,,,,,,,,,,,,,,,,,279.86266220209654,279.86266220209654,279.86266220209654,279.86266220209654,279.86266220209654,279.86266220209654,s,1,0.5560733786551282,280.42936093511526,281.4544587415876,,,,,,,,,,,,,,,,,,,,,,,,,,,,,,,,,,,,,,,009551,2010-12-29_13h01.32.896,eb_02psyexp,2022.2.4,119.96809701393055,
93,0,93,0,,,,,,,,,,,,,,,,,,,,,,,,,,,,,,,,,,,,,,,,,,,,,,,,,,,,,,,,,,,281.4544587415876,281.4544587415876,281.4544587415876,281.4544587415876,281.4544587415876,281.4544587415876,l,1,0.5073465610621497,281.971139952424,283.00456998788286,,,,,,,,,,,,,,,,,,,,,,,,,,,,,,,,,,,,,,,009551,2010-12-29_13h01.32.896,eb_02psyexp,2022.2.4,119.96809701393055,
94,0,94,0,,,,,,,,,,,,,,,,,,,,,,,,,,,,,,,,,,,,,,,,,,,,,,,,,,,,,,,,,,,283.00456998788286,283.00456998788286,283.00456998788286,283.00456998788286,283.00456998788286,283.00456998788286,s,1,0.5332575476495549,283.5463061426999,284.57135354040656,,,,,,,,,,,,,,,,,,,,,,,,,,,,,,,,,,,,,,,009551,2010-12-29_13h01.32.896,eb_02psyexp,2022.2.4,119.96809701393055,
95,0,95,0,,,,,,,,,,,,,,,,,,,,,,,,,,,,,,,,,,,,,,,,,,,,,,,,,,,,,,,,,,,284.57135354040656,284.57135354040656,284.57135354040656,284.57135354040656,284.57135354040656,284.57135354040656,l,1,0.43042768677696586,285.01307578000706,286.046484686085,,,,,,,,,,,,,,,,,,,,,,,,,,,,,,,,,,,,,,,009551,2010-12-29_13h01.32.896,eb_02psyexp,2022.2.4,119.96809701393055,
96,0,96,0,,,,,,,,,,,,,,,,,,,,,,,,,,,,,,,,,,,,,,,,,,,,,,,,,,,,,,,,,,,286.046484686085,286.046484686085,286.046484686085,286.046484686085,286.046484686085,286.046484686085,s,1,0.4513524362118915,286.513196066604,287.5382793843746,,,,,,,,,,,,,,,,,,,,,,,,,,,,,,,,,,,,,,,009551,2010-12-29_13h01.32.896,eb_02psyexp,2022.2.4,119.96809701393055,
97,0,97,0,,,,,,,,,,,,,,,,,,,,,,,,,,,,,,,,,,,,,,,,,,,,,,,,,,,,,,,,,,,287.5382793843746,287.5382793843746,287.5382793843746,287.5382793843746,287.5382793843746,287.5382793843746,l,1,0.36758401326369494,287.92166455020197,288.9467116460437,,,,,,,,,,,,,,,,,,,,,,,,,,,,,,,,,,,,,,,009551,2010-12-29_13h01.32.896,eb_02psyexp,2022.2.4,119.96809701393055,
98,0,98,0,,,,,,,,,,,,,,,,,,,,,,,,,,,,,,,,,,,,,,,,,,,,,,,,,,,,,,,,,,,288.9467116460437,288.9467116460437,288.9467116460437,288.9467116460437,288.9467116460437,288.9467116460437,s,1,0.5271780148614198,289.48842667147983,290.50518077856395,,,,,,,,,,,,,,,,,,,,,,,,,,,,,,,,,,,,,,,009551,2010-12-29_13h01.32.896,eb_02psyexp,2022.2.4,119.96809701393055,
99,0,99,0,,,,,,,,,,,,,,,,,,,,,,,,,,,,,,,,,,,,,,,,,,,,,,,,,,,,,,,,,,,290.50518077856395,290.50518077856395,290.50518077856395,290.50518077856395,290.50518077856395,290.50518077856395,l,1,0.48071747657377273,290.9969021276338,292.03030710981693,,,,,,,,,,,,,,,,,,,,,,,,,,,,,,,,,,,,,,,009551,2010-12-29_13h01.32.896,eb_02psyexp,2022.2.4,119.96809701393055,
100,0,100,0,,,,,,,,,,,,,,,,,,,,,,,,,,,,,,,,,,,,,,,,,,,,,,,,,,,,,,,,,,,292.03030710981693,292.03030710981693,292.03030710981693,292.03030710981693,292.03030710981693,292.03030710981693,s,1,0.4276229095412418,292.47202633076813,293.4971190058859,,,,,,,,,,,,,,,,,,,,,,,,,,,,,,,,,,,,,,,009551,2010-12-29_13h01.32.896,eb_02psyexp,2022.2.4,119.96809701393055,
101,0,101,0,,,,,,,,,,,,,,,,,,,,,,,,,,,,,,,,,,,,,,,,,,,,,,,,,,,,,,,,,,,293.4971190058859,293.4971190058859,293.4971190058859,293.4971190058859,293.4971190058859,293.4971190058859,l,1,0.44086802657693624,293.9471387618687,294.9722087982809,,,,,,,,,,,,,,,,,,,,,,,,,,,,,,,,,,,,,,,009551,2010-12-29_13h01.32.896,eb_02psyexp,2022.2.4,119.96809701393055,
102,0,102,0,,,,,,,,,,,,,,,,,,,,,,,,,,,,,,,,,,,,,,,,,,,,,,,,,,,,,,,,,,,294.9722087982809,294.9722087982809,294.9722087982809,294.9722087982809,294.9722087982809,294.9722087982809,s,1,0.48577857215423137,295.4722750540823,296.48901527619455,,,,,,,,,,,,,,,,,,,,,,,,,,,,,,,,,,,,,,,009551,2010-12-29_13h01.32.896,eb_02psyexp,2022.2.4,119.96809701393055,
103,0,103,0,,,,,,,,,,,,,,,,,,,,,,,,,,,,,,,,,,,,,,,,,,,,,,,,,,,,,,,,,,,296.48901527619455,296.48901527619455,296.48901527619455,296.48901527619455,296.48901527619455,296.48901527619455,l,1,0.4330299235880375,296.9307194048306,297.9641627217643,,,,,,,,,,,,,,,,,,,,,,,,,,,,,,,,,,,,,,,009551,2010-12-29_13h01.32.896,eb_02psyexp,2022.2.4,119.96809701393055,
104,0,104,0,,,,,,,,,,,,,,,,,,,,,,,,,,,,,,,,,,,,,,,,,,,,,,,,,,,,,,,,,,,297.9641627217643,297.9641627217643,297.9641627217643,297.9641627217643,297.9641627217643,297.9641627217643,s,1,0.4128884713863954,298.3891921293689,299.4142585435184,,,,,,,,,,,,,,,,,,,,,,,,,,,,,,,,,,,,,,,009551,2010-12-29_13h01.32.896,eb_02psyexp,2022.2.4,119.96809701393055,
105,0,105,0,,,,,,,,,,,,,,,,,,,,,,,,,,,,,,,,,,,,,,,,,,,,,,,,,,,,,,,,,,,299.4142585435184,299.4142585435184,299.4142585435184,299.4142585435184,299.4142585435184,299.4142585435184,l,1,0.4587905897060409,299.88928374042735,300.9143881875789,,,,,,,,,,,,,,,,,,,,,,,,,,,,,,,,,,,,,,,009551,2010-12-29_13h01.32.896,eb_02psyexp,2022.2.4,119.96809701393055,
106,0,106,0,,,,,,,,,,,,,,,,,,,,,,,,,,,,,,,,,,,,,,,,,,,,,,,,,,,,,,,,,,,300.9143881875789,300.9143881875789,300.9143881875789,300.9143881875789,300.9143881875789,300.9143881875789,s,1,0.5587643590988591,301.4894339402672,302.50617627531756,,,,,,,,,,,,,,,,,,,,,,,,,,,,,,,,,,,,,,,009551,2010-12-29_13h01.32.896,eb_02psyexp,2022.2.4,119.96809701393055,
107,0,107,0,,,,,,,,,,,,,,,,,,,,,,,,,,,,,,,,,,,,,,,,,,,,,,,,,,,,,,,,,,,302.50617627531756,302.50617627531756,302.50617627531756,302.50617627531756,302.50617627531756,302.50617627531756,l,1,0.4149555307812989,302.93121534213424,303.96466469590086,,,,,,,,,,,,,,,,,,,,,,,,,,,,,,,,,,,,,,,009551,2010-12-29_13h01.32.896,eb_02psyexp,2022.2.4,119.96809701393055,
108,0,108,0,,,,,,,,,,,,,,,,,,,,,,,,,,,,,,,,,,,,,,,,,,,,,,,,,,,,,,,,,,,303.96466469590086,303.96466469590086,303.96466469590086,303.96466469590086,303.96466469590086,303.96466469590086,s,1,0.38847737049218267,304.36468564427923,305.3813827020349,,,,,,,,,,,,,,,,,,,,,,,,,,,,,,,,,,,,,,,009551,2010-12-29_13h01.32.896,eb_02psyexp,2022.2.4,119.96809701393055,
109,0,109,0,,,,,,,,,,,,,,,,,,,,,,,,,,,,,,,,,,,,,,,,,,,,,,,,,,,,,,,,,,,305.3813827020349,305.3813827020349,305.3813827020349,305.3813827020349,305.3813827020349,305.3813827020349,l,1,0.38777768530417234,305.78145345533267,306.8065409989795,,,,,,,,,,,,,,,,,,,,,,,,,,,,,,,,,,,,,,,009551,2010-12-29_13h01.32.896,eb_02psyexp,2022.2.4,119.96809701393055,
110,0,110,0,,,,,,,,,,,,,,,,,,,,,,,,,,,,,,,,,,,,,,,,,,,,,,,,,,,,,,,,,,,306.8065409989795,306.8065409989795,306.8065409989795,306.8065409989795,306.8065409989795,306.8065409989795,s,1,0.5546972509473562,307.3732783686137,308.38999082078226,,,,,,,,,,,,,,,,,,,,,,,,,,,,,,,,,,,,,,,009551,2010-12-29_13h01.32.896,eb_02psyexp,2022.2.4,119.96809701393055,
111,0,111,0,,,,,,,,,,,,,,,,,,,,,,,,,,,,,,,,,,,,,,,,,,,,,,,,,,,,,,,,,,,308.38999082078226,308.38999082078226,308.38999082078226,308.38999082078226,308.38999082078226,308.38999082078226,l,1,0.44323934928979725,308.84837419807445,309.87347049533855,,,,,,,,,,,,,,,,,,,,,,,,,,,,,,,,,,,,,,,009551,2010-12-29_13h01.32.896,eb_02psyexp,2022.2.4,119.96809701393055,
112,0,112,0,,,,,,,,,,,,,,,,,,,,,,,,,,,,,,,,,,,,,,,,,,,,,,,,,,,,,,,,,,,309.87347049533855,309.87347049533855,309.87347049533855,309.87347049533855,309.87347049533855,309.87347049533855,l,1,0.5677956695435569,310.45684877887834,311.4735769270919,,,,,,,,,,,,,,,,,,,,,,,,,,,,,,,,,,,,,,,009551,2010-12-29_13h01.32.896,eb_02psyexp,2022.2.4,119.96809701393055,
113,0,113,0,,,,,,,,,,,,,,,,,,,,,,,,,,,,,,,,,,,,,,,,,,,,,,,,,,,,,,,,,,,311.4735769270919,311.4735769270919,311.4735769270919,311.4735769270919,311.4735769270919,311.4735769270919,l,1,0.4956915824441239,311.9819428123301,313.00704876868986,,,,,,,,,,,,,,,,,,,,,,,,,,,,,,,,,,,,,,,009551,2010-12-29_13h01.32.896,eb_02psyexp,2022.2.4,119.96809701393055,
114,0,114,0,,,,,,,,,,,,,,,,,,,,,,,,,,,,,,,,,,,,,,,,,,,,,,,,,,,,,,,,,,,313.00704876868986,313.00704876868986,313.00704876868986,313.00704876868986,313.00704876868986,313.00704876868986,s,1,0.5292640905827284,313.54876258666627,314.5738392637577,,,,,,,,,,,,,,,,,,,,,,,,,,,,,,,,,,,,,,,009551,2010-12-29_13h01.32.896,eb_02psyexp,2022.2.4,119.96809701393055,
115,0,115,0,,,,,,,,,,,,,,,,,,,,,,,,,,,,,,,,,,,,,,,,,,,,,,,,,,,,,,,,,,,314.5738392637577,314.5738392637577,314.5738392637577,314.5738392637577,314.5738392637577,314.5738392637577,l,1,0.3704633472952992,314.9571921317838,315.9822839013068,,,,,,,,,,,,,,,,,,,,,,,,,,,,,,,,,,,,,,,009551,2010-12-29_13h01.32.896,eb_02psyexp,2022.2.4,119.96809701393055,
116,0,116,0,,,,,,,,,,,,,,,,,,,,,,,,,,,,,,,,,,,,,,,,,,,,,,,,,,,,,,,,,,,315.9822839013068,315.9822839013068,315.9822839013068,315.9822839013068,315.9822839013068,315.9822839013068,s,1,0.5380605629179627,316.53236617008224,317.5490574927535,,,,,,,,,,,,,,,,,,,,,,,,,,,,,,,,,,,,,,,009551,2010-12-29_13h01.32.896,eb_02psyexp,2022.2.4,119.96809701393055,
117,0,117,0,,,,,,,,,,,,,,,,,,,,,,,,,,,,,,,,,,,,,,,,,,,,,,,,,,,,,,,,,,,317.5490574927535,317.5490574927535,317.5490574927535,317.5490574927535,317.5490574927535,317.5490574927535,l,1,0.31533100025262684,317.8741354678059,318.8991907136515,,,,,,,,,,,,,,,,,,,,,,,,,,,,,,,,,,,,,,,009551,2010-12-29_13h01.32.896,eb_02psyexp,2022.2.4,119.96809701393055,
118,0,118,0,,,,,,,,,,,,,,,,,,,,,,,,,,,,,,,,,,,,,,,,,,,,,,,,,,,,,,,,,,,318.8991907136515,318.8991907136515,318.8991907136515,318.8991907136515,318.8991907136515,318.8991907136515,s,1,0.46922489255666733,319.38254783768207,320.4076534922933,,,,,,,,,,,,,,,,,,,,,,,,,,,,,,,,,,,,,,,009551,2010-12-29_13h01.32.896,eb_02psyexp,2022.2.4,119.96809701393055,
119,0,119,0,,,,,,,,,,,,,,,,,,,,,,,,,,,,,,,,,,,,,,,,,,,,,,,,,,,,,,,,,,,320.4076534922933,320.4076534922933,320.4076534922933,320.4076534922933,320.4076534922933,320.4076534922933,l,1,0.48078720353078097,320.89936910616234,321.9327873697039,,,,,,,,,,,,,,,,,,,,,,,,,,,,,,,,,,,,,,,009551,2010-12-29_13h01.32.896,eb_02psyexp,2022.2.4,119.96809701393055,
120,0,120,0,,,,,,,,,,,,,,,,,,,,,,,,,,,,,,,,,,,,,,,,,,,,,,,,,,,,,,,,,,,321.9327873697039,321.9327873697039,321.9327873697039,321.9327873697039,321.9327873697039,321.9327873697039,s,1,0.4838310449849814,322.43280653702095,323.4578967973357,,,,,,,,,,,,,,,,,,,,,,,,,,,,,,,,,,,,,,,009551,2010-12-29_13h01.32.896,eb_02psyexp,2022.2.4,119.96809701393055,
121,0,121,0,,,,,,,,,,,,,,,,,,,,,,,,,,,,,,,,,,,,,,,,,,,,,,,,,,,,,,,,,,,323.4578967973357,323.4578967973357,323.4578967973357,323.4578967973357,323.4578967973357,323.4578967973357,l,1,0.47058321128133684,323.94127897475846,324.9747050863225,,,,,,,,,,,,,,,,,,,,,,,,,,,,,,,,,,,,,,,009551,2010-12-29_13h01.32.896,eb_02psyexp,2022.2.4,119.96809701393055,
122,0,122,0,,,,,,,,,,,,,,,,,,,,,,,,,,,,,,,,,,,,,,,,,,,,,,,,,,,,,,,,,,,324.9747050863225,324.9747050863225,324.9747050863225,324.9747050863225,324.9747050863225,324.9747050863225,s,1,0.33779608306940645,325.32473658421077,326.3414454141166,,,,,,,,,,,,,,,,,,,,,,,,,,,,,,,,,,,,,,,009551,2010-12-29_13h01.32.896,eb_02psyexp,2022.2.4,119.96809701393055,
123,0,123,0,,,,,,,,,,,,,,,,,,,,,,,,,,,,,,,,,,,,,,,,,,,,,,,,,,,,,,,,,,,326.3414454141166,326.3414454141166,326.3414454141166,326.3414454141166,326.3414454141166,326.3414454141166,l,1,0.34709543513599783,326.6998664923012,327.7248921570135,,,,,,,,,,,,,,,,,,,,,,,,,,,,,,,,,,,,,,,009551,2010-12-29_13h01.32.896,eb_02psyexp,2022.2.4,119.96809701393055,
124,0,124,0,,,,,,,,,,,,,,,,,,,,,,,,,,,,,,,,,,,,,,,,,,,,,,,,,,,,,,,,,,,327.7248921570135,327.7248921570135,327.7248921570135,327.7248921570135,327.7248921570135,327.7248921570135,s,1,0.48272024211473763,328.21665546298027,329.24172731058206,,,,,,,,,,,,,,,,,,,,,,,,,,,,,,,,,,,,,,,009551,2010-12-29_13h01.32.896,eb_02psyexp,2022.2.4,119.96809701393055,
125,0,125,0,,,,,,,,,,,,,,,,,,,,,,,,,,,,,,,,,,,,,,,,,,,,,,,,,,,,,,,,,,,329.24172731058206,329.24172731058206,329.24172731058206,329.24172731058206,329.24172731058206,329.24172731058206,l,1,0.445850943448022,329.7000989157241,330.7251399747329,,,,,,,,,,,,,,,,,,,,,,,,,,,,,,,,,,,,,,,009551,2010-12-29_13h01.32.896,eb_02psyexp,2022.2.4,119.96809701393055,
126,0,126,0,,,,,,,,,,,,,,,,,,,,,,,,,,,,,,,,,,,,,,,,,,,,,,,,,,,,,,,,,,,330.7251399747329,330.7251399747329,330.7251399747329,330.7251399747329,330.7251399747329,330.7251399747329,s,1,0.45052808767650276,331.1918664476834,332.21699413715396,,,,,,,,,,,,,,,,,,,,,,,,,,,,,,,,,,,,,,,009551,2010-12-29_13h01.32.896,eb_02psyexp,2022.2.4,119.96809701393055,
127,0,127,0,,,,,,,,,,,,,,,,,,,,,,,,,,,,,,,,,,,,,,,,,,,,,,,,,,,,,,,,,,,332.21699413715396,332.21699413715396,332.21699413715396,332.21699413715396,332.21699413715396,332.21699413715396,l,1,0.45468092081137,332.6836729180068,333.7004101217026,,,,,,,,,,,,,,,,,,,,,,,,,,,,,,,,,,,,,,,009551,2010-12-29_13h01.32.896,eb_02psyexp,2022.2.4,119.96809701393055,
128,0,128,0,,,,,,,,,,,,,,,,,,,,,,,,,,,,,,,,,,,,,,,,,,,,,,,,,,,,,,,,,,,333.7004101217026,333.7004101217026,333.7004101217026,333.7004101217026,333.7004101217026,333.7004101217026,l,1,0.4592321942327544,334.1754428646527,335.20053704897873,,,,,,,,,,,,,,,,,,,,,,,,,,,,,,,,,,,,,,,009551,2010-12-29_13h01.32.896,eb_02psyexp,2022.2.4,119.96809701393055,
129,0,129,0,,,,,,,,,,,,,,,,,,,,,,,,,,,,,,,,,,,,,,,,,,,,,,,,,,,,,,,,,,,335.20053704897873,335.20053704897873,335.20053704897873,335.20053704897873,335.20053704897873,335.20053704897873,l,1,0.4631604520836845,335.67556737724226,336.7089989220258,,,,,,,,,,,,,,,,,,,,,,,,,,,,,,,,,,,,,,,009551,2010-12-29_13h01.32.896,eb_02psyexp,2022.2.4,119.96809701393055,
130,0,130,0,,,,,,,,,,,,,,,,,,,,,,,,,,,,,,,,,,,,,,,,,,,,,,,,,,,,,,,,,,,336.7089989220258,336.7089989220258,336.7089989220258,336.7089989220258,336.7089989220258,336.7089989220258,s,1,0.5387264408636838,337.25906036328524,338.2841397570446,,,,,,,,,,,,,,,,,,,,,,,,,,,,,,,,,,,,,,,009551,2010-12-29_13h01.32.896,eb_02psyexp,2022.2.4,119.96809701393055,
131,0,131,0,,,,,,,,,,,,,,,,,,,,,,,,,,,,,,,,,,,,,,,,,,,,,,,,,,,,,,,,,,,338.2841397570446,338.2841397570446,338.2841397570446,338.2841397570446,338.2841397570446,338.2841397570446,l,1,0.5155924614518881,338.80917945771944,339.8425756862853,,,,,,,,,,,,,,,,,,,,,,,,,,,,,,,,,,,,,,,009551,2010-12-29_13h01.32.896,eb_02psyexp,2022.2.4,119.96809701393055,
132,0,132,0,,,,,,,,,,,,,,,,,,,,,,,,,,,,,,,,,,,,,,,,,,,,,,,,,,,,,,,,,,,339.8425756862853,339.8425756862853,339.8425756862853,339.8425756862853,339.8425756862853,339.8425756862853,s,1,0.645206858869642,340.5009796496015,341.5176981387194,,,,,,,,,,,,,,,,,,,,,,,,,,,,,,,,,,,,,,,009551,2010-12-29_13h01.32.896,eb_02psyexp,2022.2.4,119.96809701393055,
133,0,133,0,,,,,,,,,,,,,,,,,,,,,,,,,,,,,,,,,,,,,,,,,,,,,,,,,,,,,,,,,,,341.5176981387194,341.5176981387194,341.5176981387194,341.5176981387194,341.5176981387194,341.5176981387194,l,1,0.7700701592257246,342.30113111727405,343.32623405521736,,,,,,,,,,,,,,,,,,,,,,,,,,,,,,,,,,,,,,,009551,2010-12-29_13h01.32.896,eb_02psyexp,2022.2.4,119.96809701393055,
134,0,134,0,,,,,,,,,,,,,,,,,,,,,,,,,,,,,,,,,,,,,,,,,,,,,,,,,,,,,,,,,,,343.32623405521736,343.32623405521736,343.32623405521736,343.32623405521736,343.32623405521736,343.32623405521736,s,1,0.46462804009206593,343.80123842449393,344.82633713644464,,,,,,,,,,,,,,,,,,,,,,,,,,,,,,,,,,,,,,,009551,2010-12-29_13h01.32.896,eb_02psyexp,2022.2.4,119.96809701393055,
135,0,135,0,,,,,,,,,,,,,,,,,,,,,,,,,,,,,,,,,,,,,,,,,,,,,,,,,,,,,,,,,,,344.82633713644464,344.82633713644464,344.82633713644464,344.82633713644464,344.82633713644464,344.82633713644464,l,1,0.5005259898025542,345.3430500413524,346.3681605254533,,,,,,,,,,,,,,,,,,,,,,,,,,,,,,,,,,,,,,,009551,2010-12-29_13h01.32.896,eb_02psyexp,2022.2.4,119.96809701393055,
136,0,136,0,,,,,,,,,,,,,,,,,,,,,,,,,,,,,,,,,,,,,,,,,,,,,,,,,,,,,,,,,,,346.3681605254533,346.3681605254533,346.3681605254533,346.3681605254533,346.3681605254533,346.3681605254533,l,1,0.4787340294569731,346.85988217638806,347.8932400700869,,,,,,,,,,,,,,,,,,,,,,,,,,,,,,,,,,,,,,,009551,2010-12-29_13h01.32.896,eb_02psyexp,2022.2.4,119.96809701393055,
137,0,137,0,,,,,,,,,,,,,,,,,,,,,,,,,,,,,,,,,,,,,,,,,,,,,,,,,,,,,,,,,,,347.8932400700869,347.8932400700869,347.8932400700869,347.8932400700869,347.8932400700869,347.8932400700869,s,1,0.45772385667078197,348.35996020422317,349.3767034448683,,,,,,,,,,,,,,,,,,,,,,,,,,,,,,,,,,,,,,,009551,2010-12-29_13h01.32.896,eb_02psyexp,2022.2.4,119.96809701393055,
138,0,138,0,,,,,,,,,,,,,,,,,,,,,,,,,,,,,,,,,,,,,,,,,,,,,,,,,,,,,,,,,,,349.3767034448683,349.3767034448683,349.3767034448683,349.3767034448683,349.3767034448683,349.3767034448683,l,1,0.3822399707278237,349.7684117842,350.793515929603,,,,,,,,,,,,,,,,,,,,,,,,,,,,,,,,,,,,,,,009551,2010-12-29_13h01.32.896,eb_02psyexp,2022.2.4,119.96809701393055,
139,0,139,0,,,,,,,,,,,,,,,,,,,,,,,,,,,,,,,,,,,,,,,,,,,,,,,,,,,,,,,,,,,350.793515929603,350.793515929603,350.793515929603,350.793515929603,350.793515929603,350.793515929603,s,1,0.5974538049194962,351.4018742986955,352.4186139171943,,,,,,,,,,,,,,,,,,,,,,,,,,,,,,,,,,,,,,,009551,2010-12-29_13h01.32.896,eb_02psyexp,2022.2.4,119.96809701393055,
140,0,140,0,,,,,,,,,,,,,,,,,,,,,,,,,,,,,,,,,,,,,,,,,,,,,,,,,,,,,,,,,,,352.4186139171943,352.4186139171943,352.4186139171943,352.4186139171943,352.4186139171943,352.4186139171943,l,1,0.4044122606283054,352.8353228678461,353.8604134299094,,,,,,,,,,,,,,,,,,,,,,,,,,,,,,,,,,,,,,,009551,2010-12-29_13h01.32.896,eb_02psyexp,2022.2.4,119.96809701393055,
141,0,141,0,,,,,,,,,,,,,,,,,,,,,,,,,,,,,,,,,,,,,,,,,,,,,,,,,,,,,,,,,,,353.8604134299094,353.8604134299094,353.8604134299094,353.8604134299094,353.8604134299094,353.8604134299094,s,1,0.4346028567524627,354.3104401284363,355.335523144342,,,,,,,,,,,,,,,,,,,,,,,,,,,,,,,,,,,,,,,009551,2010-12-29_13h01.32.896,eb_02psyexp,2022.2.4,119.96809701393055,
142,0,142,0,,,,,,,,,,,,,,,,,,,,,,,,,,,,,,,,,,,,,,,,,,,,,,,,,,,,,,,,,,,355.335523144342,355.335523144342,355.335523144342,355.335523144342,355.335523144342,355.335523144342,l,1,0.3595252591185272,355.71060113445856,356.7439701965777,,,,,,,,,,,,,,,,,,,,,,,,,,,,,,,,,,,,,,,009551,2010-12-29_13h01.32.896,eb_02psyexp,2022.2.4,119.96809701393055,
143,0,143,0,,,,,,,,,,,,,,,,,,,,,,,,,,,,,,,,,,,,,,,,,,,,,,,,,,,,,,,,,,,356.7439701965777,356.7439701965777,356.7439701965777,356.7439701965777,356.7439701965777,356.7439701965777,s,1,0.48710368759930134,357.24403071729466,358.26074498042,,,,,,,,,,,,,,,,,,,,,,,,,,,,,,,,,,,,,,,009551,2010-12-29_13h01.32.896,eb_02psyexp,2022.2.4,119.96809701393055,
144,0,144,0,,,,,,,,,,,,,,,,,,,,,,,,,,,,,,,,,,,,,,,,,,,,,,,,,,,,,,,,,,,358.26074498042,358.26074498042,358.26074498042,358.26074498042,358.26074498042,358.26074498042,l,1,0.4023853470571339,358.6774647976272,359.71092894207686,,,,,,,,,,,,,,,,,,,,,,,,,,,,,,,,,,,,,,,009551,2010-12-29_13h01.32.896,eb_02psyexp,2022.2.4,119.96809701393055,
145,0,145,0,,,,,,,,,,,,,,,,,,,,,,,,,,,,,,,,,,,,,,,,,,,,,,,,,,,,,,,,,,,359.71092894207686,359.71092894207686,359.71092894207686,359.71092894207686,359.71092894207686,359.71092894207686,s,1,0.4231567574897781,360.14428846584633,361.1693654448027,,,,,,,,,,,,,,,,,,,,,,,,,,,,,,,,,,,,,,,009551,2010-12-29_13h01.32.896,eb_02psyexp,2022.2.4,119.96809701393055,
146,0,146,0,,,,,,,,,,,,,,,,,,,,,,,,,,,,,,,,,,,,,,,,,,,,,,,,,,,,,,,,,,,361.1693654448027,361.1693654448027,361.1693654448027,361.1693654448027,361.1693654448027,361.1693654448027,l,1,0.4207757755648345,361.6027204407146,362.6361230080947,,,,,,,,,,,,,,,,,,,,,,,,,,,,,,,,,,,,,,,009551,2010-12-29_13h01.32.896,eb_02psyexp,2022.2.4,119.96809701393055,
147,0,147,0,,,,,,,,,,,,,,,,,,,,,,,,,,,,,,,,,,,,,,,,,,,,,,,,,,,,,,,,,,,362.6361230080947,362.6361230080947,362.6361230080947,362.6361230080947,362.6361230080947,362.6361230080947,s,1,0.570045649074018,363.21952453406993,364.2362744153943,,,,,,,,,,,,,,,,,,,,,,,,,,,,,,,,,,,,,,,009551,2010-12-29_13h01.32.896,eb_02psyexp,2022.2.4,119.96809701393055,
148,0,148,0,,,,,,,,,,,,,,,,,,,,,,,,,,,,,,,,,,,,,,,,,,,,,,,,,,,,,,,,,,,364.2362744153943,364.2362744153943,364.2362744153943,364.2362744153943,364.2362744153943,364.2362744153943,l,1,0.35392898588906974,364.60296765482053,365.63636841101106,,,,,,,,,,,,,,,,,,,,,,,,,,,,,,,,,,,,,,,009551,2010-12-29_13h01.32.896,eb_02psyexp,2022.2.4,119.96809701393055,
149,0,149,0,,,,,,,,,,,,,,,,,,,,,,,,,,,,,,,,,,,,,,,,,,,,,,,,,,,,,,,,,,,365.63636841101106,365.63636841101106,365.63636841101106,365.63636841101106,365.63636841101106,365.63636841101106,s,1,0.4178738030605018,366.0697430272121,367.09483992808964,,,,,,,,,,,,,,,,,,,,,,,,,,,,,,,,,,,,,,,009551,2010-12-29_13h01.32.896,eb_02psyexp,2022.2.4,119.96809701393055,
150,0,150,0,,,,,,,,,,,,,,,,,,,,,,,,,,,,,,,,,,,,,,,,,,,,,,,,,,,,,,,,,,,367.09483992808964,367.09483992808964,367.09483992808964,367.09483992808964,367.09483992808964,367.09483992808964,l,1,0.4633958940394223,367.5698663323419,368.60329697164707,,,,,,,,,,,,,,,,,,,,,,,,,,,,,,,,,,,,,,,009551,2010-12-29_13h01.32.896,eb_02psyexp,2022.2.4,119.96809701393055,
151,0,151,0,,,,,,,,,,,,,,,,,,,,,,,,,,,,,,,,,,,,,,,,,,,,,,,,,,,,,,,,,,,368.60329697164707,368.60329697164707,368.60329697164707,368.60329697164707,368.60329697164707,368.60329697164707,s,1,0.4750019731000066,369.08665620861575,370.1117639760487,,,,,,,,,,,,,,,,,,,,,,,,,,,,,,,,,,,,,,,009551,2010-12-29_13h01.32.896,eb_02psyexp,2022.2.4,119.96809701393055,
152,0,152,0,,,,,,,,,,,,,,,,,,,,,,,,,,,,,,,,,,,,,,,,,,,,,,,,,,,,,,,,,,,370.1117639760487,370.1117639760487,370.1117639760487,370.1117639760487,370.1117639760487,370.1117639760487,l,1,0.5025704104918987,370.6284566570539,371.6619054072071,,,,,,,,,,,,,,,,,,,,,,,,,,,,,,,,,,,,,,,009551,2010-12-29_13h01.32.896,eb_02psyexp,2022.2.4,119.96809701393055,
153,0,153,0,,,,,,,,,,,,,,,,,,,,,,,,,,,,,,,,,,,,,,,,,,,,,,,,,,,,,,,,,,,371.6619054072071,371.6619054072071,371.6619054072071,371.6619054072071,371.6619054072071,371.6619054072071,s,1,0.6804208197863773,372.3535924059106,373.37867904407904,,,,,,,,,,,,,,,,,,,,,,,,,,,,,,,,,,,,,,,009551,2010-12-29_13h01.32.896,eb_02psyexp,2022.2.4,119.96809701393055,
154,0,154,0,,,,,,,,,,,,,,,,,,,,,,,,,,,,,,,,,,,,,,,,,,,,,,,,,,,,,,,,,,,373.37867904407904,373.37867904407904,373.37867904407904,373.37867904407904,373.37867904407904,373.37867904407904,l,1,0.4757113173836842,373.8703958654078,374.8871137506794,,,,,,,,,,,,,,,,,,,,,,,,,,,,,,,,,,,,,,,009551,2010-12-29_13h01.32.896,eb_02psyexp,2022.2.4,119.96809701393055,
155,0,155,0,,,,,,,,,,,,,,,,,,,,,,,,,,,,,,,,,,,,,,,,,,,,,,,,,,,,,,,,,,,374.8871137506794,374.8871137506794,374.8871137506794,374.8871137506794,374.8871137506794,374.8871137506794,l,1,0.42224638198968023,375.32051251479425,376.34561243420467,,,,,,,,,,,,,,,,,,,,,,,,,,,,,,,,,,,,,,,009551,2010-12-29_13h01.32.896,eb_02psyexp,2022.2.4,119.96809701393055,
156,0,156,0,,,,,,,,,,,,,,,,,,,,,,,,,,,,,,,,,,,,,,,,,,,,,,,,,,,,,,,,,,,376.34561243420467,376.34561243420467,376.34561243420467,376.34561243420467,376.34561243420467,376.34561243420467,s,1,0.47581937920767814,376.83730993722565,377.8624023104785,,,,,,,,,,,,,,,,,,,,,,,,,,,,,,,,,,,,,,,009551,2010-12-29_13h01.32.896,eb_02psyexp,2022.2.4,119.96809701393055,
157,0,157,0,,,,,,,,,,,,,,,,,,,,,,,,,,,,,,,,,,,,,,,,,,,,,,,,,,,,,,,,,,,377.8624023104785,377.8624023104785,377.8624023104785,377.8624023104785,377.8624023104785,377.8624023104785,l,1,0.43900441320147365,378.31245496787596,379.3291484034853,,,,,,,,,,,,,,,,,,,,,,,,,,,,,,,,,,,,,,,009551,2010-12-29_13h01.32.896,eb_02psyexp,2022.2.4,119.96809701393055,
158,0,158,0,,,,,,,,,,,,,,,,,,,,,,,,,,,,,,,,,,,,,,,,,,,,,,,,,,,,,,,,,,,379.3291484034853,379.3291484034853,379.3291484034853,379.3291484034853,379.3291484034853,379.3291484034853,s,0,0.6123225656338036,379.95423371344805,380.97094888216816,,,,,,,,,,,,,,,,,,,,,,,,,,,,,,,,,,,,,,,009551,2010-12-29_13h01.32.896,eb_02psyexp,2022.2.4,119.96809701393055,
159,0,159,0,,,,,,,,,,,,,,,,,,,,,,,,,,,,,,,,,,,,,,,,,,,,,,,,,,,,,,,,,,,380.97094888216816,380.97094888216816,380.97094888216816,380.97094888216816,380.97094888216816,380.97094888216816,s,1,4.258656206657179,385.2380085355835,386.2630933626788,,,,,,,,,,,,,,,,,,,,,,,,,,,,,,,,,,,,,,,009551,2010-12-29_13h01.32.896,eb_02psyexp,2022.2.4,119.96809701393055,
160,0,160,0,,,,,,,,,,,,,,,,,,,,,,,,,,,,,,,,,,,,,,,,,,,,,,,,,,,,,,,,,,,386.2630933626788,386.2630933626788,386.2630933626788,386.2630933626788,386.2630933626788,386.2630933626788,s,1,0.9745372772449628,387.246482331655,388.2799193097744,,,,,,,,,,,,,,,,,,,,,,,,,,,,,,,,,,,,,,,009551,2010-12-29_13h01.32.896,eb_02psyexp,2022.2.4,119.96809701393055,
161,0,161,0,,,,,,,,,,,,,,,,,,,,,,,,,,,,,,,,,,,,,,,,,,,,,,,,,,,,,,,,,,,388.2799193097744,388.2799193097744,388.2799193097744,388.2799193097744,388.2799193097744,388.2799193097744,l,1,0.8457113082986325,389.13834446296096,390.15506144275423,,,,,,,,,,,,,,,,,,,,,,,,,,,,,,,,,,,,,,,009551,2010-12-29_13h01.32.896,eb_02psyexp,2022.2.4,119.96809701393055,
162,0,162,0,,,,,,,,,,,,,,,,,,,,,,,,,,,,,,,,,,,,,,,,,,,,,,,,,,,,,,,,,,,390.15506144275423,390.15506144275423,390.15506144275423,390.15506144275423,390.15506144275423,390.15506144275423,l,1,0.9775962108979002,391.14680618513376,392.171922706184,,,,,,,,,,,,,,,,,,,,,,,,,,,,,,,,,,,,,,,009551,2010-12-29_13h01.32.896,eb_02psyexp,2022.2.4,119.96809701393055,
163,0,163,0,,,,,,,,,,,,,,,,,,,,,,,,,,,,,,,,,,,,,,,,,,,,,,,,,,,,,,,,,,,392.171922706184,392.171922706184,392.171922706184,392.171922706184,392.171922706184,392.171922706184,l,1,1.584780389093794,393.7720252139261,394.78875517321285,,,,,,,,,,,,,,,,,,,,,,,,,,,,,,,,,,,,,,,009551,2010-12-29_13h01.32.896,eb_02psyexp,2022.2.4,119.96809701393055,
164,0,164,0,,,,,,,,,,,,,,,,,,,,,,,,,,,,,,,,,,,,,,,,,,,,,,,,,,,,,,,,,,,394.78875517321285,394.78875517321285,394.78875517321285,394.78875517321285,394.78875517321285,394.78875517321285,l,1,0.6160497922683135,395.41383897396736,396.4389114251826,,,,,,,,,,,,,,,,,,,,,,,,,,,,,,,,,,,,,,,009551,2010-12-29_13h01.32.896,eb_02psyexp,2022.2.4,119.96809701393055,
165,0,165,0,,,,,,,,,,,,,,,,,,,,,,,,,,,,,,,,,,,,,,,,,,,,,,,,,,,,,,,,,,,396.4389114251826,396.4389114251826,396.4389114251826,396.4389114251826,396.4389114251826,396.4389114251826,l,1,0.4378567847888917,396.8889444625238,397.91404257086106,,,,,,,,,,,,,,,,,,,,,,,,,,,,,,,,,,,,,,,009551,2010-12-29_13h01.32.896,eb_02psyexp,2022.2.4,119.96809701393055,
166,0,166,0,,,,,,,,,,,,,,,,,,,,,,,,,,,,,,,,,,,,,,,,,,,,,,,,,,,,,,,,,,,397.91404257086106,397.91404257086106,397.91404257086106,397.91404257086106,397.91404257086106,397.91404257086106,s,1,0.5627206888748333,398.4890982846264,399.5141873374814,,,,,,,,,,,,,,,,,,,,,,,,,,,,,,,,,,,,,,,009551,2010-12-29_13h01.32.896,eb_02psyexp,2022.2.4,119.96809701393055,
167,0,167,0,,,,,,,,,,,,,,,,,,,,,,,,,,,,,,,,,,,,,,,,,,,,,,,,,,,,,,,,,,,399.5141873374814,399.5141873374814,399.5141873374814,399.5141873374814,399.5141873374814,399.5141873374814,l,1,1.0586350170196965,400.58926463336684,401.61436968424823,,,,,,,,,,,,,,,,,,,,,,,,,,,,,,,,,,,,,,,009551,2010-12-29_13h01.32.896,eb_02psyexp,2022.2.4,119.96809701393055,
168,0,168,0,,,,,,,,,,,,,,,,,,,,,,,,,,,,,,,,,,,,,,,,,,,,,,,,,,,,,,,,,,,401.61436968424823,401.61436968424823,401.61436968424823,401.61436968424823,401.61436968424823,401.61436968424823,s,1,0.44648271263577044,402.0727207637392,403.0894416675437,,,,,,,,,,,,,,,,,,,,,,,,,,,,,,,,,,,,,,,009551,2010-12-29_13h01.32.896,eb_02psyexp,2022.2.4,119.96809701393055,
169,0,169,0,,,,,,,,,,,,,,,,,,,,,,,,,,,,,,,,,,,,,,,,,,,,,,,,,,,,,,,,,,,403.0894416675437,403.0894416675437,403.0894416675437,403.0894416675437,403.0894416675437,403.0894416675437,l,1,0.427440291037783,403.5311639070278,404.55622639728244,,,,,,,,,,,,,,,,,,,,,,,,,,,,,,,,,,,,,,,009551,2010-12-29_13h01.32.896,eb_02psyexp,2022.2.4,119.96809701393055,
170,0,170,0,,,,,,,,,,,,,,,,,,,,,,,,,,,,,,,,,,,,,,,,,,,,,,,,,,,,,,,,,,,404.55622639728244,404.55622639728244,404.55622639728244,404.55622639728244,404.55622639728244,404.55622639728244,s,1,0.49668164597824216,405.0646571798716,406.0897039739648,,,,,,,,,,,,,,,,,,,,,,,,,,,,,,,,,,,,,,,009551,2010-12-29_13h01.32.896,eb_02psyexp,2022.2.4,119.96809701393055,
171,0,171,0,,,,,,,,,,,,,,,,,,,,,,,,,,,,,,,,,,,,,,,,,,,,,,,,,,,,,,,,,,,406.0897039739648,406.0897039739648,406.0897039739648,406.0897039739648,406.0897039739648,406.0897039739648,l,1,0.5782314816024154,406.6814383327728,407.7065183301456,,,,,,,,,,,,,,,,,,,,,,,,,,,,,,,,,,,,,,,009551,2010-12-29_13h01.32.896,eb_02psyexp,2022.2.4,119.96809701393055,
172,0,172,0,,,,,,,,,,,,,,,,,,,,,,,,,,,,,,,,,,,,,,,,,,,,,,,,,,,,,,,,,,,407.7065183301456,407.7065183301456,407.7065183301456,407.7065183301456,407.7065183301456,407.7065183301456,s,1,0.5294370498741046,408.2482538812328,409.2733079196187,,,,,,,,,,,,,,,,,,,,,,,,,,,,,,,,,,,,,,,009551,2010-12-29_13h01.32.896,eb_02psyexp,2022.2.4,119.96809701393055,
173,0,173,0,,,,,,,,,,,,,,,,,,,,,,,,,,,,,,,,,,,,,,,,,,,,,,,,,,,,,,,,,,,409.2733079196187,409.2733079196187,409.2733079196187,409.2733079196187,409.2733079196187,409.2733079196187,l,1,0.4346547747263685,409.72335846419446,410.75678940536454,,,,,,,,,,,,,,,,,,,,,,,,,,,,,,,,,,,,,,,009551,2010-12-29_13h01.32.896,eb_02psyexp,2022.2.4,119.96809701393055,
174,0,174,0,,,,,,,,,,,,,,,,,,,,,,,,,,,,,,,,,,,,,,,,,,,,,,,,,,,,,,,,,,,410.75678940536454,410.75678940536454,410.75678940536454,410.75678940536454,410.75678940536454,410.75678940536454,s,1,0.41522447776515037,411.18182786833495,412.1985695997719,,,,,,,,,,,,,,,,,,,,,,,,,,,,,,,,,,,,,,,009551,2010-12-29_13h01.32.896,eb_02psyexp,2022.2.4,119.96809701393055,
175,0,175,0,,,,,,,,,,,,,,,,,,,,,,,,,,,,,,,,,,,,,,,,,,,,,,,,,,,,,,,,,,,412.1985695997719,412.1985695997719,412.1985695997719,412.1985695997719,412.1985695997719,412.1985695997719,l,1,0.36547831736970693,412.5735715240007,413.5987040430773,,,,,,,,,,,,,,,,,,,,,,,,,,,,,,,,,,,,,,,009551,2010-12-29_13h01.32.896,eb_02psyexp,2022.2.4,119.96809701393055,
176,0,176,0,,,,,,,,,,,,,,,,,,,,,,,,,,,,,,,,,,,,,,,,,,,,,,,,,,,,,,,,,,,413.5987040430773,413.5987040430773,413.5987040430773,413.5987040430773,413.5987040430773,413.5987040430773,l,1,0.40535100968554616,414.01538371446077,415.0487977520097,,,,,,,,,,,,,,,,,,,,,,,,,,,,,,,,,,,,,,,009551,2010-12-29_13h01.32.896,eb_02psyexp,2022.2.4,119.96809701393055,
177,0,177,0,,,,,,,,,,,,,,,,,,,,,,,,,,,,,,,,,,,,,,,,,,,,,,,,,,,,,,,,,,,415.0487977520097,415.0487977520097,415.0487977520097,415.0487977520097,415.0487977520097,415.0487977520097,s,1,0.45130866824183613,415.51550430292264,416.53225599532016,,,,,,,,,,,,,,,,,,,,,,,,,,,,,,,,,,,,,,,009551,2010-12-29_13h01.32.896,eb_02psyexp,2022.2.4,119.96809701393055,
178,0,178,0,,,,,,,,,,,,,,,,,,,,,,,,,,,,,,,,,,,,,,,,,,,,,,,,,,,,,,,,,,,416.53225599532016,416.53225599532016,416.53225599532016,416.53225599532016,416.53225599532016,416.53225599532016,l,1,0.3838581811869517,416.93228298064787,417.95739437034354,,,,,,,,,,,,,,,,,,,,,,,,,,,,,,,,,,,,,,,009551,2010-12-29_13h01.32.896,eb_02psyexp,2022.2.4,119.96809701393055,
179,0,179,0,,,,,,,,,,,,,,,,,,,,,,,,,,,,,,,,,,,,,,,,,,,,,,,,,,,,,,,,,,,417.95739437034354,417.95739437034354,417.95739437034354,417.95739437034354,417.95739437034354,417.95739437034354,s,1,0.4707471150904894,418.4407379111508,419.4658399434993,,,,,,,,,,,,,,,,,,,,,,,,,,,,,,,,,,,,,,,009551,2010-12-29_13h01.32.896,eb_02psyexp,2022.2.4,119.96809701393055,
180,0,180,0,,,,,,,,,,,,,,,,,,,,,,,,,,,,,,,,,,,,,,,,,,,,,,,,,,,,,,,,,,,419.4658399434993,419.4658399434993,419.4658399434993,419.4658399434993,419.4658399434993,419.4658399434993,l,1,0.37032811902463436,419.84919341513887,420.8743250287371,,,,,,,,,,,,,,,,,,,,,,,,,,,,,,,,,,,,,,,009551,2010-12-29_13h01.32.896,eb_02psyexp,2022.2.4,119.96809701393055,
181,0,181,0,,,,,,,,,,,,,,,,,,,,,,,,,,,,,,,,,,,,,,,,,,,,,,,,,,,,,,,,,,,420.8743250287371,420.8743250287371,420.8743250287371,420.8743250287371,420.8743250287371,420.8743250287371,s,1,0.4258661506464705,421.3159561100183,422.3410581423668,,,,,,,,,,,,,,,,,,,,,,,,,,,,,,,,,,,,,,,009551,2010-12-29_13h01.32.896,eb_02psyexp,2022.2.4,119.96809701393055,
182,0,182,0,,,,,,,,,,,,,,,,,,,,,,,,,,,,,,,,,,,,,,,,,,,,,,,,,,,,,,,,,,,422.3410581423668,422.3410581423668,422.3410581423668,422.3410581423668,422.3410581423668,422.3410581423668,l,1,0.40616056765429676,422.75776075408794,423.7911793194944,,,,,,,,,,,,,,,,,,,,,,,,,,,,,,,,,,,,,,,009551,2010-12-29_13h01.32.896,eb_02psyexp,2022.2.4,119.96809701393055,
183,0,183,0,,,,,,,,,,,,,,,,,,,,,,,,,,,,,,,,,,,,,,,,,,,,,,,,,,,,,,,,,,,423.7911793194944,423.7911793194944,423.7911793194944,423.7911793194944,423.7911793194944,423.7911793194944,s,1,0.40409169730264693,424.20788676082157,425.2329616268398,,,,,,,,,,,,,,,,,,,,,,,,,,,,,,,,,,,,,,,009551,2010-12-29_13h01.32.896,eb_02psyexp,2022.2.4,119.96809701393055,
184,0,184,0,,,,,,,,,,,,,,,,,,,,,,,,,,,,,,,,,,,,,,,,,,,,,,,,,,,,,,,,,,,425.2329616268398,425.2329616268398,425.2329616268398,425.2329616268398,425.2329616268398,425.2329616268398,l,1,0.4502769496757537,425.6996862887172,426.7247194995871,,,,,,,,,,,,,,,,,,,,,,,,,,,,,,,,,,,,,,,009551,2010-12-29_13h01.32.896,eb_02psyexp,2022.2.4,119.96809701393055,
185,0,185,0,,,,,,,,,,,,,,,,,,,,,,,,,,,,,,,,,,,,,,,,,,,,,,,,,,,,,,,,,,,426.7247194995871,426.7247194995871,426.7247194995871,426.7247194995871,426.7247194995871,426.7247194995871,s,1,0.4945723279379308,427.23312885093037,428.2498717897106,,,,,,,,,,,,,,,,,,,,,,,,,,,,,,,,,,,,,,,009551,2010-12-29_13h01.32.896,eb_02psyexp,2022.2.4,119.96809701393055,
186,0,186,0,,,,,,,,,,,,,,,,,,,,,,,,,,,,,,,,,,,,,,,,,,,,,,,,,,,,,,,,,,,428.2498717897106,428.2498717897106,428.2498717897106,428.2498717897106,428.2498717897106,428.2498717897106,l,1,0.393440667190589,428.6582267782651,429.68333605490625,,,,,,,,,,,,,,,,,,,,,,,,,,,,,,,,,,,,,,,009551,2010-12-29_13h01.32.896,eb_02psyexp,2022.2.4,119.96809701393055,
187,0,187,0,,,,,,,,,,,,,,,,,,,,,,,,,,,,,,,,,,,,,,,,,,,,,,,,,,,,,,,,,,,429.68333605490625,429.68333605490625,429.68333605490625,429.68333605490625,429.68333605490625,429.68333605490625,s,1,0.4880089316284284,430.1833778610453,431.20847566751763,,,,,,,,,,,,,,,,,,,,,,,,,,,,,,,,,,,,,,,009551,2010-12-29_13h01.32.896,eb_02psyexp,2022.2.4,119.96809701393055,
188,0,188,0,,,,,,,,,,,,,,,,,,,,,,,,,,,,,,,,,,,,,,,,,,,,,,,,,,,,,,,,,,,431.20847566751763,431.20847566751763,431.20847566751763,431.20847566751763,431.20847566751763,431.20847566751763,l,1,0.4188910329248756,431.6418297579512,432.675246814033,,,,,,,,,,,,,,,,,,,,,,,,,,,,,,,,,,,,,,,009551,2010-12-29_13h01.32.896,eb_02psyexp,2022.2.4,119.96809701393055,
189,0,189,0,,,,,,,,,,,,,,,,,,,,,,,,,,,,,,,,,,,,,,,,,,,,,,,,,,,,,,,,,,,432.675246814033,432.675246814033,432.675246814033,432.675246814033,432.675246814033,432.675246814033,s,1,0.7361553547671065,433.42530499538407,434.4587253717473,,,,,,,,,,,,,,,,,,,,,,,,,,,,,,,,,,,,,,,009551,2010-12-29_13h01.32.896,eb_02psyexp,2022.2.4,119.96809701393055,
190,0,190,0,,,,,,,,,,,,,,,,,,,,,,,,,,,,,,,,,,,,,,,,,,,,,,,,,,,,,,,,,,,434.4587253717473,434.4587253717473,434.4587253717473,434.4587253717473,434.4587253717473,434.4587253717473,l,1,0.608741735573858,435.08376117853913,436.10888313292526,,,,,,,,,,,,,,,,,,,,,,,,,,,,,,,,,,,,,,,009551,2010-12-29_13h01.32.896,eb_02psyexp,2022.2.4,119.96809701393055,
191,0,191,0,,,,,,,,,,,,,,,,,,,,,,,,,,,,,,,,,,,,,,,,,,,,,,,,,,,,,,,,,,,436.10888313292526,436.10888313292526,436.10888313292526,436.10888313292526,436.10888313292526,436.10888313292526,s,1,0.5666365709621459,436.683911378379,437.71732903819066,,,,,,,,,,,,,,,,,,,,,,,,,,,,,,,,,,,,,,,009551,2010-12-29_13h01.32.896,eb_02psyexp,2022.2.4,119.96809701393055,
192,0,192,0,,,,,,,,,,,,,,,,,,,,,,,,,,,,,,,,,,,,,,,,,,,,,,,,,,,,,,,,,,,437.71732903819066,437.71732903819066,437.71732903819066,437.71732903819066,437.71732903819066,437.71732903819066,l,1,0.461137764621526,438.1923714403529,439.20908087398857,,,,,,,,,,,,,,,,,,,,,,,,,,,,,,,,,,,,,,,009551,2010-12-29_13h01.32.896,eb_02psyexp,2022.2.4,119.96809701393055,
193,0,193,0,,,,,,,,,,,,,,,,,,,,,,,,,,,,,,,,,,,,,,,,,,,,,,,,,,,,,,,,,,,439.20908087398857,439.20908087398857,439.20908087398857,439.20908087398857,439.20908087398857,439.20908087398857,l,1,1.3854501307941973,440.60924459667876,441.6343191608321,,,,,,,,,,,,,,,,,,,,,,,,,,,,,,,,,,,,,,,009551,2010-12-29_13h01.32.896,eb_02psyexp,2022.2.4,119.96809701393055,
194,0,194,0,,,,,,,,,,,,,,,,,,,,,,,,,,,,,,,,,,,,,,,,,,,,,,,,,,,,,,,,,,,441.6343191608321,441.6343191608321,441.6343191608321,441.6343191608321,441.6343191608321,441.6343191608321,l,1,0.5922351442277431,442.2427158646751,443.25944310741033,,,,,,,,,,,,,,,,,,,,,,,,,,,,,,,,,,,,,,,009551,2010-12-29_13h01.32.896,eb_02psyexp,2022.2.4,119.96809701393055,
195,0,195,0,,,,,,,,,,,,,,,,,,,,,,,,,,,,,,,,,,,,,,,,,,,,,,,,,,,,,,,,,,,443.25944310741033,443.25944310741033,443.25944310741033,443.25944310741033,443.25944310741033,443.25944310741033,l,1,0.8071441112551838,444.07616696937475,445.09290085267276,,,,,,,,,,,,,,,,,,,,,,,,,,,,,,,,,,,,,,,009551,2010-12-29_13h01.32.896,eb_02psyexp,2022.2.4,119.96809701393055,
196,0,196,0,,,,,,,,,,,,,,,,,,,,,,,,,,,,,,,,,,,,,,,,,,,,,,,,,,,,,,,,,,,445.09290085267276,445.09290085267276,445.09290085267276,445.09290085267276,445.09290085267276,445.09290085267276,s,1,0.5897162175970152,445.69298856984824,446.70974448812194,,,,,,,,,,,,,,,,,,,,,,,,,,,,,,,,,,,,,,,009551,2010-12-29_13h01.32.896,eb_02psyexp,2022.2.4,119.96809701393055,
197,0,197,0,,,,,,,,,,,,,,,,,,,,,,,,,,,,,,,,,,,,,,,,,,,,,,,,,,,,,,,,,,,446.70974448812194,446.70974448812194,446.70974448812194,446.70974448812194,446.70974448812194,446.70974448812194,s,1,0.5009096395224333,447.22642479336355,448.2598545270739,,,,,,,,,,,,,,,,,,,,,,,,,,,,,,,,,,,,,,,009551,2010-12-29_13h01.32.896,eb_02psyexp,2022.2.4,119.96809701393055,
198,0,198,0,,,,,,,,,,,,,,,,,,,,,,,,,,,,,,,,,,,,,,,,,,,,,,,,,,,,,,,,,,,448.2598545270739,448.2598545270739,448.2598545270739,448.2598545270739,448.2598545270739,448.2598545270739,l,1,0.550813062931411,448.8265961225843,449.86000110476743,,,,,,,,,,,,,,,,,,,,,,,,,,,,,,,,,,,,,,,009551,2010-12-29_13h01.32.896,eb_02psyexp,2022.2.4,119.96809701393055,
199,0,199,0,,,,,0,0,0,0,,,,,,,,,,,,,,,,,,,,,,,,,,,,,,,,,,,,,,,,,,,,,,,,,,,449.86000110476743,449.86000110476743,449.86000110476743,449.86000110476743,449.86000110476743,449.86000110476743,s,1,0.9187227522488683,450.7934018308297,451.7934857447399,451.7934857447399,451.7934857447399,space,58.47022491705138,,,,,,,,,,,,,,,,,,,,,,,,,,,,,,,,,,,009551,2010-12-29_13h01.32.896,eb_02psyexp,2022.2.4,119.96809701393055,
199,0,199,0,,,,,,,,,,,,,,,,,,,,,,,,,,,,,,,,,,,,,,,,,,,,,,,,,,,,,,,,,,,,,,,,,,,,,,,,,,,,,,,,,,,,,,,,,,,,,,,,,,,,,,,,,,,,009551,2010-12-29_13h01.32.896,eb_02psyexp,2022.2.4,119.96809701393055,
200,0,200,0,,,,,,,,,,,,,,,,,,,,,,,,,,,,,,,,,,,,,,,,,,,,,,,,,,,,,,,,,,,510.29833207512274,510.29833207512274,510.29833207512274,510.29833207512274,510.29833207512274,510.29833207512274,l,1,3.2934599553700536,513.6069079865701,514.6319665526971,,,,,,,,,,,,,,,,,,,,,,,,,,,,,,,,,,,,,,,009551,2010-12-29_13h01.32.896,eb_02psyexp,2022.2.4,119.96809701393055,
201,0,201,0,,,,,,,,,,,,,,,,,,,,,,,,,,,,,,,,,,,,,,,,,,,,,,,,,,,,,,,,,,,514.6319665526971,514.6319665526971,514.6319665526971,514.6319665526971,514.6319665526971,514.6319665526971,s,1,1.5670316906180233,516.2071221782826,517.2321910073515,,,,,,,,,,,,,,,,,,,,,,,,,,,,,,,,,,,,,,,009551,2010-12-29_13h01.32.896,eb_02psyexp,2022.2.4,119.96809701393055,
202,0,202,0,,,,,,,,,,,,,,,,,,,,,,,,,,,,,,,,,,,,,,,,,,,,,,,,,,,,,,,,,,,517.2321910073515,517.2321910073515,517.2321910073515,517.2321910073515,517.2321910073515,517.2321910073515,l,1,0.5106844030087814,517.7572373487055,518.77400262421,,,,,,,,,,,,,,,,,,,,,,,,,,,,,,,,,,,,,,,009551,2010-12-29_13h01.32.896,eb_02psyexp,2022.2.4,119.96809701393055,
203,0,203,0,,,,,,,,,,,,,,,,,,,,,,,,,,,,,,,,,,,,,,,,,,,,,,,,,,,,,,,,,,,518.77400262421,518.77400262421,518.77400262421,518.77400262421,518.77400262421,518.77400262421,l,1,0.5208817545790225,519.3073935704306,520.3407901007449,,,,,,,,,,,,,,,,,,,,,,,,,,,,,,,,,,,,,,,009551,2010-12-29_13h01.32.896,eb_02psyexp,2022.2.4,119.96809701393055,
204,0,204,0,,,,,,,,,,,,,,,,,,,,,,,,,,,,,,,,,,,,,,,,,,,,,,,,,,,,,,,,,,,520.3407901007449,520.3407901007449,520.3407901007449,520.3407901007449,520.3407901007449,520.3407901007449,l,1,0.8661724183475599,521.2158806176158,522.2492979755625,,,,,,,,,,,,,,,,,,,,,,,,,,,,,,,,,,,,,,,009551,2010-12-29_13h01.32.896,eb_02psyexp,2022.2.4,119.96809701393055,
205,0,205,0,,,,,,,,,,,,,,,,,,,,,,,,,,,,,,,,,,,,,,,,,,,,,,,,,,,,,,,,,,,522.2492979755625,522.2492979755625,522.2492979755625,522.2492979755625,522.2492979755625,522.2492979755625,s,1,0.509680152637884,522.77432892262,523.8077471860452,,,,,,,,,,,,,,,,,,,,,,,,,,,,,,,,,,,,,,,009551,2010-12-29_13h01.32.896,eb_02psyexp,2022.2.4,119.96809701393055,
206,0,206,0,,,,,,,,,,,,,,,,,,,,,,,,,,,,,,,,,,,,,,,,,,,,,,,,,,,,,,,,,,,523.8077471860452,523.8077471860452,523.8077471860452,523.8077471860452,523.8077471860452,523.8077471860452,l,1,0.5672577753430232,524.3911538434913,525.4078466753708,,,,,,,,,,,,,,,,,,,,,,,,,,,,,,,,,,,,,,,009551,2010-12-29_13h01.32.896,eb_02psyexp,2022.2.4,119.96809701393055,
207,0,207,0,,,,,,,,,,,,,,,,,,,,,,,,,,,,,,,,,,,,,,,,,,,,,,,,,,,,,,,,,,,525.4078466753708,525.4078466753708,525.4078466753708,525.4078466753708,525.4078466753708,525.4078466753708,l,1,0.895173127297312,526.3162944822107,527.34970369027,,,,,,,,,,,,,,,,,,,,,,,,,,,,,,,,,,,,,,,009551,2010-12-29_13h01.32.896,eb_02psyexp,2022.2.4,119.96809701393055,
208,0,208,0,,,,,,,,,,,,,,,,,,,,,,,,,,,,,,,,,,,,,,,,,,,,,,,,,,,,,,,,,,,527.34970369027,527.34970369027,527.34970369027,527.34970369027,527.34970369027,527.34970369027,l,1,0.41734315315261483,527.7831151320133,528.8165113604628,,,,,,,,,,,,,,,,,,,,,,,,,,,,,,,,,,,,,,,009551,2010-12-29_13h01.32.896,eb_02psyexp,2022.2.4,119.96809701393055,
209,0,209,0,,,,,,,,,,,,,,,,,,,,,,,,,,,,,,,,,,,,,,,,,,,,,,,,,,,,,,,,,,,528.8165113604628,528.8165113604628,528.8165113604628,528.8165113604628,528.8165113604628,528.8165113604628,s,1,0.5746150334598497,529.3998938699951,530.4165900222724,,,,,,,,,,,,,,,,,,,,,,,,,,,,,,,,,,,,,,,009551,2010-12-29_13h01.32.896,eb_02psyexp,2022.2.4,119.96809701393055,
210,0,210,0,,,,,,,,,,,,,,,,,,,,,,,,,,,,,,,,,,,,,,,,,,,,,,,,,,,,,,,,,,,530.4165900222724,530.4165900222724,530.4165900222724,530.4165900222724,530.4165900222724,530.4165900222724,s,1,0.6934993164613843,531.1250166393584,532.1584324880969,,,,,,,,,,,,,,,,,,,,,,,,,,,,,,,,,,,,,,,009551,2010-12-29_13h01.32.896,eb_02psyexp,2022.2.4,119.96809701393055,
211,0,211,0,,,,,,,,,,,,,,,,,,,,,,,,,,,,,,,,,,,,,,,,,,,,,,,,,,,,,,,,,,,532.1584324880969,532.1584324880969,532.1584324880969,532.1584324880969,532.1584324880969,532.1584324880969,s,1,0.47970417072065175,532.6501447816845,533.6668593466748,,,,,,,,,,,,,,,,,,,,,,,,,,,,,,,,,,,,,,,009551,2010-12-29_13h01.32.896,eb_02psyexp,2022.2.4,119.96809701393055,
212,0,212,0,,,,,,,,,,,,,,,,,,,,,,,,,,,,,,,,,,,,,,,,,,,,,,,,,,,,,,,,,,,533.6668593466748,533.6668593466748,533.6668593466748,533.6668593466748,533.6668593466748,533.6668593466748,l,1,0.491313268430531,534.1669331486337,535.1836489210837,,,,,,,,,,,,,,,,,,,,,,,,,,,,,,,,,,,,,,,009551,2010-12-29_13h01.32.896,eb_02psyexp,2022.2.4,119.96809701393055,
213,0,213,0,,,,,,,,,,,,,,,,,,,,,,,,,,,,,,,,,,,,,,,,,,,,,,,,,,,,,,,,,,,535.1836489210837,535.1836489210837,535.1836489210837,535.1836489210837,535.1836489210837,535.1836489210837,s,1,0.5025450552348047,535.7003947274061,536.7254783470416,,,,,,,,,,,,,,,,,,,,,,,,,,,,,,,,,,,,,,,009551,2010-12-29_13h01.32.896,eb_02psyexp,2022.2.4,119.96809701393055,
214,0,214,0,,,,,,,,,,,,,,,,,,,,,,,,,,,,,,,,,,,,,,,,,,,,,,,,,,,,,,,,,,,536.7254783470416,536.7254783470416,536.7254783470416,536.7254783470416,536.7254783470416,536.7254783470416,s,1,0.5847133786883205,537.32552833308,538.342277308926,,,,,,,,,,,,,,,,,,,,,,,,,,,,,,,,,,,,,,,009551,2010-12-29_13h01.32.896,eb_02psyexp,2022.2.4,119.96809701393055,
215,0,215,0,,,,,,,,,,,,,,,,,,,,,,,,,,,,,,,,,,,,,,,,,,,,,,,,,,,,,,,,,,,538.342277308926,538.342277308926,538.342277308926,538.342277308926,538.342277308926,538.342277308926,s,1,0.7439665931742638,539.1006616823142,540.1257763922913,,,,,,,,,,,,,,,,,,,,,,,,,,,,,,,,,,,,,,,009551,2010-12-29_13h01.32.896,eb_02psyexp,2022.2.4,119.96809701393055,
216,0,216,0,,,,,,,,,,,,,,,,,,,,,,,,,,,,,,,,,,,,,,,,,,,,,,,,,,,,,,,,,,,540.1257763922913,540.1257763922913,540.1257763922913,540.1257763922913,540.1257763922913,540.1257763922913,s,1,0.4964754832908511,540.6341528422199,541.6508713312214,,,,,,,,,,,,,,,,,,,,,,,,,,,,,,,,,,,,,,,009551,2010-12-29_13h01.32.896,eb_02psyexp,2022.2.4,119.96809701393055,
217,0,217,0,,,,,,,,,,,,,,,,,,,,,,,,,,,,,,,,,,,,,,,,,,,,,,,,,,,,,,,,,,,541.6508713312214,541.6508713312214,541.6508713312214,541.6508713312214,541.6508713312214,541.6508713312214,s,1,0.4274276135256514,542.0925727431895,543.1093534131069,,,,,,,,,,,,,,,,,,,,,,,,,,,,,,,,,,,,,,,009551,2010-12-29_13h01.32.896,eb_02psyexp,2022.2.4,119.96809701393055,
218,0,218,0,,,,,,,,,,,,,,,,,,,,,,,,,,,,,,,,,,,,,,,,,,,,,,,,,,,,,,,,,,,543.1093534131069,543.1093534131069,543.1093534131069,543.1093534131069,543.1093534131069,543.1093534131069,l,1,0.608979894197546,543.7343862013659,544.7594969873317,,,,,,,,,,,,,,,,,,,,,,,,,,,,,,,,,,,,,,,009551,2010-12-29_13h01.32.896,eb_02psyexp,2022.2.4,119.96809701393055,
219,0,219,0,,,,,,,,,,,,,,,,,,,,,,,,,,,,,,,,,,,,,,,,,,,,,,,,,,,,,,,,,,,544.7594969873317,544.7594969873317,544.7594969873317,544.7594969873317,544.7594969873317,544.7594969873317,l,1,0.46288426069077104,545.2344823401654,546.251228599227,,,,,,,,,,,,,,,,,,,,,,,,,,,,,,,,,,,,,,,009551,2010-12-29_13h01.32.896,eb_02psyexp,2022.2.4,119.96809701393055,
220,0,220,0,,,,,,,,,,,,,,,,,,,,,,,,,,,,,,,,,,,,,,,,,,,,,,,,,,,,,,,,,,,546.251228599227,546.251228599227,546.251228599227,546.251228599227,546.251228599227,546.251228599227,l,1,1.3941291838418692,547.6597164011328,548.6764626601944,,,,,,,,,,,,,,,,,,,,,,,,,,,,,,,,,,,,,,,009551,2010-12-29_13h01.32.896,eb_02psyexp,2022.2.4,119.96809701393055,
221,0,221,0,,,,,,,,,,,,,,,,,,,,,,,,,,,,,,,,,,,,,,,,,,,,,,,,,,,,,,,,,,,548.6764626601944,548.6764626601944,548.6764626601944,548.6764626601944,548.6764626601944,548.6764626601944,s,1,0.6729503684910014,549.3598376536975,550.3849674561061,,,,,,,,,,,,,,,,,,,,,,,,,,,,,,,,,,,,,,,009551,2010-12-29_13h01.32.896,eb_02psyexp,2022.2.4,119.96809701393055,
222,0,222,0,,,,,,,,,,,,,,,,,,,,,,,,,,,,,,,,,,,,,,,,,,,,,,,,,,,,,,,,,,,550.3849674561061,550.3849674561061,550.3849674561061,550.3849674561061,550.3849674561061,550.3849674561061,s,1,0.916524086962454,551.3099936943036,552.343437916832,,,,,,,,,,,,,,,,,,,,,,,,,,,,,,,,,,,,,,,009551,2010-12-29_13h01.32.896,eb_02psyexp,2022.2.4,119.96809701393055,
223,0,223,0,,,,,,,,,,,,,,,,,,,,,,,,,,,,,,,,,,,,,,,,,,,,,,,,,,,,,,,,,,,552.343437916832,552.343437916832,552.343437916832,552.343437916832,552.343437916832,552.343437916832,l,1,0.5180126836057752,552.8768047150224,553.9102087916108,,,,,,,,,,,,,,,,,,,,,,,,,,,,,,,,,,,,,,,009551,2010-12-29_13h01.32.896,eb_02psyexp,2022.2.4,119.96809701393055,
224,0,224,0,,,,,,,,,,,,,,,,,,,,,,,,,,,,,,,,,,,,,,,,,,,,,,,,,,,,,,,,,,,553.9102087916108,553.9102087916108,553.9102087916108,553.9102087916108,553.9102087916108,553.9102087916108,s,1,0.47928882704582065,554.4019325554837,555.4186658351682,,,,,,,,,,,,,,,,,,,,,,,,,,,,,,,,,,,,,,,009551,2010-12-29_13h01.32.896,eb_02psyexp,2022.2.4,119.96809701393055,
225,0,225,0,,,,,,,,,,,,,,,,,,,,,,,,,,,,,,,,,,,,,,,,,,,,,,,,,,,,,,,,,,,555.4186658351682,555.4186658351682,555.4186658351682,555.4186658351682,555.4186658351682,555.4186658351682,s,1,0.6028725911164656,556.0353959755739,557.060482311761,,,,,,,,,,,,,,,,,,,,,,,,,,,,,,,,,,,,,,,009551,2010-12-29_13h01.32.896,eb_02psyexp,2022.2.4,119.96809701393055,
226,0,226,0,,,,,,,,,,,,,,,,,,,,,,,,,,,,,,,,,,,,,,,,,,,,,,,,,,,,,,,,,,,557.060482311761,557.060482311761,557.060482311761,557.060482311761,557.060482311761,557.060482311761,s,1,0.4810806004097685,557.5521900776075,558.5856080392841,,,,,,,,,,,,,,,,,,,,,,,,,,,,,,,,,,,,,,,009551,2010-12-29_13h01.32.896,eb_02psyexp,2022.2.4,119.96809701393055,
227,0,227,0,,,,,,,,,,,,,,,,,,,,,,,,,,,,,,,,,,,,,,,,,,,,,,,,,,,,,,,,,,,558.5856080392841,558.5856080392841,558.5856080392841,558.5856080392841,558.5856080392841,558.5856080392841,l,1,0.5239904935006052,559.1190119648818,560.1357428297633,,,,,,,,,,,,,,,,,,,,,,,,,,,,,,,,,,,,,,,009551,2010-12-29_13h01.32.896,eb_02psyexp,2022.2.4,119.96809701393055,
228,0,228,0,,,,,,,,,,,,,,,,,,,,,,,,,,,,,,,,,,,,,,,,,,,,,,,,,,,,,,,,,,,560.1357428297633,560.1357428297633,560.1357428297633,560.1357428297633,560.1357428297633,560.1357428297633,l,1,0.5818950181128457,560.7274711515056,561.7608673800714,,,,,,,,,,,,,,,,,,,,,,,,,,,,,,,,,,,,,,,009551,2010-12-29_13h01.32.896,eb_02psyexp,2022.2.4,119.96809701393055,
229,0,229,0,,,,,,,,,,,,,,,,,,,,,,,,,,,,,,,,,,,,,,,,,,,,,,,,,,,,,,,,,,,561.7608673800714,561.7608673800714,561.7608673800714,561.7608673800714,561.7608673800714,561.7608673800714,l,1,0.5797793612582609,562.35261169984,563.3693470923463,,,,,,,,,,,,,,,,,,,,,,,,,,,,,,,,,,,,,,,009551,2010-12-29_13h01.32.896,eb_02psyexp,2022.2.4,119.96809701393055,
230,0,230,0,,,,,,,,,,,,,,,,,,,,,,,,,,,,,,,,,,,,,,,,,,,,,,,,,,,,,,,,,,,563.3693470923463,563.3693470923463,563.3693470923463,563.3693470923463,563.3693470923463,563.3693470923463,l,1,0.8913707403698936,564.2694083374226,565.3028438063338,,,,,,,,,,,,,,,,,,,,,,,,,,,,,,,,,,,,,,,009551,2010-12-29_13h01.32.896,eb_02psyexp,2022.2.4,119.96809701393055,
231,0,231,0,,,,,,,,,,,,,,,,,,,,,,,,,,,,,,,,,,,,,,,,,,,,,,,,,,,,,,,,,,,565.3028438063338,565.3028438063338,565.3028438063338,565.3028438063338,565.3028438063338,565.3028438063338,l,1,0.4698648115154356,565.7861867434112,566.8112836444052,,,,,,,,,,,,,,,,,,,,,,,,,,,,,,,,,,,,,,,009551,2010-12-29_13h01.32.896,eb_02psyexp,2022.2.4,119.96809701393055,
232,0,232,0,,,,,,,,,,,,,,,,,,,,,,,,,,,,,,,,,,,,,,,,,,,,,,,,,,,,,,,,,,,566.8112836444052,566.8112836444052,566.8112836444052,566.8112836444052,566.8112836444052,566.8112836444052,s,1,0.5374502249760553,567.3613598762313,568.394753991859,,,,,,,,,,,,,,,,,,,,,,,,,,,,,,,,,,,,,,,009551,2010-12-29_13h01.32.896,eb_02psyexp,2022.2.4,119.96809701393055,
233,0,233,0,,,,,,,,,,,,,,,,,,,,,,,,,,,,,,,,,,,,,,,,,,,,,,,,,,,,,,,,,,,568.394753991859,568.394753991859,568.394753991859,568.394753991859,568.394753991859,568.394753991859,l,1,0.5700091253966093,568.978139217943,569.9948613292072,,,,,,,,,,,,,,,,,,,,,,,,,,,,,,,,,,,,,,,009551,2010-12-29_13h01.32.896,eb_02psyexp,2022.2.4,119.96809701393055,
234,0,234,0,,,,,,,,,,,,,,,,,,,,,,,,,,,,,,,,,,,,,,,,,,,,,,,,,,,,,,,,,,,569.9948613292072,569.9948613292072,569.9948613292072,569.9948613292072,569.9948613292072,569.9948613292072,l,1,0.5299305723747239,570.5365914469585,571.5700039752992,,,,,,,,,,,,,,,,,,,,,,,,,,,,,,,,,,,,,,,009551,2010-12-29_13h01.32.896,eb_02psyexp,2022.2.4,119.96809701393055,
235,0,235,0,,,,,,,,,,,,,,,,,,,,,,,,,,,,,,,,,,,,,,,,,,,,,,,,,,,,,,,,,,,571.5700039752992,571.5700039752992,571.5700039752992,571.5700039752992,571.5700039752992,571.5700039752992,l,1,0.40279435203410685,571.9867032667389,573.0118445394328,,,,,,,,,,,,,,,,,,,,,,,,,,,,,,,,,,,,,,,009551,2010-12-29_13h01.32.896,eb_02psyexp,2022.2.4,119.96809701393055,
236,0,236,0,,,,,,,,,,,,,,,,,,,,,,,,,,,,,,,,,,,,,,,,,,,,,,,,,,,,,,,,,,,573.0118445394328,573.0118445394328,573.0118445394328,573.0118445394328,573.0118445394328,573.0118445394328,s,1,0.48895462322980165,573.5118754789,574.5452708019875,,,,,,,,,,,,,,,,,,,,,,,,,,,,,,,,,,,,,,,009551,2010-12-29_13h01.32.896,eb_02psyexp,2022.2.4,119.96809701393055,
237,0,237,0,,,,,,,,,,,,,,,,,,,,,,,,,,,,,,,,,,,,,,,,,,,,,,,,,,,,,,,,,,,574.5452708019875,574.5452708019875,574.5452708019875,574.5452708019875,574.5452708019875,574.5452708019875,l,1,0.5315988896181807,575.0869707348756,576.1204013740644,,,,,,,,,,,,,,,,,,,,,,,,,,,,,,,,,,,,,,,009551,2010-12-29_13h01.32.896,eb_02psyexp,2022.2.4,119.96809701393055,
238,0,238,0,,,,,,,,,,,,,,,,,,,,,,,,,,,,,,,,,,,,,,,,,,,,,,,,,,,,,,,,,,,576.1204013740644,576.1204013740644,576.1204013740644,576.1204013740644,576.1204013740644,576.1204013740644,s,1,0.492466330062598,576.6287657500943,577.6454791076249,,,,,,,,,,,,,,,,,,,,,,,,,,,,,,,,,,,,,,,009551,2010-12-29_13h01.32.896,eb_02psyexp,2022.2.4,119.96809701393055,
239,0,239,0,,,,,,,,,,,,,,,,,,,,,,,,,,,,,,,,,,,,,,,,,,,,,,,,,,,,,,,,,,,577.6454791076249,577.6454791076249,577.6454791076249,577.6454791076249,577.6454791076249,577.6454791076249,l,1,0.4624185082502663,578.1205495817121,579.153953054687,,,,,,,,,,,,,,,,,,,,,,,,,,,,,,,,,,,,,,,009551,2010-12-29_13h01.32.896,eb_02psyexp,2022.2.4,119.96809701393055,
240,0,240,0,,,,,,,,,,,,,,,,,,,,,,,,,,,,,,,,,,,,,,,,,,,,,,,,,,,,,,,,,,,579.153953054687,579.153953054687,579.153953054687,579.153953054687,579.153953054687,579.153953054687,s,1,0.5299830939620733,579.6956877001794,580.7124146409333,,,,,,,,,,,,,,,,,,,,,,,,,,,,,,,,,,,,,,,009551,2010-12-29_13h01.32.896,eb_02psyexp,2022.2.4,119.96809701393055,
241,0,241,0,,,,,,,,,,,,,,,,,,,,,,,,,,,,,,,,,,,,,,,,,,,,,,,,,,,,,,,,,,,580.7124146409333,580.7124146409333,580.7124146409333,580.7124146409333,580.7124146409333,580.7124146409333,l,1,0.4835627016145736,581.2041160679655,582.2292114597512,,,,,,,,,,,,,,,,,,,,,,,,,,,,,,,,,,,,,,,009551,2010-12-29_13h01.32.896,eb_02psyexp,2022.2.4,119.96809701393055,
242,0,242,0,,,,,,,,,,,,,,,,,,,,,,,,,,,,,,,,,,,,,,,,,,,,,,,,,,,,,,,,,,,582.2292114597512,582.2292114597512,582.2292114597512,582.2292114597512,582.2292114597512,582.2292114597512,l,1,0.47879138053394854,582.7209328087047,583.7376712198602,,,,,,,,,,,,,,,,,,,,,,,,,,,,,,,,,,,,,,,009551,2010-12-29_13h01.32.896,eb_02psyexp,2022.2.4,119.96809701393055,
243,0,243,0,,,,,,,,,,,,,,,,,,,,,,,,,,,,,,,,,,,,,,,,,,,,,,,,,,,,,,,,,,,583.7376712198602,583.7376712198602,583.7376712198602,583.7376712198602,583.7376712198602,583.7376712198602,l,1,0.4823429313255474,584.2293970965547,585.2544776977738,,,,,,,,,,,,,,,,,,,,,,,,,,,,,,,,,,,,,,,009551,2010-12-29_13h01.32.896,eb_02psyexp,2022.2.4,119.96809701393055,
244,0,244,0,,,,,,,,,,,,,,,,,,,,,,,,,,,,,,,,,,,,,,,,,,,,,,,,,,,,,,,,,,,585.2544776977738,585.2544776977738,585.2544776977738,585.2544776977738,585.2544776977738,585.2544776977738,l,1,0.38156624464318156,585.6461588707753,586.7462609257782,,,,,,,,,,,,,,,,,,,,,,,,,,,,,,,,,,,,,,,009551,2010-12-29_13h01.32.896,eb_02psyexp,2022.2.4,119.96809701393055,
245,0,245,0,,,,,,,,,,,,,,,,,,,,,,,,,,,,,,,,,,,,,,,,,,,,,,,,,,,,,,,,,,,586.7462609257782,586.7462609257782,586.7462609257782,586.7462609257782,586.7462609257782,586.7462609257782,s,1,0.5618072949582711,587.3213247893145,588.3463776204735,,,,,,,,,,,,,,,,,,,,,,,,,,,,,,,,,,,,,,,009551,2010-12-29_13h01.32.896,eb_02psyexp,2022.2.4,119.96809701393055,
246,0,246,0,,,,,,,,,,,,,,,,,,,,,,,,,,,,,,,,,,,,,,,,,,,,,,,,,,,,,,,,,,,588.3463776204735,588.3463776204735,588.3463776204735,588.3463776204735,588.3463776204735,588.3463776204735,l,1,0.4817507043480873,588.8381161747966,589.8548579062335,,,,,,,,,,,,,,,,,,,,,,,,,,,,,,,,,,,,,,,009551,2010-12-29_13h01.32.896,eb_02psyexp,2022.2.4,119.96809701393055,
247,0,247,0,,,,,,,,,,,,,,,,,,,,,,,,,,,,,,,,,,,,,,,,,,,,,,,,,,,,,,,,,,,589.8548579062335,589.8548579062335,589.8548579062335,589.8548579062335,589.8548579062335,589.8548579062335,l,1,0.5013008351670578,590.3715581333963,591.3882817538688,,,,,,,,,,,,,,,,,,,,,,,,,,,,,,,,,,,,,,,009551,2010-12-29_13h01.32.896,eb_02psyexp,2022.2.4,119.96809701393055,
248,0,248,0,,,,,,,,,,,,,,,,,,,,,,,,,,,,,,,,,,,,,,,,,,,,,,,,,,,,,,,,,,,591.3882817538688,591.3882817538688,591.3882817538688,591.3882817538688,591.3882817538688,591.3882817538688,s,1,0.49588386004325,591.8966820498463,592.9301009170013,,,,,,,,,,,,,,,,,,,,,,,,,,,,,,,,,,,,,,,009551,2010-12-29_13h01.32.896,eb_02psyexp,2022.2.4,119.96809701393055,
249,0,249,0,,,,,,,,,,,,,,,,,,,,,,,,,,,,,,,,,,,,,,,,,,,,,,,,,,,,,,,,,,,592.9301009170013,592.9301009170013,592.9301009170013,592.9301009170013,592.9301009170013,592.9301009170013,s,1,0.5610931211849675,593.5051789674908,594.530284923967,,,,,,,,,,,,,,,,,,,,,,,,,,,,,,,,,,,,,,,009551,2010-12-29_13h01.32.896,eb_02psyexp,2022.2.4,119.96809701393055,
250,0,250,0,,,,,,,,,,,,,,,,,,,,,,,,,,,,,,,,,,,,,,,,,,,,,,,,,,,,,,,,,,,594.530284923967,594.530284923967,594.530284923967,594.530284923967,594.530284923967,594.530284923967,l,1,0.6489253318868577,595.1886312342249,596.2053608916467,,,,,,,,,,,,,,,,,,,,,,,,,,,,,,,,,,,,,,,009551,2010-12-29_13h01.32.896,eb_02psyexp,2022.2.4,119.96809701393055,
251,0,251,0,,,,,,,,,,,,,,,,,,,,,,,,,,,,,,,,,,,,,,,,,,,,,,,,,,,,,,,,,,,596.2053608916467,596.2053608916467,596.2053608916467,596.2053608916467,596.2053608916467,596.2053608916467,l,1,0.5098790709162131,596.7304298715899,597.7638623219682,,,,,,,,,,,,,,,,,,,,,,,,,,,,,,,,,,,,,,,009551,2010-12-29_13h01.32.896,eb_02psyexp,2022.2.4,119.96809701393055,
252,0,252,0,,,,,,,,,,,,,,,,,,,,,,,,,,,,,,,,,,,,,,,,,,,,,,,,,,,,,,,,,,,597.7638623219682,597.7638623219682,597.7638623219682,597.7638623219682,597.7638623219682,597.7638623219682,s,1,0.4714105782331899,598.2472321236273,599.2639385387301,,,,,,,,,,,,,,,,,,,,,,,,,,,,,,,,,,,,,,,009551,2010-12-29_13h01.32.896,eb_02psyexp,2022.2.4,119.96809701393055,
253,0,253,0,,,,,,,,,,,,,,,,,,,,,,,,,,,,,,,,,,,,,,,,,,,,,,,,,,,,,,,,,,,599.2639385387301,599.2639385387301,599.2639385387301,599.2639385387301,599.2639385387301,599.2639385387301,s,1,0.8914021325763315,600.1640287613263,601.1974835484289,,,,,,,,,,,,,,,,,,,,,,,,,,,,,,,,,,,,,,,009551,2010-12-29_13h01.32.896,eb_02psyexp,2022.2.4,119.96809701393055,
254,0,254,0,,,,,,,,,,,,,,,,,,,,,,,,,,,,,,,,,,,,,,,,,,,,,,,,,,,,,,,,,,,601.1974835484289,601.1974835484289,601.1974835484289,601.1974835484289,601.1974835484289,601.1974835484289,s,1,0.4378163372166455,601.6474918342428,602.6642024752218,,,,,,,,,,,,,,,,,,,,,,,,,,,,,,,,,,,,,,,009551,2010-12-29_13h01.32.896,eb_02psyexp,2022.2.4,119.96809701393055,
255,0,255,0,,,,,,,,,,,,,,,,,,,,,,,,,,,,,,,,,,,,,,,,,,,,,,,,,,,,,,,,,,,602.6642024752218,602.6642024752218,602.6642024752218,602.6642024752218,602.6642024752218,602.6642024752218,l,1,0.46718560333829373,603.1475973302731,604.1726571038598,,,,,,,,,,,,,,,,,,,,,,,,,,,,,,,,,,,,,,,009551,2010-12-29_13h01.32.896,eb_02psyexp,2022.2.4,119.96809701393055,
256,0,256,0,,,,,,,,,,,,,,,,,,,,,,,,,,,,,,,,,,,,,,,,,,,,,,,,,,,,,,,,,,,604.1726571038598,604.1726571038598,604.1726571038598,604.1726571038598,604.1726571038598,604.1726571038598,l,1,0.4547044651117176,604.6394068191294,605.6644970794441,,,,,,,,,,,,,,,,,,,,,,,,,,,,,,,,,,,,,,,009551,2010-12-29_13h01.32.896,eb_02psyexp,2022.2.4,119.96809701393055,
257,0,257,0,,,,,,,,,,,,,,,,,,,,,,,,,,,,,,,,,,,,,,,,,,,,,,,,,,,,,,,,,,,605.6644970794441,605.6644970794441,605.6644970794441,605.6644970794441,605.6644970794441,605.6644970794441,l,1,0.44291788060218096,606.122874419787,607.1396073974902,,,,,,,,,,,,,,,,,,,,,,,,,,,,,,,,,,,,,,,009551,2010-12-29_13h01.32.896,eb_02psyexp,2022.2.4,119.96809701393055,
258,0,258,0,,,,,,,,,,,,,,,,,,,,,,,,,,,,,,,,,,,,,,,,,,,,,,,,,,,,,,,,,,,607.1396073974902,607.1396073974902,607.1396073974902,607.1396073974902,607.1396073974902,607.1396073974902,s,1,0.41583089157938957,607.564648577245,608.5980541630415,,,,,,,,,,,,,,,,,,,,,,,,,,,,,,,,,,,,,,,009551,2010-12-29_13h01.32.896,eb_02psyexp,2022.2.4,119.96809701393055,
259,0,259,0,,,,,,,,,,,,,,,,,,,,,,,,,,,,,,,,,,,,,,,,,,,,,,,,,,,,,,,,,,,608.5980541630415,608.5980541630415,608.5980541630415,608.5980541630415,608.5980541630415,608.5980541630415,s,1,1.2284230499062687,609.8398294675862,610.8565660675522,,,,,,,,,,,,,,,,,,,,,,,,,,,,,,,,,,,,,,,009551,2010-12-29_13h01.32.896,eb_02psyexp,2022.2.4,119.96809701393055,
260,0,260,0,,,,,,,,,,,,,,,,,,,,,,,,,,,,,,,,,,,,,,,,,,,,,,,,,,,,,,,,,,,610.8565660675522,610.8565660675522,610.8565660675522,610.8565660675522,610.8565660675522,610.8565660675522,l,1,0.5139368218369782,611.3816395752365,612.4067035746993,,,,,,,,,,,,,,,,,,,,,,,,,,,,,,,,,,,,,,,009551,2010-12-29_13h01.32.896,eb_02psyexp,2022.2.4,119.96809701393055,
261,0,261,0,,,,,,,,,,,,,,,,,,,,,,,,,,,,,,,,,,,,,,,,,,,,,,,,,,,,,,,,,,,612.4067035746993,612.4067035746993,612.4067035746993,612.4067035746993,612.4067035746993,612.4067035746993,l,1,0.45185229752678424,612.87342944392,613.9068594794953,,,,,,,,,,,,,,,,,,,,,,,,,,,,,,,,,,,,,,,009551,2010-12-29_13h01.32.896,eb_02psyexp,2022.2.4,119.96809701393055,
262,0,262,0,,,,,,,,,,,,,,,,,,,,,,,,,,,,,,,,,,,,,,,,,,,,,,,,,,,,,,,,,,,613.9068594794953,613.9068594794953,613.9068594794953,613.9068594794953,613.9068594794953,613.9068594794953,s,1,0.45569754706230015,614.3735485231737,615.3986125226365,,,,,,,,,,,,,,,,,,,,,,,,,,,,,,,,,,,,,,,009551,2010-12-29_13h01.32.896,eb_02psyexp,2022.2.4,119.96809701393055,
263,0,263,0,,,,,,,,,,,,,,,,,,,,,,,,,,,,,,,,,,,,,,,,,,,,,,,,,,,,,,,,,,,615.3986125226365,615.3986125226365,615.3986125226365,615.3986125226365,615.3986125226365,615.3986125226365,l,1,0.4439680118812248,615.8569910703227,616.8904220114928,,,,,,,,,,,,,,,,,,,,,,,,,,,,,,,,,,,,,,,009551,2010-12-29_13h01.32.896,eb_02psyexp,2022.2.4,119.96809701393055,
264,0,264,0,,,,,,,,,,,,,,,,,,,,,,,,,,,,,,,,,,,,,,,,,,,,,,,,,,,,,,,,,,,616.8904220114928,616.8904220114928,616.8904220114928,616.8904220114928,616.8904220114928,616.8904220114928,s,1,0.6641895143548027,617.5654611537466,618.5905755618587,,,,,,,,,,,,,,,,,,,,,,,,,,,,,,,,,,,,,,,009551,2010-12-29_13h01.32.896,eb_02psyexp,2022.2.4,119.96809701393055,
265,0,265,0,,,,,,,,,,,,,,,,,,,,,,,,,,,,,,,,,,,,,,,,,,,,,,,,,,,,,,,,,,,618.5905755618587,618.5905755618587,618.5905755618587,618.5905755618587,618.5905755618587,618.5905755618587,l,1,0.4040515514789149,619.0072298778687,620.0406490468886,,,,,,,,,,,,,,,,,,,,,,,,,,,,,,,,,,,,,,,009551,2010-12-29_13h01.32.896,eb_02psyexp,2022.2.4,119.96809701393055,
266,0,266,0,,,,,,,,,,,,,,,,,,,,,,,,,,,,,,,,,,,,,,,,,,,,,,,,,,,,,,,,,,,620.0406490468886,620.0406490468886,620.0406490468886,620.0406490468886,620.0406490468886,620.0406490468886,s,1,0.410003402386792,620.4656878118403,621.4824410134461,,,,,,,,,,,,,,,,,,,,,,,,,,,,,,,,,,,,,,,009551,2010-12-29_13h01.32.896,eb_02psyexp,2022.2.4,119.96809701393055,
267,0,267,0,,,,,,,,,,,,,,,,,,,,,,,,,,,,,,,,,,,,,,,,,,,,,,,,,,,,,,,,,,,621.4824410134461,621.4824410134461,621.4824410134461,621.4824410134461,621.4824410134461,621.4824410134461,s,1,0.5842684537637979,622.082516052993,623.1159159037052,,,,,,,,,,,,,,,,,,,,,,,,,,,,,,,,,,,,,,,009551,2010-12-29_13h01.32.896,eb_02psyexp,2022.2.4,119.96809701393055,
268,0,268,0,,,,,,,,,,,,,,,,,,,,,,,,,,,,,,,,,,,,,,,,,,,,,,,,,,,,,,,,,,,623.1159159037052,623.1159159037052,623.1159159037052,623.1159159037052,623.1159159037052,623.1159159037052,s,1,0.5658916084794328,623.6909516954329,624.7160697258078,,,,,,,,,,,,,,,,,,,,,,,,,,,,,,,,,,,,,,,009551,2010-12-29_13h01.32.896,eb_02psyexp,2022.2.4,119.96809701393055,
269,0,269,0,,,,,,,,,,,,,,,,,,,,,,,,,,,,,,,,,,,,,,,,,,,,,,,,,,,,,,,,,,,624.7160697258078,624.7160697258078,624.7160697258078,624.7160697258078,624.7160697258078,624.7160697258078,l,1,0.4056748932925984,625.1327478878666,626.1494654713897,,,,,,,,,,,,,,,,,,,,,,,,,,,,,,,,,,,,,,,009551,2010-12-29_13h01.32.896,eb_02psyexp,2022.2.4,119.96809701393055,
270,0,270,0,,,,,,,,,,,,,,,,,,,,,,,,,,,,,,,,,,,,,,,,,,,,,,,,,,,,,,,,,,,626.1494654713897,626.1494654713897,626.1494654713897,626.1494654713897,626.1494654713897,626.1494654713897,l,1,0.47630595916416496,626.6412109682569,627.6746259114007,,,,,,,,,,,,,,,,,,,,,,,,,,,,,,,,,,,,,,,009551,2010-12-29_13h01.32.896,eb_02psyexp,2022.2.4,119.96809701393055,
