trials.thisRepN,trials.thisTrialN,trials.thisN,trials.thisIndex,image_loop.thisRepN,image_loop.thisTrialN,image_loop.thisN,image_loop.thisIndex,break_loop.thisRepN,break_loop.thisTrialN,break_loop.thisN,break_loop.thisIndex,test_trials.thisRepN,test_trials.thisTrialN,test_trials.thisN,test_trials.thisIndex,distance matrix,tools,welcome_text.started,instructions_0_keypress.started,instructions_0_keypress.keys,instructions_0_keypress.rt,consent_image_0.started,consent0_key_resp.started,consent0_text.started,consent0_key_resp.keys,consent0_key_resp.rt,consent_image_1.started,consent1_key_resp.started,consent1_text.started,consent1_key_resp.keys,consent1_key_resp.rt,consent2_text.started,consent_image_2.started,consent2_key_resp.started,consent2_key_resp.keys,consent2_key_resp.rt,agree_button.started,disagree_button.started,consent_image_3.started,agree_button.numClicks,agree_button.timesOn,agree_button.timesOff,disagree_button.numClicks,disagree_button.timesOn,disagree_button.timesOff,instructions_text1.started,instructions1_key_resp.started,instr1_cnt_text.started,instructions1_key_resp.keys,instructions1_key_resp.rt,instructions_text2.started,instr2_cnt_text.started,instructions2_key_resp.started,instructions2_key_resp.keys,instructions2_key_resp.rt,instructions_text3.started,instructions3_key_resp.started,instr3_cnt_text.started,instructions3_key_resp.keys,instructions3_key_resp.rt,text_countdown.started,image.started,small_large_keyresp.started,task_question_text.started,smalleroption_text.started,largeroption_text.started,accuracy_score_text.started,small_large_keyresp.keys,small_large_keyresp.corr,small_large_keyresp.rt,fb_2.started,fb_2.stopped,break_text.started,break_key_resp.started,break_key_resp.keys,break_key_resp.rt,reveal_seq_text.started,start_test_text.started,continue_to_test.started,continue_to_test.keys,continue_to_test.rt,test_structure_info.started,start_test_text_2.started,continue_to_test_2.started,continue_to_test_2.keys,continue_to_test_2.rt,test_cntdown_text.started,parent index,left child index,right child index,left distance,right distance,parent_image.started,top_image_text.started,left_child_image.started,right_child_image.started,path_resp.started,child_choice_text.started,left_choice_text.started,right_choice_text.started,path_resp.keys,path_resp.rt,graph.started,debrief_text.started,debriefing_title.started,demo_scr_adv.started,demo_scr_adv_keypress.started,demo_scr_adv_keypress.keys,demo_scr_adv_keypress.rt,text_countdown_2.started,participant,date,expName,psychopyVersion,frameRate,
,,,,,,,,,,,,,,,,"[[0. 1. 1. 2. 2. 3. 4. 5. 5. 6. 6. 7.]
 [1. 0. 2. 1. 1. 2. 3. 4. 4. 5. 5. 6.]
 [1. 2. 0. 1. 1. 2. 3. 4. 4. 5. 5. 6.]
 [2. 1. 1. 0. 1. 1. 2. 3. 3. 4. 4. 5.]
 [2. 1. 1. 1. 0. 1. 2. 3. 3. 4. 4. 5.]
 [3. 2. 2. 1. 1. 0. 1. 2. 2. 3. 3. 4.]
 [4. 3. 3. 2. 2. 1. 0. 1. 1. 2. 2. 3.]
 [5. 4. 4. 3. 3. 2. 1. 0. 1. 1. 1. 2.]
 [5. 4. 4. 3. 3. 2. 1. 1. 0. 1. 1. 2.]
 [6. 5. 5. 4. 4. 3. 2. 1. 1. 0. 2. 1.]
 [6. 5. 5. 4. 4. 3. 2. 1. 1. 2. 0. 1.]
 [7. 6. 6. 5. 5. 4. 3. 2. 2. 1. 1. 0.]]",[11  3 10  9  2  1  5  4  0  7  6  8],10.187632925109938,10.187632925109938,return,6.382308236905374,,,,,,,,,,,,,,,,,,,,,,,,,,,,,,,,,,,,,,,,,,,,,,,,,,,,,,,,,,,,,,,,,,,,,,,,,,,,,,,,,,,,,,,,,,126817,2023-05-16_14h03.50.141,eb_02psyexp,2022.2.4,99.93809970791466,
,,,,,,,,,,,,,,,,,,,,,,16.58172666246537,16.58172666246537,16.58172666246537,space,2.0842271867441013,,,,,,,,,,,,,,,,,,,,,,,,,,,,,,,,,,,,,,,,,,,,,,,,,,,,,,,,,,,,,,,,,,,,,,,,,,,,,,,,,,,,,126817,2023-05-16_14h03.50.141,eb_02psyexp,2022.2.4,99.93809970791466,
,,,,,,,,,,,,,,,,,,,,,,,,,,,18.682740016607568,18.682740016607568,18.682740016607568,space,4.375183486146852,,,,,,,,,,,,,,,,,,,,,,,,,,,,,,,,,,,,,,,,,,,,,,,,,,,,,,,,,,,,,,,,,,,,,,,,,,,,,,,,126817,2023-05-16_14h03.50.141,eb_02psyexp,2022.2.4,99.93809970791466,
,,,,,,,,,,,,,,,,,,,,,,,,,,,,,,,,23.075580191565678,23.075580191565678,23.075580191565678,space,0.46235633885953575,,,,,,,,,,,,,,,,,,,,,,,,,,,,,,,,,,,,,,,,,,,,,,,,,,,,,,,,,,,,,,,,,,,,,,,,,,,126817,2023-05-16_14h03.50.141,eb_02psyexp,2022.2.4,99.93809970791466,
,,,,,,,,,,,,,,,,,,,,,,,,,,,,,,,,,,,,,23.565917225671,23.565917225671,23.565917225671,1,[2.9817341482266784],[2.981740185059607],0,,,26.53781937470194,28.529434119001962,28.529434119001962,space,1.20753028918989,,,,,,,,,,,,,,,,,,,,,,,,,,,,,,,,,,,,,,,,,,,,,,,,,,,,,,,,,,,,,126817,2023-05-16_14h03.50.141,eb_02psyexp,2022.2.4,99.93809970791466,
,,,,,,,,,,,,,,,,,,,,,,,,,,,,,,,,,,,,,,,,,,,,,,,,,,,29.750186389312148,32.74212954111863,32.74212954111863,space,4.386891452246346,,,,,,,,,,,,,,,,,,,,,,,,,,,,,,,,,,,,,,,,,,,,,,,,,,,,,,,,126817,2023-05-16_14h03.50.141,eb_02psyexp,2022.2.4,99.93809970791466,
,,,,,,,,,,,,,,,,,,,,,,,,,,,,,,,,,,,,,,,,,,,,,,,,,,,,,,,,37.144949619076215,40.13687013240997,40.13687013240997,space,4.959203869104385,,,,,,,,,,,,,,,,,,,,,,,,,,,,,,,,,,,,,,,,,,,,,,,,,,,126817,2023-05-16_14h03.50.141,eb_02psyexp,2022.2.4,99.93809970791466,
0,0,0,0,,,,,,,,,,,,,,,,,,,,,,,,,,,,,,,,,,,,,,,,,,,,,,,,,,,,,,,,,,45.11974978260696,50.16331145761069,50.16331145761069,50.16331145761069,50.16331145761069,50.16331145761069,50.16331145761069,s,1,3.8928522884380072,54.07551952067297,55.09623876912519,,,,,,,,,,,,,,,,,,,,,,,,,,,,,,,,,,,,,,,126817,2023-05-16_14h03.50.141,eb_02psyexp,2022.2.4,99.93809970791466,
1,0,1,0,,,,,,,,,,,,,,,,,,,,,,,,,,,,,,,,,,,,,,,,,,,,,,,,,,,,,,,,,,,55.09623876912519,55.09623876912519,55.09623876912519,55.09623876912519,55.09623876912519,55.09623876912519,l,1,1.9029402522137389,57.01741223409772,58.04805282771122,,,,,,,,,,,,,,,,,,,,,,,,,,,,,,,,,,,,,,,126817,2023-05-16_14h03.50.141,eb_02psyexp,2022.2.4,99.93809970791466,
2,0,2,0,,,,,,,,,,,,,,,,,,,,,,,,,,,,,,,,,,,,,,,,,,,,,,,,,,,,,,,,,,,58.04805282771122,58.04805282771122,58.04805282771122,58.04805282771122,58.04805282771122,58.04805282771122,s,1,2.8631099857157096,60.92992395313922,61.96060408861376,,,,,,,,,,,,,,,,,,,,,,,,,,,,,,,,,,,,,,,126817,2023-05-16_14h03.50.141,eb_02psyexp,2022.2.4,99.93809970791466,
3,0,3,0,,,,,,,,,,,,,,,,,,,,,,,,,,,,,,,,,,,,,,,,,,,,,,,,,,,,,,,,,,,61.96060408861376,61.96060408861376,61.96060408861376,61.96060408861376,61.96060408861376,61.96060408861376,s,1,1.998564162873663,63.971880718134344,65.00256085349247,,,,,,,,,,,,,,,,,,,,,,,,,,,,,,,,,,,,,,,126817,2023-05-16_14h03.50.141,eb_02psyexp,2022.2.4,99.93809970791466,
4,0,4,0,,,,,,,,,,,,,,,,,,,,,,,,,,,,,,,,,,,,,,,,,,,,,,,,,,,,,,,,,,,65.00256085349247,65.00256085349247,65.00256085349247,65.00256085349247,65.00256085349247,65.00256085349247,s,1,0.9726027712458745,65.99316985008772,67.02384334488306,,,,,,,,,,,,,,,,,,,,,,,,,,,,,,,,,,,,,,,126817,2023-05-16_14h03.50.141,eb_02psyexp,2022.2.4,99.93809970791466,
5,0,5,0,,,,,,,,,,,,,,,,,,,,,,,,,,,,,,,,,,,,,,,,,,,,,,,,,,,,,,,,,,,67.02384334488306,67.02384334488306,67.02384334488306,67.02384334488306,67.02384334488306,67.02384334488306,s,1,1.015332259470597,68.05449601239525,69.07517390802968,,,,,,,,,,,,,,,,,,,,,,,,,,,,,,,,,,,,,,,126817,2023-05-16_14h03.50.141,eb_02psyexp,2022.2.4,99.93809970791466,
6,0,6,0,,,,,,,,,,,,,,,,,,,,,,,,,,,,,,,,,,,,,,,,,,,,,,,,,,,,,,,,,,,69.07517390802968,69.07517390802968,69.07517390802968,69.07517390802968,69.07517390802968,69.07517390802968,l,1,0.7720225043594837,69.86565721628722,70.89630505430978,,,,,,,,,,,,,,,,,,,,,,,,,,,,,,,,,,,,,,,126817,2023-05-16_14h03.50.141,eb_02psyexp,2022.2.4,99.93809970791466,
7,0,7,0,,,,,,,,,,,,,,,,,,,,,,,,,,,,,,,,,,,,,,,,,,,,,,,,,,,,,,,,,,,70.89630505430978,70.89630505430978,70.89630505430978,70.89630505430978,70.89630505430978,70.89630505430978,s,1,0.6539657707326114,71.5667717490578,72.59742954792455,,,,,,,,,,,,,,,,,,,,,,,,,,,,,,,,,,,,,,,126817,2023-05-16_14h03.50.141,eb_02psyexp,2022.2.4,99.93809970791466,
8,0,8,0,,,,,,,,,,,,,,,,,,,,,,,,,,,,,,,,,,,,,,,,,,,,,,,,,,,,,,,,,,,72.59742954792455,72.59742954792455,72.59742954792455,72.59742954792455,72.59742954792455,72.59742954792455,s,1,0.9927937908796594,73.6080680770101,74.63874851423316,,,,,,,,,,,,,,,,,,,,,,,,,,,,,,,,,,,,,,,126817,2023-05-16_14h03.50.141,eb_02psyexp,2022.2.4,99.93809970791466,
9,0,9,0,,,,,,,,,,,,,,,,,,,,,,,,,,,,,,,,,,,,,,,,,,,,,,,,,,,,,,,,,,,74.63874851423316,74.63874851423316,74.63874851423316,74.63874851423316,74.63874851423316,74.63874851423316,s,1,1.0074845898197964,75.65941946743988,76.69006187224295,,,,,,,,,,,,,,,,,,,,,,,,,,,,,,,,,,,,,,,126817,2023-05-16_14h03.50.141,eb_02psyexp,2022.2.4,99.93809970791466,
10,0,10,0,,,,,,,,,,,,,,,,,,,,,,,,,,,,,,,,,,,,,,,,,,,,,,,,,,,,,,,,,,,76.69006187224295,76.69006187224295,76.69006187224295,76.69006187224295,76.69006187224295,76.69006187224295,s,1,0.9322059416444972,77.64067277649883,78.67137524834834,,,,,,,,,,,,,,,,,,,,,,,,,,,,,,,,,,,,,,,126817,2023-05-16_14h03.50.141,eb_02psyexp,2022.2.4,99.93809970791466,
11,0,11,0,,,,,,,,,,,,,,,,,,,,,,,,,,,,,,,,,,,,,,,,,,,,,,,,,,,,,,,,,,,78.67137524834834,78.67137524834834,78.67137524834834,78.67137524834834,78.67137524834834,78.67137524834834,s,1,1.0868867435492575,79.77203514205758,80.79274835367687,,,,,,,,,,,,,,,,,,,,,,,,,,,,,,,,,,,,,,,126817,2023-05-16_14h03.50.141,eb_02psyexp,2022.2.4,99.93809970791466,
12,0,12,0,,,,,,,,,,,,,,,,,,,,,,,,,,,,,,,,,,,,,,,,,,,,,,,,,,,,,,,,,,,80.79274835367687,80.79274835367687,80.79274835367687,80.79274835367687,80.79274835367687,80.79274835367687,l,1,2.7255235749762505,83.53446557431016,84.56515204848256,,,,,,,,,,,,,,,,,,,,,,,,,,,,,,,,,,,,,,,126817,2023-05-16_14h03.50.141,eb_02psyexp,2022.2.4,99.93809970791466,
13,0,13,0,,,,,,,,,,,,,,,,,,,,,,,,,,,,,,,,,,,,,,,,,,,,,,,,,,,,,,,,,,,84.56515204848256,84.56515204848256,84.56515204848256,84.56515204848256,84.56515204848256,84.56515204848256,s,1,0.6972093011718243,85.27558302890975,86.3062824823428,,,,,,,,,,,,,,,,,,,,,,,,,,,,,,,,,,,,,,,126817,2023-05-16_14h03.50.141,eb_02psyexp,2022.2.4,99.93809970791466,
14,0,14,0,,,,,,,,,,,,,,,,,,,,,,,,,,,,,,,,,,,,,,,,,,,,,,,,,,,,,,,,,,,86.3062824823428,86.3062824823428,86.3062824823428,86.3062824823428,86.3062824823428,86.3062824823428,s,1,0.6350802310043946,86.95667557511479,87.98734242934734,,,,,,,,,,,,,,,,,,,,,,,,,,,,,,,,,,,,,,,126817,2023-05-16_14h03.50.141,eb_02psyexp,2022.2.4,99.93809970791466,
15,0,15,0,,,,,,,,,,,,,,,,,,,,,,,,,,,,,,,,,,,,,,,,,,,,,,,,,,,,,,,,,,,87.98734242934734,87.98734242934734,87.98734242934734,87.98734242934734,87.98734242934734,87.98734242934734,s,1,1.1859371992759407,89.18812704540323,90.20878743415233,,,,,,,,,,,,,,,,,,,,,,,,,,,,,,,,,,,,,,,126817,2023-05-16_14h03.50.141,eb_02psyexp,2022.2.4,99.93809970791466,
16,0,16,0,,,,,,,,,,,,,,,,,,,,,,,,,,,,,,,,,,,,,,,,,,,,,,,,,,,,,,,,,,,90.20878743415233,90.20878743415233,90.20878743415233,90.20878743415233,90.20878743415233,90.20878743415233,l,1,1.572505033807829,91.79977470287122,92.83042978518642,,,,,,,,,,,,,,,,,,,,,,,,,,,,,,,,,,,,,,,126817,2023-05-16_14h03.50.141,eb_02psyexp,2022.2.4,99.93809970791466,
17,0,17,0,,,,,,,,,,,,,,,,,,,,,,,,,,,,,,,,,,,,,,,,,,,,,,,,,,,,,,,,,,,92.83042978518642,92.83042978518642,92.83042978518642,92.83042978518642,92.83042978518642,92.83042978518642,s,1,0.7349145783809945,93.58095605205745,94.60159621702041,,,,,,,,,,,,,,,,,,,,,,,,,,,,,,,,,,,,,,,126817,2023-05-16_14h03.50.141,eb_02psyexp,2022.2.4,99.93809970791466,
18,0,18,0,,,,,,,,,,,,,,,,,,,,,,,,,,,,,,,,,,,,,,,,,,,,,,,,,,,,,,,,,,,94.60159621702041,94.60159621702041,94.60159621702041,94.60159621702041,94.60159621702041,94.60159621702041,l,1,0.7077328271698207,95.32205569767393,96.35273100354243,,,,,,,,,,,,,,,,,,,,,,,,,,,,,,,,,,,,,,,126817,2023-05-16_14h03.50.141,eb_02psyexp,2022.2.4,99.93809970791466,
19,0,19,0,,,,,,,,,,,,,,,,,,,,,,,,,,,,,,,,,,,,,,,,,,,,,,,,,,,,,,,,,,,96.35273100354243,96.35273100354243,96.35273100354243,96.35273100354243,96.35273100354243,96.35273100354243,s,1,1.0206220941618085,97.38342321279924,98.4040494930232,,,,,,,,,,,,,,,,,,,,,,,,,,,,,,,,,,,,,,,126817,2023-05-16_14h03.50.141,eb_02psyexp,2022.2.4,99.93809970791466,
20,0,20,0,,,,,,,,,,,,,,,,,,,,,,,,,,,,,,,,,,,,,,,,,,,,,,,,,,,,,,,,,,,98.4040494930232,98.4040494930232,98.4040494930232,98.4040494930232,98.4040494930232,98.4040494930232,l,1,0.4733178422320634,98.89436992560513,99.92502983740997,,,,,,,,,,,,,,,,,,,,,,,,,,,,,,,,,,,,,,,126817,2023-05-16_14h03.50.141,eb_02psyexp,2022.2.4,99.93809970791466,
21,0,21,0,,,,,,,,,,,,,,,,,,,,,,,,,,,,,,,,,,,,,,,,,,,,,,,,,,,,,,,,,,,99.92502983740997,99.92502983740997,99.92502983740997,99.92502983740997,99.92502983740997,99.92502983740997,s,1,0.5843277011299506,100.52540086535737,101.55640005099121,,,,,,,,,,,,,,,,,,,,,,,,,,,,,,,,,,,,,,,126817,2023-05-16_14h03.50.141,eb_02psyexp,2022.2.4,99.93809970791466,
22,0,22,0,,,,,,,,,,,,,,,,,,,,,,,,,,,,,,,,,,,,,,,,,,,,,,,,,,,,,,,,,,,101.55640005099121,101.55640005099121,101.55640005099121,101.55640005099121,101.55640005099121,101.55640005099121,s,1,0.9209860590053722,102.4966908727074,103.52735138812568,,,,,,,,,,,,,,,,,,,,,,,,,,,,,,,,,,,,,,,126817,2023-05-16_14h03.50.141,eb_02psyexp,2022.2.4,99.93809970791466,
23,0,23,0,,,,,,,,,,,,,,,,,,,,,,,,,,,,,,,,,,,,,,,,,,,,,,,,,,,,,,,,,,,103.52735138812568,103.52735138812568,103.52735138812568,103.52735138812568,103.52735138812568,103.52735138812568,s,1,0.6530182791175321,104.19776495813858,105.22844418801833,,,,,,,,,,,,,,,,,,,,,,,,,,,,,,,,,,,,,,,126817,2023-05-16_14h03.50.141,eb_02psyexp,2022.2.4,99.93809970791466,
24,0,24,0,,,,,,,,,,,,,,,,,,,,,,,,,,,,,,,,,,,,,,,,,,,,,,,,,,,,,,,,,,,105.22844418801833,105.22844418801833,105.22844418801833,105.22844418801833,105.22844418801833,105.22844418801833,s,1,0.9119702489115298,106.15905061282683,107.17975476908032,,,,,,,,,,,,,,,,,,,,,,,,,,,,,,,,,,,,,,,126817,2023-05-16_14h03.50.141,eb_02psyexp,2022.2.4,99.93809970791466,
25,0,25,0,,,,,,,,,,,,,,,,,,,,,,,,,,,,,,,,,,,,,,,,,,,,,,,,,,,,,,,,,,,107.17975476908032,107.17975476908032,107.17975476908032,107.17975476908032,107.17975476908032,107.17975476908032,l,1,1.0886739681009203,108.2804288493935,109.30104728159495,,,,,,,,,,,,,,,,,,,,,,,,,,,,,,,,,,,,,,,126817,2023-05-16_14h03.50.141,eb_02psyexp,2022.2.4,99.93809970791466,
26,0,26,0,,,,,,,,,,,,,,,,,,,,,,,,,,,,,,,,,,,,,,,,,,,,,,,,,,,,,,,,,,,109.30104728159495,109.30104728159495,109.30104728159495,109.30104728159495,109.30104728159495,109.30104728159495,l,1,1.4553761719726026,110.77201703132596,111.80268388555851,,,,,,,,,,,,,,,,,,,,,,,,,,,,,,,,,,,,,,,126817,2023-05-16_14h03.50.141,eb_02psyexp,2022.2.4,99.93809970791466,
27,0,27,0,,,,,,,,,,,,,,,,,,,,,,,,,,,,,,,,,,,,,,,,,,,,,,,,,,,,,,,,,,,111.80268388555851,111.80268388555851,111.80268388555851,111.80268388555851,111.80268388555851,111.80268388555851,l,1,2.009766236646101,113.82399656146299,114.85466100089252,,,,,,,,,,,,,,,,,,,,,,,,,,,,,,,,,,,,,,,126817,2023-05-16_14h03.50.141,eb_02psyexp,2022.2.4,99.93809970791466,
28,0,28,0,,,,,,,,,,,,,,,,,,,,,,,,,,,,,,,,,,,,,,,,,,,,,,,,,,,,,,,,,,,114.85466100089252,114.85466100089252,114.85466100089252,114.85466100089252,114.85466100089252,114.85466100089252,s,1,0.7497825603932142,115.61515238042921,116.6458174235886,,,,,,,,,,,,,,,,,,,,,,,,,,,,,,,,,,,,,,,126817,2023-05-16_14h03.50.141,eb_02psyexp,2022.2.4,99.93809970791466,
29,0,29,0,,,,,,,,,,,,,,,,,,,,,,,,,,,,,,,,,,,,,,,,,,,,,,,,,,,,,,,,,,,116.6458174235886,116.6458174235886,116.6458174235886,116.6458174235886,116.6458174235886,116.6458174235886,s,1,1.2626390469959006,117.92662086267956,118.94731113407761,,,,,,,,,,,,,,,,,,,,,,,,,,,,,,,,,,,,,,,126817,2023-05-16_14h03.50.141,eb_02psyexp,2022.2.4,99.93809970791466,
30,0,30,0,,,,,,,,,,,,,,,,,,,,,,,,,,,,,,,,,,,,,,,,,,,,,,,,,,,,,,,,,,,118.94731113407761,118.94731113407761,118.94731113407761,118.94731113407761,118.94731113407761,118.94731113407761,s,1,1.2961592426290736,120.2581040870864,121.27877685136627,,,,,,,,,,,,,,,,,,,,,,,,,,,,,,,,,,,,,,,126817,2023-05-16_14h03.50.141,eb_02psyexp,2022.2.4,99.93809970791466,
31,0,31,0,,,,,,,,,,,,,,,,,,,,,,,,,,,,,,,,,,,,,,,,,,,,,,,,,,,,,,,,,,,121.27877685136627,121.27877685136627,121.27877685136627,121.27877685136627,121.27877685136627,121.27877685136627,s,1,0.7487034644000232,122.03926943836268,123.0699607420247,,,,,,,,,,,,,,,,,,,,,,,,,,,,,,,,,,,,,,,126817,2023-05-16_14h03.50.141,eb_02psyexp,2022.2.4,99.93809970791466,
32,0,32,0,,,,,,,,,,,,,,,,,,,,,,,,,,,,,,,,,,,,,,,,,,,,,,,,,,,,,,,,,,,123.0699607420247,123.0699607420247,123.0699607420247,123.0699607420247,123.0699607420247,123.0699607420247,l,1,1.1255337772890925,124.21067124907859,125.2313769145403,,,,,,,,,,,,,,,,,,,,,,,,,,,,,,,,,,,,,,,126817,2023-05-16_14h03.50.141,eb_02psyexp,2022.2.4,99.93809970791466,
33,0,33,0,,,,,,,,,,,,,,,,,,,,,,,,,,,,,,,,,,,,,,,,,,,,,,,,,,,,,,,,,,,125.2313769145403,125.2313769145403,125.2313769145403,125.2313769145403,125.2313769145403,125.2313769145403,l,1,1.1961374492384493,126.44209917541593,127.47275395586621,,,,,,,,,,,,,,,,,,,,,,,,,,,,,,,,,,,,,,,126817,2023-05-16_14h03.50.141,eb_02psyexp,2022.2.4,99.93809970791466,
34,0,34,0,,,,,,,,,,,,,,,,,,,,,,,,,,,,,,,,,,,,,,,,,,,,,,,,,,,,,,,,,,,127.47275395586621,127.47275395586621,127.47275395586621,127.47275395586621,127.47275395586621,127.47275395586621,l,1,1.3147903268691152,128.80361990712117,129.82430957478937,,,,,,,,,,,,,,,,,,,,,,,,,,,,,,,,,,,,,,,126817,2023-05-16_14h03.50.141,eb_02psyexp,2022.2.4,99.93809970791466,
35,0,35,0,,,,,,,,,,,,,,,,,,,,,,,,,,,,,,,,,,,,,,,,,,,,,,,,,,,,,,,,,,,129.82430957478937,129.82430957478937,129.82430957478937,129.82430957478937,129.82430957478937,129.82430957478937,s,1,1.1232358309207484,130.96502460946795,131.98574657458812,,,,,,,,,,,,,,,,,,,,,,,,,,,,,,,,,,,,,,,126817,2023-05-16_14h03.50.141,eb_02psyexp,2022.2.4,99.93809970791466,
36,0,36,0,,,,,,,,,,,,,,,,,,,,,,,,,,,,,,,,,,,,,,,,,,,,,,,,,,,,,,,,,,,131.98574657458812,131.98574657458812,131.98574657458812,131.98574657458812,131.98574657458812,131.98574657458812,s,1,0.9618323359172791,132.96632012841292,133.99699030292686,,,,,,,,,,,,,,,,,,,,,,,,,,,,,,,,,,,,,,,126817,2023-05-16_14h03.50.141,eb_02psyexp,2022.2.4,99.93809970791466,
37,0,37,0,,,,,,,,,,,,,,,,,,,,,,,,,,,,,,,,,,,,,,,,,,,,,,,,,,,,,,,,,,,133.99699030292686,133.99699030292686,133.99699030292686,133.99699030292686,133.99699030292686,133.99699030292686,s,1,1.0135906134964898,135.02764538524207,136.05833487783093,,,,,,,,,,,,,,,,,,,,,,,,,,,,,,,,,,,,,,,126817,2023-05-16_14h03.50.141,eb_02psyexp,2022.2.4,99.93809970791466,
38,0,38,0,,,,,,,,,,,,,,,,,,,,,,,,,,,,,,,,,,,,,,,,,,,,,,,,,,,,,,,,,,,136.05833487783093,136.05833487783093,136.05833487783093,136.05833487783093,136.05833487783093,136.05833487783093,s,1,0.6242551616160199,136.69874052132946,137.72940828104038,,,,,,,,,,,,,,,,,,,,,,,,,,,,,,,,,,,,,,,126817,2023-05-16_14h03.50.141,eb_02psyexp,2022.2.4,99.93809970791466,
39,0,39,0,,,,,,,,,,,,,,,,,,,,,,,,,,,,,,,,,,,,,,,,,,,,,,,,,,,,,,,,,,,137.72940828104038,137.72940828104038,137.72940828104038,137.72940828104038,137.72940828104038,137.72940828104038,s,1,0.9131948342546821,138.65999146387912,139.68071644741576,,,,,,,,,,,,,,,,,,,,,,,,,,,,,,,,,,,,,,,126817,2023-05-16_14h03.50.141,eb_02psyexp,2022.2.4,99.93809970791466,
40,0,40,0,,,,,,,,,,,,,,,,,,,,,,,,,,,,,,,,,,,,,,,,,,,,,,,,,,,,,,,,,,,139.68071644741576,139.68071644741576,139.68071644741576,139.68071644741576,139.68071644741576,139.68071644741576,l,1,0.6098864313680679,140.3010557333473,141.33172168198507,,,,,,,,,,,,,,,,,,,,,,,,,,,,,,,,,,,,,,,126817,2023-05-16_14h03.50.141,eb_02psyexp,2022.2.4,99.93809970791466,
41,0,41,0,,,,,,,,,,,,,,,,,,,,,,,,,,,,,,,,,,,,,,,,,,,,,,,,,,,,,,,,,,,141.33172168198507,141.33172168198507,141.33172168198507,141.33172168198507,141.33172168198507,141.33172168198507,s,1,0.6149000778095797,141.96213414124213,142.982758308528,,,,,,,,,,,,,,,,,,,,,,,,,,,,,,,,,,,,,,,126817,2023-05-16_14h03.50.141,eb_02psyexp,2022.2.4,99.93809970791466,
42,0,42,0,,,,,,,,,,,,,,,,,,,,,,,,,,,,,,,,,,,,,,,,,,,,,,,,,,,,,,,,,,,142.982758308528,142.982758308528,142.982758308528,142.982758308528,142.982758308528,142.982758308528,l,1,0.7718649412272498,143.77328779909294,144.79396207258105,,,,,,,,,,,,,,,,,,,,,,,,,,,,,,,,,,,,,,,126817,2023-05-16_14h03.50.141,eb_02psyexp,2022.2.4,99.93809970791466,
43,0,43,0,,,,,,,,,,,,,,,,,,,,,,,,,,,,,,,,,,,,,,,,,,,,,,,,,,,,,,,,,,,144.79396207258105,144.79396207258105,144.79396207258105,144.79396207258105,144.79396207258105,144.79396207258105,l,1,1.392713137785904,146.20487159816548,147.22557816910557,,,,,,,,,,,,,,,,,,,,,,,,,,,,,,,,,,,,,,,126817,2023-05-16_14h03.50.141,eb_02psyexp,2022.2.4,99.93809970791466,
44,0,44,0,,,,,,,,,,,,,,,,,,,,,,,,,,,,,,,,,,,,,,,,,,,,,,,,,,,,,,,,,,,147.22557816910557,147.22557816910557,147.22557816910557,147.22557816910557,147.22557816910557,147.22557816910557,l,1,0.7210891692666337,147.96599564503413,148.99663171102293,,,,,,,,,,,,,,,,,,,,,,,,,,,,,,,,,,,,,,,126817,2023-05-16_14h03.50.141,eb_02psyexp,2022.2.4,99.93809970791466,
45,0,45,0,,,,,,,,,,,,,,,,,,,,,,,,,,,,,,,,,,,,,,,,,,,,,,,,,,,,,,,,,,,148.99663171102293,148.99663171102293,148.99663171102293,148.99663171102293,148.99663171102293,148.99663171102293,s,1,0.5980058098211884,149.60705146286637,150.6377125820145,,,,,,,,,,,,,,,,,,,,,,,,,,,,,,,,,,,,,,,126817,2023-05-16_14h03.50.141,eb_02psyexp,2022.2.4,99.93809970791466,
46,0,46,0,,,,,,,,,,,,,,,,,,,,,,,,,,,,,,,,,,,,,,,,,,,,,,,,,,,,,,,,,,,150.6377125820145,150.6377125820145,150.6377125820145,150.6377125820145,150.6377125820145,150.6377125820145,s,1,1.275954338023439,151.92854089918546,152.94926890113857,,,,,,,,,,,,,,,,,,,,,,,,,,,,,,,,,,,,,,,126817,2023-05-16_14h03.50.141,eb_02psyexp,2022.2.4,99.93809970791466,
47,0,47,0,,,,,,,,,,,,,,,,,,,,,,,,,,,,,,,,,,,,,,,,,,,,,,,,,,,,,,,,,,,152.94926890113857,152.94926890113857,152.94926890113857,152.94926890113857,152.94926890113857,152.94926890113857,l,1,0.7963850226951763,153.7597144304309,154.78039685380645,,,,,,,,,,,,,,,,,,,,,,,,,,,,,,,,,,,,,,,126817,2023-05-16_14h03.50.141,eb_02psyexp,2022.2.4,99.93809970791466,
48,0,48,0,,,,,,,,,,,,,,,,,,,,,,,,,,,,,,,,,,,,,,,,,,,,,,,,,,,,,,,,,,,154.78039685380645,154.78039685380645,154.78039685380645,154.78039685380645,154.78039685380645,154.78039685380645,l,1,1.3413505790522322,156.14127827761695,157.1619416847825,,,,,,,,,,,,,,,,,,,,,,,,,,,,,,,,,,,,,,,126817,2023-05-16_14h03.50.141,eb_02psyexp,2022.2.4,99.93809970791466,
49,0,49,0,,,,,,,,,,,,,,,,,,,,,,,,,,,,,,,,,,,,,,,,,,,,,,,,,,,,,,,,,,,157.1619416847825,157.1619416847825,157.1619416847825,157.1619416847825,157.1619416847825,157.1619416847825,l,1,1.2797639245400205,158.45279203669634,159.48342387680896,,,,,,,,,,,,,,,,,,,,,,,,,,,,,,,,,,,,,,,126817,2023-05-16_14h03.50.141,eb_02psyexp,2022.2.4,99.93809970791466,
50,0,50,0,,,,,,,,,,,,,,,,,,,,,,,,,,,,,,,,,,,,,,,,,,,,,,,,,,,,,,,,,,,159.48342387680896,159.48342387680896,159.48342387680896,159.48342387680896,159.48342387680896,159.48342387680896,s,1,0.8223074763081968,160.32397694152314,161.3446663073264,,,,,,,,,,,,,,,,,,,,,,,,,,,,,,,,,,,,,,,126817,2023-05-16_14h03.50.141,eb_02psyexp,2022.2.4,99.93809970791466,
51,0,51,0,,,,,,,,,,,,,,,,,,,,,,,,,,,,,,,,,,,,,,,,,,,,,,,,,,,,,,,,,,,161.3446663073264,161.3446663073264,161.3446663073264,161.3446663073264,161.3446663073264,161.3446663073264,l,1,0.6650305050425231,162.02505253616255,163.0457337521948,,,,,,,,,,,,,,,,,,,,,,,,,,,,,,,,,,,,,,,126817,2023-05-16_14h03.50.141,eb_02psyexp,2022.2.4,99.93809970791466,
52,0,52,0,,,,,,,,,,,,,,,,,,,,,,,,,,,,,,,,,,,,,,,,,,,,,,,,,,,,,,,,,,,163.0457337521948,163.0457337521948,163.0457337521948,163.0457337521948,163.0457337521948,163.0457337521948,l,1,0.9319831798784435,163.99632292357273,165.01705213286914,,,,,,,,,,,,,,,,,,,,,,,,,,,,,,,,,,,,,,,126817,2023-05-16_14h03.50.141,eb_02psyexp,2022.2.4,99.93809970791466,
53,0,53,0,,,,,,,,,,,,,,,,,,,,,,,,,,,,,,,,,,,,,,,,,,,,,,,,,,,,,,,,,,,165.01705213286914,165.01705213286914,165.01705213286914,165.01705213286914,165.01705213286914,165.01705213286914,l,1,0.6557614469202235,165.68743521650322,166.70808232401032,,,,,,,,,,,,,,,,,,,,,,,,,,,,,,,,,,,,,,,126817,2023-05-16_14h03.50.141,eb_02psyexp,2022.2.4,99.93809970791466,
54,0,54,0,,,,,,,,,,,,,,,,,,,,,,,,,,,,,,,,,,,,,,,,,,,,,,,,,,,,,,,,,,,166.70808232401032,166.70808232401032,166.70808232401032,166.70808232401032,166.70808232401032,166.70808232401032,l,1,0.6766732725081965,167.3985399150988,168.41917525068857,,,,,,,,,,,,,,,,,,,,,,,,,,,,,,,,,,,,,,,126817,2023-05-16_14h03.50.141,eb_02psyexp,2022.2.4,99.93809970791466,
55,0,55,0,,,,,,,,,,,,,,,,,,,,,,,,,,,,,,,,,,,,,,,,,,,,,,,,,,,,,,,,,,,168.41917525068857,168.41917525068857,168.41917525068857,168.41917525068857,168.41917525068857,168.41917525068857,l,1,0.5895822198363021,169.019554428407,170.05022128263954,,,,,,,,,,,,,,,,,,,,,,,,,,,,,,,,,,,,,,,126817,2023-05-16_14h03.50.141,eb_02psyexp,2022.2.4,99.93809970791466,
56,0,56,0,,,,,,,,,,,,,,,,,,,,,,,,,,,,,,,,,,,,,,,,,,,,,,,,,,,,,,,,,,,170.05022128263954,170.05022128263954,170.05022128263954,170.05022128263954,170.05022128263954,170.05022128263954,s,1,1.062518188264221,171.13090989994816,172.1615957703907,,,,,,,,,,,,,,,,,,,,,,,,,,,,,,,,,,,,,,,126817,2023-05-16_14h03.50.141,eb_02psyexp,2022.2.4,99.93809970791466,
57,0,57,0,,,,,,,,,,,,,,,,,,,,,,,,,,,,,,,,,,,,,,,,,,,,,,,,,,,,,,,,,,,172.1615957703907,172.1615957703907,172.1615957703907,172.1615957703907,172.1615957703907,172.1615957703907,s,1,1.3751813732087612,173.55247878178488,174.57319501182064,,,,,,,,,,,,,,,,,,,,,,,,,,,,,,,,,,,,,,,126817,2023-05-16_14h03.50.141,eb_02psyexp,2022.2.4,99.93809970791466,
58,0,58,0,,,,,,,,,,,,,,,,,,,,,,,,,,,,,,,,,,,,,,,,,,,,,,,,,,,,,,,,,,,174.57319501182064,174.57319501182064,174.57319501182064,174.57319501182064,174.57319501182064,174.57319501182064,l,1,0.6916158102685586,175.28360727790277,176.31426417117473,,,,,,,,,,,,,,,,,,,,,,,,,,,,,,,,,,,,,,,126817,2023-05-16_14h03.50.141,eb_02psyexp,2022.2.4,99.93809970791466,
59,0,59,0,,,,,,,,,,,,,,,,,,,,,,,,,,,,,,,,,,,,,,,,,,,,,,,,,,,,,,,,,,,176.31426417117473,176.31426417117473,176.31426417117473,176.31426417117473,176.31426417117473,176.31426417117473,s,1,1.1905469769844785,177.51505874819122,178.5357550564222,,,,,,,,,,,,,,,,,,,,,,,,,,,,,,,,,,,,,,,126817,2023-05-16_14h03.50.141,eb_02psyexp,2022.2.4,99.93809970791466,
60,0,60,0,,,,,,,,,,,,,,,,,,,,,,,,,,,,,,,,,,,,,,,,,,,,,,,,,,,,,,,,,,,178.5357550564222,178.5357550564222,178.5357550564222,178.5357550564222,178.5357550564222,178.5357550564222,l,1,1.2010496758157387,179.75650461006444,180.7771420585923,,,,,,,,,,,,,,,,,,,,,,,,,,,,,,,,,,,,,,,126817,2023-05-16_14h03.50.141,eb_02psyexp,2022.2.4,99.93809970791466,
61,0,61,0,,,,,,,,,,,,,,,,,,,,,,,,,,,,,,,,,,,,,,,,,,,,,,,,,,,,,,,,,,,180.7771420585923,180.7771420585923,180.7771420585923,180.7771420585923,180.7771420585923,180.7771420585923,l,1,1.3587347415741533,182.14803477737587,183.16869697719812,,,,,,,,,,,,,,,,,,,,,,,,,,,,,,,,,,,,,,,126817,2023-05-16_14h03.50.141,eb_02psyexp,2022.2.4,99.93809970791466,
62,0,62,0,,,,,,,,,,,,,,,,,,,,,,,,,,,,,,,,,,,,,,,,,,,,,,,,,,,,,,,,,,,183.16869697719812,183.16869697719812,183.16869697719812,183.16869697719812,183.16869697719812,183.16869697719812,l,1,0.7671534416731447,183.94918800669257,184.96986318577547,,,,,,,,,,,,,,,,,,,,,,,,,,,,,,,,,,,,,,,126817,2023-05-16_14h03.50.141,eb_02psyexp,2022.2.4,99.93809970791466,
63,0,63,0,,,,,,,,,,,,,,,,,,,,,,,,,,,,,,,,,,,,,,,,,,,,,,,,,,,,,,,,,,,184.96986318577547,184.96986318577547,184.96986318577547,184.96986318577547,184.96986318577547,184.96986318577547,l,1,1.4620318554807454,186.4508086127462,187.47151669301093,,,,,,,,,,,,,,,,,,,,,,,,,,,,,,,,,,,,,,,126817,2023-05-16_14h03.50.141,eb_02psyexp,2022.2.4,99.93809970791466,
64,0,64,0,,,,,,,,,,,,,,,,,,,,,,,,,,,,,,,,,,,,,,,,,,,,,,,,,,,,,,,,,,,187.47151669301093,187.47151669301093,187.47151669301093,187.47151669301093,187.47151669301093,187.47151669301093,l,1,0.8003983545349911,188.2820008584531,189.31265111127868,,,,,,,,,,,,,,,,,,,,,,,,,,,,,,,,,,,,,,,126817,2023-05-16_14h03.50.141,eb_02psyexp,2022.2.4,99.93809970791466,
65,0,65,0,,,,,,,,,,,,,,,,,,,,,,,,,,,,,,,,,,,,,,,,,,,,,,,,,,,,,,,,,,,189.31265111127868,189.31265111127868,189.31265111127868,189.31265111127868,189.31265111127868,189.31265111127868,s,1,0.791250336333178,190.12318689224776,191.1538624999812,,,,,,,,,,,,,,,,,,,,,,,,,,,,,,,,,,,,,,,126817,2023-05-16_14h03.50.141,eb_02psyexp,2022.2.4,99.93809970791466,
66,0,66,0,,,,,,,,,,,,,,,,,,,,,,,,,,,,,,,,,,,,,,,,,,,,,,,,,,,,,,,,,,,191.1538624999812,191.1538624999812,191.1538624999812,191.1538624999812,191.1538624999812,191.1538624999812,s,1,1.2540298223029822,192.42468090448529,193.45533447759226,,,,,,,,,,,,,,,,,,,,,,,,,,,,,,,,,,,,,,,126817,2023-05-16_14h03.50.141,eb_02psyexp,2022.2.4,99.93809970791466,
67,0,67,0,,,,,,,,,,,,,,,,,,,,,,,,,,,,,,,,,,,,,,,,,,,,,,,,,,,,,,,,,,,193.45533447759226,193.45533447759226,193.45533447759226,193.45533447759226,193.45533447759226,193.45533447759226,s,1,0.736623021424748,194.205827239668,195.23648111452349,,,,,,,,,,,,,,,,,,,,,,,,,,,,,,,,,,,,,,,126817,2023-05-16_14h03.50.141,eb_02psyexp,2022.2.4,99.93809970791466,
68,0,68,0,,,,,,,,,,,,,,,,,,,,,,,,,,,,,,,,,,,,,,,,,,,,,,,,,,,,,,,,,,,195.23648111452349,195.23648111452349,195.23648111452349,195.23648111452349,195.23648111452349,195.23648111452349,s,1,1.8504747514380142,197.09768007928506,198.11838302807882,,,,,,,,,,,,,,,,,,,,,,,,,,,,,,,,,,,,,,,126817,2023-05-16_14h03.50.141,eb_02psyexp,2022.2.4,99.93809970791466,
69,0,69,0,,,,,,,,,,,,,,,,,,,,,,,,,,,,,,,,,,,,,,,,,,,,,,,,,,,,,,,,,,,198.11838302807882,198.11838302807882,198.11838302807882,198.11838302807882,198.11838302807882,198.11838302807882,l,1,0.6805562074296176,198.8087853816105,199.82943037617952,,,,,,,,,,,,,,,,,,,,,,,,,,,,,,,,,,,,,,,126817,2023-05-16_14h03.50.141,eb_02psyexp,2022.2.4,99.93809970791466,
70,0,70,0,,,,,,,,,,,,,,,,,,,,,,,,,,,,,,,,,,,,,,,,,,,,,,,,,,,,,,,,,,,199.82943037617952,199.82943037617952,199.82943037617952,199.82943037617952,199.82943037617952,199.82943037617952,l,1,0.8734949649078771,200.720010033343,201.7407045305008,,,,,,,,,,,,,,,,,,,,,,,,,,,,,,,,,,,,,,,126817,2023-05-16_14h03.50.141,eb_02psyexp,2022.2.4,99.93809970791466,
71,0,71,0,,,,,,,,,,,,,,,,,,,,,,,,,,,,,,,,,,,,,,,,,,,,,,,,,,,,,,,,,,,201.7407045305008,201.7407045305008,201.7407045305008,201.7407045305008,201.7407045305008,201.7407045305008,l,1,4.562276108539663,206.3136529349722,207.34430409327615,,,,,,,,,,,,,,,,,,,,,,,,,,,,,,,,,,,,,,,126817,2023-05-16_14h03.50.141,eb_02psyexp,2022.2.4,99.93809970791466,
72,0,72,0,,,,,,,,,,,,,,,,,,,,,,,,,,,,,,,,,,,,,,,,,,,,,,,,,,,,,,,,,,,207.34430409327615,207.34430409327615,207.34430409327615,207.34430409327615,207.34430409327615,207.34430409327615,s,1,0.6066790256882086,207.96468201535754,208.98537228663918,,,,,,,,,,,,,,,,,,,,,,,,,,,,,,,,,,,,,,,126817,2023-05-16_14h03.50.141,eb_02psyexp,2022.2.4,99.93809970791466,
73,0,73,0,,,,,,,,,,,,,,,,,,,,,,,,,,,,,,,,,,,,,,,,,,,,,,,,,,,,,,,,,,,208.98537228663918,208.98537228663918,208.98537228663918,208.98537228663918,208.98537228663918,208.98537228663918,s,1,0.6136223676148802,209.61576663516462,210.63647592277266,,,,,,,,,,,,,,,,,,,,,,,,,,,,,,,,,,,,,,,126817,2023-05-16_14h03.50.141,eb_02psyexp,2022.2.4,99.93809970791466,
74,0,74,0,,,,,,,,,,,,,,,,,,,,,,,,,,,,,,,,,,,,,,,,,,,,,,,,,,,,,,,,,,,210.63647592277266,210.63647592277266,210.63647592277266,210.63647592277266,210.63647592277266,210.63647592277266,s,1,1.3225305397063494,211.97727378376294,212.99792451341636,,,,,,,,,,,,,,,,,,,,,,,,,,,,,,,,,,,,,,,126817,2023-05-16_14h03.50.141,eb_02psyexp,2022.2.4,99.93809970791466,
75,0,75,0,,,,,,,,,,,,,,,,,,,,,,,,,,,,,,,,,,,,,,,,,,,,,,,,,,,,,,,,,,,212.99792451341636,212.99792451341636,212.99792451341636,212.99792451341636,212.99792451341636,212.99792451341636,s,1,1.4400958695914596,214.44890185748227,215.469609937747,,,,,,,,,,,,,,,,,,,,,,,,,,,,,,,,,,,,,,,126817,2023-05-16_14h03.50.141,eb_02psyexp,2022.2.4,99.93809970791466,
76,0,76,0,,,,,,,,,,,,,,,,,,,,,,,,,,,,,,,,,,,,,,,,,,,,,,,,,,,,,,,,,,,215.469609937747,215.469609937747,215.469609937747,215.469609937747,215.469609937747,215.469609937747,l,1,1.06440773839131,216.5502366767032,217.57089736731723,,,,,,,,,,,,,,,,,,,,,,,,,,,,,,,,,,,,,,,126817,2023-05-16_14h03.50.141,eb_02psyexp,2022.2.4,99.93809970791466,
77,0,77,0,,,,,,,,,,,,,,,,,,,,,,,,,,,,,,,,,,,,,,,,,,,,,,,,,,,,,,,,,,,217.57089736731723,217.57089736731723,217.57089736731723,217.57089736731723,217.57089736731723,217.57089736731723,l,1,1.443128205020912,219.0318307687994,220.06250758387614,,,,,,,,,,,,,,,,,,,,,,,,,,,,,,,,,,,,,,,126817,2023-05-16_14h03.50.141,eb_02psyexp,2022.2.4,99.93809970791466,
78,0,78,0,,,,,,,,,,,,,,,,,,,,,,,,,,,,,,,,,,,,,,,,,,,,,,,,,,,,,,,,,,,220.06250758387614,220.06250758387614,220.06250758387614,220.06250758387614,220.06250758387614,220.06250758387614,s,1,0.871577946934849,220.95308210968506,221.97371804900467,,,,,,,,,,,,,,,,,,,,,,,,,,,,,,,,,,,,,,,126817,2023-05-16_14h03.50.141,eb_02psyexp,2022.2.4,99.93809970791466,
79,0,79,0,,,,,,,,,,,,,,,,,,,,,,,,,,,,,,,,,,,,,,,,,,,,,,,,,,,,,,,,,,,221.97371804900467,221.97371804900467,221.97371804900467,221.97371804900467,221.97371804900467,221.97371804900467,l,1,0.8803628454916179,222.86431310034823,223.88504472444765,,,,,,,,,,,,,,,,,,,,,,,,,,,,,,,,,,,,,,,126817,2023-05-16_14h03.50.141,eb_02psyexp,2022.2.4,99.93809970791466,
80,0,80,0,,,,,,,,,,,,,,,,,,,,,,,,,,,,,,,,,,,,,,,,,,,,,,,,,,,,,,,,,,,223.88504472444765,223.88504472444765,223.88504472444765,223.88504472444765,223.88504472444765,223.88504472444765,l,1,2.712181721581146,226.61674189660698,227.6373690823093,,,,,,,,,,,,,,,,,,,,,,,,,,,,,,,,,,,,,,,126817,2023-05-16_14h03.50.141,eb_02psyexp,2022.2.4,99.93809970791466,
81,0,81,0,,,,,,,,,,,,,,,,,,,,,,,,,,,,,,,,,,,,,,,,,,,,,,,,,,,,,,,,,,,227.6373690823093,227.6373690823093,227.6373690823093,227.6373690823093,227.6373690823093,227.6373690823093,l,1,0.975751920719631,228.62804659770336,229.65867994714063,,,,,,,,,,,,,,,,,,,,,,,,,,,,,,,,,,,,,,,126817,2023-05-16_14h03.50.141,eb_02psyexp,2022.2.4,99.93809970791466,
82,0,82,0,,,,,,,,,,,,,,,,,,,,,,,,,,,,,,,,,,,,,,,,,,,,,,,,,,,,,,,,,,,229.65867994714063,229.65867994714063,229.65867994714063,229.65867994714063,229.65867994714063,229.65867994714063,s,1,0.7304273498011753,230.39919461705722,231.4198402153561,,,,,,,,,,,,,,,,,,,,,,,,,,,,,,,,,,,,,,,126817,2023-05-16_14h03.50.141,eb_02psyexp,2022.2.4,99.93809970791466,
83,0,83,0,,,,,,,,,,,,,,,,,,,,,,,,,,,,,,,,,,,,,,,,,,,,,,,,,,,,,,,,,,,231.4198402153561,231.4198402153561,231.4198402153561,231.4198402153561,231.4198402153561,231.4198402153561,l,1,0.6972992509836331,232.13030922820326,233.1609760824358,,,,,,,,,,,,,,,,,,,,,,,,,,,,,,,,,,,,,,,126817,2023-05-16_14h03.50.141,eb_02psyexp,2022.2.4,99.93809970791466,
84,0,84,0,,,,,,,,,,,,,,,,,,,,,,,,,,,,,,,,,,,,,,,,,,,,,,,,,,,,,,,,,,,233.1609760824358,233.1609760824358,233.1609760824358,233.1609760824358,233.1609760824358,233.1609760824358,s,1,0.65213991003111,233.83138361549936,234.85205155028962,,,,,,,,,,,,,,,,,,,,,,,,,,,,,,,,,,,,,,,126817,2023-05-16_14h03.50.141,eb_02psyexp,2022.2.4,99.93809970791466,
85,0,85,0,,,,,,,,,,,,,,,,,,,,,,,,,,,,,,,,,,,,,,,,,,,,,,,,,,,,,,,,,,,234.85205155028962,234.85205155028962,234.85205155028962,234.85205155028962,234.85205155028962,234.85205155028962,s,1,0.7690710632596165,235.63254831486847,236.66321094322484,,,,,,,,,,,,,,,,,,,,,,,,,,,,,,,,,,,,,,,126817,2023-05-16_14h03.50.141,eb_02psyexp,2022.2.4,99.93809970791466,
86,0,86,0,,,,,,,,,,,,,,,,,,,,,,,,,,,,,,,,,,,,,,,,,,,,,,,,,,,,,,,,,,,236.66321094322484,236.66321094322484,236.66321094322484,236.66321094322484,236.66321094322484,236.66321094322484,s,1,1.2139408745570108,237.8940146539826,238.91465572465677,,,,,,,,,,,,,,,,,,,,,,,,,,,,,,,,,,,,,,,126817,2023-05-16_14h03.50.141,eb_02psyexp,2022.2.4,99.93809970791466,
87,0,87,0,,,,,,,,,,,,,,,,,,,,,,,,,,,,,,,,,,,,,,,,,,,,,,,,,,,,,,,,,,,238.91465572465677,238.91465572465677,238.91465572465677,238.91465572465677,238.91465572465677,238.91465572465677,s,1,1.4264968441566452,240.35560426663142,241.38624395488296,,,,,,,,,,,,,,,,,,,,,,,,,,,,,,,,,,,,,,,126817,2023-05-16_14h03.50.141,eb_02psyexp,2022.2.4,99.93809970791466,
88,0,88,0,,,,,,,,,,,,,,,,,,,,,,,,,,,,,,,,,,,,,,,,,,,,,,,,,,,,,,,,,,,241.38624395488296,241.38624395488296,241.38624395488296,241.38624395488296,241.38624395488296,241.38624395488296,l,1,0.8110118304612115,242.21680594806094,243.23751976329368,,,,,,,,,,,,,,,,,,,,,,,,,,,,,,,,,,,,,,,126817,2023-05-16_14h03.50.141,eb_02psyexp,2022.2.4,99.93809970791466,
89,0,89,0,,,,,,,,,,,,,,,,,,,,,,,,,,,,,,,,,,,,,,,,,,,,,,,,,,,,,,,,,,,243.23751976329368,243.23751976329368,243.23751976329368,243.23751976329368,243.23751976329368,243.23751976329368,s,1,4.262707565794699,247.51023073645774,248.53089112509042,,,,,,,,,,,,,,,,,,,,,,,,,,,,,,,,,,,,,,,126817,2023-05-16_14h03.50.141,eb_02psyexp,2022.2.4,99.93809970791466,
90,0,90,0,,,,,,,,,,,,,,,,,,,,,,,,,,,,,,,,,,,,,,,,,,,,,,,,,,,,,,,,,,,248.53089112509042,248.53089112509042,248.53089112509042,248.53089112509042,248.53089112509042,248.53089112509042,s,1,1.905339316581376,250.45213552366477,251.48276947671548,,,,,,,,,,,,,,,,,,,,,,,,,,,,,,,,,,,,,,,126817,2023-05-16_14h03.50.141,eb_02psyexp,2022.2.4,99.93809970791466,
91,0,91,0,,,,,,,,,,,,,,,,,,,,,,,,,,,,,,,,,,,,,,,,,,,,,,,,,,,,,,,,,,,251.48276947671548,251.48276947671548,251.48276947671548,251.48276947671548,251.48276947671548,251.48276947671548,l,1,0.7134715054417029,252.21329941402655,253.23393535322975,,,,,,,,,,,,,,,,,,,,,,,,,,,,,,,,,,,,,,,126817,2023-05-16_14h03.50.141,eb_02psyexp,2022.2.4,99.93809970791466,
92,0,92,0,,,,,,,,,,,,,,,,,,,,,,,,,,,,,,,,,,,,,,,,,,,,,,,,,,,,,,,,,,,253.23393535322975,253.23393535322975,253.23393535322975,253.23393535322975,253.23393535322975,253.23393535322975,s,1,0.81830863293726,254.06447048229165,255.0951002095826,,,,,,,,,,,,,,,,,,,,,,,,,,,,,,,,,,,,,,,126817,2023-05-16_14h03.50.141,eb_02psyexp,2022.2.4,99.93809970791466,
93,0,93,0,,,,,,,,,,,,,,,,,,,,,,,,,,,,,,,,,,,,,,,,,,,,,,,,,,,,,,,,,,,255.0951002095826,255.0951002095826,255.0951002095826,255.0951002095826,255.0951002095826,255.0951002095826,l,1,0.717158542945981,255.82559181260876,256.8562257656595,,,,,,,,,,,,,,,,,,,,,,,,,,,,,,,,,,,,,,,126817,2023-05-16_14h03.50.141,eb_02psyexp,2022.2.4,99.93809970791466,
94,0,94,0,,,,,,,,,,,,,,,,,,,,,,,,,,,,,,,,,,,,,,,,,,,,,,,,,,,,,,,,,,,256.8562257656595,256.8562257656595,256.8562257656595,256.8562257656595,256.8562257656595,256.8562257656595,s,1,1.0120572407031432,257.8869451408973,258.917600524961,,,,,,,,,,,,,,,,,,,,,,,,,,,,,,,,,,,,,,,126817,2023-05-16_14h03.50.141,eb_02psyexp,2022.2.4,99.93809970791466,
95,0,95,0,,,,,,,,,,,,,,,,,,,,,,,,,,,,,,,,,,,,,,,,,,,,,,,,,,,,,,,,,,,258.917600524961,258.917600524961,258.917600524961,258.917600524961,258.917600524961,258.917600524961,l,1,1.133670614566654,260.06835975591093,261.09899853845127,,,,,,,,,,,,,,,,,,,,,,,,,,,,,,,,,,,,,,,126817,2023-05-16_14h03.50.141,eb_02psyexp,2022.2.4,99.93809970791466,
96,0,96,0,,,,,,,,,,,,,,,,,,,,,,,,,,,,,,,,,,,,,,,,,,,,,,,,,,,,,,,,,,,261.09899853845127,261.09899853845127,261.09899853845127,261.09899853845127,261.09899853845127,261.09899853845127,s,1,0.6722916897851974,261.78945130005013,262.8201081934385,,,,,,,,,,,,,,,,,,,,,,,,,,,,,,,,,,,,,,,126817,2023-05-16_14h03.50.141,eb_02psyexp,2022.2.4,99.93809970791466,
97,0,97,0,,,,,,,,,,,,,,,,,,,,,,,,,,,,,,,,,,,,,,,,,,,,,,,,,,,,,,,,,,,262.8201081934385,262.8201081934385,262.8201081934385,262.8201081934385,262.8201081934385,262.8201081934385,l,1,1.1431950335390866,263.98086724919267,265.0115380274365,,,,,,,,,,,,,,,,,,,,,,,,,,,,,,,,,,,,,,,126817,2023-05-16_14h03.50.141,eb_02psyexp,2022.2.4,99.93809970791466,
98,0,98,0,,,,,,,,,,,,,,,,,,,,,,,,,,,,,,,,,,,,,,,,,,,,,,,,,,,,,,,,,,,265.0115380274365,265.0115380274365,265.0115380274365,265.0115380274365,265.0115380274365,265.0115380274365,s,1,0.9037561393342912,265.9321400995832,266.9527814721223,,,,,,,,,,,,,,,,,,,,,,,,,,,,,,,,,,,,,,,126817,2023-05-16_14h03.50.141,eb_02psyexp,2022.2.4,99.93809970791466,
99,0,99,0,,,,,,,,,,,,,,,,,,,,,,,,,,,,,,,,,,,,,,,,,,,,,,,,,,,,,,,,,,,266.9527814721223,266.9527814721223,266.9527814721223,266.9527814721223,266.9527814721223,266.9527814721223,s,1,1.6905653895810246,268.6538839309942,269.68455772765446,,,,,,,,,,,,,,,,,,,,,,,,,,,,,,,,,,,,,,,126817,2023-05-16_14h03.50.141,eb_02psyexp,2022.2.4,99.93809970791466,
100,0,100,0,,,,,,,,,,,,,,,,,,,,,,,,,,,,,,,,,,,,,,,,,,,,,,,,,,,,,,,,,,,269.68455772765446,269.68455772765446,269.68455772765446,269.68455772765446,269.68455772765446,269.68455772765446,s,1,0.9347972813993692,270.63516410416923,271.6558175503742,,,,,,,,,,,,,,,,,,,,,,,,,,,,,,,,,,,,,,,126817,2023-05-16_14h03.50.141,eb_02psyexp,2022.2.4,99.93809970791466,
101,0,101,0,,,,,,,,,,,,,,,,,,,,,,,,,,,,,,,,,,,,,,,,,,,,,,,,,,,,,,,,,,,271.6558175503742,271.6558175503742,271.6558175503742,271.6558175503742,271.6558175503742,271.6558175503742,l,1,19.177679623942822,290.8482154015219,291.8788895000471,,,,,,,,,,,,,,,,,,,,,,,,,,,,,,,,,,,,,,,126817,2023-05-16_14h03.50.141,eb_02psyexp,2022.2.4,99.93809970791466,
102,0,102,0,,,,,,,,,,,,,,,,,,,,,,,,,,,,,,,,,,,,,,,,,,,,,,,,,,,,,,,,,,,291.8788895000471,291.8788895000471,291.8788895000471,291.8788895000471,291.8788895000471,291.8788895000471,s,1,0.9945559623884037,292.8895636467496,293.92019699618686,,,,,,,,,,,,,,,,,,,,,,,,,,,,,,,,,,,,,,,126817,2023-05-16_14h03.50.141,eb_02psyexp,2022.2.4,99.93809970791466,
103,0,103,0,,,,,,,,,,,,,,,,,,,,,,,,,,,,,,,,,,,,,,,,,,,,,,,,,,,,,,,,,,,293.92019699618686,293.92019699618686,293.92019699618686,293.92019699618686,293.92019699618686,293.92019699618686,l,1,0.7292607186827809,294.66067695396487,295.6813805064885,,,,,,,,,,,,,,,,,,,,,,,,,,,,,,,,,,,,,,,126817,2023-05-16_14h03.50.141,eb_02psyexp,2022.2.4,99.93809970791466,
104,0,104,0,,,,,,,,,,,,,,,,,,,,,,,,,,,,,,,,,,,,,,,,,,,,,,,,,,,,,,,,,,,295.6813805064885,295.6813805064885,295.6813805064885,295.6813805064885,295.6813805064885,295.6813805064885,s,1,0.7120875460095704,296.41181717370637,297.4424804057926,,,,,,,,,,,,,,,,,,,,,,,,,,,,,,,,,,,,,,,126817,2023-05-16_14h03.50.141,eb_02psyexp,2022.2.4,99.93809970791466,
105,0,105,0,,,,,,,,,,,,,,,,,,,,,,,,,,,,,,,,,,,,,,,,,,,,,,,,,,,,,,,,,,,297.4424804057926,297.4424804057926,297.4424804057926,297.4424804057926,297.4424804057926,297.4424804057926,l,1,0.6470133735565469,298.10291588364635,299.1235711410409,,,,,,,,,,,,,,,,,,,,,,,,,,,,,,,,,,,,,,,126817,2023-05-16_14h03.50.141,eb_02psyexp,2022.2.4,99.93809970791466,
106,0,106,0,,,,,,,,,,,,,,,,,,,,,,,,,,,,,,,,,,,,,,,,,,,,,,,,,,,,,,,,,,,299.1235711410409,299.1235711410409,299.1235711410409,299.1235711410409,299.1235711410409,299.1235711410409,s,1,3.14996692747809,302.28563839325216,303.3162623854587,,,,,,,,,,,,,,,,,,,,,,,,,,,,,,,,,,,,,,,126817,2023-05-16_14h03.50.141,eb_02psyexp,2022.2.4,99.93809970791466,
107,0,107,0,,,,,,,,,,,,,,,,,,,,,,,,,,,,,,,,,,,,,,,,,,,,,,,,,,,,,,,,,,,303.3162623854587,303.3162623854587,303.3162623854587,303.3162623854587,303.3162623854587,303.3162623854587,s,1,0.6132655867841095,303.94665794132743,304.9773341527907,,,,,,,,,,,,,,,,,,,,,,,,,,,,,,,,,,,,,,,126817,2023-05-16_14h03.50.141,eb_02psyexp,2022.2.4,99.93809970791466,
108,0,108,0,,,,,,,,,,,,,,,,,,,,,,,,,,,,,,,,,,,,,,,,,,,,,,,,,,,,,,,,,,,304.9773341527907,304.9773341527907,304.9773341527907,304.9773341527907,304.9773341527907,304.9773341527907,l,1,0.6561927836155519,305.6477588909911,306.66841988347005,,,,,,,,,,,,,,,,,,,,,,,,,,,,,,,,,,,,,,,126817,2023-05-16_14h03.50.141,eb_02psyexp,2022.2.4,99.93809970791466,
109,0,109,0,,,,,,,,,,,,,,,,,,,,,,,,,,,,,,,,,,,,,,,,,,,,,,,,,,,,,,,,,,,306.66841988347005,306.66841988347005,306.66841988347005,306.66841988347005,306.66841988347005,306.66841988347005,s,1,1.1961139055201784,307.8791985893622,308.89991723408457,,,,,,,,,,,,,,,,,,,,,,,,,,,,,,,,,,,,,,,126817,2023-05-16_14h03.50.141,eb_02psyexp,2022.2.4,99.93809970791466,
110,0,110,0,,,,,,,,,,,,,,,,,,,,,,,,,,,,,,,,,,,,,,,,,,,,,,,,,,,,,,,,,,,308.89991723408457,308.89991723408457,308.89991723408457,308.89991723408457,308.89991723408457,308.89991723408457,s,1,1.3326468768063933,310.250733634457,311.2814032052411,,,,,,,,,,,,,,,,,,,,,,,,,,,,,,,,,,,,,,,126817,2023-05-16_14h03.50.141,eb_02psyexp,2022.2.4,99.93809970791466,
111,0,111,0,,,,,,,,,,,,,,,,,,,,,,,,,,,,,,,,,,,,,,,,,,,,,,,,,,,,,,,,,,,311.2814032052411,311.2814032052411,311.2814032052411,311.2814032052411,311.2814032052411,311.2814032052411,s,1,0.8951405758270994,312.1920160171576,313.22267864551395,,,,,,,,,,,,,,,,,,,,,,,,,,,,,,,,,,,,,,,126817,2023-05-16_14h03.50.141,eb_02psyexp,2022.2.4,99.93809970791466,
112,0,112,0,,,,,,,,,,,,,,,,,,,,,,,,,,,,,,,,,,,,,,,,,,,,,,,,,,,,,,,,,,,313.22267864551395,313.22267864551395,313.22267864551395,313.22267864551395,313.22267864551395,313.22267864551395,s,1,1.353888619109057,314.59358072152827,315.61426344676875,,,,,,,,,,,,,,,,,,,,,,,,,,,,,,,,,,,,,,,126817,2023-05-16_14h03.50.141,eb_02psyexp,2022.2.4,99.93809970791466,
113,0,113,0,,,,,,,,,,,,,,,,,,,,,,,,,,,,,,,,,,,,,,,,,,,,,,,,,,,,,,,,,,,315.61426344676875,315.61426344676875,315.61426344676875,315.61426344676875,315.61426344676875,315.61426344676875,l,1,1.202318028663285,316.83501481160056,317.85568425559904,,,,,,,,,,,,,,,,,,,,,,,,,,,,,,,,,,,,,,,126817,2023-05-16_14h03.50.141,eb_02psyexp,2022.2.4,99.93809970791466,
114,0,114,0,,,,,,,,,,,,,,,,,,,,,,,,,,,,,,,,,,,,,,,,,,,,,,,,,,,,,,,,,,,317.85568425559904,317.85568425559904,317.85568425559904,317.85568425559904,317.85568425559904,317.85568425559904,l,1,0.8249208508059382,318.6962167947786,319.7169245731784,,,,,,,,,,,,,,,,,,,,,,,,,,,,,,,,,,,,,,,126817,2023-05-16_14h03.50.141,eb_02psyexp,2022.2.4,99.93809970791466,
115,0,115,0,,,,,,,,,,,,,,,,,,,,,,,,,,,,,,,,,,,,,,,,,,,,,,,,,,,,,,,,,,,319.7169245731784,319.7169245731784,319.7169245731784,319.7169245731784,319.7169245731784,319.7169245731784,l,1,1.2347536949673668,320.96766997955274,321.98830682435073,,,,,,,,,,,,,,,,,,,,,,,,,,,,,,,,,,,,,,,126817,2023-05-16_14h03.50.141,eb_02psyexp,2022.2.4,99.93809970791466,
116,0,116,0,,,,,,,,,,,,,,,,,,,,,,,,,,,,,,,,,,,,,,,,,,,,,,,,,,,,,,,,,,,321.98830682435073,321.98830682435073,321.98830682435073,321.98830682435073,321.98830682435073,321.98830682435073,l,1,1.6513243246590719,323.65939109399915,324.68003246653825,,,,,,,,,,,,,,,,,,,,,,,,,,,,,,,,,,,,,,,126817,2023-05-16_14h03.50.141,eb_02psyexp,2022.2.4,99.93809970791466,
117,0,117,0,,,,,,,,,,,,,,,,,,,,,,,,,,,,,,,,,,,,,,,,,,,,,,,,,,,,,,,,,,,324.68003246653825,324.68003246653825,324.68003246653825,324.68003246653825,324.68003246653825,324.68003246653825,l,1,0.6156281280564144,325.3104754120577,326.3411437754985,,,,,,,,,,,,,,,,,,,,,,,,,,,,,,,,,,,,,,,126817,2023-05-16_14h03.50.141,eb_02psyexp,2022.2.4,99.93809970791466,
118,0,118,0,,,,,,,,,,,,,,,,,,,,,,,,,,,,,,,,,,,,,,,,,,,,,,,,,,,,,,,,,,,326.3411437754985,326.3411437754985,326.3411437754985,326.3411437754985,326.3411437754985,326.3411437754985,s,1,0.7625122721074149,327.1216299753869,328.1422737626126,,,,,,,,,,,,,,,,,,,,,,,,,,,,,,,,,,,,,,,126817,2023-05-16_14h03.50.141,eb_02psyexp,2022.2.4,99.93809970791466,
119,0,119,0,,,,,,,,,,,,,,,,,,,,,,,,,,,,,,,,,,,,,,,,,,,,,,,,,,,,,,,,,,,328.1422737626126,328.1422737626126,328.1422737626126,328.1422737626126,328.1422737626126,328.1422737626126,l,1,0.5293937114765868,328.6826603296213,329.71333442803007,,,,,,,,,,,,,,,,,,,,,,,,,,,,,,,,,,,,,,,126817,2023-05-16_14h03.50.141,eb_02psyexp,2022.2.4,99.93809970791466,
120,0,120,0,,,,,,,,,,,,,,,,,,,,,,,,,,,,,,,,,,,,,,,,,,,,,,,,,,,,,,,,,,,329.71333442803007,329.71333442803007,329.71333442803007,329.71333442803007,329.71333442803007,329.71333442803007,s,1,0.6303657130338252,330.35375425836537,331.37440317694563,,,,,,,,,,,,,,,,,,,,,,,,,,,,,,,,,,,,,,,126817,2023-05-16_14h03.50.141,eb_02psyexp,2022.2.4,99.93809970791466,
121,0,121,0,,,,,,,,,,,,,,,,,,,,,,,,,,,,,,,,,,,,,,,,,,,,,,,,,,,,,,,,,,,331.37440317694563,331.37440317694563,331.37440317694563,331.37440317694563,331.37440317694563,331.37440317694563,l,1,0.36126359936315566,331.75462743570097,332.78528131055646,,,,,,,,,,,,,,,,,,,,,,,,,,,,,,,,,,,,,,,126817,2023-05-16_14h03.50.141,eb_02psyexp,2022.2.4,99.93809970791466,
122,0,122,0,,,,,,,,,,,,,,,,,,,,,,,,,,,,,,,,,,,,,,,,,,,,,,,,,,,,,,,,,,,332.78528131055646,332.78528131055646,332.78528131055646,332.78528131055646,332.78528131055646,332.78528131055646,s,1,0.6704117987537757,333.4657843534369,334.4863976542838,,,,,,,,,,,,,,,,,,,,,,,,,,,,,,,,,,,,,,,126817,2023-05-16_14h03.50.141,eb_02psyexp,2022.2.4,99.93809970791466,
123,0,123,0,,,,,,,,,,,,,,,,,,,,,,,,,,,,,,,,,,,,,,,,,,,,,,,,,,,,,,,,,,,334.4863976542838,334.4863976542838,334.4863976542838,334.4863976542838,334.4863976542838,334.4863976542838,l,1,0.849304800038226,335.34694614307955,336.37761843041517,,,,,,,,,,,,,,,,,,,,,,,,,,,,,,,,,,,,,,,126817,2023-05-16_14h03.50.141,eb_02psyexp,2022.2.4,99.93809970791466,
124,0,124,0,,,,,,,,,,,,,,,,,,,,,,,,,,,,,,,,,,,,,,,,,,,,,,,,,,,,,,,,,,,336.37761843041517,336.37761843041517,336.37761843041517,336.37761843041517,336.37761843041517,336.37761843041517,s,1,0.861142861424014,337.25818347232416,338.28885847632773,,,,,,,,,,,,,,,,,,,,,,,,,,,,,,,,,,,,,,,126817,2023-05-16_14h03.50.141,eb_02psyexp,2022.2.4,99.93809970791466,
125,0,125,0,,,,,,,,,,,,,,,,,,,,,,,,,,,,,,,,,,,,,,,,,,,,,,,,,,,,,,,,,,,338.28885847632773,338.28885847632773,338.28885847632773,338.28885847632773,338.28885847632773,338.28885847632773,s,1,0.6778634476941079,338.97928618476726,340.00995907583274,,,,,,,,,,,,,,,,,,,,,,,,,,,,,,,,,,,,,,,126817,2023-05-16_14h03.50.141,eb_02psyexp,2022.2.4,99.93809970791466,
126,0,126,0,,,,,,,,,,,,,,,,,,,,,,,,,,,,,,,,,,,,,,,,,,,,,,,,,,,,,,,,,,,340.00995907583274,340.00995907583274,340.00995907583274,340.00995907583274,340.00995907583274,340.00995907583274,s,1,0.7727590063586831,340.80046351335477,341.82119030796457,,,,,,,,,,,,,,,,,,,,,,,,,,,,,,,,,,,,,,,126817,2023-05-16_14h03.50.141,eb_02psyexp,2022.2.4,99.93809970791466,
127,0,127,0,,,,,,,,,,,,,,,,,,,,,,,,,,,,,,,,,,,,,,,,,,,,,,,,,,,,,,,,,,,341.82119030796457,341.82119030796457,341.82119030796457,341.82119030796457,341.82119030796457,341.82119030796457,l,1,0.5855553048895672,342.42153960303403,,,,,,,,,,,,,,,,,,,,,,,,,,,,,,,,,,,,,,,,126817,2023-05-16_14h03.50.141,eb_02psyexp,2022.2.4,99.93809970791466,
128,0,128,0,,,,,,,,,,,,,,,,,,,,,,,,,,,,,,,,,,,,,,,,,,,,,,,,,,,,,,,,,,,343.452508604154,343.452508604154,343.452508604154,343.452508604154,343.452508604154,343.452508604154,s,1,0.5862383802887052,344.05288144317456,345.0732113114791,,,,,,,,,,,,,,,,,,,,,,,,,,,,,,,,,,,,,,,126817,2023-05-16_14h03.50.141,eb_02psyexp,2022.2.4,99.93809970791466,
129,0,129,0,,,,,,,,,,,,,,,,,,,,,,,,,,,,,,,,,,,,,,,,,,,,,,,,,,,,,,,,,,,345.0732113114791,345.0732113114791,345.0732113114791,345.0732113114791,345.0732113114791,345.0732113114791,l,1,0.7015380611410365,345.7936961471569,346.82437447144184,,,,,,,,,,,,,,,,,,,,,,,,,,,,,,,,,,,,,,,126817,2023-05-16_14h03.50.141,eb_02psyexp,2022.2.4,99.93809970791466,
130,0,130,0,,,,,,,,,,,,,,,,,,,,,,,,,,,,,,,,,,,,,,,,,,,,,,,,,,,,,,,,,,,346.82437447144184,346.82437447144184,346.82437447144184,346.82437447144184,346.82437447144184,346.82437447144184,s,1,0.9104435165645555,347.744946661056,348.775646416354,,,,,,,,,,,,,,,,,,,,,,,,,,,,,,,,,,,,,,,126817,2023-05-16_14h03.50.141,eb_02psyexp,2022.2.4,99.93809970791466,
131,0,131,0,,,,,,,,,,,,,,,,,,,,,,,,,,,,,,,,,,,,,,,,,,,,,,,,,,,,,,,,,,,348.775646416354,348.775646416354,348.775646416354,348.775646416354,348.775646416354,348.775646416354,s,1,0.7191470981342718,349.5061171919806,350.5268092744518,,,,,,,,,,,,,,,,,,,,,,,,,,,,,,,,,,,,,,,126817,2023-05-16_14h03.50.141,eb_02psyexp,2022.2.4,99.93809970791466,
132,0,132,0,,,,,,,,,,,,,,,,,,,,,,,,,,,,,,,,,,,,,,,,,,,,,,,,,,,,,,,,,,,350.5268092744518,350.5268092744518,350.5268092744518,350.5268092744518,350.5268092744518,350.5268092744518,s,1,0.6239985933061689,351.1671910721343,352.1878236911725,,,,,,,,,,,,,,,,,,,,,,,,,,,,,,,,,,,,,,,126817,2023-05-16_14h03.50.141,eb_02psyexp,2022.2.4,99.93809970791466,
133,0,133,0,,,,,,,,,,,,,,,,,,,,,,,,,,,,,,,,,,,,,,,,,,,,,,,,,,,,,,,,,,,352.1878236911725,352.1878236911725,352.1878236911725,352.1878236911725,352.1878236911725,352.1878236911725,s,1,0.6500680455937982,352.84827456308994,353.87894443573896,,,,,,,,,,,,,,,,,,,,,,,,,,,,,,,,,,,,,,,126817,2023-05-16_14h03.50.141,eb_02psyexp,2022.2.4,99.93809970791466,
134,0,134,0,,,,,,,,,,,,,,,,,,,,,,,,,,,,,,,,,,,,,,,,,,,,,,,,,,,,,,,,,,,353.87894443573896,353.87894443573896,353.87894443573896,353.87894443573896,353.87894443573896,353.87894443573896,s,1,0.6468878058949485,354.53934640891384,355.57001839450095,,,,,,,,,,,,,,,,,,,,,,,,,,,,,,,,,,,,,,,126817,2023-05-16_14h03.50.141,eb_02psyexp,2022.2.4,99.93809970791466,
135,0,135,0,,,,,,,,,,,,,,,,,,,,,,,,,,,,,,,,,,,,,,,,,,,,,,,,,,,,,,,,,,,355.57001839450095,355.57001839450095,355.57001839450095,355.57001839450095,355.57001839450095,355.57001839450095,l,1,0.7558155376464128,356.3405153340427,357.3612191884313,,,,,,,,,,,,,,,,,,,,,,,,,,,,,,,,,,,,,,,126817,2023-05-16_14h03.50.141,eb_02psyexp,2022.2.4,99.93809970791466,
136,0,136,0,,,,,,,,,,,,,,,,,,,,,,,,,,,,,,,,,,,,,,,,,,,,,,,,,,,,,,,,,,,357.3612191884313,357.3612191884313,357.3612191884313,357.3612191884313,357.3612191884313,357.3612191884313,s,1,22.067715658340603,379.4454559943406,380.47611862269696,,,,,,,,,,,,,,,,,,,,,,,,,,,,,,,,,,,,,,,126817,2023-05-16_14h03.50.141,eb_02psyexp,2022.2.4,99.93809970791466,
137,0,137,0,,,,,,,,,,,,,,,,,,,,,,,,,,,,,,,,,,,,,,,,,,,,,,,,,,,,,,,,,,,380.47611862269696,380.47611862269696,380.47611862269696,380.47611862269696,380.47611862269696,380.47611862269696,s,1,1.5928409391781315,382.08712274651043,383.1078637278406,,,,,,,,,,,,,,,,,,,,,,,,,,,,,,,,,,,,,,,126817,2023-05-16_14h03.50.141,eb_02psyexp,2022.2.4,99.93809970791466,
138,0,138,0,,,,,,,,,,,,,,,,,,,,,,,,,,,,,,,,,,,,,,,,,,,,,,,,,,,,,,,,,,,383.1078637278406,383.1078637278406,383.1078637278406,383.1078637278406,383.1078637278406,383.1078637278406,s,1,1.1441865946399048,384.268559094402,385.29924405924976,,,,,,,,,,,,,,,,,,,,,,,,,,,,,,,,,,,,,,,126817,2023-05-16_14h03.50.141,eb_02psyexp,2022.2.4,99.93809970791466,
139,0,139,0,,,,,,,,,,,,,,,,,,,,,,,,,,,,,,,,,,,,,,,,,,,,,,,,,,,,,,,,,,,385.29924405924976,385.29924405924976,385.29924405924976,385.29924405924976,385.29924405924976,385.29924405924976,s,1,0.7527940685395151,386.0697201715084,387.0904472679831,,,,,,,,,,,,,,,,,,,,,,,,,,,,,,,,,,,,,,,126817,2023-05-16_14h03.50.141,eb_02psyexp,2022.2.4,99.93809970791466,
140,0,140,0,,,,,,,,,,,,,,,,,,,,,,,,,,,,,,,,,,,,,,,,,,,,,,,,,,,,,,,,,,,387.0904472679831,387.0904472679831,387.0904472679831,387.0904472679831,387.0904472679831,387.0904472679831,s,1,5.313605585019104,392.4238275885582,393.4545107424492,,,,,,,,,,,,,,,,,,,,,,,,,,,,,,,,,,,,,,,126817,2023-05-16_14h03.50.141,eb_02psyexp,2022.2.4,99.93809970791466,
141,0,141,0,,,,,,,,,,,,,,,,,,,,,,,,,,,,,,,,,,,,,,,,,,,,,,,,,,,,,,,,,,,393.4545107424492,393.4545107424492,393.4545107424492,393.4545107424492,393.4545107424492,393.4545107424492,s,1,0.7255278007360175,394.194984059548,395.2256309920922,,,,,,,,,,,,,,,,,,,,,,,,,,,,,,,,,,,,,,,126817,2023-05-16_14h03.50.141,eb_02psyexp,2022.2.4,99.93809970791466,
142,0,142,0,,,,,,,,,,,,,,,,,,,,,,,,,,,,,,,,,,,,,,,,,,,,,,,,,,,,,,,,,,,395.2256309920922,395.2256309920922,395.2256309920922,395.2256309920922,395.2256309920922,395.2256309920922,s,1,2.7784297693287954,398.01745419052895,399.04808210674673,,,,,,,,,,,,,,,,,,,,,,,,,,,,,,,,,,,,,,,126817,2023-05-16_14h03.50.141,eb_02psyexp,2022.2.4,99.93809970791466,
143,0,143,0,,,,,,,,,,,,,,,,,,,,,,,,,,,,,,,,,,,,,,,,,,,,,,,,,,,,,,,,,,,399.04808210674673,399.04808210674673,399.04808210674673,399.04808210674673,399.04808210674673,399.04808210674673,s,1,0.6750119173666462,399.73856565647293,400.7692089667544,,,,,,,,,,,,,,,,,,,,,,,,,,,,,,,,,,,,,,,126817,2023-05-16_14h03.50.141,eb_02psyexp,2022.2.4,99.93809970791466,
144,0,144,0,,,,,,,,,,,,,,,,,,,,,,,,,,,,,,,,,,,,,,,,,,,,,,,,,,,,,,,,,,,400.7692089667544,400.7692089667544,400.7692089667544,400.7692089667544,400.7692089667544,400.7692089667544,s,1,0.6578668162692338,401.4396340068197,402.46027839777526,,,,,,,,,,,,,,,,,,,,,,,,,,,,,,,,,,,,,,,126817,2023-05-16_14h03.50.141,eb_02psyexp,2022.2.4,99.93809970791466,
145,0,145,0,,,,,,,,,,,,,,,,,,,,,,,,,,,,,,,,,,,,,,,,,,,,,,,,,,,,,,,,,,,402.46027839777526,402.46027839777526,402.46027839777526,402.46027839777526,402.46027839777526,402.46027839777526,l,1,0.9428151918109506,403.4209156893194,404.4416047532577,,,,,,,,,,,,,,,,,,,,,,,,,,,,,,,,,,,,,,,126817,2023-05-16_14h03.50.141,eb_02psyexp,2022.2.4,99.93809970791466,
146,0,146,0,,,,,,,,,,,,,,,,,,,,,,,,,,,,,,,,,,,,,,,,,,,,,,,,,,,,,,,,,,,404.4416047532577,404.4416047532577,404.4416047532577,404.4416047532577,404.4416047532577,404.4416047532577,l,1,1.9854969884036109,406.4428758227732,407.46359084546566,,,,,,,,,,,,,,,,,,,,,,,,,,,,,,,,,,,,,,,126817,2023-05-16_14h03.50.141,eb_02psyexp,2022.2.4,99.93809970791466,
147,0,147,0,,,,,,,,,,,,,,,,,,,,,,,,,,,,,,,,,,,,,,,,,,,,,,,,,,,,,,,,,,,407.46359084546566,407.46359084546566,407.46359084546566,407.46359084546566,407.46359084546566,407.46359084546566,l,1,2.507572728674859,409.98516884306446,411.0058244023239,,,,,,,,,,,,,,,,,,,,,,,,,,,,,,,,,,,,,,,126817,2023-05-16_14h03.50.141,eb_02psyexp,2022.2.4,99.93809970791466,
148,0,148,0,,,,,,,,,,,,,,,,,,,,,,,,,,,,,,,,,,,,,,,,,,,,,,,,,,,,,,,,,,,411.0058244023239,411.0058244023239,411.0058244023239,411.0058244023239,411.0058244023239,411.0058244023239,l,1,1.2532782281050459,412.27666212490294,413.29730681772344,,,,,,,,,,,,,,,,,,,,,,,,,,,,,,,,,,,,,,,126817,2023-05-16_14h03.50.141,eb_02psyexp,2022.2.4,99.93809970791466,
149,0,149,0,,,,,,,,,,,,,,,,,,,,,,,,,,,,,,,,,,,,,,,,,,,,,,,,,,,,,,,,,,,413.29730681772344,413.29730681772344,413.29730681772344,413.29730681772344,413.29730681772344,413.29730681772344,l,1,0.713856357964687,414.02779691142496,415.04844190599397,,,,,,,,,,,,,,,,,,,,,,,,,,,,,,,,,,,,,,,126817,2023-05-16_14h03.50.141,eb_02psyexp,2022.2.4,99.93809970791466,
150,0,150,0,,,,,,,,,,,,,,,,,,,,,,,,,,,,,,,,,,,,,,,,,,,,,,,,,,,,,,,,,,,415.04844190599397,415.04844190599397,415.04844190599397,415.04844190599397,415.04844190599397,415.04844190599397,l,1,2.297729440499097,417.35992759349756,418.3806574065238,,,,,,,,,,,,,,,,,,,,,,,,,,,,,,,,,,,,,,,126817,2023-05-16_14h03.50.141,eb_02psyexp,2022.2.4,99.93809970791466,
151,0,151,0,,,,,,,,,,,,,,,,,,,,,,,,,,,,,,,,,,,,,,,,,,,,,,,,,,,,,,,,,,,418.3806574065238,418.3806574065238,418.3806574065238,418.3806574065238,418.3806574065238,418.3806574065238,l,1,1.0375251156510785,419.43129070766736,420.4619337160839,,,,,,,,,,,,,,,,,,,,,,,,,,,,,,,,,,,,,,,126817,2023-05-16_14h03.50.141,eb_02psyexp,2022.2.4,99.93809970791466,
152,0,152,0,,,,,,,,,,,,,,,,,,,,,,,,,,,,,,,,,,,,,,,,,,,,,,,,,,,,,,,,,,,420.4619337160839,420.4619337160839,420.4619337160839,420.4619337160839,420.4619337160839,420.4619337160839,s,1,2.412269981112331,422.8935024229577,423.9242085170699,,,,,,,,,,,,,,,,,,,,,,,,,,,,,,,,,,,,,,,126817,2023-05-16_14h03.50.141,eb_02psyexp,2022.2.4,99.93809970791466,
153,0,153,0,,,,,,,,,,,,,,,,,,,,,,,,,,,,,,,,,,,,,,,,,,,,,,,,,,,,,,,,,,,423.9242085170699,423.9242085170699,423.9242085170699,423.9242085170699,423.9242085170699,423.9242085170699,s,1,1.1580065705347806,425.09492574317846,426.11559307423886,,,,,,,,,,,,,,,,,,,,,,,,,,,,,,,,,,,,,,,126817,2023-05-16_14h03.50.141,eb_02psyexp,2022.2.4,99.93809970791466,
154,0,154,0,,,,,,,,,,,,,,,,,,,,,,,,,,,,,,,,,,,,,,,,,,,,,,,,,,,,,,,,,,,426.11559307423886,426.11559307423886,426.11559307423886,426.11559307423886,426.11559307423886,426.11559307423886,l,1,1.1666302838129923,427.2963662685361,428.32703674479853,,,,,,,,,,,,,,,,,,,,,,,,,,,,,,,,,,,,,,,126817,2023-05-16_14h03.50.141,eb_02psyexp,2022.2.4,99.93809970791466,
155,0,155,0,,,,,,,,,,,,,,,,,,,,,,,,,,,,,,,,,,,,,,,,,,,,,,,,,,,,,,,,,,,428.32703674479853,428.32703674479853,428.32703674479853,428.32703674479853,428.32703674479853,428.32703674479853,s,1,0.8102828746195883,429.14756420091726,430.1682182509685,,,,,,,,,,,,,,,,,,,,,,,,,,,,,,,,,,,,,,,126817,2023-05-16_14h03.50.141,eb_02psyexp,2022.2.4,99.93809970791466,
156,0,156,0,,,,,,,,,,,,,,,,,,,,,,,,,,,,,,,,,,,,,,,,,,,,,,,,,,,,,,,,,,,430.1682182509685,430.1682182509685,430.1682182509685,430.1682182509685,430.1682182509685,430.1682182509685,l,1,0.8410411879885942,431.0287733802106,432.05943208455574,,,,,,,,,,,,,,,,,,,,,,,,,,,,,,,,,,,,,,,126817,2023-05-16_14h03.50.141,eb_02psyexp,2022.2.4,99.93809970791466,
157,0,157,0,,,,,,,,,,,,,,,,,,,,,,,,,,,,,,,,,,,,,,,,,,,,,,,,,,,,,,,,,,,432.05943208455574,432.05943208455574,432.05943208455574,432.05943208455574,432.05943208455574,432.05943208455574,s,1,1.197860079118982,433.2702255808981,434.2908929120749,,,,,,,,,,,,,,,,,,,,,,,,,,,,,,,,,,,,,,,126817,2023-05-16_14h03.50.141,eb_02psyexp,2022.2.4,99.93809970791466,
158,0,158,0,,,,,,,,,,,,,,,,,,,,,,,,,,,,,,,,,,,,,,,,,,,,,,,,,,,,,,,,,,,434.2908929120749,434.2908929120749,434.2908929120749,434.2908929120749,434.2908929120749,434.2908929120749,s,1,0.7663662297418341,435.0713640197646,436.10204475885257,,,,,,,,,,,,,,,,,,,,,,,,,,,,,,,,,,,,,,,126817,2023-05-16_14h03.50.141,eb_02psyexp,2022.2.4,99.93809970791466,
159,0,159,0,,,,,,,,,,,,,,,,,,,,,,,,,,,,,,,,,,,,,,,,,,,,,,,,,,,,,,,,,,,436.10204475885257,436.10204475885257,436.10204475885257,436.10204475885257,436.10204475885257,436.10204475885257,s,1,1.267255163518712,437.38286962895654,438.4035698611988,,,,,,,,,,,,,,,,,,,,,,,,,,,,,,,,,,,,,,,126817,2023-05-16_14h03.50.141,eb_02psyexp,2022.2.4,99.93809970791466,
160,0,160,0,,,,,,,,,,,,,,,,,,,,,,,,,,,,,,,,,,,,,,,,,,,,,,,,,,,,,,,,,,,438.4035698611988,438.4035698611988,438.4035698611988,438.4035698611988,438.4035698611988,438.4035698611988,l,1,1.333753440878354,439.754414333147,440.7850721318973,,,,,,,,,,,,,,,,,,,,,,,,,,,,,,,,,,,,,,,126817,2023-05-16_14h03.50.141,eb_02psyexp,2022.2.4,99.93809970791466,
161,0,161,0,,,,,,,,,,,,,,,,,,,,,,,,,,,,,,,,,,,,,,,,,,,,,,,,,,,,,,,,,,,440.7850721318973,440.7850721318973,440.7850721318973,440.7850721318973,440.7850721318973,440.7850721318973,s,1,0.736230019130744,441.53553682239726,442.55620747385547,,,,,,,,,,,,,,,,,,,,,,,,,,,,,,,,,,,,,,,126817,2023-05-16_14h03.50.141,eb_02psyexp,2022.2.4,99.93809970791466,
162,0,162,0,,,,,,,,,,,,,,,,,,,,,,,,,,,,,,,,,,,,,,,,,,,,,,,,,,,,,,,,,,,442.55620747385547,442.55620747385547,442.55620747385547,442.55620747385547,442.55620747385547,442.55620747385547,s,1,2.9721696235937998,445.54813855176326,446.5787975579733,,,,,,,,,,,,,,,,,,,,,,,,,,,,,,,,,,,,,,,126817,2023-05-16_14h03.50.141,eb_02psyexp,2022.2.4,99.93809970791466,
163,0,163,0,,,,,,,,,,,,,,,,,,,,,,,,,,,,,,,,,,,,,,,,,,,,,,,,,,,,,,,,,,,446.5787975579733,446.5787975579733,446.5787975579733,446.5787975579733,446.5787975579733,446.5787975579733,s,1,0.7735501421848312,447.3693240301218,448.38998321141116,,,,,,,,,,,,,,,,,,,,,,,,,,,,,,,,,,,,,,,126817,2023-05-16_14h03.50.141,eb_02psyexp,2022.2.4,99.93809970791466,
164,0,164,0,,,,,,,,,,,,,,,,,,,,,,,,,,,,,,,,,,,,,,,,,,,,,,,,,,,,,,,,,,,448.38998321141116,448.38998321141116,448.38998321141116,448.38998321141116,448.38998321141116,448.38998321141116,l,1,0.7463626560056582,449.15047670388594,450.1711334704887,,,,,,,,,,,,,,,,,,,,,,,,,,,,,,,,,,,,,,,126817,2023-05-16_14h03.50.141,eb_02psyexp,2022.2.4,99.93809970791466,
165,0,165,0,,,,,,,,,,,,,,,,,,,,,,,,,,,,,,,,,,,,,,,,,,,,,,,,,,,,,,,,,,,450.1711334704887,450.1711334704887,450.1711334704887,450.1711334704887,450.1711334704887,450.1711334704887,l,1,1.389233166235499,451.5720359268598,452.59275970305316,,,,,,,,,,,,,,,,,,,,,,,,,,,,,,,,,,,,,,,126817,2023-05-16_14h03.50.141,eb_02psyexp,2022.2.4,99.93809970791466,
166,0,166,0,,,,,,,,,,,,,,,,,,,,,,,,,,,,,,,,,,,,,,,,,,,,,,,,,,,,,,,,,,,452.59275970305316,452.59275970305316,452.59275970305316,452.59275970305316,452.59275970305316,452.59275970305316,l,1,1.6956255201948807,454.3038079565158,455.3345065044705,,,,,,,,,,,,,,,,,,,,,,,,,,,,,,,,,,,,,,,126817,2023-05-16_14h03.50.141,eb_02psyexp,2022.2.4,99.93809970791466,
167,0,167,0,,,,,,,,,,,,,,,,,,,,,,,,,,,,,,,,,,,,,,,,,,,,,,,,,,,,,,,,,,,455.3345065044705,455.3345065044705,455.3345065044705,455.3345065044705,455.3345065044705,455.3345065044705,s,1,0.617883816245012,455.9648691592738,456.98558780399617,,,,,,,,,,,,,,,,,,,,,,,,,,,,,,,,,,,,,,,126817,2023-05-16_14h03.50.141,eb_02psyexp,2022.2.4,99.93809970791466,
168,0,168,0,,,,,,,,,,,,,,,,,,,,,,,,,,,,,,,,,,,,,,,,,,,,,,,,,,,,,,,,,,,456.98558780399617,456.98558780399617,456.98558780399617,456.98558780399617,456.98558780399617,456.98558780399617,l,1,1.430812926730141,458.4264518294949,459.4571392091457,,,,,,,,,,,,,,,,,,,,,,,,,,,,,,,,,,,,,,,126817,2023-05-16_14h03.50.141,eb_02psyexp,2022.2.4,99.93809970791466,
169,0,169,0,,,,,,,,,,,,,,,,,,,,,,,,,,,,,,,,,,,,,,,,,,,,,,,,,,,,,,,,,,,459.4571392091457,459.4571392091457,459.4571392091457,459.4571392091457,459.4571392091457,459.4571392091457,s,1,1.3743108521448448,460.8480303704273,461.86869257024955,,,,,,,,,,,,,,,,,,,,,,,,,,,,,,,,,,,,,,,126817,2023-05-16_14h03.50.141,eb_02psyexp,2022.2.4,99.93809970791466,
170,0,170,0,,,,,,,,,,,,,,,,,,,,,,,,,,,,,,,,,,,,,,,,,,,,,,,,,,,,,,,,,,,461.86869257024955,461.86869257024955,461.86869257024955,461.86869257024955,461.86869257024955,461.86869257024955,l,1,0.7147220496553928,462.59914523526095,463.62982869090047,,,,,,,,,,,,,,,,,,,,,,,,,,,,,,,,,,,,,,,126817,2023-05-16_14h03.50.141,eb_02psyexp,2022.2.4,99.93809970791466,
171,0,171,0,,,,,,,,,,,,,,,,,,,,,,,,,,,,,,,,,,,,,,,,,,,,,,,,,,,,,,,,,,,463.62982869090047,463.62982869090047,463.62982869090047,463.62982869090047,463.62982869090047,463.62982869090047,s,1,0.7215887227794155,464.37032072246075,465.40097369183786,,,,,,,,,,,,,,,,,,,,,,,,,,,,,,,,,,,,,,,126817,2023-05-16_14h03.50.141,eb_02psyexp,2022.2.4,99.93809970791466,
172,0,172,0,,,,,,,,,,,,,,,,,,,,,,,,,,,,,,,,,,,,,,,,,,,,,,,,,,,,,,,,,,,465.40097369183786,465.40097369183786,465.40097369183786,465.40097369183786,465.40097369183786,465.40097369183786,s,1,1.6624817253323272,467.0820580882719,468.1027196843643,,,,,,,,,,,,,,,,,,,,,,,,,,,,,,,,,,,,,,,126817,2023-05-16_14h03.50.141,eb_02psyexp,2022.2.4,99.93809970791466,
173,0,173,0,,,,,,,,,,,,,,,,,,,,,,,,,,,,,,,,,,,,,,,,,,,,,,,,,,,,,,,,,,,468.1027196843643,468.1027196843643,468.1027196843643,468.1027196843643,468.1027196843643,468.1027196843643,l,1,0.8087413519388065,468.9232625346631,469.95391278737225,,,,,,,,,,,,,,,,,,,,,,,,,,,,,,,,,,,,,,,126817,2023-05-16_14h03.50.141,eb_02psyexp,2022.2.4,99.93809970791466,
174,0,174,0,,,,,,,,,,,,,,,,,,,,,,,,,,,,,,,,,,,,,,,,,,,,,,,,,,,,,,,,,,,469.95391278737225,469.95391278737225,469.95391278737225,469.95391278737225,469.95391278737225,469.95391278737225,s,1,1.5655580698512495,471.5349433950614,472.55560438742395,,,,,,,,,,,,,,,,,,,,,,,,,,,,,,,,,,,,,,,126817,2023-05-16_14h03.50.141,eb_02psyexp,2022.2.4,99.93809970791466,
175,0,175,0,,,,,,,,,,,,,,,,,,,,,,,,,,,,,,,,,,,,,,,,,,,,,,,,,,,,,,,,,,,472.55560438742395,472.55560438742395,472.55560438742395,472.55560438742395,472.55560438742395,472.55560438742395,l,1,0.8519208912039176,473.4261711136205,474.44682093767915,,,,,,,,,,,,,,,,,,,,,,,,,,,,,,,,,,,,,,,126817,2023-05-16_14h03.50.141,eb_02psyexp,2022.2.4,99.93809970791466,
176,0,176,0,,,,,,,,,,,,,,,,,,,,,,,,,,,,,,,,,,,,,,,,,,,,,,,,,,,,,,,,,,,474.44682093767915,474.44682093767915,474.44682093767915,474.44682093767915,474.44682093767915,474.44682093767915,l,1,1.224661203683354,475.6876021368662,476.7083189706318,,,,,,,,,,,,,,,,,,,,,,,,,,,,,,,,,,,,,,,126817,2023-05-16_14h03.50.141,eb_02psyexp,2022.2.4,99.93809970791466,
177,0,177,0,,,,,,,,,,,,,,,,,,,,,,,,,,,,,,,,,,,,,,,,,,,,,,,,,,,,,,,,,,,476.7083189706318,476.7083189706318,476.7083189706318,476.7083189706318,476.7083189706318,476.7083189706318,l,1,0.8822460568044335,477.6088673627237,478.62952865695115,,,,,,,,,,,,,,,,,,,,,,,,,,,,,,,,,,,,,,,126817,2023-05-16_14h03.50.141,eb_02psyexp,2022.2.4,99.93809970791466,
178,0,178,0,,,,,,,,,,,,,,,,,,,,,,,,,,,,,,,,,,,,,,,,,,,,,,,,,,,,,,,,,,,478.62952865695115,478.62952865695115,478.62952865695115,478.62952865695115,478.62952865695115,478.62952865695115,l,1,0.7609834269387648,479.4100208937889,480.430673736264,,,,,,,,,,,,,,,,,,,,,,,,,,,,,,,,,,,,,,,126817,2023-05-16_14h03.50.141,eb_02psyexp,2022.2.4,99.93809970791466,
179,0,179,0,,,,,,,,,,,,,,,,,,,,,,,,,,,,,,,,,,,,,,,,,,,,,,,,,,,,,,,,,,,480.430673736264,480.430673736264,480.430673736264,480.430673736264,480.430673736264,480.430673736264,l,1,0.7198579432442784,481.1611454174854,482.18183236860204,,,,,,,,,,,,,,,,,,,,,,,,,,,,,,,,,,,,,,,126817,2023-05-16_14h03.50.141,eb_02psyexp,2022.2.4,99.93809970791466,
180,0,180,0,,,,,,,,,,,,,,,,,,,,,,,,,,,,,,,,,,,,,,,,,,,,,,,,,,,,,,,,,,,482.18183236860204,482.18183236860204,482.18183236860204,482.18183236860204,482.18183236860204,482.18183236860204,l,1,0.776739738881588,482.9723398244241,483.99301983311307,,,,,,,,,,,,,,,,,,,,,,,,,,,,,,,,,,,,,,,126817,2023-05-16_14h03.50.141,eb_02psyexp,2022.2.4,99.93809970791466,
181,0,181,0,,,,,,,,,,,,,,,,,,,,,,,,,,,,,,,,,,,,,,,,,,,,,,,,,,,,,,,,,,,483.99301983311307,483.99301983311307,483.99301983311307,483.99301983311307,483.99301983311307,483.99301983311307,l,1,0.8855636358493939,484.8935790916439,485.9242239111336,,,,,,,,,,,,,,,,,,,,,,,,,,,,,,,,,,,,,,,126817,2023-05-16_14h03.50.141,eb_02psyexp,2022.2.4,99.93809970791466,
182,0,182,0,,,,,,,,,,,,,,,,,,,,,,,,,,,,,,,,,,,,,,,,,,,,,,,,,,,,,,,,,,,485.9242239111336,485.9242239111336,485.9242239111336,485.9242239111336,485.9242239111336,485.9242239111336,s,1,0.9703398388810456,486.9048590414459,487.9355533635244,,,,,,,,,,,,,,,,,,,,,,,,,,,,,,,,,,,,,,,126817,2023-05-16_14h03.50.141,eb_02psyexp,2022.2.4,99.93809970791466,
183,0,183,0,,,,,,,,,,,,,,,,,,,,,,,,,,,,,,,,,,,,,,,,,,,,,,,,,,,,,,,,,,,487.9355533635244,487.9355533635244,487.9355533635244,487.9355533635244,487.9355533635244,487.9355533635244,s,1,0.9670225617010146,488.916159818531,489.9468339170562,,,,,,,,,,,,,,,,,,,,,,,,,,,,,,,,,,,,,,,126817,2023-05-16_14h03.50.141,eb_02psyexp,2022.2.4,99.93809970791466,
184,0,184,0,,,,,,,,,,,,,,,,,,,,,,,,,,,,,,,,,,,,,,,,,,,,,,,,,,,,,,,,,,,489.9468339170562,489.9468339170562,489.9468339170562,489.9468339170562,489.9468339170562,489.9468339170562,s,1,0.6197784976102412,490.5772358116228,491.60790387319867,,,,,,,,,,,,,,,,,,,,,,,,,,,,,,,,,,,,,,,126817,2023-05-16_14h03.50.141,eb_02psyexp,2022.2.4,99.93809970791466,
185,0,185,0,,,,,,,,,,,,,,,,,,,,,,,,,,,,,,,,,,,,,,,,,,,,,,,,,,,,,,,,,,,491.60790387319867,491.60790387319867,491.60790387319867,491.60790387319867,491.60790387319867,491.60790387319867,s,1,1.0786868205759674,492.69863246078603,493.72927758214064,,,,,,,,,,,,,,,,,,,,,,,,,,,,,,,,,,,,,,,126817,2023-05-16_14h03.50.141,eb_02psyexp,2022.2.4,99.93809970791466,
186,0,186,0,,,,,,,,,,,,,,,,,,,,,,,,,,,,,,,,,,,,,,,,,,,,,,,,,,,,,,,,,,,493.72927758214064,493.72927758214064,493.72927758214064,493.72927758214064,493.72927758214064,493.72927758214064,s,1,0.7243394368560985,494.4697397311684,495.49047558102757,,,,,,,,,,,,,,,,,,,,,,,,,,,,,,,,,,,,,,,126817,2023-05-16_14h03.50.141,eb_02psyexp,2022.2.4,99.93809970791466,
187,0,187,0,,,,,,,,,,,,,,,,,,,,,,,,,,,,,,,,,,,,,,,,,,,,,,,,,,,,,,,,,,,495.49047558102757,495.49047558102757,495.49047558102757,495.49047558102757,495.49047558102757,495.49047558102757,s,1,1.4111459100386128,496.92131955793593,497.951999995159,,,,,,,,,,,,,,,,,,,,,,,,,,,,,,,,,,,,,,,126817,2023-05-16_14h03.50.141,eb_02psyexp,2022.2.4,99.93809970791466,
188,0,188,0,,,,,,,,,,,,,,,,,,,,,,,,,,,,,,,,,,,,,,,,,,,,,,,,,,,,,,,,,,,497.951999995159,497.951999995159,497.951999995159,497.951999995159,497.951999995159,497.951999995159,l,1,0.8696038802154362,498.83255477435887,499.8532728154678,,,,,,,,,,,,,,,,,,,,,,,,,,,,,,,,,,,,,,,126817,2023-05-16_14h03.50.141,eb_02psyexp,2022.2.4,99.93809970791466,
189,0,189,0,,,,,,,,,,,,,,,,,,,,,,,,,,,,,,,,,,,,,,,,,,,,,,,,,,,,,,,,,,,499.8532728154678,499.8532728154678,499.8532728154678,499.8532728154678,499.8532728154678,499.8532728154678,l,1,1.032405823469162,500.9039230198832,501.924564090441,,,,,,,,,,,,,,,,,,,,,,,,,,,,,,,,,,,,,,,126817,2023-05-16_14h03.50.141,eb_02psyexp,2022.2.4,99.93809970791466,
190,0,190,0,,,,,,,,,,,,,,,,,,,,,,,,,,,,,,,,,,,,,,,,,,,,,,,,,,,,,,,,,,,501.924564090441,501.924564090441,501.924564090441,501.924564090441,501.924564090441,501.924564090441,l,1,0.8410852573579177,502.78512193635106,503.8058526549721,,,,,,,,,,,,,,,,,,,,,,,,,,,,,,,,,,,,,,,126817,2023-05-16_14h03.50.141,eb_02psyexp,2022.2.4,99.93809970791466,
191,0,191,0,,,,,,,,,,,,,,,,,,,,,,,,,,,,,,,,,,,,,,,,,,,,,,,,,,,,,,,,,,,503.8058526549721,503.8058526549721,503.8058526549721,503.8058526549721,503.8058526549721,503.8058526549721,l,1,1.1678301179781556,504.98654525657184,506.0072023249231,,,,,,,,,,,,,,,,,,,,,,,,,,,,,,,,,,,,,,,126817,2023-05-16_14h03.50.141,eb_02psyexp,2022.2.4,99.93809970791466,
192,0,192,0,,,,,,,,,,,,,,,,,,,,,,,,,,,,,,,,,,,,,,,,,,,,,,,,,,,,,,,,,,,506.0072023249231,506.0072023249231,506.0072023249231,506.0072023249231,506.0072023249231,506.0072023249231,l,1,0.6544764926657081,506.67764215543866,507.6983623094857,,,,,,,,,,,,,,,,,,,,,,,,,,,,,,,,,,,,,,,126817,2023-05-16_14h03.50.141,eb_02psyexp,2022.2.4,99.93809970791466,
193,0,193,0,,,,,,,,,,,,,,,,,,,,,,,,,,,,,,,,,,,,,,,,,,,,,,,,,,,,,,,,,,,507.6983623094857,507.6983623094857,507.6983623094857,507.6983623094857,507.6983623094857,507.6983623094857,l,1,1.330359796877019,509.03915805753786,510.0598359532887,,,,,,,,,,,,,,,,,,,,,,,,,,,,,,,,,,,,,,,126817,2023-05-16_14h03.50.141,eb_02psyexp,2022.2.4,99.93809970791466,
194,0,194,0,,,,,,,,,,,,,,,,,,,,,,,,,,,,,,,,,,,,,,,,,,,,,,,,,,,,,,,,,,,510.0598359532887,510.0598359532887,510.0598359532887,510.0598359532887,510.0598359532887,510.0598359532887,s,1,0.6488941701827571,510.7202662997879,511.7509316448122,,,,,,,,,,,,,,,,,,,,,,,,,,,,,,,,,,,,,,,126817,2023-05-16_14h03.50.141,eb_02psyexp,2022.2.4,99.93809970791466,
195,0,195,0,,,,,,,,,,,,,,,,,,,,,,,,,,,,,,,,,,,,,,,,,,,,,,,,,,,,,,,,,,,511.7509316448122,511.7509316448122,511.7509316448122,511.7509316448122,511.7509316448122,511.7509316448122,s,1,1.269761684932746,513.0317299525486,514.052391548641,,,,,,,,,,,,,,,,,,,,,,,,,,,,,,,,,,,,,,,126817,2023-05-16_14h03.50.141,eb_02psyexp,2022.2.4,99.93809970791466,
196,0,196,0,,,,,,,,,,,,,,,,,,,,,,,,,,,,,,,,,,,,,,,,,,,,,,,,,,,,,,,,,,,514.052391548641,514.052391548641,514.052391548641,514.052391548641,514.052391548641,514.052391548641,s,1,1.040339217055589,515.103098198073,516.1337526766583,,,,,,,,,,,,,,,,,,,,,,,,,,,,,,,,,,,,,,,126817,2023-05-16_14h03.50.141,eb_02psyexp,2022.2.4,99.93809970791466,
197,0,197,0,,,,,,,,,,,,,,,,,,,,,,,,,,,,,,,,,,,,,,,,,,,,,,,,,,,,,,,,,,,516.1337526766583,516.1337526766583,516.1337526766583,516.1337526766583,516.1337526766583,516.1337526766583,s,1,3.038992686313577,519.1857258679811,520.2163815539097,,,,,,,,,,,,,,,,,,,,,,,,,,,,,,,,,,,,,,,126817,2023-05-16_14h03.50.141,eb_02psyexp,2022.2.4,99.93809970791466,
198,0,198,0,,,,,,,,,,,,,,,,,,,,,,,,,,,,,,,,,,,,,,,,,,,,,,,,,,,,,,,,,,,520.2163815539097,520.2163815539097,520.2163815539097,520.2163815539097,520.2163815539097,520.2163815539097,l,1,0.6603630748577416,520.8868334582075,521.9074832823826,,,,,,,,,,,,,,,,,,,,,,,,,,,,,,,,,,,,,,,126817,2023-05-16_14h03.50.141,eb_02psyexp,2022.2.4,99.93809970791466,
199,0,199,0,,,,,0,0,0,0,,,,,,,,,,,,,,,,,,,,,,,,,,,,,,,,,,,,,,,,,,,,,,,,,,,521.9074832823826,521.9074832823826,521.9074832823826,521.9074832823826,521.9074832823826,521.9074832823826,s,1,0.7692862788680941,522.6879679730628,523.6886444078991,523.6886444078991,523.6886444078991,space,19.34622084919829,,,,,,,,,,,,,,,,,,,,,,,,,,,,,,,,,,,126817,2023-05-16_14h03.50.141,eb_02psyexp,2022.2.4,99.93809970791466,
199,0,199,0,,,,,,,,,,,,,,,,,,,,,,,,,,,,,,,,,,,,,,,,,,,,,,,,,,,,,,,,,,,,,,,,,,,,,,,,,,,,,,,,,,,,,,,,,,,,,,,,,,,,,,,,,,,,126817,2023-05-16_14h03.50.141,eb_02psyexp,2022.2.4,99.93809970791466,
200,0,200,0,,,,,,,,,,,,,,,,,,,,,,,,,,,,,,,,,,,,,,,,,,,,,,,,,,,,,,,,,,,543.0714681562968,543.0714681562968,543.0714681562968,543.0714681562968,543.0714681562968,543.0714681562968,s,1,2.891483722953126,545.9730126371142,547.0036846227013,,,,,,,,,,,,,,,,,,,,,,,,,,,,,,,,,,,,,,,126817,2023-05-16_14h03.50.141,eb_02psyexp,2022.2.4,99.93809970791466,
201,0,201,0,,,,,,,,,,,,,,,,,,,,,,,,,,,,,,,,,,,,,,,,,,,,,,,,,,,,,,,,,,,547.0036846227013,547.0036846227013,547.0036846227013,547.0036846227013,547.0036846227013,547.0036846227013,s,1,7.127222298644483,554.1482780645601,555.1690142162843,,,,,,,,,,,,,,,,,,,,,,,,,,,,,,,,,,,,,,,126817,2023-05-16_14h03.50.141,eb_02psyexp,2022.2.4,99.93809970791466,
202,0,202,0,,,,,,,,,,,,,,,,,,,,,,,,,,,,,,,,,,,,,,,,,,,,,,,,,,,,,,,,,,,555.1690142162843,555.1690142162843,555.1690142162843,555.1690142162843,555.1690142162843,555.1690142162843,s,1,0.7609622976742685,555.9494892479852,556.9701324315974,,,,,,,,,,,,,,,,,,,,,,,,,,,,,,,,,,,,,,,126817,2023-05-16_14h03.50.141,eb_02psyexp,2022.2.4,99.93809970791466,
203,0,203,0,,,,,,,,,,,,,,,,,,,,,,,,,,,,,,,,,,,,,,,,,,,,,,,,,,,,,,,,,,,556.9701324315974,556.9701324315974,556.9701324315974,556.9701324315974,556.9701324315974,556.9701324315974,s,1,0.6638300672639161,557.6505572965834,558.681245581829,,,,,,,,,,,,,,,,,,,,,,,,,,,,,,,,,,,,,,,126817,2023-05-16_14h03.50.141,eb_02psyexp,2022.2.4,99.93809970791466,
204,0,204,0,,,,,,,,,,,,,,,,,,,,,,,,,,,,,,,,,,,,,,,,,,,,,,,,,,,,,,,,,,,558.681245581829,558.681245581829,558.681245581829,558.681245581829,558.681245581829,558.681245581829,s,1,0.6407226206501946,559.3416677785572,560.3623290727846,,,,,,,,,,,,,,,,,,,,,,,,,,,,,,,,,,,,,,,126817,2023-05-16_14h03.50.141,eb_02psyexp,2022.2.4,99.93809970791466,
205,0,205,0,,,,,,,,,,,,,,,,,,,,,,,,,,,,,,,,,,,,,,,,,,,,,,,,,,,,,,,,,,,560.3623290727846,560.3623290727846,560.3623290727846,560.3623290727846,560.3623290727846,560.3623290727846,l,1,0.5676516671665013,560.9427013563691,561.9733648903202,,,,,,,,,,,,,,,,,,,,,,,,,,,,,,,,,,,,,,,126817,2023-05-16_14h03.50.141,eb_02psyexp,2022.2.4,99.93809970791466,
206,0,206,0,,,,,,,,,,,,,,,,,,,,,,,,,,,,,,,,,,,,,,,,,,,,,,,,,,,,,,,,,,,561.9733648903202,561.9733648903202,561.9733648903202,561.9733648903202,561.9733648903202,561.9733648903202,s,1,0.7726295148022473,562.7638919660822,563.7845544676529,,,,,,,,,,,,,,,,,,,,,,,,,,,,,,,,,,,,,,,126817,2023-05-16_14h03.50.141,eb_02psyexp,2022.2.4,99.93809970791466,
207,0,207,0,,,,,,,,,,,,,,,,,,,,,,,,,,,,,,,,,,,,,,,,,,,,,,,,,,,,,,,,,,,563.7845544676529,563.7845544676529,563.7845544676529,563.7845544676529,563.7845544676529,563.7845544676529,l,1,0.7054901184746996,564.5049955357099,565.5356771803927,,,,,,,,,,,,,,,,,,,,,,,,,,,,,,,,,,,,,,,126817,2023-05-16_14h03.50.141,eb_02psyexp,2022.2.4,99.93809970791466,
208,0,208,0,,,,,,,,,,,,,,,,,,,,,,,,,,,,,,,,,,,,,,,,,,,,,,,,,,,,,,,,,,,565.5356771803927,565.5356771803927,565.5356771803927,565.5356771803927,565.5356771803927,565.5356771803927,s,1,0.5383419083664194,566.0860246341908,567.1167062788736,,,,,,,,,,,,,,,,,,,,,,,,,,,,,,,,,,,,,,,126817,2023-05-16_14h03.50.141,eb_02psyexp,2022.2.4,99.93809970791466,
209,0,209,0,,,,,,,,,,,,,,,,,,,,,,,,,,,,,,,,,,,,,,,,,,,,,,,,,,,,,,,,,,,567.1167062788736,567.1167062788736,567.1167062788736,567.1167062788736,567.1167062788736,567.1167062788736,l,1,0.5813065338879824,567.7171038691886,568.7377932349918,,,,,,,,,,,,,,,,,,,,,,,,,,,,,,,,,,,,,,,126817,2023-05-16_14h03.50.141,eb_02psyexp,2022.2.4,99.93809970791466,
210,0,210,0,,,,,,,,,,,,,,,,,,,,,,,,,,,,,,,,,,,,,,,,,,,,,,,,,,,,,,,,,,,568.7377932349918,568.7377932349918,568.7377932349918,568.7377932349918,568.7377932349918,568.7377932349918,s,1,0.6322715627029538,569.3881431639893,570.4188257141504,,,,,,,,,,,,,,,,,,,,,,,,,,,,,,,,,,,,,,,126817,2023-05-16_14h03.50.141,eb_02psyexp,2022.2.4,99.93809970791466,
211,0,211,0,,,,,,,,,,,,,,,,,,,,,,,,,,,,,,,,,,,,,,,,,,,,,,,,,,,,,,,,,,,570.4188257141504,570.4188257141504,570.4188257141504,570.4188257141504,570.4188257141504,570.4188257141504,l,1,0.5662154883611947,570.999200110673,572.0199103037594,,,,,,,,,,,,,,,,,,,,,,,,,,,,,,,,,,,,,,,126817,2023-05-16_14h03.50.141,eb_02psyexp,2022.2.4,99.93809970791466,
212,0,212,0,,,,,,,,,,,,,,,,,,,,,,,,,,,,,,,,,,,,,,,,,,,,,,,,,,,,,,,,,,,572.0199103037594,572.0199103037594,572.0199103037594,572.0199103037594,572.0199103037594,572.0199103037594,l,1,0.7651008951943368,572.8003466993105,573.8310497748898,,,,,,,,,,,,,,,,,,,,,,,,,,,,,,,,,,,,,,,126817,2023-05-16_14h03.50.141,eb_02psyexp,2022.2.4,99.93809970791466,
213,0,213,0,,,,,,,,,,,,,,,,,,,,,,,,,,,,,,,,,,,,,,,,,,,,,,,,,,,,,,,,,,,573.8310497748898,573.8310497748898,573.8310497748898,573.8310497748898,573.8310497748898,573.8310497748898,l,1,0.9460047883912921,574.7916423933348,575.8123589252355,,,,,,,,,,,,,,,,,,,,,,,,,,,,,,,,,,,,,,,126817,2023-05-16_14h03.50.141,eb_02psyexp,2022.2.4,99.93809970791466,
214,0,214,0,,,,,,,,,,,,,,,,,,,,,,,,,,,,,,,,,,,,,,,,,,,,,,,,,,,,,,,,,,,575.8123589252355,575.8123589252355,575.8123589252355,575.8123589252355,575.8123589252355,575.8123589252355,l,1,4.716681024059653,580.5453600679757,581.5760583140654,,,,,,,,,,,,,,,,,,,,,,,,,,,,,,,,,,,,,,,126817,2023-05-16_14h03.50.141,eb_02psyexp,2022.2.4,99.93809970791466,
215,0,215,0,,,,,,,,,,,,,,,,,,,,,,,,,,,,,,,,,,,,,,,,,,,,,,,,,,,,,,,,,,,581.5760583140654,581.5760583140654,581.5760583140654,581.5760583140654,581.5760583140654,581.5760583140654,l,1,1.041016859235242,582.6367346040206,583.6574206495425,,,,,,,,,,,,,,,,,,,,,,,,,,,,,,,,,,,,,,,126817,2023-05-16_14h03.50.141,eb_02psyexp,2022.2.4,99.93809970791466,
216,0,216,0,,,,,,,,,,,,,,,,,,,,,,,,,,,,,,,,,,,,,,,,,,,,,,,,,,,,,,,,,,,583.6574206495425,583.6574206495425,583.6574206495425,583.6574206495425,583.6574206495425,583.6574206495425,l,1,0.7916967652272433,584.4678845914314,585.4885534317,,,,,,,,,,,,,,,,,,,,,,,,,,,,,,,,,,,,,,,126817,2023-05-16_14h03.50.141,eb_02psyexp,2022.2.4,99.93809970791466,
217,0,217,0,,,,,,,,,,,,,,,,,,,,,,,,,,,,,,,,,,,,,,,,,,,,,,,,,,,,,,,,,,,585.4885534317,585.4885534317,585.4885534317,585.4885534317,585.4885534317,585.4885534317,l,1,0.5755965309217572,586.0789276532596,587.0996601828374,,,,,,,,,,,,,,,,,,,,,,,,,,,,,,,,,,,,,,,126817,2023-05-16_14h03.50.141,eb_02psyexp,2022.2.4,99.93809970791466,
218,0,218,0,,,,,,,,,,,,,,,,,,,,,,,,,,,,,,,,,,,,,,,,,,,,,,,,,,,,,,,,,,,587.0996601828374,587.0996601828374,587.0996601828374,587.0996601828374,587.0996601828374,587.0996601828374,l,1,0.7324792925501242,587.8501287973486,588.8707478332799,,,,,,,,,,,,,,,,,,,,,,,,,,,,,,,,,,,,,,,126817,2023-05-16_14h03.50.141,eb_02psyexp,2022.2.4,99.93809970791466,
219,0,219,0,,,,,,,,,,,,,,,,,,,,,,,,,,,,,,,,,,,,,,,,,,,,,,,,,,,,,,,,,,,588.8707478332799,588.8707478332799,588.8707478332799,588.8707478332799,588.8707478332799,588.8707478332799,s,1,1.1133769676089287,590.0014627411729,591.0321658167522,,,,,,,,,,,,,,,,,,,,,,,,,,,,,,,,,,,,,,,126817,2023-05-16_14h03.50.141,eb_02psyexp,2022.2.4,99.93809970791466,
220,0,220,0,,,,,,,,,,,,,,,,,,,,,,,,,,,,,,,,,,,,,,,,,,,,,,,,,,,,,,,,,,,591.0321658167522,591.0321658167522,591.0321658167522,591.0321658167522,591.0321658167522,591.0321658167522,l,1,0.7199989048531279,591.76262210391,592.7833374283509,,,,,,,,,,,,,,,,,,,,,,,,,,,,,,,,,,,,,,,126817,2023-05-16_14h03.50.141,eb_02psyexp,2022.2.4,99.93809970791466,
221,0,221,0,,,,,,,,,,,,,,,,,,,,,,,,,,,,,,,,,,,,,,,,,,,,,,,,,,,,,,,,,,,592.7833374283509,592.7833374283509,592.7833374283509,592.7833374283509,592.7833374283509,592.7833374283509,s,1,1.4808202011045069,594.2742283482803,595.3049000320025,,,,,,,,,,,,,,,,,,,,,,,,,,,,,,,,,,,,,,,126817,2023-05-16_14h03.50.141,eb_02psyexp,2022.2.4,99.93809970791466,
222,0,222,0,,,,,,,,,,,,,,,,,,,,,,,,,,,,,,,,,,,,,,,,,,,,,,,,,,,,,,,,,,,595.3049000320025,595.3049000320025,595.3049000320025,595.3049000320025,595.3049000320025,595.3049000320025,l,1,0.5032865287503228,595.825251633185,596.8459636373445,,,,,,,,,,,,,,,,,,,,,,,,,,,,,,,,,,,,,,,126817,2023-05-16_14h03.50.141,eb_02psyexp,2022.2.4,99.93809970791466,
223,0,223,0,,,,,,,,,,,,,,,,,,,,,,,,,,,,,,,,,,,,,,,,,,,,,,,,,,,,,,,,,,,596.8459636373445,596.8459636373445,596.8459636373445,596.8459636373445,596.8459636373445,596.8459636373445,l,1,0.5622263039695099,597.4262803815072,,,,,,,,,,,,,,,,,,,,,,,,,,,,,,,,,,,,,,,,126817,2023-05-16_14h03.50.141,eb_02psyexp,2022.2.4,99.93809970791466,
224,0,224,0,,,,,,,,,,,,,,,,,,,,,,,,,,,,,,,,,,,,,,,,,,,,,,,,,,,,,,,,,,,598.4469302055659,598.4469302055659,598.4469302055659,598.4469302055659,598.4469302055659,598.4469302055659,l,1,0.5052455032709986,598.9675507507054,599.9979380964069,,,,,,,,,,,,,,,,,,,,,,,,,,,,,,,,,,,,,,,126817,2023-05-16_14h03.50.141,eb_02psyexp,2022.2.4,99.93809970791466,
225,0,225,0,,,,,,,,,,,,,,,,,,,,,,,,,,,,,,,,,,,,,,,,,,,,,,,,,,,,,,,,,,,599.9979380964069,599.9979380964069,599.9979380964069,599.9979380964069,599.9979380964069,599.9979380964069,s,1,0.45031392853707075,600.4582484897692,,,,,,,,,,,,,,,,,,,,,,,,,,,,,,,,,,,,,,,,126817,2023-05-16_14h03.50.141,eb_02psyexp,2022.2.4,99.93809970791466,
226,0,226,0,,,,,,,,,,,,,,,,,,,,,,,,,,,,,,,,,,,,,,,,,,,,,,,,,,,,,,,,,,,601.4792378895218,601.4792378895218,601.4792378895218,601.4792378895218,601.4792378895218,601.4792378895218,s,1,0.7679832137655467,602.2594192259712,603.2900574048981,,,,,,,,,,,,,,,,,,,,,,,,,,,,,,,,,,,,,,,126817,2023-05-16_14h03.50.141,eb_02psyexp,2022.2.4,99.93809970791466,
227,0,227,0,,,,,,,,,,,,,,,,,,,,,,,,,,,,,,,,,,,,,,,,,,,,,,,,,,,,,,,,,,,603.2900574048981,603.2900574048981,603.2900574048981,603.2900574048981,603.2900574048981,603.2900574048981,l,1,0.5891750308219343,603.8904664653819,604.9111537182471,,,,,,,,,,,,,,,,,,,,,,,,,,,,,,,,,,,,,,,126817,2023-05-16_14h03.50.141,eb_02psyexp,2022.2.4,99.93809970791466,
228,0,228,0,,,,,,,,,,,,,,,,,,,,,,,,,,,,,,,,,,,,,,,,,,,,,,,,,,,,,,,,,,,604.9111537182471,604.9111537182471,604.9111537182471,604.9111537182471,604.9111537182471,604.9111537182471,l,1,0.8160789035027847,605.7416314966977,606.7623323326698,,,,,,,,,,,,,,,,,,,,,,,,,,,,,,,,,,,,,,,126817,2023-05-16_14h03.50.141,eb_02psyexp,2022.2.4,99.93809970791466,
229,0,229,0,,,,,,,,,,,,,,,,,,,,,,,,,,,,,,,,,,,,,,,,,,,,,,,,,,,,,,,,,,,606.7623323326698,606.7623323326698,606.7623323326698,606.7623323326698,606.7623323326698,606.7623323326698,s,1,0.8769139639334753,607.6528971994994,608.6736058833776,,,,,,,,,,,,,,,,,,,,,,,,,,,,,,,,,,,,,,,126817,2023-05-16_14h03.50.141,eb_02psyexp,2022.2.4,99.93809970791466,
230,0,230,0,,,,,,,,,,,,,,,,,,,,,,,,,,,,,,,,,,,,,,,,,,,,,,,,,,,,,,,,,,,608.6736058833776,608.6736058833776,608.6736058833776,608.6736058833776,608.6736058833776,608.6736058833776,s,1,0.9816554064163938,609.6741884442745,610.704858015175,,,,,,,,,,,,,,,,,,,,,,,,,,,,,,,,,,,,,,,126817,2023-05-16_14h03.50.141,eb_02psyexp,2022.2.4,99.93809970791466,
231,0,231,0,,,,,,,,,,,,,,,,,,,,,,,,,,,,,,,,,,,,,,,,,,,,,,,,,,,,,,,,,,,610.704858015175,610.704858015175,610.704858015175,610.704858015175,610.704858015175,610.704858015175,l,1,0.6464030428323895,611.3652820229763,612.3859572020592,,,,,,,,,,,,,,,,,,,,,,,,,,,,,,,,,,,,,,,126817,2023-05-16_14h03.50.141,eb_02psyexp,2022.2.4,99.93809970791466,
232,0,232,0,,,,,,,,,,,,,,,,,,,,,,,,,,,,,,,,,,,,,,,,,,,,,,,,,,,,,,,,,,,612.3859572020592,612.3859572020592,612.3859572020592,612.3859572020592,612.3859572020592,612.3859572020592,s,1,0.7253095668274909,613.1264271988766,614.1471047927625,,,,,,,,,,,,,,,,,,,,,,,,,,,,,,,,,,,,,,,126817,2023-05-16_14h03.50.141,eb_02psyexp,2022.2.4,99.93809970791466,
233,0,233,0,,,,,,,,,,,,,,,,,,,,,,,,,,,,,,,,,,,,,,,,,,,,,,,,,,,,,,,,,,,614.1471047927625,614.1471047927625,614.1471047927625,614.1471047927625,614.1471047927625,614.1471047927625,s,1,0.8521856092847884,615.0176546156872,616.048339580535,,,,,,,,,,,,,,,,,,,,,,,,,,,,,,,,,,,,,,,126817,2023-05-16_14h03.50.141,eb_02psyexp,2022.2.4,99.93809970791466,
234,0,234,0,,,,,,,,,,,,,,,,,,,,,,,,,,,,,,,,,,,,,,,,,,,,,,,,,,,,,,,,,,,616.048339580535,616.048339580535,616.048339580535,616.048339580535,616.048339580535,616.048339580535,s,1,1.6460073238704354,617.7093887095107,618.7301031284733,,,,,,,,,,,,,,,,,,,,,,,,,,,,,,,,,,,,,,,126817,2023-05-16_14h03.50.141,eb_02psyexp,2022.2.4,99.93809970791466,
235,0,235,0,,,,,,,,,,,,,,,,,,,,,,,,,,,,,,,,,,,,,,,,,,,,,,,,,,,,,,,,,,,618.7301031284733,618.7301031284733,618.7301031284733,618.7301031284733,618.7301031284733,618.7301031284733,s,1,0.6842532057780772,619.4305056086741,620.4511436608154,,,,,,,,,,,,,,,,,,,,,,,,,,,,,,,,,,,,,,,126817,2023-05-16_14h03.50.141,eb_02psyexp,2022.2.4,99.93809970791466,
236,0,236,0,,,,,,,,,,,,,,,,,,,,,,,,,,,,,,,,,,,,,,,,,,,,,,,,,,,,,,,,,,,620.4511436608154,620.4511436608154,620.4511436608154,620.4511436608154,620.4511436608154,620.4511436608154,s,1,0.6991782364202663,621.1616247474449,622.1922792260302,,,,,,,,,,,,,,,,,,,,,,,,,,,,,,,,,,,,,,,126817,2023-05-16_14h03.50.141,eb_02psyexp,2022.2.4,99.93809970791466,
237,0,237,0,,,,,,,,,,,,,,,,,,,,,,,,,,,,,,,,,,,,,,,,,,,,,,,,,,,,,,,,,,,622.1922792260302,622.1922792260302,622.1922792260302,622.1922792260302,622.1922792260302,622.1922792260302,l,1,0.7740140779642388,622.9827715896536,624.0134740616195,,,,,,,,,,,,,,,,,,,,,,,,,,,,,,,,,,,,,,,126817,2023-05-16_14h03.50.141,eb_02psyexp,2022.2.4,99.93809970791466,
238,0,238,0,,,,,,,,,,,,,,,,,,,,,,,,,,,,,,,,,,,,,,,,,,,,,,,,,,,,,,,,,,,624.0134740616195,624.0134740616195,624.0134740616195,624.0134740616195,624.0134740616195,624.0134740616195,s,1,0.9528735745698214,624.984072541818,626.0147384905722,,,,,,,,,,,,,,,,,,,,,,,,,,,,,,,,,,,,,,,126817,2023-05-16_14h03.50.141,eb_02psyexp,2022.2.4,99.93809970791466,
239,0,239,0,,,,,,,,,,,,,,,,,,,,,,,,,,,,,,,,,,,,,,,,,,,,,,,,,,,,,,,,,,,626.0147384905722,626.0147384905722,626.0147384905722,626.0147384905722,626.0147384905722,626.0147384905722,l,1,0.8716150738764554,626.9053293160396,627.9259981564246,,,,,,,,,,,,,,,,,,,,,,,,,,,,,,,,,,,,,,,126817,2023-05-16_14h03.50.141,eb_02psyexp,2022.2.4,99.93809970791466,
240,0,240,0,,,,,,,,,,,,,,,,,,,,,,,,,,,,,,,,,,,,,,,,,,,,,,,,,,,,,,,,,,,627.9259981564246,627.9259981564246,627.9259981564246,627.9259981564246,627.9259981564246,627.9259981564246,s,1,0.6163676484720781,628.5564196709311,629.5870557369199,,,,,,,,,,,,,,,,,,,,,,,,,,,,,,,,,,,,,,,126817,2023-05-16_14h03.50.141,eb_02psyexp,2022.2.4,99.93809970791466,
241,0,241,0,,,,,,,,,,,,,,,,,,,,,,,,,,,,,,,,,,,,,,,,,,,,,,,,,,,,,,,,,,,629.5870557369199,629.5870557369199,629.5870557369199,629.5870557369199,629.5870557369199,629.5870557369199,l,1,0.49932149215601385,630.0973830637522,631.1180857107975,,,,,,,,,,,,,,,,,,,,,,,,,,,,,,,,,,,,,,,126817,2023-05-16_14h03.50.141,eb_02psyexp,2022.2.4,99.93809970791466,
242,0,242,0,,,,,,,,,,,,,,,,,,,,,,,,,,,,,,,,,,,,,,,,,,,,,,,,,,,,,,,,,,,631.1180857107975,631.1180857107975,631.1180857107975,631.1180857107975,631.1180857107975,631.1180857107975,l,1,0.8802867805352435,632.0086019805167,633.0393014339497,,,,,,,,,,,,,,,,,,,,,,,,,,,,,,,,,,,,,,,126817,2023-05-16_14h03.50.141,eb_02psyexp,2022.2.4,99.93809970791466,
243,0,243,0,,,,,,,,,,,,,,,,,,,,,,,,,,,,,,,,,,,,,,,,,,,,,,,,,,,,,,,,,,,633.0393014339497,633.0393014339497,633.0393014339497,633.0393014339497,633.0393014339497,633.0393014339497,l,1,1.0461219646967947,634.0999864774058,635.2006668965332,,,,,,,,,,,,,,,,,,,,,,,,,,,,,,,,,,,,,,,126817,2023-05-16_14h03.50.141,eb_02psyexp,2022.2.4,99.93809970791466,
244,0,244,0,,,,,,,,,,,,,,,,,,,,,,,,,,,,,,,,,,,,,,,,,,,,,,,,,,,,,,,,,,,635.2006668965332,635.2006668965332,635.2006668965332,635.2006668965332,635.2006668965332,635.2006668965332,s,1,0.5808241855120286,635.8010632793885,636.8217239700025,,,,,,,,,,,,,,,,,,,,,,,,,,,,,,,,,,,,,,,126817,2023-05-16_14h03.50.141,eb_02psyexp,2022.2.4,99.93809970791466,
245,0,245,0,,,,,,,,,,,,,,,,,,,,,,,,,,,,,,,,,,,,,,,,,,,,,,,,,,,,,,,,,,,636.8217239700025,636.8217239700025,636.8217239700025,636.8217239700025,636.8217239700025,636.8217239700025,s,1,0.6876906172838062,637.5221967800753,,,,,,,,,,,,,,,,,,,,,,,,,,,,,,,,,,,,,,,,126817,2023-05-16_14h03.50.141,eb_02psyexp,2022.2.4,99.93809970791466,
246,0,246,0,,,,,,,,,,,,,,,,,,,,,,,,,,,,,,,,,,,,,,,,,,,,,,,,,,,,,,,,,,,638.5431783319218,638.5431783319218,638.5431783319218,638.5431783319218,638.5431783319218,638.5431783319218,l,1,0.6622487009735778,639.2232950131875,640.2539636783767,,,,,,,,,,,,,,,,,,,,,,,,,,,,,,,,,,,,,,,126817,2023-05-16_14h03.50.141,eb_02psyexp,2022.2.4,99.93809970791466,
247,0,247,0,,,,,,,,,,,,,,,,,,,,,,,,,,,,,,,,,,,,,,,,,,,,,,,,,,,,,,,,,,,640.2539636783767,640.2539636783767,640.2539636783767,640.2539636783767,640.2539636783767,640.2539636783767,l,1,1.087472926476039,641.35465315287,642.375319578452,,,,,,,,,,,,,,,,,,,,,,,,,,,,,,,,,,,,,,,126817,2023-05-16_14h03.50.141,eb_02psyexp,2022.2.4,99.93809970791466,
248,0,248,0,,,,,,,,,,,,,,,,,,,,,,,,,,,,,,,,,,,,,,,,,,,,,,,,,,,,,,,,,,,642.375319578452,642.375319578452,642.375319578452,642.375319578452,642.375319578452,642.375319578452,s,1,0.7981182169169188,643.1858387580141,644.2065887947101,,,,,,,,,,,,,,,,,,,,,,,,,,,,,,,,,,,,,,,126817,2023-05-16_14h03.50.141,eb_02psyexp,2022.2.4,99.93809970791466,
249,0,249,0,,,,,,,,,,,,,,,,,,,,,,,,,,,,,,,,,,,,,,,,,,,,,,,,,,,,,,,,,,,644.2065887947101,644.2065887947101,644.2065887947101,644.2065887947101,644.2065887947101,644.2065887947101,l,1,1.4468738003633916,645.667437377735,646.6881228196435,,,,,,,,,,,,,,,,,,,,,,,,,,,,,,,,,,,,,,,126817,2023-05-16_14h03.50.141,eb_02psyexp,2022.2.4,99.93809970791466,
250,0,250,0,,,,,,,,,,,,,,,,,,,,,,,,,,,,,,,,,,,,,,,,,,,,,,,,,,,,,,,,,,,646.6881228196435,646.6881228196435,646.6881228196435,646.6881228196435,646.6881228196435,646.6881228196435,s,1,0.9964231759076938,647.6987734225113,648.7294466154417,,,,,,,,,,,,,,,,,,,,,,,,,,,,,,,,,,,,,,,126817,2023-05-16_14h03.50.141,eb_02psyexp,2022.2.4,99.93809970791466,
251,0,251,0,,,,,,,,,,,,,,,,,,,,,,,,,,,,,,,,,,,,,,,,,,,,,,,,,,,,,,,,,,,648.7294466154417,648.7294466154417,648.7294466154417,648.7294466154417,648.7294466154417,648.7294466154417,l,1,0.6029977235011756,649.3498393278569,650.3704876428237,,,,,,,,,,,,,,,,,,,,,,,,,,,,,,,,,,,,,,,126817,2023-05-16_14h03.50.141,eb_02psyexp,2022.2.4,99.93809970791466,
252,0,252,0,,,,,,,,,,,,,,,,,,,,,,,,,,,,,,,,,,,,,,,,,,,,,,,,,,,,,,,,,,,650.3704876428237,650.3704876428237,650.3704876428237,650.3704876428237,650.3704876428237,650.3704876428237,s,1,0.8819949217140675,651.2710665212944,652.3017493732041,,,,,,,,,,,,,,,,,,,,,,,,,,,,,,,,,,,,,,,126817,2023-05-16_14h03.50.141,eb_02psyexp,2022.2.4,99.93809970791466,
253,0,253,0,,,,,,,,,,,,,,,,,,,,,,,,,,,,,,,,,,,,,,,,,,,,,,,,,,,,,,,,,,,652.3017493732041,652.3017493732041,652.3017493732041,652.3017493732041,652.3017493732041,652.3017493732041,s,1,1.094759768107906,653.4124646313721,654.4330960429506,,,,,,,,,,,,,,,,,,,,,,,,,,,,,,,,,,,,,,,126817,2023-05-16_14h03.50.141,eb_02psyexp,2022.2.4,99.93809970791466,
254,0,254,0,,,,,,,,,,,,,,,,,,,,,,,,,,,,,,,,,,,,,,,,,,,,,,,,,,,,,,,,,,,654.4330960429506,654.4330960429506,654.4330960429506,654.4330960429506,654.4330960429506,654.4330960429506,l,1,0.7074170972919092,655.1535829914501,656.1842579954537,,,,,,,,,,,,,,,,,,,,,,,,,,,,,,,,,,,,,,,126817,2023-05-16_14h03.50.141,eb_02psyexp,2022.2.4,99.93809970791466,
255,0,255,0,,,,,,,,,,,,,,,,,,,,,,,,,,,,,,,,,,,,,,,,,,,,,,,,,,,,,,,,,,,656.1842579954537,656.1842579954537,656.1842579954537,656.1842579954537,656.1842579954537,656.1842579954537,s,1,3.5162906175246462,659.716530967271,660.7471914826892,,,,,,,,,,,,,,,,,,,,,,,,,,,,,,,,,,,,,,,126817,2023-05-16_14h03.50.141,eb_02psyexp,2022.2.4,99.93809970791466,
256,0,256,0,,,,,,,,,,,,,,,,,,,,,,,,,,,,,,,,,,,,,,,,,,,,,,,,,,,,,,,,,,,660.7471914826892,660.7471914826892,660.7471914826892,660.7471914826892,660.7471914826892,660.7471914826892,l,1,0.7373537883395329,661.4976727745961,662.5283450620482,,,,,,,,,,,,,,,,,,,,,,,,,,,,,,,,,,,,,,,126817,2023-05-16_14h03.50.141,eb_02psyexp,2022.2.4,99.93809970791466,
257,0,257,0,,,,,,,,,,,,,,,,,,,,,,,,,,,,,,,,,,,,,,,,,,,,,,,,,,,,,,,,,,,662.5283450620482,662.5283450620482,662.5283450620482,662.5283450620482,662.5283450620482,662.5283450620482,s,1,1.1241803041193634,663.6690519469557,664.6897479533218,,,,,,,,,,,,,,,,,,,,,,,,,,,,,,,,,,,,,,,126817,2023-05-16_14h03.50.141,eb_02psyexp,2022.2.4,99.93809970791466,
258,0,258,0,,,,,,,,,,,,,,,,,,,,,,,,,,,,,,,,,,,,,,,,,,,,,,,,,,,,,,,,,,,664.6897479533218,664.6897479533218,664.6897479533218,664.6897479533218,664.6897479533218,664.6897479533218,l,1,0.6898204359458759,665.3902038601227,666.4208707143553,,,,,,,,,,,,,,,,,,,,,,,,,,,,,,,,,,,,,,,126817,2023-05-16_14h03.50.141,eb_02psyexp,2022.2.4,99.93809970791466,
259,0,259,0,,,,,,,,,,,,,,,,,,,,,,,,,,,,,,,,,,,,,,,,,,,,,,,,,,,,,,,,,,,666.4208707143553,666.4208707143553,666.4208707143553,666.4208707143553,666.4208707143553,666.4208707143553,s,1,0.7267113353591412,667.161316865473,668.1920012267074,,,,,,,,,,,,,,,,,,,,,,,,,,,,,,,,,,,,,,,126817,2023-05-16_14h03.50.141,eb_02psyexp,2022.2.4,99.93809970791466,
260,0,260,0,,,,,,,,,,,,,,,,,,,,,,,,,,,,,,,,,,,,,,,,,,,,,,,,,,,,,,,,,,,668.1920012267074,668.1920012267074,668.1920012267074,668.1920012267074,668.1920012267074,668.1920012267074,l,1,0.4995931526646018,668.702345456928,669.7230040344875,,,,,,,,,,,,,,,,,,,,,,,,,,,,,,,,,,,,,,,126817,2023-05-16_14h03.50.141,eb_02psyexp,2022.2.4,99.93809970791466,
261,0,261,0,,,,,,,,,,,,,,,,,,,,,,,,,,,,,,,,,,,,,,,,,,,,,,,,,,,,,,,,,,,669.7230040344875,669.7230040344875,669.7230040344875,669.7230040344875,669.7230040344875,669.7230040344875,s,1,0.6485841751564294,670.3834147611633,671.404109560186,,,,,,,,,,,,,,,,,,,,,,,,,,,,,,,,,,,,,,,126817,2023-05-16_14h03.50.141,eb_02psyexp,2022.2.4,99.93809970791466,
262,0,262,0,,,,,,,,,,,,,,,,,,,,,,,,,,,,,,,,,,,,,,,,,,,,,,,,,,,,,,,,,,,671.404109560186,671.404109560186,671.404109560186,671.404109560186,671.404109560186,671.404109560186,s,1,1.455510191153735,672.8750255814521,673.9057045094669,,,,,,,,,,,,,,,,,,,,,,,,,,,,,,,,,,,,,,,126817,2023-05-16_14h03.50.141,eb_02psyexp,2022.2.4,99.93809970791466,
263,0,263,0,,,,,,,,,,,,,,,,,,,,,,,,,,,,,,,,,,,,,,,,,,,,,,,,,,,,,,,,,,,673.9057045094669,673.9057045094669,673.9057045094669,673.9057045094669,673.9057045094669,673.9057045094669,s,1,0.7539277985924855,674.6761908844346,675.7068486833014,,,,,,,,,,,,,,,,,,,,,,,,,,,,,,,,,,,,,,,126817,2023-05-16_14h03.50.141,eb_02psyexp,2022.2.4,99.93809970791466,
264,0,264,0,,,,,,,,,,,,,,,,,,,,,,,,,,,,,,,,,,,,,,,,,,,,,,,,,,,,,,,,,,,675.7068486833014,675.7068486833014,675.7068486833014,675.7068486833014,675.7068486833014,675.7068486833014,s,1,1.4808214085642248,677.1978020850802,678.2284888610011,,,,,,,,,,,,,,,,,,,,,,,,,,,,,,,,,,,,,,,126817,2023-05-16_14h03.50.141,eb_02psyexp,2022.2.4,99.93809970791466,
265,0,265,0,,,,,,,,,,,,,,,,,,,,,,,,,,,,,,,,,,,,,,,,,,,,,,,,,,,,,,,,,,,678.2284888610011,678.2284888610011,678.2284888610011,678.2284888610011,678.2284888610011,678.2284888610011,s,1,0.5902224332094193,678.8288550594589,679.8595418354962,,,,,,,,,,,,,,,,,,,,,,,,,,,,,,,,,,,,,,,126817,2023-05-16_14h03.50.141,eb_02psyexp,2022.2.4,99.93809970791466,
266,0,266,0,,,,,,,,,,,,,,,,,,,,,,,,,,,,,,,,,,,,,,,,,,,,,,,,,,,,,,,,,,,679.8595418354962,679.8595418354962,679.8595418354962,679.8595418354962,679.8595418354962,679.8595418354962,s,1,0.6710915537551045,680.5499867490726,681.5706407990074,,,,,,,,,,,,,,,,,,,,,,,,,,,,,,,,,,,,,,,126817,2023-05-16_14h03.50.141,eb_02psyexp,2022.2.4,99.93809970791466,
267,0,267,0,,,,,,,,,,,,,,,,,,,,,,,,,,,,,,,,,,,,,,,,,,,,,,,,,,,,,,,,,,,681.5706407990074,681.5706407990074,681.5706407990074,681.5706407990074,681.5706407990074,681.5706407990074,l,1,1.0240042681107298,682.6113005357329,683.6319763184292,,,,,,,,,,,,,,,,,,,,,,,,,,,,,,,,,,,,,,,126817,2023-05-16_14h03.50.141,eb_02psyexp,2022.2.4,99.93809970791466,
268,0,268,0,,,,,,,,,,,,,,,,,,,,,,,,,,,,,,,,,,,,,,,,,,,,,,,,,,,,,,,,,,,683.6319763184292,683.6319763184292,683.6319763184292,683.6319763184292,683.6319763184292,683.6319763184292,l,1,0.8667363522108644,684.5125377381919,685.5332500442164,,,,,,,,,,,,,,,,,,,,,,,,,,,,,,,,,,,,,,,126817,2023-05-16_14h03.50.141,eb_02psyexp,2022.2.4,99.93809970791466,
269,0,269,0,,,,,,,,,,,,,,,,,,,,,,,,,,,,,,,,,,,,,,,,,,,,,,,,,,,,,,,,,,,685.5332500442164,685.5332500442164,685.5332500442164,685.5332500442164,685.5332500442164,685.5332500442164,l,1,1.1894660699181259,686.7339818374021,687.7646432584152,,,,,,,,,,,,,,,,,,,,,,,,,,,,,,,,,,,,,,,126817,2023-05-16_14h03.50.141,eb_02psyexp,2022.2.4,99.93809970791466,
270,0,270,0,,,,,,,,,,,,,,,,,,,,,,,,,,,,,,,,,,,,,,,,,,,,,,,,,,,,,,,,,,,687.7646432584152,687.7646432584152,687.7646432584152,687.7646432584152,687.7646432584152,687.7646432584152,s,1,1.094065826269798,688.8753488574876,689.9060229560127,,,,,,,,,,,,,,,,,,,,,,,,,,,,,,,,,,,,,,,126817,2023-05-16_14h03.50.141,eb_02psyexp,2022.2.4,99.93809970791466,
271,0,271,0,,,,,,,,,,,,,,,,,,,,,,,,,,,,,,,,,,,,,,,,,,,,,,,,,,,,,,,,,,,689.9060229560127,689.9060229560127,689.9060229560127,689.9060229560127,689.9060229560127,689.9060229560127,s,1,0.6566853947006166,690.5764582587872,691.5971651315922,,,,,,,,,,,,,,,,,,,,,,,,,,,,,,,,,,,,,,,126817,2023-05-16_14h03.50.141,eb_02psyexp,2022.2.4,99.93809970791466,
272,0,272,0,,,,,,,,,,,,,,,,,,,,,,,,,,,,,,,,,,,,,,,,,,,,,,,,,,,,,,,,,,,691.5971651315922,691.5971651315922,691.5971651315922,691.5971651315922,691.5971651315922,691.5971651315922,l,1,0.733562312554568,692.3475990338484,693.3682826646836,,,,,,,,,,,,,,,,,,,,,,,,,,,,,,,,,,,,,,,126817,2023-05-16_14h03.50.141,eb_02psyexp,2022.2.4,99.93809970791466,
