trials.thisRepN,trials.thisTrialN,trials.thisN,trials.thisIndex,image_loop.thisRepN,image_loop.thisTrialN,image_loop.thisN,image_loop.thisIndex,break_loop.thisRepN,break_loop.thisTrialN,break_loop.thisN,break_loop.thisIndex,test_trials.thisRepN,test_trials.thisTrialN,test_trials.thisN,test_trials.thisIndex,distance matrix,tools,welcome_text.started,instructions_0_keypress.started,instructions_0_keypress.keys,instructions_0_keypress.rt,consent_image_0.started,consent0_key_resp.started,consent0_text.started,consent0_key_resp.keys,consent0_key_resp.rt,consent_image_1.started,consent1_key_resp.started,consent1_text.started,consent1_key_resp.keys,consent1_key_resp.rt,consent2_text.started,consent_image_2.started,consent2_key_resp.started,consent2_key_resp.keys,consent2_key_resp.rt,agree_button.started,disagree_button.started,consent_image_3.started,agree_button.numClicks,agree_button.timesOn,agree_button.timesOff,disagree_button.numClicks,disagree_button.timesOn,disagree_button.timesOff,instructions_text1.started,instructions1_key_resp.started,instr1_cnt_text.started,instructions1_key_resp.keys,instructions1_key_resp.rt,instructions_text2.started,instr2_cnt_text.started,instructions2_key_resp.started,instructions2_key_resp.keys,instructions2_key_resp.rt,instructions_text3.started,instructions3_key_resp.started,instr3_cnt_text.started,instructions3_key_resp.keys,instructions3_key_resp.rt,text_countdown.started,image.started,small_large_keyresp.started,task_question_text.started,smalleroption_text.started,largeroption_text.started,accuracy_score_text.started,small_large_keyresp.keys,small_large_keyresp.corr,small_large_keyresp.rt,fb_2.started,fb_2.stopped,break_text.started,break_key_resp.started,break_key_resp.keys,break_key_resp.rt,reveal_seq_text.started,start_test_text.started,continue_to_test.started,continue_to_test.keys,continue_to_test.rt,test_structure_info.started,start_test_text_2.started,continue_to_test_2.started,continue_to_test_2.keys,continue_to_test_2.rt,test_cntdown_text.started,parent index,left child index,right child index,left distance,right distance,parent_image.started,top_image_text.started,left_child_image.started,right_child_image.started,path_resp.started,child_choice_text.started,left_choice_text.started,right_choice_text.started,path_resp.keys,path_resp.rt,graph.started,debrief_text.started,debriefing_title.started,demo_scr_adv.started,demo_scr_adv_keypress.started,demo_scr_adv_keypress.keys,demo_scr_adv_keypress.rt,text_countdown_2.started,participant,date,expName,psychopyVersion,frameRate,
,,,,,,,,,,,,,,,,"[[0. 1. 1. 2. 2. 3. 4. 5. 5. 6. 6. 7.]
 [1. 0. 2. 1. 1. 2. 3. 4. 4. 5. 5. 6.]
 [1. 2. 0. 1. 1. 2. 3. 4. 4. 5. 5. 6.]
 [2. 1. 1. 0. 1. 1. 2. 3. 3. 4. 4. 5.]
 [2. 1. 1. 1. 0. 1. 2. 3. 3. 4. 4. 5.]
 [3. 2. 2. 1. 1. 0. 1. 2. 2. 3. 3. 4.]
 [4. 3. 3. 2. 2. 1. 0. 1. 1. 2. 2. 3.]
 [5. 4. 4. 3. 3. 2. 1. 0. 1. 1. 1. 2.]
 [5. 4. 4. 3. 3. 2. 1. 1. 0. 1. 1. 2.]
 [6. 5. 5. 4. 4. 3. 2. 1. 1. 0. 2. 1.]
 [6. 5. 5. 4. 4. 3. 2. 1. 1. 2. 0. 1.]
 [7. 6. 6. 5. 5. 4. 3. 2. 2. 1. 1. 0.]]",[ 7  2  5  9  1  8 10  0  4  3 11  6],10.04539387463592,10.04539387463592,return,16.2525933975121,,,,,,,,,,,,,,,,,,,,,,,,,,,,,,,,,,,,,,,,,,,,,,,,,,,,,,,,,,,,,,,,,,,,,,,,,,,,,,,,,,,,,,,,,,154754,2023-05-16_14h18.50.083,eb_02psyexp,2022.2.4,99.91308393454328,
,,,,,,,,,,,,,,,,,,,,,,26.334969534771517,26.334969534771517,26.334969534771517,space,2.075033947592601,,,,,,,,,,,,,,,,,,,,,,,,,,,,,,,,,,,,,,,,,,,,,,,,,,,,,,,,,,,,,,,,,,,,,,,,,,,,,,,,,,,,,154754,2023-05-16_14h18.50.083,eb_02psyexp,2022.2.4,99.91308393454328,
,,,,,,,,,,,,,,,,,,,,,,,,,,,28.425870777689852,28.425870777689852,28.425870777689852,space,10.511209715623409,,,,,,,,,,,,,,,,,,,,,,,,,,,,,,,,,,,,,,,,,,,,,,,,,,,,,,,,,,,,,,,,,,,,,,,,,,,,,,,,154754,2023-05-16_14h18.50.083,eb_02psyexp,2022.2.4,99.91308393454328,
,,,,,,,,,,,,,,,,,,,,,,,,,,,,,,,,38.95207847491838,38.95207847491838,38.95207847491838,space,3.5689804449211806,,,,,,,,,,,,,,,,,,,,,,,,,,,,,,,,,,,,,,,,,,,,,,,,,,,,,,,,,,,,,,,,,,,,,,,,,,,154754,2023-05-16_14h18.50.083,eb_02psyexp,2022.2.4,99.91308393454328,
,,,,,,,,,,,,,,,,,,,,,,,,,,,,,,,,,,,,,42.54419102205429,42.54419102205429,42.54419102205429,1,[4.462298646802083],[4.46230287256185],0,,,46.996833343524486,48.988032748922706,48.988032748922706,space,1.9090943250339478,,,,,,,,,,,,,,,,,,,,,,,,,,,,,,,,,,,,,,,,,,,,,,,,,,,,,,,,,,,,,154754,2023-05-16_14h18.50.083,eb_02psyexp,2022.2.4,99.91308393454328,
,,,,,,,,,,,,,,,,,,,,,,,,,,,,,,,,,,,,,,,,,,,,,,,,,,,50.90950926637743,53.90124535234645,53.90124535234645,space,18.82597494951915,,,,,,,,,,,,,,,,,,,,,,,,,,,,,,,,,,,,,,,,,,,,,,,,,,,,,,,,154754,2023-05-16_14h18.50.083,eb_02psyexp,2022.2.4,99.91308393454328,
,,,,,,,,,,,,,,,,,,,,,,,,,,,,,,,,,,,,,,,,,,,,,,,,,,,,,,,,72.74240965326317,75.7341716978699,75.7341716978699,space,15.112151230685413,,,,,,,,,,,,,,,,,,,,,,,,,,,,,,,,,,,,,,,,,,,,,,,,,,,154754,2023-05-16_14h18.50.083,eb_02psyexp,2022.2.4,99.91308393454328,
0,0,0,0,,,,,,,,,,,,,,,,,,,,,,,,,,,,,,,,,,,,,,,,,,,,,,,,,,,,,,,,,,90.87281607557088,95.90578661125619,95.90578661125619,95.90578661125619,95.90578661125619,95.90578661125619,95.90578661125619,s,1,2.204560793354176,98.12712476286106,99.15775328269228,,,,,,,,,,,,,,,,,,,,,,,,,,,,,,,,,,,,,,,154754,2023-05-16_14h18.50.083,eb_02psyexp,2022.2.4,99.91308393454328,
1,0,1,0,,,,,,,,,,,,,,,,,,,,,,,,,,,,,,,,,,,,,,,,,,,,,,,,,,,,,,,,,,,99.15775328269228,99.15775328269228,99.15775328269228,99.15775328269228,99.15775328269228,99.15775328269228,l,1,0.9286303409608081,100.09829101362266,101.11888107238337,,,,,,,,,,,,,,,,,,,,,,,,,,,,,,,,,,,,,,,154754,2023-05-16_14h18.50.083,eb_02psyexp,2022.2.4,99.91308393454328,
2,0,2,0,,,,,,,,,,,,,,,,,,,,,,,,,,,,,,,,,,,,,,,,,,,,,,,,,,,,,,,,,,,101.11888107238337,101.11888107238337,101.11888107238337,101.11888107238337,101.11888107238337,101.11888107238337,s,1,1.0305969219189137,102.15953175374307,103.18015350634232,,,,,,,,,,,,,,,,,,,,,,,,,,,,,,,,,,,,,,,154754,2023-05-16_14h18.50.083,eb_02psyexp,2022.2.4,99.91308393454328,
3,0,3,0,,,,,,,,,,,,,,,,,,,,,,,,,,,,,,,,,,,,,,,,,,,,,,,,,,,,,,,,,,,103.18015350634232,103.18015350634232,103.18015350634232,103.18015350634232,103.18015350634232,103.18015350634232,l,1,0.6812692212406546,103.88055960868951,104.9011572136078,,,,,,,,,,,,,,,,,,,,,,,,,,,,,,,,,,,,,,,154754,2023-05-16_14h18.50.083,eb_02psyexp,2022.2.4,99.91308393454328,
4,0,4,0,,,,,,,,,,,,,,,,,,,,,,,,,,,,,,,,,,,,,,,,,,,,,,,,,,,,,,,,,,,104.9011572136078,104.9011572136078,104.9011572136078,104.9011572136078,104.9011572136078,104.9011572136078,s,1,0.8722511172527447,105.79166110767983,106.82228842016775,,,,,,,,,,,,,,,,,,,,,,,,,,,,,,,,,,,,,,,154754,2023-05-16_14h18.50.083,eb_02psyexp,2022.2.4,99.91308393454328,
5,0,5,0,,,,,,,,,,,,,,,,,,,,,,,,,,,,,,,,,,,,,,,,,,,,,,,,,,,,,,,,,,,106.82228842016775,106.82228842016775,106.82228842016775,106.82228842016775,106.82228842016775,106.82228842016775,l,1,0.7351207945030183,107.5727340944577,108.6033544645179,,,,,,,,,,,,,,,,,,,,,,,,,,,,,,,,,,,,,,,154754,2023-05-16_14h18.50.083,eb_02psyexp,2022.2.4,99.91308393454328,
6,0,6,0,,,,,,,,,,,,,,,,,,,,,,,,,,,,,,,,,,,,,,,,,,,,,,,,,,,,,,,,,,,108.6033544645179,108.6033544645179,108.6033544645179,108.6033544645179,108.6033544645179,108.6033544645179,s,1,0.7061080511193722,109.32375750003848,110.34441215370316,,,,,,,,,,,,,,,,,,,,,,,,,,,,,,,,,,,,,,,154754,2023-05-16_14h18.50.083,eb_02psyexp,2022.2.4,99.91308393454328,
7,0,7,0,,,,,,,,,,,,,,,,,,,,,,,,,,,,,,,,,,,,,,,,,,,,,,,,,,,,,,,,,,,110.34441215370316,110.34441215370316,110.34441215370316,110.34441215370316,110.34441215370316,110.34441215370316,l,0,0.8529982320033014,111.21489043929614,112.23548683687113,,,,,,,,,,,,,,,,,,,,,,,,,,,,,,,,,,,,,,,154754,2023-05-16_14h18.50.083,eb_02psyexp,2022.2.4,99.91308393454328,
8,0,8,0,,,,,,,,,,,,,,,,,,,,,,,,,,,,,,,,,,,,,,,,,,,,,,,,,,,,,,,,,,,112.23548683687113,112.23548683687113,112.23548683687113,112.23548683687113,112.23548683687113,112.23548683687113,s,1,0.9379658048273996,113.18604069238063,114.20669504418038,,,,,,,,,,,,,,,,,,,,,,,,,,,,,,,,,,,,,,,154754,2023-05-16_14h18.50.083,eb_02psyexp,2022.2.4,99.91308393454328,
9,0,9,0,,,,,,,,,,,,,,,,,,,,,,,,,,,,,,,,,,,,,,,,,,,,,,,,,,,,,,,,,,,114.20669504418038,114.20669504418038,114.20669504418038,114.20669504418038,114.20669504418038,114.20669504418038,l,1,0.7987557696178555,115.01711461483501,116.0377650426235,,,,,,,,,,,,,,,,,,,,,,,,,,,,,,,,,,,,,,,154754,2023-05-16_14h18.50.083,eb_02psyexp,2022.2.4,99.91308393454328,
10,0,10,0,,,,,,,,,,,,,,,,,,,,,,,,,,,,,,,,,,,,,,,,,,,,,,,,,,,,,,,,,,,116.0377650426235,116.0377650426235,116.0377650426235,116.0377650426235,116.0377650426235,116.0377650426235,s,1,1.5987843241309747,117.64871543797199,118.67932252690662,,,,,,,,,,,,,,,,,,,,,,,,,,,,,,,,,,,,,,,154754,2023-05-16_14h18.50.083,eb_02psyexp,2022.2.4,99.91308393454328,
11,0,11,0,,,,,,,,,,,,,,,,,,,,,,,,,,,,,,,,,,,,,,,,,,,,,,,,,,,,,,,,,,,118.67932252690662,118.67932252690662,118.67932252690662,118.67932252690662,118.67932252690662,118.67932252690662,l,1,0.7651589054148644,119.45978186256252,120.48038158041891,,,,,,,,,,,,,,,,,,,,,,,,,,,,,,,,,,,,,,,154754,2023-05-16_14h18.50.083,eb_02psyexp,2022.2.4,99.91308393454328,
12,0,12,0,,,,,,,,,,,,,,,,,,,,,,,,,,,,,,,,,,,,,,,,,,,,,,,,,,,,,,,,,,,120.48038158041891,120.48038158041891,120.48038158041891,120.48038158041891,120.48038158041891,120.48038158041891,l,1,2.0361203845823184,122.53163064550608,123.5522454555612,,,,,,,,,,,,,,,,,,,,,,,,,,,,,,,,,,,,,,,154754,2023-05-16_14h18.50.083,eb_02psyexp,2022.2.4,99.91308393454328,
13,0,13,0,,,,,,,,,,,,,,,,,,,,,,,,,,,,,,,,,,,,,,,,,,,,,,,,,,,,,,,,,,,123.5522454555612,123.5522454555612,123.5522454555612,123.5522454555612,123.5522454555612,123.5522454555612,s,1,1.6202793144620955,125.1831782956142,126.21380168420728,,,,,,,,,,,,,,,,,,,,,,,,,,,,,,,,,,,,,,,154754,2023-05-16_14h18.50.083,eb_02psyexp,2022.2.4,99.91308393454328,
14,0,14,0,,,,,,,,,,,,,,,,,,,,,,,,,,,,,,,,,,,,,,,,,,,,,,,,,,,,,,,,,,,126.21380168420728,126.21380168420728,126.21380168420728,126.21380168420728,126.21380168420728,126.21380168420728,l,1,0.6947420755168423,126.9242151575163,127.94482815661468,,,,,,,,,,,,,,,,,,,,,,,,,,,,,,,,,,,,,,,154754,2023-05-16_14h18.50.083,eb_02psyexp,2022.2.4,99.91308393454328,
15,0,15,0,,,,,,,,,,,,,,,,,,,,,,,,,,,,,,,,,,,,,,,,,,,,,,,,,,,,,,,,,,,127.94482815661468,127.94482815661468,127.94482815661468,127.94482815661468,127.94482815661468,127.94482815661468,l,1,0.7556957609485835,128.7152952135075,129.74589747283608,,,,,,,,,,,,,,,,,,,,,,,,,,,,,,,,,,,,,,,154754,2023-05-16_14h18.50.083,eb_02psyexp,2022.2.4,99.91308393454328,
16,0,16,0,,,,,,,,,,,,,,,,,,,,,,,,,,,,,,,,,,,,,,,,,,,,,,,,,,,,,,,,,,,129.74589747283608,129.74589747283608,129.74589747283608,129.74589747283608,129.74589747283608,129.74589747283608,l,1,0.570722694741562,130.3362427172251,,,,,,,,,,,,,,,,,,,,,,,,,,,,,,,,,,,,,,,,154754,2023-05-16_14h18.50.083,eb_02psyexp,2022.2.4,99.91308393454328,
17,0,17,0,,,,,,,,,,,,,,,,,,,,,,,,,,,,,,,,,,,,,,,,,,,,,,,,,,,,,,,,,,,131.36718213756103,131.36718213756103,131.36718213756103,131.36718213756103,131.36718213756103,131.36718213756103,s,1,0.6133531777886674,131.99756531778257,133.01788854552433,,,,,,,,,,,,,,,,,,,,,,,,,,,,,,,,,,,,,,,154754,2023-05-16_14h18.50.083,eb_02psyexp,2022.2.4,99.91308393454328,
18,0,18,0,,,,,,,,,,,,,,,,,,,,,,,,,,,,,,,,,,,,,,,,,,,,,,,,,,,,,,,,,,,133.01788854552433,133.01788854552433,133.01788854552433,133.01788854552433,133.01788854552433,133.01788854552433,l,1,0.6256744930287823,133.6582184259314,134.6888454365544,,,,,,,,,,,,,,,,,,,,,,,,,,,,,,,,,,,,,,,154754,2023-05-16_14h18.50.083,eb_02psyexp,2022.2.4,99.91308393454328,
19,0,19,0,,,,,,,,,,,,,,,,,,,,,,,,,,,,,,,,,,,,,,,,,,,,,,,,,,,,,,,,,,,134.6888454365544,134.6888454365544,134.6888454365544,134.6888454365544,134.6888454365544,134.6888454365544,s,1,0.570797854103148,135.27918736066204,136.30977513152175,,,,,,,,,,,,,,,,,,,,,,,,,,,,,,,,,,,,,,,154754,2023-05-16_14h18.50.083,eb_02psyexp,2022.2.4,99.91308393454328,
20,0,20,0,,,,,,,,,,,,,,,,,,,,,,,,,,,,,,,,,,,,,,,,,,,,,,,,,,,,,,,,,,,136.30977513152175,136.30977513152175,136.30977513152175,136.30977513152175,136.30977513152175,136.30977513152175,l,1,0.5498000024817884,136.87012422131374,137.89074537018314,,,,,,,,,,,,,,,,,,,,,,,,,,,,,,,,,,,,,,,154754,2023-05-16_14h18.50.083,eb_02psyexp,2022.2.4,99.91308393454328,
21,0,21,0,,,,,,,,,,,,,,,,,,,,,,,,,,,,,,,,,,,,,,,,,,,,,,,,,,,,,,,,,,,137.89074537018314,137.89074537018314,137.89074537018314,137.89074537018314,137.89074537018314,137.89074537018314,s,1,0.6008640365907922,138.51111242582556,139.54173913458362,,,,,,,,,,,,,,,,,,,,,,,,,,,,,,,,,,,,,,,154754,2023-05-16_14h18.50.083,eb_02psyexp,2022.2.4,99.91308393454328,
22,0,22,0,,,,,,,,,,,,,,,,,,,,,,,,,,,,,,,,,,,,,,,,,,,,,,,,,,,,,,,,,,,139.54173913458362,139.54173913458362,139.54173913458362,139.54173913458362,139.54173913458362,139.54173913458362,l,1,0.6059051508782431,140.1620932109654,141.1826965509681,,,,,,,,,,,,,,,,,,,,,,,,,,,,,,,,,,,,,,,154754,2023-05-16_14h18.50.083,eb_02psyexp,2022.2.4,99.91308393454328,
23,0,23,0,,,,,,,,,,,,,,,,,,,,,,,,,,,,,,,,,,,,,,,,,,,,,,,,,,,,,,,,,,,141.1826965509681,141.1826965509681,141.1826965509681,141.1826965509681,141.1826965509681,141.1826965509681,s,1,0.5409393408335745,141.74303356697783,142.77364276873413,,,,,,,,,,,,,,,,,,,,,,,,,,,,,,,,,,,,,,,154754,2023-05-16_14h18.50.083,eb_02psyexp,2022.2.4,99.91308393454328,
24,0,24,0,,,,,,,,,,,,,,,,,,,,,,,,,,,,,,,,,,,,,,,,,,,,,,,,,,,,,,,,,,,142.77364276873413,142.77364276873413,142.77364276873413,142.77364276873413,142.77364276873413,142.77364276873413,l,1,0.6619834350422025,143.4540190367261,144.4849705308443,,,,,,,,,,,,,,,,,,,,,,,,,,,,,,,,,,,,,,,154754,2023-05-16_14h18.50.083,eb_02psyexp,2022.2.4,99.91308393454328,
25,0,25,0,,,,,,,,,,,,,,,,,,,,,,,,,,,,,,,,,,,,,,,,,,,,,,,,,,,,,,,,,,,144.4849705308443,144.4849705308443,144.4849705308443,144.4849705308443,144.4849705308443,144.4849705308443,s,1,0.5107324986020103,145.0152540418785,146.04554811737034,,,,,,,,,,,,,,,,,,,,,,,,,,,,,,,,,,,,,,,154754,2023-05-16_14h18.50.083,eb_02psyexp,2022.2.4,99.91308393454328,
26,0,26,0,,,,,,,,,,,,,,,,,,,,,,,,,,,,,,,,,,,,,,,,,,,,,,,,,,,,,,,,,,,146.04554811737034,146.04554811737034,146.04554811737034,146.04554811737034,146.04554811737034,146.04554811737034,l,1,0.6701187631115317,146.72599682817236,147.7466161659686,,,,,,,,,,,,,,,,,,,,,,,,,,,,,,,,,,,,,,,154754,2023-05-16_14h18.50.083,eb_02psyexp,2022.2.4,99.91308393454328,
27,0,27,0,,,,,,,,,,,,,,,,,,,,,,,,,,,,,,,,,,,,,,,,,,,,,,,,,,,,,,,,,,,147.7466161659686,147.7466161659686,147.7466161659686,147.7466161659686,147.7466161659686,147.7466161659686,s,1,0.576062333653681,148.3369387718849,,,,,,,,,,,,,,,,,,,,,,,,,,,,,,,,,,,,,,,,154754,2023-05-16_14h18.50.083,eb_02psyexp,2022.2.4,99.91308393454328,
28,0,28,0,,,,,,,,,,,,,,,,,,,,,,,,,,,,,,,,,,,,,,,,,,,,,,,,,,,,,,,,,,,149.36787728674244,149.36787728674244,149.36787728674244,149.36787728674244,149.36787728674244,149.36787728674244,l,1,0.5387941281078383,149.91821417596657,150.93848065682687,,,,,,,,,,,,,,,,,,,,,,,,,,,,,,,,,,,,,,,154754,2023-05-16_14h18.50.083,eb_02psyexp,2022.2.4,99.91308393454328,
29,0,29,0,,,,,,,,,,,,,,,,,,,,,,,,,,,,,,,,,,,,,,,,,,,,,,,,,,,,,,,,,,,150.93848065682687,150.93848065682687,150.93848065682687,150.93848065682687,150.93848065682687,150.93848065682687,l,1,0.6002760424744338,151.5488228345057,152.56948654341977,,,,,,,,,,,,,,,,,,,,,,,,,,,,,,,,,,,,,,,154754,2023-05-16_14h18.50.083,eb_02psyexp,2022.2.4,99.91308393454328,
30,0,30,0,,,,,,,,,,,,,,,,,,,,,,,,,,,,,,,,,,,,,,,,,,,,,,,,,,,,,,,,,,,152.56948654341977,152.56948654341977,152.56948654341977,152.56948654341977,152.56948654341977,152.56948654341977,l,1,0.601215987931937,153.18982462200802,154.22043955884874,,,,,,,,,,,,,,,,,,,,,,,,,,,,,,,,,,,,,,,154754,2023-05-16_14h18.50.083,eb_02psyexp,2022.2.4,99.91308393454328,
31,0,31,0,,,,,,,,,,,,,,,,,,,,,,,,,,,,,,,,,,,,,,,,,,,,,,,,,,,,,,,,,,,154.22043955884874,154.22043955884874,154.22043955884874,154.22043955884874,154.22043955884874,154.22043955884874,s,1,0.670272703981027,154.90083937067538,155.93145611870568,,,,,,,,,,,,,,,,,,,,,,,,,,,,,,,,,,,,,,,154754,2023-05-16_14h18.50.083,eb_02psyexp,2022.2.4,99.91308393454328,
32,0,32,0,,,,,,,,,,,,,,,,,,,,,,,,,,,,,,,,,,,,,,,,,,,,,,,,,,,,,,,,,,,155.93145611870568,155.93145611870568,155.93145611870568,155.93145611870568,155.93145611870568,155.93145611870568,s,1,0.6552368962438777,156.60185157798696,157.63245232810732,,,,,,,,,,,,,,,,,,,,,,,,,,,,,,,,,,,,,,,154754,2023-05-16_14h18.50.083,eb_02psyexp,2022.2.4,99.91308393454328,
33,0,33,0,,,,,,,,,,,,,,,,,,,,,,,,,,,,,,,,,,,,,,,,,,,,,,,,,,,,,,,,,,,157.63245232810732,157.63245232810732,157.63245232810732,157.63245232810732,157.63245232810732,157.63245232810732,s,1,0.7782650177832693,158.42291631828994,159.45354121609125,,,,,,,,,,,,,,,,,,,,,,,,,,,,,,,,,,,,,,,154754,2023-05-16_14h18.50.083,eb_02psyexp,2022.2.4,99.91308393454328,
34,0,34,0,,,,,,,,,,,,,,,,,,,,,,,,,,,,,,,,,,,,,,,,,,,,,,,,,,,,,,,,,,,159.45354121609125,159.45354121609125,159.45354121609125,159.45354121609125,159.45354121609125,159.45354121609125,s,1,0.5571870567509905,160.02388077357318,161.04447566193994,,,,,,,,,,,,,,,,,,,,,,,,,,,,,,,,,,,,,,,154754,2023-05-16_14h18.50.083,eb_02psyexp,2022.2.4,99.91308393454328,
35,0,35,0,,,,,,,,,,,,,,,,,,,,,,,,,,,,,,,,,,,,,,,,,,,,,,,,,,,,,,,,,,,161.04447566193994,161.04447566193994,161.04447566193994,161.04447566193994,161.04447566193994,161.04447566193994,l,1,1.350262006628327,162.40531603479758,163.43591557757463,,,,,,,,,,,,,,,,,,,,,,,,,,,,,,,,,,,,,,,154754,2023-05-16_14h18.50.083,eb_02psyexp,2022.2.4,99.91308393454328,
36,0,36,0,,,,,,,,,,,,,,,,,,,,,,,,,,,,,,,,,,,,,,,,,,,,,,,,,,,,,,,,,,,163.43591557757463,163.43591557757463,163.43591557757463,163.43591557757463,163.43591557757463,163.43591557757463,s,1,0.5098782769637182,163.95622401486617,164.98689358576667,,,,,,,,,,,,,,,,,,,,,,,,,,,,,,,,,,,,,,,154754,2023-05-16_14h18.50.083,eb_02psyexp,2022.2.4,99.91308393454328,
37,0,37,0,,,,,,,,,,,,,,,,,,,,,,,,,,,,,,,,,,,,,,,,,,,,,,,,,,,,,,,,,,,164.98689358576667,164.98689358576667,164.98689358576667,164.98689358576667,164.98689358576667,164.98689358576667,s,1,0.5028709440957755,165.50716580171138,166.53776142047718,,,,,,,,,,,,,,,,,,,,,,,,,,,,,,,,,,,,,,,154754,2023-05-16_14h18.50.083,eb_02psyexp,2022.2.4,99.91308393454328,
38,0,38,0,,,,,,,,,,,,,,,,,,,,,,,,,,,,,,,,,,,,,,,,,,,,,,,,,,,,,,,,,,,166.53776142047718,166.53776142047718,166.53776142047718,166.53776142047718,166.53776142047718,166.53776142047718,s,1,0.5039907891768962,167.05808283714578,168.08868147432804,,,,,,,,,,,,,,,,,,,,,,,,,,,,,,,,,,,,,,,154754,2023-05-16_14h18.50.083,eb_02psyexp,2022.2.4,99.91308393454328,
39,0,39,0,,,,,,,,,,,,,,,,,,,,,,,,,,,,,,,,,,,,,,,,,,,,,,,,,,,,,,,,,,,168.08868147432804,168.08868147432804,168.08868147432804,168.08868147432804,168.08868147432804,168.08868147432804,s,1,0.7930454647867009,168.89915718825068,169.9297787656542,,,,,,,,,,,,,,,,,,,,,,,,,,,,,,,,,,,,,,,154754,2023-05-16_14h18.50.083,eb_02psyexp,2022.2.4,99.91308393454328,
40,0,40,0,,,,,,,,,,,,,,,,,,,,,,,,,,,,,,,,,,,,,,,,,,,,,,,,,,,,,,,,,,,169.9297787656542,169.9297787656542,169.9297787656542,169.9297787656542,169.9297787656542,169.9297787656542,s,1,0.4719955148175359,170.4200684101088,,,,,,,,,,,,,,,,,,,,,,,,,,,,,,,,,,,,,,,,154754,2023-05-16_14h18.50.083,eb_02psyexp,2022.2.4,99.91308393454328,
41,0,41,0,,,,,,,,,,,,,,,,,,,,,,,,,,,,,,,,,,,,,,,,,,,,,,,,,,,,,,,,,,,171.4409690675093,171.4409690675093,171.4409690675093,171.4409690675093,171.4409690675093,171.4409690675093,l,1,0.4888233768288046,171.94129747489933,172.97157011949457,,,,,,,,,,,,,,,,,,,,,,,,,,,,,,,,,,,,,,,154754,2023-05-16_14h18.50.083,eb_02psyexp,2022.2.4,99.91308393454328,
42,0,42,0,,,,,,,,,,,,,,,,,,,,,,,,,,,,,,,,,,,,,,,,,,,,,,,,,,,,,,,,,,,172.97157011949457,172.97157011949457,172.97157011949457,172.97157011949457,172.97157011949457,172.97157011949457,s,1,0.5822217839304358,173.57194507145323,174.59255324094556,,,,,,,,,,,,,,,,,,,,,,,,,,,,,,,,,,,,,,,154754,2023-05-16_14h18.50.083,eb_02psyexp,2022.2.4,99.91308393454328,
43,0,43,0,,,,,,,,,,,,,,,,,,,,,,,,,,,,,,,,,,,,,,,,,,,,,,,,,,,,,,,,,,,174.59255324094556,174.59255324094556,174.59255324094556,174.59255324094556,174.59255324094556,174.59255324094556,l,1,0.9292768930317834,175.53307738888543,176.56372281210497,,,,,,,,,,,,,,,,,,,,,,,,,,,,,,,,,,,,,,,154754,2023-05-16_14h18.50.083,eb_02psyexp,2022.2.4,99.91308393454328,
44,0,44,0,,,,,,,,,,,,,,,,,,,,,,,,,,,,,,,,,,,,,,,,,,,,,,,,,,,,,,,,,,,176.56372281210497,176.56372281210497,176.56372281210497,176.56372281210497,176.56372281210497,176.56372281210497,s,1,0.4620965061476454,177.0440035762731,178.07462122978177,,,,,,,,,,,,,,,,,,,,,,,,,,,,,,,,,,,,,,,154754,2023-05-16_14h18.50.083,eb_02psyexp,2022.2.4,99.91308393454328,
45,0,45,0,,,,,,,,,,,,,,,,,,,,,,,,,,,,,,,,,,,,,,,,,,,,,,,,,,,,,,,,,,,178.07462122978177,178.07462122978177,178.07462122978177,178.07462122978177,178.07462122978177,178.07462122978177,s,1,0.4862884820904583,178.5750281168148,179.60553257842548,,,,,,,,,,,,,,,,,,,,,,,,,,,,,,,,,,,,,,,154754,2023-05-16_14h18.50.083,eb_02psyexp,2022.2.4,99.91308393454328,
46,0,46,0,,,,,,,,,,,,,,,,,,,,,,,,,,,,,,,,,,,,,,,,,,,,,,,,,,,,,,,,,,,179.60553257842548,179.60553257842548,179.60553257842548,179.60553257842548,179.60553257842548,179.60553257842548,s,1,0.4752916628494859,180.09584425762296,181.12644108373206,,,,,,,,,,,,,,,,,,,,,,,,,,,,,,,,,,,,,,,154754,2023-05-16_14h18.50.083,eb_02psyexp,2022.2.4,99.91308393454328,
47,0,47,0,,,,,,,,,,,,,,,,,,,,,,,,,,,,,,,,,,,,,,,,,,,,,,,,,,,,,,,,,,,181.12644108373206,181.12644108373206,181.12644108373206,181.12644108373206,181.12644108373206,181.12644108373206,s,1,0.4904258722672239,181.62673085497227,182.65734428260475,,,,,,,,,,,,,,,,,,,,,,,,,,,,,,,,,,,,,,,154754,2023-05-16_14h18.50.083,eb_02psyexp,2022.2.4,99.91308393454328,
48,0,48,0,,,,,,,,,,,,,,,,,,,,,,,,,,,,,,,,,,,,,,,,,,,,,,,,,,,,,,,,,,,182.65734428260475,182.65734428260475,182.65734428260475,182.65734428260475,182.65734428260475,182.65734428260475,s,1,0.5435014017857611,183.21769216516986,184.24827420082875,,,,,,,,,,,,,,,,,,,,,,,,,,,,,,,,,,,,,,,154754,2023-05-16_14h18.50.083,eb_02psyexp,2022.2.4,99.91308393454328,
49,0,49,0,,,,,,,,,,,,,,,,,,,,,,,,,,,,,,,,,,,,,,,,,,,,,,,,,,,,,,,,,,,184.24827420082875,184.24827420082875,184.24827420082875,184.24827420082875,184.24827420082875,184.24827420082875,s,1,0.6006442933576182,184.86865302850492,185.88924972782843,,,,,,,,,,,,,,,,,,,,,,,,,,,,,,,,,,,,,,,154754,2023-05-16_14h18.50.083,eb_02psyexp,2022.2.4,99.91308393454328,
50,0,50,0,,,,,,,,,,,,,,,,,,,,,,,,,,,,,,,,,,,,,,,,,,,,,,,,,,,,,,,,,,,185.88924972782843,185.88924972782843,185.88924972782843,185.88924972782843,185.88924972782843,185.88924972782843,l,1,0.591635124059394,186.49964442651253,187.52023025951348,,,,,,,,,,,,,,,,,,,,,,,,,,,,,,,,,,,,,,,154754,2023-05-16_14h18.50.083,eb_02psyexp,2022.2.4,99.91308393454328,
51,0,51,0,,,,,,,,,,,,,,,,,,,,,,,,,,,,,,,,,,,,,,,,,,,,,,,,,,,,,,,,,,,187.52023025951348,187.52023025951348,187.52023025951348,187.52023025951348,187.52023025951348,187.52023025951348,l,1,0.5526433830382302,188.09059034253005,189.11117919394746,,,,,,,,,,,,,,,,,,,,,,,,,,,,,,,,,,,,,,,154754,2023-05-16_14h18.50.083,eb_02psyexp,2022.2.4,99.91308393454328,
52,0,52,0,,,,,,,,,,,,,,,,,,,,,,,,,,,,,,,,,,,,,,,,,,,,,,,,,,,,,,,,,,,189.11117919394746,189.11117919394746,189.11117919394746,189.11117919394746,189.11117919394746,189.11117919394746,l,1,0.5137271033599973,189.64149168203585,190.67212322039995,,,,,,,,,,,,,,,,,,,,,,,,,,,,,,,,,,,,,,,154754,2023-05-16_14h18.50.083,eb_02psyexp,2022.2.4,99.91308393454328,
53,0,53,0,,,,,,,,,,,,,,,,,,,,,,,,,,,,,,,,,,,,,,,,,,,,,,,,,,,,,,,,,,,190.67212322039995,190.67212322039995,190.67212322039995,190.67212322039995,190.67212322039995,190.67212322039995,s,1,0.5047460055211559,191.19243377062958,192.22303663368803,,,,,,,,,,,,,,,,,,,,,,,,,,,,,,,,,,,,,,,154754,2023-05-16_14h18.50.083,eb_02psyexp,2022.2.4,99.91308393454328,
54,0,54,0,,,,,,,,,,,,,,,,,,,,,,,,,,,,,,,,,,,,,,,,,,,,,,,,,,,,,,,,,,,192.22303663368803,192.22303663368803,192.22303663368803,192.22303663368803,192.22303663368803,192.22303663368803,s,1,0.5378725951304659,192.77335843071342,193.79404296702705,,,,,,,,,,,,,,,,,,,,,,,,,,,,,,,,,,,,,,,154754,2023-05-16_14h18.50.083,eb_02psyexp,2022.2.4,99.91308393454328,
55,0,55,0,,,,,,,,,,,,,,,,,,,,,,,,,,,,,,,,,,,,,,,,,,,,,,,,,,,,,,,,,,,193.79404296702705,193.79404296702705,193.79404296702705,193.79404296702705,193.79404296702705,193.79404296702705,l,1,0.7828660421073437,194.5944446020294,195.61508537083864,,,,,,,,,,,,,,,,,,,,,,,,,,,,,,,,,,,,,,,154754,2023-05-16_14h18.50.083,eb_02psyexp,2022.2.4,99.91308393454328,
56,0,56,0,,,,,,,,,,,,,,,,,,,,,,,,,,,,,,,,,,,,,,,,,,,,,,,,,,,,,,,,,,,195.61508537083864,195.61508537083864,195.61508537083864,195.61508537083864,195.61508537083864,195.61508537083864,l,1,0.6168618246447295,196.2454404794844,197.276026137406,,,,,,,,,,,,,,,,,,,,,,,,,,,,,,,,,,,,,,,154754,2023-05-16_14h18.50.083,eb_02psyexp,2022.2.4,99.91308393454328,
57,0,57,0,,,,,,,,,,,,,,,,,,,,,,,,,,,,,,,,,,,,,,,,,,,,,,,,,,,,,,,,,,,197.276026137406,197.276026137406,197.276026137406,197.276026137406,197.276026137406,197.276026137406,l,1,0.5159553235862404,197.8063500955468,198.82700867322274,,,,,,,,,,,,,,,,,,,,,,,,,,,,,,,,,,,,,,,154754,2023-05-16_14h18.50.083,eb_02psyexp,2022.2.4,99.91308393454328,
58,0,58,0,,,,,,,,,,,,,,,,,,,,,,,,,,,,,,,,,,,,,,,,,,,,,,,,,,,,,,,,,,,198.82700867322274,198.82700867322274,198.82700867322274,198.82700867322274,198.82700867322274,198.82700867322274,s,1,0.5969518228666857,199.43732640135568,,,,,,,,,,,,,,,,,,,,,,,,,,,,,,,,,,,,,,,,154754,2023-05-16_14h18.50.083,eb_02psyexp,2022.2.4,99.91308393454328,
59,0,59,0,,,,,,,,,,,,,,,,,,,,,,,,,,,,,,,,,,,,,,,,,,,,,,,,,,,,,,,,,,,200.45826660038438,200.45826660038438,200.45826660038438,200.45826660038438,200.45826660038438,200.45826660038438,l,1,0.5016907298704609,200.97855511598755,202.00883862702176,,,,,,,,,,,,,,,,,,,,,,,,,,,,,,,,,,,,,,,154754,2023-05-16_14h18.50.083,eb_02psyexp,2022.2.4,99.91308393454328,
60,0,60,0,,,,,,,,,,,,,,,,,,,,,,,,,,,,,,,,,,,,,,,,,,,,,,,,,,,,,,,,,,,202.00883862702176,202.00883862702176,202.00883862702176,202.00883862702176,202.00883862702176,202.00883862702176,l,1,0.6871135452529415,202.70926404744387,203.7298622559756,,,,,,,,,,,,,,,,,,,,,,,,,,,,,,,,,,,,,,,154754,2023-05-16_14h18.50.083,eb_02psyexp,2022.2.4,99.91308393454328,
61,0,61,0,,,,,,,,,,,,,,,,,,,,,,,,,,,,,,,,,,,,,,,,,,,,,,,,,,,,,,,,,,,203.7298622559756,203.7298622559756,203.7298622559756,203.7298622559756,203.7298622559756,203.7298622559756,l,1,0.5101097922306508,204.25020087789744,205.27084225032013,,,,,,,,,,,,,,,,,,,,,,,,,,,,,,,,,,,,,,,154754,2023-05-16_14h18.50.083,eb_02psyexp,2022.2.4,99.91308393454328,
62,0,62,0,,,,,,,,,,,,,,,,,,,,,,,,,,,,,,,,,,,,,,,,,,,,,,,,,,,,,,,,,,,205.27084225032013,205.27084225032013,205.27084225032013,205.27084225032013,205.27084225032013,205.27084225032013,l,1,0.5211875059176236,205.81111954932567,206.8417323733447,,,,,,,,,,,,,,,,,,,,,,,,,,,,,,,,,,,,,,,154754,2023-05-16_14h18.50.083,eb_02psyexp,2022.2.4,99.91308393454328,
63,0,63,0,,,,,,,,,,,,,,,,,,,,,,,,,,,,,,,,,,,,,,,,,,,,,,,,,,,,,,,,,,,206.8417323733447,206.8417323733447,206.8417323733447,206.8417323733447,206.8417323733447,206.8417323733447,s,1,0.8862561243586242,207.74225541041233,208.77287668606732,,,,,,,,,,,,,,,,,,,,,,,,,,,,,,,,,,,,,,,154754,2023-05-16_14h18.50.083,eb_02psyexp,2022.2.4,99.91308393454328,
64,0,64,0,,,,,,,,,,,,,,,,,,,,,,,,,,,,,,,,,,,,,,,,,,,,,,,,,,,,,,,,,,,208.77287668606732,208.77287668606732,208.77287668606732,208.77287668606732,208.77287668606732,208.77287668606732,s,1,0.5791339090792462,209.36322313779965,,,,,,,,,,,,,,,,,,,,,,,,,,,,,,,,,,,,,,,,154754,2023-05-16_14h18.50.083,eb_02psyexp,2022.2.4,99.91308393454328,
65,0,65,0,,,,,,,,,,,,,,,,,,,,,,,,,,,,,,,,,,,,,,,,,,,,,,,,,,,,,,,,,,,210.39416587830056,210.39416587830056,210.39416587830056,210.39416587830056,210.39416587830056,210.39416587830056,s,1,0.5648593544028699,210.97449831839185,211.99478683399502,,,,,,,,,,,,,,,,,,,,,,,,,,,,,,,,,,,,,,,154754,2023-05-16_14h18.50.083,eb_02psyexp,2022.2.4,99.91308393454328,
66,0,66,0,,,,,,,,,,,,,,,,,,,,,,,,,,,,,,,,,,,,,,,,,,,,,,,,,,,,,,,,,,,211.99478683399502,211.99478683399502,211.99478683399502,211.99478683399502,211.99478683399502,211.99478683399502,l,1,0.5962279983796179,212.6051531592384,213.63577232183889,,,,,,,,,,,,,,,,,,,,,,,,,,,,,,,,,,,,,,,154754,2023-05-16_14h18.50.083,eb_02psyexp,2022.2.4,99.91308393454328,
67,0,67,0,,,,,,,,,,,,,,,,,,,,,,,,,,,,,,,,,,,,,,,,,,,,,,,,,,,,,,,,,,,213.63577232183889,213.63577232183889,213.63577232183889,213.63577232183889,213.63577232183889,213.63577232183889,s,1,0.5472400545841083,214.19611960067414,215.21675916202366,,,,,,,,,,,,,,,,,,,,,,,,,,,,,,,,,,,,,,,154754,2023-05-16_14h18.50.083,eb_02psyexp,2022.2.4,99.91308393454328,
68,0,68,0,,,,,,,,,,,,,,,,,,,,,,,,,,,,,,,,,,,,,,,,,,,,,,,,,,,,,,,,,,,215.21675916202366,215.21675916202366,215.21675916202366,215.21675916202366,215.21675916202366,215.21675916202366,l,1,0.5262778208125383,215.75703827210236,216.7876465683803,,,,,,,,,,,,,,,,,,,,,,,,,,,,,,,,,,,,,,,154754,2023-05-16_14h18.50.083,eb_02psyexp,2022.2.4,99.91308393454328,
69,0,69,0,,,,,,,,,,,,,,,,,,,,,,,,,,,,,,,,,,,,,,,,,,,,,,,,,,,,,,,,,,,216.7876465683803,216.7876465683803,216.7876465683803,216.7876465683803,216.7876465683803,216.7876465683803,s,1,0.5233939931495115,217.32796733314171,,,,,,,,,,,,,,,,,,,,,,,,,,,,,,,,,,,,,,,,154754,2023-05-16_14h18.50.083,eb_02psyexp,2022.2.4,99.91308393454328,
70,0,70,0,,,,,,,,,,,,,,,,,,,,,,,,,,,,,,,,,,,,,,,,,,,,,,,,,,,,,,,,,,,218.35890675336123,218.35890675336123,218.35890675336123,218.35890675336123,218.35890675336123,218.35890675336123,s,1,0.5041568039450794,218.87921187048778,219.9095168124186,,,,,,,,,,,,,,,,,,,,,,,,,,,,,,,,,,,,,,,154754,2023-05-16_14h18.50.083,eb_02psyexp,2022.2.4,99.91308393454328,
71,0,71,0,,,,,,,,,,,,,,,,,,,,,,,,,,,,,,,,,,,,,,,,,,,,,,,,,,,,,,,,,,,219.9095168124186,219.9095168124186,219.9095168124186,219.9095168124186,219.9095168124186,219.9095168124186,s,1,0.4735403578961268,220.39980464591645,221.4307443680009,,,,,,,,,,,,,,,,,,,,,,,,,,,,,,,,,,,,,,,154754,2023-05-16_14h18.50.083,eb_02psyexp,2022.2.4,99.91308393454328,
72,0,72,0,,,,,,,,,,,,,,,,,,,,,,,,,,,,,,,,,,,,,,,,,,,,,,,,,,,,,,,,,,,221.4307443680009,221.4307443680009,221.4307443680009,221.4307443680009,221.4307443680009,221.4307443680009,s,1,0.4883304638788104,221.9310531555675,222.96128867310472,,,,,,,,,,,,,,,,,,,,,,,,,,,,,,,,,,,,,,,154754,2023-05-16_14h18.50.083,eb_02psyexp,2022.2.4,99.91308393454328,
73,0,73,0,,,,,,,,,,,,,,,,,,,,,,,,,,,,,,,,,,,,,,,,,,,,,,,,,,,,,,,,,,,222.96128867310472,222.96128867310472,222.96128867310472,222.96128867310472,222.96128867310472,222.96128867310472,l,1,0.46979476255364716,223.44160445139278,,,,,,,,,,,,,,,,,,,,,,,,,,,,,,,,,,,,,,,,154754,2023-05-16_14h18.50.083,eb_02psyexp,2022.2.4,99.91308393454328,
74,0,74,0,,,,,,,,,,,,,,,,,,,,,,,,,,,,,,,,,,,,,,,,,,,,,,,,,,,,,,,,,,,224.46222469466738,224.46222469466738,224.46222469466738,224.46222469466738,224.46222469466738,224.46222469466738,l,1,0.5368680547690019,225.0128275094321,226.03313715418335,,,,,,,,,,,,,,,,,,,,,,,,,,,,,,,,,,,,,,,154754,2023-05-16_14h18.50.083,eb_02psyexp,2022.2.4,99.91308393454328,
75,0,75,0,,,,,,,,,,,,,,,,,,,,,,,,,,,,,,,,,,,,,,,,,,,,,,,,,,,,,,,,,,,226.03313715418335,226.03313715418335,226.03313715418335,226.03313715418335,226.03313715418335,226.03313715418335,l,1,0.6049612814094871,226.6535325832665,227.68412729655392,,,,,,,,,,,,,,,,,,,,,,,,,,,,,,,,,,,,,,,154754,2023-05-16_14h18.50.083,eb_02psyexp,2022.2.4,99.91308393454328,
76,0,76,0,,,,,,,,,,,,,,,,,,,,,,,,,,,,,,,,,,,,,,,,,,,,,,,,,,,,,,,,,,,227.68412729655392,227.68412729655392,227.68412729655392,227.68412729655392,227.68412729655392,227.68412729655392,s,1,0.505975722335279,228.20445052429568,229.23505067068618,,,,,,,,,,,,,,,,,,,,,,,,,,,,,,,,,,,,,,,154754,2023-05-16_14h18.50.083,eb_02psyexp,2022.2.4,99.91308393454328,
77,0,77,0,,,,,,,,,,,,,,,,,,,,,,,,,,,,,,,,,,,,,,,,,,,,,,,,,,,,,,,,,,,229.23505067068618,229.23505067068618,229.23505067068618,229.23505067068618,229.23505067068618,229.23505067068618,s,1,0.6270871278829873,229.87544665520545,230.89604214718565,,,,,,,,,,,,,,,,,,,,,,,,,,,,,,,,,,,,,,,154754,2023-05-16_14h18.50.083,eb_02psyexp,2022.2.4,99.91308393454328,
78,0,78,0,,,,,,,,,,,,,,,,,,,,,,,,,,,,,,,,,,,,,,,,,,,,,,,,,,,,,,,,,,,230.89604214718565,230.89604214718565,230.89604214718565,230.89604214718565,230.89604214718565,230.89604214718565,l,1,0.49408785649575293,231.40634170430712,,,,,,,,,,,,,,,,,,,,,,,,,,,,,,,,,,,,,,,,154754,2023-05-16_14h18.50.083,eb_02psyexp,2022.2.4,99.91308393454328,
79,0,79,0,,,,,,,,,,,,,,,,,,,,,,,,,,,,,,,,,,,,,,,,,,,,,,,,,,,,,,,,,,,232.42692150035873,232.42692150035873,232.42692150035873,232.42692150035873,232.42692150035873,232.42692150035873,l,1,0.3952040191506967,232.83749145024922,233.86783502844628,,,,,,,,,,,,,,,,,,,,,,,,,,,,,,,,,,,,,,,154754,2023-05-16_14h18.50.083,eb_02psyexp,2022.2.4,99.91308393454328,
80,0,80,0,,,,,,,,,,,,,,,,,,,,,,,,,,,,,,,,,,,,,,,,,,,,,,,,,,,,,,,,,,,233.86783502844628,233.86783502844628,233.86783502844628,233.86783502844628,233.86783502844628,233.86783502844628,s,1,0.46630482992623,234.34807232685853,,,,,,,,,,,,,,,,,,,,,,,,,,,,,,,,,,,,,,,,154754,2023-05-16_14h18.50.083,eb_02psyexp,2022.2.4,99.91308393454328,
81,0,81,0,,,,,,,,,,,,,,,,,,,,,,,,,,,,,,,,,,,,,,,,,,,,,,,,,,,,,,,,,,,235.3789930328494,235.3789930328494,235.3789930328494,235.3789930328494,235.3789930328494,235.3789930328494,s,1,0.4431922520743683,235.8392988984706,236.86960414226633,,,,,,,,,,,,,,,,,,,,,,,,,,,,,,,,,,,,,,,154754,2023-05-16_14h18.50.083,eb_02psyexp,2022.2.4,99.91308393454328,
82,0,82,0,,,,,,,,,,,,,,,,,,,,,,,,,,,,,,,,,,,,,,,,,,,,,,,,,,,,,,,,,,,236.86960414226633,236.86960414226633,236.86960414226633,236.86960414226633,236.86960414226633,236.86960414226633,s,1,0.5285664101829752,237.40991132392082,,,,,,,,,,,,,,,,,,,,,,,,,,,,,,,,,,,,,,,,154754,2023-05-16_14h18.50.083,eb_02psyexp,2022.2.4,99.91308393454328,
83,0,83,0,,,,,,,,,,,,,,,,,,,,,,,,,,,,,,,,,,,,,,,,,,,,,,,,,,,,,,,,,,,238.44083504832815,238.44083504832815,238.44083504832815,238.44083504832815,238.44083504832815,238.44083504832815,s,1,0.49332660320214927,238.95114728284534,239.98146097839344,,,,,,,,,,,,,,,,,,,,,,,,,,,,,,,,,,,,,,,154754,2023-05-16_14h18.50.083,eb_02psyexp,2022.2.4,99.91308393454328,
84,0,84,0,,,,,,,,,,,,,,,,,,,,,,,,,,,,,,,,,,,,,,,,,,,,,,,,,,,,,,,,,,,239.98146097839344,239.98146097839344,239.98146097839344,239.98146097839344,239.98146097839344,239.98146097839344,s,1,0.5678129082079977,240.56178345752414,241.5823750256095,,,,,,,,,,,,,,,,,,,,,,,,,,,,,,,,,,,,,,,154754,2023-05-16_14h18.50.083,eb_02psyexp,2022.2.4,99.91308393454328,
85,0,85,0,,,,,,,,,,,,,,,,,,,,,,,,,,,,,,,,,,,,,,,,,,,,,,,,,,,,,,,,,,,241.5823750256095,241.5823750256095,241.5823750256095,241.5823750256095,241.5823750256095,241.5823750256095,l,1,0.5348121880088001,242.13271885726135,243.16334043478128,,,,,,,,,,,,,,,,,,,,,,,,,,,,,,,,,,,,,,,154754,2023-05-16_14h18.50.083,eb_02psyexp,2022.2.4,99.91308393454328,
86,0,86,0,,,,,,,,,,,,,,,,,,,,,,,,,,,,,,,,,,,,,,,,,,,,,,,,,,,,,,,,,,,243.16334043478128,243.16334043478128,243.16334043478128,243.16334043478128,243.16334043478128,243.16334043478128,s,1,0.4658580992836505,243.64361636945978,244.67422617494594,,,,,,,,,,,,,,,,,,,,,,,,,,,,,,,,,,,,,,,154754,2023-05-16_14h18.50.083,eb_02psyexp,2022.2.4,99.91308393454328,
87,0,87,0,,,,,,,,,,,,,,,,,,,,,,,,,,,,,,,,,,,,,,,,,,,,,,,,,,,,,,,,,,,244.67422617494594,244.67422617494594,244.67422617494594,244.67422617494594,244.67422617494594,244.67422617494594,s,1,0.46697402046993375,245.15450814645737,246.1851734914817,,,,,,,,,,,,,,,,,,,,,,,,,,,,,,,,,,,,,,,154754,2023-05-16_14h18.50.083,eb_02psyexp,2022.2.4,99.91308393454328,
88,0,88,0,,,,,,,,,,,,,,,,,,,,,,,,,,,,,,,,,,,,,,,,,,,,,,,,,,,,,,,,,,,246.1851734914817,246.1851734914817,246.1851734914817,246.1851734914817,246.1851734914817,246.1851734914817,s,1,0.4039783531334251,246.60537018580362,247.62600974715315,,,,,,,,,,,,,,,,,,,,,,,,,,,,,,,,,,,,,,,154754,2023-05-16_14h18.50.083,eb_02psyexp,2022.2.4,99.91308393454328,
89,0,89,0,,,,,,,,,,,,,,,,,,,,,,,,,,,,,,,,,,,,,,,,,,,,,,,,,,,,,,,,,,,247.62600974715315,247.62600974715315,247.62600974715315,247.62600974715315,247.62600974715315,247.62600974715315,l,1,0.5392127871746197,248.17633305338677,249.2069277666742,,,,,,,,,,,,,,,,,,,,,,,,,,,,,,,,,,,,,,,154754,2023-05-16_14h18.50.083,eb_02psyexp,2022.2.4,99.91308393454328,
90,0,90,0,,,,,,,,,,,,,,,,,,,,,,,,,,,,,,,,,,,,,,,,,,,,,,,,,,,,,,,,,,,249.2069277666742,249.2069277666742,249.2069277666742,249.2069277666742,249.2069277666742,249.2069277666742,s,1,0.6143070081016049,249.83730853209272,250.8679150172975,,,,,,,,,,,,,,,,,,,,,,,,,,,,,,,,,,,,,,,154754,2023-05-16_14h18.50.083,eb_02psyexp,2022.2.4,99.91308393454328,
91,0,91,0,,,,,,,,,,,,,,,,,,,,,,,,,,,,,,,,,,,,,,,,,,,,,,,,,,,,,,,,,,,250.8679150172975,250.8679150172975,250.8679150172975,250.8679150172975,250.8679150172975,250.8679150172975,s,1,0.5133271587546915,251.39823535340838,252.4291678313166,,,,,,,,,,,,,,,,,,,,,,,,,,,,,,,,,,,,,,,154754,2023-05-16_14h18.50.083,eb_02psyexp,2022.2.4,99.91308393454328,
92,0,92,0,,,,,,,,,,,,,,,,,,,,,,,,,,,,,,,,,,,,,,,,,,,,,,,,,,,,,,,,,,,252.4291678313166,252.4291678313166,252.4291678313166,252.4291678313166,252.4291678313166,252.4291678313166,s,1,0.49608033581171185,252.93946738832165,253.9597882013768,,,,,,,,,,,,,,,,,,,,,,,,,,,,,,,,,,,,,,,154754,2023-05-16_14h18.50.083,eb_02psyexp,2022.2.4,99.91308393454328,
93,0,93,0,,,,,,,,,,,,,,,,,,,,,,,,,,,,,,,,,,,,,,,,,,,,,,,,,,,,,,,,,,,253.9597882013768,253.9597882013768,253.9597882013768,253.9597882013768,253.9597882013768,253.9597882013768,l,1,0.4534607190871611,254.43004861520603,255.4609696229454,,,,,,,,,,,,,,,,,,,,,,,,,,,,,,,,,,,,,,,154754,2023-05-16_14h18.50.083,eb_02psyexp,2022.2.4,99.91308393454328,
94,0,94,0,,,,,,,,,,,,,,,,,,,,,,,,,,,,,,,,,,,,,,,,,,,,,,,,,,,,,,,,,,,255.4609696229454,255.4609696229454,255.4609696229454,255.4609696229454,255.4609696229454,255.4609696229454,s,1,0.39229755313135684,255.87122927606106,256.8915141695179,,,,,,,,,,,,,,,,,,,,,,,,,,,,,,,,,,,,,,,154754,2023-05-16_14h18.50.083,eb_02psyexp,2022.2.4,99.91308393454328,
95,0,95,0,,,,,,,,,,,,,,,,,,,,,,,,,,,,,,,,,,,,,,,,,,,,,,,,,,,,,,,,,,,256.8915141695179,256.8915141695179,256.8915141695179,256.8915141695179,256.8915141695179,256.8915141695179,l,1,0.4817475250456482,257.391793678049,258.4123970180517,,,,,,,,,,,,,,,,,,,,,,,,,,,,,,,,,,,,,,,154754,2023-05-16_14h18.50.083,eb_02psyexp,2022.2.4,99.91308393454328,
96,0,96,0,,,,,,,,,,,,,,,,,,,,,,,,,,,,,,,,,,,,,,,,,,,,,,,,,,,,,,,,,,,258.4123970180517,258.4123970180517,258.4123970180517,258.4123970180517,258.4123970180517,258.4123970180517,l,1,0.5038579773390666,258.93301303545013,259.96332944754977,,,,,,,,,,,,,,,,,,,,,,,,,,,,,,,,,,,,,,,154754,2023-05-16_14h18.50.083,eb_02psyexp,2022.2.4,99.91308393454328,
97,0,97,0,,,,,,,,,,,,,,,,,,,,,,,,,,,,,,,,,,,,,,,,,,,,,,,,,,,,,,,,,,,259.96332944754977,259.96332944754977,259.96332944754977,259.96332944754977,259.96332944754977,259.96332944754977,s,1,0.472952967393212,260.45361637545284,261.48455338098574,,,,,,,,,,,,,,,,,,,,,,,,,,,,,,,,,,,,,,,154754,2023-05-16_14h18.50.083,eb_02psyexp,2022.2.4,99.91308393454328,
98,0,98,0,,,,,,,,,,,,,,,,,,,,,,,,,,,,,,,,,,,,,,,,,,,,,,,,,,,,,,,,,,,261.48455338098574,261.48455338098574,261.48455338098574,261.48455338098574,261.48455338098574,261.48455338098574,s,1,0.5357382487272844,262.0348784982925,263.05516520282254,,,,,,,,,,,,,,,,,,,,,,,,,,,,,,,,,,,,,,,154754,2023-05-16_14h18.50.083,eb_02psyexp,2022.2.4,99.91308393454328,
99,0,99,0,,,,,,,,,,,,,,,,,,,,,,,,,,,,,,,,,,,,,,,,,,,,,,,,,,,,,,,,,,,263.05516520282254,263.05516520282254,263.05516520282254,263.05516520282254,263.05516520282254,263.05516520282254,l,1,0.5251347336452454,263.59546906419564,264.62606800324284,,,,,,,,,,,,,,,,,,,,,,,,,,,,,,,,,,,,,,,154754,2023-05-16_14h18.50.083,eb_02psyexp,2022.2.4,99.91308393454328,
100,0,100,0,,,,,,,,,,,,,,,,,,,,,,,,,,,,,,,,,,,,,,,,,,,,,,,,,,,,,,,,,,,264.62606800324284,264.62606800324284,264.62606800324284,264.62606800324284,264.62606800324284,264.62606800324284,s,1,0.5062458736356348,265.1464247357799,266.17701975093223,,,,,,,,,,,,,,,,,,,,,,,,,,,,,,,,,,,,,,,154754,2023-05-16_14h18.50.083,eb_02psyexp,2022.2.4,99.91308393454328,
101,0,101,0,,,,,,,,,,,,,,,,,,,,,,,,,,,,,,,,,,,,,,,,,,,,,,,,,,,,,,,,,,,266.17701975093223,266.17701975093223,266.17701975093223,266.17701975093223,266.17701975093223,266.17701975093223,s,1,0.4352962871780619,266.62729560711887,267.6478781198384,,,,,,,,,,,,,,,,,,,,,,,,,,,,,,,,,,,,,,,154754,2023-05-16_14h18.50.083,eb_02psyexp,2022.2.4,99.91308393454328,
102,0,102,0,,,,,,,,,,,,,,,,,,,,,,,,,,,,,,,,,,,,,,,,,,,,,,,,,,,,,,,,,,,267.6478781198384,267.6478781198384,267.6478781198384,267.6478781198384,267.6478781198384,267.6478781198384,l,1,0.4605136306490749,268.12819842563476,269.1487595073413,,,,,,,,,,,,,,,,,,,,,,,,,,,,,,,,,,,,,,,154754,2023-05-16_14h18.50.083,eb_02psyexp,2022.2.4,99.91308393454328,
103,0,103,0,,,,,,,,,,,,,,,,,,,,,,,,,,,,,,,,,,,,,,,,,,,,,,,,,,,,,,,,,,,269.1487595073413,269.1487595073413,269.1487595073413,269.1487595073413,269.1487595073413,269.1487595073413,l,1,0.5275763582903892,269.68910532526206,270.7097171169007,,,,,,,,,,,,,,,,,,,,,,,,,,,,,,,,,,,,,,,154754,2023-05-16_14h18.50.083,eb_02psyexp,2022.2.4,99.91308393454328,
104,0,104,0,,,,,,,,,,,,,,,,,,,,,,,,,,,,,,,,,,,,,,,,,,,,,,,,,,,,,,,,,,,270.7097171169007,270.7097171169007,270.7097171169007,270.7097171169007,270.7097171169007,270.7097171169007,l,1,0.43863529711961746,271.15998271026183,272.19059764721896,,,,,,,,,,,,,,,,,,,,,,,,,,,,,,,,,,,,,,,154754,2023-05-16_14h18.50.083,eb_02psyexp,2022.2.4,99.91308393454328,
105,0,105,0,,,,,,,,,,,,,,,,,,,,,,,,,,,,,,,,,,,,,,,,,,,,,,,,,,,,,,,,,,,272.19059764721896,272.19059764721896,272.19059764721896,272.19059764721896,272.19059764721896,272.19059764721896,s,1,0.46976759657263756,272.6708805243252,273.70152202353347,,,,,,,,,,,,,,,,,,,,,,,,,,,,,,,,,,,,,,,154754,2023-05-16_14h18.50.083,eb_02psyexp,2022.2.4,99.91308393454328,
106,0,106,0,,,,,,,,,,,,,,,,,,,,,,,,,,,,,,,,,,,,,,,,,,,,,,,,,,,,,,,,,,,273.70152202353347,273.70152202353347,273.70152202353347,273.70152202353347,273.70152202353347,273.70152202353347,s,1,0.4298642835346982,274.14175458904356,275.172351717134,,,,,,,,,,,,,,,,,,,,,,,,,,,,,,,,,,,,,,,154754,2023-05-16_14h18.50.083,eb_02psyexp,2022.2.4,99.91308393454328,
107,0,107,0,,,,,,,,,,,,,,,,,,,,,,,,,,,,,,,,,,,,,,,,,,,,,,,,,,,,,,,,,,,275.172351717134,275.172351717134,275.172351717134,275.172351717134,275.172351717134,275.172351717134,s,1,0.5110283066751435,275.7026844288921,276.7332957435865,,,,,,,,,,,,,,,,,,,,,,,,,,,,,,,,,,,,,,,154754,2023-05-16_14h18.50.083,eb_02psyexp,2022.2.4,99.91308393454328,
108,0,108,0,,,,,,,,,,,,,,,,,,,,,,,,,,,,,,,,,,,,,,,,,,,,,,,,,,,,,,,,,,,276.7332957435865,276.7332957435865,276.7332957435865,276.7332957435865,276.7332957435865,276.7332957435865,s,1,0.5501211656956002,277.29362762824167,278.3245558802737,,,,,,,,,,,,,,,,,,,,,,,,,,,,,,,,,,,,,,,154754,2023-05-16_14h18.50.083,eb_02psyexp,2022.2.4,99.91308393454328,
109,0,109,0,,,,,,,,,,,,,,,,,,,,,,,,,,,,,,,,,,,,,,,,,,,,,,,,,,,,,,,,,,,278.3245558802737,278.3245558802737,278.3245558802737,278.3245558802737,278.3245558802737,278.3245558802737,l,1,0.5108816099818796,278.85482641193084,279.8851711974712,,,,,,,,,,,,,,,,,,,,,,,,,,,,,,,,,,,,,,,154754,2023-05-16_14h18.50.083,eb_02psyexp,2022.2.4,99.91308393454328,
110,0,110,0,,,,,,,,,,,,,,,,,,,,,,,,,,,,,,,,,,,,,,,,,,,,,,,,,,,,,,,,,,,279.8851711974712,279.8851711974712,279.8851711974712,279.8851711974712,279.8851711974712,279.8851711974712,s,1,0.47026050940621644,280.3654773166636,281.38638431276195,,,,,,,,,,,,,,,,,,,,,,,,,,,,,,,,,,,,,,,154754,2023-05-16_14h18.50.083,eb_02psyexp,2022.2.4,99.91308393454328,
111,0,111,0,,,,,,,,,,,,,,,,,,,,,,,,,,,,,,,,,,,,,,,,,,,,,,,,,,,,,,,,,,,281.38638431276195,281.38638431276195,281.38638431276195,281.38638431276195,281.38638431276195,281.38638431276195,l,1,0.5129942236235365,281.9166904621525,282.9469754822785,,,,,,,,,,,,,,,,,,,,,,,,,,,,,,,,,,,,,,,154754,2023-05-16_14h18.50.083,eb_02psyexp,2022.2.4,99.91308393454328,
112,0,112,0,,,,,,,,,,,,,,,,,,,,,,,,,,,,,,,,,,,,,,,,,,,,,,,,,,,,,,,,,,,282.9469754822785,282.9469754822785,282.9469754822785,282.9469754822785,282.9469754822785,282.9469754822785,s,1,0.46445059578400105,283.42729578819126,,,,,,,,,,,,,,,,,,,,,,,,,,,,,,,,,,,,,,,,154754,2023-05-16_14h18.50.083,eb_02psyexp,2022.2.4,99.91308393454328,
113,0,113,0,,,,,,,,,,,,,,,,,,,,,,,,,,,,,,,,,,,,,,,,,,,,,,,,,,,,,,,,,,,284.4581992889289,284.4581992889289,284.4581992889289,284.4581992889289,284.4581992889289,284.4581992889289,s,1,0.41722120135091245,284.8884676473681,285.91872942552436,,,,,,,,,,,,,,,,,,,,,,,,,,,,,,,,,,,,,,,154754,2023-05-16_14h18.50.083,eb_02psyexp,2022.2.4,99.91308393454328,
114,0,114,0,,,,,,,,,,,,,,,,,,,,,,,,,,,,,,,,,,,,,,,,,,,,,,,,,,,,,,,,,,,285.91872942552436,285.91872942552436,285.91872942552436,285.91872942552436,285.91872942552436,285.91872942552436,s,1,0.508709533023648,286.43906533077825,287.46997667942196,,,,,,,,,,,,,,,,,,,,,,,,,,,,,,,,,,,,,,,154754,2023-05-16_14h18.50.083,eb_02psyexp,2022.2.4,99.91308393454328,
115,0,115,0,,,,,,,,,,,,,,,,,,,,,,,,,,,,,,,,,,,,,,,,,,,,,,,,,,,,,,,,,,,287.46997667942196,287.46997667942196,287.46997667942196,287.46997667942196,287.46997667942196,287.46997667942196,s,1,0.47747671930119395,287.9602865475463,288.980577779701,,,,,,,,,,,,,,,,,,,,,,,,,,,,,,,,,,,,,,,154754,2023-05-16_14h18.50.083,eb_02psyexp,2022.2.4,99.91308393454328,
116,0,116,0,,,,,,,,,,,,,,,,,,,,,,,,,,,,,,,,,,,,,,,,,,,,,,,,,,,,,,,,,,,288.980577779701,288.980577779701,288.980577779701,288.980577779701,288.980577779701,288.980577779701,l,1,0.47785251634195447,289.47086561319884,290.50178813014645,,,,,,,,,,,,,,,,,,,,,,,,,,,,,,,,,,,,,,,154754,2023-05-16_14h18.50.083,eb_02psyexp,2022.2.4,99.91308393454328,
117,0,117,0,,,,,,,,,,,,,,,,,,,,,,,,,,,,,,,,,,,,,,,,,,,,,,,,,,,,,,,,,,,290.50178813014645,290.50178813014645,290.50178813014645,290.50178813014645,290.50178813014645,290.50178813014645,s,1,0.39666253444738686,290.91204476484563,291.9423807968851,,,,,,,,,,,,,,,,,,,,,,,,,,,,,,,,,,,,,,,154754,2023-05-16_14h18.50.083,eb_02psyexp,2022.2.4,99.91308393454328,
118,0,118,0,,,,,,,,,,,,,,,,,,,,,,,,,,,,,,,,,,,,,,,,,,,,,,,,,,,,,,,,,,,291.9423807968851,291.9423807968851,291.9423807968851,291.9423807968851,291.9423807968851,291.9423807968851,s,1,0.3960516001097858,292.35261358576827,293.373206059332,,,,,,,,,,,,,,,,,,,,,,,,,,,,,,,,,,,,,,,154754,2023-05-16_14h18.50.083,eb_02psyexp,2022.2.4,99.91308393454328,
119,0,119,0,,,,,,,,,,,,,,,,,,,,,,,,,,,,,,,,,,,,,,,,,,,,,,,,,,,,,,,,,,,293.373206059332,293.373206059332,293.373206059332,293.373206059332,293.373206059332,293.373206059332,l,1,0.4772796145407483,293.86380056734197,294.88408697000705,,,,,,,,,,,,,,,,,,,,,,,,,,,,,,,,,,,,,,,154754,2023-05-16_14h18.50.083,eb_02psyexp,2022.2.4,99.91308393454328,
120,0,120,0,,,,,,,,,,,,,,,,,,,,,,,,,,,,,,,,,,,,,,,,,,,,,,,,,,,,,,,,,,,294.88408697000705,294.88408697000705,294.88408697000705,294.88408697000705,294.88408697000705,294.88408697000705,l,1,0.38239975180476904,295.28432476357557,296.3152599580353,,,,,,,,,,,,,,,,,,,,,,,,,,,,,,,,,,,,,,,154754,2023-05-16_14h18.50.083,eb_02psyexp,2022.2.4,99.91308393454328,
121,0,121,0,,,,,,,,,,,,,,,,,,,,,,,,,,,,,,,,,,,,,,,,,,,,,,,,,,,,,,,,,,,296.3152599580353,296.3152599580353,296.3152599580353,296.3152599580353,296.3152599580353,296.3152599580353,l,1,0.4392634368268773,296.76552253297996,297.7958144956501,,,,,,,,,,,,,,,,,,,,,,,,,,,,,,,,,,,,,,,154754,2023-05-16_14h18.50.083,eb_02psyexp,2022.2.4,99.91308393454328,
122,0,122,0,,,,,,,,,,,,,,,,,,,,,,,,,,,,,,,,,,,,,,,,,,,,,,,,,,,,,,,,,,,297.7958144956501,297.7958144956501,297.7958144956501,297.7958144956501,297.7958144956501,297.7958144956501,s,1,0.478720924584195,298.2861059511779,,,,,,,,,,,,,,,,,,,,,,,,,,,,,,,,,,,,,,,,154754,2023-05-16_14h18.50.083,eb_02psyexp,2022.2.4,99.91308393454328,
123,0,123,0,,,,,,,,,,,,,,,,,,,,,,,,,,,,,,,,,,,,,,,,,,,,,,,,,,,,,,,,,,,299.3170293737203,299.3170293737203,299.3170293737203,299.3170293737203,299.3170293737203,299.3170293737203,s,1,0.5414862841134891,299.87737121933606,300.90765473025385,,,,,,,,,,,,,,,,,,,,,,,,,,,,,,,,,,,,,,,154754,2023-05-16_14h18.50.083,eb_02psyexp,2022.2.4,99.91308393454328,
124,0,124,0,,,,,,,,,,,,,,,,,,,,,,,,,,,,,,,,,,,,,,,,,,,,,,,,,,,,,,,,,,,300.90765473025385,300.90765473025385,300.90765473025385,300.90765473025385,300.90765473025385,300.90765473025385,s,1,0.4708678217139095,301.3979570522206,,,,,,,,,,,,,,,,,,,,,,,,,,,,,,,,,,,,,,,,154754,2023-05-16_14h18.50.083,eb_02psyexp,2022.2.4,99.91308393454328,
125,0,125,0,,,,,,,,,,,,,,,,,,,,,,,,,,,,,,,,,,,,,,,,,,,,,,,,,,,,,,,,,,,302.42858708137646,302.42858708137646,302.42858708137646,302.42858708137646,302.42858708137646,302.42858708137646,s,1,0.4379368277732283,302.879153916263,303.9094205239089,,,,,,,,,,,,,,,,,,,,,,,,,,,,,,,,,,,,,,,154754,2023-05-16_14h18.50.083,eb_02psyexp,2022.2.4,99.91308393454328,
126,0,126,0,,,,,,,,,,,,,,,,,,,,,,,,,,,,,,,,,,,,,,,,,,,,,,,,,,,,,,,,,,,303.9094205239089,303.9094205239089,303.9094205239089,303.9094205239089,303.9094205239089,303.9094205239089,s,1,0.4761377346003428,304.39973854180425,,,,,,,,,,,,,,,,,,,,,,,,,,,,,,,,,,,,,,,,154754,2023-05-16_14h18.50.083,eb_02psyexp,2022.2.4,99.91308393454328,
127,0,127,0,,,,,,,,,,,,,,,,,,,,,,,,,,,,,,,,,,,,,,,,,,,,,,,,,,,,,,,,,,,305.43032842548564,305.43032842548564,305.43032842548564,305.43032842548564,305.43032842548564,305.43032842548564,s,1,0.4672284758416936,305.91101396398153,306.9412497833837,,,,,,,,,,,,,,,,,,,,,,,,,,,,,,,,,,,,,,,154754,2023-05-16_14h18.50.083,eb_02psyexp,2022.2.4,99.91308393454328,
128,0,128,0,,,,,,,,,,,,,,,,,,,,,,,,,,,,,,,,,,,,,,,,,,,,,,,,,,,,,,,,,,,306.9412497833837,306.9412497833837,306.9412497833837,306.9412497833837,306.9412497833837,306.9412497833837,s,1,0.4763100880663842,307.43155663309153,,,,,,,,,,,,,,,,,,,,,,,,,,,,,,,,,,,,,,,,154754,2023-05-16_14h18.50.083,eb_02psyexp,2022.2.4,99.91308393454328,
129,0,129,0,,,,,,,,,,,,,,,,,,,,,,,,,,,,,,,,,,,,,,,,,,,,,,,,,,,,,,,,,,,308.45215212507173,308.45215212507173,308.45215212507173,308.45215212507173,308.45215212507173,308.45215212507173,l,1,0.517425610916689,308.9827842670493,310.00305497378577,,,,,,,,,,,,,,,,,,,,,,,,,,,,,,,,,,,,,,,154754,2023-05-16_14h18.50.083,eb_02psyexp,2022.2.4,99.91308393454328,
130,0,130,0,,,,,,,,,,,,,,,,,,,,,,,,,,,,,,,,,,,,,,,,,,,,,,,,,,,,,,,,,,,310.00305497378577,310.00305497378577,310.00305497378577,310.00305497378577,310.00305497378577,310.00305497378577,l,1,0.49455390532966703,310.51336811389774,311.5339642096078,,,,,,,,,,,,,,,,,,,,,,,,,,,,,,,,,,,,,,,154754,2023-05-16_14h18.50.083,eb_02psyexp,2022.2.4,99.91308393454328,
131,0,131,0,,,,,,,,,,,,,,,,,,,,,,,,,,,,,,,,,,,,,,,,,,,,,,,,,,,,,,,,,,,311.5339642096078,311.5339642096078,311.5339642096078,311.5339642096078,311.5339642096078,311.5339642096078,l,1,0.5796259165508673,312.1243136797566,313.15494702919386,,,,,,,,,,,,,,,,,,,,,,,,,,,,,,,,,,,,,,,154754,2023-05-16_14h18.50.083,eb_02psyexp,2022.2.4,99.91308393454328,
132,0,132,0,,,,,,,,,,,,,,,,,,,,,,,,,,,,,,,,,,,,,,,,,,,,,,,,,,,,,,,,,,,313.15494702919386,313.15494702919386,313.15494702919386,313.15494702919386,313.15494702919386,313.15494702919386,s,1,0.6626293834997341,313.8353625370655,314.86594396911096,,,,,,,,,,,,,,,,,,,,,,,,,,,,,,,,,,,,,,,154754,2023-05-16_14h18.50.083,eb_02psyexp,2022.2.4,99.91308393454328,
133,0,133,0,,,,,,,,,,,,,,,,,,,,,,,,,,,,,,,,,,,,,,,,,,,,,,,,,,,,,,,,,,,314.86594396911096,314.86594396911096,314.86594396911096,314.86594396911096,314.86594396911096,314.86594396911096,s,1,0.5676619857549667,315.44630659371614,316.4772375622997,,,,,,,,,,,,,,,,,,,,,,,,,,,,,,,,,,,,,,,154754,2023-05-16_14h18.50.083,eb_02psyexp,2022.2.4,99.91308393454328,
134,0,134,0,,,,,,,,,,,,,,,,,,,,,,,,,,,,,,,,,,,,,,,,,,,,,,,,,,,,,,,,,,,316.4772375622997,316.4772375622997,316.4772375622997,316.4772375622997,316.4772375622997,316.4772375622997,s,1,0.5963777134893462,317.0876075096894,318.11790852760896,,,,,,,,,,,,,,,,,,,,,,,,,,,,,,,,,,,,,,,154754,2023-05-16_14h18.50.083,eb_02psyexp,2022.2.4,99.91308393454328,
135,0,135,0,,,,,,,,,,,,,,,,,,,,,,,,,,,,,,,,,,,,,,,,,,,,,,,,,,,,,,,,,,,318.11790852760896,318.11790852760896,318.11790852760896,318.11790852760896,318.11790852760896,318.11790852760896,s,1,0.49170418607536703,318.6281945017399,319.64878908812534,,,,,,,,,,,,,,,,,,,,,,,,,,,,,,,,,,,,,,,154754,2023-05-16_14h18.50.083,eb_02psyexp,2022.2.4,99.91308393454328,
136,0,136,0,,,,,,,,,,,,,,,,,,,,,,,,,,,,,,,,,,,,,,,,,,,,,,,,,,,,,,,,,,,319.64878908812534,319.64878908812534,319.64878908812534,319.64878908812534,319.64878908812534,319.64878908812534,l,1,0.5438282999675721,320.20914602593984,321.2397591518238,,,,,,,,,,,,,,,,,,,,,,,,,,,,,,,,,,,,,,,154754,2023-05-16_14h18.50.083,eb_02psyexp,2022.2.4,99.91308393454328,
137,0,137,0,,,,,,,,,,,,,,,,,,,,,,,,,,,,,,,,,,,,,,,,,,,,,,,,,,,,,,,,,,,321.2397591518238,321.2397591518238,321.2397591518238,321.2397591518238,321.2397591518238,321.2397591518238,s,1,0.4008968169800937,321.659997802577,322.68060959421564,,,,,,,,,,,,,,,,,,,,,,,,,,,,,,,,,,,,,,,154754,2023-05-16_14h18.50.083,eb_02psyexp,2022.2.4,99.91308393454328,
138,0,138,0,,,,,,,,,,,,,,,,,,,,,,,,,,,,,,,,,,,,,,,,,,,,,,,,,,,,,,,,,,,322.68060959421564,322.68060959421564,322.68060959421564,322.68060959421564,322.68060959421564,322.68060959421564,l,1,0.44003344350494444,323.13083926809486,324.1514730944764,,,,,,,,,,,,,,,,,,,,,,,,,,,,,,,,,,,,,,,154754,2023-05-16_14h18.50.083,eb_02psyexp,2022.2.4,99.91308393454328,
139,0,139,0,,,,,,,,,,,,,,,,,,,,,,,,,,,,,,,,,,,,,,,,,,,,,,,,,,,,,,,,,,,324.1514730944764,324.1514730944764,324.1514730944764,324.1514730944764,324.1514730944764,324.1514730944764,l,1,0.49718840897548944,324.66182004113216,325.68240738334134,,,,,,,,,,,,,,,,,,,,,,,,,,,,,,,,,,,,,,,154754,2023-05-16_14h18.50.083,eb_02psyexp,2022.2.4,99.91308393454328,
140,0,140,0,,,,,,,,,,,,,,,,,,,,,,,,,,,,,,,,,,,,,,,,,,,,,,,,,,,,,,,,,,,325.68240738334134,325.68240738334134,325.68240738334134,325.68240738334134,325.68240738334134,325.68240738334134,l,1,0.44625779043417424,326.1426721981261,327.1732533283066,,,,,,,,,,,,,,,,,,,,,,,,,,,,,,,,,,,,,,,154754,2023-05-16_14h18.50.083,eb_02psyexp,2022.2.4,99.91308393454328,
141,0,141,0,,,,,,,,,,,,,,,,,,,,,,,,,,,,,,,,,,,,,,,,,,,,,,,,,,,,,,,,,,,327.1732533283066,327.1732533283066,327.1732533283066,327.1732533283066,327.1732533283066,327.1732533283066,s,1,0.45141662436071783,327.6435523782857,328.6741591653554,,,,,,,,,,,,,,,,,,,,,,,,,,,,,,,,,,,,,,,154754,2023-05-16_14h18.50.083,eb_02psyexp,2022.2.4,99.91308393454328,
142,0,142,0,,,,,,,,,,,,,,,,,,,,,,,,,,,,,,,,,,,,,,,,,,,,,,,,,,,,,,,,,,,328.6741591653554,328.6741591653554,328.6741591653554,328.6741591653554,328.6741591653554,328.6741591653554,s,1,0.4625212021637708,329.1544480792945,330.17502938455436,,,,,,,,,,,,,,,,,,,,,,,,,,,,,,,,,,,,,,,154754,2023-05-16_14h18.50.083,eb_02psyexp,2022.2.4,99.91308393454328,
143,0,143,0,,,,,,,,,,,,,,,,,,,,,,,,,,,,,,,,,,,,,,,,,,,,,,,,,,,,,,,,,,,330.17502938455436,330.17502938455436,330.17502938455436,330.17502938455436,330.17502938455436,330.17502938455436,l,1,0.5216683449689299,330.7153764098184,331.7459804803366,,,,,,,,,,,,,,,,,,,,,,,,,,,,,,,,,,,,,,,154754,2023-05-16_14h18.50.083,eb_02psyexp,2022.2.4,99.91308393454328,
144,0,144,0,,,,,,,,,,,,,,,,,,,,,,,,,,,,,,,,,,,,,,,,,,,,,,,,,,,,,,,,,,,331.7459804803366,331.7459804803366,331.7459804803366,331.7459804803366,331.7459804803366,331.7459804803366,s,1,0.486700500594452,332.24628896592185,,,,,,,,,,,,,,,,,,,,,,,,,,,,,,,,,,,,,,,,154754,2023-05-16_14h18.50.083,eb_02psyexp,2022.2.4,99.91308393454328,
145,0,145,0,,,,,,,,,,,,,,,,,,,,,,,,,,,,,,,,,,,,,,,,,,,,,,,,,,,,,,,,,,,333.27721691608895,333.27721691608895,333.27721691608895,333.27721691608895,333.27721691608895,333.27721691608895,l,1,0.41950647032354027,333.7074768227758,334.72773485200014,,,,,,,,,,,,,,,,,,,,,,,,,,,,,,,,,,,,,,,154754,2023-05-16_14h18.50.083,eb_02psyexp,2022.2.4,99.91308393454328,
146,0,146,0,,,,,,,,,,,,,,,,,,,,,,,,,,,,,,,,,,,,,,,,,,,,,,,,,,,,,,,,,,,334.72773485200014,334.72773485200014,334.72773485200014,334.72773485200014,334.72773485200014,334.72773485200014,l,1,0.4560167429735884,335.1980311854277,336.22864431119524,,,,,,,,,,,,,,,,,,,,,,,,,,,,,,,,,,,,,,,154754,2023-05-16_14h18.50.083,eb_02psyexp,2022.2.4,99.91308393454328,
147,0,147,0,,,,,,,,,,,,,,,,,,,,,,,,,,,,,,,,,,,,,,,,,,,,,,,,,,,,,,,,,,,336.22864431119524,336.22864431119524,336.22864431119524,336.22864431119524,336.22864431119524,336.22864431119524,s,1,0.5150615604361519,336.7589607232949,337.78956147341523,,,,,,,,,,,,,,,,,,,,,,,,,,,,,,,,,,,,,,,154754,2023-05-16_14h18.50.083,eb_02psyexp,2022.2.4,99.91308393454328,
148,0,148,0,,,,,,,,,,,,,,,,,,,,,,,,,,,,,,,,,,,,,,,,,,,,,,,,,,,,,,,,,,,337.78956147341523,337.78956147341523,337.78956147341523,337.78956147341523,337.78956147341523,337.78956147341523,s,1,0.5381705161416903,338.3398853833787,,,,,,,,,,,,,,,,,,,,,,,,,,,,,,,,,,,,,,,,154754,2023-05-16_14h18.50.083,eb_02psyexp,2022.2.4,99.91308393454328,
149,0,149,0,,,,,,,,,,,,,,,,,,,,,,,,,,,,,,,,,,,,,,,,,,,,,,,,,,,,,,,,,,,339.3704976036679,339.3704976036679,339.3704976036679,339.3704976036679,339.3704976036679,339.3704976036679,s,1,0.5012385660083964,339.89118455466814,340.92143878666684,,,,,,,,,,,,,,,,,,,,,,,,,,,,,,,,,,,,,,,154754,2023-05-16_14h18.50.083,eb_02psyexp,2022.2.4,99.91308393454328,
150,0,150,0,,,,,,,,,,,,,,,,,,,,,,,,,,,,,,,,,,,,,,,,,,,,,,,,,,,,,,,,,,,340.92143878666684,340.92143878666684,340.92143878666684,340.92143878666684,340.92143878666684,340.92143878666684,s,1,0.47031695442274213,341.4017385671614,342.43231939547695,,,,,,,,,,,,,,,,,,,,,,,,,,,,,,,,,,,,,,,154754,2023-05-16_14h18.50.083,eb_02psyexp,2022.2.4,99.91308393454328,
151,0,151,0,,,,,,,,,,,,,,,,,,,,,,,,,,,,,,,,,,,,,,,,,,,,,,,,,,,,,,,,,,,342.43231939547695,342.43231939547695,342.43231939547695,342.43231939547695,342.43231939547695,342.43231939547695,s,1,0.5353893159190193,342.9829798627179,344.01329627481755,,,,,,,,,,,,,,,,,,,,,,,,,,,,,,,,,,,,,,,154754,2023-05-16_14h18.50.083,eb_02psyexp,2022.2.4,99.91308393454328,
152,0,152,0,,,,,,,,,,,,,,,,,,,,,,,,,,,,,,,,,,,,,,,,,,,,,,,,,,,,,,,,,,,344.01329627481755,344.01329627481755,344.01329627481755,344.01329627481755,344.01329627481755,344.01329627481755,s,1,0.8024633324239403,344.8337675877847,345.85437153140083,,,,,,,,,,,,,,,,,,,,,,,,,,,,,,,,,,,,,,,154754,2023-05-16_14h18.50.083,eb_02psyexp,2022.2.4,99.91308393454328,
153,0,153,0,,,,,,,,,,,,,,,,,,,,,,,,,,,,,,,,,,,,,,,,,,,,,,,,,,,,,,,,,,,345.85437153140083,345.85437153140083,345.85437153140083,345.85437153140083,345.85437153140083,345.85437153140083,l,1,0.6333854268305004,346.5047800183529,347.5253619273426,,,,,,,,,,,,,,,,,,,,,,,,,,,,,,,,,,,,,,,154754,2023-05-16_14h18.50.083,eb_02psyexp,2022.2.4,99.91308393454328,
154,0,154,0,,,,,,,,,,,,,,,,,,,,,,,,,,,,,,,,,,,,,,,,,,,,,,,,,,,,,,,,,,,347.5253619273426,347.5253619273426,347.5253619273426,347.5253619273426,347.5253619273426,347.5253619273426,l,1,0.522395791602321,348.0656805790495,349.08626641205046,,,,,,,,,,,,,,,,,,,,,,,,,,,,,,,,,,,,,,,154754,2023-05-16_14h18.50.083,eb_02psyexp,2022.2.4,99.91308393454328,
155,0,155,0,,,,,,,,,,,,,,,,,,,,,,,,,,,,,,,,,,,,,,,,,,,,,,,,,,,,,,,,,,,349.08626641205046,349.08626641205046,349.08626641205046,349.08626641205046,349.08626641205046,349.08626641205046,l,1,0.46463291032705456,349.56657011643983,350.58719126530923,,,,,,,,,,,,,,,,,,,,,,,,,,,,,,,,,,,,,,,154754,2023-05-16_14h18.50.083,eb_02psyexp,2022.2.4,99.91308393454328,
156,0,156,0,,,,,,,,,,,,,,,,,,,,,,,,,,,,,,,,,,,,,,,,,,,,,,,,,,,,,,,,,,,350.58719126530923,350.58719126530923,350.58719126530923,350.58719126530923,350.58719126530923,350.58719126530923,l,1,0.45163938601035625,351.0574365868233,352.08804156281985,,,,,,,,,,,,,,,,,,,,,,,,,,,,,,,,,,,,,,,154754,2023-05-16_14h18.50.083,eb_02psyexp,2022.2.4,99.91308393454328,
157,0,157,0,,,,,,,,,,,,,,,,,,,,,,,,,,,,,,,,,,,,,,,,,,,,,,,,,,,,,,,,,,,352.08804156281985,352.08804156281985,352.08804156281985,352.08804156281985,352.08804156281985,352.08804156281985,s,1,0.4387693164171651,352.5383533386048,353.5689580127364,,,,,,,,,,,,,,,,,,,,,,,,,,,,,,,,,,,,,,,154754,2023-05-16_14h18.50.083,eb_02psyexp,2022.2.4,99.91308393454328,
158,0,158,0,,,,,,,,,,,,,,,,,,,,,,,,,,,,,,,,,,,,,,,,,,,,,,,,,,,,,,,,,,,353.5689580127364,353.5689580127364,353.5689580127364,353.5689580127364,353.5689580127364,353.5689580127364,s,1,0.38188178569544107,353.9691786011681,354.9898012591293,,,,,,,,,,,,,,,,,,,,,,,,,,,,,,,,,,,,,,,154754,2023-05-16_14h18.50.083,eb_02psyexp,2022.2.4,99.91308393454328,
159,0,159,0,,,,,,,,,,,,,,,,,,,,,,,,,,,,,,,,,,,,,,,,,,,,,,,,,,,,,,,,,,,354.9898012591293,354.9898012591293,354.9898012591293,354.9898012591293,354.9898012591293,354.9898012591293,l,1,0.3930111149093136,355.40003857575357,356.4306197060505,,,,,,,,,,,,,,,,,,,,,,,,,,,,,,,,,,,,,,,154754,2023-05-16_14h18.50.083,eb_02psyexp,2022.2.4,99.91308393454328,
160,0,160,0,,,,,,,,,,,,,,,,,,,,,,,,,,,,,,,,,,,,,,,,,,,,,,,,,,,,,,,,,,,356.4306197060505,356.4306197060505,356.4306197060505,356.4306197060505,356.4306197060505,356.4306197060505,s,1,0.42420076474081725,356.8712328982074,357.90150010958314,,,,,,,,,,,,,,,,,,,,,,,,,,,,,,,,,,,,,,,154754,2023-05-16_14h18.50.083,eb_02psyexp,2022.2.4,99.91308393454328,
161,0,161,0,,,,,,,,,,,,,,,,,,,,,,,,,,,,,,,,,,,,,,,,,,,,,,,,,,,,,,,,,,,357.90150010958314,357.90150010958314,357.90150010958314,357.90150010958314,357.90150010958314,357.90150010958314,s,1,0.3853158769197762,358.3017539009452,,,,,,,,,,,,,,,,,,,,,,,,,,,,,,,,,,,,,,,,154754,2023-05-16_14h18.50.083,eb_02psyexp,2022.2.4,99.91308393454328,
162,0,162,0,,,,,,,,,,,,,,,,,,,,,,,,,,,,,,,,,,,,,,,,,,,,,,,,,,,,,,,,,,,359.3223539205501,359.3223539205501,359.3223539205501,359.3223539205501,359.3223539205501,359.3223539205501,l,1,0.4605100086191669,359.79296598385554,360.82325492810924,,,,,,,,,,,,,,,,,,,,,,,,,,,,,,,,,,,,,,,154754,2023-05-16_14h18.50.083,eb_02psyexp,2022.2.4,99.91308393454328,
163,0,163,0,,,,,,,,,,,,,,,,,,,,,,,,,,,,,,,,,,,,,,,,,,,,,,,,,,,,,,,,,,,360.82325492810924,360.82325492810924,360.82325492810924,360.82325492810924,360.82325492810924,360.82325492810924,s,1,0.5035772614646703,361.3435603469843,,,,,,,,,,,,,,,,,,,,,,,,,,,,,,,,,,,,,,,,154754,2023-05-16_14h18.50.083,eb_02psyexp,2022.2.4,99.91308393454328,
164,0,164,0,,,,,,,,,,,,,,,,,,,,,,,,,,,,,,,,,,,,,,,,,,,,,,,,,,,,,,,,,,,362.37415777682327,362.37415777682327,362.37415777682327,362.37415777682327,362.37415777682327,362.37415777682327,s,1,0.49674499849788845,362.8847975132521,363.905073955073,,,,,,,,,,,,,,,,,,,,,,,,,,,,,,,,,,,,,,,154754,2023-05-16_14h18.50.083,eb_02psyexp,2022.2.4,99.91308393454328,
165,0,165,0,,,,,,,,,,,,,,,,,,,,,,,,,,,,,,,,,,,,,,,,,,,,,,,,,,,,,,,,,,,363.905073955073,363.905073955073,363.905073955073,363.905073955073,363.905073955073,363.905073955073,l,1,0.5178074449067935,364.4353918763809,,,,,,,,,,,,,,,,,,,,,,,,,,,,,,,,,,,,,,,,154754,2023-05-16_14h18.50.083,eb_02psyexp,2022.2.4,99.91308393454328,
166,0,166,0,,,,,,,,,,,,,,,,,,,,,,,,,,,,,,,,,,,,,,,,,,,,,,,,,,,,,,,,,,,365.4560269101057,365.4560269101057,365.4560269101057,365.4560269101057,365.4560269101057,365.4560269101057,l,1,0.5028437779983506,365.976651681005,367.0069158739643,,,,,,,,,,,,,,,,,,,,,,,,,,,,,,,,,,,,,,,154754,2023-05-16_14h18.50.083,eb_02psyexp,2022.2.4,99.91308393454328,
167,0,167,0,,,,,,,,,,,,,,,,,,,,,,,,,,,,,,,,,,,,,,,,,,,,,,,,,,,,,,,,,,,367.0069158739643,367.0069158739643,367.0069158739643,367.0069158739643,367.0069158739643,367.0069158739643,s,1,0.48696008732076734,367.5072143987054,368.52780475933105,,,,,,,,,,,,,,,,,,,,,,,,,,,,,,,,,,,,,,,154754,2023-05-16_14h18.50.083,eb_02psyexp,2022.2.4,99.91308393454328,
168,0,168,0,,,,,,,,,,,,,,,,,,,,,,,,,,,,,,,,,,,,,,,,,,,,,,,,,,,,,,,,,,,368.52780475933105,368.52780475933105,368.52780475933105,368.52780475933105,368.52780475933105,368.52780475933105,l,1,0.48610375297721475,369.0281216966687,370.0487093407428,,,,,,,,,,,,,,,,,,,,,,,,,,,,,,,,,,,,,,,154754,2023-05-16_14h18.50.083,eb_02psyexp,2022.2.4,99.91308393454328,
169,0,169,0,,,,,,,,,,,,,,,,,,,,,,,,,,,,,,,,,,,,,,,,,,,,,,,,,,,,,,,,,,,370.0487093407428,370.0487093407428,370.0487093407428,370.0487093407428,370.0487093407428,370.0487093407428,l,1,0.5251757845981047,370.58906089363154,371.61965892720036,,,,,,,,,,,,,,,,,,,,,,,,,,,,,,,,,,,,,,,154754,2023-05-16_14h18.50.083,eb_02psyexp,2022.2.4,99.91308393454328,
170,0,170,0,,,,,,,,,,,,,,,,,,,,,,,,,,,,,,,,,,,,,,,,,,,,,,,,,,,,,,,,,,,371.61965892720036,371.61965892720036,371.61965892720036,371.61965892720036,371.61965892720036,371.61965892720036,s,1,0.5782676136586815,372.2100506556453,373.2306425254792,,,,,,,,,,,,,,,,,,,,,,,,,,,,,,,,,,,,,,,154754,2023-05-16_14h18.50.083,eb_02psyexp,2022.2.4,99.91308393454328,
171,0,171,0,,,,,,,,,,,,,,,,,,,,,,,,,,,,,,,,,,,,,,,,,,,,,,,,,,,,,,,,,,,373.2306425254792,373.2306425254792,373.2306425254792,373.2306425254792,373.2306425254792,373.2306425254792,l,1,0.43929241388104856,373.68088155658916,374.70147010614164,,,,,,,,,,,,,,,,,,,,,,,,,,,,,,,,,,,,,,,154754,2023-05-16_14h18.50.083,eb_02psyexp,2022.2.4,99.91308393454328,
172,0,172,0,,,,,,,,,,,,,,,,,,,,,,,,,,,,,,,,,,,,,,,,,,,,,,,,,,,,,,,,,,,374.70147010614164,374.70147010614164,374.70147010614164,374.70147010614164,374.70147010614164,374.70147010614164,l,1,0.49647062143776566,375.21178475546185,376.2324394091265,,,,,,,,,,,,,,,,,,,,,,,,,,,,,,,,,,,,,,,154754,2023-05-16_14h18.50.083,eb_02psyexp,2022.2.4,99.91308393454328,
173,0,173,0,,,,,,,,,,,,,,,,,,,,,,,,,,,,,,,,,,,,,,,,,,,,,,,,,,,,,,,,,,,376.2324394091265,376.2324394091265,376.2324394091265,376.2324394091265,376.2324394091265,376.2324394091265,l,1,0.5095299477688968,376.7526844589738,377.78330603649374,,,,,,,,,,,,,,,,,,,,,,,,,,,,,,,,,,,,,,,154754,2023-05-16_14h18.50.083,eb_02psyexp,2022.2.4,99.91308393454328,
174,0,174,0,,,,,,,,,,,,,,,,,,,,,,,,,,,,,,,,,,,,,,,,,,,,,,,,,,,,,,,,,,,377.78330603649374,377.78330603649374,377.78330603649374,377.78330603649374,377.78330603649374,377.78330603649374,s,1,0.4786611592862755,378.27360352897085,,,,,,,,,,,,,,,,,,,,,,,,,,,,,,,,,,,,,,,,154754,2023-05-16_14h18.50.083,eb_02psyexp,2022.2.4,99.91308393454328,
175,0,175,0,,,,,,,,,,,,,,,,,,,,,,,,,,,,,,,,,,,,,,,,,,,,,,,,,,,,,,,,,,,379.3045366104925,379.3045366104925,379.3045366104925,379.3045366104925,379.3045366104925,379.3045366104925,s,1,0.47741242637857795,379.7948262549471,380.81515038828366,,,,,,,,,,,,,,,,,,,,,,,,,,,,,,,,,,,,,,,154754,2023-05-16_14h18.50.083,eb_02psyexp,2022.2.4,99.91308393454328,
176,0,176,0,,,,,,,,,,,,,,,,,,,,,,,,,,,,,,,,,,,,,,,,,,,,,,,,,,,,,,,,,,,380.81515038828366,380.81515038828366,380.81515038828366,380.81515038828366,380.81515038828366,380.81515038828366,l,1,0.5259270769311115,381.3554301020922,,,,,,,,,,,,,,,,,,,,,,,,,,,,,,,,,,,,,,,,154754,2023-05-16_14h18.50.083,eb_02psyexp,2022.2.4,99.91308393454328,
177,0,177,0,,,,,,,,,,,,,,,,,,,,,,,,,,,,,,,,,,,,,,,,,,,,,,,,,,,,,,,,,,,382.3760255940724,382.3760255940724,382.3760255940724,382.3760255940724,382.3760255940724,382.3760255940724,l,1,0.4609555318020284,382.85665227263235,383.8869161637267,,,,,,,,,,,,,,,,,,,,,,,,,,,,,,,,,,,,,,,154754,2023-05-16_14h18.50.083,eb_02psyexp,2022.2.4,99.91308393454328,
178,0,178,0,,,,,,,,,,,,,,,,,,,,,,,,,,,,,,,,,,,,,,,,,,,,,,,,,,,,,,,,,,,383.8869161637267,383.8869161637267,383.8869161637267,383.8869161637267,383.8869161637267,383.8869161637267,s,1,0.44607607973739505,384.3471927504288,,,,,,,,,,,,,,,,,,,,,,,,,,,,,,,,,,,,,,,,154754,2023-05-16_14h18.50.083,eb_02psyexp,2022.2.4,99.91308393454328,
179,0,179,0,,,,,,,,,,,,,,,,,,,,,,,,,,,,,,,,,,,,,,,,,,,,,,,,,,,,,,,,,,,385.37814032053575,385.37814032053575,385.37814032053575,385.37814032053575,385.37814032053575,385.37814032053575,s,1,0.4908496626885608,385.8884585920023,386.91871463507414,,,,,,,,,,,,,,,,,,,,,,,,,,,,,,,,,,,,,,,154754,2023-05-16_14h18.50.083,eb_02psyexp,2022.2.4,99.91308393454328,
180,0,180,0,,,,,,,,,,,,,,,,,,,,,,,,,,,,,,,,,,,,,,,,,,,,,,,,,,,,,,,,,,,386.91871463507414,386.91871463507414,386.91871463507414,386.91871463507414,386.91871463507414,386.91871463507414,s,1,0.446284051053226,387.379008728778,,,,,,,,,,,,,,,,,,,,,,,,,,,,,,,,,,,,,,,,154754,2023-05-16_14h18.50.083,eb_02psyexp,2022.2.4,99.91308393454328,
181,0,181,0,,,,,,,,,,,,,,,,,,,,,,,,,,,,,,,,,,,,,,,,,,,,,,,,,,,,,,,,,,,388.40995509154163,388.40995509154163,388.40995509154163,388.40995509154163,388.40995509154163,388.40995509154163,l,1,0.4111305718543008,388.8401842099847,389.8704810021445,,,,,,,,,,,,,,,,,,,,,,,,,,,,,,,,,,,,,,,154754,2023-05-16_14h18.50.083,eb_02psyexp,2022.2.4,99.91308393454328,
182,0,182,0,,,,,,,,,,,,,,,,,,,,,,,,,,,,,,,,,,,,,,,,,,,,,,,,,,,,,,,,,,,389.8704810021445,389.8704810021445,389.8704810021445,389.8704810021445,389.8704810021445,389.8704810021445,s,1,0.43055581056978554,390.3207462937571,,,,,,,,,,,,,,,,,,,,,,,,,,,,,,,,,,,,,,,,154754,2023-05-16_14h18.50.083,eb_02psyexp,2022.2.4,99.91308393454328,
183,0,183,0,,,,,,,,,,,,,,,,,,,,,,,,,,,,,,,,,,,,,,,,,,,,,,,,,,,,,,,,,,,391.34133423969615,391.34133423969615,391.34133423969615,391.34133423969615,391.34133423969615,391.34133423969615,l,1,0.5756910643540323,391.93203294451814,392.9623137390008,,,,,,,,,,,,,,,,,,,,,,,,,,,,,,,,,,,,,,,154754,2023-05-16_14h18.50.083,eb_02psyexp,2022.2.4,99.91308393454328,
184,0,184,0,,,,,,,,,,,,,,,,,,,,,,,,,,,,,,,,,,,,,,,,,,,,,,,,,,,,,,,,,,,392.9623137390008,392.9623137390008,392.9623137390008,392.9623137390008,392.9623137390008,392.9623137390008,s,1,0.450724795460701,393.4325928671751,,,,,,,,,,,,,,,,,,,,,,,,,,,,,,,,,,,,,,,,154754,2023-05-16_14h18.50.083,eb_02psyexp,2022.2.4,99.91308393454328,
185,0,185,0,,,,,,,,,,,,,,,,,,,,,,,,,,,,,,,,,,,,,,,,,,,,,,,,,,,,,,,,,,,394.46351447864436,394.46351447864436,394.46351447864436,394.46351447864436,394.46351447864436,394.46351447864436,s,1,0.47752863669302315,394.95381227287,395.98409850045573,,,,,,,,,,,,,,,,,,,,,,,,,,,,,,,,,,,,,,,154754,2023-05-16_14h18.50.083,eb_02psyexp,2022.2.4,99.91308393454328,
186,0,186,0,,,,,,,,,,,,,,,,,,,,,,,,,,,,,,,,,,,,,,,,,,,,,,,,,,,,,,,,,,,395.98409850045573,395.98409850045573,395.98409850045573,395.98409850045573,395.98409850045573,395.98409850045573,s,1,0.420049489592202,396.41435901087243,,,,,,,,,,,,,,,,,,,,,,,,,,,,,,,,,,,,,,,,154754,2023-05-16_14h18.50.083,eb_02psyexp,2022.2.4,99.91308393454328,
187,0,187,0,,,,,,,,,,,,,,,,,,,,,,,,,,,,,,,,,,,,,,,,,,,,,,,,,,,,,,,,,,,397.44530959939584,397.44530959939584,397.44530959939584,397.44530959939584,397.44530959939584,397.44530959939584,s,1,0.47876680502668023,397.9355702667963,398.96590418589767,,,,,,,,,,,,,,,,,,,,,,,,,,,,,,,,,,,,,,,154754,2023-05-16_14h18.50.083,eb_02psyexp,2022.2.4,99.91308393454328,
188,0,188,0,,,,,,,,,,,,,,,,,,,,,,,,,,,,,,,,,,,,,,,,,,,,,,,,,,,,,,,,,,,398.96590418589767,398.96590418589767,398.96590418589767,398.96590418589767,398.96590418589767,398.96590418589767,s,1,0.414155361126177,399.39613300259225,400.4270781578962,,,,,,,,,,,,,,,,,,,,,,,,,,,,,,,,,,,,,,,154754,2023-05-16_14h18.50.083,eb_02psyexp,2022.2.4,99.91308393454328,
189,0,189,0,,,,,,,,,,,,,,,,,,,,,,,,,,,,,,,,,,,,,,,,,,,,,,,,,,,,,,,,,,,400.4270781578962,400.4270781578962,400.4270781578962,400.4270781578962,400.4270781578962,400.4270781578962,s,1,0.39297157316468656,400.837301589665,401.8675971744815,,,,,,,,,,,,,,,,,,,,,,,,,,,,,,,,,,,,,,,154754,2023-05-16_14h18.50.083,eb_02psyexp,2022.2.4,99.91308393454328,
190,0,190,0,,,,,,,,,,,,,,,,,,,,,,,,,,,,,,,,,,,,,,,,,,,,,,,,,,,,,,,,,,,401.8675971744815,401.8675971744815,401.8675971744815,401.8675971744815,401.8675971744815,401.8675971744815,s,1,0.43248309125192463,402.3178648808971,403.33846188208554,,,,,,,,,,,,,,,,,,,,,,,,,,,,,,,,,,,,,,,154754,2023-05-16_14h18.50.083,eb_02psyexp,2022.2.4,99.91308393454328,
191,0,191,0,,,,,,,,,,,,,,,,,,,,,,,,,,,,,,,,,,,,,,,,,,,,,,,,,,,,,,,,,,,403.33846188208554,403.33846188208554,403.33846188208554,403.33846188208554,403.33846188208554,403.33846188208554,l,1,0.5136416812893003,403.86909583525266,404.89938930713106,,,,,,,,,,,,,,,,,,,,,,,,,,,,,,,,,,,,,,,154754,2023-05-16_14h18.50.083,eb_02psyexp,2022.2.4,99.91308393454328,
192,0,192,0,,,,,,,,,,,,,,,,,,,,,,,,,,,,,,,,,,,,,,,,,,,,,,,,,,,,,,,,,,,404.89938930713106,404.89938930713106,404.89938930713106,404.89938930713106,404.89938930713106,404.89938930713106,s,1,0.4327583739068359,405.34965007100254,,,,,,,,,,,,,,,,,,,,,,,,,,,,,,,,,,,,,,,,154754,2023-05-16_14h18.50.083,eb_02psyexp,2022.2.4,99.91308393454328,
193,0,193,0,,,,,,,,,,,,,,,,,,,,,,,,,,,,,,,,,,,,,,,,,,,,,,,,,,,,,,,,,,,406.3805834543891,406.3805834543891,406.3805834543891,406.3805834543891,406.3805834543891,406.3805834543891,s,1,0.4315766504732892,406.8308538773563,407.8512193635106,,,,,,,,,,,,,,,,,,,,,,,,,,,,,,,,,,,,,,,154754,2023-05-16_14h18.50.083,eb_02psyexp,2022.2.4,99.91308393454328,
194,0,194,0,,,,,,,,,,,,,,,,,,,,,,,,,,,,,,,,,,,,,,,,,,,,,,,,,,,,,,,,,,,407.8512193635106,407.8512193635106,407.8512193635106,407.8512193635106,407.8512193635106,407.8512193635106,l,1,0.4489324395544827,408.3114075094927,,,,,,,,,,,,,,,,,,,,,,,,,,,,,,,,,,,,,,,,154754,2023-05-16_14h18.50.083,eb_02psyexp,2022.2.4,99.91308393454328,
195,0,195,0,,,,,,,,,,,,,,,,,,,,,,,,,,,,,,,,,,,,,,,,,,,,,,,,,,,,,,,,,,,409.3323163166642,409.3323163166642,409.3323163166642,409.3323163166642,409.3323163166642,409.3323163166642,l,1,0.5038256798870862,409.8526476942934,410.882923961035,,,,,,,,,,,,,,,,,,,,,,,,,,,,,,,,,,,,,,,154754,2023-05-16_14h18.50.083,eb_02psyexp,2022.2.4,99.91308393454328,
196,0,196,0,,,,,,,,,,,,,,,,,,,,,,,,,,,,,,,,,,,,,,,,,,,,,,,,,,,,,,,,,,,410.882923961035,410.882923961035,410.882923961035,410.882923961035,410.882923961035,410.882923961035,l,1,0.5531936464831233,411.45327951631043,412.4741967752343,,,,,,,,,,,,,,,,,,,,,,,,,,,,,,,,,,,,,,,154754,2023-05-16_14h18.50.083,eb_02psyexp,2022.2.4,99.91308393454328,
197,0,197,0,,,,,,,,,,,,,,,,,,,,,,,,,,,,,,,,,,,,,,,,,,,,,,,,,,,,,,,,,,,412.4741967752343,412.4741967752343,412.4741967752343,412.4741967752343,412.4741967752343,412.4741967752343,s,1,1.0329482947709039,413.524487482151,414.54515722801443,,,,,,,,,,,,,,,,,,,,,,,,,,,,,,,,,,,,,,,154754,2023-05-16_14h18.50.083,eb_02psyexp,2022.2.4,99.91308393454328,
198,0,198,0,,,,,,,,,,,,,,,,,,,,,,,,,,,,,,,,,,,,,,,,,,,,,,,,,,,,,,,,,,,414.54515722801443,414.54515722801443,414.54515722801443,414.54515722801443,414.54515722801443,414.54515722801443,s,1,0.7219932510051876,415.28552701242734,416.3062018896453,,,,,,,,,,,,,,,,,,,,,,,,,,,,,,,,,,,,,,,154754,2023-05-16_14h18.50.083,eb_02psyexp,2022.2.4,99.91308393454328,
199,0,199,0,,,,,0,0,0,0,,,,,,,,,,,,,,,,,,,,,,,,,,,,,,,,,,,,,,,,,,,,,,,,,,,416.3062018896453,416.3062018896453,416.3062018896453,416.3062018896453,416.3062018896453,416.3062018896453,s,1,0.5689928205683827,416.8864760736469,417.8870764434105,417.8870764434105,417.8870764434105,space,8.460154435015284,,,,,,,,,,,,,,,,,,,,,,,,,,,,,,,,,,,154754,2023-05-16_14h18.50.083,eb_02psyexp,2022.2.4,99.91308393454328,
199,0,199,0,,,,,,,,,,,,,,,,,,,,,,,,,,,,,,,,,,,,,,,,,,,,,,,,,,,,,,,,,,,,,,,,,,,,,,,,,,,,,,,,,,,,,,,,,,,,,,,,,,,,,,,,,,,,154754,2023-05-16_14h18.50.083,eb_02psyexp,2022.2.4,99.91308393454328,
200,0,200,0,,,,,,,,,,,,,,,,,,,,,,,,,,,,,,,,,,,,,,,,,,,,,,,,,,,,,,,,,,,426.3824313498335,426.3824313498335,426.3824313498335,426.3824313498335,426.3824313498335,426.3824313498335,l,1,0.6618020262103528,427.06283236911986,428.08309945371,,,,,,,,,,,,,,,,,,,,,,,,,,,,,,,,,,,,,,,154754,2023-05-16_14h18.50.083,eb_02psyexp,2022.2.4,99.91308393454328,
201,0,201,0,,,,,,,,,,,,,,,,,,,,,,,,,,,,,,,,,,,,,,,,,,,,,,,,,,,,,,,,,,,428.08309945371,428.08309945371,428.08309945371,428.08309945371,428.08309945371,428.08309945371,s,1,0.5111955289030448,428.61342341196723,429.64403834880795,,,,,,,,,,,,,,,,,,,,,,,,,,,,,,,,,,,,,,,154754,2023-05-16_14h18.50.083,eb_02psyexp,2022.2.4,99.91308393454328,
202,0,202,0,,,,,,,,,,,,,,,,,,,,,,,,,,,,,,,,,,,,,,,,,,,,,,,,,,,,,,,,,,,429.64403834880795,429.64403834880795,429.64403834880795,429.64403834880795,429.64403834880795,429.64403834880795,l,1,0.47821744706016034,430.13435365015175,431.15491201519035,,,,,,,,,,,,,,,,,,,,,,,,,,,,,,,,,,,,,,,154754,2023-05-16_14h18.50.083,eb_02psyexp,2022.2.4,99.91308393454328,
203,0,203,0,,,,,,,,,,,,,,,,,,,,,,,,,,,,,,,,,,,,,,,,,,,,,,,,,,,,,,,,,,,431.15491201519035,431.15491201519035,431.15491201519035,431.15491201519035,431.15491201519035,431.15491201519035,s,1,0.5353389077354223,431.7052603745833,432.72589118243195,,,,,,,,,,,,,,,,,,,,,,,,,,,,,,,,,,,,,,,154754,2023-05-16_14h18.50.083,eb_02psyexp,2022.2.4,99.91308393454328,
204,0,204,0,,,,,,,,,,,,,,,,,,,,,,,,,,,,,,,,,,,,,,,,,,,,,,,,,,,,,,,,,,,432.72589118243195,432.72589118243195,432.72589118243195,432.72589118243195,432.72589118243195,432.72589118243195,s,1,0.5484257020289078,433.2861889586784,434.3067880728049,,,,,,,,,,,,,,,,,,,,,,,,,,,,,,,,,,,,,,,154754,2023-05-16_14h18.50.083,eb_02psyexp,2022.2.4,99.91308393454328,
205,0,205,0,,,,,,,,,,,,,,,,,,,,,,,,,,,,,,,,,,,,,,,,,,,,,,,,,,,,,,,,,,,434.3067880728049,434.3067880728049,434.3067880728049,434.3067880728049,434.3067880728049,434.3067880728049,s,1,0.47947734827175736,434.7970852634171,435.82769386144355,,,,,,,,,,,,,,,,,,,,,,,,,,,,,,,,,,,,,,,154754,2023-05-16_14h18.50.083,eb_02psyexp,2022.2.4,99.91308393454328,
206,0,206,0,,,,,,,,,,,,,,,,,,,,,,,,,,,,,,,,,,,,,,,,,,,,,,,,,,,,,,,,,,,435.82769386144355,435.82769386144355,435.82769386144355,435.82769386144355,435.82769386144355,435.82769386144355,l,1,0.49457563809119165,436.33797711890657,,,,,,,,,,,,,,,,,,,,,,,,,,,,,,,,,,,,,,,,154754,2023-05-16_14h18.50.083,eb_02psyexp,2022.2.4,99.91308393454328,
207,0,207,0,,,,,,,,,,,,,,,,,,,,,,,,,,,,,,,,,,,,,,,,,,,,,,,,,,,,,,,,,,,437.358616982121,437.358616982121,437.358616982121,437.358616982121,437.358616982121,437.358616982121,s,1,0.4676655475050211,437.8391989876982,438.8695081555052,,,,,,,,,,,,,,,,,,,,,,,,,,,,,,,,,,,,,,,154754,2023-05-16_14h18.50.083,eb_02psyexp,2022.2.4,99.91308393454328,
208,0,208,0,,,,,,,,,,,,,,,,,,,,,,,,,,,,,,,,,,,,,,,,,,,,,,,,,,,,,,,,,,,438.8695081555052,438.8695081555052,438.8695081555052,438.8695081555052,438.8695081555052,438.8695081555052,l,1,0.4447654684772715,439.32977236656006,,,,,,,,,,,,,,,,,,,,,,,,,,,,,,,,,,,,,,,,154754,2023-05-16_14h18.50.083,eb_02psyexp,2022.2.4,99.91308393454328,
209,0,209,0,,,,,,,,,,,,,,,,,,,,,,,,,,,,,,,,,,,,,,,,,,,,,,,,,,,,,,,,,,,440.35068539960776,440.35068539960776,440.35068539960776,440.35068539960776,440.35068539960776,440.35068539960776,l,1,0.43561865761876106,440.80094948376063,441.8213143661851,,,,,,,,,,,,,,,,,,,,,,,,,,,,,,,,,,,,,,,154754,2023-05-16_14h18.50.083,eb_02psyexp,2022.2.4,99.91308393454328,
210,0,210,0,,,,,,,,,,,,,,,,,,,,,,,,,,,,,,,,,,,,,,,,,,,,,,,,,,,,,,,,,,,441.8213143661851,441.8213143661851,441.8213143661851,441.8213143661851,441.8213143661851,441.8213143661851,l,1,0.5809959911275655,442.42159152030945,,,,,,,,,,,,,,,,,,,,,,,,,,,,,,,,,,,,,,,,154754,2023-05-16_14h18.50.083,eb_02psyexp,2022.2.4,99.91308393454328,
211,0,211,0,,,,,,,,,,,,,,,,,,,,,,,,,,,,,,,,,,,,,,,,,,,,,,,,,,,,,,,,,,,443.452538184938,443.452538184938,443.452538184938,443.452538184938,443.452538184938,443.452538184938,s,1,0.49379416136071086,443.9628157073166,444.98310271359514,,,,,,,,,,,,,,,,,,,,,,,,,,,,,,,,,,,,,,,154754,2023-05-16_14h18.50.083,eb_02psyexp,2022.2.4,99.91308393454328,
212,0,212,0,,,,,,,,,,,,,,,,,,,,,,,,,,,,,,,,,,,,,,,,,,,,,,,,,,,,,,,,,,,444.98310271359514,444.98310271359514,444.98310271359514,444.98310271359514,444.98310271359514,444.98310271359514,l,1,0.5062102559022605,445.50344556127675,446.5240193204954,,,,,,,,,,,,,,,,,,,,,,,,,,,,,,,,,,,,,,,154754,2023-05-16_14h18.50.083,eb_02psyexp,2022.2.4,99.91308393454328,
213,0,213,0,,,,,,,,,,,,,,,,,,,,,,,,,,,,,,,,,,,,,,,,,,,,,,,,,,,,,,,,,,,446.5240193204954,446.5240193204954,446.5240193204954,446.5240193204954,446.5240193204954,446.5240193204954,l,1,0.50934159650933,447.0443190042861,448.07493665779475,,,,,,,,,,,,,,,,,,,,,,,,,,,,,,,,,,,,,,,154754,2023-05-16_14h18.50.083,eb_02psyexp,2022.2.4,99.91308393454328,
214,0,214,0,,,,,,,,,,,,,,,,,,,,,,,,,,,,,,,,,,,,,,,,,,,,,,,,,,,,,,,,,,,448.07493665779475,448.07493665779475,448.07493665779475,448.07493665779475,448.07493665779475,448.07493665779475,s,1,0.502413347014226,448.59524358599447,449.62585459882393,,,,,,,,,,,,,,,,,,,,,,,,,,,,,,,,,,,,,,,154754,2023-05-16_14h18.50.083,eb_02psyexp,2022.2.4,99.91308393454328,
215,0,215,0,,,,,,,,,,,,,,,,,,,,,,,,,,,,,,,,,,,,,,,,,,,,,,,,,,,,,,,,,,,449.62585459882393,449.62585459882393,449.62585459882393,449.62585459882393,449.62585459882393,449.62585459882393,s,1,0.44750139210373163,450.0861245448468,451.11671925813425,,,,,,,,,,,,,,,,,,,,,,,,,,,,,,,,,,,,,,,154754,2023-05-16_14h18.50.083,eb_02psyexp,2022.2.4,99.91308393454328,
216,0,216,0,,,,,,,,,,,,,,,,,,,,,,,,,,,,,,,,,,,,,,,,,,,,,,,,,,,,,,,,,,,451.11671925813425,451.11671925813425,451.11671925813425,451.11671925813425,451.11671925813425,451.11671925813425,s,1,0.4046451288741082,451.53698175470345,452.55762795661576,,,,,,,,,,,,,,,,,,,,,,,,,,,,,,,,,,,,,,,154754,2023-05-16_14h18.50.083,eb_02psyexp,2022.2.4,99.91308393454328,
217,0,217,0,,,,,,,,,,,,,,,,,,,,,,,,,,,,,,,,,,,,,,,,,,,,,,,,,,,,,,,,,,,452.55762795661576,452.55762795661576,452.55762795661576,452.55762795661576,452.55762795661576,452.55762795661576,l,1,0.45175952033605427,453.02786301542073,454.05847885785624,,,,,,,,,,,,,,,,,,,,,,,,,,,,,,,,,,,,,,,154754,2023-05-16_14h18.50.083,eb_02psyexp,2022.2.4,99.91308393454328,
218,0,218,0,,,,,,,,,,,,,,,,,,,,,,,,,,,,,,,,,,,,,,,,,,,,,,,,,,,,,,,,,,,454.05847885785624,454.05847885785624,454.05847885785624,454.05847885785624,454.05847885785624,454.05847885785624,s,1,0.42290252912789583,454.4987247046083,455.5293287750101,,,,,,,,,,,,,,,,,,,,,,,,,,,,,,,,,,,,,,,154754,2023-05-16_14h18.50.083,eb_02psyexp,2022.2.4,99.91308393454328,
219,0,219,0,,,,,,,,,,,,,,,,,,,,,,,,,,,,,,,,,,,,,,,,,,,,,,,,,,,,,,,,,,,455.5293287750101,455.5293287750101,455.5293287750101,455.5293287750101,455.5293287750101,455.5293287750101,s,1,0.4000884759007022,455.93959869095124,456.97017740644515,,,,,,,,,,,,,,,,,,,,,,,,,,,,,,,,,,,,,,,154754,2023-05-16_14h18.50.083,eb_02psyexp,2022.2.4,99.91308393454328,
220,0,220,0,,,,,,,,,,,,,,,,,,,,,,,,,,,,,,,,,,,,,,,,,,,,,,,,,,,,,,,,,,,456.97017740644515,456.97017740644515,456.97017740644515,456.97017740644515,456.97017740644515,456.97017740644515,s,1,0.4712161509087309,457.460509007331,,,,,,,,,,,,,,,,,,,,,,,,,,,,,,,,,,,,,,,,154754,2023-05-16_14h18.50.083,eb_02psyexp,2022.2.4,99.91308393454328,
221,0,221,0,,,,,,,,,,,,,,,,,,,,,,,,,,,,,,,,,,,,,,,,,,,,,,,,,,,,,,,,,,,458.4810685798293,458.4810685798293,458.4810685798293,458.4810685798293,458.4810685798293,458.4810685798293,l,1,0.44034887151792645,458.931672843406,459.9619744650554,,,,,,,,,,,,,,,,,,,,,,,,,,,,,,,,,,,,,,,154754,2023-05-16_14h18.50.083,eb_02psyexp,2022.2.4,99.91308393454328,
222,0,222,0,,,,,,,,,,,,,,,,,,,,,,,,,,,,,,,,,,,,,,,,,,,,,,,,,,,,,,,,,,,459.9619744650554,459.9619744650554,459.9619744650554,459.9619744650554,459.9619744650554,459.9619744650554,s,1,0.44641625916119665,460.42223173368257,461.45316058944445,,,,,,,,,,,,,,,,,,,,,,,,,,,,,,,,,,,,,,,154754,2023-05-16_14h18.50.083,eb_02psyexp,2022.2.4,99.91308393454328,
223,0,223,0,,,,,,,,,,,,,,,,,,,,,,,,,,,,,,,,,,,,,,,,,,,,,,,,,,,,,,,,,,,461.45316058944445,461.45316058944445,461.45316058944445,461.45316058944445,461.45316058944445,461.45316058944445,s,1,0.44325835607014596,461.91343717603013,462.9437224981375,,,,,,,,,,,,,,,,,,,,,,,,,,,,,,,,,,,,,,,154754,2023-05-16_14h18.50.083,eb_02psyexp,2022.2.4,99.91308393454328,
224,0,224,0,,,,,,,,,,,,,,,,,,,,,,,,,,,,,,,,,,,,,,,,,,,,,,,,,,,,,,,,,,,462.9437224981375,462.9437224981375,462.9437224981375,462.9437224981375,462.9437224981375,462.9437224981375,s,1,0.46470625849906355,463.4239893774502,464.45489559485577,,,,,,,,,,,,,,,,,,,,,,,,,,,,,,,,,,,,,,,154754,2023-05-16_14h18.50.083,eb_02psyexp,2022.2.4,99.91308393454328,
225,0,225,0,,,,,,,,,,,,,,,,,,,,,,,,,,,,,,,,,,,,,,,,,,,,,,,,,,,,,,,,,,,464.45489559485577,464.45489559485577,464.45489559485577,464.45489559485577,464.45489559485577,464.45489559485577,s,1,0.4735306988004595,464.94521874410566,465.9755351562053,,,,,,,,,,,,,,,,,,,,,,,,,,,,,,,,,,,,,,,154754,2023-05-16_14h18.50.083,eb_02psyexp,2022.2.4,99.91308393454328,
226,0,226,0,,,,,,,,,,,,,,,,,,,,,,,,,,,,,,,,,,,,,,,,,,,,,,,,,,,,,,,,,,,465.9755351562053,465.9755351562053,465.9755351562053,465.9755351562053,465.9755351562053,465.9755351562053,s,1,0.46489853388629854,466.455810185289,467.4767195961904,,,,,,,,,,,,,,,,,,,,,,,,,,,,,,,,,,,,,,,154754,2023-05-16_14h18.50.083,eb_02psyexp,2022.2.4,99.91308393454328,
227,0,227,0,,,,,,,,,,,,,,,,,,,,,,,,,,,,,,,,,,,,,,,,,,,,,,,,,,,,,,,,,,,467.4767195961904,467.4767195961904,467.4767195961904,467.4767195961904,467.4767195961904,467.4767195961904,l,1,0.49979906680528075,467.9870188514469,469.0172933071153,,,,,,,,,,,,,,,,,,,,,,,,,,,,,,,,,,,,,,,154754,2023-05-16_14h18.50.083,eb_02psyexp,2022.2.4,99.91308393454328,
228,0,228,0,,,,,,,,,,,,,,,,,,,,,,,,,,,,,,,,,,,,,,,,,,,,,,,,,,,,,,,,,,,469.0172933071153,469.0172933071153,469.0172933071153,469.0172933071153,469.0172933071153,469.0172933071153,s,1,0.3751618091482669,469.4075285590952,,,,,,,,,,,,,,,,,,,,,,,,,,,,,,,,,,,,,,,,154754,2023-05-16_14h18.50.083,eb_02psyexp,2022.2.4,99.91308393454328,
229,0,229,0,,,,,,,,,,,,,,,,,,,,,,,,,,,,,,,,,,,,,,,,,,,,,,,,,,,,,,,,,,,470.4281246548053,470.4281246548053,470.4281246548053,470.4281246548053,470.4281246548053,470.4281246548053,l,1,0.43634761357679963,470.87872107035946,471.909016353311,,,,,,,,,,,,,,,,,,,,,,,,,,,,,,,,,,,,,,,154754,2023-05-16_14h18.50.083,eb_02psyexp,2022.2.4,99.91308393454328,
230,0,230,0,,,,,,,,,,,,,,,,,,,,,,,,,,,,,,,,,,,,,,,,,,,,,,,,,,,,,,,,,,,471.909016353311,471.909016353311,471.909016353311,471.909016353311,471.909016353311,471.909016353311,s,1,0.37147386628203094,472.29923711682204,,,,,,,,,,,,,,,,,,,,,,,,,,,,,,,,,,,,,,,,154754,2023-05-16_14h18.50.083,eb_02psyexp,2022.2.4,99.91308393454328,
231,0,231,0,,,,,,,,,,,,,,,,,,,,,,,,,,,,,,,,,,,,,,,,,,,,,,,,,,,,,,,,,,,473.31985947303474,473.31985947303474,473.31985947303474,473.31985947303474,473.31985947303474,473.31985947303474,l,1,0.4486218410311267,473.78044394159224,474.81072865996975,,,,,,,,,,,,,,,,,,,,,,,,,,,,,,,,,,,,,,,154754,2023-05-16_14h18.50.083,eb_02psyexp,2022.2.4,99.91308393454328,
232,0,232,0,,,,,,,,,,,,,,,,,,,,,,,,,,,,,,,,,,,,,,,,,,,,,,,,,,,,,,,,,,,474.81072865996975,474.81072865996975,474.81072865996975,474.81072865996975,474.81072865996975,474.81072865996975,s,1,0.4447835792088881,475.270983211929,,,,,,,,,,,,,,,,,,,,,,,,,,,,,,,,,,,,,,,,154754,2023-05-16_14h18.50.083,eb_02psyexp,2022.2.4,99.91308393454328,
233,0,233,0,,,,,,,,,,,,,,,,,,,,,,,,,,,,,,,,,,,,,,,,,,,,,,,,,,,,,,,,,,,476.29195329372305,476.29195329372305,476.29195329372305,476.29195329372305,476.29195329372305,476.29195329372305,l,1,0.37958263186737895,476.6821544371778,477.71245153120253,,,,,,,,,,,,,,,,,,,,,,,,,,,,,,,,,,,,,,,154754,2023-05-16_14h18.50.083,eb_02psyexp,2022.2.4,99.91308393454328,
234,0,234,0,,,,,,,,,,,,,,,,,,,,,,,,,,,,,,,,,,,,,,,,,,,,,,,,,,,,,,,,,,,477.71245153120253,477.71245153120253,477.71245153120253,477.71245153120253,477.71245153120253,477.71245153120253,s,1,0.3990634101210162,478.1226598707726,479.1432798121823,,,,,,,,,,,,,,,,,,,,,,,,,,,,,,,,,,,,,,,154754,2023-05-16_14h18.50.083,eb_02psyexp,2022.2.4,99.91308393454328,
235,0,235,0,,,,,,,,,,,,,,,,,,,,,,,,,,,,,,,,,,,,,,,,,,,,,,,,,,,,,,,,,,,479.1432798121823,479.1432798121823,479.1432798121823,479.1432798121823,479.1432798121823,479.1432798121823,l,1,0.48026486206799746,479.6335757954512,480.6642076355638,,,,,,,,,,,,,,,,,,,,,,,,,,,,,,,,,,,,,,,154754,2023-05-16_14h18.50.083,eb_02psyexp,2022.2.4,99.91308393454328,
236,0,236,0,,,,,,,,,,,,,,,,,,,,,,,,,,,,,,,,,,,,,,,,,,,,,,,,,,,,,,,,,,,480.6642076355638,480.6642076355638,480.6642076355638,480.6642076355638,480.6642076355638,480.6642076355638,s,1,0.35936867201235145,481.03440279047936,482.0650131996954,,,,,,,,,,,,,,,,,,,,,,,,,,,,,,,,,,,,,,,154754,2023-05-16_14h18.50.083,eb_02psyexp,2022.2.4,99.91308393454328,
237,0,237,0,,,,,,,,,,,,,,,,,,,,,,,,,,,,,,,,,,,,,,,,,,,,,,,,,,,,,,,,,,,482.0650131996954,482.0650131996954,482.0650131996954,482.0650131996954,482.0650131996954,482.0650131996954,s,1,0.38253467658068985,482.46557155263145,483.48583229852375,,,,,,,,,,,,,,,,,,,,,,,,,,,,,,,,,,,,,,,154754,2023-05-16_14h18.50.083,eb_02psyexp,2022.2.4,99.91308393454328,
238,0,238,0,,,,,,,,,,,,,,,,,,,,,,,,,,,,,,,,,,,,,,,,,,,,,,,,,,,,,,,,,,,483.48583229852375,483.48583229852375,483.48583229852375,483.48583229852375,483.48583229852375,483.48583229852375,l,1,0.4977112045744434,483.9965034268098,485.0267449814128,,,,,,,,,,,,,,,,,,,,,,,,,,,,,,,,,,,,,,,154754,2023-05-16_14h18.50.083,eb_02psyexp,2022.2.4,99.91308393454328,
239,0,239,0,,,,,,,,,,,,,,,,,,,,,,,,,,,,,,,,,,,,,,,,,,,,,,,,,,,,,,,,,,,485.0267449814128,485.0267449814128,485.0267449814128,485.0267449814128,485.0267449814128,485.0267449814128,s,1,0.4608408306958154,485.5070393285714,486.5376642263727,,,,,,,,,,,,,,,,,,,,,,,,,,,,,,,,,,,,,,,154754,2023-05-16_14h18.50.083,eb_02psyexp,2022.2.4,99.91308393454328,
240,0,240,0,,,,,,,,,,,,,,,,,,,,,,,,,,,,,,,,,,,,,,,,,,,,,,,,,,,,,,,,,,,486.5376642263727,486.5376642263727,486.5376642263727,486.5376642263727,486.5376642263727,486.5376642263727,s,1,0.4859048370271921,487.03796305297874,488.0685456923675,,,,,,,,,,,,,,,,,,,,,,,,,,,,,,,,,,,,,,,154754,2023-05-16_14h18.50.083,eb_02psyexp,2022.2.4,99.91308393454328,
241,0,241,0,,,,,,,,,,,,,,,,,,,,,,,,,,,,,,,,,,,,,,,,,,,,,,,,,,,,,,,,,,,488.0685456923675,488.0685456923675,488.0685456923675,488.0685456923675,488.0685456923675,488.0685456923675,s,1,0.5310198067454621,488.6188843927812,489.6494866521098,,,,,,,,,,,,,,,,,,,,,,,,,,,,,,,,,,,,,,,154754,2023-05-16_14h18.50.083,eb_02psyexp,2022.2.4,99.91308393454328,
242,0,242,0,,,,,,,,,,,,,,,,,,,,,,,,,,,,,,,,,,,,,,,,,,,,,,,,,,,,,,,,,,,489.6494866521098,489.6494866521098,489.6494866521098,489.6494866521098,489.6494866521098,489.6494866521098,s,1,0.46211250394117087,490.1297471927246,491.16035911114886,,,,,,,,,,,,,,,,,,,,,,,,,,,,,,,,,,,,,,,154754,2023-05-16_14h18.50.083,eb_02psyexp,2022.2.4,99.91308393454328,
243,0,243,0,,,,,,,,,,,,,,,,,,,,,,,,,,,,,,,,,,,,,,,,,,,,,,,,,,,,,,,,,,,491.16035911114886,491.16035911114886,491.16035911114886,491.16035911114886,491.16035911114886,491.16035911114886,s,1,0.4782418964896351,491.6506825622637,492.6712514918763,,,,,,,,,,,,,,,,,,,,,,,,,,,,,,,,,,,,,,,154754,2023-05-16_14h18.50.083,eb_02psyexp,2022.2.4,99.91308393454328,
244,0,244,0,,,,,,,,,,,,,,,,,,,,,,,,,,,,,,,,,,,,,,,,,,,,,,,,,,,,,,,,,,,492.6712514918763,492.6712514918763,492.6712514918763,492.6712514918763,492.6712514918763,492.6712514918763,l,1,0.43135509628336877,493.1215234240517,494.14211831241846,,,,,,,,,,,,,,,,,,,,,,,,,,,,,,,,,,,,,,,154754,2023-05-16_14h18.50.083,eb_02psyexp,2022.2.4,99.91308393454328,
245,0,245,0,,,,,,,,,,,,,,,,,,,,,,,,,,,,,,,,,,,,,,,,,,,,,,,,,,,,,,,,,,,494.14211831241846,494.14211831241846,494.14211831241846,494.14211831241846,494.14211831241846,494.14211831241846,l,1,0.5125354190822691,494.6724471001653,495.7030572075164,,,,,,,,,,,,,,,,,,,,,,,,,,,,,,,,,,,,,,,154754,2023-05-16_14h18.50.083,eb_02psyexp,2022.2.4,99.91308393454328,
246,0,246,0,,,,,,,,,,,,,,,,,,,,,,,,,,,,,,,,,,,,,,,,,,,,,,,,,,,,,,,,,,,495.7030572075164,495.7030572075164,495.7030572075164,495.7030572075164,495.7030572075164,495.7030572075164,s,1,0.4475868142908439,496.1633395291865,497.19391764095053,,,,,,,,,,,,,,,,,,,,,,,,,,,,,,,,,,,,,,,154754,2023-05-16_14h18.50.083,eb_02psyexp,2022.2.4,99.91308393454328,
247,0,247,0,,,,,,,,,,,,,,,,,,,,,,,,,,,,,,,,,,,,,,,,,,,,,,,,,,,,,,,,,,,497.19391764095053,497.19391764095053,497.19391764095053,497.19391764095053,497.19391764095053,497.19391764095053,s,1,0.5007613488705829,497.7142520369962,498.73488193936646,,,,,,,,,,,,,,,,,,,,,,,,,,,,,,,,,,,,,,,154754,2023-05-16_14h18.50.083,eb_02psyexp,2022.2.4,99.91308393454328,
248,0,248,0,,,,,,,,,,,,,,,,,,,,,,,,,,,,,,,,,,,,,,,,,,,,,,,,,,,,,,,,,,,498.73488193936646,498.73488193936646,498.73488193936646,498.73488193936646,498.73488193936646,498.73488193936646,l,1,0.5037677256623283,499.25516170146875,500.28579535265453,,,,,,,,,,,,,,,,,,,,,,,,,,,,,,,,,,,,,,,154754,2023-05-16_14h18.50.083,eb_02psyexp,2022.2.4,99.91308393454328,
249,0,249,0,,,,,,,,,,,,,,,,,,,,,,,,,,,,,,,,,,,,,,,,,,,,,,,,,,,,,,,,,,,500.28579535265453,500.28579535265453,500.28579535265453,500.28579535265453,500.28579535265453,500.28579535265453,s,1,0.6888672651257366,500.98615104693454,502.00675227399915,,,,,,,,,,,,,,,,,,,,,,,,,,,,,,,,,,,,,,,154754,2023-05-16_14h18.50.083,eb_02psyexp,2022.2.4,99.91308393454328,
250,0,250,0,,,,,,,,,,,,,,,,,,,,,,,,,,,,,,,,,,,,,,,,,,,,,,,,,,,,,,,,,,,502.00675227399915,502.00675227399915,502.00675227399915,502.00675227399915,502.00675227399915,502.00675227399915,l,1,0.5519720795564353,502.57709726470057,503.59769245493226,,,,,,,,,,,,,,,,,,,,,,,,,,,,,,,,,,,,,,,154754,2023-05-16_14h18.50.083,eb_02psyexp,2022.2.4,99.91308393454328,
251,0,251,0,,,,,,,,,,,,,,,,,,,,,,,,,,,,,,,,,,,,,,,,,,,,,,,,,,,,,,,,,,,503.59769245493226,503.59769245493226,503.59769245493226,503.59769245493226,503.59769245493226,503.59769245493226,l,1,0.4649552807677537,504.0780049128225,505.0985777664464,,,,,,,,,,,,,,,,,,,,,,,,,,,,,,,,,,,,,,,154754,2023-05-16_14h18.50.083,eb_02psyexp,2022.2.4,99.91308393454328,
252,0,252,0,,,,,,,,,,,,,,,,,,,,,,,,,,,,,,,,,,,,,,,,,,,,,,,,,,,,,,,,,,,505.0985777664464,505.0985777664464,505.0985777664464,505.0985777664464,505.0985777664464,505.0985777664464,l,1,0.5080931653501466,505.61888529825956,506.64949087798595,,,,,,,,,,,,,,,,,,,,,,,,,,,,,,,,,,,,,,,154754,2023-05-16_14h18.50.083,eb_02psyexp,2022.2.4,99.91308393454328,
253,0,253,0,,,,,,,,,,,,,,,,,,,,,,,,,,,,,,,,,,,,,,,,,,,,,,,,,,,,,,,,,,,506.64949087798595,506.64949087798595,506.64949087798595,506.64949087798595,506.64949087798595,506.64949087798595,s,1,0.5081927742576227,507.16984519572,508.19044491357636,,,,,,,,,,,,,,,,,,,,,,,,,,,,,,,,,,,,,,,154754,2023-05-16_14h18.50.083,eb_02psyexp,2022.2.4,99.91308393454328,
254,0,254,0,,,,,,,,,,,,,,,,,,,,,,,,,,,,,,,,,,,,,,,,,,,,,,,,,,,,,,,,,,,508.19044491357636,508.19044491357636,508.19044491357636,508.19044491357636,508.19044491357636,508.19044491357636,l,1,0.5272705892566592,508.73075632110704,509.76133865863085,,,,,,,,,,,,,,,,,,,,,,,,,,,,,,,,,,,,,,,154754,2023-05-16_14h18.50.083,eb_02psyexp,2022.2.4,99.91308393454328,
255,0,255,0,,,,,,,,,,,,,,,,,,,,,,,,,,,,,,,,,,,,,,,,,,,,,,,,,,,,,,,,,,,509.76133865863085,509.76133865863085,509.76133865863085,509.76133865863085,509.76133865863085,509.76133865863085,s,1,0.4683766944799572,510.2416230450617,511.27257272810675,,,,,,,,,,,,,,,,,,,,,,,,,,,,,,,,,,,,,,,154754,2023-05-16_14h18.50.083,eb_02psyexp,2022.2.4,99.91308393454328,
256,0,256,0,,,,,,,,,,,,,,,,,,,,,,,,,,,,,,,,,,,,,,,,,,,,,,,,,,,,,,,,,,,511.27257272810675,511.27257272810675,511.27257272810675,511.27257272810675,511.27257272810675,511.27257272810675,s,1,0.41313089907635003,511.70280878897756,512.7230683274101,,,,,,,,,,,,,,,,,,,,,,,,,,,,,,,,,,,,,,,154754,2023-05-16_14h18.50.083,eb_02psyexp,2022.2.4,99.91308393454328,
257,0,257,0,,,,,,,,,,,,,,,,,,,,,,,,,,,,,,,,,,,,,,,,,,,,,,,,,,,,,,,,,,,512.7230683274101,512.7230683274101,512.7230683274101,512.7230683274101,512.7230683274101,512.7230683274101,l,1,0.43468354165088385,513.173348409473,514.2039600260323,,,,,,,,,,,,,,,,,,,,,,,,,,,,,,,,,,,,,,,154754,2023-05-16_14h18.50.083,eb_02psyexp,2022.2.4,99.91308393454328,
258,0,258,0,,,,,,,,,,,,,,,,,,,,,,,,,,,,,,,,,,,,,,,,,,,,,,,,,,,,,,,,,,,514.2039600260323,514.2039600260323,514.2039600260323,514.2039600260323,514.2039600260323,514.2039600260323,s,1,0.36977991182357073,514.5841800590279,515.6048413532553,,,,,,,,,,,,,,,,,,,,,,,,,,,,,,,,,,,,,,,154754,2023-05-16_14h18.50.083,eb_02psyexp,2022.2.4,99.91308393454328,
259,0,259,0,,,,,,,,,,,,,,,,,,,,,,,,,,,,,,,,,,,,,,,,,,,,,,,,,,,,,,,,,,,515.6048413532553,515.6048413532553,515.6048413532553,515.6048413532553,515.6048413532553,515.6048413532553,l,1,0.4409106053644791,516.0650753797963,517.0956441343296,,,,,,,,,,,,,,,,,,,,,,,,,,,,,,,,,,,,,,,154754,2023-05-16_14h18.50.083,eb_02psyexp,2022.2.4,99.91308393454328,
260,0,260,0,,,,,,,,,,,,,,,,,,,,,,,,,,,,,,,,,,,,,,,,,,,,,,,,,,,,,,,,,,,517.0956441343296,517.0956441343296,517.0956441343296,517.0956441343296,517.0956441343296,517.0956441343296,s,1,0.35014700365718454,517.4558805152774,518.4767974722199,,,,,,,,,,,,,,,,,,,,,,,,,,,,,,,,,,,,,,,154754,2023-05-16_14h18.50.083,eb_02psyexp,2022.2.4,99.91308393454328,
261,0,261,0,,,,,,,,,,,,,,,,,,,,,,,,,,,,,,,,,,,,,,,,,,,,,,,,,,,,,,,,,,,518.4767974722199,518.4767974722199,518.4767974722199,518.4767974722199,518.4767974722199,518.4767974722199,l,1,0.4809835552005097,518.9770911674714,520.0073758858489,,,,,,,,,,,,,,,,,,,,,,,,,,,,,,,,,,,,,,,154754,2023-05-16_14h18.50.083,eb_02psyexp,2022.2.4,99.91308393454328,
262,0,262,0,,,,,,,,,,,,,,,,,,,,,,,,,,,,,,,,,,,,,,,,,,,,,,,,,,,,,,,,,,,520.0073758858489,520.0073758858489,520.0073758858489,520.0073758858489,520.0073758858489,520.0073758858489,s,1,0.45437681884504855,520.477650788147,,,,,,,,,,,,,,,,,,,,,,,,,,,,,,,,,,,,,,,,154754,2023-05-16_14h18.50.083,eb_02psyexp,2022.2.4,99.91308393454328,
263,0,263,0,,,,,,,,,,,,,,,,,,,,,,,,,,,,,,,,,,,,,,,,,,,,,,,,,,,,,,,,,,,521.4985595954349,521.4985595954349,521.4985595954349,521.4985595954349,521.4985595954349,521.4985595954349,l,1,0.3782481749076396,521.8888117506867,522.9090827592881,,,,,,,,,,,,,,,,,,,,,,,,,,,,,,,,,,,,,,,154754,2023-05-16_14h18.50.083,eb_02psyexp,2022.2.4,99.91308393454328,
264,0,264,0,,,,,,,,,,,,,,,,,,,,,,,,,,,,,,,,,,,,,,,,,,,,,,,,,,,,,,,,,,,522.9090827592881,522.9090827592881,522.9090827592881,522.9090827592881,522.9090827592881,522.9090827592881,l,1,0.45570252230390906,523.3793597745243,,,,,,,,,,,,,,,,,,,,,,,,,,,,,,,,,,,,,,,,154754,2023-05-16_14h18.50.083,eb_02psyexp,2022.2.4,99.91308393454328,
265,0,265,0,,,,,,,,,,,,,,,,,,,,,,,,,,,,,,,,,,,,,,,,,,,,,,,,,,,,,,,,,,,524.4002770334482,524.4002770334482,524.4002770334482,524.4002770334482,524.4002770334482,524.4002770334482,l,1,0.5405789379728958,524.9606131438632,526.0509496347513,,,,,,,,,,,,,,,,,,,,,,,,,,,,,,,,,,,,,,,154754,2023-05-16_14h18.50.083,eb_02psyexp,2022.2.4,99.91308393454328,
266,0,266,0,,,,,,,,,,,,,,,,,,,,,,,,,,,,,,,,,,,,,,,,,,,,,,,,,,,,,,,,,,,526.0509496347513,526.0509496347513,526.0509496347513,526.0509496347513,526.0509496347513,526.0509496347513,l,1,0.4258225781377405,526.4911927648354,,,,,,,,,,,,,,,,,,,,,,,,,,,,,,,,,,,,,,,,154754,2023-05-16_14h18.50.083,eb_02psyexp,2022.2.4,99.91308393454328,
267,0,267,0,,,,,,,,,,,,,,,,,,,,,,,,,,,,,,,,,,,,,,,,,,,,,,,,,,,,,,,,,,,527.5221373165259,527.5221373165259,527.5221373165259,527.5221373165259,527.5221373165259,527.5221373165259,l,1,0.46668032521847636,528.0024026866304,529.0227473453851,,,,,,,,,,,,,,,,,,,,,,,,,,,,,,,,,,,,,,,154754,2023-05-16_14h18.50.083,eb_02psyexp,2022.2.4,99.91308393454328,
268,0,268,0,,,,,,,,,,,,,,,,,,,,,,,,,,,,,,,,,,,,,,,,,,,,,,,,,,,,,,,,,,,529.0227473453851,529.0227473453851,529.0227473453851,529.0227473453851,529.0227473453851,529.0227473453851,s,1,0.3980579641647637,529.4329393852968,530.4538533238228,,,,,,,,,,,,,,,,,,,,,,,,,,,,,,,,,,,,,,,154754,2023-05-16_14h18.50.083,eb_02psyexp,2022.2.4,99.91308393454328,
269,0,269,0,,,,,,,,,,,,,,,,,,,,,,,,,,,,,,,,,,,,,,,,,,,,,,,,,,,,,,,,,,,530.4538533238228,530.4538533238228,530.4538533238228,530.4538533238228,530.4538533238228,530.4538533238228,s,1,0.4949779976159334,530.9641625399236,531.9844579979545,,,,,,,,,,,,,,,,,,,,,,,,,,,,,,,,,,,,,,,154754,2023-05-16_14h18.50.083,eb_02psyexp,2022.2.4,99.91308393454328,
270,0,270,0,,,,,,,,,,,,,,,,,,,,,,,,,,,,,,,,,,,,,,,,,,,,,,,,,,,,,,,,,,,531.9844579979545,531.9844579979545,531.9844579979545,531.9844579979545,531.9844579979545,531.9844579979545,l,1,0.5643863631412387,532.5647563295206,533.5853551417822,,,,,,,,,,,,,,,,,,,,,,,,,,,,,,,,,,,,,,,154754,2023-05-16_14h18.50.083,eb_02psyexp,2022.2.4,99.91308393454328,
271,0,271,0,,,,,,,,,,,,,,,,,,,,,,,,,,,,,,,,,,,,,,,,,,,,,,,,,,,,,,,,,,,533.5853551417822,533.5853551417822,533.5853551417822,533.5853551417822,533.5853551417822,533.5853551417822,s,1,0.41951673303265125,534.0156225946266,535.036254609935,,,,,,,,,,,,,,,,,,,,,,,,,,,,,,,,,,,,,,,154754,2023-05-16_14h18.50.083,eb_02psyexp,2022.2.4,99.91308393454328,
272,0,272,0,,,,,,,,,,,,,,,,,,,,,,,,,,,,,,,,,,,,,,,,,,,,,,,,,,,,,,,,,,,535.036254609935,535.036254609935,535.036254609935,535.036254609935,535.036254609935,535.036254609935,l,1,0.3445954694179818,535.3964333384065,,,,,,,,,,,,,,,,,,,,,,,,,,,,,,,,,,,,,,,,154754,2023-05-16_14h18.50.083,eb_02psyexp,2022.2.4,99.91308393454328,
