trials.thisRepN,trials.thisTrialN,trials.thisN,trials.thisIndex,image_loop.thisRepN,image_loop.thisTrialN,image_loop.thisN,image_loop.thisIndex,break_loop.thisRepN,break_loop.thisTrialN,break_loop.thisN,break_loop.thisIndex,test_trials.thisRepN,test_trials.thisTrialN,test_trials.thisN,test_trials.thisIndex,distance matrix,tools,welcome_text.started,instructions_0_keypress.started,instructions_0_keypress.keys,instructions_0_keypress.rt,consent_image_0.started,consent0_key_resp.started,consent0_text.started,consent0_key_resp.keys,consent0_key_resp.rt,consent_image_1.started,consent1_key_resp.started,consent1_text.started,consent1_key_resp.keys,consent1_key_resp.rt,consent2_text.started,consent_image_2.started,consent2_key_resp.started,consent2_key_resp.keys,consent2_key_resp.rt,agree_button.started,disagree_button.started,consent_image_3.started,agree_button.numClicks,agree_button.timesOn,agree_button.timesOff,disagree_button.numClicks,disagree_button.timesOn,disagree_button.timesOff,instructions_text1.started,instructions1_key_resp.started,instr1_cnt_text.started,instructions1_key_resp.keys,instructions1_key_resp.rt,instructions_text2.started,instr2_cnt_text.started,instructions2_key_resp.started,instructions2_key_resp.keys,instructions2_key_resp.rt,instructions_text3.started,instructions3_key_resp.started,instr3_cnt_text.started,instructions3_key_resp.keys,instructions3_key_resp.rt,text_countdown.started,image.started,small_large_keyresp.started,task_question_text.started,smalleroption_text.started,largeroption_text.started,accuracy_score_text.started,small_large_keyresp.keys,small_large_keyresp.corr,small_large_keyresp.rt,fb_2.started,fb_2.stopped,break_text.started,break_key_resp.started,break_key_resp.keys,break_key_resp.rt,reveal_seq_text.started,start_test_text.started,continue_to_test.started,continue_to_test.keys,continue_to_test.rt,test_structure_info.started,start_test_text_2.started,continue_to_test_2.started,continue_to_test_2.keys,continue_to_test_2.rt,test_cntdown_text.started,parent index,left child index,right child index,left distance,right distance,parent_image.started,top_image_text.started,left_child_image.started,right_child_image.started,path_resp.started,child_choice_text.started,left_choice_text.started,right_choice_text.started,path_resp.keys,path_resp.rt,participant,date,expName,psychopyVersion,frameRate,
,,,,,,,,,,,,,,,,"[[0. 1. 1. 2. 2. 3. 4. 5. 5. 6. 6. 7.]
 [1. 0. 2. 1. 1. 2. 3. 4. 4. 5. 5. 6.]
 [1. 2. 0. 1. 1. 2. 3. 4. 4. 5. 5. 6.]
 [2. 1. 1. 0. 1. 1. 2. 3. 3. 4. 4. 5.]
 [2. 1. 1. 1. 0. 1. 2. 3. 3. 4. 4. 5.]
 [3. 2. 2. 1. 1. 0. 1. 2. 2. 3. 3. 4.]
 [4. 3. 3. 2. 2. 1. 0. 1. 1. 2. 2. 3.]
 [5. 4. 4. 3. 3. 2. 1. 0. 1. 1. 1. 2.]
 [5. 4. 4. 3. 3. 2. 1. 1. 0. 1. 1. 2.]
 [6. 5. 5. 4. 4. 3. 2. 1. 1. 0. 2. 1.]
 [6. 5. 5. 4. 4. 3. 2. 1. 1. 2. 0. 1.]
 [7. 6. 6. 5. 5. 4. 3. 2. 2. 1. 1. 0.]]",[ 8  5  0  9  6  3  2  4  1 10 11  7],9.857705159462057,9.857705159462057,return,43.41819871100597,,,,,,,,,,,,,,,,,,,,,,,,,,,,,,,,,,,,,,,,,,,,,,,,,,,,,,,,,,,,,,,,,,,,,,,,,,,,,,,,,,189071,2023-05-16_15h06.27.276,eb_02psyexp,2022.2.4,119.98471631706022,
,,,,,,,,,,,,,,,,,,,,,,53.28586318367161,53.28586318367161,53.28586318367161,space,17.997388305608183,,,,,,,,,,,,,,,,,,,,,,,,,,,,,,,,,,,,,,,,,,,,,,,,,,,,,,,,,,,,,,,,,,,,,,,,,,,,,189071,2023-05-16_15h06.27.276,eb_02psyexp,2022.2.4,119.98471631706022,
,,,,,,,,,,,,,,,,,,,,,,,,,,,71.29564944410231,71.29564944410231,71.29564944410231,space,29.154155015246943,,,,,,,,,,,,,,,,,,,,,,,,,,,,,,,,,,,,,,,,,,,,,,,,,,,,,,,,,,,,,,,,,,,,,,,,189071,2023-05-16_15h06.27.276,eb_02psyexp,2022.2.4,119.98471631706022,
,,,,,,,,,,,,,,,,,,,,,,,,,,,,,,,,100.46473402529955,100.46473402529955,100.46473402529955,space,5.673199601471424,,,,,,,,,,,,,,,,,,,,,,,,,,,,,,,,,,,,,,,,,,,,,,,,,,,,,,,,,,,,,,,,,,,189071,2023-05-16_15h06.27.276,eb_02psyexp,2022.2.4,119.98471631706022,
,,,,,,,,,,,,,,,,,,,,,,,,,,,,,,,,,,,,,106.15687628090382,106.15687628090382,106.15687628090382,1,[8.60880857007578],[8.608812795951962],0,,,114.75760585104581,116.74943146656733,116.74943146656733,space,1.0037404251052067,,,,,,,,,,,,,,,,,,,,,,,,,,,,,,,,,,,,,,,,,,,,,,,,,,,,,189071,2023-05-16_15h06.27.276,eb_02psyexp,2022.2.4,119.98471631706022,
,,,,,,,,,,,,,,,,,,,,,,,,,,,,,,,,,,,,,,,,,,,,,,,,,,,117.76618924143258,120.75810239335988,120.75810239335988,space,13.450447096955031,,,,,,,,,,,,,,,,,,,,,,,,,,,,,,,,,,,,,,,,,,,,,,,,189071,2023-05-16_15h06.27.276,eb_02psyexp,2022.2.4,119.98471631706022,
,,,,,,,,,,,,,,,,,,,,,,,,,,,,,,,,,,,,,,,,,,,,,,,,,,,,,,,,134.2175899737049,137.2094922590768,137.2094922590768,space,14.102366104722023,,,,,,,,,,,,,,,,,,,,,,,,,,,,,,,,,,,,,,,,,,,189071,2023-05-16_15h06.27.276,eb_02psyexp,2022.2.4,119.98471631706022,
0,0,0,0,,,,,,,,,,,,,,,,,,,,,,,,,,,,,,,,,,,,,,,,,,,,,,,,,,,,,,,,,,151.344029870932,156.37778840959072,156.37778840959072,156.37778840959072,156.37778840959072,156.37778840959072,156.37778840959072,l,1,0.9651839898433536,157.3528719464084,158.38630267651752,,,,,,,,,,,,,,,,,,,,,,,,,,,,,,,189071,2023-05-16_15h06.27.276,eb_02psyexp,2022.2.4,119.98471631706022,
1,0,1,0,,,,,,,,,,,,,,,,,,,,,,,,,,,,,,,,,,,,,,,,,,,,,,,,,,,,,,,,,,,158.38630267651752,158.38630267651752,158.38630267651752,158.38630267651752,158.38630267651752,158.38630267651752,s,1,0.5567146985558793,158.95299298805185,159.97811289771926,,,,,,,,,,,,,,,,,,,,,,,,,,,,,,,189071,2023-05-16_15h06.27.276,eb_02psyexp,2022.2.4,119.98471631706022,
2,0,2,0,,,,,,,,,,,,,,,,,,,,,,,,,,,,,,,,,,,,,,,,,,,,,,,,,,,,,,,,,,,159.97811289771926,159.97811289771926,159.97811289771926,159.97811289771926,159.97811289771926,159.97811289771926,l,1,0.500946506857872,160.49480486940593,161.52822503470816,,,,,,,,,,,,,,,,,,,,,,,,,,,,,,,189071,2023-05-16_15h06.27.276,eb_02psyexp,2022.2.4,119.98471631706022,
3,0,3,0,,,,,,,,,,,,,,,,,,,,,,,,,,,,,,,,,,,,,,,,,,,,,,,,,,,,,,,,,,,161.52822503470816,161.52822503470816,161.52822503470816,161.52822503470816,161.52822503470816,161.52822503470816,l,1,0.854855305980891,162.394966358901,163.42009079630952,,,,,,,,,,,,,,,,,,,,,,,,,,,,,,,189071,2023-05-16_15h06.27.276,eb_02psyexp,2022.2.4,119.98471631706022,
4,0,4,0,,,,,,,,,,,,,,,,,,,,,,,,,,,,,,,,,,,,,,,,,,,,,,,,,,,,,,,,,,,163.42009079630952,163.42009079630952,163.42009079630952,163.42009079630952,163.42009079630952,163.42009079630952,l,1,0.4830190653447062,163.91176186490338,164.94520255597308,,,,,,,,,,,,,,,,,,,,,,,,,,,,,,,189071,2023-05-16_15h06.27.276,eb_02psyexp,2022.2.4,119.98471631706022,
5,0,5,0,,,,,,,,,,,,,,,,,,,,,,,,,,,,,,,,,,,,,,,,,,,,,,,,,,,,,,,,,,,164.94520255597308,164.94520255597308,164.94520255597308,164.94520255597308,164.94520255597308,164.94520255597308,l,1,0.7019465339835733,165.6619120349642,166.6953605741728,,,,,,,,,,,,,,,,,,,,,,,,,,,,,,,189071,2023-05-16_15h06.27.276,eb_02psyexp,2022.2.4,119.98471631706022,
6,0,6,0,,,,,,,,,,,,,,,,,,,,,,,,,,,,,,,,,,,,,,,,,,,,,,,,,,,,,,,,,,,166.6953605741728,166.6953605741728,166.6953605741728,166.6953605741728,166.6953605741728,166.6953605741728,s,1,0.3678435852052644,167.07869878748897,168.11212921561673,,,,,,,,,,,,,,,,,,,,,,,,,,,,,,,189071,2023-05-16_15h06.27.276,eb_02psyexp,2022.2.4,119.98471631706022,
7,0,7,0,,,,,,,,,,,,,,,,,,,,,,,,,,,,,,,,,,,,,,,,,,,,,,,,,,,,,,,,,,,168.11212921561673,168.11212921561673,168.11212921561673,168.11212921561673,168.11212921561673,168.11212921561673,l,1,0.46303421817719936,168.58716536208522,169.6122587090358,,,,,,,,,,,,,,,,,,,,,,,,,,,,,,,189071,2023-05-16_15h06.27.276,eb_02psyexp,2022.2.4,119.98471631706022,
8,0,8,0,,,,,,,,,,,,,,,,,,,,,,,,,,,,,,,,,,,,,,,,,,,,,,,,,,,,,,,,,,,169.6122587090358,169.6122587090358,169.6122587090358,169.6122587090358,169.6122587090358,169.6122587090358,l,1,0.458976456313394,170.08729002589826,171.112410237547,,,,,,,,,,,,,,,,,,,,,,,,,,,,,,,189071,2023-05-16_15h06.27.276,eb_02psyexp,2022.2.4,119.98471631706022,
9,0,9,0,,,,,,,,,,,,,,,,,,,,,,,,,,,,,,,,,,,,,,,,,,,,,,,,,,,,,,,,,,,171.112410237547,171.112410237547,171.112410237547,171.112410237547,171.112410237547,171.112410237547,s,1,0.8299098652787507,171.95411526423413,172.98754267394543,,,,,,,,,,,,,,,,,,,,,,,,,,,,,,,189071,2023-05-16_15h06.27.276,eb_02psyexp,2022.2.4,119.98471631706022,
10,0,10,0,,,,,,,,,,,,,,,,,,,,,,,,,,,,,,,,,,,,,,,,,,,,,,,,,,,,,,,,,,,172.98754267394543,172.98754267394543,172.98754267394543,172.98754267394543,172.98754267394543,172.98754267394543,l,1,0.7947588952956721,173.79593982326332,174.82936904404778,,,,,,,,,,,,,,,,,,,,,,,,,,,,,,,189071,2023-05-16_15h06.27.276,eb_02psyexp,2022.2.4,119.98471631706022,
11,0,11,0,,,,,,,,,,,,,,,,,,,,,,,,,,,,,,,,,,,,,,,,,,,,,,,,,,,,,,,,,,,174.82936904404778,174.82936904404778,174.82936904404778,174.82936904404778,174.82936904404778,174.82936904404778,s,1,1.3049713671207428,176.14614160964265,177.17956811375916,,,,,,,,,,,,,,,,,,,,,,,,,,,,,,,189071,2023-05-16_15h06.27.276,eb_02psyexp,2022.2.4,119.98471631706022,
12,0,12,0,,,,,,,,,,,,,,,,,,,,,,,,,,,,,,,,,,,,,,,,,,,,,,,,,,,,,,,,,,,177.17956811375916,177.17956811375916,177.17956811375916,177.17956811375916,177.17956811375916,177.17956811375916,l,1,0.5548202914651483,177.7462771399878,178.77969006099738,,,,,,,,,,,,,,,,,,,,,,,,,,,,,,,189071,2023-05-16_15h06.27.276,eb_02psyexp,2022.2.4,119.98471631706022,
13,0,13,0,,,,,,,,,,,,,,,,,,,,,,,,,,,,,,,,,,,,,,,,,,,,,,,,,,,,,,,,,,,178.77969006099738,178.77969006099738,178.77969006099738,178.77969006099738,178.77969006099738,178.77969006099738,s,1,0.7867124950280413,179.57976612704806,180.61319564969745,,,,,,,,,,,,,,,,,,,,,,,,,,,,,,,189071,2023-05-16_15h06.27.276,eb_02psyexp,2022.2.4,119.98471631706022,
14,0,14,0,,,,,,,,,,,,,,,,,,,,,,,,,,,,,,,,,,,,,,,,,,,,,,,,,,,,,,,,,,,180.61319564969745,180.61319564969745,180.61319564969745,180.61319564969745,180.61319564969745,180.61319564969745,l,1,0.39324994990602136,181.02157529175747,182.05499455158133,,,,,,,,,,,,,,,,,,,,,,,,,,,,,,,189071,2023-05-16_15h06.27.276,eb_02psyexp,2022.2.4,119.98471631706022,
15,0,15,0,,,,,,,,,,,,,,,,,,,,,,,,,,,,,,,,,,,,,,,,,,,,,,,,,,,,,,,,,,,182.05499455158133,182.05499455158133,182.05499455158133,182.05499455158133,182.05499455158133,182.05499455158133,s,1,0.4314825008623302,182.49668508954346,183.52177813462913,,,,,,,,,,,,,,,,,,,,,,,,,,,,,,,189071,2023-05-16_15h06.27.276,eb_02psyexp,2022.2.4,119.98471631706022,
16,0,16,0,,,,,,,,,,,,,,,,,,,,,,,,,,,,,,,,,,,,,,,,,,,,,,,,,,,,,,,,,,,183.52177813462913,183.52177813462913,183.52177813462913,183.52177813462913,183.52177813462913,183.52177813462913,s,1,1.2687690554885194,184.8052126377588,185.83863521798048,,,,,,,,,,,,,,,,,,,,,,,,,,,,,,,189071,2023-05-16_15h06.27.276,eb_02psyexp,2022.2.4,119.98471631706022,
17,0,17,0,,,,,,,,,,,,,,,,,,,,,,,,,,,,,,,,,,,,,,,,,,,,,,,,,,,,,,,,,,,185.83863521798048,185.83863521798048,185.83863521798048,185.83863521798048,185.83863521798048,185.83863521798048,s,1,0.4719282117439434,186.32202142523602,187.34709998150356,,,,,,,,,,,,,,,,,,,,,,,,,,,,,,,189071,2023-05-16_15h06.27.276,eb_02psyexp,2022.2.4,119.98471631706022,
18,0,18,0,,,,,,,,,,,,,,,,,,,,,,,,,,,,,,,,,,,,,,,,,,,,,,,,,,,,,,,,,,,187.34709998150356,187.34709998150356,187.34709998150356,187.34709998150356,187.34709998150356,187.34709998150356,l,1,0.450524068553932,187.81380327267107,188.8388839418767,,,,,,,,,,,,,,,,,,,,,,,,,,,,,,,189071,2023-05-16_15h06.27.276,eb_02psyexp,2022.2.4,119.98471631706022,
19,0,19,0,,,,,,,,,,,,,,,,,,,,,,,,,,,,,,,,,,,,,,,,,,,,,,,,,,,,,,,,,,,188.8388839418767,188.8388839418767,188.8388839418767,188.8388839418767,188.8388839418767,188.8388839418767,s,1,0.9827492119511589,189.83064737648237,190.85574193077628,,,,,,,,,,,,,,,,,,,,,,,,,,,,,,,189071,2023-05-16_15h06.27.276,eb_02psyexp,2022.2.4,119.98471631706022,
20,0,20,0,,,,,,,,,,,,,,,,,,,,,,,,,,,,,,,,,,,,,,,,,,,,,,,,,,,,,,,,,,,190.85574193077628,190.85574193077628,190.85574193077628,190.85574193077628,190.85574193077628,190.85574193077628,l,1,0.5899283988401294,191.4558134691324,192.48922850296367,,,,,,,,,,,,,,,,,,,,,,,,,,,,,,,189071,2023-05-16_15h06.27.276,eb_02psyexp,2022.2.4,119.98471631706022,
21,0,21,0,,,,,,,,,,,,,,,,,,,,,,,,,,,,,,,,,,,,,,,,,,,,,,,,,,,,,,,,,,,192.48922850296367,192.48922850296367,192.48922850296367,192.48922850296367,192.48922850296367,192.48922850296367,l,1,0.5404640306951478,193.03925250004977,194.06435158208478,,,,,,,,,,,,,,,,,,,,,,,,,,,,,,,189071,2023-05-16_15h06.27.276,eb_02psyexp,2022.2.4,119.98471631706022,
22,0,22,0,,,,,,,,,,,,,,,,,,,,,,,,,,,,,,,,,,,,,,,,,,,,,,,,,,,,,,,,,,,194.06435158208478,194.06435158208478,194.06435158208478,194.06435158208478,194.06435158208478,194.06435158208478,s,1,0.48534481518436223,194.56438508734573,195.58947994362097,,,,,,,,,,,,,,,,,,,,,,,,,,,,,,,189071,2023-05-16_15h06.27.276,eb_02psyexp,2022.2.4,119.98471631706022,
23,0,23,0,,,,,,,,,,,,,,,,,,,,,,,,,,,,,,,,,,,,,,,,,,,,,,,,,,,,,,,,,,,195.58947994362097,195.58947994362097,195.58947994362097,195.58947994362097,195.58947994362097,195.58947994362097,l,1,0.4243132750270888,196.02283822977915,197.05627077096142,,,,,,,,,,,,,,,,,,,,,,,,,,,,,,,189071,2023-05-16_15h06.27.276,eb_02psyexp,2022.2.4,119.98471631706022,
24,0,24,0,,,,,,,,,,,,,,,,,,,,,,,,,,,,,,,,,,,,,,,,,,,,,,,,,,,,,,,,,,,197.05627077096142,197.05627077096142,197.05627077096142,197.05627077096142,197.05627077096142,197.05627077096142,s,1,0.4295165555085987,197.49796674214303,198.5230564669473,,,,,,,,,,,,,,,,,,,,,,,,,,,,,,,189071,2023-05-16_15h06.27.276,eb_02psyexp,2022.2.4,119.98471631706022,
25,0,25,0,,,,,,,,,,,,,,,,,,,,,,,,,,,,,,,,,,,,,,,,,,,,,,,,,,,,,,,,,,,198.5230564669473,198.5230564669473,198.5230564669473,198.5230564669473,198.5230564669473,198.5230564669473,l,1,0.4027428128756583,198.9397587014828,199.9648611039156,,,,,,,,,,,,,,,,,,,,,,,,,,,,,,,189071,2023-05-16_15h06.27.276,eb_02psyexp,2022.2.4,119.98471631706022,
26,0,26,0,,,,,,,,,,,,,,,,,,,,,,,,,,,,,,,,,,,,,,,,,,,,,,,,,,,,,,,,,,,199.9648611039156,199.9648611039156,199.9648611039156,199.9648611039156,199.9648611039156,199.9648611039156,s,1,0.37697936000768095,200.35654454841278,201.38164332858287,,,,,,,,,,,,,,,,,,,,,,,,,,,,,,,189071,2023-05-16_15h06.27.276,eb_02psyexp,2022.2.4,119.98471631706022,
27,0,27,0,,,,,,,,,,,,,,,,,,,,,,,,,,,,,,,,,,,,,,,,,,,,,,,,,,,,,,,,,,,201.38164332858287,201.38164332858287,201.38164332858287,201.38164332858287,201.38164332858287,201.38164332858287,l,1,0.4482215610332787,201.84001225500833,202.87343634443823,,,,,,,,,,,,,,,,,,,,,,,,,,,,,,,189071,2023-05-16_15h06.27.276,eb_02psyexp,2022.2.4,119.98471631706022,
28,0,28,0,,,,,,,,,,,,,,,,,,,,,,,,,,,,,,,,,,,,,,,,,,,,,,,,,,,,,,,,,,,202.87343634443823,202.87343634443823,202.87343634443823,202.87343634443823,202.87343634443823,202.87343634443823,s,1,0.3634715980151668,203.24845558730885,204.28190020250622,,,,,,,,,,,,,,,,,,,,,,,,,,,,,,,189071,2023-05-16_15h06.27.276,eb_02psyexp,2022.2.4,119.98471631706022,
29,0,29,0,,,,,,,,,,,,,,,,,,,,,,,,,,,,,,,,,,,,,,,,,,,,,,,,,,,,,,,,,,,204.28190020250622,204.28190020250622,204.28190020250622,204.28190020250622,204.28190020250622,204.28190020250622,l,1,0.4190227600047365,204.7152518479852,205.74867563555017,,,,,,,,,,,,,,,,,,,,,,,,,,,,,,,189071,2023-05-16_15h06.27.276,eb_02psyexp,2022.2.4,119.98471631706022,
30,0,30,0,,,,,,,,,,,,,,,,,,,,,,,,,,,,,,,,,,,,,,,,,,,,,,,,,,,,,,,,,,,205.74867563555017,205.74867563555017,205.74867563555017,205.74867563555017,205.74867563555017,205.74867563555017,s,1,0.3522642304887995,206.1153719840804,207.14046140701976,,,,,,,,,,,,,,,,,,,,,,,,,,,,,,,189071,2023-05-16_15h06.27.276,eb_02psyexp,2022.2.4,119.98471631706022,
31,0,31,0,,,,,,,,,,,,,,,,,,,,,,,,,,,,,,,,,,,,,,,,,,,,,,,,,,,,,,,,,,,207.14046140701976,207.14046140701976,207.14046140701976,207.14046140701976,207.14046140701976,207.14046140701976,l,1,0.41652978549245745,207.56549649697263,208.59892873628996,,,,,,,,,,,,,,,,,,,,,,,,,,,,,,,189071,2023-05-16_15h06.27.276,eb_02psyexp,2022.2.4,119.98471631706022,
32,0,32,0,,,,,,,,,,,,,,,,,,,,,,,,,,,,,,,,,,,,,,,,,,,,,,,,,,,,,,,,,,,208.59892873628996,208.59892873628996,208.59892873628996,208.59892873628996,208.59892873628996,208.59892873628996,s,1,0.39807380572892725,209.00728664523922,210.03237486071885,,,,,,,,,,,,,,,,,,,,,,,,,,,,,,,189071,2023-05-16_15h06.27.276,eb_02psyexp,2022.2.4,119.98471631706022,
33,0,33,0,,,,,,,,,,,,,,,,,,,,,,,,,,,,,,,,,,,,,,,,,,,,,,,,,,,,,,,,,,,210.03237486071885,210.03237486071885,210.03237486071885,210.03237486071885,210.03237486071885,210.03237486071885,l,0,0.4366414095275104,210.4824172705412,211.50748737505637,,,,,,,,,,,,,,,,,,,,,,,,,,,,,,,189071,2023-05-16_15h06.27.276,eb_02psyexp,2022.2.4,119.98471631706022,
34,0,34,0,,,,,,,,,,,,,,,,,,,,,,,,,,,,,,,,,,,,,,,,,,,,,,,,,,,,,,,,,,,211.50748737505637,211.50748737505637,211.50748737505637,211.50748737505637,211.50748737505637,211.50748737505637,s,1,1.1055971010355279,212.62429525703192,213.64935057086404,,,,,,,,,,,,,,,,,,,,,,,,,,,,,,,189071,2023-05-16_15h06.27.276,eb_02psyexp,2022.2.4,119.98471631706022,
35,0,35,0,,,,,,,,,,,,,,,,,,,,,,,,,,,,,,,,,,,,,,,,,,,,,,,,,,,,,,,,,,,213.64935057086404,213.64935057086404,213.64935057086404,213.64935057086404,213.64935057086404,213.64935057086404,s,0,1.371790568344295,215.03280469437595,216.06624900759198,,,,,,,,,,,,,,,,,,,,,,,,,,,,,,,189071,2023-05-16_15h06.27.276,eb_02psyexp,2022.2.4,119.98471631706022,
36,0,36,0,,,,,,,,,,,,,,,,,,,,,,,,,,,,,,,,,,,,,,,,,,,,,,,,,,,,,,,,,,,216.06624900759198,216.06624900759198,216.06624900759198,216.06624900759198,216.06624900759198,216.06624900759198,s,1,1.4420327421976253,217.52468917053193,218.54142551403493,,,,,,,,,,,,,,,,,,,,,,,,,,,,,,,189071,2023-05-16_15h06.27.276,eb_02psyexp,2022.2.4,119.98471631706022,
37,0,37,0,,,,,,,,,,,,,,,,,,,,,,,,,,,,,,,,,,,,,,,,,,,,,,,,,,,,,,,,,,,218.54142551403493,218.54142551403493,218.54142551403493,218.54142551403493,218.54142551403493,218.54142551403493,l,1,0.9428118156502023,219.4998647713801,220.52492702787276,,,,,,,,,,,,,,,,,,,,,,,,,,,,,,,189071,2023-05-16_15h06.27.276,eb_02psyexp,2022.2.4,119.98471631706022,
38,0,38,0,,,,,,,,,,,,,,,,,,,,,,,,,,,,,,,,,,,,,,,,,,,,,,,,,,,,,,,,,,,220.52492702787276,220.52492702787276,220.52492702787276,220.52492702787276,220.52492702787276,220.52492702787276,s,1,0.5753780489321798,221.11665876826737,222.13341110979673,,,,,,,,,,,,,,,,,,,,,,,,,,,,,,,189071,2023-05-16_15h06.27.276,eb_02psyexp,2022.2.4,119.98471631706022,
39,0,39,0,,,,,,,,,,,,,,,,,,,,,,,,,,,,,,,,,,,,,,,,,,,,,,,,,,,,,,,,,,,222.13341110979673,222.13341110979673,222.13341110979673,222.13341110979673,222.13341110979673,222.13341110979673,l,1,1.0868549679871649,223.23349381657317,224.2502325749956,,,,,,,,,,,,,,,,,,,,,,,,,,,,,,,189071,2023-05-16_15h06.27.276,eb_02psyexp,2022.2.4,119.98471631706022,
40,0,40,0,,,,,,,,,,,,,,,,,,,,,,,,,,,,,,,,,,,,,,,,,,,,,,,,,,,,,,,,,,,224.2502325749956,224.2502325749956,224.2502325749956,224.2502325749956,224.2502325749956,224.2502325749956,s,1,1.0900998493889347,225.35036025731824,226.36709478974808,,,,,,,,,,,,,,,,,,,,,,,,,,,,,,,189071,2023-05-16_15h06.27.276,eb_02psyexp,2022.2.4,119.98471631706022,
41,0,41,0,,,,,,,,,,,,,,,,,,,,,,,,,,,,,,,,,,,,,,,,,,,,,,,,,,,,,,,,,,,226.36709478974808,226.36709478974808,226.36709478974808,226.36709478974808,226.36709478974808,226.36709478974808,l,1,1.1732955896295607,227.5505431779893,228.5756353175966,,,,,,,,,,,,,,,,,,,,,,,,,,,,,,,189071,2023-05-16_15h06.27.276,eb_02psyexp,2022.2.4,119.98471631706022,
42,0,42,0,,,,,,,,,,,,,,,,,,,,,,,,,,,,,,,,,,,,,,,,,,,,,,,,,,,,,,,,,,,228.5756353175966,228.5756353175966,228.5756353175966,228.5756353175966,228.5756353175966,228.5756353175966,s,1,0.4847613403107971,229.07567727460992,230.10076730127912,,,,,,,,,,,,,,,,,,,,,,,,,,,,,,,189071,2023-05-16_15h06.27.276,eb_02psyexp,2022.2.4,119.98471631706022,
43,0,43,0,,,,,,,,,,,,,,,,,,,,,,,,,,,,,,,,,,,,,,,,,,,,,,,,,,,,,,,,,,,230.10076730127912,230.10076730127912,230.10076730127912,230.10076730127912,230.10076730127912,230.10076730127912,l,1,0.6476945319445804,230.75915403675754,231.7759106042795,,,,,,,,,,,,,,,,,,,,,,,,,,,,,,,189071,2023-05-16_15h06.27.276,eb_02psyexp,2022.2.4,119.98471631706022,
44,0,44,0,,,,,,,,,,,,,,,,,,,,,,,,,,,,,,,,,,,,,,,,,,,,,,,,,,,,,,,,,,,231.7759106042795,231.7759106042795,231.7759106042795,231.7759106042795,231.7759106042795,231.7759106042795,s,1,0.5006162835052237,232.2926282332046,233.31771252455655,,,,,,,,,,,,,,,,,,,,,,,,,,,,,,,189071,2023-05-16_15h06.27.276,eb_02psyexp,2022.2.4,119.98471631706022,
45,0,45,0,,,,,,,,,,,,,,,,,,,,,,,,,,,,,,,,,,,,,,,,,,,,,,,,,,,,,,,,,,,233.31771252455655,233.31771252455655,233.31771252455655,233.31771252455655,233.31771252455655,233.31771252455655,l,1,1.3178117400966585,234.65115381940268,235.68458636058494,,,,,,,,,,,,,,,,,,,,,,,,,,,,,,,189071,2023-05-16_15h06.27.276,eb_02psyexp,2022.2.4,119.98471631706022,
46,0,46,0,,,,,,,,,,,,,,,,,,,,,,,,,,,,,,,,,,,,,,,,,,,,,,,,,,,,,,,,,,,235.68458636058494,235.68458636058494,235.68458636058494,235.68458636058494,235.68458636058494,235.68458636058494,s,1,0.46299226104747504,236.15963156253565,237.1847167595988,,,,,,,,,,,,,,,,,,,,,,,,,,,,,,,189071,2023-05-16_15h06.27.276,eb_02psyexp,2022.2.4,119.98471631706022,
47,0,47,0,,,,,,,,,,,,,,,,,,,,,,,,,,,,,,,,,,,,,,,,,,,,,,,,,,,,,,,,,,,237.1847167595988,237.1847167595988,237.1847167595988,237.1847167595988,237.1847167595988,237.1847167595988,s,1,0.5388814341276884,237.7347540379269,238.7514955130173,,,,,,,,,,,,,,,,,,,,,,,,,,,,,,,189071,2023-05-16_15h06.27.276,eb_02psyexp,2022.2.4,119.98471631706022,
48,0,48,0,,,,,,,,,,,,,,,,,,,,,,,,,,,,,,,,,,,,,,,,,,,,,,,,,,,,,,,,,,,238.7514955130173,238.7514955130173,238.7514955130173,238.7514955130173,238.7514955130173,238.7514955130173,l,1,0.508136862074025,239.2682188770268,240.28496337053366,,,,,,,,,,,,,,,,,,,,,,,,,,,,,,,189071,2023-05-16_15h06.27.276,eb_02psyexp,2022.2.4,119.98471631706022,
49,0,49,0,,,,,,,,,,,,,,,,,,,,,,,,,,,,,,,,,,,,,,,,,,,,,,,,,,,,,,,,,,,240.28496337053366,240.28496337053366,240.28496337053366,240.28496337053366,240.28496337053366,240.28496337053366,l,1,0.8067057939479128,241.10172295651864,242.1184511501342,,,,,,,,,,,,,,,,,,,,,,,,,,,,,,,189071,2023-05-16_15h06.27.276,eb_02psyexp,2022.2.4,119.98471631706022,
50,0,50,0,,,,,,,,,,,,,,,,,,,,,,,,,,,,,,,,,,,,,,,,,,,,,,,,,,,,,,,,,,,242.1184511501342,242.1184511501342,242.1184511501342,242.1184511501342,242.1184511501342,242.1184511501342,l,1,1.3092796640703455,243.44357860612217,244.46031827002298,,,,,,,,,,,,,,,,,,,,,,,,,,,,,,,189071,2023-05-16_15h06.27.276,eb_02psyexp,2022.2.4,119.98471631706022,
51,0,51,0,,,,,,,,,,,,,,,,,,,,,,,,,,,,,,,,,,,,,,,,,,,,,,,,,,,,,,,,,,,244.46031827002298,244.46031827002298,244.46031827002298,244.46031827002298,244.46031827002298,244.46031827002298,s,1,0.4714144639438018,244.94372258824296,245.96879269275814,,,,,,,,,,,,,,,,,,,,,,,,,,,,,,,189071,2023-05-16_15h06.27.276,eb_02psyexp,2022.2.4,119.98471631706022,
52,0,52,0,,,,,,,,,,,,,,,,,,,,,,,,,,,,,,,,,,,,,,,,,,,,,,,,,,,,,,,,,,,245.96879269275814,245.96879269275814,245.96879269275814,245.96879269275814,245.96879269275814,245.96879269275814,s,1,0.490986984805204,246.46885457192548,247.48558095446788,,,,,,,,,,,,,,,,,,,,,,,,,,,,,,,189071,2023-05-16_15h06.27.276,eb_02psyexp,2022.2.4,119.98471631706022,
53,0,53,0,,,,,,,,,,,,,,,,,,,,,,,,,,,,,,,,,,,,,,,,,,,,,,,,,,,,,,,,,,,247.48558095446788,247.48558095446788,247.48558095446788,247.48558095446788,247.48558095446788,247.48558095446788,s,1,0.5902308518998325,248.08564524841495,249.11073557683267,,,,,,,,,,,,,,,,,,,,,,,,,,,,,,,189071,2023-05-16_15h06.27.276,eb_02psyexp,2022.2.4,119.98471631706022,
54,0,54,0,,,,,,,,,,,,,,,,,,,,,,,,,,,,,,,,,,,,,,,,,,,,,,,,,,,,,,,,,,,249.11073557683267,249.11073557683267,249.11073557683267,249.11073557683267,249.11073557683267,249.11073557683267,l,1,0.484131078585051,249.6107775339624,250.6275162922684,,,,,,,,,,,,,,,,,,,,,,,,,,,,,,,189071,2023-05-16_15h06.27.276,eb_02psyexp,2022.2.4,119.98471631706022,
55,0,55,0,,,,,,,,,,,,,,,,,,,,,,,,,,,,,,,,,,,,,,,,,,,,,,,,,,,,,,,,,,,250.6275162922684,250.6275162922684,250.6275162922684,250.6275162922684,250.6275162922684,250.6275162922684,s,0,0.46333818056154996,251.1025711534312,252.1193138358649,,,,,,,,,,,,,,,,,,,,,,,,,,,,,,,189071,2023-05-16_15h06.27.276,eb_02psyexp,2022.2.4,119.98471631706022,
56,0,56,0,,,,,,,,,,,,,,,,,,,,,,,,,,,,,,,,,,,,,,,,,,,,,,,,,,,,,,,,,,,252.1193138358649,252.1193138358649,252.1193138358649,252.1193138358649,252.1193138358649,252.1193138358649,l,1,1.5956092051928863,253.7277985215187,254.74455418344587,,,,,,,,,,,,,,,,,,,,,,,,,,,,,,,189071,2023-05-16_15h06.27.276,eb_02psyexp,2022.2.4,119.98471631706022,
57,0,57,0,,,,,,,,,,,,,,,,,,,,,,,,,,,,,,,,,,,,,,,,,,,,,,,,,,,,,,,,,,,254.74455418344587,254.74455418344587,254.74455418344587,254.74455418344587,254.74455418344587,254.74455418344587,s,1,0.4744263176107779,255.22794280550443,256.2530168341473,,,,,,,,,,,,,,,,,,,,,,,,,,,,,,,189071,2023-05-16_15h06.27.276,eb_02psyexp,2022.2.4,119.98471631706022,
58,0,58,0,,,,,,,,,,,,,,,,,,,,,,,,,,,,,,,,,,,,,,,,,,,,,,,,,,,,,,,,,,,256.2530168341473,256.2530168341473,256.2530168341473,256.2530168341473,256.2530168341473,256.2530168341473,l,1,0.501945024705492,256.76972631306853,257.7864762399113,,,,,,,,,,,,,,,,,,,,,,,,,,,,,,,189071,2023-05-16_15h06.27.276,eb_02psyexp,2022.2.4,119.98471631706022,
59,0,59,0,,,,,,,,,,,,,,,,,,,,,,,,,,,,,,,,,,,,,,,,,,,,,,,,,,,,,,,,,,,257.7864762399113,257.7864762399113,257.7864762399113,257.7864762399113,257.7864762399113,257.7864762399113,s,1,0.41653431323356926,258.2115173669299,259.23660799721256,,,,,,,,,,,,,,,,,,,,,,,,,,,,,,,189071,2023-05-16_15h06.27.276,eb_02psyexp,2022.2.4,119.98471631706022,
60,0,60,0,,,,,,,,,,,,,,,,,,,,,,,,,,,,,,,,,,,,,,,,,,,,,,,,,,,,,,,,,,,259.23660799721256,259.23660799721256,259.23660799721256,259.23660799721256,259.23660799721256,259.23660799721256,s,1,0.5264235043432564,259.77831906080246,260.7950593284331,,,,,,,,,,,,,,,,,,,,,,,,,,,,,,,189071,2023-05-16_15h06.27.276,eb_02psyexp,2022.2.4,119.98471631706022,
61,0,61,0,,,,,,,,,,,,,,,,,,,,,,,,,,,,,,,,,,,,,,,,,,,,,,,,,,,,,,,,,,,260.7950593284331,260.7950593284331,260.7950593284331,260.7950593284331,260.7950593284331,260.7950593284331,l,1,0.4160163396736607,261.22011011466384,262.24518625612836,,,,,,,,,,,,,,,,,,,,,,,,,,,,,,,189071,2023-05-16_15h06.27.276,eb_02psyexp,2022.2.4,119.98471631706022,
62,0,62,0,,,,,,,,,,,,,,,,,,,,,,,,,,,,,,,,,,,,,,,,,,,,,,,,,,,,,,,,,,,262.24518625612836,262.24518625612836,262.24518625612836,262.24518625612836,262.24518625612836,262.24518625612836,s,1,0.46190349012613297,262.7202471542405,263.74533355864696,,,,,,,,,,,,,,,,,,,,,,,,,,,,,,,189071,2023-05-16_15h06.27.276,eb_02psyexp,2022.2.4,119.98471631706022,
63,0,63,0,,,,,,,,,,,,,,,,,,,,,,,,,,,,,,,,,,,,,,,,,,,,,,,,,,,,,,,,,,,263.74533355864696,263.74533355864696,263.74533355864696,263.74533355864696,263.74533355864696,263.74533355864696,s,1,0.6738289576023817,264.4287191622425,265.46216679597273,,,,,,,,,,,,,,,,,,,,,,,,,,,,,,,189071,2023-05-16_15h06.27.276,eb_02psyexp,2022.2.4,119.98471631706022,
64,0,64,0,,,,,,,,,,,,,,,,,,,,,,,,,,,,,,,,,,,,,,,,,,,,,,,,,,,,,,,,,,,265.46216679597273,265.46216679597273,265.46216679597273,265.46216679597273,265.46216679597273,265.46216679597273,s,1,0.4519693235633895,265.9288519760594,266.95394834142644,,,,,,,,,,,,,,,,,,,,,,,,,,,,,,,189071,2023-05-16_15h06.27.276,eb_02psyexp,2022.2.4,119.98471631706022,
65,0,65,0,,,,,,,,,,,,,,,,,,,,,,,,,,,,,,,,,,,,,,,,,,,,,,,,,,,,,,,,,,,266.95394834142644,266.95394834142644,266.95394834142644,266.95394834142644,266.95394834142644,266.95394834142644,s,1,0.49627991451416165,267.46232315397356,268.495744828484,,,,,,,,,,,,,,,,,,,,,,,,,,,,,,,189071,2023-05-16_15h06.27.276,eb_02psyexp,2022.2.4,119.98471631706022,
66,0,66,0,,,,,,,,,,,,,,,,,,,,,,,,,,,,,,,,,,,,,,,,,,,,,,,,,,,,,,,,,,,268.495744828484,268.495744828484,268.495744828484,268.495744828484,268.495744828484,268.495744828484,s,1,0.4745189853711054,268.9791117174318,269.99585500359535,,,,,,,,,,,,,,,,,,,,,,,,,,,,,,,189071,2023-05-16_15h06.27.276,eb_02psyexp,2022.2.4,119.98471631706022,
67,0,67,0,,,,,,,,,,,,,,,,,,,,,,,,,,,,,,,,,,,,,,,,,,,,,,,,,,,,,,,,,,,269.99585500359535,269.99585500359535,269.99585500359535,269.99585500359535,269.99585500359535,269.99585500359535,s,1,0.5504295896971598,270.5625842537265,271.57932391762733,,,,,,,,,,,,,,,,,,,,,,,,,,,,,,,189071,2023-05-16_15h06.27.276,eb_02psyexp,2022.2.4,119.98471631706022,
68,0,68,0,,,,,,,,,,,,,,,,,,,,,,,,,,,,,,,,,,,,,,,,,,,,,,,,,,,,,,,,,,,271.57932391762733,271.57932391762733,271.57932391762733,271.57932391762733,271.57932391762733,271.57932391762733,l,1,0.4149342094315216,272.0043831556104,273.021113764029,,,,,,,,,,,,,,,,,,,,,,,,,,,,,,,189071,2023-05-16_15h06.27.276,eb_02psyexp,2022.2.4,119.98471631706022,
69,0,69,0,,,,,,,,,,,,,,,,,,,,,,,,,,,,,,,,,,,,,,,,,,,,,,,,,,,,,,,,,,,273.021113764029,273.021113764029,273.021113764029,273.021113764029,273.021113764029,273.021113764029,l,1,0.5652072322554886,273.59618915093597,274.6129191556247,,,,,,,,,,,,,,,,,,,,,,,,,,,,,,,189071,2023-05-16_15h06.27.276,eb_02psyexp,2022.2.4,119.98471631706022,
70,0,70,0,,,,,,,,,,,,,,,,,,,,,,,,,,,,,,,,,,,,,,,,,,,,,,,,,,,,,,,,,,,274.6129191556247,274.6129191556247,274.6129191556247,274.6129191556247,274.6129191556247,274.6129191556247,l,1,0.9094459831248969,275.53801129513886,276.56310796248727,,,,,,,,,,,,,,,,,,,,,,,,,,,,,,,189071,2023-05-16_15h06.27.276,eb_02psyexp,2022.2.4,119.98471631706022,
71,0,71,0,,,,,,,,,,,,,,,,,,,,,,,,,,,,,,,,,,,,,,,,,,,,,,,,,,,,,,,,,,,276.56310796248727,276.56310796248727,276.56310796248727,276.56310796248727,276.56310796248727,276.56310796248727,l,1,0.6712581058964133,277.24651529919356,278.26323383371346,,,,,,,,,,,,,,,,,,,,,,,,,,,,,,,189071,2023-05-16_15h06.27.276,eb_02psyexp,2022.2.4,119.98471631706022,
72,0,72,0,,,,,,,,,,,,,,,,,,,,,,,,,,,,,,,,,,,,,,,,,,,,,,,,,,,,,,,,,,,278.26323383371346,278.26323383371346,278.26323383371346,278.26323383371346,278.26323383371346,278.26323383371346,l,1,0.9231855655089021,279.1966630545212,280.213412679499,,,,,,,,,,,,,,,,,,,,,,,,,,,,,,,189071,2023-05-16_15h06.27.276,eb_02psyexp,2022.2.4,119.98471631706022,
73,0,73,0,,,,,,,,,,,,,,,,,,,,,,,,,,,,,,,,,,,,,,,,,,,,,,,,,,,,,,,,,,,280.213412679499,280.213412679499,280.213412679499,280.213412679499,280.213412679499,280.213412679499,s,1,1.324038591934368,281.54686393530574,282.5719578859862,,,,,,,,,,,,,,,,,,,,,,,,,,,,,,,189071,2023-05-16_15h06.27.276,eb_02psyexp,2022.2.4,119.98471631706022,
74,0,74,0,,,,,,,,,,,,,,,,,,,,,,,,,,,,,,,,,,,,,,,,,,,,,,,,,,,,,,,,,,,282.5719578859862,282.5719578859862,282.5719578859862,282.5719578859862,282.5719578859862,282.5719578859862,s,1,0.45355493866372854,283.0386611770373,284.07209069968667,,,,,,,,,,,,,,,,,,,,,,,,,,,,,,,189071,2023-05-16_15h06.27.276,eb_02psyexp,2022.2.4,119.98471631706022,
75,0,75,0,,,,,,,,,,,,,,,,,,,,,,,,,,,,,,,,,,,,,,,,,,,,,,,,,,,,,,,,,,,284.07209069968667,284.07209069968667,284.07209069968667,284.07209069968667,284.07209069968667,284.07209069968667,s,1,0.44144051359035075,284.52212133735884,285.55556172668,,,,,,,,,,,,,,,,,,,,,,,,,,,,,,,189071,2023-05-16_15h06.27.276,eb_02psyexp,2022.2.4,119.98471631706022,
76,0,76,0,,,,,,,,,,,,,,,,,,,,,,,,,,,,,,,,,,,,,,,,,,,,,,,,,,,,,,,,,,,285.55556172668,285.55556172668,285.55556172668,285.55556172668,285.55556172668,285.55556172668,l,1,0.47001086408272386,286.0389177490724,287.0723527049413,,,,,,,,,,,,,,,,,,,,,,,,,,,,,,,189071,2023-05-16_15h06.27.276,eb_02psyexp,2022.2.4,119.98471631706022,
77,0,77,0,,,,,,,,,,,,,,,,,,,,,,,,,,,,,,,,,,,,,,,,,,,,,,,,,,,,,,,,,,,287.0723527049413,287.0723527049413,287.0723527049413,287.0723527049413,287.0723527049413,287.0723527049413,s,1,0.4412358596455306,287.52237972046714,288.5474781988887,,,,,,,,,,,,,,,,,,,,,,,,,,,,,,,189071,2023-05-16_15h06.27.276,eb_02psyexp,2022.2.4,119.98471631706022,
78,0,78,0,,,,,,,,,,,,,,,,,,,,,,,,,,,,,,,,,,,,,,,,,,,,,,,,,,,,,,,,,,,288.5474781988887,288.5474781988887,288.5474781988887,288.5474781988887,288.5474781988887,288.5474781988887,l,1,0.6221508256858215,289.1808570108842,290.2142868353985,,,,,,,,,,,,,,,,,,,,,,,,,,,,,,,189071,2023-05-16_15h06.27.276,eb_02psyexp,2022.2.4,119.98471631706022,
79,0,79,0,,,,,,,,,,,,,,,,,,,,,,,,,,,,,,,,,,,,,,,,,,,,,,,,,,,,,,,,,,,290.2142868353985,290.2142868353985,290.2142868353985,290.2142868353985,290.2142868353985,290.2142868353985,l,1,0.9793796667363495,291.20603004610166,292.23112007265445,,,,,,,,,,,,,,,,,,,,,,,,,,,,,,,189071,2023-05-16_15h06.27.276,eb_02psyexp,2022.2.4,119.98471631706022,
80,0,80,0,,,,,,,,,,,,,,,,,,,,,,,,,,,,,,,,,,,,,,,,,,,,,,,,,,,,,,,,,,,292.23112007265445,292.23112007265445,292.23112007265445,292.23112007265445,292.23112007265445,292.23112007265445,s,1,0.48257263004779816,292.72284788894467,293.7479285582667,,,,,,,,,,,,,,,,,,,,,,,,,,,,,,,189071,2023-05-16_15h06.27.276,eb_02psyexp,2022.2.4,119.98471631706022,
81,0,81,0,,,,,,,,,,,,,,,,,,,,,,,,,,,,,,,,,,,,,,,,,,,,,,,,,,,,,,,,,,,293.7479285582667,293.7479285582667,293.7479285582667,293.7479285582667,293.7479285582667,293.7479285582667,l,1,0.46980832319241017,294.2312933342764,295.26473644014914,,,,,,,,,,,,,,,,,,,,,,,,,,,,,,,189071,2023-05-16_15h06.27.276,eb_02psyexp,2022.2.4,119.98471631706022,
82,0,82,0,,,,,,,,,,,,,,,,,,,,,,,,,,,,,,,,,,,,,,,,,,,,,,,,,,,,,,,,,,,295.26473644014914,295.26473644014914,295.26473644014914,295.26473644014914,295.26473644014914,295.26473644014914,s,1,0.4330186126753688,295.7064194318373,296.7398637451697,,,,,,,,,,,,,,,,,,,,,,,,,,,,,,,189071,2023-05-16_15h06.27.276,eb_02psyexp,2022.2.4,119.98471631706022,
83,0,83,0,,,,,,,,,,,,,,,,,,,,,,,,,,,,,,,,,,,,,,,,,,,,,,,,,,,,,,,,,,,296.7398637451697,296.7398637451697,296.7398637451697,296.7398637451697,296.7398637451697,296.7398637451697,l,1,0.5649443214060739,297.3149128711084,298.34832760319114,,,,,,,,,,,,,,,,,,,,,,,,,,,,,,,189071,2023-05-16_15h06.27.276,eb_02psyexp,2022.2.4,119.98471631706022,
84,0,84,0,,,,,,,,,,,,,,,,,,,,,,,,,,,,,,,,,,,,,,,,,,,,,,,,,,,,,,,,,,,298.34832760319114,298.34832760319114,298.34832760319114,298.34832760319114,298.34832760319114,298.34832760319114,s,1,0.4444532727357,298.80668837961275,299.8317989320494,,,,,,,,,,,,,,,,,,,,,,,,,,,,,,,189071,2023-05-16_15h06.27.276,eb_02psyexp,2022.2.4,119.98471631706022,
85,0,85,0,,,,,,,,,,,,,,,,,,,,,,,,,,,,,,,,,,,,,,,,,,,,,,,,,,,,,,,,,,,299.8317989320494,299.8317989320494,299.8317989320494,299.8317989320494,299.8317989320494,299.8317989320494,s,1,0.47304505459032953,300.31516400980763,301.3485820622882,,,,,,,,,,,,,,,,,,,,,,,,,,,,,,,189071,2023-05-16_15h06.27.276,eb_02psyexp,2022.2.4,119.98471631706022,
86,0,86,0,,,,,,,,,,,,,,,,,,,,,,,,,,,,,,,,,,,,,,,,,,,,,,,,,,,,,,,,,,,301.3485820622882,301.3485820622882,301.3485820622882,301.3485820622882,301.3485820622882,301.3485820622882,s,1,0.40430518542416394,301.7652767506661,302.7987074806588,,,,,,,,,,,,,,,,,,,,,,,,,,,,,,,189071,2023-05-16_15h06.27.276,eb_02psyexp,2022.2.4,119.98471631706022,
87,0,87,0,,,,,,,,,,,,,,,,,,,,,,,,,,,,,,,,,,,,,,,,,,,,,,,,,,,,,,,,,,,302.7987074806588,302.7987074806588,302.7987074806588,302.7987074806588,302.7987074806588,302.7987074806588,l,1,0.41821470903232694,303.2320736149559,304.2571618305519,,,,,,,,,,,,,,,,,,,,,,,,,,,,,,,189071,2023-05-16_15h06.27.276,eb_02psyexp,2022.2.4,119.98471631706022,
88,0,88,0,,,,,,,,,,,,,,,,,,,,,,,,,,,,,,,,,,,,,,,,,,,,,,,,,,,,,,,,,,,304.2571618305519,304.2571618305519,304.2571618305519,304.2571618305519,304.2571618305519,304.2571618305519,s,1,0.3917778303148225,304.6571938265115,305.6822862679837,,,,,,,,,,,,,,,,,,,,,,,,,,,,,,,189071,2023-05-16_15h06.27.276,eb_02psyexp,2022.2.4,119.98471631706022,
89,0,89,0,,,,,,,,,,,,,,,,,,,,,,,,,,,,,,,,,,,,,,,,,,,,,,,,,,,,,,,,,,,305.6822862679837,305.6822862679837,305.6822862679837,305.6822862679837,305.6822862679837,305.6822862679837,l,1,0.5826770700514317,306.2740011047572,307.2990980738541,,,,,,,,,,,,,,,,,,,,,,,,,,,,,,,189071,2023-05-16_15h06.27.276,eb_02psyexp,2022.2.4,119.98471631706022,
90,0,90,0,,,,,,,,,,,,,,,,,,,,,,,,,,,,,,,,,,,,,,,,,,,,,,,,,,,,,,,,,,,307.2990980738541,307.2990980738541,307.2990980738541,307.2990980738541,307.2990980738541,307.2990980738541,s,1,0.4059101188322529,307.7157960825134,308.74088188330643,,,,,,,,,,,,,,,,,,,,,,,,,,,,,,,189071,2023-05-16_15h06.27.276,eb_02psyexp,2022.2.4,119.98471631706022,
91,0,91,0,,,,,,,,,,,,,,,,,,,,,,,,,,,,,,,,,,,,,,,,,,,,,,,,,,,,,,,,,,,308.74088188330643,308.74088188330643,308.74088188330643,308.74088188330643,308.74088188330643,308.74088188330643,l,1,0.516158812562935,309.2659266324481,310.2993540421594,,,,,,,,,,,,,,,,,,,,,,,,,,,,,,,189071,2023-05-16_15h06.27.276,eb_02psyexp,2022.2.4,119.98471631706022,
92,0,92,0,,,,,,,,,,,,,,,,,,,,,,,,,,,,,,,,,,,,,,,,,,,,,,,,,,,,,,,,,,,310.2993540421594,310.2993540421594,310.2993540421594,310.2993540421594,310.2993540421594,310.2993540421594,l,1,0.4136800250271335,310.72439969691914,311.74947583838366,,,,,,,,,,,,,,,,,,,,,,,,,,,,,,,189071,2023-05-16_15h06.27.276,eb_02psyexp,2022.2.4,119.98471631706022,
93,0,93,0,,,,,,,,,,,,,,,,,,,,,,,,,,,,,,,,,,,,,,,,,,,,,,,,,,,,,,,,,,,311.74947583838366,311.74947583838366,311.74947583838366,311.74947583838366,311.74947583838366,311.74947583838366,s,1,0.42662936565466225,312.19117814849596,313.2246103878133,,,,,,,,,,,,,,,,,,,,,,,,,,,,,,,189071,2023-05-16_15h06.27.276,eb_02psyexp,2022.2.4,119.98471631706022,
94,0,94,0,,,,,,,,,,,,,,,,,,,,,,,,,,,,,,,,,,,,,,,,,,,,,,,,,,,,,,,,,,,313.2246103878133,313.2246103878133,313.2246103878133,313.2246103878133,313.2246103878133,313.2246103878133,l,1,0.49551925400737673,313.73298006888945,314.7580507771345,,,,,,,,,,,,,,,,,,,,,,,,,,,,,,,189071,2023-05-16_15h06.27.276,eb_02psyexp,2022.2.4,119.98471631706022,
95,0,95,0,,,,,,,,,,,,,,,,,,,,,,,,,,,,,,,,,,,,,,,,,,,,,,,,,,,,,,,,,,,314.7580507771345,314.7580507771345,314.7580507771345,314.7580507771345,314.7580507771345,314.7580507771345,s,1,0.4581149780424312,315.2247739902232,316.25820441846736,,,,,,,,,,,,,,,,,,,,,,,,,,,,,,,189071,2023-05-16_15h06.27.276,eb_02psyexp,2022.2.4,119.98471631706022,
96,0,96,0,,,,,,,,,,,,,,,,,,,,,,,,,,,,,,,,,,,,,,,,,,,,,,,,,,,,,,,,,,,316.25820441846736,316.25820441846736,316.25820441846736,316.25820441846736,316.25820441846736,316.25820441846736,l,1,0.4379779987502843,316.7082435078919,317.7333259882871,,,,,,,,,,,,,,,,,,,,,,,,,,,,,,,189071,2023-05-16_15h06.27.276,eb_02psyexp,2022.2.4,119.98471631706022,
97,0,97,0,,,,,,,,,,,,,,,,,,,,,,,,,,,,,,,,,,,,,,,,,,,,,,,,,,,,,,,,,,,317.7333259882871,317.7333259882871,317.7333259882871,317.7333259882871,317.7333259882871,317.7333259882871,l,1,0.48289168486371636,318.22503297706135,319.2584655182436,,,,,,,,,,,,,,,,,,,,,,,,,,,,,,,189071,2023-05-16_15h06.27.276,eb_02psyexp,2022.2.4,119.98471631706022,
98,0,98,0,,,,,,,,,,,,,,,,,,,,,,,,,,,,,,,,,,,,,,,,,,,,,,,,,,,,,,,,,,,319.2584655182436,319.2584655182436,319.2584655182436,319.2584655182436,319.2584655182436,319.2584655182436,s,1,0.46977210126351565,319.7418315015966,320.76693088549655,,,,,,,,,,,,,,,,,,,,,,,,,,,,,,,189071,2023-05-16_15h06.27.276,eb_02psyexp,2022.2.4,119.98471631706022,
99,0,99,0,,,,,,,,,,,,,,,,,,,,,,,,,,,,,,,,,,,,,,,,,,,,,,,,,,,,,,,,,,,320.76693088549655,320.76693088549655,320.76693088549655,320.76693088549655,320.76693088549655,320.76693088549655,l,1,0.5133332000114024,321.29196476808283,322.3253964037867,,,,,,,,,,,,,,,,,,,,,,,,,,,,,,,189071,2023-05-16_15h06.27.276,eb_02psyexp,2022.2.4,119.98471631706022,
100,0,100,0,,,,,,,,,,,,,,,,,,,,,,,,,,,,,,,,,,,,,,,,,,,,,,,,,,,,,,,,,,,322.3253964037867,322.3253964037867,322.3253964037867,322.3253964037867,322.3253964037867,322.3253964037867,s,1,0.5229042418068275,322.85876917873975,323.89218994777184,,,,,,,,,,,,,,,,,,,,,,,,,,,,,,,189071,2023-05-16_15h06.27.276,eb_02psyexp,2022.2.4,119.98471631706022,
101,0,101,0,,,,,,,,,,,,,,,,,,,,,,,,,,,,,,,,,,,,,,,,,,,,,,,,,,,,,,,,,,,323.89218994777184,323.89218994777184,323.89218994777184,323.89218994777184,323.89218994777184,323.89218994777184,l,1,0.5801370069384575,324.4839093122864,325.5173318925081,,,,,,,,,,,,,,,,,,,,,,,,,,,,,,,189071,2023-05-16_15h06.27.276,eb_02psyexp,2022.2.4,119.98471631706022,
102,0,102,0,,,,,,,,,,,,,,,,,,,,,,,,,,,,,,,,,,,,,,,,,,,,,,,,,,,,,,,,,,,325.5173318925081,325.5173318925081,325.5173318925081,325.5173318925081,325.5173318925081,325.5173318925081,s,1,0.38704362395219505,325.91737445327453,326.9424819870619,,,,,,,,,,,,,,,,,,,,,,,,,,,,,,,189071,2023-05-16_15h06.27.276,eb_02psyexp,2022.2.4,119.98471631706022,
103,0,103,0,,,,,,,,,,,,,,,,,,,,,,,,,,,,,,,,,,,,,,,,,,,,,,,,,,,,,,,,,,,326.9424819870619,326.9424819870619,326.9424819870619,326.9424819870619,326.9424819870619,326.9424819870619,l,1,0.4249646661337465,327.3758257845184,328.40925409982447,,,,,,,,,,,,,,,,,,,,,,,,,,,,,,,189071,2023-05-16_15h06.27.276,eb_02psyexp,2022.2.4,119.98471631706022,
104,0,104,0,,,,,,,,,,,,,,,,,,,,,,,,,,,,,,,,,,,,,,,,,,,,,,,,,,,,,,,,,,,328.40925409982447,328.40925409982447,328.40925409982447,328.40925409982447,328.40925409982447,328.40925409982447,s,0,0.3661631894065067,328.7842808889691,329.8177119209431,,,,,,,,,,,,,,,,,,,,,,,,,,,,,,,189071,2023-05-16_15h06.27.276,eb_02psyexp,2022.2.4,119.98471631706022,
105,0,105,0,,,,,,,,,,,,,,,,,,,,,,,,,,,,,,,,,,,,,,,,,,,,,,,,,,,,,,,,,,,329.8177119209431,329.8177119209431,329.8177119209431,329.8177119209431,329.8177119209431,329.8177119209431,s,1,0.5817603532923386,330.40943007799797,331.4428481304785,,,,,,,,,,,,,,,,,,,,,,,,,,,,,,,189071,2023-05-16_15h06.27.276,eb_02psyexp,2022.2.4,119.98471631706022,
106,0,106,0,,,,,,,,,,,,,,,,,,,,,,,,,,,,,,,,,,,,,,,,,,,,,,,,,,,,,,,,,,,331.4428481304785,331.4428481304785,331.4428481304785,331.4428481304785,331.4428481304785,331.4428481304785,l,1,0.49265591031871736,331.95121992449276,332.9846820469247,,,,,,,,,,,,,,,,,,,,,,,,,,,,,,,189071,2023-05-16_15h06.27.276,eb_02psyexp,2022.2.4,119.98471631706022,
107,0,107,0,,,,,,,,,,,,,,,,,,,,,,,,,,,,,,,,,,,,,,,,,,,,,,,,,,,,,,,,,,,332.9846820469247,332.9846820469247,332.9846820469247,332.9846820469247,332.9846820469247,332.9846820469247,s,1,0.35887654416728765,333.35967382148374,334.38476716843434,,,,,,,,,,,,,,,,,,,,,,,,,,,,,,,189071,2023-05-16_15h06.27.276,eb_02psyexp,2022.2.4,119.98471631706022,
108,0,108,0,,,,,,,,,,,,,,,,,,,,,,,,,,,,,,,,,,,,,,,,,,,,,,,,,,,,,,,,,,,334.38476716843434,334.38476716843434,334.38476716843434,334.38476716843434,334.38476716843434,334.38476716843434,l,1,0.4067945376737043,334.80146759189665,335.8348956053378,,,,,,,,,,,,,,,,,,,,,,,,,,,,,,,189071,2023-05-16_15h06.27.276,eb_02psyexp,2022.2.4,119.98471631706022,
109,0,109,0,,,,,,,,,,,,,,,,,,,,,,,,,,,,,,,,,,,,,,,,,,,,,,,,,,,,,,,,,,,335.8348956053378,335.8348956053378,335.8348956053378,335.8348956053378,335.8348956053378,335.8348956053378,l,1,0.37269038148224354,336.2182573628379,337.25169171509333,,,,,,,,,,,,,,,,,,,,,,,,,,,,,,,189071,2023-05-16_15h06.27.276,eb_02psyexp,2022.2.4,119.98471631706022,
110,0,110,0,,,,,,,,,,,,,,,,,,,,,,,,,,,,,,,,,,,,,,,,,,,,,,,,,,,,,,,,,,,337.25169171509333,337.25169171509333,337.25169171509333,337.25169171509333,337.25169171509333,337.25169171509333,s,1,0.40392062917817384,337.6683836868033,338.701803550357,,,,,,,,,,,,,,,,,,,,,,,,,,,,,,,189071,2023-05-16_15h06.27.276,eb_02psyexp,2022.2.4,119.98471631706022,
111,0,111,0,,,,,,,,,,,,,,,,,,,,,,,,,,,,,,,,,,,,,,,,,,,,,,,,,,,,,,,,,,,338.701803550357,338.701803550357,338.701803550357,338.701803550357,338.701803550357,338.701803550357,l,1,0.4818451729370281,339.19351295381784,340.2186201858567,,,,,,,,,,,,,,,,,,,,,,,,,,,,,,,189071,2023-05-16_15h06.27.276,eb_02psyexp,2022.2.4,119.98471631706022,
112,0,112,0,,,,,,,,,,,,,,,,,,,,,,,,,,,,,,,,,,,,,,,,,,,,,,,,,,,,,,,,,,,340.2186201858567,340.2186201858567,340.2186201858567,340.2186201858567,340.2186201858567,340.2186201858567,s,1,0.46901536465156823,340.70197801932227,341.72707559214905,,,,,,,,,,,,,,,,,,,,,,,,,,,,,,,189071,2023-05-16_15h06.27.276,eb_02psyexp,2022.2.4,119.98471631706022,
113,0,113,0,,,,,,,,,,,,,,,,,,,,,,,,,,,,,,,,,,,,,,,,,,,,,,,,,,,,,,,,,,,341.72707559214905,341.72707559214905,341.72707559214905,341.72707559214905,341.72707559214905,341.72707559214905,l,1,0.48061755124945194,342.21878680668306,343.2521979166195,,,,,,,,,,,,,,,,,,,,,,,,,,,,,,,189071,2023-05-16_15h06.27.276,eb_02psyexp,2022.2.4,119.98471631706022,
114,0,114,0,,,,,,,,,,,,,,,,,,,,,,,,,,,,,,,,,,,,,,,,,,,,,,,,,,,,,,,,,,,343.2521979166195,343.2521979166195,343.2521979166195,343.2521979166195,343.2521979166195,343.2521979166195,s,1,0.4345203135162592,343.70223700616043,344.7273222031072,,,,,,,,,,,,,,,,,,,,,,,,,,,,,,,189071,2023-05-16_15h06.27.276,eb_02psyexp,2022.2.4,119.98471631706022,
115,0,115,0,,,,,,,,,,,,,,,,,,,,,,,,,,,,,,,,,,,,,,,,,,,,,,,,,,,,,,,,,,,344.7273222031072,344.7273222031072,344.7273222031072,344.7273222031072,344.7273222031072,344.7273222031072,l,1,0.3994620112935081,345.1356921859551,346.16914193262346,,,,,,,,,,,,,,,,,,,,,,,,,,,,,,,189071,2023-05-16_15h06.27.276,eb_02psyexp,2022.2.4,119.98471631706022,
116,0,116,0,,,,,,,,,,,,,,,,,,,,,,,,,,,,,,,,,,,,,,,,,,,,,,,,,,,,,,,,,,,346.16914193262346,346.16914193262346,346.16914193262346,346.16914193262346,346.16914193262346,346.16914193262346,s,1,0.4856774533400312,346.66916366573423,347.6942530886736,,,,,,,,,,,,,,,,,,,,,,,,,,,,,,,189071,2023-05-16_15h06.27.276,eb_02psyexp,2022.2.4,119.98471631706022,
117,0,117,0,,,,,,,,,,,,,,,,,,,,,,,,,,,,,,,,,,,,,,,,,,,,,,,,,,,,,,,,,,,347.6942530886736,347.6942530886736,347.6942530886736,347.6942530886736,347.6942530886736,347.6942530886736,s,1,0.4885350619442761,348.1942932346137,349.2277137017809,,,,,,,,,,,,,,,,,,,,,,,,,,,,,,,189071,2023-05-16_15h06.27.276,eb_02psyexp,2022.2.4,119.98471631706022,
118,0,118,0,,,,,,,,,,,,,,,,,,,,,,,,,,,,,,,,,,,,,,,,,,,,,,,,,,,,,,,,,,,349.2277137017809,349.2277137017809,349.2277137017809,349.2277137017809,349.2277137017809,349.2277137017809,s,1,0.49911669560242444,349.73609364568256,350.76118337048683,,,,,,,,,,,,,,,,,,,,,,,,,,,,,,,189071,2023-05-16_15h06.27.276,eb_02psyexp,2022.2.4,119.98471631706022,
119,0,119,0,,,,,,,,,,,,,,,,,,,,,,,,,,,,,,,,,,,,,,,,,,,,,,,,,,,,,,,,,,,350.76118337048683,350.76118337048683,350.76118337048683,350.76118337048683,350.76118337048683,350.76118337048683,l,1,0.38168670190498233,351.1528867370216,352.18631143006496,,,,,,,,,,,,,,,,,,,,,,,,,,,,,,,189071,2023-05-16_15h06.27.276,eb_02psyexp,2022.2.4,119.98471631706022,
120,0,120,0,,,,,,,,,,,,,,,,,,,,,,,,,,,,,,,,,,,,,,,,,,,,,,,,,,,,,,,,,,,352.18631143006496,352.18631143006496,352.18631143006496,352.18631143006496,352.18631143006496,352.18631143006496,l,1,0.46059406735002995,352.6613448598655,353.68643669760786,,,,,,,,,,,,,,,,,,,,,,,,,,,,,,,189071,2023-05-16_15h06.27.276,eb_02psyexp,2022.2.4,119.98471631706022,
121,0,121,0,,,,,,,,,,,,,,,,,,,,,,,,,,,,,,,,,,,,,,,,,,,,,,,,,,,,,,,,,,,353.68643669760786,353.68643669760786,353.68643669760786,353.68643669760786,353.68643669760786,353.68643669760786,s,1,0.48049892438575625,354.1781424789224,355.2032436740119,,,,,,,,,,,,,,,,,,,,,,,,,,,,,,,189071,2023-05-16_15h06.27.276,eb_02psyexp,2022.2.4,119.98471631706022,
122,0,122,0,,,,,,,,,,,,,,,,,,,,,,,,,,,,,,,,,,,,,,,,,,,,,,,,,,,,,,,,,,,355.2032436740119,355.2032436740119,355.2032436740119,355.2032436740119,355.2032436740119,355.2032436740119,l,1,0.5557195009896532,355.7699644722743,356.8033810154302,,,,,,,,,,,,,,,,,,,,,,,,,,,,,,,189071,2023-05-16_15h06.27.276,eb_02psyexp,2022.2.4,119.98471631706022,
123,0,123,0,,,,,,,,,,,,,,,,,,,,,,,,,,,,,,,,,,,,,,,,,,,,,,,,,,,,,,,,,,,356.8033810154302,356.8033810154302,356.8033810154302,356.8033810154302,356.8033810154302,356.8033810154302,s,1,0.4276079614646733,357.2451337343082,358.27850711299106,,,,,,,,,,,,,,,,,,,,,,,,,,,,,,,189071,2023-05-16_15h06.27.276,eb_02psyexp,2022.2.4,119.98471631706022,
124,0,124,0,,,,,,,,,,,,,,,,,,,,,,,,,,,,,,,,,,,,,,,,,,,,,,,,,,,,,,,,,,,358.27850711299106,358.27850711299106,358.27850711299106,358.27850711299106,358.27850711299106,358.27850711299106,l,1,0.3915417840471491,358.67853880720213,359.7036230986705,,,,,,,,,,,,,,,,,,,,,,,,,,,,,,,189071,2023-05-16_15h06.27.276,eb_02psyexp,2022.2.4,119.98471631706022,
125,0,125,0,,,,,,,,,,,,,,,,,,,,,,,,,,,,,,,,,,,,,,,,,,,,,,,,,,,,,,,,,,,359.7036230986705,359.7036230986705,359.7036230986705,359.7036230986705,359.7036230986705,359.7036230986705,l,1,0.48644173599313945,360.20366294286214,361.2370957857929,,,,,,,,,,,,,,,,,,,,,,,,,,,,,,,189071,2023-05-16_15h06.27.276,eb_02psyexp,2022.2.4,119.98471631706022,
126,0,126,0,,,,,,,,,,,,,,,,,,,,,,,,,,,,,,,,,,,,,,,,,,,,,,,,,,,,,,,,,,,361.2370957857929,361.2370957857929,361.2370957857929,361.2370957857929,361.2370957857929,361.2370957857929,l,1,0.4010041600558907,361.6537892668275,362.68723569309805,,,,,,,,,,,,,,,,,,,,,,,,,,,,,,,189071,2023-05-16_15h06.27.276,eb_02psyexp,2022.2.4,119.98471631706022,
127,0,127,0,,,,,,,,,,,,,,,,,,,,,,,,,,,,,,,,,,,,,,,,,,,,,,,,,,,,,,,,,,,362.68723569309805,362.68723569309805,362.68723569309805,362.68723569309805,362.68723569309805,362.68723569309805,s,1,0.3828723665792495,363.0789158171974,364.10401157895103,,,,,,,,,,,,,,,,,,,,,,,,,,,,,,,189071,2023-05-16_15h06.27.276,eb_02psyexp,2022.2.4,119.98471631706022,
128,0,128,0,,,,,,,,,,,,,,,,,,,,,,,,,,,,,,,,,,,,,,,,,,,,,,,,,,,,,,,,,,,364.10401157895103,364.10401157895103,364.10401157895103,364.10401157895103,364.10401157895103,364.10401157895103,l,1,0.4941449335310608,364.61237975070253,365.64581621589605,,,,,,,,,,,,,,,,,,,,,,,,,,,,,,,189071,2023-05-16_15h06.27.276,eb_02psyexp,2022.2.4,119.98471631706022,
129,0,129,0,,,,,,,,,,,,,,,,,,,,,,,,,,,,,,,,,,,,,,,,,,,,,,,,,,,,,,,,,,,365.64581621589605,365.64581621589605,365.64581621589605,365.64581621589605,365.64581621589605,365.64581621589605,s,1,0.44035204453393817,366.09584474074654,367.12093386170454,,,,,,,,,,,,,,,,,,,,,,,,,,,,,,,189071,2023-05-16_15h06.27.276,eb_02psyexp,2022.2.4,119.98471631706022,
130,0,130,0,,,,,,,,,,,,,,,,,,,,,,,,,,,,,,,,,,,,,,,,,,,,,,,,,,,,,,,,,,,367.12093386170454,367.12093386170454,367.12093386170454,367.12093386170454,367.12093386170454,367.12093386170454,l,1,0.42928322590887547,367.56263737916015,368.5960684111342,,,,,,,,,,,,,,,,,,,,,,,,,,,,,,,189071,2023-05-16_15h06.27.276,eb_02psyexp,2022.2.4,119.98471631706022,
131,0,131,0,,,,,,,,,,,,,,,,,,,,,,,,,,,,,,,,,,,,,,,,,,,,,,,,,,,,,,,,,,,368.5960684111342,368.5960684111342,368.5960684111342,368.5960684111342,368.5960684111342,368.5960684111342,s,1,0.4261802136898041,369.0377631749725,370.07119571615476,,,,,,,,,,,,,,,,,,,,,,,,,,,,,,,189071,2023-05-16_15h06.27.276,eb_02psyexp,2022.2.4,119.98471631706022,
132,0,132,0,,,,,,,,,,,,,,,,,,,,,,,,,,,,,,,,,,,,,,,,,,,,,,,,,,,,,,,,,,,370.07119571615476,370.07119571615476,370.07119571615476,370.07119571615476,370.07119571615476,370.07119571615476,l,1,0.23107198567595333,370.31287538749166,371.33796541404445,,,,,,,,,,,,,,,,,,,,,,,,,,,,,,,189071,2023-05-16_15h06.27.276,eb_02psyexp,2022.2.4,119.98471631706022,
133,0,133,0,,,,,,,,,,,,,,,,,,,,,,,,,,,,,,,,,,,,,,,,,,,,,,,,,,,,,,,,,,,371.33796541404445,371.33796541404445,371.33796541404445,371.33796541404445,371.33796541404445,371.33796541404445,s,1,0.37233329366426915,371.72133049194235,372.7547618256649,,,,,,,,,,,,,,,,,,,,,,,,,,,,,,,189071,2023-05-16_15h06.27.276,eb_02psyexp,2022.2.4,119.98471631706022,
134,0,134,0,,,,,,,,,,,,,,,,,,,,,,,,,,,,,,,,,,,,,,,,,,,,,,,,,,,,,,,,,,,372.7547618256649,372.7547618256649,372.7547618256649,372.7547618256649,372.7547618256649,372.7547618256649,l,1,0.26756527996622026,373.0381087925052,374.0715422392823,,,,,,,,,,,,,,,,,,,,,,,,,,,,,,,189071,2023-05-16_15h06.27.276,eb_02psyexp,2022.2.4,119.98471631706022,
135,0,135,0,,,,,,,,,,,,,,,,,,,,,,,,,,,,,,,,,,,,,,,,,,,,,,,,,,,,,,,,,,,374.0715422392823,374.0715422392823,374.0715422392823,374.0715422392823,374.0715422392823,374.0715422392823,s,1,0.3978616055101156,374.479903166648,375.5133348023519,,,,,,,,,,,,,,,,,,,,,,,,,,,,,,,189071,2023-05-16_15h06.27.276,eb_02psyexp,2022.2.4,119.98471631706022,
136,0,136,0,,,,,,,,,,,,,,,,,,,,,,,,,,,,,,,,,,,,,,,,,,,,,,,,,,,,,,,,,,,375.5133348023519,375.5133348023519,375.5133348023519,375.5133348023519,375.5133348023519,375.5133348023519,l,1,0.29202263022307307,375.8216857686639,376.8551158950431,,,,,,,,,,,,,,,,,,,,,,,,,,,,,,,189071,2023-05-16_15h06.27.276,eb_02psyexp,2022.2.4,119.98471631706022,
137,0,137,0,,,,,,,,,,,,,,,,,,,,,,,,,,,,,,,,,,,,,,,,,,,,,,,,,,,,,,,,,,,376.8551158950431,376.8551158950431,376.8551158950431,376.8551158950431,376.8551158950431,376.8551158950431,s,1,0.3423155751079321,377.2134914621711,378.24690408131573,,,,,,,,,,,,,,,,,,,,,,,,,,,,,,,189071,2023-05-16_15h06.27.276,eb_02psyexp,2022.2.4,119.98471631706022,
138,0,138,0,,,,,,,,,,,,,,,,,,,,,,,,,,,,,,,,,,,,,,,,,,,,,,,,,,,,,,,,,,,378.24690408131573,378.24690408131573,378.24690408131573,378.24690408131573,378.24690408131573,378.24690408131573,l,1,0.27056294679641724,378.5302534629591,379.56368811707944,,,,,,,,,,,,,,,,,,,,,,,,,,,,,,,189071,2023-05-16_15h06.27.276,eb_02psyexp,2022.2.4,119.98471631706022,
139,0,139,0,,,,,,,,,,,,,,,,,,,,,,,,,,,,,,,,,,,,,,,,,,,,,,,,,,,,,,,,,,,379.56368811707944,379.56368811707944,379.56368811707944,379.56368811707944,379.56368811707944,379.56368811707944,s,1,0.2577787176705897,379.8303675620118,380.85547026630957,,,,,,,,,,,,,,,,,,,,,,,,,,,,,,,189071,2023-05-16_15h06.27.276,eb_02psyexp,2022.2.4,119.98471631706022,
140,0,140,0,,,,,,,,,,,,,,,,,,,,,,,,,,,,,,,,,,,,,,,,,,,,,,,,,,,,,,,,,,,380.85547026630957,380.85547026630957,380.85547026630957,380.85547026630957,380.85547026630957,380.85547026630957,l,0,0.2700159954838455,381.1388121016789,382.1638873376651,,,,,,,,,,,,,,,,,,,,,,,,,,,,,,,189071,2023-05-16_15h06.27.276,eb_02psyexp,2022.2.4,119.98471631706022,
141,0,141,0,,,,,,,,,,,,,,,,,,,,,,,,,,,,,,,,,,,,,,,,,,,,,,,,,,,,,,,,,,,382.1638873376651,382.1638873376651,382.1638873376651,382.1638873376651,382.1638873376651,382.1638873376651,s,1,0.48161848401650786,382.65563085023314,383.6723524031695,,,,,,,,,,,,,,,,,,,,,,,,,,,,,,,189071,2023-05-16_15h06.27.276,eb_02psyexp,2022.2.4,119.98471631706022,
142,0,142,0,,,,,,,,,,,,,,,,,,,,,,,,,,,,,,,,,,,,,,,,,,,,,,,,,,,,,,,,,,,383.6723524031695,383.6723524031695,383.6723524031695,383.6723524031695,383.6723524031695,383.6723524031695,l,1,0.5251859216950834,384.2057444965467,385.2308393527055,,,,,,,,,,,,,,,,,,,,,,,,,,,,,,,189071,2023-05-16_15h06.27.276,eb_02psyexp,2022.2.4,119.98471631706022,
143,0,143,0,,,,,,,,,,,,,,,,,,,,,,,,,,,,,,,,,,,,,,,,,,,,,,,,,,,,,,,,,,,385.2308393527055,385.2308393527055,385.2308393527055,385.2308393527055,385.2308393527055,385.2308393527055,s,1,0.5667554179672152,385.80588455463294,386.8393158884719,,,,,,,,,,,,,,,,,,,,,,,,,,,,,,,189071,2023-05-16_15h06.27.276,eb_02psyexp,2022.2.4,119.98471631706022,
144,0,144,0,,,,,,,,,,,,,,,,,,,,,,,,,,,,,,,,,,,,,,,,,,,,,,,,,,,,,,,,,,,386.8393158884719,386.8393158884719,386.8393158884719,386.8393158884719,386.8393158884719,386.8393158884719,s,1,0.5022849071538076,387.35602506552823,388.3727595980745,,,,,,,,,,,,,,,,,,,,,,,,,,,,,,,189071,2023-05-16_15h06.27.276,eb_02psyexp,2022.2.4,119.98471631706022,
145,0,145,0,,,,,,,,,,,,,,,,,,,,,,,,,,,,,,,,,,,,,,,,,,,,,,,,,,,,,,,,,,,388.3727595980745,388.3727595980745,388.3727595980745,388.3727595980745,388.3727595980745,388.3727595980745,l,1,0.4559552454156801,388.8394797926303,389.85621855105273,,,,,,,,,,,,,,,,,,,,,,,,,,,,,,,189071,2023-05-16_15h06.27.276,eb_02psyexp,2022.2.4,119.98471631706022,
146,0,146,0,,,,,,,,,,,,,,,,,,,,,,,,,,,,,,,,,,,,,,,,,,,,,,,,,,,,,,,,,,,389.85621855105273,389.85621855105273,389.85621855105273,389.85621855105273,389.85621855105273,389.85621855105273,s,1,0.3085742419352755,390.1729298410937,391.18968308821786,,,,,,,,,,,,,,,,,,,,,,,,,,,,,,,189071,2023-05-16_15h06.27.276,eb_02psyexp,2022.2.4,119.98471631706022,
147,0,147,0,,,,,,,,,,,,,,,,,,,,,,,,,,,,,,,,,,,,,,,,,,,,,,,,,,,,,,,,,,,391.18968308821786,391.18968308821786,391.18968308821786,391.18968308821786,391.18968308821786,391.18968308821786,l,1,0.2950154673308134,391.4980431101285,392.52311653492507,,,,,,,,,,,,,,,,,,,,,,,,,,,,,,,189071,2023-05-16_15h06.27.276,eb_02psyexp,2022.2.4,119.98471631706022,
148,0,148,0,,,,,,,,,,,,,,,,,,,,,,,,,,,,,,,,,,,,,,,,,,,,,,,,,,,,,,,,,,,392.52311653492507,392.52311653492507,392.52311653492507,392.52311653492507,392.52311653492507,392.52311653492507,s,1,0.3856391184963286,392.92316845303867,393.93992320948746,,,,,,,,,,,,,,,,,,,,,,,,,,,,,,,189071,2023-05-16_15h06.27.276,eb_02psyexp,2022.2.4,119.98471631706022,
149,0,149,0,,,,,,,,,,,,,,,,,,,,,,,,,,,,,,,,,,,,,,,,,,,,,,,,,,,,,,,,,,,393.93992320948746,393.93992320948746,393.93992320948746,393.93992320948746,393.93992320948746,393.93992320948746,s,1,0.5208169530378655,394.4733029269846,395.49005798529834,,,,,,,,,,,,,,,,,,,,,,,,,,,,,,,189071,2023-05-16_15h06.27.276,eb_02psyexp,2022.2.4,119.98471631706022,
150,0,150,0,,,,,,,,,,,,,,,,,,,,,,,,,,,,,,,,,,,,,,,,,,,,,,,,,,,,,,,,,,,395.49005798529834,395.49005798529834,395.49005798529834,395.49005798529834,395.49005798529834,395.49005798529834,l,1,0.3387293020496145,395.8400865100557,396.86516084044706,,,,,,,,,,,,,,,,,,,,,,,,,,,,,,,189071,2023-05-16_15h06.27.276,eb_02psyexp,2022.2.4,119.98471631706022,
151,0,151,0,,,,,,,,,,,,,,,,,,,,,,,,,,,,,,,,,,,,,,,,,,,,,,,,,,,,,,,,,,,396.86516084044706,396.86516084044706,396.86516084044706,396.86516084044706,396.86516084044706,396.86516084044706,s,1,0.6356600970029831,397.51523071853444,398.53198668232653,,,,,,,,,,,,,,,,,,,,,,,,,,,,,,,189071,2023-05-16_15h06.27.276,eb_02psyexp,2022.2.4,119.98471631706022,
152,0,152,0,,,,,,,,,,,,,,,,,,,,,,,,,,,,,,,,,,,,,,,,,,,,,,,,,,,,,,,,,,,398.53198668232653,398.53198668232653,398.53198668232653,398.53198668232653,398.53198668232653,398.53198668232653,l,1,1.0088709599804133,399.55707369046286,400.57382512651384,,,,,,,,,,,,,,,,,,,,,,,,,,,,,,,189071,2023-05-16_15h06.27.276,eb_02psyexp,2022.2.4,119.98471631706022,
153,0,153,0,,,,,,,,,,,,,,,,,,,,,,,,,,,,,,,,,,,,,,,,,,,,,,,,,,,,,,,,,,,400.57382512651384,400.57382512651384,400.57382512651384,400.57382512651384,400.57382512651384,400.57382512651384,s,1,0.3990149722667411,400.98222106846515,402.0072733638808,,,,,,,,,,,,,,,,,,,,,,,,,,,,,,,189071,2023-05-16_15h06.27.276,eb_02psyexp,2022.2.4,119.98471631706022,
154,0,154,0,,,,,,,,,,,,,,,,,,,,,,,,,,,,,,,,,,,,,,,,,,,,,,,,,,,,,,,,,,,402.0072733638808,402.0072733638808,402.0072733638808,402.0072733638808,402.0072733638808,402.0072733638808,s,1,0.4856336851371452,402.5073328282451,403.5240700773429,,,,,,,,,,,,,,,,,,,,,,,,,,,,,,,189071,2023-05-16_15h06.27.276,eb_02psyexp,2022.2.4,119.98471631706022,
155,0,155,0,,,,,,,,,,,,,,,,,,,,,,,,,,,,,,,,,,,,,,,,,,,,,,,,,,,,,,,,,,,403.5240700773429,403.5240700773429,403.5240700773429,403.5240700773429,403.5240700773429,403.5240700773429,l,1,0.5608723725890741,404.0991342958296,405.12422643532045,,,,,,,,,,,,,,,,,,,,,,,,,,,,,,,189071,2023-05-16_15h06.27.276,eb_02psyexp,2022.2.4,119.98471631706022,
156,0,156,0,,,,,,,,,,,,,,,,,,,,,,,,,,,,,,,,,,,,,,,,,,,,,,,,,,,,,,,,,,,405.12422643532045,405.12422643532045,405.12422643532045,405.12422643532045,405.12422643532045,405.12422643532045,s,1,0.5437273248098791,405.68260864308104,406.69936249393504,,,,,,,,,,,,,,,,,,,,,,,,,,,,,,,189071,2023-05-16_15h06.27.276,eb_02psyexp,2022.2.4,119.98471631706022,
157,0,157,0,,,,,,,,,,,,,,,,,,,,,,,,,,,,,,,,,,,,,,,,,,,,,,,,,,,,,,,,,,,406.69936249393504,406.69936249393504,406.69936249393504,406.69936249393504,406.69936249393504,406.69936249393504,s,1,0.46464881079737097,407.1744004514767,408.1994971188251,,,,,,,,,,,,,,,,,,,,,,,,,,,,,,,189071,2023-05-16_15h06.27.276,eb_02psyexp,2022.2.4,119.98471631706022,
158,0,158,0,,,,,,,,,,,,,,,,,,,,,,,,,,,,,,,,,,,,,,,,,,,,,,,,,,,,,,,,,,,408.1994971188251,408.1994971188251,408.1994971188251,408.1994971188251,408.1994971188251,408.1994971188251,s,1,0.4285452039912343,408.6411927881418,409.65792309481185,,,,,,,,,,,,,,,,,,,,,,,,,,,,,,,189071,2023-05-16_15h06.27.276,eb_02psyexp,2022.2.4,119.98471631706022,
159,0,159,0,,,,,,,,,,,,,,,,,,,,,,,,,,,,,,,,,,,,,,,,,,,,,,,,,,,,,,,,,,,409.65792309481185,409.65792309481185,409.65792309481185,409.65792309481185,409.65792309481185,409.65792309481185,s,1,0.4261355400085449,410.0996567971306,411.1247492386028,,,,,,,,,,,,,,,,,,,,,,,,,,,,,,,189071,2023-05-16_15h06.27.276,eb_02psyexp,2022.2.4,119.98471631706022,
160,0,160,0,,,,,,,,,,,,,,,,,,,,,,,,,,,,,,,,,,,,,,,,,,,,,,,,,,,,,,,,,,,411.1247492386028,411.1247492386028,411.1247492386028,411.1247492386028,411.1247492386028,411.1247492386028,l,0,0.2953797996742651,411.4331098641269,412.44986099831294,,,,,,,,,,,,,,,,,,,,,,,,,,,,,,,189071,2023-05-16_15h06.27.276,eb_02psyexp,2022.2.4,119.98471631706022,
161,0,161,0,,,,,,,,,,,,,,,,,,,,,,,,,,,,,,,,,,,,,,,,,,,,,,,,,,,,,,,,,,,412.44986099831294,412.44986099831294,412.44986099831294,412.44986099831294,412.44986099831294,412.44986099831294,s,1,0.43427340069320053,412.8998991822591,413.9249925292097,,,,,,,,,,,,,,,,,,,,,,,,,,,,,,,189071,2023-05-16_15h06.27.276,eb_02psyexp,2022.2.4,119.98471631706022,
162,0,162,0,,,,,,,,,,,,,,,,,,,,,,,,,,,,,,,,,,,,,,,,,,,,,,,,,,,,,,,,,,,413.9249925292097,413.9249925292097,413.9249925292097,413.9249925292097,413.9249925292097,413.9249925292097,s,1,0.431168275536038,414.36669302813243,415.38344838819467,,,,,,,,,,,,,,,,,,,,,,,,,,,,,,,189071,2023-05-16_15h06.27.276,eb_02psyexp,2022.2.4,119.98471631706022,
163,0,163,0,,,,,,,,,,,,,,,,,,,,,,,,,,,,,,,,,,,,,,,,,,,,,,,,,,,,,,,,,,,415.38344838819467,415.38344838819467,415.38344838819467,415.38344838819467,415.38344838819467,415.38344838819467,s,1,0.444739727769047,415.8418182202149,416.8668928524712,,,,,,,,,,,,,,,,,,,,,,,,,,,,,,,189071,2023-05-16_15h06.27.276,eb_02psyexp,2022.2.4,119.98471631706022,
164,0,164,0,,,,,,,,,,,,,,,,,,,,,,,,,,,,,,,,,,,,,,,,,,,,,,,,,,,,,,,,,,,416.8668928524712,416.8668928524712,416.8668928524712,416.8668928524712,416.8668928524712,416.8668928524712,s,1,0.39337733038701117,417.2752930202987,418.2920163843082,,,,,,,,,,,,,,,,,,,,,,,,,,,,,,,189071,2023-05-16_15h06.27.276,eb_02psyexp,2022.2.4,119.98471631706022,
165,0,165,0,,,,,,,,,,,,,,,,,,,,,,,,,,,,,,,,,,,,,,,,,,,,,,,,,,,,,,,,,,,418.2920163843082,418.2920163843082,418.2920163843082,418.2920163843082,418.2920163843082,418.2920163843082,l,1,0.44824148318730295,418.7504049310228,419.7671614984283,,,,,,,,,,,,,,,,,,,,,,,,,,,,,,,189071,2023-05-16_15h06.27.276,eb_02psyexp,2022.2.4,119.98471631706022,
166,0,166,0,,,,,,,,,,,,,,,,,,,,,,,,,,,,,,,,,,,,,,,,,,,,,,,,,,,,,,,,,,,419.7671614984283,419.7671614984283,419.7671614984283,419.7671614984283,419.7671614984283,419.7671614984283,s,1,1.3081456157378852,421.0839376861695,422.117384414305,,,,,,,,,,,,,,,,,,,,,,,,,,,,,,,189071,2023-05-16_15h06.27.276,eb_02psyexp,2022.2.4,119.98471631706022,
167,0,167,0,,,,,,,,,,,,,,,,,,,,,,,,,,,,,,,,,,,,,,,,,,,,,,,,,,,,,,,,,,,422.117384414305,422.117384414305,422.117384414305,422.117384414305,422.117384414305,422.117384414305,s,1,0.3979177495930344,422.5257266269764,423.55083144421224,,,,,,,,,,,,,,,,,,,,,,,,,,,,,,,189071,2023-05-16_15h06.27.276,eb_02psyexp,2022.2.4,119.98471631706022,
168,0,168,0,,,,,,,,,,,,,,,,,,,,,,,,,,,,,,,,,,,,,,,,,,,,,,,,,,,,,,,,,,,423.55083144421224,423.55083144421224,423.55083144421224,423.55083144421224,423.55083144421224,423.55083144421224,l,1,0.48452257737517357,424.0508649494732,425.07593475223985,,,,,,,,,,,,,,,,,,,,,,,,,,,,,,,189071,2023-05-16_15h06.27.276,eb_02psyexp,2022.2.4,119.98471631706022,
169,0,169,0,,,,,,,,,,,,,,,,,,,,,,,,,,,,,,,,,,,,,,,,,,,,,,,,,,,,,,,,,,,425.07593475223985,425.07593475223985,425.07593475223985,425.07593475223985,425.07593475223985,425.07593475223985,s,1,0.43144295865204185,425.51765819173306,426.54276783845853,,,,,,,,,,,,,,,,,,,,,,,,,,,,,,,189071,2023-05-16_15h06.27.276,eb_02psyexp,2022.2.4,119.98471631706022,
170,0,170,0,,,,,,,,,,,,,,,,,,,,,,,,,,,,,,,,,,,,,,,,,,,,,,,,,,,,,,,,,,,426.54276783845853,426.54276783845853,426.54276783845853,426.54276783845853,426.54276783845853,426.54276783845853,l,1,0.5086158971535042,427.06779326929245,428.08454923308454,,,,,,,,,,,,,,,,,,,,,,,,,,,,,,,189071,2023-05-16_15h06.27.276,eb_02psyexp,2022.2.4,119.98471631706022,
171,0,171,0,,,,,,,,,,,,,,,,,,,,,,,,,,,,,,,,,,,,,,,,,,,,,,,,,,,,,,,,,,,428.08454923308454,428.08454923308454,428.08454923308454,428.08454923308454,428.08454923308454,428.08454923308454,l,1,0.4388962247176096,428.5345925485017,429.5513279865263,,,,,,,,,,,,,,,,,,,,,,,,,,,,,,,189071,2023-05-16_15h06.27.276,eb_02psyexp,2022.2.4,119.98471631706022,
172,0,172,0,,,,,,,,,,,,,,,,,,,,,,,,,,,,,,,,,,,,,,,,,,,,,,,,,,,,,,,,,,,429.5513279865263,429.5513279865263,429.5513279865263,429.5513279865263,429.5513279865263,429.5513279865263,s,0,0.4441342179197818,430.0097162312595,431.02647702465765,,,,,,,,,,,,,,,,,,,,,,,,,,,,,,,189071,2023-05-16_15h06.27.276,eb_02psyexp,2022.2.4,119.98471631706022,
173,0,173,0,,,,,,,,,,,,,,,,,,,,,,,,,,,,,,,,,,,,,,,,,,,,,,,,,,,,,,,,,,,431.02647702465765,431.02647702465765,431.02647702465765,431.02647702465765,431.02647702465765,431.02647702465765,s,1,0.4570298292674124,431.4931797120953,432.5099338646978,,,,,,,,,,,,,,,,,,,,,,,,,,,,,,,189071,2023-05-16_15h06.27.276,eb_02psyexp,2022.2.4,119.98471631706022,
174,0,174,0,,,,,,,,,,,,,,,,,,,,,,,,,,,,,,,,,,,,,,,,,,,,,,,,,,,,,,,,,,,432.5099338646978,432.5099338646978,432.5099338646978,432.5099338646978,432.5099338646978,432.5099338646978,l,1,0.3896030052565038,432.90996737009846,433.93504079489503,,,,,,,,,,,,,,,,,,,,,,,,,,,,,,,189071,2023-05-16_15h06.27.276,eb_02psyexp,2022.2.4,119.98471631706022,
175,0,175,0,,,,,,,,,,,,,,,,,,,,,,,,,,,,,,,,,,,,,,,,,,,,,,,,,,,,,,,,,,,433.93504079489503,433.93504079489503,433.93504079489503,433.93504079489503,433.93504079489503,433.93504079489503,s,1,0.4764885528711602,434.4267677057069,435.4435043510748,,,,,,,,,,,,,,,,,,,,,,,,,,,,,,,189071,2023-05-16_15h06.27.276,eb_02psyexp,2022.2.4,119.98471631706022,
176,0,176,0,,,,,,,,,,,,,,,,,,,,,,,,,,,,,,,,,,,,,,,,,,,,,,,,,,,,,,,,,,,435.4435043510748,435.4435043510748,435.4435043510748,435.4435043510748,435.4435043510748,435.4435043510748,s,1,0.6080728699453175,436.06023948732764,437.07698126416653,,,,,,,,,,,,,,,,,,,,,,,,,,,,,,,189071,2023-05-16_15h06.27.276,eb_02psyexp,2022.2.4,119.98471631706022,
177,0,177,0,,,,,,,,,,,,,,,,,,,,,,,,,,,,,,,,,,,,,,,,,,,,,,,,,,,,,,,,,,,437.07698126416653,437.07698126416653,437.07698126416653,437.07698126416653,437.07698126416653,437.07698126416653,s,1,0.45367084885947406,437.54369572363794,438.5771279629553,,,,,,,,,,,,,,,,,,,,,,,,,,,,,,,189071,2023-05-16_15h06.27.276,eb_02psyexp,2022.2.4,119.98471631706022,
178,0,178,0,,,,,,,,,,,,,,,,,,,,,,,,,,,,,,,,,,,,,,,,,,,,,,,,,,,,,,,,,,,438.5771279629553,438.5771279629553,438.5771279629553,438.5771279629553,438.5771279629553,438.5771279629553,s,1,0.45753029570914805,439.0438306503929,440.06892339361366,,,,,,,,,,,,,,,,,,,,,,,,,,,,,,,189071,2023-05-16_15h06.27.276,eb_02psyexp,2022.2.4,119.98471631706022,
179,0,179,0,,,,,,,,,,,,,,,,,,,,,,,,,,,,,,,,,,,,,,,,,,,,,,,,,,,,,,,,,,,440.06892339361366,440.06892339361366,440.06892339361366,440.06892339361366,440.06892339361366,440.06892339361366,l,1,0.45375234819948673,440.53563815495,441.56905741477385,,,,,,,,,,,,,,,,,,,,,,,,,,,,,,,189071,2023-05-16_15h06.27.276,eb_02psyexp,2022.2.4,119.98471631706022,
180,0,180,0,,,,,,,,,,,,,,,,,,,,,,,,,,,,,,,,,,,,,,,,,,,,,,,,,,,,,,,,,,,441.56905741477385,441.56905741477385,441.56905741477385,441.56905741477385,441.56905741477385,441.56905741477385,s,1,0.40964550559874624,441.9940879769856,443.0191780035384,,,,,,,,,,,,,,,,,,,,,,,,,,,,,,,189071,2023-05-16_15h06.27.276,eb_02psyexp,2022.2.4,119.98471631706022,
181,0,181,0,,,,,,,,,,,,,,,,,,,,,,,,,,,,,,,,,,,,,,,,,,,,,,,,,,,,,,,,,,,443.0191780035384,443.0191780035384,443.0191780035384,443.0191780035384,443.0191780035384,443.0191780035384,l,1,0.4875640122918412,443.51922026253305,444.54431934456807,,,,,,,,,,,,,,,,,,,,,,,,,,,,,,,189071,2023-05-16_15h06.27.276,eb_02psyexp,2022.2.4,119.98471631706022,
182,0,182,0,,,,,,,,,,,,,,,,,,,,,,,,,,,,,,,,,,,,,,,,,,,,,,,,,,,,,,,,,,,444.54431934456807,444.54431934456807,444.54431934456807,444.54431934456807,444.54431934456807,444.54431934456807,s,1,0.27443718421272933,444.8276696318062,445.85277233610395,,,,,,,,,,,,,,,,,,,,,,,,,,,,,,,189071,2023-05-16_15h06.27.276,eb_02psyexp,2022.2.4,119.98471631706022,
183,0,183,0,,,,,,,,,,,,,,,,,,,,,,,,,,,,,,,,,,,,,,,,,,,,,,,,,,,,,,,,,,,445.85277233610395,445.85277233610395,445.85277233610395,445.85277233610395,445.85277233610395,445.85277233610395,l,1,0.44601956952828914,446.3111313014524,447.3445629370399,,,,,,,,,,,,,,,,,,,,,,,,,,,,,,,189071,2023-05-16_15h06.27.276,eb_02psyexp,2022.2.4,119.98471631706022,
184,0,184,0,,,,,,,,,,,,,,,,,,,,,,,,,,,,,,,,,,,,,,,,,,,,,,,,,,,,,,,,,,,447.3445629370399,447.3445629370399,447.3445629370399,447.3445629370399,447.3445629370399,447.3445629370399,s,1,0.3062699233414605,447.66124192927964,448.68633678543847,,,,,,,,,,,,,,,,,,,,,,,,,,,,,,,189071,2023-05-16_15h06.27.276,eb_02psyexp,2022.2.4,119.98471631706022,
185,0,185,0,,,,,,,,,,,,,,,,,,,,,,,,,,,,,,,,,,,,,,,,,,,,,,,,,,,,,,,,,,,448.68633678543847,448.68633678543847,448.68633678543847,448.68633678543847,448.68633678543847,448.68633678543847,s,0,0.3645060360431671,449.06136991339736,450.09480366203934,,,,,,,,,,,,,,,,,,,,,,,,,,,,,,,189071,2023-05-16_15h06.27.276,eb_02psyexp,2022.2.4,119.98471631706022,
186,0,186,0,,,,,,,,,,,,,,,,,,,,,,,,,,,,,,,,,,,,,,,,,,,,,,,,,,,,,,,,,,,450.09480366203934,450.09480366203934,450.09480366203934,450.09480366203934,450.09480366203934,450.09480366203934,s,1,1.5321094420505688,451.63659290468786,452.6616645185277,,,,,,,,,,,,,,,,,,,,,,,,,,,,,,,189071,2023-05-16_15h06.27.276,eb_02psyexp,2022.2.4,119.98471631706022,
187,0,187,0,,,,,,,,,,,,,,,,,,,,,,,,,,,,,,,,,,,,,,,,,,,,,,,,,,,,,,,,,,,452.6616645185277,452.6616645185277,452.6616645185277,452.6616645185277,452.6616645185277,452.6616645185277,s,1,0.5242758456151932,453.19506959139835,454.2284791920101,,,,,,,,,,,,,,,,,,,,,,,,,,,,,,,189071,2023-05-16_15h06.27.276,eb_02psyexp,2022.2.4,119.98471631706022,
188,0,188,0,,,,,,,,,,,,,,,,,,,,,,,,,,,,,,,,,,,,,,,,,,,,,,,,,,,,,,,,,,,454.2284791920101,454.2284791920101,454.2284791920101,454.2284791920101,454.2284791920101,454.2284791920101,s,1,0.42949301132466644,454.67019931110553,455.69528933777474,,,,,,,,,,,,,,,,,,,,,,,,,,,,,,,189071,2023-05-16_15h06.27.276,eb_02psyexp,2022.2.4,119.98471631706022,
189,0,189,0,,,,,,,,,,,,,,,,,,,,,,,,,,,,,,,,,,,,,,,,,,,,,,,,,,,,,,,,,,,455.69528933777474,455.69528933777474,455.69528933777474,455.69528933777474,455.69528933777474,455.69528933777474,l,1,0.4347080639563501,456.1453154477058,457.1787519128993,,,,,,,,,,,,,,,,,,,,,,,,,,,,,,,189071,2023-05-16_15h06.27.276,eb_02psyexp,2022.2.4,119.98471631706022,
190,0,190,0,,,,,,,,,,,,,,,,,,,,,,,,,,,,,,,,,,,,,,,,,,,,,,,,,,,,,,,,,,,457.1787519128993,457.1787519128993,457.1787519128993,457.1787519128993,457.1787519128993,457.1787519128993,s,1,0.4632557757431641,457.6537771928124,458.6872109414544,,,,,,,,,,,,,,,,,,,,,,,,,,,,,,,189071,2023-05-16_15h06.27.276,eb_02psyexp,2022.2.4,119.98471631706022,
191,0,191,0,,,,,,,,,,,,,,,,,,,,,,,,,,,,,,,,,,,,,,,,,,,,,,,,,,,,,,,,,,,458.6872109414544,458.6872109414544,458.6872109414544,458.6872109414544,458.6872109414544,458.6872109414544,l,1,0.38680304982699454,459.08723840967286,460.11232964368537,,,,,,,,,,,,,,,,,,,,,,,,,,,,,,,189071,2023-05-16_15h06.27.276,eb_02psyexp,2022.2.4,119.98471631706022,
192,0,192,0,,,,,,,,,,,,,,,,,,,,,,,,,,,,,,,,,,,,,,,,,,,,,,,,,,,,,,,,,,,460.11232964368537,460.11232964368537,460.11232964368537,460.11232964368537,460.11232964368537,460.11232964368537,s,1,0.4497582765761763,460.57069887197576,461.6041302056983,,,,,,,,,,,,,,,,,,,,,,,,,,,,,,,189071,2023-05-16_15h06.27.276,eb_02psyexp,2022.2.4,119.98471631706022,
193,0,193,0,,,,,,,,,,,,,,,,,,,,,,,,,,,,,,,,,,,,,,,,,,,,,,,,,,,,,,,,,,,461.6041302056983,461.6041302056983,461.6041302056983,461.6041302056983,461.6041302056983,461.6041302056983,l,1,0.3099859916837886,461.929164692061,462.962586064823,,,,,,,,,,,,,,,,,,,,,,,,,,,,,,,189071,2023-05-16_15h06.27.276,eb_02psyexp,2022.2.4,119.98471631706022,
194,0,194,0,,,,,,,,,,,,,,,,,,,,,,,,,,,,,,,,,,,,,,,,,,,,,,,,,,,,,,,,,,,462.962586064823,462.962586064823,462.962586064823,462.962586064823,462.962586064823,462.962586064823,s,1,0.4235408423701301,463.3959458603058,464.4210404145997,,,,,,,,,,,,,,,,,,,,,,,,,,,,,,,189071,2023-05-16_15h06.27.276,eb_02psyexp,2022.2.4,119.98471631706022,
195,0,195,0,,,,,,,,,,,,,,,,,,,,,,,,,,,,,,,,,,,,,,,,,,,,,,,,,,,,,,,,,,,464.4210404145997,464.4210404145997,464.4210404145997,464.4210404145997,464.4210404145997,464.4210404145997,l,1,0.43712255742866546,464.8710722597316,465.90450359345414,,,,,,,,,,,,,,,,,,,,,,,,,,,,,,,189071,2023-05-16_15h06.27.276,eb_02psyexp,2022.2.4,119.98471631706022,
196,0,196,0,,,,,,,,,,,,,,,,,,,,,,,,,,,,,,,,,,,,,,,,,,,,,,,,,,,,,,,,,,,465.90450359345414,465.90450359345414,465.90450359345414,465.90450359345414,465.90450359345414,465.90450359345414,s,1,0.3056906743440777,466.2212016021367,467.2463021934964,,,,,,,,,,,,,,,,,,,,,,,,,,,,,,,189071,2023-05-16_15h06.27.276,eb_02psyexp,2022.2.4,119.98471631706022,
197,0,197,0,,,,,,,,,,,,,,,,,,,,,,,,,,,,,,,,,,,,,,,,,,,,,,,,,,,,,,,,,,,467.2463021934964,467.2463021934964,467.2463021934964,467.2463021934964,467.2463021934964,467.2463021934964,l,1,0.3789277981268242,467.63798231759574,468.67141666985117,,,,,,,,,,,,,,,,,,,,,,,,,,,,,,,189071,2023-05-16_15h06.27.276,eb_02psyexp,2022.2.4,119.98471631706022,
198,0,198,0,,,,,,,,,,,,,,,,,,,,,,,,,,,,,,,,,,,,,,,,,,,,,,,,,,,,,,,,,,,468.67141666985117,468.67141666985117,468.67141666985117,468.67141666985117,468.67141666985117,468.67141666985117,s,1,0.4178503768052906,469.10477465426084,470.1298743400257,,,,,,,,,,,,,,,,,,,,,,,,,,,,,,,189071,2023-05-16_15h06.27.276,eb_02psyexp,2022.2.4,119.98471631706022,
199,0,199,0,,,,,0,0,0,0,,,,,,,,,,,,,,,,,,,,,,,,,,,,,,,,,,,,,,,,,,,,,,,,,,,470.1298743400257,470.1298743400257,470.1298743400257,470.1298743400257,470.1298743400257,470.1298743400257,l,1,0.2873949765926227,470.4298713215394,471.42997515772004,471.42997515772004,471.42997515772004,space,127.6538984432118,,,,,,,,,,,,,,,,,,,,,,,,,,,189071,2023-05-16_15h06.27.276,eb_02psyexp,2022.2.4,119.98471631706022,
199,0,199,0,,,,,,,,,,,,,,,,,,,,,,,,,,,,,,,,,,,,,,,,,,,,,,,,,,,,,,,,,,,,,,,,,,,,,,,,,,,,,,,,,,,,,,,,,,,,,,,,,,,,189071,2023-05-16_15h06.27.276,eb_02psyexp,2022.2.4,119.98471631706022,
200,0,200,0,,,,,,,,,,,,,,,,,,,,,,,,,,,,,,,,,,,,,,,,,,,,,,,,,,,,,,,,,,,599.1327470410615,599.1327470410615,599.1327470410615,599.1327470410615,599.1327470410615,599.1327470410615,s,1,2.447170823230408,601.5912847013678,602.6247145258822,,,,,,,,,,,,,,,,,,,,,,,,,,,,,,,189071,2023-05-16_15h06.27.276,eb_02psyexp,2022.2.4,119.98471631706022,
201,0,201,0,,,,,,,,,,,,,,,,,,,,,,,,,,,,,,,,,,,,,,,,,,,,,,,,,,,,,,,,,,,602.6247145258822,602.6247145258822,602.6247145258822,602.6247145258822,602.6247145258822,602.6247145258822,l,1,1.171240598661825,603.8081448031589,604.8415764388628,,,,,,,,,,,,,,,,,,,,,,,,,,,,,,,189071,2023-05-16_15h06.27.276,eb_02psyexp,2022.2.4,119.98471631706022,
202,0,202,0,,,,,,,,,,,,,,,,,,,,,,,,,,,,,,,,,,,,,,,,,,,,,,,,,,,,,,,,,,,604.8415764388628,604.8415764388628,604.8415764388628,604.8415764388628,604.8415764388628,604.8415764388628,s,1,0.4104321252088994,605.2666042844066,606.2916988387005,,,,,,,,,,,,,,,,,,,,,,,,,,,,,,,189071,2023-05-16_15h06.27.276,eb_02psyexp,2022.2.4,119.98471631706022,
203,0,203,0,,,,,,,,,,,,,,,,,,,,,,,,,,,,,,,,,,,,,,,,,,,,,,,,,,,,,,,,,,,606.2916988387005,606.2916988387005,606.2916988387005,606.2916988387005,606.2916988387005,606.2916988387005,s,1,0.41633841302245855,606.7167300047586,607.7501761291642,,,,,,,,,,,,,,,,,,,,,,,,,,,,,,,189071,2023-05-16_15h06.27.276,eb_02psyexp,2022.2.4,119.98471631706022,
204,0,204,0,,,,,,,,,,,,,,,,,,,,,,,,,,,,,,,,,,,,,,,,,,,,,,,,,,,,,,,,,,,607.7501761291642,607.7501761291642,607.7501761291642,607.7501761291642,607.7501761291642,607.7501761291642,s,1,0.30092990514822304,608.0668469714001,609.1002870587399,,,,,,,,,,,,,,,,,,,,,,,,,,,,,,,189071,2023-05-16_15h06.27.276,eb_02psyexp,2022.2.4,119.98471631706022,
205,0,205,0,,,,,,,,,,,,,,,,,,,,,,,,,,,,,,,,,,,,,,,,,,,,,,,,,,,,,,,,,,,609.1002870587399,609.1002870587399,609.1002870587399,609.1002870587399,609.1002870587399,609.1002870587399,l,1,0.9987611168762669,610.1086748507805,611.1337893272284,,,,,,,,,,,,,,,,,,,,,,,,,,,,,,,189071,2023-05-16_15h06.27.276,eb_02psyexp,2022.2.4,119.98471631706022,
206,0,206,0,,,,,,,,,,,,,,,,,,,,,,,,,,,,,,,,,,,,,,,,,,,,,,,,,,,,,,,,,,,611.1337893272284,611.1337893272284,611.1337893272284,611.1337893272284,611.1337893272284,611.1337893272284,l,1,0.47738896985538304,611.625489977072,612.6505887572421,,,,,,,,,,,,,,,,,,,,,,,,,,,,,,,189071,2023-05-16_15h06.27.276,eb_02psyexp,2022.2.4,119.98471631706022,
207,0,207,0,,,,,,,,,,,,,,,,,,,,,,,,,,,,,,,,,,,,,,,,,,,,,,,,,,,,,,,,,,,612.6505887572421,612.6505887572421,612.6505887572421,612.6505887572421,612.6505887572421,612.6505887572421,s,1,0.3925783350132406,613.0589463643264,614.0840442390181,,,,,,,,,,,,,,,,,,,,,,,,,,,,,,,189071,2023-05-16_15h06.27.276,eb_02psyexp,2022.2.4,119.98471631706022,
208,0,208,0,,,,,,,,,,,,,,,,,,,,,,,,,,,,,,,,,,,,,,,,,,,,,,,,,,,,,,,,,,,614.0840442390181,614.0840442390181,614.0840442390181,614.0840442390181,614.0840442390181,614.0840442390181,l,1,0.43913770420476794,614.5340763860149,615.5591935790144,,,,,,,,,,,,,,,,,,,,,,,,,,,,,,,189071,2023-05-16_15h06.27.276,eb_02psyexp,2022.2.4,119.98471631706022,
209,0,209,0,,,,,,,,,,,,,,,,,,,,,,,,,,,,,,,,,,,,,,,,,,,,,,,,,,,,,,,,,,,615.5591935790144,615.5591935790144,615.5591935790144,615.5591935790144,615.5591935790144,615.5591935790144,s,1,0.3000131882727146,615.8675255288836,616.9009565608576,,,,,,,,,,,,,,,,,,,,,,,,,,,,,,,189071,2023-05-16_15h06.27.276,eb_02psyexp,2022.2.4,119.98471631706022,
210,0,210,0,,,,,,,,,,,,,,,,,,,,,,,,,,,,,,,,,,,,,,,,,,,,,,,,,,,,,,,,,,,616.9009565608576,616.9009565608576,616.9009565608576,616.9009565608576,616.9009565608576,616.9009565608576,l,1,0.334293020889163,617.250979954144,618.2760708862916,,,,,,,,,,,,,,,,,,,,,,,,,,,,,,,189071,2023-05-16_15h06.27.276,eb_02psyexp,2022.2.4,119.98471631706022,
211,0,211,0,,,,,,,,,,,,,,,,,,,,,,,,,,,,,,,,,,,,,,,,,,,,,,,,,,,,,,,,,,,618.2760708862916,618.2760708862916,618.2760708862916,618.2760708862916,618.2760708862916,618.2760708862916,s,0,0.343205125303939,618.6344322664663,619.6595105209854,,,,,,,,,,,,,,,,,,,,,,,,,,,,,,,189071,2023-05-16_15h06.27.276,eb_02psyexp,2022.2.4,119.98471631706022,
212,0,212,0,,,,,,,,,,,,,,,,,,,,,,,,,,,,,,,,,,,,,,,,,,,,,,,,,,,,,,,,,,,619.6595105209854,619.6595105209854,619.6595105209854,619.6595105209854,619.6595105209854,619.6595105209854,s,1,0.4637794843874872,620.1345638728235,621.1679825289175,,,,,,,,,,,,,,,,,,,,,,,,,,,,,,,189071,2023-05-16_15h06.27.276,eb_02psyexp,2022.2.4,119.98471631706022,
213,0,213,0,,,,,,,,,,,,,,,,,,,,,,,,,,,,,,,,,,,,,,,,,,,,,,,,,,,,,,,,,,,621.1679825289175,621.1679825289175,621.1679825289175,621.1679825289175,621.1679825289175,621.1679825289175,l,1,0.41133948450442404,621.593023957801,622.6264613284729,,,,,,,,,,,,,,,,,,,,,,,,,,,,,,,189071,2023-05-16_15h06.27.276,eb_02psyexp,2022.2.4,119.98471631706022,
214,0,214,0,,,,,,,,,,,,,,,,,,,,,,,,,,,,,,,,,,,,,,,,,,,,,,,,,,,,,,,,,,,622.6264613284729,622.6264613284729,622.6264613284729,622.6264613284729,622.6264613284729,622.6264613284729,s,1,0.31995004147756845,622.9598117666319,623.993239780073,,,,,,,,,,,,,,,,,,,,,,,,,,,,,,,189071,2023-05-16_15h06.27.276,eb_02psyexp,2022.2.4,119.98471631706022,
215,0,215,0,,,,,,,,,,,,,,,,,,,,,,,,,,,,,,,,,,,,,,,,,,,,,,,,,,,,,,,,,,,623.993239780073,623.993239780073,623.993239780073,623.993239780073,623.993239780073,623.993239780073,l,1,0.49715980561450124,624.5016103666276,625.5267091469141,,,,,,,,,,,,,,,,,,,,,,,,,,,,,,,189071,2023-05-16_15h06.27.276,eb_02psyexp,2022.2.4,119.98471631706022,
216,0,216,0,,,,,,,,,,,,,,,,,,,,,,,,,,,,,,,,,,,,,,,,,,,,,,,,,,,,,,,,,,,625.5267091469141,625.5267091469141,625.5267091469141,625.5267091469141,625.5267091469141,625.5267091469141,s,1,0.41171257046516985,625.9517424257938,626.976829735795,,,,,,,,,,,,,,,,,,,,,,,,,,,,,,,189071,2023-05-16_15h06.27.276,eb_02psyexp,2022.2.4,119.98471631706022,
217,0,217,0,,,,,,,,,,,,,,,,,,,,,,,,,,,,,,,,,,,,,,,,,,,,,,,,,,,,,,,,,,,626.976829735795,626.976829735795,626.976829735795,626.976829735795,626.976829735795,626.976829735795,l,1,0.24165271373931319,627.226869428996,628.2602766148048,,,,,,,,,,,,,,,,,,,,,,,,,,,,,,,189071,2023-05-16_15h06.27.276,eb_02psyexp,2022.2.4,119.98471631706022,
218,0,218,0,,,,,,,,,,,,,,,,,,,,,,,,,,,,,,,,,,,,,,,,,,,,,,,,,,,,,,,,,,,628.2602766148048,628.2602766148048,628.2602766148048,628.2602766148048,628.2602766148048,628.2602766148048,s,1,0.24614815739914775,628.5186313543236,629.5437243994093,,,,,,,,,,,,,,,,,,,,,,,,,,,,,,,189071,2023-05-16_15h06.27.276,eb_02psyexp,2022.2.4,119.98471631706022,
219,0,219,0,,,,,,,,,,,,,,,,,,,,,,,,,,,,,,,,,,,,,,,,,,,,,,,,,,,,,,,,,,,629.5437243994093,629.5437243994093,629.5437243994093,629.5437243994093,629.5437243994093,629.5437243994093,l,1,0.37076729885302484,629.9270840438548,630.9605253387708,,,,,,,,,,,,,,,,,,,,,,,,,,,,,,,189071,2023-05-16_15h06.27.276,eb_02psyexp,2022.2.4,119.98471631706022,
220,0,220,0,,,,,,,,,,,,,,,,,,,,,,,,,,,,,,,,,,,,,,,,,,,,,,,,,,,,,,,,,,,630.9605253387708,630.9605253387708,630.9605253387708,630.9605253387708,630.9605253387708,630.9605253387708,s,1,0.38600345072336495,631.3605431477772,632.3939687465318,,,,,,,,,,,,,,,,,,,,,,,,,,,,,,,189071,2023-05-16_15h06.27.276,eb_02psyexp,2022.2.4,119.98471631706022,
221,0,221,0,,,,,,,,,,,,,,,,,,,,,,,,,,,,,,,,,,,,,,,,,,,,,,,,,,,,,,,,,,,632.3939687465318,632.3939687465318,632.3939687465318,632.3939687465318,632.3939687465318,632.3939687465318,l,1,0.3445897087221965,632.7523277119035,633.7774270958034,,,,,,,,,,,,,,,,,,,,,,,,,,,,,,,189071,2023-05-16_15h06.27.276,eb_02psyexp,2022.2.4,119.98471631706022,
222,0,222,0,,,,,,,,,,,,,,,,,,,,,,,,,,,,,,,,,,,,,,,,,,,,,,,,,,,,,,,,,,,633.7774270958034,633.7774270958034,633.7774270958034,633.7774270958034,633.7774270958034,633.7774270958034,s,1,0.34513575432356447,634.1357812315691,635.1692143764812,,,,,,,,,,,,,,,,,,,,,,,,,,,,,,,189071,2023-05-16_15h06.27.276,eb_02psyexp,2022.2.4,119.98471631706022,
223,0,223,0,,,,,,,,,,,,,,,,,,,,,,,,,,,,,,,,,,,,,,,,,,,,,,,,,,,,,,,,,,,635.1692143764812,635.1692143764812,635.1692143764812,635.1692143764812,635.1692143764812,635.1692143764812,l,1,0.2413964435691014,635.4192290161736,636.4443271927303,,,,,,,,,,,,,,,,,,,,,,,,,,,,,,,189071,2023-05-16_15h06.27.276,eb_02psyexp,2022.2.4,119.98471631706022,
224,0,224,0,,,,,,,,,,,,,,,,,,,,,,,,,,,,,,,,,,,,,,,,,,,,,,,,,,,,,,,,,,,636.4443271927303,636.4443271927303,636.4443271927303,636.4443271927303,636.4443271927303,636.4443271927303,s,0,0.27031180809717625,636.7276741595706,637.761103380355,,,,,,,,,,,,,,,,,,,,,,,,,,,,,,,189071,2023-05-16_15h06.27.276,eb_02psyexp,2022.2.4,119.98471631706022,
225,0,225,0,,,,,,,,,,,,,,,,,,,,,,,,,,,,,,,,,,,,,,,,,,,,,,,,,,,,,,,,,,,637.761103380355,637.761103380355,637.761103380355,637.761103380355,637.761103380355,637.761103380355,s,1,0.40956943947821856,638.1861354518915,639.2112287988421,,,,,,,,,,,,,,,,,,,,,,,,,,,,,,,189071,2023-05-16_15h06.27.276,eb_02psyexp,2022.2.4,119.98471631706022,
226,0,226,0,,,,,,,,,,,,,,,,,,,,,,,,,,,,,,,,,,,,,,,,,,,,,,,,,,,,,,,,,,,639.2112287988421,639.2112287988421,639.2112287988421,639.2112287988421,639.2112287988421,639.2112287988421,l,1,0.1904635779792443,639.4112387598725,640.4363408604404,,,,,,,,,,,,,,,,,,,,,,,,,,,,,,,189071,2023-05-16_15h06.27.276,eb_02psyexp,2022.2.4,119.98471631706022,
227,0,227,0,,,,,,,,,,,,,,,,,,,,,,,,,,,,,,,,,,,,,,,,,,,,,,,,,,,,,,,,,,,640.4363408604404,640.4363408604404,640.4363408604404,640.4363408604404,640.4363408604404,640.4363408604404,s,1,0.38937812740914524,640.8363644046476,641.8614640904125,,,,,,,,,,,,,,,,,,,,,,,,,,,,,,,189071,2023-05-16_15h06.27.276,eb_02psyexp,2022.2.4,119.98471631706022,
228,0,228,0,,,,,,,,,,,,,,,,,,,,,,,,,,,,,,,,,,,,,,,,,,,,,,,,,,,,,,,,,,,641.8614640904125,641.8614640904125,641.8614640904125,641.8614640904125,641.8614640904125,641.8614640904125,l,1,0.4762645806185901,642.3531641366426,643.3865927538136,,,,,,,,,,,,,,,,,,,,,,,,,,,,,,,189071,2023-05-16_15h06.27.276,eb_02psyexp,2022.2.4,119.98471631706022,
229,0,229,0,,,,,,,,,,,,,,,,,,,,,,,,,,,,,,,,,,,,,,,,,,,,,,,,,,,,,,,,,,,643.3865927538136,643.3865927538136,643.3865927538136,643.3865927538136,643.3865927538136,643.3865927538136,l,1,0.42316051211673766,643.8199579825159,644.8450570645509,,,,,,,,,,,,,,,,,,,,,,,,,,,,,,,189071,2023-05-16_15h06.27.276,eb_02psyexp,2022.2.4,119.98471631706022,
230,0,230,0,,,,,,,,,,,,,,,,,,,,,,,,,,,,,,,,,,,,,,,,,,,,,,,,,,,,,,,,,,,644.8450570645509,644.8450570645509,644.8450570645509,644.8450570645509,644.8450570645509,644.8450570645509,l,1,0.36475596739910543,645.2200793259544,646.2535043209791,,,,,,,,,,,,,,,,,,,,,,,,,,,,,,,189071,2023-05-16_15h06.27.276,eb_02psyexp,2022.2.4,119.98471631706022,
231,0,231,0,,,,,,,,,,,,,,,,,,,,,,,,,,,,,,,,,,,,,,,,,,,,,,,,,,,,,,,,,,,646.2535043209791,646.2535043209791,646.2535043209791,646.2535043209791,646.2535043209791,646.2535043209791,s,1,0.3163067188579589,646.5785300536081,647.6119595762575,,,,,,,,,,,,,,,,,,,,,,,,,,,,,,,189071,2023-05-16_15h06.27.276,eb_02psyexp,2022.2.4,119.98471631706022,
232,0,232,0,,,,,,,,,,,,,,,,,,,,,,,,,,,,,,,,,,,,,,,,,,,,,,,,,,,,,,,,,,,647.6119595762575,647.6119595762575,647.6119595762575,647.6119595762575,647.6119595762575,647.6119595762575,l,1,0.30990932194981724,647.9369895348791,648.9704100020463,,,,,,,,,,,,,,,,,,,,,,,,,,,,,,,189071,2023-05-16_15h06.27.276,eb_02psyexp,2022.2.4,119.98471631706022,
233,0,233,0,,,,,,,,,,,,,,,,,,,,,,,,,,,,,,,,,,,,,,,,,,,,,,,,,,,,,,,,,,,648.9704100020463,648.9704100020463,648.9704100020463,648.9704100020463,648.9704100020463,648.9704100020463,s,1,0.3914799049962312,649.3704410925275,650.4038802743889,,,,,,,,,,,,,,,,,,,,,,,,,,,,,,,189071,2023-05-16_15h06.27.276,eb_02psyexp,2022.2.4,119.98471631706022,
234,0,234,0,,,,,,,,,,,,,,,,,,,,,,,,,,,,,,,,,,,,,,,,,,,,,,,,,,,,,,,,,,,650.4038802743889,650.4038802743889,650.4038802743889,650.4038802743889,650.4038802743889,650.4038802743889,l,1,0.3340204508276656,650.7539094028762,651.7873286627,,,,,,,,,,,,,,,,,,,,,,,,,,,,,,,189071,2023-05-16_15h06.27.276,eb_02psyexp,2022.2.4,119.98471631706022,
235,0,235,0,,,,,,,,,,,,,,,,,,,,,,,,,,,,,,,,,,,,,,,,,,,,,,,,,,,,,,,,,,,651.7873286627,651.7873286627,651.7873286627,651.7873286627,651.7873286627,651.7873286627,s,1,0.24664922745432705,652.0456731392769,653.0707631658297,,,,,,,,,,,,,,,,,,,,,,,,,,,,,,,189071,2023-05-16_15h06.27.276,eb_02psyexp,2022.2.4,119.98471631706022,
236,0,236,0,,,,,,,,,,,,,,,,,,,,,,,,,,,,,,,,,,,,,,,,,,,,,,,,,,,,,,,,,,,653.0707631658297,653.0707631658297,653.0707631658297,653.0707631658297,653.0707631658297,653.0707631658297,l,1,0.3152164387283847,653.39578920044,654.4292235526955,,,,,,,,,,,,,,,,,,,,,,,,,,,,,,,189071,2023-05-16_15h06.27.276,eb_02psyexp,2022.2.4,119.98471631706022,
237,0,237,0,,,,,,,,,,,,,,,,,,,,,,,,,,,,,,,,,,,,,,,,,,,,,,,,,,,,,,,,,,,654.4292235526955,654.4292235526955,654.4292235526955,654.4292235526955,654.4292235526955,654.4292235526955,s,1,0.4517870065756142,654.8959192974726,655.9293545553228,,,,,,,,,,,,,,,,,,,,,,,,,,,,,,,189071,2023-05-16_15h06.27.276,eb_02psyexp,2022.2.4,119.98471631706022,
238,0,238,0,,,,,,,,,,,,,,,,,,,,,,,,,,,,,,,,,,,,,,,,,,,,,,,,,,,,,,,,,,,655.9293545553228,655.9293545553228,655.9293545553228,655.9293545553228,655.9293545553228,655.9293545553228,l,1,0.30366737756412476,656.2460435085231,657.279475144227,,,,,,,,,,,,,,,,,,,,,,,,,,,,,,,189071,2023-05-16_15h06.27.276,eb_02psyexp,2022.2.4,119.98471631706022,
239,0,239,0,,,,,,,,,,,,,,,,,,,,,,,,,,,,,,,,,,,,,,,,,,,,,,,,,,,,,,,,,,,657.279475144227,657.279475144227,657.279475144227,657.279475144227,657.279475144227,657.279475144227,s,1,0.27356151898857206,657.5628193943994,658.6545758864377,,,,,,,,,,,,,,,,,,,,,,,,,,,,,,,189071,2023-05-16_15h06.27.276,eb_02psyexp,2022.2.4,119.98471631706022,
240,0,240,0,,,,,,,,,,,,,,,,,,,,,,,,,,,,,,,,,,,,,,,,,,,,,,,,,,,,,,,,,,,658.6545758864377,658.6545758864377,658.6545758864377,658.6545758864377,658.6545758864377,658.6545758864377,l,1,0.20249861653428525,658.8712787247496,659.9046825901605,,,,,,,,,,,,,,,,,,,,,,,,,,,,,,,189071,2023-05-16_15h06.27.276,eb_02psyexp,2022.2.4,119.98471631706022,
241,0,241,0,,,,,,,,,,,,,,,,,,,,,,,,,,,,,,,,,,,,,,,,,,,,,,,,,,,,,,,,,,,659.9046825901605,659.9046825901605,659.9046825901605,659.9046825901605,659.9046825901605,659.9046825901605,s,1,0.2084344857139513,660.1213751656469,661.146478775423,,,,,,,,,,,,,,,,,,,,,,,,,,,,,,,189071,2023-05-16_15h06.27.276,eb_02psyexp,2022.2.4,119.98471631706022,
242,0,242,0,,,,,,,,,,,,,,,,,,,,,,,,,,,,,,,,,,,,,,,,,,,,,,,,,,,,,,,,,,,661.146478775423,661.146478775423,661.146478775423,661.146478775423,661.146478775423,661.146478775423,l,1,0.15863083861768246,661.321478699916,662.354912448558,,,,,,,,,,,,,,,,,,,,,,,,,,,,,,,189071,2023-05-16_15h06.27.276,eb_02psyexp,2022.2.4,119.98471631706022,
243,0,243,0,,,,,,,,,,,,,,,,,,,,,,,,,,,,,,,,,,,,,,,,,,,,,,,,,,,,,,,,,,,662.354912448558,662.354912448558,662.354912448558,662.354912448558,662.354912448558,662.354912448558,s,1,0.3182473087217659,662.6882882419741,663.7216960315127,,,,,,,,,,,,,,,,,,,,,,,,,,,,,,,189071,2023-05-16_15h06.27.276,eb_02psyexp,2022.2.4,119.98471631706022,
244,0,244,0,,,,,,,,,,,,,,,,,,,,,,,,,,,,,,,,,,,,,,,,,,,,,,,,,,,,,,,,,,,663.7216960315127,663.7216960315127,663.7216960315127,663.7216960315127,663.7216960315127,663.7216960315127,l,1,0.23151298763696104,663.9633747973712,664.988474785001,,,,,,,,,,,,,,,,,,,,,,,,,,,,,,,189071,2023-05-16_15h06.27.276,eb_02psyexp,2022.2.4,119.98471631706022,
245,0,245,0,,,,,,,,,,,,,,,,,,,,,,,,,,,,,,,,,,,,,,,,,,,,,,,,,,,,,,,,,,,664.988474785001,664.988474785001,664.988474785001,664.988474785001,664.988474785001,664.988474785001,s,0,0.19672695361077785,665.1968257513363,666.2302570851753,,,,,,,,,,,,,,,,,,,,,,,,,,,,,,,189071,2023-05-16_15h06.27.276,eb_02psyexp,2022.2.4,119.98471631706022,
246,0,246,0,,,,,,,,,,,,,,,,,,,,,,,,,,,,,,,,,,,,,,,,,,,,,,,,,,,,,,,,,,,666.2302570851753,666.2302570851753,666.2302570851753,666.2302570851753,666.2302570851753,666.2302570851753,s,1,0.3949662658851594,666.638610164402,667.6637071336154,,,,,,,,,,,,,,,,,,,,,,,,,,,,,,,189071,2023-05-16_15h06.27.276,eb_02psyexp,2022.2.4,119.98471631706022,
247,0,247,0,,,,,,,,,,,,,,,,,,,,,,,,,,,,,,,,,,,,,,,,,,,,,,,,,,,,,,,,,,,667.6637071336154,667.6637071336154,667.6637071336154,667.6637071336154,667.6637071336154,667.6637071336154,l,1,0.20155956305097789,667.8803954831092,668.9138162521413,,,,,,,,,,,,,,,,,,,,,,,,,,,,,,,189071,2023-05-16_15h06.27.276,eb_02psyexp,2022.2.4,119.98471631706022,
248,0,248,0,,,,,,,,,,,,,,,,,,,,,,,,,,,,,,,,,,,,,,,,,,,,,,,,,,,,,,,,,,,668.9138162521413,668.9138162521413,668.9138162521413,668.9138162521413,668.9138162521413,668.9138162521413,l,0,0.2874752684729174,669.2138337594224,670.2472753560869,,,,,,,,,,,,,,,,,,,,,,,,,,,,,,,189071,2023-05-16_15h06.27.276,eb_02psyexp,2022.2.4,119.98471631706022,
249,0,249,0,,,,,,,,,,,,,,,,,,,,,,,,,,,,,,,,,,,,,,,,,,,,,,,,,,,,,,,,,,,670.2472753560869,670.2472753560869,670.2472753560869,670.2472753560869,670.2472753560869,670.2472753560869,l,1,0.4490428933640942,670.7056328122271,671.7307192166336,,,,,,,,,,,,,,,,,,,,,,,,,,,,,,,189071,2023-05-16_15h06.27.276,eb_02psyexp,2022.2.4,119.98471631706022,
250,0,250,0,,,,,,,,,,,,,,,,,,,,,,,,,,,,,,,,,,,,,,,,,,,,,,,,,,,,,,,,,,,671.7307192166336,671.7307192166336,671.7307192166336,671.7307192166336,671.7307192166336,671.7307192166336,s,1,0.277599660679698,672.022423790535,673.0558412392857,,,,,,,,,,,,,,,,,,,,,,,,,,,,,,,189071,2023-05-16_15h06.27.276,eb_02psyexp,2022.2.4,119.98471631706022,
251,0,251,0,,,,,,,,,,,,,,,,,,,,,,,,,,,,,,,,,,,,,,,,,,,,,,,,,,,,,,,,,,,673.0558412392857,673.0558412392857,673.0558412392857,673.0558412392857,673.0558412392857,673.0558412392857,l,1,0.4325359553331509,673.4975405307487,674.522639914765,,,,,,,,,,,,,,,,,,,,,,,,,,,,,,,189071,2023-05-16_15h06.27.276,eb_02psyexp,2022.2.4,119.98471631706022,
252,0,252,0,,,,,,,,,,,,,,,,,,,,,,,,,,,,,,,,,,,,,,,,,,,,,,,,,,,,,,,,,,,674.522639914765,674.522639914765,674.522639914765,674.522639914765,674.522639914765,674.522639914765,s,1,0.34976853942498565,674.8809937486658,675.914433836122,,,,,,,,,,,,,,,,,,,,,,,,,,,,,,,189071,2023-05-16_15h06.27.276,eb_02psyexp,2022.2.4,119.98471631706022,
253,0,253,0,,,,,,,,,,,,,,,,,,,,,,,,,,,,,,,,,,,,,,,,,,,,,,,,,,,,,,,,,,,675.914433836122,675.914433836122,675.914433836122,675.914433836122,675.914433836122,675.914433836122,l,1,0.26198076375294477,676.1894570030272,677.2145415963605,,,,,,,,,,,,,,,,,,,,,,,,,,,,,,,189071,2023-05-16_15h06.27.276,eb_02psyexp,2022.2.4,119.98471631706022,
254,0,254,0,,,,,,,,,,,,,,,,,,,,,,,,,,,,,,,,,,,,,,,,,,,,,,,,,,,,,,,,,,,677.2145415963605,677.2145415963605,677.2145415963605,677.2145415963605,677.2145415963605,677.2145415963605,s,1,0.3459184499224648,677.572894222918,678.6063264622353,,,,,,,,,,,,,,,,,,,,,,,,,,,,,,,189071,2023-05-16_15h06.27.276,eb_02psyexp,2022.2.4,119.98471631706022,
255,0,255,0,,,,,,,,,,,,,,,,,,,,,,,,,,,,,,,,,,,,,,,,,,,,,,,,,,,,,,,,,,,678.6063264622353,678.6063264622353,678.6063264622353,678.6063264622353,678.6063264622353,678.6063264622353,l,1,0.2981655680341646,678.9146777304122,679.9481223456096,,,,,,,,,,,,,,,,,,,,,,,,,,,,,,,189071,2023-05-16_15h06.27.276,eb_02psyexp,2022.2.4,119.98471631706022,
256,0,256,0,,,,,,,,,,,,,,,,,,,,,,,,,,,,,,,,,,,,,,,,,,,,,,,,,,,,,,,,,,,679.9481223456096,679.9481223456096,679.9481223456096,679.9481223456096,679.9481223456096,679.9481223456096,s,1,0.22036749927792698,680.1814631245798,681.2148854028201,,,,,,,,,,,,,,,,,,,,,,,,,,,,,,,189071,2023-05-16_15h06.27.276,eb_02psyexp,2022.2.4,119.98471631706022,
257,0,257,0,,,,,,,,,,,,,,,,,,,,,,,,,,,,,,,,,,,,,,,,,,,,,,,,,,,,,,,,,,,681.2148854028201,681.2148854028201,681.2148854028201,681.2148854028201,681.2148854028201,681.2148854028201,l,1,0.20966844609938562,681.4398972503841,682.4733466951875,,,,,,,,,,,,,,,,,,,,,,,,,,,,,,,189071,2023-05-16_15h06.27.276,eb_02psyexp,2022.2.4,119.98471631706022,
258,0,258,0,,,,,,,,,,,,,,,,,,,,,,,,,,,,,,,,,,,,,,,,,,,,,,,,,,,,,,,,,,,682.4733466951875,682.4733466951875,682.4733466951875,682.4733466951875,682.4733466951875,682.4733466951875,l,0,0.30321460333652794,682.7900151226204,683.815103639965,,,,,,,,,,,,,,,,,,,,,,,,,,,,,,,189071,2023-05-16_15h06.27.276,eb_02psyexp,2022.2.4,119.98471631706022,
259,0,259,0,,,,,,,,,,,,,,,,,,,,,,,,,,,,,,,,,,,,,,,,,,,,,,,,,,,,,,,,,,,683.815103639965,683.815103639965,683.815103639965,683.815103639965,683.815103639965,683.815103639965,l,1,0.48946475808043033,684.3151477100328,685.3485971547198,,,,,,,,,,,,,,,,,,,,,,,,,,,,,,,189071,2023-05-16_15h06.27.276,eb_02psyexp,2022.2.4,119.98471631706022,
260,0,260,0,,,,,,,,,,,,,,,,,,,,,,,,,,,,,,,,,,,,,,,,,,,,,,,,,,,,,,,,,,,685.3485971547198,685.3485971547198,685.3485971547198,685.3485971547198,685.3485971547198,685.3485971547198,l,0,0.31502959388308227,685.6736147374613,686.698695406667,,,,,,,,,,,,,,,,,,,,,,,,,,,,,,,189071,2023-05-16_15h06.27.276,eb_02psyexp,2022.2.4,119.98471631706022,
261,0,261,0,,,,,,,,,,,,,,,,,,,,,,,,,,,,,,,,,,,,,,,,,,,,,,,,,,,,,,,,,,,686.698695406667,686.698695406667,686.698695406667,686.698695406667,686.698695406667,686.698695406667,l,1,0.4529587860452011,687.1653971885098,688.198839992634,,,,,,,,,,,,,,,,,,,,,,,,,,,,,,,189071,2023-05-16_15h06.27.276,eb_02psyexp,2022.2.4,119.98471631706022,
262,0,262,0,,,,,,,,,,,,,,,,,,,,,,,,,,,,,,,,,,,,,,,,,,,,,,,,,,,,,,,,,,,688.198839992634,688.198839992634,688.198839992634,688.198839992634,688.198839992634,688.198839992634,s,1,0.28884083533193916,688.4988520665793,689.5322755522793,,,,,,,,,,,,,,,,,,,,,,,,,,,,,,,189071,2023-05-16_15h06.27.276,eb_02psyexp,2022.2.4,119.98471631706022,
263,0,263,0,,,,,,,,,,,,,,,,,,,,,,,,,,,,,,,,,,,,,,,,,,,,,,,,,,,,,,,,,,,689.5322755522793,689.5322755522793,689.5322755522793,689.5322755522793,689.5322755522793,689.5322755522793,l,1,0.32343519490677863,689.8656290088547,690.899064266705,,,,,,,,,,,,,,,,,,,,,,,,,,,,,,,189071,2023-05-16_15h06.27.276,eb_02psyexp,2022.2.4,119.98471631706022,
264,0,264,0,,,,,,,,,,,,,,,,,,,,,,,,,,,,,,,,,,,,,,,,,,,,,,,,,,,,,,,,,,,690.899064266705,690.899064266705,690.899064266705,690.899064266705,690.899064266705,690.899064266705,s,1,0.3726544614182785,691.2824205908692,692.3075109194033,,,,,,,,,,,,,,,,,,,,,,,,,,,,,,,189071,2023-05-16_15h06.27.276,eb_02psyexp,2022.2.4,119.98471631706022,
265,0,265,0,,,,,,,,,,,,,,,,,,,,,,,,,,,,,,,,,,,,,,,,,,,,,,,,,,,,,,,,,,,692.3075109194033,692.3075109194033,692.3075109194033,692.3075109194033,692.3075109194033,692.3075109194033,l,0,0.27624737517908216,692.5992043248843,693.6159433850553,,,,,,,,,,,,,,,,,,,,,,,,,,,,,,,189071,2023-05-16_15h06.27.276,eb_02psyexp,2022.2.4,119.98471631706022,
266,0,266,0,,,,,,,,,,,,,,,,,,,,,,,,,,,,,,,,,,,,,,,,,,,,,,,,,,,,,,,,,,,693.6159433850553,693.6159433850553,693.6159433850553,693.6159433850553,693.6159433850553,693.6159433850553,s,1,0.4878519766498357,694.1160004346166,695.1327422114555,,,,,,,,,,,,,,,,,,,,,,,,,,,,,,,189071,2023-05-16_15h06.27.276,eb_02psyexp,2022.2.4,119.98471631706022,
267,0,267,0,,,,,,,,,,,,,,,,,,,,,,,,,,,,,,,,,,,,,,,,,,,,,,,,,,,,,,,,,,,695.1327422114555,695.1327422114555,695.1327422114555,695.1327422114555,695.1327422114555,695.1327422114555,l,1,0.387062942259945,695.532807109179,696.5495304731885,,,,,,,,,,,,,,,,,,,,,,,,,,,,,,,189071,2023-05-16_15h06.27.276,eb_02psyexp,2022.2.4,119.98471631706022,
268,0,268,0,,,,,,,,,,,,,,,,,,,,,,,,,,,,,,,,,,,,,,,,,,,,,,,,,,,,,,,,,,,696.5495304731885,696.5495304731885,696.5495304731885,696.5495304731885,696.5495304731885,696.5495304731885,l,1,0.5143268883693963,697.0745918240864,698.0913468822837,,,,,,,,,,,,,,,,,,,,,,,,,,,,,,,189071,2023-05-16_15h06.27.276,eb_02psyexp,2022.2.4,119.98471631706022,
269,0,269,0,,,,,,,,,,,,,,,,,,,,,,,,,,,,,,,,,,,,,,,,,,,,,,,,,,,,,,,,,,,698.0913468822837,698.0913468822837,698.0913468822837,698.0913468822837,698.0913468822837,698.0913468822837,l,1,0.43652036786079407,698.5413850662299,699.5581289561233,,,,,,,,,,,,,,,,,,,,,,,,,,,,,,,189071,2023-05-16_15h06.27.276,eb_02psyexp,2022.2.4,119.98471631706022,
270,0,270,0,,,,,,,,,,,,,,,,,,,,,,,,,,,,,,,,,,,,,,,,,,,,,,,,,,,,,,,,,,,699.5581289561233,699.5581289561233,699.5581289561233,699.5581289561233,699.5581289561233,699.5581289561233,l,1,0.40885526372585446,699.9831773274345,700.9999293672154,,,,,,,,,,,,,,,,,,,,,,,,,,,,,,,189071,2023-05-16_15h06.27.276,eb_02psyexp,2022.2.4,119.98471631706022,
271,0,271,0,,,,,,,,,,,,,,,,,,,,,,,,,,,,,,,,,,,,,,,,,,,,,,,,,,,,,,,,,,,700.9999293672154,700.9999293672154,700.9999293672154,700.9999293672154,700.9999293672154,700.9999293672154,s,0,0.4149985034018755,701.4249768330483,702.4584009223618,,,,,,,,,,,,,,,,,,,,,,,,,,,,,,,189071,2023-05-16_15h06.27.276,eb_02psyexp,2022.2.4,119.98471631706022,
272,0,272,0,,,,,,,,,,,,,,,,,,,,,,,,,,,,,,,,,,,,,,,,,,,,,,,,,,,,,,,,,,,702.4584009223618,702.4584009223618,702.4584009223618,702.4584009223618,702.4584009223618,702.4584009223618,s,1,0.4445718995993957,702.9167665285058,703.9418610827997,,,,,,,,,,,,,,,,,,,,,,,,,,,,,,,189071,2023-05-16_15h06.27.276,eb_02psyexp,2022.2.4,119.98471631706022,
273,0,273,0,,,,,,,,,,,,,,,,,,,,,,,,,,,,,,,,,,,,,,,,,,,,,,,,,,,,,,,,,,,703.9418610827997,703.9418610827997,703.9418610827997,703.9418610827997,703.9418610827997,703.9418610827997,l,1,0.5290894384961575,704.4835706372978,705.5003253936302,,,,,,,,,,,,,,,,,,,,,,,,,,,,,,,189071,2023-05-16_15h06.27.276,eb_02psyexp,2022.2.4,119.98471631706022,
274,0,274,0,,,,,,,,,,,,,,,,,,,,,,,,,,,,,,,,,,,,,,,,,,,,,,,,,,,,,,,,,,,705.5003253936302,705.5003253936302,705.5003253936302,705.5003253936302,705.5003253936302,705.5003253936302,l,1,0.6107122414978221,706.1253776890226,707.150476771174,,,,,,,,,,,,,,,,,,,,,,,,,,,,,,,189071,2023-05-16_15h06.27.276,eb_02psyexp,2022.2.4,119.98471631706022,
275,0,275,0,,,,,,,,,,,,,,,,,,,,,,,,,,,,,,,,,,,,,,,,,,,,,,,,,,,,,,,,,,,707.150476771174,707.150476771174,707.150476771174,707.150476771174,707.150476771174,707.150476771174,l,1,0.36857617378700525,707.5338330953382,708.567257486633,,,,,,,,,,,,,,,,,,,,,,,,,,,,,,,189071,2023-05-16_15h06.27.276,eb_02psyexp,2022.2.4,119.98471631706022,
276,0,276,0,,,,,,,,,,,,,,,,,,,,,,,,,,,,,,,,,,,,,,,,,,,,,,,,,,,,,,,,,,,708.567257486633,708.567257486633,708.567257486633,708.567257486633,708.567257486633,708.567257486633,s,1,0.5357904959237203,709.117300198297,710.1340612935601,,,,,,,,,,,,,,,,,,,,,,,,,,,,,,,189071,2023-05-16_15h06.27.276,eb_02psyexp,2022.2.4,119.98471631706022,
277,0,277,0,,,,,,,,,,,,,,,,,,,,,,,,,,,,,,,,,,,,,,,,,,,,,,,,,,,,,,,,,,,710.1340612935601,710.1340612935601,710.1340612935601,710.1340612935601,710.1340612935601,710.1340612935601,s,1,0.6090665584197268,710.7591247573728,711.7841906360118,,,,,,,,,,,,,,,,,,,,,,,,,,,,,,,189071,2023-05-16_15h06.27.276,eb_02psyexp,2022.2.4,119.98471631706022,
