trials.thisRepN,trials.thisTrialN,trials.thisN,trials.thisIndex,image_loop.thisRepN,image_loop.thisTrialN,image_loop.thisN,image_loop.thisIndex,break_loop.thisRepN,break_loop.thisTrialN,break_loop.thisN,break_loop.thisIndex,test_trials.thisRepN,test_trials.thisTrialN,test_trials.thisN,test_trials.thisIndex,distance matrix,tools,welcome_text.started,instructions_0_keypress.started,instructions_0_keypress.keys,instructions_0_keypress.rt,consent_image_0.started,consent0_key_resp.started,consent0_text.started,consent0_key_resp.keys,consent0_key_resp.rt,consent_image_1.started,consent1_key_resp.started,consent1_text.started,consent1_key_resp.keys,consent1_key_resp.rt,consent2_text.started,consent_image_2.started,consent2_key_resp.started,consent2_key_resp.keys,consent2_key_resp.rt,agree_button.started,disagree_button.started,consent_image_3.started,agree_button.numClicks,agree_button.timesOn,agree_button.timesOff,disagree_button.numClicks,disagree_button.timesOn,disagree_button.timesOff,instructions_text1.started,instructions1_key_resp.started,instr1_cnt_text.started,instructions1_key_resp.keys,instructions1_key_resp.rt,instructions_text2.started,instr2_cnt_text.started,instructions2_key_resp.started,instructions2_key_resp.keys,instructions2_key_resp.rt,instructions_text3.started,instructions3_key_resp.started,instr3_cnt_text.started,instructions3_key_resp.keys,instructions3_key_resp.rt,text_countdown.started,image.started,small_large_keyresp.started,task_question_text.started,smalleroption_text.started,largeroption_text.started,accuracy_score_text.started,small_large_keyresp.keys,small_large_keyresp.corr,small_large_keyresp.rt,fb_2.started,fb_2.stopped,break_text.started,break_key_resp.started,break_key_resp.keys,break_key_resp.rt,reveal_seq_text.started,start_test_text.started,continue_to_test.started,continue_to_test.keys,continue_to_test.rt,test_structure_info.started,start_test_text_2.started,continue_to_test_2.started,continue_to_test_2.keys,continue_to_test_2.rt,test_cntdown_text.started,parent index,left child index,right child index,left distance,right distance,parent_image.started,top_image_text.started,left_child_image.started,right_child_image.started,path_resp.started,child_choice_text.started,left_choice_text.started,right_choice_text.started,path_resp.keys,path_resp.rt,graph.started,debrief_text.started,debriefing_title.started,demo_scr_adv.started,demo_scr_adv_keypress.started,demo_scr_adv_keypress.keys,demo_scr_adv_keypress.rt,text_countdown_2.started,participant,date,expName,psychopyVersion,frameRate,
,,,,,,,,,,,,,,,,"[[0. 1. 1. 2. 2. 3. 4. 5. 5. 6. 6. 7.]
 [1. 0. 2. 1. 1. 2. 3. 4. 4. 5. 5. 6.]
 [1. 2. 0. 1. 1. 2. 3. 4. 4. 5. 5. 6.]
 [2. 1. 1. 0. 1. 1. 2. 3. 3. 4. 4. 5.]
 [2. 1. 1. 1. 0. 1. 2. 3. 3. 4. 4. 5.]
 [3. 2. 2. 1. 1. 0. 1. 2. 2. 3. 3. 4.]
 [4. 3. 3. 2. 2. 1. 0. 1. 1. 2. 2. 3.]
 [5. 4. 4. 3. 3. 2. 1. 0. 1. 1. 1. 2.]
 [5. 4. 4. 3. 3. 2. 1. 1. 0. 1. 1. 2.]
 [6. 5. 5. 4. 4. 3. 2. 1. 1. 0. 2. 1.]
 [6. 5. 5. 4. 4. 3. 2. 1. 1. 2. 0. 1.]
 [7. 6. 6. 5. 5. 4. 3. 2. 2. 1. 1. 0.]]",[ 7 10  6  1  3  4  5  9 11  0  8  2],8.981529833283275,8.981529833283275,return,39.90728914109059,,,,,,,,,,,,,,,,,,,,,,,,,,,,,,,,,,,,,,,,,,,,,,,,,,,,,,,,,,,,,,,,,,,,,,,,,,,,,,,,,,,,,,,,,,292869,2023-05-16_14h03.22.455,eb_02psyexp,2022.2.4,120.01688179535188,
,,,,,,,,,,,,,,,,,,,,,,48.901031419518404,48.901031419518404,48.901031419518404,space,2.7558865977916867,,,,,,,,,,,,,,,,,,,,,,,,,,,,,,,,,,,,,,,,,,,,,,,,,,,,,,,,,,,,,,,,,,,,,,,,,,,,,,,,,,,,,292869,2023-05-16_14h03.22.455,eb_02psyexp,2022.2.4,120.01688179535188,
,,,,,,,,,,,,,,,,,,,,,,,,,,,51.667920348001644,51.667920348001644,51.667920348001644,space,0.556975670508109,,,,,,,,,,,,,,,,,,,,,,,,,,,,,,,,,,,,,,,,,,,,,,,,,,,,,,,,,,,,,,,,,,,,,,,,,,,,,,,,292869,2023-05-16_14h03.22.455,eb_02psyexp,2022.2.4,120.01688179535188,
,,,,,,,,,,,,,,,,,,,,,,,,,,,,,,,,52.23463329824153,52.23463329824153,52.23463329824153,space,0.5342699525645003,,,,,,,,,,,,,,,,,,,,,,,,,,,,,,,,,,,,,,,,,,,,,,,,,,,,,,,,,,,,,,,,,,,,,,,,,,,292869,2023-05-16_14h03.22.455,eb_02psyexp,2022.2.4,120.01688179535188,
,,,,,,,,,,,,,,,,,,,,,,,,,,,,,,,,,,,,,52.79301339306403,52.79301339306403,52.79301339306403,1,[2.083275730488822],[2.0832796545000747],0,,,54.868185371742584,56.86001249658875,56.86001249658875,space,1.9560094504849985,,,,,,,,,,,,,,,,,,,,,,,,,,,,,,,,,,,,,,,,,,,,,,,,,,,,,,,,,,,,,292869,2023-05-16_14h03.22.455,eb_02psyexp,2022.2.4,120.01688179535188,
,,,,,,,,,,,,,,,,,,,,,,,,,,,,,,,,,,,,,,,,,,,,,,,,,,,58.82683864037972,61.8187472645659,61.8187472645659,space,13.468616493861191,,,,,,,,,,,,,,,,,,,,,,,,,,,,,,,,,,,,,,,,,,,,,,,,,,,,,,,,292869,2023-05-16_14h03.22.455,eb_02psyexp,2022.2.4,120.01688179535188,
,,,,,,,,,,,,,,,,,,,,,,,,,,,,,,,,,,,,,,,,,,,,,,,,,,,,,,,,75.30317515414208,78.29509313567542,78.29509313567542,space,11.47955159319099,,,,,,,,,,,,,,,,,,,,,,,,,,,,,,,,,,,,,,,,,,,,,,,,,,,292869,2023-05-16_14h03.22.455,eb_02psyexp,2022.2.4,120.01688179535188,
0,0,0,0,,,,,,,,,,,,,,,,,,,,,,,,,,,,,,,,,,,,,,,,,,,,,,,,,,,,,,,,,,89.79603762249462,94.84646247560158,94.84646247560158,94.84646247560158,94.84646247560158,94.84646247560158,94.84646247560158,l,1,1.6003523393301293,96.46327518706676,97.48835887480527,,,,,,,,,,,,,,,,,,,,,,,,,,,,,,,,,,,,,,,292869,2023-05-16_14h03.22.455,eb_02psyexp,2022.2.4,120.01688179535188,
1,0,1,0,,,,,,,,,,,,,,,,,,,,,,,,,,,,,,,,,,,,,,,,,,,,,,,,,,,,,,,,,,,97.48835887480527,97.48835887480527,97.48835887480527,97.48835887480527,97.48835887480527,97.48835887480527,s,0,1.2944382034474984,98.79678349243477,99.82187533017714,,,,,,,,,,,,,,,,,,,,,,,,,,,,,,,,,,,,,,,292869,2023-05-16_14h03.22.455,eb_02psyexp,2022.2.4,120.01688179535188,
2,0,2,0,,,,,,,,,,,,,,,,,,,,,,,,,,,,,,,,,,,,,,,,,,,,,,,,,,,,,,,,,,,99.82187533017714,99.82187533017714,99.82187533017714,99.82187533017714,99.82187533017714,99.82187533017714,l,1,0.8009976934408769,100.63858058326878,101.66369355039205,,,,,,,,,,,,,,,,,,,,,,,,,,,,,,,,,,,,,,,292869,2023-05-16_14h03.22.455,eb_02psyexp,2022.2.4,120.01688179535188,
3,0,3,0,,,,,,,,,,,,,,,,,,,,,,,,,,,,,,,,,,,,,,,,,,,,,,,,,,,,,,,,,,,101.66369355039205,101.66369355039205,101.66369355039205,101.66369355039205,101.66369355039205,101.66369355039205,s,1,0.9822347328299657,102.6554346481571,103.68888016883284,,,,,,,,,,,,,,,,,,,,,,,,,,,,,,,,,,,,,,,292869,2023-05-16_14h03.22.455,eb_02psyexp,2022.2.4,120.01688179535188,
4,0,4,0,,,,,,,,,,,,,,,,,,,,,,,,,,,,,,,,,,,,,,,,,,,,,,,,,,,,,,,,,,,103.68888016883284,103.68888016883284,103.68888016883284,103.68888016883284,103.68888016883284,103.68888016883284,s,1,1.4130608041305095,105.11397049727384,106.13904965727124,,,,,,,,,,,,,,,,,,,,,,,,,,,,,,,,,,,,,,,292869,2023-05-16_14h03.22.455,eb_02psyexp,2022.2.4,120.01688179535188,
5,0,5,0,,,,,,,,,,,,,,,,,,,,,,,,,,,,,,,,,,,,,,,,,,,,,,,,,,,,,,,,,,,106.13904965727124,106.13904965727124,106.13904965727124,106.13904965727124,106.13904965727124,106.13904965727124,l,1,0.8749749520793557,107.02247419941705,108.0558922518976,,,,,,,,,,,,,,,,,,,,,,,,,,,,,,,,,,,,,,,292869,2023-05-16_14h03.22.455,eb_02psyexp,2022.2.4,120.01688179535188,
6,0,6,0,,,,,,,,,,,,,,,,,,,,,,,,,,,,,,,,,,,,,,,,,,,,,,,,,,,,,,,,,,,108.0558922518976,108.0558922518976,108.0558922518976,108.0558922518976,108.0558922518976,108.0558922518976,l,1,0.7421449024695903,108.81427627068479,109.84770881186705,,,,,,,,,,,,,,,,,,,,,,,,,,,,,,,,,,,,,,,292869,2023-05-16_14h03.22.455,eb_02psyexp,2022.2.4,120.01688179535188,
7,0,7,0,,,,,,,,,,,,,,,,,,,,,,,,,,,,,,,,,,,,,,,,,,,,,,,,,,,,,,,,,,,109.84770881186705,109.84770881186705,109.84770881186705,109.84770881186705,109.84770881186705,109.84770881186705,s,1,0.7583623668178916,110.61443745833822,111.64787060325034,,,,,,,,,,,,,,,,,,,,,,,,,,,,,,,,,,,,,,,292869,2023-05-16_14h03.22.455,eb_02psyexp,2022.2.4,120.01688179535188,
8,0,8,0,,,,,,,,,,,,,,,,,,,,,,,,,,,,,,,,,,,,,,,,,,,,,,,,,,,,,,,,,,,111.64787060325034,111.64787060325034,111.64787060325034,111.64787060325034,111.64787060325034,111.64787060325034,l,1,0.46222181362099946,112.12288954423275,113.14797836344223,,,,,,,,,,,,,,,,,,,,,,,,,,,,,,,,,,,,,,,292869,2023-05-16_14h03.22.455,eb_02psyexp,2022.2.4,120.01688179535188,
9,0,9,0,,,,,,,,,,,,,,,,,,,,,,,,,,,,,,,,,,,,,,,,,,,,,,,,,,,,,,,,,,,113.14797836344223,113.14797836344223,113.14797836344223,113.14797836344223,113.14797836344223,113.14797836344223,l,1,0.49813163315411657,113.65634774265345,114.681443806272,,,,,,,,,,,,,,,,,,,,,,,,,,,,,,,,,,,,,,,292869,2023-05-16_14h03.22.455,eb_02psyexp,2022.2.4,120.01688179535188,
10,0,10,0,,,,,,,,,,,,,,,,,,,,,,,,,,,,,,,,,,,,,,,,,,,,,,,,,,,,,,,,,,,114.681443806272,114.681443806272,114.681443806272,114.681443806272,114.681443806272,114.681443806272,l,1,0.7727267775917426,115.46483363572042,116.49826285650488,,,,,,,,,,,,,,,,,,,,,,,,,,,,,,,,,,,,,,,292869,2023-05-16_14h03.22.455,eb_02psyexp,2022.2.4,120.01688179535188,
11,0,11,0,,,,,,,,,,,,,,,,,,,,,,,,,,,,,,,,,,,,,,,,,,,,,,,,,,,,,,,,,,,116.49826285650488,116.49826285650488,116.49826285650488,116.49826285650488,116.49826285650488,116.49826285650488,s,1,0.5309278756612912,117.039967279532,118.06505941913929,,,,,,,,,,,,,,,,,,,,,,,,,,,,,,,,,,,,,,,292869,2023-05-16_14h03.22.455,eb_02psyexp,2022.2.4,120.01688179535188,
12,0,12,0,,,,,,,,,,,,,,,,,,,,,,,,,,,,,,,,,,,,,,,,,,,,,,,,,,,,,,,,,,,118.06505941913929,118.06505941913929,118.06505941913929,118.06505941913929,118.06505941913929,118.06505941913929,l,1,0.48415177850984037,118.56509352813009,119.59018959163222,,,,,,,,,,,,,,,,,,,,,,,,,,,,,,,,,,,,,,,292869,2023-05-16_14h03.22.455,eb_02psyexp,2022.2.4,120.01688179535188,
13,0,13,0,,,,,,,,,,,,,,,,,,,,,,,,,,,,,,,,,,,,,,,,,,,,,,,,,,,,,,,,,,,119.59018959163222,119.59018959163222,119.59018959163222,119.59018959163222,119.59018959163222,119.59018959163222,s,1,0.7910641306079924,120.39023426536005,121.42367193801329,,,,,,,,,,,,,,,,,,,,,,,,,,,,,,,,,,,,,,,292869,2023-05-16_14h03.22.455,eb_02psyexp,2022.2.4,120.01688179535188,
14,0,14,0,,,,,,,,,,,,,,,,,,,,,,,,,,,,,,,,,,,,,,,,,,,,,,,,,,,,,,,,,,,121.42367193801329,121.42367193801329,121.42367193801329,121.42367193801329,121.42367193801329,121.42367193801329,l,1,0.5096221354324371,121.94871034834068,122.97380550636444,,,,,,,,,,,,,,,,,,,,,,,,,,,,,,,,,,,,,,,292869,2023-05-16_14h03.22.455,eb_02psyexp,2022.2.4,120.01688179535188,
15,0,15,0,,,,,,,,,,,,,,,,,,,,,,,,,,,,,,,,,,,,,,,,,,,,,,,,,,,,,,,,,,,122.97380550636444,122.97380550636444,122.97380550636444,122.97380550636444,122.97380550636444,122.97380550636444,l,1,0.5515185347758234,123.54052509728353,124.5656036536675,,,,,,,,,,,,,,,,,,,,,,,,,,,,,,,,,,,,,,,292869,2023-05-16_14h03.22.455,eb_02psyexp,2022.2.4,120.01688179535188,
16,0,16,0,,,,,,,,,,,,,,,,,,,,,,,,,,,,,,,,,,,,,,,,,,,,,,,,,,,,,,,,,,,124.5656036536675,124.5656036536675,124.5656036536675,124.5656036536675,124.5656036536675,124.5656036536675,s,1,0.4877422775607556,125.06563715892844,126.0907422779128,,,,,,,,,,,,,,,,,,,,,,,,,,,,,,,,,,,,,,,292869,2023-05-16_14h03.22.455,eb_02psyexp,2022.2.4,120.01688179535188,
17,0,17,0,,,,,,,,,,,,,,,,,,,,,,,,,,,,,,,,,,,,,,,,,,,,,,,,,,,,,,,,,,,126.0907422779128,126.0907422779128,126.0907422779128,126.0907422779128,126.0907422779128,126.0907422779128,l,1,0.4186420001788065,126.5240918105701,127.55752284242772,,,,,,,,,,,,,,,,,,,,,,,,,,,,,,,,,,,,,,,292869,2023-05-16_14h03.22.455,eb_02psyexp,2022.2.4,120.01688179535188,
18,0,18,0,,,,,,,,,,,,,,,,,,,,,,,,,,,,,,,,,,,,,,,,,,,,,,,,,,,,,,,,,,,127.55752284242772,127.55752284242772,127.55752284242772,127.55752284242772,127.55752284242772,127.55752284242772,l,1,0.4079003862570971,127.97421541786753,128.99930755747482,,,,,,,,,,,,,,,,,,,,,,,,,,,,,,,,,,,,,,,292869,2023-05-16_14h03.22.455,eb_02psyexp,2022.2.4,120.01688179535188,
19,0,19,0,,,,,,,,,,,,,,,,,,,,,,,,,,,,,,,,,,,,,,,,,,,,,,,,,,,,,,,,,,,128.99930755747482,128.99930755747482,128.99930755747482,128.99930755747482,128.99930755747482,128.99930755747482,s,0,0.43813302158378065,129.44934091181494,130.48276862339117,,,,,,,,,,,,,,,,,,,,,,,,,,,,,,,,,,,,,,,292869,2023-05-16_14h03.22.455,eb_02psyexp,2022.2.4,120.01688179535188,
20,0,20,0,,,,,,,,,,,,,,,,,,,,,,,,,,,,,,,,,,,,,,,,,,,,,,,,,,,,,,,,,,,130.48276862339117,130.48276862339117,130.48276862339117,130.48276862339117,130.48276862339117,130.48276862339117,l,1,0.450719237443991,130.94947040523402,131.98289268347435,,,,,,,,,,,,,,,,,,,,,,,,,,,,,,,,,,,,,,,292869,2023-05-16_14h03.22.455,eb_02psyexp,2022.2.4,120.01688179535188,
21,0,21,0,,,,,,,,,,,,,,,,,,,,,,,,,,,,,,,,,,,,,,,,,,,,,,,,,,,,,,,,,,,131.98289268347435,131.98289268347435,131.98289268347435,131.98289268347435,131.98289268347435,131.98289268347435,s,1,0.5896209884667769,132.58294520527124,133.60803221340757,,,,,,,,,,,,,,,,,,,,,,,,,,,,,,,,,,,,,,,292869,2023-05-16_14h03.22.455,eb_02psyexp,2022.2.4,120.01688179535188,
22,0,22,0,,,,,,,,,,,,,,,,,,,,,,,,,,,,,,,,,,,,,,,,,,,,,,,,,,,,,,,,,,,133.60803221340757,133.60803221340757,133.60803221340757,133.60803221340757,133.60803221340757,133.60803221340757,l,1,0.5005171492230147,134.12474622006994,135.14982839860022,,,,,,,,,,,,,,,,,,,,,,,,,,,,,,,,,,,,,,,292869,2023-05-16_14h03.22.455,eb_02psyexp,2022.2.4,120.01688179535188,
23,0,23,0,,,,,,,,,,,,,,,,,,,,,,,,,,,,,,,,,,,,,,,,,,,,,,,,,,,,,,,,,,,135.14982839860022,135.14982839860022,135.14982839860022,135.14982839860022,135.14982839860022,135.14982839860022,l,1,0.49473824189044535,135.6581962686032,136.69164390221704,,,,,,,,,,,,,,,,,,,,,,,,,,,,,,,,,,,,,,,292869,2023-05-16_14h03.22.455,eb_02psyexp,2022.2.4,120.01688179535188,
24,0,24,0,,,,,,,,,,,,,,,,,,,,,,,,,,,,,,,,,,,,,,,,,,,,,,,,,,,,,,,,,,,136.69164390221704,136.69164390221704,136.69164390221704,136.69164390221704,136.69164390221704,136.69164390221704,l,1,0.3929461616789922,137.0999843038153,138.1250655768672,,,,,,,,,,,,,,,,,,,,,,,,,,,,,,,,,,,,,,,292869,2023-05-16_14h03.22.455,eb_02psyexp,2022.2.4,120.01688179535188,
25,0,25,0,,,,,,,,,,,,,,,,,,,,,,,,,,,,,,,,,,,,,,,,,,,,,,,,,,,,,,,,,,,138.1250655768672,138.1250655768672,138.1250655768672,138.1250655768672,138.1250655768672,138.1250655768672,l,1,0.4475516293896362,138.58343872916885,139.6085459610913,,,,,,,,,,,,,,,,,,,,,,,,,,,,,,,,,,,,,,,292869,2023-05-16_14h03.22.455,eb_02psyexp,2022.2.4,120.01688179535188,
26,0,26,0,,,,,,,,,,,,,,,,,,,,,,,,,,,,,,,,,,,,,,,,,,,,,,,,,,,,,,,,,,,139.6085459610913,139.6085459610913,139.6085459610913,139.6085459610913,139.6085459610913,139.6085459610913,s,1,0.5001153876073658,140.11690387001727,141.15033429826144,,,,,,,,,,,,,,,,,,,,,,,,,,,,,,,,,,,,,,,292869,2023-05-16_14h03.22.455,eb_02psyexp,2022.2.4,120.01688179535188,
27,0,27,0,,,,,,,,,,,,,,,,,,,,,,,,,,,,,,,,,,,,,,,,,,,,,,,,,,,,,,,,,,,141.15033429826144,141.15033429826144,141.15033429826144,141.15033429826144,141.15033429826144,141.15033429826144,s,1,0.47835053445305675,141.6420328351669,142.67546296154615,,,,,,,,,,,,,,,,,,,,,,,,,,,,,,,,,,,,,,,292869,2023-05-16_14h03.22.455,eb_02psyexp,2022.2.4,120.01688179535188,
28,0,28,0,,,,,,,,,,,,,,,,,,,,,,,,,,,,,,,,,,,,,,,,,,,,,,,,,,,,,,,,,,,142.67546296154615,142.67546296154615,142.67546296154615,142.67546296154615,142.67546296154615,142.67546296154615,l,1,0.44126199278980494,143.12549209001008,144.1505866444204,,,,,,,,,,,,,,,,,,,,,,,,,,,,,,,,,,,,,,,292869,2023-05-16_14h03.22.455,eb_02psyexp,2022.2.4,120.01688179535188,
29,0,29,0,,,,,,,,,,,,,,,,,,,,,,,,,,,,,,,,,,,,,,,,,,,,,,,,,,,,,,,,,,,144.1505866444204,144.1505866444204,144.1505866444204,144.1505866444204,144.1505866444204,144.1505866444204,s,1,0.622172431088984,144.78396575828083,145.80905216257088,,,,,,,,,,,,,,,,,,,,,,,,,,,,,,,,,,,,,,,292869,2023-05-16_14h03.22.455,eb_02psyexp,2022.2.4,120.01688179535188,
30,0,30,0,,,,,,,,,,,,,,,,,,,,,,,,,,,,,,,,,,,,,,,,,,,,,,,,,,,,,,,,,,,145.80905216257088,145.80905216257088,145.80905216257088,145.80905216257088,145.80905216257088,145.80905216257088,l,1,0.6197289599804208,146.4424367097672,147.46753307513427,,,,,,,,,,,,,,,,,,,,,,,,,,,,,,,,,,,,,,,292869,2023-05-16_14h03.22.455,eb_02psyexp,2022.2.4,120.01688179535188,
31,0,31,0,,,,,,,,,,,,,,,,,,,,,,,,,,,,,,,,,,,,,,,,,,,,,,,,,,,,,,,,,,,147.46753307513427,147.46753307513427,147.46753307513427,147.46753307513427,147.46753307513427,147.46753307513427,l,1,0.5042911726050079,147.98423349868972,149.00933046778664,,,,,,,,,,,,,,,,,,,,,,,,,,,,,,,,,,,,,,,292869,2023-05-16_14h03.22.455,eb_02psyexp,2022.2.4,120.01688179535188,
32,0,32,0,,,,,,,,,,,,,,,,,,,,,,,,,,,,,,,,,,,,,,,,,,,,,,,,,,,,,,,,,,,149.00933046778664,149.00933046778664,149.00933046778664,149.00933046778664,149.00933046778664,149.00933046778664,s,1,0.45050824456848204,149.47604130511172,150.50112257804722,,,,,,,,,,,,,,,,,,,,,,,,,,,,,,,,,,,,,,,292869,2023-05-16_14h03.22.455,eb_02psyexp,2022.2.4,120.01688179535188,
33,0,33,0,,,,,,,,,,,,,,,,,,,,,,,,,,,,,,,,,,,,,,,,,,,,,,,,,,,,,,,,,,,150.50112257804722,150.50112257804722,150.50112257804722,150.50112257804722,150.50112257804722,150.50112257804722,s,1,0.5987658187514171,151.10951187927276,152.12626029690728,,,,,,,,,,,,,,,,,,,,,,,,,,,,,,,,,,,,,,,292869,2023-05-16_14h03.22.455,eb_02psyexp,2022.2.4,120.01688179535188,
34,0,34,0,,,,,,,,,,,,,,,,,,,,,,,,,,,,,,,,,,,,,,,,,,,,,,,,,,,,,,,,,,,152.12626029690728,152.12626029690728,152.12626029690728,152.12626029690728,152.12626029690728,152.12626029690728,s,1,0.6696675335988402,152.80965073010884,153.83473773812875,,,,,,,,,,,,,,,,,,,,,,,,,,,,,,,,,,,,,,,292869,2023-05-16_14h03.22.455,eb_02psyexp,2022.2.4,120.01688179535188,
35,0,35,0,,,,,,,,,,,,,,,,,,,,,,,,,,,,,,,,,,,,,,,,,,,,,,,,,,,,,,,,,,,153.83473773812875,153.83473773812875,153.83473773812875,153.83473773812875,153.83473773812875,153.83473773812875,l,1,0.7851976868696511,154.6348014284158,155.66822491411585,,,,,,,,,,,,,,,,,,,,,,,,,,,,,,,,,,,,,,,292869,2023-05-16_14h03.22.455,eb_02psyexp,2022.2.4,120.01688179535188,
36,0,36,0,,,,,,,,,,,,,,,,,,,,,,,,,,,,,,,,,,,,,,,,,,,,,,,,,,,,,,,,,,,155.66822491411585,155.66822491411585,155.66822491411585,155.66822491411585,155.66822491411585,155.66822491411585,s,1,0.5918259985046461,156.26826777670067,157.28502917382866,,,,,,,,,,,,,,,,,,,,,,,,,,,,,,,,,,,,,,,292869,2023-05-16_14h03.22.455,eb_02psyexp,2022.2.4,120.01688179535188,
37,0,37,0,,,,,,,,,,,,,,,,,,,,,,,,,,,,,,,,,,,,,,,,,,,,,,,,,,,,,,,,,,,157.28502917382866,157.28502917382866,157.28502917382866,157.28502917382866,157.28502917382866,157.28502917382866,s,1,0.6069809528999031,157.901754650753,158.9268359236885,,,,,,,,,,,,,,,,,,,,,,,,,,,,,,,,,,,,,,,292869,2023-05-16_14h03.22.455,eb_02psyexp,2022.2.4,120.01688179535188,
38,0,38,0,,,,,,,,,,,,,,,,,,,,,,,,,,,,,,,,,,,,,,,,,,,,,,,,,,,,,,,,,,,158.9268359236885,158.9268359236885,158.9268359236885,158.9268359236885,158.9268359236885,158.9268359236885,s,1,0.3812334982212633,159.3185317440657,160.35198994236998,,,,,,,,,,,,,,,,,,,,,,,,,,,,,,,,,,,,,,,292869,2023-05-16_14h03.22.455,eb_02psyexp,2022.2.4,120.01688179535188,
39,0,39,0,,,,,,,,,,,,,,,,,,,,,,,,,,,,,,,,,,,,,,,,,,,,,,,,,,,,,,,,,,,160.35198994236998,160.35198994236998,160.35198994236998,160.35198994236998,160.35198994236998,160.35198994236998,s,1,0.5640727543504909,160.92701220384333,161.96042753953952,,,,,,,,,,,,,,,,,,,,,,,,,,,,,,,,,,,,,,,292869,2023-05-16_14h03.22.455,eb_02psyexp,2022.2.4,120.01688179535188,
40,0,40,0,,,,,,,,,,,,,,,,,,,,,,,,,,,,,,,,,,,,,,,,,,,,,,,,,,,,,,,,,,,161.96042753953952,161.96042753953952,161.96042753953952,161.96042753953952,161.96042753953952,161.96042753953952,s,1,0.4836549343308434,162.46045712078921,163.48555408988614,,,,,,,,,,,,,,,,,,,,,,,,,,,,,,,,,,,,,,,292869,2023-05-16_14h03.22.455,eb_02psyexp,2022.2.4,120.01688179535188,
41,0,41,0,,,,,,,,,,,,,,,,,,,,,,,,,,,,,,,,,,,,,,,,,,,,,,,,,,,,,,,,,,,163.48555408988614,163.48555408988614,163.48555408988614,163.48555408988614,163.48555408988614,163.48555408988614,s,1,0.5015603408683091,164.00223791168537,165.03568826196715,,,,,,,,,,,,,,,,,,,,,,,,,,,,,,,,,,,,,,,292869,2023-05-16_14h03.22.455,eb_02psyexp,2022.2.4,120.01688179535188,
42,0,42,0,,,,,,,,,,,,,,,,,,,,,,,,,,,,,,,,,,,,,,,,,,,,,,,,,,,,,,,,,,,165.03568826196715,165.03568826196715,165.03568826196715,165.03568826196715,165.03568826196715,165.03568826196715,l,1,0.5194790286477655,165.56905741477385,166.59415106358938,,,,,,,,,,,,,,,,,,,,,,,,,,,,,,,,,,,,,,,292869,2023-05-16_14h03.22.455,eb_02psyexp,2022.2.4,120.01688179535188,
43,0,43,0,,,,,,,,,,,,,,,,,,,,,,,,,,,,,,,,,,,,,,,,,,,,,,,,,,,,,,,,,,,166.59415106358938,166.59415106358938,166.59415106358938,166.59415106358938,166.59415106358938,166.59415106358938,s,1,0.6970543324714527,167.30253674264532,168.3276309951907,,,,,,,,,,,,,,,,,,,,,,,,,,,,,,,,,,,,,,,292869,2023-05-16_14h03.22.455,eb_02psyexp,2022.2.4,120.01688179535188,
44,0,44,0,,,,,,,,,,,,,,,,,,,,,,,,,,,,,,,,,,,,,,,,,,,,,,,,,,,,,,,,,,,168.3276309951907,168.3276309951907,168.3276309951907,168.3276309951907,168.3276309951907,168.3276309951907,l,1,0.4355995993828401,168.77766495314427,169.80274682980962,,,,,,,,,,,,,,,,,,,,,,,,,,,,,,,,,,,,,,,292869,2023-05-16_14h03.22.455,eb_02psyexp,2022.2.4,120.01688179535188,
45,0,45,0,,,,,,,,,,,,,,,,,,,,,,,,,,,,,,,,,,,,,,,,,,,,,,,,,,,,,,,,,,,169.80274682980962,169.80274682980962,169.80274682980962,169.80274682980962,169.80274682980962,169.80274682980962,s,1,1.280513889156282,171.09452867729124,172.11962323158514,,,,,,,,,,,,,,,,,,,,,,,,,,,,,,,,,,,,,,,292869,2023-05-16_14h03.22.455,eb_02psyexp,2022.2.4,120.01688179535188,
46,0,46,0,,,,,,,,,,,,,,,,,,,,,,,,,,,,,,,,,,,,,,,,,,,,,,,,,,,,,,,,,,,172.11962323158514,172.11962323158514,172.11962323158514,172.11962323158514,172.11962323158514,172.11962323158514,s,1,0.5716896229423583,172.7029940445209,173.7364293023711,,,,,,,,,,,,,,,,,,,,,,,,,,,,,,,,,,,,,,,292869,2023-05-16_14h03.22.455,eb_02psyexp,2022.2.4,120.01688179535188,
47,0,47,0,,,,,,,,,,,,,,,,,,,,,,,,,,,,,,,,,,,,,,,,,,,,,,,,,,,,,,,,,,,173.7364293023711,173.7364293023711,173.7364293023711,173.7364293023711,173.7364293023711,173.7364293023711,s,1,0.5389169246191159,174.28644696052652,175.31156053137966,,,,,,,,,,,,,,,,,,,,,,,,,,,,,,,,,,,,,,,292869,2023-05-16_14h03.22.455,eb_02psyexp,2022.2.4,120.01688179535188,
48,0,48,0,,,,,,,,,,,,,,,,,,,,,,,,,,,,,,,,,,,,,,,,,,,,,,,,,,,,,,,,,,,175.31156053137966,175.31156053137966,175.31156053137966,175.31156053137966,175.31156053137966,175.31156053137966,l,1,0.5158465725835413,175.8365929047577,176.85335581109393,,,,,,,,,,,,,,,,,,,,,,,,,,,,,,,,,,,,,,,292869,2023-05-16_14h03.22.455,eb_02psyexp,2022.2.4,120.01688179535188,
49,0,49,0,,,,,,,,,,,,,,,,,,,,,,,,,,,,,,,,,,,,,,,,,,,,,,,,,,,,,,,,,,,176.85335581109393,176.85335581109393,176.85335581109393,176.85335581109393,176.85335581109393,176.85335581109393,s,1,0.638042768696323,177.50342236889992,178.53683438431472,,,,,,,,,,,,,,,,,,,,,,,,,,,,,,,,,,,,,,,292869,2023-05-16_14h03.22.455,eb_02psyexp,2022.2.4,120.01688179535188,
50,0,50,0,,,,,,,,,,,,,,,,,,,,,,,,,,,,,,,,,,,,,,,,,,,,,,,,,,,,,,,,,,,178.53683438431472,178.53683438431472,178.53683438431472,178.53683438431472,178.53683438431472,178.53683438431472,s,1,0.45763309858739376,179.00355005124584,180.02863736113068,,,,,,,,,,,,,,,,,,,,,,,,,,,,,,,,,,,,,,,292869,2023-05-16_14h03.22.455,eb_02psyexp,2022.2.4,120.01688179535188,
51,0,51,0,,,,,,,,,,,,,,,,,,,,,,,,,,,,,,,,,,,,,,,,,,,,,,,,,,,,,,,,,,,180.02863736113068,180.02863736113068,180.02863736113068,180.02863736113068,180.02863736113068,180.02863736113068,l,1,0.8618387667229399,180.90368980751373,181.92878043779638,,,,,,,,,,,,,,,,,,,,,,,,,,,,,,,,,,,,,,,292869,2023-05-16_14h03.22.455,eb_02psyexp,2022.2.4,120.01688179535188,
52,0,52,0,,,,,,,,,,,,,,,,,,,,,,,,,,,,,,,,,,,,,,,,,,,,,,,,,,,,,,,,,,,181.92878043779638,181.92878043779638,181.92878043779638,181.92878043779638,181.92878043779638,181.92878043779638,l,1,1.0337377921678126,182.97886721952818,184.0039663015632,,,,,,,,,,,,,,,,,,,,,,,,,,,,,,,,,,,,,,,292869,2023-05-16_14h03.22.455,eb_02psyexp,2022.2.4,120.01688179535188,
53,0,53,0,,,,,,,,,,,,,,,,,,,,,,,,,,,,,,,,,,,,,,,,,,,,,,,,,,,,,,,,,,,184.0039663015632,184.0039663015632,184.0039663015632,184.0039663015632,184.0039663015632,184.0039663015632,l,1,0.5025999103672802,184.52065042522736,185.55411224579439,,,,,,,,,,,,,,,,,,,,,,,,,,,,,,,,,,,,,,,292869,2023-05-16_14h03.22.455,eb_02psyexp,2022.2.4,120.01688179535188,
54,0,54,0,,,,,,,,,,,,,,,,,,,,,,,,,,,,,,,,,,,,,,,,,,,,,,,,,,,,,,,,,,,185.55411224579439,185.55411224579439,185.55411224579439,185.55411224579439,185.55411224579439,185.55411224579439,s,1,0.4564809394069016,186.02079772774596,187.04588926350698,,,,,,,,,,,,,,,,,,,,,,,,,,,,,,,,,,,,,,,292869,2023-05-16_14h03.22.455,eb_02psyexp,2022.2.4,120.01688179535188,
55,0,55,0,,,,,,,,,,,,,,,,,,,,,,,,,,,,,,,,,,,,,,,,,,,,,,,,,,,,,,,,,,,187.04588926350698,187.04588926350698,187.04588926350698,187.04588926350698,187.04588926350698,187.04588926350698,s,1,0.48471321852412075,187.54592488182243,188.56268567510415,,,,,,,,,,,,,,,,,,,,,,,,,,,,,,,,,,,,,,,292869,2023-05-16_14h03.22.455,eb_02psyexp,2022.2.4,120.01688179535188,
56,0,56,0,,,,,,,,,,,,,,,,,,,,,,,,,,,,,,,,,,,,,,,,,,,,,,,,,,,,,,,,,,,188.56268567510415,188.56268567510415,188.56268567510415,188.56268567510415,188.56268567510415,188.56268567510415,s,1,0.567964800982736,189.1460749009857,190.17115707939956,,,,,,,,,,,,,,,,,,,,,,,,,,,,,,,,,,,,,,,292869,2023-05-16_14h03.22.455,eb_02psyexp,2022.2.4,120.01688179535188,
57,0,57,0,,,,,,,,,,,,,,,,,,,,,,,,,,,,,,,,,,,,,,,,,,,,,,,,,,,,,,,,,,,190.17115707939956,190.17115707939956,190.17115707939956,190.17115707939956,190.17115707939956,190.17115707939956,l,1,0.6075300170341507,190.7878617288079,191.80460592044983,,,,,,,,,,,,,,,,,,,,,,,,,,,,,,,,,,,,,,,292869,2023-05-16_14h03.22.455,eb_02psyexp,2022.2.4,120.01688179535188,
58,0,58,0,,,,,,,,,,,,,,,,,,,,,,,,,,,,,,,,,,,,,,,,,,,,,,,,,,,,,,,,,,,191.80460592044983,191.80460592044983,191.80460592044983,191.80460592044983,191.80460592044983,191.80460592044983,s,1,0.6621056016301736,192.4796843258664,193.50480363192037,,,,,,,,,,,,,,,,,,,,,,,,,,,,,,,,,,,,,,,292869,2023-05-16_14h03.22.455,eb_02psyexp,2022.2.4,120.01688179535188,
59,0,59,0,,,,,,,,,,,,,,,,,,,,,,,,,,,,,,,,,,,,,,,,,,,,,,,,,,,,,,,,,,,193.50480363192037,193.50480363192037,193.50480363192037,193.50480363192037,193.50480363192037,193.50480363192037,s,1,0.4419631890486926,193.96314629737753,194.97987479285803,,,,,,,,,,,,,,,,,,,,,,,,,,,,,,,,,,,,,,,292869,2023-05-16_14h03.22.455,eb_02psyexp,2022.2.4,120.01688179535188,
60,0,60,0,,,,,,,,,,,,,,,,,,,,,,,,,,,,,,,,,,,,,,,,,,,,,,,,,,,,,,,,,,,194.97987479285803,194.97987479285803,194.97987479285803,194.97987479285803,194.97987479285803,194.97987479285803,s,1,0.6699026742717251,195.6632830351591,196.68837366544176,,,,,,,,,,,,,,,,,,,,,,,,,,,,,,,,,,,,,,,292869,2023-05-16_14h03.22.455,eb_02psyexp,2022.2.4,120.01688179535188,
61,0,61,0,,,,,,,,,,,,,,,,,,,,,,,,,,,,,,,,,,,,,,,,,,,,,,,,,,,,,,,,,,,196.68837366544176,196.68837366544176,196.68837366544176,196.68837366544176,196.68837366544176,196.68837366544176,s,1,0.4254671175731346,197.13007567368913,198.16350791300647,,,,,,,,,,,,,,,,,,,,,,,,,,,,,,,,,,,,,,,292869,2023-05-16_14h03.22.455,eb_02psyexp,2022.2.4,120.01688179535188,
62,0,62,0,,,,,,,,,,,,,,,,,,,,,,,,,,,,,,,,,,,,,,,,,,,,,,,,,,,,,,,,,,,198.16350791300647,198.16350791300647,198.16350791300647,198.16350791300647,198.16350791300647,198.16350791300647,s,1,0.5183090602513403,198.69689336570445,199.71364480175544,,,,,,,,,,,,,,,,,,,,,,,,,,,,,,,,,,,,,,,292869,2023-05-16_14h03.22.455,eb_02psyexp,2022.2.4,120.01688179535188,
63,0,63,0,,,,,,,,,,,,,,,,,,,,,,,,,,,,,,,,,,,,,,,,,,,,,,,,,,,,,,,,,,,199.71364480175544,199.71364480175544,199.71364480175544,199.71364480175544,199.71364480175544,199.71364480175544,l,1,0.7122216627467424,200.4386901545804,201.47211394214537,,,,,,,,,,,,,,,,,,,,,,,,,,,,,,,,,,,,,,,292869,2023-05-16_14h03.22.455,eb_02psyexp,2022.2.4,120.01688179535188,
64,0,64,0,,,,,,,,,,,,,,,,,,,,,,,,,,,,,,,,,,,,,,,,,,,,,,,,,,,,,,,,,,,201.47211394214537,201.47211394214537,201.47211394214537,201.47211394214537,201.47211394214537,201.47211394214537,s,1,0.4978062395239249,201.9804899620358,202.99725286837202,,,,,,,,,,,,,,,,,,,,,,,,,,,,,,,,,,,,,,,292869,2023-05-16_14h03.22.455,eb_02psyexp,2022.2.4,120.01688179535188,
65,0,65,0,,,,,,,,,,,,,,,,,,,,,,,,,,,,,,,,,,,,,,,,,,,,,,,,,,,,,,,,,,,202.99725286837202,202.99725286837202,202.99725286837202,202.99725286837202,202.99725286837202,202.99725286837202,s,1,0.5086782522266731,203.5222879583016,204.55572049948387,,,,,,,,,,,,,,,,,,,,,,,,,,,,,,,,,,,,,,,292869,2023-05-16_14h03.22.455,eb_02psyexp,2022.2.4,120.01688179535188,
66,0,66,0,,,,,,,,,,,,,,,,,,,,,,,,,,,,,,,,,,,,,,,,,,,,,,,,,,,,,,,,,,,204.55572049948387,204.55572049948387,204.55572049948387,204.55572049948387,204.55572049948387,204.55572049948387,s,1,0.5502365800784901,205.12243888305966,206.13917854696047,,,,,,,,,,,,,,,,,,,,,,,,,,,,,,,,,,,,,,,292869,2023-05-16_14h03.22.455,eb_02psyexp,2022.2.4,120.01688179535188,
67,0,67,0,,,,,,,,,,,,,,,,,,,,,,,,,,,,,,,,,,,,,,,,,,,,,,,,,,,,,,,,,,,206.13917854696047,206.13917854696047,206.13917854696047,206.13917854696047,206.13917854696047,206.13917854696047,l,1,0.6308454708196223,206.7809025902534,207.8143303018296,,,,,,,,,,,,,,,,,,,,,,,,,,,,,,,,,,,,,,,292869,2023-05-16_14h03.22.455,eb_02psyexp,2022.2.4,120.01688179535188,
68,0,68,0,,,,,,,,,,,,,,,,,,,,,,,,,,,,,,,,,,,,,,,,,,,,,,,,,,,,,,,,,,,207.8143303018296,207.8143303018296,207.8143303018296,207.8143303018296,207.8143303018296,207.8143303018296,s,1,0.43572335760109127,208.26436124136671,209.281154634431,,,,,,,,,,,,,,,,,,,,,,,,,,,,,,,,,,,,,,,292869,2023-05-16_14h03.22.455,eb_02psyexp,2022.2.4,120.01688179535188,
69,0,69,0,,,,,,,,,,,,,,,,,,,,,,,,,,,,,,,,,,,,,,,,,,,,,,,,,,,,,,,,,,,209.281154634431,209.281154634431,209.281154634431,209.281154634431,209.281154634431,209.281154634431,l,1,0.5049175102030858,209.79783272114582,210.81458596826997,,,,,,,,,,,,,,,,,,,,,,,,,,,,,,,,,,,,,,,292869,2023-05-16_14h03.22.455,eb_02psyexp,2022.2.4,120.01688179535188,
70,0,70,0,,,,,,,,,,,,,,,,,,,,,,,,,,,,,,,,,,,,,,,,,,,,,,,,,,,,,,,,,,,210.81458596826997,210.81458596826997,210.81458596826997,210.81458596826997,210.81458596826997,210.81458596826997,l,1,0.4744735802523792,211.29800115304533,212.3147148579592,,,,,,,,,,,,,,,,,,,,,,,,,,,,,,,,,,,,,,,292869,2023-05-16_14h03.22.455,eb_02psyexp,2022.2.4,120.01688179535188,
71,0,71,0,,,,,,,,,,,,,,,,,,,,,,,,,,,,,,,,,,,,,,,,,,,,,,,,,,,,,,,,,,,212.3147148579592,212.3147148579592,212.3147148579592,212.3147148579592,212.3147148579592,212.3147148579592,l,1,0.5664386502467096,212.88975281547755,213.9065048552584,,,,,,,,,,,,,,,,,,,,,,,,,,,,,,,,,,,,,,,292869,2023-05-16_14h03.22.455,eb_02psyexp,2022.2.4,120.01688179535188,
72,0,72,0,,,,,,,,,,,,,,,,,,,,,,,,,,,,,,,,,,,,,,,,,,,,,,,,,,,,,,,,,,,213.9065048552584,213.9065048552584,213.9065048552584,213.9065048552584,213.9065048552584,213.9065048552584,l,1,0.4546719556674361,214.37322293699253,215.38999369135126,,,,,,,,,,,,,,,,,,,,,,,,,,,,,,,,,,,,,,,292869,2023-05-16_14h03.22.455,eb_02psyexp,2022.2.4,120.01688179535188,
73,0,73,0,,,,,,,,,,,,,,,,,,,,,,,,,,,,,,,,,,,,,,,,,,,,,,,,,,,,,,,,,,,215.38999369135126,215.38999369135126,215.38999369135126,215.38999369135126,215.38999369135126,215.38999369135126,l,1,0.5071982844965532,215.906702868524,216.94010914873797,,,,,,,,,,,,,,,,,,,,,,,,,,,,,,,,,,,,,,,292869,2023-05-16_14h03.22.455,eb_02psyexp,2022.2.4,120.01688179535188,
74,0,74,0,,,,,,,,,,,,,,,,,,,,,,,,,,,,,,,,,,,,,,,,,,,,,,,,,,,,,,,,,,,216.94010914873797,216.94010914873797,216.94010914873797,216.94010914873797,216.94010914873797,216.94010914873797,s,1,0.6291074217297137,217.5818211180158,218.60693468886893,,,,,,,,,,,,,,,,,,,,,,,,,,,,,,,,,,,,,,,292869,2023-05-16_14h03.22.455,eb_02psyexp,2022.2.4,120.01688179535188,
75,0,75,0,,,,,,,,,,,,,,,,,,,,,,,,,,,,,,,,,,,,,,,,,,,,,,,,,,,,,,,,,,,218.60693468886893,218.60693468886893,218.60693468886893,218.60693468886893,218.60693468886893,218.60693468886893,s,1,1.0103504981379956,219.63201415073127,220.66543733456638,,,,,,,,,,,,,,,,,,,,,,,,,,,,,,,,,,,,,,,292869,2023-05-16_14h03.22.455,eb_02psyexp,2022.2.4,120.01688179535188,
76,0,76,0,,,,,,,,,,,,,,,,,,,,,,,,,,,,,,,,,,,,,,,,,,,,,,,,,,,,,,,,,,,220.66543733456638,220.66543733456638,220.66543733456638,220.66543733456638,220.66543733456638,220.66543733456638,s,1,0.6398804280906916,221.31548608327284,222.33223782118876,,,,,,,,,,,,,,,,,,,,,,,,,,,,,,,,,,,,,,,292869,2023-05-16_14h03.22.455,eb_02psyexp,2022.2.4,120.01688179535188,
77,0,77,0,,,,,,,,,,,,,,,,,,,,,,,,,,,,,,,,,,,,,,,,,,,,,,,,,,,,,,,,,,,222.33223782118876,222.33223782118876,222.33223782118876,222.33223782118876,222.33223782118876,222.33223782118876,s,1,0.6130873669171706,222.957283174037,223.98238074686378,,,,,,,,,,,,,,,,,,,,,,,,,,,,,,,,,,,,,,,292869,2023-05-16_14h03.22.455,eb_02psyexp,2022.2.4,120.01688179535188,
78,0,78,0,,,,,,,,,,,,,,,,,,,,,,,,,,,,,,,,,,,,,,,,,,,,,,,,,,,,,,,,,,,223.98238074686378,223.98238074686378,223.98238074686378,223.98238074686378,223.98238074686378,223.98238074686378,l,1,0.5469678527442738,224.54073880671058,225.55749990197364,,,,,,,,,,,,,,,,,,,,,,,,,,,,,,,,,,,,,,,292869,2023-05-16_14h03.22.455,eb_02psyexp,2022.2.4,120.01688179535188,
79,0,79,0,,,,,,,,,,,,,,,,,,,,,,,,,,,,,,,,,,,,,,,,,,,,,,,,,,,,,,,,,,,225.55749990197364,225.55749990197364,225.55749990197364,225.55749990197364,225.55749990197364,225.55749990197364,s,1,0.5148821636103094,226.0825621583499,227.11598202190362,,,,,,,,,,,,,,,,,,,,,,,,,,,,,,,,,,,,,,,292869,2023-05-16_14h03.22.455,eb_02psyexp,2022.2.4,120.01688179535188,
80,0,80,0,,,,,,,,,,,,,,,,,,,,,,,,,,,,,,,,,,,,,,,,,,,,,,,,,,,,,,,,,,,227.11598202190362,227.11598202190362,227.11598202190362,227.11598202190362,227.11598202190362,227.11598202190362,s,1,0.5884519255487248,227.71602518635336,228.73278688522987,,,,,,,,,,,,,,,,,,,,,,,,,,,,,,,,,,,,,,,292869,2023-05-16_14h03.22.455,eb_02psyexp,2022.2.4,120.01688179535188,
81,0,81,0,,,,,,,,,,,,,,,,,,,,,,,,,,,,,,,,,,,,,,,,,,,,,,,,,,,,,,,,,,,228.73278688522987,228.73278688522987,228.73278688522987,228.73278688522987,228.73278688522987,228.73278688522987,l,1,0.6756812798557803,229.42451772012282,230.44126855244394,,,,,,,,,,,,,,,,,,,,,,,,,,,,,,,,,,,,,,,292869,2023-05-16_14h03.22.455,eb_02psyexp,2022.2.4,120.01688179535188,
82,0,82,0,,,,,,,,,,,,,,,,,,,,,,,,,,,,,,,,,,,,,,,,,,,,,,,,,,,,,,,,,,,230.44126855244394,230.44126855244394,230.44126855244394,230.44126855244394,230.44126855244394,230.44126855244394,l,1,0.5832525690784678,231.03297735226806,232.0497206384316,,,,,,,,,,,,,,,,,,,,,,,,,,,,,,,,,,,,,,,292869,2023-05-16_14h03.22.455,eb_02psyexp,2022.2.4,120.01688179535188,
83,0,83,0,,,,,,,,,,,,,,,,,,,,,,,,,,,,,,,,,,,,,,,,,,,,,,,,,,,,,,,,,,,232.0497206384316,232.0497206384316,232.0497206384316,232.0497206384316,232.0497206384316,232.0497206384316,l,1,0.3427917658118531,232.4080934888916,233.42485669697635,,,,,,,,,,,,,,,,,,,,,,,,,,,,,,,,,,,,,,,292869,2023-05-16_14h03.22.455,eb_02psyexp,2022.2.4,120.01688179535188,
84,0,84,0,,,,,,,,,,,,,,,,,,,,,,,,,,,,,,,,,,,,,,,,,,,,,,,,,,,,,,,,,,,233.42485669697635,233.42485669697635,233.42485669697635,233.42485669697635,233.42485669697635,233.42485669697635,s,1,0.471690830308944,233.90822298219427,234.92498619039543,,,,,,,,,,,,,,,,,,,,,,,,,,,,,,,,,,,,,,,292869,2023-05-16_14h03.22.455,eb_02psyexp,2022.2.4,120.01688179535188,
85,0,85,0,,,,,,,,,,,,,,,,,,,,,,,,,,,,,,,,,,,,,,,,,,,,,,,,,,,,,,,,,,,234.92498619039543,234.92498619039543,234.92498619039543,234.92498619039543,234.92498619039543,234.92498619039543,s,0,0.4115904956124723,235.3500134323258,236.36677664052695,,,,,,,,,,,,,,,,,,,,,,,,,,,,,,,,,,,,,,,292869,2023-05-16_14h03.22.455,eb_02psyexp,2022.2.4,120.01688179535188,
86,0,86,0,,,,,,,,,,,,,,,,,,,,,,,,,,,,,,,,,,,,,,,,,,,,,,,,,,,,,,,,,,,236.36677664052695,236.36677664052695,236.36677664052695,236.36677664052695,236.36677664052695,236.36677664052695,s,1,0.49782465235330164,236.87514481227845,237.90857735346071,,,,,,,,,,,,,,,,,,,,,,,,,,,,,,,,,,,,,,,292869,2023-05-16_14h03.22.455,eb_02psyexp,2022.2.4,120.01688179535188,
87,0,87,0,,,,,,,,,,,,,,,,,,,,,,,,,,,,,,,,,,,,,,,,,,,,,,,,,,,,,,,,,,,237.90857735346071,237.90857735346071,237.90857735346071,237.90857735346071,237.90857735346071,237.90857735346071,s,1,0.48406877007801086,238.40861478284933,239.44204158883076,,,,,,,,,,,,,,,,,,,,,,,,,,,,,,,,,,,,,,,292869,2023-05-16_14h03.22.455,eb_02psyexp,2022.2.4,120.01688179535188,
88,0,88,0,,,,,,,,,,,,,,,,,,,,,,,,,,,,,,,,,,,,,,,,,,,,,,,,,,,,,,,,,,,239.44204158883076,239.44204158883076,239.44204158883076,239.44204158883076,239.44204158883076,239.44204158883076,s,1,0.4626368567114696,239.91707320755813,240.94216927117668,,,,,,,,,,,,,,,,,,,,,,,,,,,,,,,,,,,,,,,292869,2023-05-16_14h03.22.455,eb_02psyexp,2022.2.4,120.01688179535188,
89,0,89,0,,,,,,,,,,,,,,,,,,,,,,,,,,,,,,,,,,,,,,,,,,,,,,,,,,,,,,,,,,,240.94216927117668,240.94216927117668,240.94216927117668,240.94216927117668,240.94216927117668,240.94216927117668,s,1,0.5375042692758143,241.49219387187622,242.52563697774895,,,,,,,,,,,,,,,,,,,,,,,,,,,,,,,,,,,,,,,292869,2023-05-16_14h03.22.455,eb_02psyexp,2022.2.4,120.01688179535188,
90,0,90,0,,,,,,,,,,,,,,,,,,,,,,,,,,,,,,,,,,,,,,,,,,,,,,,,,,,,,,,,,,,242.52563697774895,242.52563697774895,242.52563697774895,242.52563697774895,242.52563697774895,242.52563697774895,l,1,0.5060808379203081,243.0423494753195,244.07577296090312,,,,,,,,,,,,,,,,,,,,,,,,,,,,,,,,,,,,,,,292869,2023-05-16_14h03.22.455,eb_02psyexp,2022.2.4,120.01688179535188,
91,0,91,0,,,,,,,,,,,,,,,,,,,,,,,,,,,,,,,,,,,,,,,,,,,,,,,,,,,,,,,,,,,244.07577296090312,244.07577296090312,244.07577296090312,244.07577296090312,244.07577296090312,244.07577296090312,s,1,0.5079444563016295,244.59248515660875,245.6175682406174,,,,,,,,,,,,,,,,,,,,,,,,,,,,,,,,,,,,,,,292869,2023-05-16_14h03.22.455,eb_02psyexp,2022.2.4,120.01688179535188,
92,0,92,0,,,,,,,,,,,,,,,,,,,,,,,,,,,,,,,,,,,,,,,,,,,,,,,,,,,,,,,,,,,245.6175682406174,245.6175682406174,245.6175682406174,245.6175682406174,245.6175682406174,245.6175682406174,l,1,0.4782231538556516,246.1092845867388,247.1427144112531,,,,,,,,,,,,,,,,,,,,,,,,,,,,,,,,,,,,,,,292869,2023-05-16_14h03.22.455,eb_02psyexp,2022.2.4,120.01688179535188,
93,0,93,0,,,,,,,,,,,,,,,,,,,,,,,,,,,,,,,,,,,,,,,,,,,,,,,,,,,,,,,,,,,247.1427144112531,247.1427144112531,247.1427144112531,247.1427144112531,247.1427144112531,247.1427144112531,s,1,0.5771114424569532,247.73440811852925,248.7595075025456,,,,,,,,,,,,,,,,,,,,,,,,,,,,,,,,,,,,,,,292869,2023-05-16_14h03.22.455,eb_02psyexp,2022.2.4,120.01688179535188,
94,0,94,0,,,,,,,,,,,,,,,,,,,,,,,,,,,,,,,,,,,,,,,,,,,,,,,,,,,,,,,,,,,248.7595075025456,248.7595075025456,248.7595075025456,248.7595075025456,248.7595075025456,248.7595075025456,l,1,0.48034877760801464,249.2512196226744,250.28463978797663,,,,,,,,,,,,,,,,,,,,,,,,,,,,,,,,,,,,,,,292869,2023-05-16_14h03.22.455,eb_02psyexp,2022.2.4,120.01688179535188,
95,0,95,0,,,,,,,,,,,,,,,,,,,,,,,,,,,,,,,,,,,,,,,,,,,,,,,,,,,,,,,,,,,250.28463978797663,250.28463978797663,250.28463978797663,250.28463978797663,250.28463978797663,250.28463978797663,s,1,0.53125779714901,250.82634994620457,251.85144933010451,,,,,,,,,,,,,,,,,,,,,,,,,,,,,,,,,,,,,,,292869,2023-05-16_14h03.22.455,eb_02psyexp,2022.2.4,120.01688179535188,
96,0,96,0,,,,,,,,,,,,,,,,,,,,,,,,,,,,,,,,,,,,,,,,,,,,,,,,,,,,,,,,,,,251.85144933010451,251.85144933010451,251.85144933010451,251.85144933010451,251.85144933010451,251.85144933010451,s,1,0.644458276568912,252.50981644541025,253.53492639400065,,,,,,,,,,,,,,,,,,,,,,,,,,,,,,,,,,,,,,,292869,2023-05-16_14h03.22.455,eb_02psyexp,2022.2.4,120.01688179535188,
97,0,97,0,,,,,,,,,,,,,,,,,,,,,,,,,,,,,,,,,,,,,,,,,,,,,,,,,,,,,,,,,,,253.53492639400065,253.53492639400065,253.53492639400065,253.53492639400065,253.53492639400065,253.53492639400065,l,1,0.6890209118137136,254.2349683510838,255.26009701448493,,,,,,,,,,,,,,,,,,,,,,,,,,,,,,,,,,,,,,,292869,2023-05-16_14h03.22.455,eb_02psyexp,2022.2.4,120.01688179535188,
98,0,98,0,,,,,,,,,,,,,,,,,,,,,,,,,,,,,,,,,,,,,,,,,,,,,,,,,,,,,,,,,,,255.26009701448493,255.26009701448493,255.26009701448493,255.26009701448493,255.26009701448493,255.26009701448493,l,1,0.507908234372735,255.7767672529444,256.8101997941267,,,,,,,,,,,,,,,,,,,,,,,,,,,,,,,,,,,,,,,292869,2023-05-16_14h03.22.455,eb_02psyexp,2022.2.4,120.01688179535188,
99,0,99,0,,,,,,,,,,,,,,,,,,,,,,,,,,,,,,,,,,,,,,,,,,,,,,,,,,,,,,,,,,,256.8101997941267,256.8101997941267,256.8101997941267,256.8101997941267,256.8101997941267,256.8101997941267,l,1,0.5247982193250209,257.343568041455,258.3770395211177,,,,,,,,,,,,,,,,,,,,,,,,,,,,,,,,,,,,,,,292869,2023-05-16_14h03.22.455,eb_02psyexp,2022.2.4,120.01688179535188,
100,0,100,0,,,,,,,,,,,,,,,,,,,,,,,,,,,,,,,,,,,,,,,,,,,,,,,,,,,,,,,,,,,258.3770395211177,258.3770395211177,258.3770395211177,258.3770395211177,258.3770395211177,258.3770395211177,s,1,0.4940056533087045,258.88534973782953,259.91046330868267,,,,,,,,,,,,,,,,,,,,,,,,,,,,,,,,,,,,,,,292869,2023-05-16_14h03.22.455,eb_02psyexp,2022.2.4,120.01688179535188,
101,0,101,0,,,,,,,,,,,,,,,,,,,,,,,,,,,,,,,,,,,,,,,,,,,,,,,,,,,,,,,,,,,259.91046330868267,259.91046330868267,259.91046330868267,259.91046330868267,259.91046330868267,259.91046330868267,l,1,0.4806101791327819,260.40215761971194,261.43559710343834,,,,,,,,,,,,,,,,,,,,,,,,,,,,,,,,,,,,,,,292869,2023-05-16_14h03.22.455,eb_02psyexp,2022.2.4,120.01688179535188,
102,0,102,0,,,,,,,,,,,,,,,,,,,,,,,,,,,,,,,,,,,,,,,,,,,,,,,,,,,,,,,,,,,261.43559710343834,261.43559710343834,261.43559710343834,261.43559710343834,261.43559710343834,261.43559710343834,s,1,0.4835474760038778,261.935629401356,262.9690616406733,,,,,,,,,,,,,,,,,,,,,,,,,,,,,,,,,,,,,,,292869,2023-05-16_14h03.22.455,eb_02psyexp,2022.2.4,120.01688179535188,
103,0,103,0,,,,,,,,,,,,,,,,,,,,,,,,,,,,,,,,,,,,,,,,,,,,,,,,,,,,,,,,,,,262.9690616406733,262.9690616406733,262.9690616406733,262.9690616406733,262.9690616406733,262.9690616406733,l,1,0.5100848706206307,263.4940973344492,264.51919400168117,,,,,,,,,,,,,,,,,,,,,,,,,,,,,,,,,,,,,,,292869,2023-05-16_14h03.22.455,eb_02psyexp,2022.2.4,120.01688179535188,
104,0,104,0,,,,,,,,,,,,,,,,,,,,,,,,,,,,,,,,,,,,,,,,,,,,,,,,,,,,,,,,,,,264.51919400168117,264.51919400168117,264.51919400168117,264.51919400168117,264.51919400168117,264.51919400168117,s,1,0.47199177427683026,265.0025747757172,266.027654841193,,,,,,,,,,,,,,,,,,,,,,,,,,,,,,,,,,,,,,,292869,2023-05-16_14h03.22.455,eb_02psyexp,2022.2.4,120.01688179535188,
105,0,105,0,,,,,,,,,,,,,,,,,,,,,,,,,,,,,,,,,,,,,,,,,,,,,,,,,,,,,,,,,,,266.027654841193,266.027654841193,266.027654841193,266.027654841193,266.027654841193,266.027654841193,l,1,0.4515556620899588,266.49436537665315,267.5194505737163,,,,,,,,,,,,,,,,,,,,,,,,,,,,,,,,,,,,,,,292869,2023-05-16_14h03.22.455,eb_02psyexp,2022.2.4,120.01688179535188,
106,0,106,0,,,,,,,,,,,,,,,,,,,,,,,,,,,,,,,,,,,,,,,,,,,,,,,,,,,,,,,,,,,267.5194505737163,267.5194505737163,267.5194505737163,267.5194505737163,267.5194505737163,267.5194505737163,l,1,0.44779673125594854,267.9778155760141,269.002927637659,,,,,,,,,,,,,,,,,,,,,,,,,,,,,,,,,,,,,,,292869,2023-05-16_14h03.22.455,eb_02psyexp,2022.2.4,120.01688179535188,
107,0,107,0,,,,,,,,,,,,,,,,,,,,,,,,,,,,,,,,,,,,,,,,,,,,,,,,,,,,,,,,,,,269.002927637659,269.002927637659,269.002927637659,269.002927637659,269.002927637659,269.002927637659,s,1,0.44432817946653813,269.461273623514,270.4947064665612,,,,,,,,,,,,,,,,,,,,,,,,,,,,,,,,,,,,,,,292869,2023-05-16_14h03.22.455,eb_02psyexp,2022.2.4,120.01688179535188,
108,0,108,0,,,,,,,,,,,,,,,,,,,,,,,,,,,,,,,,,,,,,,,,,,,,,,,,,,,,,,,,,,,270.4947064665612,270.4947064665612,270.4947064665612,270.4947064665612,270.4947064665612,270.4947064665612,s,1,0.5205397275276482,271.02808739151806,272.0531771162059,,,,,,,,,,,,,,,,,,,,,,,,,,,,,,,,,,,,,,,292869,2023-05-16_14h03.22.455,eb_02psyexp,2022.2.4,120.01688179535188,
109,0,109,0,,,,,,,,,,,,,,,,,,,,,,,,,,,,,,,,,,,,,,,,,,,,,,,,,,,,,,,,,,,272.0531771162059,272.0531771162059,272.0531771162059,272.0531771162059,272.0531771162059,272.0531771162059,s,1,0.5531452012946829,272.61988191655837,273.6449813004583,,,,,,,,,,,,,,,,,,,,,,,,,,,,,,,,,,,,,,,292869,2023-05-16_14h03.22.455,eb_02psyexp,2022.2.4,120.01688179535188,
110,0,110,0,,,,,,,,,,,,,,,,,,,,,,,,,,,,,,,,,,,,,,,,,,,,,,,,,,,,,,,,,,,273.6449813004583,273.6449813004583,273.6449813004583,273.6449813004583,273.6449813004583,273.6449813004583,l,1,0.48138653591740876,274.1366798373638,275.1701096618781,,,,,,,,,,,,,,,,,,,,,,,,,,,,,,,,,,,,,,,292869,2023-05-16_14h03.22.455,eb_02psyexp,2022.2.4,120.01688179535188,
111,0,111,0,,,,,,,,,,,,,,,,,,,,,,,,,,,,,,,,,,,,,,,,,,,,,,,,,,,,,,,,,,,275.1701096618781,275.1701096618781,275.1701096618781,275.1701096618781,275.1701096618781,275.1701096618781,l,1,0.4922845078399405,275.67847209854517,276.70358717872296,,,,,,,,,,,,,,,,,,,,,,,,,,,,,,,,,,,,,,,292869,2023-05-16_14h03.22.455,eb_02psyexp,2022.2.4,120.01688179535188,
112,0,112,0,,,,,,,,,,,,,,,,,,,,,,,,,,,,,,,,,,,,,,,,,,,,,,,,,,,,,,,,,,,276.70358717872296,276.70358717872296,276.70358717872296,276.70358717872296,276.70358717872296,276.70358717872296,s,1,0.5108494552550837,277.22860385582317,278.2537029379746,,,,,,,,,,,,,,,,,,,,,,,,,,,,,,,,,,,,,,,292869,2023-05-16_14h03.22.455,eb_02psyexp,2022.2.4,120.01688179535188,
113,0,113,0,,,,,,,,,,,,,,,,,,,,,,,,,,,,,,,,,,,,,,,,,,,,,,,,,,,,,,,,,,,278.2537029379746,278.2537029379746,278.2537029379746,278.2537029379746,278.2537029379746,278.2537029379746,l,1,0.4567577353445813,278.7204041160876,279.7538390720729,,,,,,,,,,,,,,,,,,,,,,,,,,,,,,,,,,,,,,,292869,2023-05-16_14h03.22.455,eb_02psyexp,2022.2.4,120.01688179535188,
114,0,114,0,,,,,,,,,,,,,,,,,,,,,,,,,,,,,,,,,,,,,,,,,,,,,,,,,,,,,,,,,,,279.7538390720729,279.7538390720729,279.7538390720729,279.7538390720729,279.7538390720729,279.7538390720729,l,1,0.460654309601523,280.228892423911,281.26230353373103,,,,,,,,,,,,,,,,,,,,,,,,,,,,,,,,,,,,,,,292869,2023-05-16_14h03.22.455,eb_02psyexp,2022.2.4,120.01688179535188,
115,0,115,0,,,,,,,,,,,,,,,,,,,,,,,,,,,,,,,,,,,,,,,,,,,,,,,,,,,,,,,,,,,281.26230353373103,281.26230353373103,281.26230353373103,281.26230353373103,281.26230353373103,281.26230353373103,s,1,0.37621555326040834,281.6539948263671,282.6790824381169,,,,,,,,,,,,,,,,,,,,,,,,,,,,,,,,,,,,,,,292869,2023-05-16_14h03.22.455,eb_02psyexp,2022.2.4,120.01688179535188,
116,0,116,0,,,,,,,,,,,,,,,,,,,,,,,,,,,,,,,,,,,,,,,,,,,,,,,,,,,,,,,,,,,282.6790824381169,282.6790824381169,282.6790824381169,282.6790824381169,282.6790824381169,282.6790824381169,s,1,0.40745878068264574,283.0957858801121,284.12087439745665,,,,,,,,,,,,,,,,,,,,,,,,,,,,,,,,,,,,,,,292869,2023-05-16_14h03.22.455,eb_02psyexp,2022.2.4,120.01688179535188,
117,0,117,0,,,,,,,,,,,,,,,,,,,,,,,,,,,,,,,,,,,,,,,,,,,,,,,,,,,,,,,,,,,284.12087439745665,284.12087439745665,284.12087439745665,284.12087439745665,284.12087439745665,284.12087439745665,l,1,0.4457024998264387,284.57924604055006,285.60434361337684,,,,,,,,,,,,,,,,,,,,,,,,,,,,,,,,,,,,,,,292869,2023-05-16_14h03.22.455,eb_02psyexp,2022.2.4,120.01688179535188,
118,0,118,0,,,,,,,,,,,,,,,,,,,,,,,,,,,,,,,,,,,,,,,,,,,,,,,,,,,,,,,,,,,285.60434361337684,285.60434361337684,285.60434361337684,285.60434361337684,285.60434361337684,285.60434361337684,s,1,0.4422611144836992,286.0626995601924,287.09613723284565,,,,,,,,,,,,,,,,,,,,,,,,,,,,,,,,,,,,,,,292869,2023-05-16_14h03.22.455,eb_02psyexp,2022.2.4,120.01688179535188,
119,0,119,0,,,,,,,,,,,,,,,,,,,,,,,,,,,,,,,,,,,,,,,,,,,,,,,,,,,,,,,,,,,287.09613723284565,287.09613723284565,287.09613723284565,287.09613723284565,287.09613723284565,287.09613723284565,s,1,0.4384895059047267,287.5461684742477,288.57128113962244,,,,,,,,,,,,,,,,,,,,,,,,,,,,,,,,,,,,,,,292869,2023-05-16_14h03.22.455,eb_02psyexp,2022.2.4,120.01688179535188,
120,0,120,0,,,,,,,,,,,,,,,,,,,,,,,,,,,,,,,,,,,,,,,,,,,,,,,,,,,,,,,,,,,288.57128113962244,288.57128113962244,288.57128113962244,288.57128113962244,288.57128113962244,288.57128113962244,s,1,0.5144115803996101,289.09629992966074,290.1214056524914,,,,,,,,,,,,,,,,,,,,,,,,,,,,,,,,,,,,,,,292869,2023-05-16_14h03.22.455,eb_02psyexp,2022.2.4,120.01688179535188,
121,0,121,0,,,,,,,,,,,,,,,,,,,,,,,,,,,,,,,,,,,,,,,,,,,,,,,,,,,,,,,,,,,290.1214056524914,290.1214056524914,290.1214056524914,290.1214056524914,290.1214056524914,290.1214056524914,l,1,0.46031472901813686,290.59643968602177,291.6215294107096,,,,,,,,,,,,,,,,,,,,,,,,,,,,,,,,,,,,,,,292869,2023-05-16_14h03.22.455,eb_02psyexp,2022.2.4,120.01688179535188,
122,0,122,0,,,,,,,,,,,,,,,,,,,,,,,,,,,,,,,,,,,,,,,,,,,,,,,,,,,,,,,,,,,291.6215294107096,291.6215294107096,291.6215294107096,291.6215294107096,291.6215294107096,291.6215294107096,s,1,0.4721967299701646,292.1049020347418,293.1383270297665,,,,,,,,,,,,,,,,,,,,,,,,,,,,,,,,,,,,,,,292869,2023-05-16_14h03.22.455,eb_02psyexp,2022.2.4,120.01688179535188,
123,0,123,0,,,,,,,,,,,,,,,,,,,,,,,,,,,,,,,,,,,,,,,,,,,,,,,,,,,,,,,,,,,293.1383270297665,293.1383270297665,293.1383270297665,293.1383270297665,293.1383270297665,293.1383270297665,s,1,0.5874449558323249,293.7383695904864,294.7634662578348,,,,,,,,,,,,,,,,,,,,,,,,,,,,,,,,,,,,,,,292869,2023-05-16_14h03.22.455,eb_02psyexp,2022.2.4,120.01688179535188,
124,0,124,0,,,,,,,,,,,,,,,,,,,,,,,,,,,,,,,,,,,,,,,,,,,,,,,,,,,,,,,,,,,294.7634662578348,294.7634662578348,294.7634662578348,294.7634662578348,294.7634662578348,294.7634662578348,s,1,0.4503247202374041,295.230161700747,296.26360873074736,,,,,,,,,,,,,,,,,,,,,,,,,,,,,,,,,,,,,,,292869,2023-05-16_14h03.22.455,eb_02psyexp,2022.2.4,120.01688179535188,
125,0,125,0,,,,,,,,,,,,,,,,,,,,,,,,,,,,,,,,,,,,,,,,,,,,,,,,,,,,,,,,,,,296.26360873074736,296.26360873074736,296.26360873074736,296.26360873074736,296.26360873074736,296.26360873074736,s,1,0.8062199905980378,297.0803239447996,298.1137570897117,,,,,,,,,,,,,,,,,,,,,,,,,,,,,,,,,,,,,,,292869,2023-05-16_14h03.22.455,eb_02psyexp,2022.2.4,120.01688179535188,
126,0,126,0,,,,,,,,,,,,,,,,,,,,,,,,,,,,,,,,,,,,,,,,,,,,,,,,,,,,,,,,,,,298.1137570897117,298.1137570897117,298.1137570897117,298.1137570897117,298.1137570897117,298.1137570897117,l,1,0.3560990998521447,298.48044317541644,299.5055537277367,,,,,,,,,,,,,,,,,,,,,,,,,,,,,,,,,,,,,,,292869,2023-05-16_14h03.22.455,eb_02psyexp,2022.2.4,120.01688179535188,
127,0,127,0,,,,,,,,,,,,,,,,,,,,,,,,,,,,,,,,,,,,,,,,,,,,,,,,,,,,,,,,,,,299.5055537277367,299.5055537277367,299.5055537277367,299.5055537277367,299.5055537277367,299.5055537277367,l,1,0.4843362085521221,300.0055766683072,301.0306724300608,,,,,,,,,,,,,,,,,,,,,,,,,,,,,,,,,,,,,,,292869,2023-05-16_14h03.22.455,eb_02psyexp,2022.2.4,120.01688179535188,
128,0,128,0,,,,,,,,,,,,,,,,,,,,,,,,,,,,,,,,,,,,,,,,,,,,,,,,,,,,,,,,,,,301.0306724300608,301.0306724300608,301.0306724300608,301.0306724300608,301.0306724300608,301.0306724300608,l,1,0.4632333110785112,301.5057152172085,302.5308034326881,,,,,,,,,,,,,,,,,,,,,,,,,,,,,,,,,,,,,,,292869,2023-05-16_14h03.22.455,eb_02psyexp,2022.2.4,120.01688179535188,
129,0,129,0,,,,,,,,,,,,,,,,,,,,,,,,,,,,,,,,,,,,,,,,,,,,,,,,,,,,,,,,,,,302.5308034326881,302.5308034326881,302.5308034326881,302.5308034326881,302.5308034326881,302.5308034326881,l,1,0.5231338215526193,303.0641834520502,304.0892722712597,,,,,,,,,,,,,,,,,,,,,,,,,,,,,,,,,,,,,,,292869,2023-05-16_14h03.22.455,eb_02psyexp,2022.2.4,120.01688179535188,
130,0,130,0,,,,,,,,,,,,,,,,,,,,,,,,,,,,,,,,,,,,,,,,,,,,,,,,,,,,,,,,,,,304.0892722712597,304.0892722712597,304.0892722712597,304.0892722712597,304.0892722712597,304.0892722712597,l,1,0.42769386095460504,304.53097669419367,305.56440048175864,,,,,,,,,,,,,,,,,,,,,,,,,,,,,,,,,,,,,,,292869,2023-05-16_14h03.22.455,eb_02psyexp,2022.2.4,120.01688179535188,
131,0,131,0,,,,,,,,,,,,,,,,,,,,,,,,,,,,,,,,,,,,,,,,,,,,,,,,,,,,,,,,,,,305.56440048175864,305.56440048175864,305.56440048175864,305.56440048175864,305.56440048175864,305.56440048175864,l,1,0.5126149726565927,306.0894361754181,307.11452439101413,,,,,,,,,,,,,,,,,,,,,,,,,,,,,,,,,,,,,,,292869,2023-05-16_14h03.22.455,eb_02psyexp,2022.2.4,120.01688179535188,
132,0,132,0,,,,,,,,,,,,,,,,,,,,,,,,,,,,,,,,,,,,,,,,,,,,,,,,,,,,,,,,,,,307.11452439101413,307.11452439101413,307.11452439101413,307.11452439101413,307.11452439101413,307.11452439101413,s,1,0.5305197753477842,307.6562372657936,308.6896689013811,,,,,,,,,,,,,,,,,,,,,,,,,,,,,,,,,,,,,,,292869,2023-05-16_14h03.22.455,eb_02psyexp,2022.2.4,120.01688179535188,
133,0,133,0,,,,,,,,,,,,,,,,,,,,,,,,,,,,,,,,,,,,,,,,,,,,,,,,,,,,,,,,,,,308.6896689013811,308.6896689013811,308.6896689013811,308.6896689013811,308.6896689013811,308.6896689013811,l,1,0.47543527255766094,309.1813668346731,310.2147975646658,,,,,,,,,,,,,,,,,,,,,,,,,,,,,,,,,,,,,,,292869,2023-05-16_14h03.22.455,eb_02psyexp,2022.2.4,120.01688179535188,
134,0,134,0,,,,,,,,,,,,,,,,,,,,,,,,,,,,,,,,,,,,,,,,,,,,,,,,,,,,,,,,,,,310.2147975646658,310.2147975646658,310.2147975646658,310.2147975646658,310.2147975646658,310.2147975646658,s,1,0.5582853952655569,310.7815050816862,311.80660446558613,,,,,,,,,,,,,,,,,,,,,,,,,,,,,,,,,,,,,,,292869,2023-05-16_14h03.22.455,eb_02psyexp,2022.2.4,120.01688179535188,
135,0,135,0,,,,,,,,,,,,,,,,,,,,,,,,,,,,,,,,,,,,,,,,,,,,,,,,,,,,,,,,,,,311.80660446558613,311.80660446558613,311.80660446558613,311.80660446558613,311.80660446558613,311.80660446558613,s,1,0.5185224676970392,312.3399724109331,313.37340797064826,,,,,,,,,,,,,,,,,,,,,,,,,,,,,,,,,,,,,,,292869,2023-05-16_14h03.22.455,eb_02psyexp,2022.2.4,120.01688179535188,
136,0,136,0,,,,,,,,,,,,,,,,,,,,,,,,,,,,,,,,,,,,,,,,,,,,,,,,,,,,,,,,,,,313.37340797064826,313.37340797064826,313.37340797064826,313.37340797064826,313.37340797064826,313.37340797064826,s,1,0.43175916909240186,313.81512537319213,314.8402000054484,,,,,,,,,,,,,,,,,,,,,,,,,,,,,,,,,,,,,,,292869,2023-05-16_14h03.22.455,eb_02psyexp,2022.2.4,120.01688179535188,
137,0,137,0,,,,,,,,,,,,,,,,,,,,,,,,,,,,,,,,,,,,,,,,,,,,,,,,,,,,,,,,,,,314.8402000054484,314.8402000054484,314.8402000054484,314.8402000054484,314.8402000054484,314.8402000054484,s,1,0.436978749348782,315.2902261153795,316.3236625806894,,,,,,,,,,,,,,,,,,,,,,,,,,,,,,,,,,,,,,,292869,2023-05-16_14h03.22.455,eb_02psyexp,2022.2.4,120.01688179535188,
138,0,138,0,,,,,,,,,,,,,,,,,,,,,,,,,,,,,,,,,,,,,,,,,,,,,,,,,,,,,,,,,,,316.3236625806894,316.3236625806894,316.3236625806894,316.3236625806894,316.3236625806894,316.3236625806894,s,1,0.3535526980413124,316.6903613440227,317.71544774842914,,,,,,,,,,,,,,,,,,,,,,,,,,,,,,,,,,,,,,,292869,2023-05-16_14h03.22.455,eb_02psyexp,2022.2.4,120.01688179535188,
139,0,139,0,,,,,,,,,,,,,,,,,,,,,,,,,,,,,,,,,,,,,,,,,,,,,,,,,,,,,,,,,,,317.71544774842914,317.71544774842914,317.71544774842914,317.71544774842914,317.71544774842914,317.71544774842914,l,1,0.5217957230051979,318.24884104914963,319.2822684588609,,,,,,,,,,,,,,,,,,,,,,,,,,,,,,,,,,,,,,,292869,2023-05-16_14h03.22.455,eb_02psyexp,2022.2.4,120.01688179535188,
140,0,140,0,,,,,,,,,,,,,,,,,,,,,,,,,,,,,,,,,,,,,,,,,,,,,,,,,,,,,,,,,,,319.2822684588609,319.2822684588609,319.2822684588609,319.2822684588609,319.2822684588609,319.2822684588609,l,1,0.5299740316113457,319.8239514505258,320.8490514381556,,,,,,,,,,,,,,,,,,,,,,,,,,,,,,,,,,,,,,,292869,2023-05-16_14h03.22.455,eb_02psyexp,2022.2.4,120.01688179535188,
141,0,141,0,,,,,,,,,,,,,,,,,,,,,,,,,,,,,,,,,,,,,,,,,,,,,,,,,,,,,,,,,,,320.8490514381556,320.8490514381556,320.8490514381556,320.8490514381556,320.8490514381556,320.8490514381556,s,1,0.45931802212726325,321.32409271609504,322.3491803278448,,,,,,,,,,,,,,,,,,,,,,,,,,,,,,,,,,,,,,,292869,2023-05-16_14h03.22.455,eb_02psyexp,2022.2.4,120.01688179535188,
142,0,142,0,,,,,,,,,,,,,,,,,,,,,,,,,,,,,,,,,,,,,,,,,,,,,,,,,,,,,,,,,,,322.3491803278448,322.3491803278448,322.3491803278448,322.3491803278448,322.3491803278448,322.3491803278448,l,1,0.3991672785487026,322.75756329030264,323.7909716835711,,,,,,,,,,,,,,,,,,,,,,,,,,,,,,,,,,,,,,,292869,2023-05-16_14h03.22.455,eb_02psyexp,2022.2.4,120.01688179535188,
143,0,143,0,,,,,,,,,,,,,,,,,,,,,,,,,,,,,,,,,,,,,,,,,,,,,,,,,,,,,,,,,,,323.7909716835711,323.7909716835711,323.7909716835711,323.7909716835711,323.7909716835711,323.7909716835711,s,1,0.41339374415110797,324.21601281047333,325.24109861126635,,,,,,,,,,,,,,,,,,,,,,,,,,,,,,,,,,,,,,,292869,2023-05-16_14h03.22.455,eb_02psyexp,2022.2.4,120.01688179535188,
144,0,144,0,,,,,,,,,,,,,,,,,,,,,,,,,,,,,,,,,,,,,,,,,,,,,,,,,,,,,,,,,,,325.24109861126635,325.24109861126635,325.24109861126635,325.24109861126635,325.24109861126635,325.24109861126635,s,1,0.49128840467892587,325.741146605229,326.77456345024984,,,,,,,,,,,,,,,,,,,,,,,,,,,,,,,,,,,,,,,292869,2023-05-16_14h03.22.455,eb_02psyexp,2022.2.4,120.01688179535188,
145,0,145,0,,,,,,,,,,,,,,,,,,,,,,,,,,,,,,,,,,,,,,,,,,,,,,,,,,,,,,,,,,,326.77456345024984,326.77456345024984,326.77456345024984,326.77456345024984,326.77456345024984,326.77456345024984,s,1,0.4538584714755416,327.24127458943985,328.2663495235611,,,,,,,,,,,,,,,,,,,,,,,,,,,,,,,,,,,,,,,292869,2023-05-16_14h03.22.455,eb_02psyexp,2022.2.4,120.01688179535188,
146,0,146,0,,,,,,,,,,,,,,,,,,,,,,,,,,,,,,,,,,,,,,,,,,,,,,,,,,,,,,,,,,,328.2663495235611,328.2663495235611,328.2663495235611,328.2663495235611,328.2663495235611,328.2663495235611,s,1,0.4181038025999442,328.69971958186943,329.72481232509017,,,,,,,,,,,,,,,,,,,,,,,,,,,,,,,,,,,,,,,292869,2023-05-16_14h03.22.455,eb_02psyexp,2022.2.4,120.01688179535188,
147,0,147,0,,,,,,,,,,,,,,,,,,,,,,,,,,,,,,,,,,,,,,,,,,,,,,,,,,,,,,,,,,,329.72481232509017,329.72481232509017,329.72481232509017,329.72481232509017,329.72481232509017,329.72481232509017,l,1,0.5196728160372004,330.25818660936784,331.28328689886257,,,,,,,,,,,,,,,,,,,,,,,,,,,,,,,,,,,,,,,292869,2023-05-16_14h03.22.455,eb_02psyexp,2022.2.4,120.01688179535188,
148,0,148,0,,,,,,,,,,,,,,,,,,,,,,,,,,,,,,,,,,,,,,,,,,,,,,,,,,,,,,,,,,,331.28328689886257,331.28328689886257,331.28328689886257,331.28328689886257,331.28328689886257,331.28328689886257,l,1,0.457242505508475,331.74998354923446,332.7750871590106,,,,,,,,,,,,,,,,,,,,,,,,,,,,,,,,,,,,,,,292869,2023-05-16_14h03.22.455,eb_02psyexp,2022.2.4,120.01688179535188,
149,0,149,0,,,,,,,,,,,,,,,,,,,,,,,,,,,,,,,,,,,,,,,,,,,,,,,,,,,,,,,,,,,332.7750871590106,332.7750871590106,332.7750871590106,332.7750871590106,332.7750871590106,332.7750871590106,s,1,0.7174575428944081,333.50847744126804,334.5335901066428,,,,,,,,,,,,,,,,,,,,,,,,,,,,,,,,,,,,,,,292869,2023-05-16_14h03.22.455,eb_02psyexp,2022.2.4,120.01688179535188,
150,0,150,0,,,,,,,,,,,,,,,,,,,,,,,,,,,,,,,,,,,,,,,,,,,,,,,,,,,,,,,,,,,334.5335901066428,334.5335901066428,334.5335901066428,334.5335901066428,334.5335901066428,334.5335901066428,s,1,0.5339702161727473,335.0836252720328,336.10037067113444,,,,,,,,,,,,,,,,,,,,,,,,,,,,,,,,,,,,,,,292869,2023-05-16_14h03.22.455,eb_02psyexp,2022.2.4,120.01688179535188,
151,0,151,0,,,,,,,,,,,,,,,,,,,,,,,,,,,,,,,,,,,,,,,,,,,,,,,,,,,,,,,,,,,336.10037067113444,336.10037067113444,336.10037067113444,336.10037067113444,336.10037067113444,336.10037067113444,s,1,0.5032594512449577,336.61709252593573,337.6421689692652,,,,,,,,,,,,,,,,,,,,,,,,,,,,,,,,,,,,,,,292869,2023-05-16_14h03.22.455,eb_02psyexp,2022.2.4,120.01688179535188,
152,0,152,0,,,,,,,,,,,,,,,,,,,,,,,,,,,,,,,,,,,,,,,,,,,,,,,,,,,,,,,,,,,337.6421689692652,337.6421689692652,337.6421689692652,337.6421689692652,337.6421689692652,337.6421689692652,s,1,0.4254894544137642,338.08387973112985,339.1089767002268,,,,,,,,,,,,,,,,,,,,,,,,,,,,,,,,,,,,,,,292869,2023-05-16_14h03.22.455,eb_02psyexp,2022.2.4,120.01688179535188,
153,0,153,0,,,,,,,,,,,,,,,,,,,,,,,,,,,,,,,,,,,,,,,,,,,,,,,,,,,,,,,,,,,339.1089767002268,339.1089767002268,339.1089767002268,339.1089767002268,339.1089767002268,339.1089767002268,s,1,0.4946974921040237,339.61733008141164,340.64243037090637,,,,,,,,,,,,,,,,,,,,,,,,,,,,,,,,,,,,,,,292869,2023-05-16_14h03.22.455,eb_02psyexp,2022.2.4,120.01688179535188,
154,0,154,0,,,,,,,,,,,,,,,,,,,,,,,,,,,,,,,,,,,,,,,,,,,,,,,,,,,,,,,,,,,340.64243037090637,340.64243037090637,340.64243037090637,340.64243037090637,340.64243037090637,340.64243037090637,s,1,0.4652961501851678,341.1174662155099,342.1508924178779,,,,,,,,,,,,,,,,,,,,,,,,,,,,,,,,,,,,,,,292869,2023-05-16_14h03.22.455,eb_02psyexp,2022.2.4,120.01688179535188,
155,0,155,0,,,,,,,,,,,,,,,,,,,,,,,,,,,,,,,,,,,,,,,,,,,,,,,,,,,,,,,,,,,342.1508924178779,342.1508924178779,342.1508924178779,342.1508924178779,342.1508924178779,342.1508924178779,s,1,0.46885887905955315,342.6342722863192,343.65935657778755,,,,,,,,,,,,,,,,,,,,,,,,,,,,,,,,,,,,,,,292869,2023-05-16_14h03.22.455,eb_02psyexp,2022.2.4,120.01688179535188,
156,0,156,0,,,,,,,,,,,,,,,,,,,,,,,,,,,,,,,,,,,,,,,,,,,,,,,,,,,,,,,,,,,343.65935657778755,343.65935657778755,343.65935657778755,343.65935657778755,343.65935657778755,343.65935657778755,l,1,0.448422163259238,344.1177176560741,345.15115351765417,,,,,,,,,,,,,,,,,,,,,,,,,,,,,,,,,,,,,,,292869,2023-05-16_14h03.22.455,eb_02psyexp,2022.2.4,120.01688179535188,
157,0,157,0,,,,,,,,,,,,,,,,,,,,,,,,,,,,,,,,,,,,,,,,,,,,,,,,,,,,,,,,,,,345.15115351765417,345.15115351765417,345.15115351765417,345.15115351765417,345.15115351765417,345.15115351765417,s,1,0.38866472942754626,345.5511915506795,346.5679423830006,,,,,,,,,,,,,,,,,,,,,,,,,,,,,,,,,,,,,,,292869,2023-05-16_14h03.22.455,eb_02psyexp,2022.2.4,120.01688179535188,
158,0,158,0,,,,,,,,,,,,,,,,,,,,,,,,,,,,,,,,,,,,,,,,,,,,,,,,,,,,,,,,,,,346.5679423830006,346.5679423830006,346.5679423830006,346.5679423830006,346.5679423830006,346.5679423830006,l,1,0.5638991909800097,347.14296313514933,348.17641710769385,,,,,,,,,,,,,,,,,,,,,,,,,,,,,,,,,,,,,,,292869,2023-05-16_14h03.22.455,eb_02psyexp,2022.2.4,120.01688179535188,
159,0,159,0,,,,,,,,,,,,,,,,,,,,,,,,,,,,,,,,,,,,,,,,,,,,,,,,,,,,,,,,,,,348.17641710769385,348.17641710769385,348.17641710769385,348.17641710769385,348.17641710769385,348.17641710769385,s,1,0.4594529488822445,348.6514460097533,349.6765408659121,,,,,,,,,,,,,,,,,,,,,,,,,,,,,,,,,,,,,,,292869,2023-05-16_14h03.22.455,eb_02psyexp,2022.2.4,120.01688179535188,
160,0,160,0,,,,,,,,,,,,,,,,,,,,,,,,,,,,,,,,,,,,,,,,,,,,,,,,,,,,,,,,,,,349.6765408659121,349.6765408659121,349.6765408659121,349.6765408659121,349.6765408659121,349.6765408659121,l,1,0.42237859428860247,350.10991303715855,351.1266605491983,,,,,,,,,,,,,,,,,,,,,,,,,,,,,,,,,,,,,,,292869,2023-05-16_14h03.22.455,eb_02psyexp,2022.2.4,120.01688179535188,
161,0,161,0,,,,,,,,,,,,,,,,,,,,,,,,,,,,,,,,,,,,,,,,,,,,,,,,,,,,,,,,,,,351.1266605491983,351.1266605491983,351.1266605491983,351.1266605491983,351.1266605491983,351.1266605491983,s,1,0.49228148930706084,351.63504381349776,352.66013504751027,,,,,,,,,,,,,,,,,,,,,,,,,,,,,,,,,,,,,,,292869,2023-05-16_14h03.22.455,eb_02psyexp,2022.2.4,120.01688179535188,
162,0,162,0,,,,,,,,,,,,,,,,,,,,,,,,,,,,,,,,,,,,,,,,,,,,,,,,,,,,,,,,,,,352.66013504751027,352.66013504751027,352.66013504751027,352.66013504751027,352.66013504751027,352.66013504751027,s,1,2.134856144199148,354.81031027110294,355.83541025873274,,,,,,,,,,,,,,,,,,,,,,,,,,,,,,,,,,,,,,,292869,2023-05-16_14h03.22.455,eb_02psyexp,2022.2.4,120.01688179535188,
163,0,163,0,,,,,,,,,,,,,,,,,,,,,,,,,,,,,,,,,,,,,,,,,,,,,,,,,,,,,,,,,,,355.83541025873274,355.83541025873274,355.83541025873274,355.83541025873274,355.83541025873274,355.83541025873274,s,1,0.3435862334445119,356.19377948693,357.21886257105507,,,,,,,,,,,,,,,,,,,,,,,,,,,,,,,,,,,,,,,292869,2023-05-16_14h03.22.455,eb_02psyexp,2022.2.4,120.01688179535188,
164,0,164,0,,,,,,,,,,,,,,,,,,,,,,,,,,,,,,,,,,,,,,,,,,,,,,,,,,,,,,,,,,,357.21886257105507,357.21886257105507,357.21886257105507,357.21886257105507,357.21886257105507,357.21886257105507,s,1,0.46418836270458996,357.6938938879175,358.7273264290998,,,,,,,,,,,,,,,,,,,,,,,,,,,,,,,,,,,,,,,292869,2023-05-16_14h03.22.455,eb_02psyexp,2022.2.4,120.01688179535188,
165,0,165,0,,,,,,,,,,,,,,,,,,,,,,,,,,,,,,,,,,,,,,,,,,,,,,,,,,,,,,,,,,,358.7273264290998,358.7273264290998,358.7273264290998,358.7273264290998,358.7273264290998,358.7273264290998,s,1,0.475745573756285,359.2190258716,360.24412525549997,,,,,,,,,,,,,,,,,,,,,,,,,,,,,,,,,,,,,,,292869,2023-05-16_14h03.22.455,eb_02psyexp,2022.2.4,120.01688179535188,
166,0,166,0,,,,,,,,,,,,,,,,,,,,,,,,,,,,,,,,,,,,,,,,,,,,,,,,,,,,,,,,,,,360.24412525549997,360.24412525549997,360.24412525549997,360.24412525549997,360.24412525549997,360.24412525549997,l,1,0.542987062362954,360.8024950873805,361.8192244884558,,,,,,,,,,,,,,,,,,,,,,,,,,,,,,,,,,,,,,,292869,2023-05-16_14h03.22.455,eb_02psyexp,2022.2.4,120.01688179535188,
167,0,167,0,,,,,,,,,,,,,,,,,,,,,,,,,,,,,,,,,,,,,,,,,,,,,,,,,,,,,,,,,,,361.8192244884558,361.8192244884558,361.8192244884558,361.8192244884558,361.8192244884558,361.8192244884558,s,1,0.48790920025203377,362.3192957249703,363.3360598386498,,,,,,,,,,,,,,,,,,,,,,,,,,,,,,,,,,,,,,,292869,2023-05-16_14h03.22.455,eb_02psyexp,2022.2.4,120.01688179535188,
168,0,168,0,,,,,,,,,,,,,,,,,,,,,,,,,,,,,,,,,,,,,,,,,,,,,,,,,,,,,,,,,,,363.3360598386498,363.3360598386498,363.3360598386498,363.3360598386498,363.3360598386498,363.3360598386498,l,1,0.5071152759483084,363.8527738454286,364.86952286667656,,,,,,,,,,,,,,,,,,,,,,,,,,,,,,,,,,,,,,,292869,2023-05-16_14h03.22.455,eb_02psyexp,2022.2.4,120.01688179535188,
169,0,169,0,,,,,,,,,,,,,,,,,,,,,,,,,,,,,,,,,,,,,,,,,,,,,,,,,,,,,,,,,,,364.86952286667656,364.86952286667656,364.86952286667656,364.86952286667656,364.86952286667656,364.86952286667656,s,1,0.4616863328265026,365.3445759166498,366.3696686598705,,,,,,,,,,,,,,,,,,,,,,,,,,,,,,,,,,,,,,,292869,2023-05-16_14h03.22.455,eb_02psyexp,2022.2.4,120.01688179535188,
170,0,170,0,,,,,,,,,,,,,,,,,,,,,,,,,,,,,,,,,,,,,,,,,,,,,,,,,,,,,,,,,,,366.3696686598705,366.3696686598705,366.3696686598705,366.3696686598705,366.3696686598705,366.3696686598705,l,1,0.4725686084711924,366.85301955079194,367.8864520919742,,,,,,,,,,,,,,,,,,,,,,,,,,,,,,,,,,,,,,,292869,2023-05-16_14h03.22.455,eb_02psyexp,2022.2.4,120.01688179535188,
171,0,171,0,,,,,,,,,,,,,,,,,,,,,,,,,,,,,,,,,,,,,,,,,,,,,,,,,,,,,,,,,,,367.8864520919742,367.8864520919742,367.8864520919742,367.8864520919742,367.8864520919742,367.8864520919742,s,1,0.4038021764717996,368.3031467803521,369.31992326991167,,,,,,,,,,,,,,,,,,,,,,,,,,,,,,,,,,,,,,,292869,2023-05-16_14h03.22.455,eb_02psyexp,2022.2.4,120.01688179535188,
172,0,172,0,,,,,,,,,,,,,,,,,,,,,,,,,,,,,,,,,,,,,,,,,,,,,,,,,,,,,,,,,,,369.31992326991167,369.31992326991167,369.31992326991167,369.31992326991167,369.31992326991167,369.31992326991167,s,1,0.4343746944796294,369.76994062622543,370.79503548238426,,,,,,,,,,,,,,,,,,,,,,,,,,,,,,,,,,,,,,,292869,2023-05-16_14h03.22.455,eb_02psyexp,2022.2.4,120.01688179535188,
173,0,173,0,,,,,,,,,,,,,,,,,,,,,,,,,,,,,,,,,,,,,,,,,,,,,,,,,,,,,,,,,,,370.79503548238426,370.79503548238426,370.79503548238426,370.79503548238426,370.79503548238426,370.79503548238426,l,1,0.4312885857652873,371.2367329628905,372.2534976802999,,,,,,,,,,,,,,,,,,,,,,,,,,,,,,,,,,,,,,,292869,2023-05-16_14h03.22.455,eb_02psyexp,2022.2.4,120.01688179535188,
174,0,174,0,,,,,,,,,,,,,,,,,,,,,,,,,,,,,,,,,,,,,,,,,,,,,,,,,,,,,,,,,,,372.2534976802999,372.2534976802999,372.2534976802999,372.2534976802999,372.2534976802999,372.2534976802999,s,1,0.4448452474316582,372.7118660029955,373.73695965181105,,,,,,,,,,,,,,,,,,,,,,,,,,,,,,,,,,,,,,,292869,2023-05-16_14h03.22.455,eb_02psyexp,2022.2.4,120.01688179535188,
175,0,175,0,,,,,,,,,,,,,,,,,,,,,,,,,,,,,,,,,,,,,,,,,,,,,,,,,,,,,,,,,,,373.73695965181105,373.73695965181105,373.73695965181105,373.73695965181105,373.73695965181105,373.73695965181105,l,1,0.4494243033695966,374.19532223942224,375.22875508246943,,,,,,,,,,,,,,,,,,,,,,,,,,,,,,,,,,,,,,,292869,2023-05-16_14h03.22.455,eb_02psyexp,2022.2.4,120.01688179535188,
176,0,176,0,,,,,,,,,,,,,,,,,,,,,,,,,,,,,,,,,,,,,,,,,,,,,,,,,,,,,,,,,,,375.22875508246943,375.22875508246943,375.22875508246943,375.22875508246943,375.22875508246943,375.22875508246943,s,1,0.7256494347238913,375.97046886279713,376.9955498338677,,,,,,,,,,,,,,,,,,,,,,,,,,,,,,,,,,,,,,,292869,2023-05-16_14h03.22.455,eb_02psyexp,2022.2.4,120.01688179535188,
177,0,177,0,,,,,,,,,,,,,,,,,,,,,,,,,,,,,,,,,,,,,,,,,,,,,,,,,,,,,,,,,,,376.9955498338677,376.9955498338677,376.9955498338677,376.9955498338677,376.9955498338677,376.9955498338677,s,1,0.6069033776875585,377.6122846681392,378.64571690757293,,,,,,,,,,,,,,,,,,,,,,,,,,,,,,,,,,,,,,,292869,2023-05-16_14h03.22.455,eb_02psyexp,2022.2.4,120.01688179535188,
178,0,178,0,,,,,,,,,,,,,,,,,,,,,,,,,,,,,,,,,,,,,,,,,,,,,,,,,,,,,,,,,,,378.64571690757293,378.64571690757293,378.64571690757293,378.64571690757293,378.64571690757293,378.64571690757293,s,1,0.41274899372365326,379.0707420364488,380.09583930741064,,,,,,,,,,,,,,,,,,,,,,,,,,,,,,,,,,,,,,,292869,2023-05-16_14h03.22.455,eb_02psyexp,2022.2.4,120.01688179535188,
179,0,179,0,,,,,,,,,,,,,,,,,,,,,,,,,,,,,,,,,,,,,,,,,,,,,,,,,,,,,,,,,,,380.09583930741064,380.09583930741064,380.09583930741064,380.09583930741064,380.09583930741064,380.09583930741064,s,1,0.41066079935990274,380.5208674549358,381.5459677444305,,,,,,,,,,,,,,,,,,,,,,,,,,,,,,,,,,,,,,,292869,2023-05-16_14h03.22.455,eb_02psyexp,2022.2.4,120.01688179535188,
180,0,180,0,,,,,,,,,,,,,,,,,,,,,,,,,,,,,,,,,,,,,,,,,,,,,,,,,,,,,,,,,,,381.5459677444305,381.5459677444305,381.5459677444305,381.5459677444305,381.5459677444305,381.5459677444305,s,1,0.39155373035464436,381.9460009478498,382.97943982784636,,,,,,,,,,,,,,,,,,,,,,,,,,,,,,,,,,,,,,,292869,2023-05-16_14h03.22.455,eb_02psyexp,2022.2.4,120.01688179535188,
181,0,181,0,,,,,,,,,,,,,,,,,,,,,,,,,,,,,,,,,,,,,,,,,,,,,,,,,,,,,,,,,,,382.97943982784636,382.97943982784636,382.97943982784636,382.97943982784636,382.97943982784636,382.97943982784636,l,1,0.47812022315338254,383.4711256871233,384.49622416554485,,,,,,,,,,,,,,,,,,,,,,,,,,,,,,,,,,,,,,,292869,2023-05-16_14h03.22.455,eb_02psyexp,2022.2.4,120.01688179535188,
182,0,182,0,,,,,,,,,,,,,,,,,,,,,,,,,,,,,,,,,,,,,,,,,,,,,,,,,,,,,,,,,,,384.49622416554485,384.49622416554485,384.49622416554485,384.49622416554485,384.49622416554485,384.49622416554485,l,1,0.4653586329659447,384.97125397308264,385.9963515459094,,,,,,,,,,,,,,,,,,,,,,,,,,,,,,,,,,,,,,,292869,2023-05-16_14h03.22.455,eb_02psyexp,2022.2.4,120.01688179535188,
183,0,183,0,,,,,,,,,,,,,,,,,,,,,,,,,,,,,,,,,,,,,,,,,,,,,,,,,,,,,,,,,,,385.9963515459094,385.9963515459094,385.9963515459094,385.9963515459094,385.9963515459094,385.9963515459094,s,1,1.893290571984835,387.90483985375613,388.938276620931,,,,,,,,,,,,,,,,,,,,,,,,,,,,,,,,,,,,,,,292869,2023-05-16_14h03.22.455,eb_02psyexp,2022.2.4,120.01688179535188,
184,0,184,0,,,,,,,,,,,,,,,,,,,,,,,,,,,,,,,,,,,,,,,,,,,,,,,,,,,,,,,,,,,388.938276620931,388.938276620931,388.938276620931,388.938276620931,388.938276620931,388.938276620931,s,1,0.967410001787357,389.9216836558189,390.946789982263,,,,,,,,,,,,,,,,,,,,,,,,,,,,,,,,,,,,,,,292869,2023-05-16_14h03.22.455,eb_02psyexp,2022.2.4,120.01688179535188,
185,0,185,0,,,,,,,,,,,,,,,,,,,,,,,,,,,,,,,,,,,,,,,,,,,,,,,,,,,,,,,,,,,390.946789982263,390.946789982263,390.946789982263,390.946789982263,390.946789982263,390.946789982263,l,1,0.8229388268664479,391.78017875528894,392.81362397409976,,,,,,,,,,,,,,,,,,,,,,,,,,,,,,,,,,,,,,,292869,2023-05-16_14h03.22.455,eb_02psyexp,2022.2.4,120.01688179535188,
186,0,186,0,,,,,,,,,,,,,,,,,,,,,,,,,,,,,,,,,,,,,,,,,,,,,,,,,,,,,,,,,,,392.81362397409976,392.81362397409976,392.81362397409976,392.81362397409976,392.81362397409976,392.81362397409976,s,1,0.8361371931387112,393.6636724208947,394.6887950472301,,,,,,,,,,,,,,,,,,,,,,,,,,,,,,,,,,,,,,,292869,2023-05-16_14h03.22.455,eb_02psyexp,2022.2.4,120.01688179535188,
187,0,187,0,,,,,,,,,,,,,,,,,,,,,,,,,,,,,,,,,,,,,,,,,,,,,,,,,,,,,,,,,,,394.6887950472301,394.6887950472301,394.6887950472301,394.6887950472301,394.6887950472301,394.6887950472301,s,1,1.377017567283474,396.0805648206733,397.1056469992036,,,,,,,,,,,,,,,,,,,,,,,,,,,,,,,,,,,,,,,292869,2023-05-16_14h03.22.455,eb_02psyexp,2022.2.4,120.01688179535188,
188,0,188,0,,,,,,,,,,,,,,,,,,,,,,,,,,,,,,,,,,,,,,,,,,,,,,,,,,,,,,,,,,,397.1056469992036,397.1056469992036,397.1056469992036,397.1056469992036,397.1056469992036,397.1056469992036,l,1,0.8312170475255698,397.94737889047246,398.97248400957324,,,,,,,,,,,,,,,,,,,,,,,,,,,,,,,,,,,,,,,292869,2023-05-16_14h03.22.455,eb_02psyexp,2022.2.4,120.01688179535188,
189,0,189,0,,,,,,,,,,,,,,,,,,,,,,,,,,,,,,,,,,,,,,,,,,,,,,,,,,,,,,,,,,,398.97248400957324,398.97248400957324,398.97248400957324,398.97248400957324,398.97248400957324,398.97248400957324,l,1,0.9084422060986981,399.8892112976173,400.91432426474057,,,,,,,,,,,,,,,,,,,,,,,,,,,,,,,,,,,,,,,292869,2023-05-16_14h03.22.455,eb_02psyexp,2022.2.4,120.01688179535188,
190,0,190,0,,,,,,,,,,,,,,,,,,,,,,,,,,,,,,,,,,,,,,,,,,,,,,,,,,,,,,,,,,,400.91432426474057,400.91432426474057,400.91432426474057,400.91432426474057,400.91432426474057,400.91432426474057,l,1,0.7906330896075815,401.71439580316655,402.74780359258875,,,,,,,,,,,,,,,,,,,,,,,,,,,,,,,,,,,,,,,292869,2023-05-16_14h03.22.455,eb_02psyexp,2022.2.4,120.01688179535188,
191,0,191,0,,,,,,,,,,,,,,,,,,,,,,,,,,,,,,,,,,,,,,,,,,,,,,,,,,,,,,,,,,,402.74780359258875,402.74780359258875,402.74780359258875,402.74780359258875,402.74780359258875,402.74780359258875,l,1,1.1891781752929091,403.9478950530756,404.9813179350458,,,,,,,,,,,,,,,,,,,,,,,,,,,,,,,,,,,,,,,292869,2023-05-16_14h03.22.455,eb_02psyexp,2022.2.4,120.01688179535188,
192,0,192,0,,,,,,,,,,,,,,,,,,,,,,,,,,,,,,,,,,,,,,,,,,,,,,,,,,,,,,,,,,,404.9813179350458,404.9813179350458,404.9813179350458,404.9813179350458,404.9813179350458,404.9813179350458,s,1,1.8677245287690312,406.86481884506065,407.89825410291087,,,,,,,,,,,,,,,,,,,,,,,,,,,,,,,,,,,,,,,292869,2023-05-16_14h03.22.455,eb_02psyexp,2022.2.4,120.01688179535188,
193,0,193,0,,,,,,,,,,,,,,,,,,,,,,,,,,,,,,,,,,,,,,,,,,,,,,,,,,,,,,,,,,,407.89825410291087,407.89825410291087,407.89825410291087,407.89825410291087,407.89825410291087,407.89825410291087,l,1,1.5188191857887432,409.43171562161297,410.46517140523065,,,,,,,,,,,,,,,,,,,,,,,,,,,,,,,,,,,,,,,292869,2023-05-16_14h03.22.455,eb_02psyexp,2022.2.4,120.01688179535188,
194,0,194,0,,,,,,,,,,,,,,,,,,,,,,,,,,,,,,,,,,,,,,,,,,,,,,,,,,,,,,,,,,,410.46517140523065,410.46517140523065,410.46517140523065,410.46517140523065,410.46517140523065,410.46517140523065,s,1,1.023957870551385,411.49856712075416,412.5236523178173,,,,,,,,,,,,,,,,,,,,,,,,,,,,,,,,,,,,,,,292869,2023-05-16_14h03.22.455,eb_02psyexp,2022.2.4,120.01688179535188,
195,0,195,0,,,,,,,,,,,,,,,,,,,,,,,,,,,,,,,,,,,,,,,,,,,,,,,,,,,,,,,,,,,412.5236523178173,412.5236523178173,412.5236523178173,412.5236523178173,412.5236523178173,412.5236523178173,l,1,1.564535791403614,414.09879320603795,415.13223299151286,,,,,,,,,,,,,,,,,,,,,,,,,,,,,,,,,,,,,,,292869,2023-05-16_14h03.22.455,eb_02psyexp,2022.2.4,120.01688179535188,
196,0,196,0,,,,,,,,,,,,,,,,,,,,,,,,,,,,,,,,,,,,,,,,,,,,,,,,,,,,,,,,,,,415.13223299151286,415.13223299151286,415.13223299151286,415.13223299151286,415.13223299151286,415.13223299151286,s,1,0.8119828997878358,415.95728468324523,416.990704244934,,,,,,,,,,,,,,,,,,,,,,,,,,,,,,,,,,,,,,,292869,2023-05-16_14h03.22.455,eb_02psyexp,2022.2.4,120.01688179535188,
197,0,197,0,,,,,,,,,,,,,,,,,,,,,,,,,,,,,,,,,,,,,,,,,,,,,,,,,,,,,,,,,,,416.990704244934,416.990704244934,416.990704244934,416.990704244934,416.990704244934,416.990704244934,l,1,0.7055562236346304,417.7074517569272,418.7325333317276,,,,,,,,,,,,,,,,,,,,,,,,,,,,,,,,,,,,,,,292869,2023-05-16_14h03.22.455,eb_02psyexp,2022.2.4,120.01688179535188,
198,0,198,0,,,,,,,,,,,,,,,,,,,,,,,,,,,,,,,,,,,,,,,,,,,,,,,,,,,,,,,,,,,418.7325333317276,418.7325333317276,418.7325333317276,418.7325333317276,418.7325333317276,418.7325333317276,l,1,1.1317715448094532,419.8743056708481,420.90769927343354,,,,,,,,,,,,,,,,,,,,,,,,,,,,,,,,,,,,,,,292869,2023-05-16_14h03.22.455,eb_02psyexp,2022.2.4,120.01688179535188,
199,0,199,0,,,,,0,0,0,0,,,,,,,,,,,,,,,,,,,,,,,,,,,,,,,,,,,,,,,,,,,,,,,,,,,420.90769927343354,420.90769927343354,420.90769927343354,420.90769927343354,420.90769927343354,420.90769927343354,s,1,1.172657352173701,422.0911349840462,423.09120018349495,423.09120018349495,423.09120018349495,space,25.947662106365897,,,,,,,,,,,,,,,,,,,,,,,,,,,,,,,,,,,292869,2023-05-16_14h03.22.455,eb_02psyexp,2022.2.4,120.01688179535188,
199,0,199,0,,,,,,,,,,,,,,,,,,,,,,,,,,,,,,,,,,,,,,,,,,,,,,,,,,,,,,,,,,,,,,,,,,,,,,,,,,,,,,,,,,,,,,,,,,,,,,,,,,,,,,,,,,,,292869,2023-05-16_14h03.22.455,eb_02psyexp,2022.2.4,120.01688179535188,
200,0,200,0,,,,,,,,,,,,,,,,,,,,,,,,,,,,,,,,,,,,,,,,,,,,,,,,,,,,,,,,,,,449.0768067953177,449.0768067953177,449.0768067953177,449.0768067953177,449.0768067953177,449.0768067953177,l,1,2.938081707339734,452.02703876653686,453.0521668262081,,,,,,,,,,,,,,,,,,,,,,,,,,,,,,,,,,,,,,,292869,2023-05-16_14h03.22.455,eb_02psyexp,2022.2.4,120.01688179535188,
201,0,201,0,,,,,,,,,,,,,,,,,,,,,,,,,,,,,,,,,,,,,,,,,,,,,,,,,,,,,,,,,,,453.0521668262081,453.0521668262081,453.0521668262081,453.0521668262081,453.0521668262081,453.0521668262081,s,1,0.8348051316570491,453.90222915809136,454.9273167698411,,,,,,,,,,,,,,,,,,,,,,,,,,,,,,,,,,,,,,,292869,2023-05-16_14h03.22.455,eb_02psyexp,2022.2.4,120.01688179535188,
202,0,202,0,,,,,,,,,,,,,,,,,,,,,,,,,,,,,,,,,,,,,,,,,,,,,,,,,,,,,,,,,,,454.9273167698411,454.9273167698411,454.9273167698411,454.9273167698411,454.9273167698411,454.9273167698411,l,1,2.5757621753728017,457.5192045663716,458.5443087798776,,,,,,,,,,,,,,,,,,,,,,,,,,,,,,,,,,,,,,,292869,2023-05-16_14h03.22.455,eb_02psyexp,2022.2.4,120.01688179535188,
203,0,203,0,,,,,,,,,,,,,,,,,,,,,,,,,,,,,,,,,,,,,,,,,,,,,,,,,,,,,,,,,,,458.5443087798776,458.5443087798776,458.5443087798776,458.5443087798776,458.5443087798776,458.5443087798776,s,1,0.3738255094503984,458.92766419856343,459.95275663991924,,,,,,,,,,,,,,,,,,,,,,,,,,,,,,,,,,,,,,,292869,2023-05-16_14h03.22.455,eb_02psyexp,2022.2.4,120.01688179535188,
204,0,204,0,,,,,,,,,,,,,,,,,,,,,,,,,,,,,,,,,,,,,,,,,,,,,,,,,,,,,,,,,,,459.95275663991924,459.95275663991924,459.95275663991924,459.95275663991924,459.95275663991924,459.95275663991924,l,1,0.46935330831911415,460.43614254542626,461.4612256294349,,,,,,,,,,,,,,,,,,,,,,,,,,,,,,,,,,,,,,,292869,2023-05-16_14h03.22.455,eb_02psyexp,2022.2.4,120.01688179535188,
205,0,205,0,,,,,,,,,,,,,,,,,,,,,,,,,,,,,,,,,,,,,,,,,,,,,,,,,,,,,,,,,,,461.4612256294349,461.4612256294349,461.4612256294349,461.4612256294349,461.4612256294349,461.4612256294349,l,1,0.5289142380934209,462.0029306561919,463.02803818997927,,,,,,,,,,,,,,,,,,,,,,,,,,,,,,,,,,,,,,,292869,2023-05-16_14h03.22.455,eb_02psyexp,2022.2.4,120.01688179535188,
206,0,206,0,,,,,,,,,,,,,,,,,,,,,,,,,,,,,,,,,,,,,,,,,,,,,,,,,,,,,,,,,,,463.02803818997927,463.02803818997927,463.02803818997927,463.02803818997927,463.02803818997927,463.02803818997927,s,1,0.4101657662540674,463.45305577269755,464.4864883138798,,,,,,,,,,,,,,,,,,,,,,,,,,,,,,,,,,,,,,,292869,2023-05-16_14h03.22.455,eb_02psyexp,2022.2.4,120.01688179535188,
207,0,207,0,,,,,,,,,,,,,,,,,,,,,,,,,,,,,,,,,,,,,,,,,,,,,,,,,,,,,,,,,,,464.4864883138798,464.4864883138798,464.4864883138798,464.4864883138798,464.4864883138798,464.4864883138798,s,1,0.47971368639264256,464.9782064710744,466.00329951616004,,,,,,,,,,,,,,,,,,,,,,,,,,,,,,,,,,,,,,,292869,2023-05-16_14h03.22.455,eb_02psyexp,2022.2.4,120.01688179535188,
208,0,208,0,,,,,,,,,,,,,,,,,,,,,,,,,,,,,,,,,,,,,,,,,,,,,,,,,,,,,,,,,,,466.00329951616004,466.00329951616004,466.00329951616004,466.00329951616004,466.00329951616004,466.00329951616004,s,1,0.5469295178772882,466.5616747813765,467.58675997843966,,,,,,,,,,,,,,,,,,,,,,,,,,,,,,,,,,,,,,,292869,2023-05-16_14h03.22.455,eb_02psyexp,2022.2.4,120.01688179535188,
209,0,209,0,,,,,,,,,,,,,,,,,,,,,,,,,,,,,,,,,,,,,,,,,,,,,,,,,,,,,,,,,,,467.58675997843966,467.58675997843966,467.58675997843966,467.58675997843966,467.58675997843966,467.58675997843966,l,1,0.45950003736652434,468.06177439168096,469.09522232727613,,,,,,,,,,,,,,,,,,,,,,,,,,,,,,,,,,,,,,,292869,2023-05-16_14h03.22.455,eb_02psyexp,2022.2.4,120.01688179535188,
210,0,210,0,,,,,,,,,,,,,,,,,,,,,,,,,,,,,,,,,,,,,,,,,,,,,,,,,,,,,,,,,,,469.09522232727613,469.09522232727613,469.09522232727613,469.09522232727613,469.09522232727613,469.09522232727613,l,1,0.47107052977662534,469.57858649955597,470.6036997685442,,,,,,,,,,,,,,,,,,,,,,,,,,,,,,,,,,,,,,,292869,2023-05-16_14h03.22.455,eb_02psyexp,2022.2.4,120.01688179535188,
211,0,211,0,,,,,,,,,,,,,,,,,,,,,,,,,,,,,,,,,,,,,,,,,,,,,,,,,,,,,,,,,,,470.6036997685442,470.6036997685442,470.6036997685442,470.6036997685442,470.6036997685442,470.6036997685442,l,1,0.4186356612481177,471.03705594176427,472.07049301068764,,,,,,,,,,,,,,,,,,,,,,,,,,,,,,,,,,,,,,,292869,2023-05-16_14h03.22.455,eb_02psyexp,2022.2.4,120.01688179535188,
212,0,212,0,,,,,,,,,,,,,,,,,,,,,,,,,,,,,,,,,,,,,,,,,,,,,,,,,,,,,,,,,,,472.07049301068764,472.07049301068764,472.07049301068764,472.07049301068764,472.07049301068764,472.07049301068764,l,1,0.5358619065955281,472.62052727059927,473.6539640376577,,,,,,,,,,,,,,,,,,,,,,,,,,,,,,,,,,,,,,,292869,2023-05-16_14h03.22.455,eb_02psyexp,2022.2.4,120.01688179535188,
213,0,213,0,,,,,,,,,,,,,,,,,,,,,,,,,,,,,,,,,,,,,,,,,,,,,,,,,,,,,,,,,,,473.6539640376577,473.6539640376577,473.6539640376577,473.6539640376577,473.6539640376577,473.6539640376577,s,1,0.47149945772252977,474.1373164377874,475.1707516956376,,,,,,,,,,,,,,,,,,,,,,,,,,,,,,,,,,,,,,,292869,2023-05-16_14h03.22.455,eb_02psyexp,2022.2.4,120.01688179535188,
214,0,214,0,,,,,,,,,,,,,,,,,,,,,,,,,,,,,,,,,,,,,,,,,,,,,,,,,,,,,,,,,,,475.1707516956376,475.1707516956376,475.1707516956376,475.1707516956376,475.1707516956376,475.1707516956376,l,1,0.4106405754573643,475.59577803197317,476.6208746993216,,,,,,,,,,,,,,,,,,,,,,,,,,,,,,,,,,,,,,,292869,2023-05-16_14h03.22.455,eb_02psyexp,2022.2.4,120.01688179535188,
215,0,215,0,,,,,,,,,,,,,,,,,,,,,,,,,,,,,,,,,,,,,,,,,,,,,,,,,,,,,,,,,,,476.6208746993216,476.6208746993216,476.6208746993216,476.6208746993216,476.6208746993216,476.6208746993216,l,1,0.3925788110354915,477.0292567561846,478.0626687715994,,,,,,,,,,,,,,,,,,,,,,,,,,,,,,,,,,,,,,,292869,2023-05-16_14h03.22.455,eb_02psyexp,2022.2.4,120.01688179535188,
216,0,216,0,,,,,,,,,,,,,,,,,,,,,,,,,,,,,,,,,,,,,,,,,,,,,,,,,,,,,,,,,,,478.0626687715994,478.0626687715994,478.0626687715994,478.0626687715994,478.0626687715994,478.0626687715994,s,1,0.44680968357715756,478.5210401128279,479.5544995185919,,,,,,,,,,,,,,,,,,,,,,,,,,,,,,,,,,,,,,,292869,2023-05-16_14h03.22.455,eb_02psyexp,2022.2.4,120.01688179535188,
217,0,217,0,,,,,,,,,,,,,,,,,,,,,,,,,,,,,,,,,,,,,,,,,,,,,,,,,,,,,,,,,,,479.5544995185919,479.5544995185919,479.5544995185919,479.5544995185919,479.5544995185919,479.5544995185919,l,1,0.41899093810934573,479.98782550694887,481.0129227779107,,,,,,,,,,,,,,,,,,,,,,,,,,,,,,,,,,,,,,,292869,2023-05-16_14h03.22.455,eb_02psyexp,2022.2.4,120.01688179535188,
218,0,218,0,,,,,,,,,,,,,,,,,,,,,,,,,,,,,,,,,,,,,,,,,,,,,,,,,,,,,,,,,,,481.0129227779107,481.0129227779107,481.0129227779107,481.0129227779107,481.0129227779107,481.0129227779107,l,1,0.3846018360927701,481.4129644330824,482.43804630974773,,,,,,,,,,,,,,,,,,,,,,,,,,,,,,,,,,,,,,,292869,2023-05-16_14h03.22.455,eb_02psyexp,2022.2.4,120.01688179535188,
219,0,219,0,,,,,,,,,,,,,,,,,,,,,,,,,,,,,,,,,,,,,,,,,,,,,,,,,,,,,,,,,,,482.43804630974773,482.43804630974773,482.43804630974773,482.43804630974773,482.43804630974773,482.43804630974773,s,1,0.41549944563303143,482.86305996845476,483.8881859150715,,,,,,,,,,,,,,,,,,,,,,,,,,,,,,,,,,,,,,,292869,2023-05-16_14h03.22.455,eb_02psyexp,2022.2.4,120.01688179535188,
220,0,220,0,,,,,,,,,,,,,,,,,,,,,,,,,,,,,,,,,,,,,,,,,,,,,,,,,,,,,,,,,,,483.8881859150715,483.8881859150715,483.8881859150715,483.8881859150715,483.8881859150715,483.8881859150715,l,1,0.41341668472159654,484.31321617553476,485.34665445180144,,,,,,,,,,,,,,,,,,,,,,,,,,,,,,,,,,,,,,,292869,2023-05-16_14h03.22.455,eb_02psyexp,2022.2.4,120.01688179535188,
221,0,221,0,,,,,,,,,,,,,,,,,,,,,,,,,,,,,,,,,,,,,,,,,,,,,,,,,,,,,,,,,,,485.34665445180144,485.34665445180144,485.34665445180144,485.34665445180144,485.34665445180144,485.34665445180144,l,1,0.4189613568596542,485.77999281603843,486.80509310553316,,,,,,,,,,,,,,,,,,,,,,,,,,,,,,,,,,,,,,,292869,2023-05-16_14h03.22.455,eb_02psyexp,2022.2.4,120.01688179535188,
222,0,222,0,,,,,,,,,,,,,,,,,,,,,,,,,,,,,,,,,,,,,,,,,,,,,,,,,,,,,,,,,,,486.80509310553316,486.80509310553316,486.80509310553316,486.80509310553316,486.80509310553316,486.80509310553316,l,1,0.41658067039679736,487.23012728989124,488.2635556051973,,,,,,,,,,,,,,,,,,,,,,,,,,,,,,,,,,,,,,,292869,2023-05-16_14h03.22.455,eb_02psyexp,2022.2.4,120.01688179535188,
223,0,223,0,,,,,,,,,,,,,,,,,,,,,,,,,,,,,,,,,,,,,,,,,,,,,,,,,,,,,,,,,,,488.2635556051973,488.2635556051973,488.2635556051973,488.2635556051973,488.2635556051973,488.2635556051973,s,1,0.46212069410830736,488.73858571471646,489.7636992855696,,,,,,,,,,,,,,,,,,,,,,,,,,,,,,,,,,,,,,,292869,2023-05-16_14h03.22.455,eb_02psyexp,2022.2.4,120.01688179535188,
224,0,224,0,,,,,,,,,,,,,,,,,,,,,,,,,,,,,,,,,,,,,,,,,,,,,,,,,,,,,,,,,,,489.7636992855696,489.7636992855696,489.7636992855696,489.7636992855696,489.7636992855696,489.7636992855696,l,1,0.44102715398184955,490.21371664188337,491.2471452590544,,,,,,,,,,,,,,,,,,,,,,,,,,,,,,,,,,,,,,,292869,2023-05-16_14h03.22.455,eb_02psyexp,2022.2.4,120.01688179535188,
225,0,225,0,,,,,,,,,,,,,,,,,,,,,,,,,,,,,,,,,,,,,,,,,,,,,,,,,,,,,,,,,,,491.2471452590544,491.2471452590544,491.2471452590544,491.2471452590544,491.2471452590544,491.2471452590544,l,1,0.3976218095049262,491.65551252523437,492.6806019481737,,,,,,,,,,,,,,,,,,,,,,,,,,,,,,,,,,,,,,,292869,2023-05-16_14h03.22.455,eb_02psyexp,2022.2.4,120.01688179535188,
226,0,226,0,,,,,,,,,,,,,,,,,,,,,,,,,,,,,,,,,,,,,,,,,,,,,,,,,,,,,,,,,,,492.6806019481737,492.6806019481737,492.6806019481737,492.6806019481737,492.6806019481737,492.6806019481737,l,1,0.436160737532191,493.1306337933056,494.15573106426746,,,,,,,,,,,,,,,,,,,,,,,,,,,,,,,,,,,,,,,292869,2023-05-16_14h03.22.455,eb_02psyexp,2022.2.4,120.01688179535188,
227,0,227,0,,,,,,,,,,,,,,,,,,,,,,,,,,,,,,,,,,,,,,,,,,,,,,,,,,,,,,,,,,,494.15573106426746,494.15573106426746,494.15573106426746,494.15573106426746,494.15573106426746,494.15573106426746,l,1,0.49707817868329585,494.6640998397488,495.68919922364876,,,,,,,,,,,,,,,,,,,,,,,,,,,,,,,,,,,,,,,292869,2023-05-16_14h03.22.455,eb_02psyexp,2022.2.4,120.01688179535188,
228,0,228,0,,,,,,,,,,,,,,,,,,,,,,,,,,,,,,,,,,,,,,,,,,,,,,,,,,,,,,,,,,,495.68919922364876,495.68919922364876,495.68919922364876,495.68919922364876,495.68919922364876,495.68919922364876,s,1,0.45162689860444516,496.15591338137165,497.180992843234,,,,,,,,,,,,,,,,,,,,,,,,,,,,,,,,,,,,,,,292869,2023-05-16_14h03.22.455,eb_02psyexp,2022.2.4,120.01688179535188,
229,0,229,0,,,,,,,,,,,,,,,,,,,,,,,,,,,,,,,,,,,,,,,,,,,,,,,,,,,,,,,,,,,497.180992843234,497.180992843234,497.180992843234,497.180992843234,497.180992843234,497.180992843234,l,1,0.41587645560503006,497.60604664788116,498.6394550410332,,,,,,,,,,,,,,,,,,,,,,,,,,,,,,,,,,,,,,,292869,2023-05-16_14h03.22.455,eb_02psyexp,2022.2.4,120.01688179535188,
230,0,230,0,,,,,,,,,,,,,,,,,,,,,,,,,,,,,,,,,,,,,,,,,,,,,,,,,,,,,,,,,,,498.6394550410332,498.6394550410332,498.6394550410332,498.6394550410332,498.6394550410332,498.6394550410332,l,1,0.4294497190276161,499.08114769193344,500.1062470758334,,,,,,,,,,,,,,,,,,,,,,,,,,,,,,,,,,,,,,,292869,2023-05-16_14h03.22.455,eb_02psyexp,2022.2.4,120.01688179535188,
231,0,231,0,,,,,,,,,,,,,,,,,,,,,,,,,,,,,,,,,,,,,,,,,,,,,,,,,,,,,,,,,,,500.1062470758334,500.1062470758334,500.1062470758334,500.1062470758334,500.1062470758334,500.1062470758334,l,1,0.2986779805505648,500.41459894774016,501.4480354130501,,,,,,,,,,,,,,,,,,,,,,,,,,,,,,,,,,,,,,,292869,2023-05-16_14h03.22.455,eb_02psyexp,2022.2.4,120.01688179535188,
232,0,232,0,,,,,,,,,,,,,,,,,,,,,,,,,,,,,,,,,,,,,,,,,,,,,,,,,,,,,,,,,,,501.4480354130501,501.4480354130501,501.4480354130501,501.4480354130501,501.4480354130501,501.4480354130501,s,1,0.5089055448770523,501.9730542030884,502.99815811484586,,,,,,,,,,,,,,,,,,,,,,,,,,,,,,,,,,,,,,,292869,2023-05-16_14h03.22.455,eb_02psyexp,2022.2.4,120.01688179535188,
233,0,233,0,,,,,,,,,,,,,,,,,,,,,,,,,,,,,,,,,,,,,,,,,,,,,,,,,,,,,,,,,,,502.99815811484586,502.99815811484586,502.99815811484586,502.99815811484586,502.99815811484586,502.99815811484586,s,1,0.5748047090601176,503.5815406999318,504.6150025204988,,,,,,,,,,,,,,,,,,,,,,,,,,,,,,,,,,,,,,,292869,2023-05-16_14h03.22.455,eb_02psyexp,2022.2.4,120.01688179535188,
234,0,234,0,,,,,,,,,,,,,,,,,,,,,,,,,,,,,,,,,,,,,,,,,,,,,,,,,,,,,,,,,,,504.6150025204988,504.6150025204988,504.6150025204988,504.6150025204988,504.6150025204988,504.6150025204988,s,1,0.4219931325642392,505.0483312254073,506.08176678512245,,,,,,,,,,,,,,,,,,,,,,,,,,,,,,,,,,,,,,,292869,2023-05-16_14h03.22.455,eb_02psyexp,2022.2.4,120.01688179535188,
235,0,235,0,,,,,,,,,,,,,,,,,,,,,,,,,,,,,,,,,,,,,,,,,,,,,,,,,,,,,,,,,,,506.08176678512245,506.08176678512245,506.08176678512245,506.08176678512245,506.08176678512245,506.08176678512245,l,1,0.41824506816919893,506.51512959913816,507.5485594236525,,,,,,,,,,,,,,,,,,,,,,,,,,,,,,,,,,,,,,,292869,2023-05-16_14h03.22.455,eb_02psyexp,2022.2.4,120.01688179535188,
236,0,236,0,,,,,,,,,,,,,,,,,,,,,,,,,,,,,,,,,,,,,,,,,,,,,,,,,,,,,,,,,,,507.5485594236525,507.5485594236525,507.5485594236525,507.5485594236525,507.5485594236525,507.5485594236525,l,0,0.40752035786863416,507.96525260270573,508.9903640606208,,,,,,,,,,,,,,,,,,,,,,,,,,,,,,,,,,,,,,,292869,2023-05-16_14h03.22.455,eb_02psyexp,2022.2.4,120.01688179535188,
237,0,237,0,,,,,,,,,,,,,,,,,,,,,,,,,,,,,,,,,,,,,,,,,,,,,,,,,,,,,,,,,,,508.9903640606208,508.9903640606208,508.9903640606208,508.9903640606208,508.9903640606208,508.9903640606208,s,1,0.5737210697261617,509.57372732739896,510.6071586611215,,,,,,,,,,,,,,,,,,,,,,,,,,,,,,,,,,,,,,,292869,2023-05-16_14h03.22.455,eb_02psyexp,2022.2.4,120.01688179535188,
238,0,238,0,,,,,,,,,,,,,,,,,,,,,,,,,,,,,,,,,,,,,,,,,,,,,,,,,,,,,,,,,,,510.6071586611215,510.6071586611215,510.6071586611215,510.6071586611215,510.6071586611215,510.6071586611215,s,1,0.46897720405831933,511.0905255500693,512.1239665430039,,,,,,,,,,,,,,,,,,,,,,,,,,,,,,,,,,,,,,,292869,2023-05-16_14h03.22.455,eb_02psyexp,2022.2.4,120.01688179535188,
239,0,239,0,,,,,,,,,,,,,,,,,,,,,,,,,,,,,,,,,,,,,,,,,,,,,,,,,,,,,,,,,,,512.1239665430039,512.1239665430039,512.1239665430039,512.1239665430039,512.1239665430039,512.1239665430039,l,1,0.4081961987540126,512.5406494592316,513.5740823022788,,,,,,,,,,,,,,,,,,,,,,,,,,,,,,,,,,,,,,,292869,2023-05-16_14h03.22.455,eb_02psyexp,2022.2.4,120.01688179535188,
240,0,240,0,,,,,,,,,,,,,,,,,,,,,,,,,,,,,,,,,,,,,,,,,,,,,,,,,,,,,,,,,,,513.5740823022788,513.5740823022788,513.5740823022788,513.5740823022788,513.5740823022788,513.5740823022788,s,1,0.4701076301280409,514.057465189253,515.08256155462,,,,,,,,,,,,,,,,,,,,,,,,,,,,,,,,,,,,,,,292869,2023-05-16_14h03.22.455,eb_02psyexp,2022.2.4,120.01688179535188,
241,0,241,0,,,,,,,,,,,,,,,,,,,,,,,,,,,,,,,,,,,,,,,,,,,,,,,,,,,,,,,,,,,515.08256155462,515.08256155462,515.08256155462,515.08256155462,515.08256155462,515.08256155462,l,1,0.42564701987430453,515.5242505833739,516.5493547968799,,,,,,,,,,,,,,,,,,,,,,,,,,,,,,,,,,,,,,,292869,2023-05-16_14h03.22.455,eb_02psyexp,2022.2.4,120.01688179535188,
242,0,242,0,,,,,,,,,,,,,,,,,,,,,,,,,,,,,,,,,,,,,,,,,,,,,,,,,,,,,,,,,,,516.5493547968799,516.5493547968799,516.5493547968799,516.5493547968799,516.5493547968799,516.5493547968799,l,1,0.4868995138676837,517.0493508728687,518.0828084675595,,,,,,,,,,,,,,,,,,,,,,,,,,,,,,,,,,,,,,,292869,2023-05-16_14h03.22.455,eb_02psyexp,2022.2.4,120.01688179535188,
243,0,243,0,,,,,,,,,,,,,,,,,,,,,,,,,,,,,,,,,,,,,,,,,,,,,,,,,,,,,,,,,,,518.0828084675595,518.0828084675595,518.0828084675595,518.0828084675595,518.0828084675595,518.0828084675595,l,1,0.5294759799726307,518.6245125886053,519.6579541852698,,,,,,,,,,,,,,,,,,,,,,,,,,,,,,,,,,,,,,,292869,2023-05-16_14h03.22.455,eb_02psyexp,2022.2.4,120.01688179535188,
244,0,244,0,,,,,,,,,,,,,,,,,,,,,,,,,,,,,,,,,,,,,,,,,,,,,,,,,,,,,,,,,,,519.6579541852698,519.6579541852698,519.6579541852698,519.6579541852698,519.6579541852698,519.6579541852698,s,1,0.5223420704714954,520.191313075251,521.2164085351396,,,,,,,,,,,,,,,,,,,,,,,,,,,,,,,,,,,,,,,292869,2023-05-16_14h03.22.455,eb_02psyexp,2022.2.4,120.01688179535188,
245,0,245,0,,,,,,,,,,,,,,,,,,,,,,,,,,,,,,,,,,,,,,,,,,,,,,,,,,,,,,,,,,,521.2164085351396,521.2164085351396,521.2164085351396,521.2164085351396,521.2164085351396,521.2164085351396,s,1,0.47497042443137616,521.6997778388904,522.733211587416,,,,,,,,,,,,,,,,,,,,,,,,,,,,,,,,,,,,,,,292869,2023-05-16_14h03.22.455,eb_02psyexp,2022.2.4,120.01688179535188,
246,0,246,0,,,,,,,,,,,,,,,,,,,,,,,,,,,,,,,,,,,,,,,,,,,,,,,,,,,,,,,,,,,522.733211587416,522.733211587416,522.733211587416,522.733211587416,522.733211587416,522.733211587416,s,1,0.39817268471233547,523.1415752314497,524.1666519766441,,,,,,,,,,,,,,,,,,,,,,,,,,,,,,,,,,,,,,,292869,2023-05-16_14h03.22.455,eb_02psyexp,2022.2.4,120.01688179535188,
247,0,247,0,,,,,,,,,,,,,,,,,,,,,,,,,,,,,,,,,,,,,,,,,,,,,,,,,,,,,,,,,,,524.1666519766441,524.1666519766441,524.1666519766441,524.1666519766441,524.1666519766441,524.1666519766441,s,1,0.3887598119908944,524.5666930282023,525.5917969398433,,,,,,,,,,,,,,,,,,,,,,,,,,,,,,,,,,,,,,,292869,2023-05-16_14h03.22.455,eb_02psyexp,2022.2.4,120.01688179535188,
248,0,248,0,,,,,,,,,,,,,,,,,,,,,,,,,,,,,,,,,,,,,,,,,,,,,,,,,,,,,,,,,,,525.5917969398433,525.5917969398433,525.5917969398433,525.5917969398433,525.5917969398433,525.5917969398433,l,1,0.3876547411782667,525.991820484167,527.0252644956345,,,,,,,,,,,,,,,,,,,,,,,,,,,,,,,,,,,,,,,292869,2023-05-16_14h03.22.455,eb_02psyexp,2022.2.4,120.01688179535188,
249,0,249,0,,,,,,,,,,,,,,,,,,,,,,,,,,,,,,,,,,,,,,,,,,,,,,,,,,,,,,,,,,,527.0252644956345,527.0252644956345,527.0252644956345,527.0252644956345,527.0252644956345,527.0252644956345,l,1,0.40221324120648205,527.4419546561548,528.4670467957621,,,,,,,,,,,,,,,,,,,,,,,,,,,,,,,,,,,,,,,292869,2023-05-16_14h03.22.455,eb_02psyexp,2022.2.4,120.01688179535188,
250,0,250,0,,,,,,,,,,,,,,,,,,,,,,,,,,,,,,,,,,,,,,,,,,,,,,,,,,,,,,,,,,,528.4670467957621,528.4670467957621,528.4670467957621,528.4670467957621,528.4670467957621,528.4670467957621,s,1,0.41645449737552553,528.8920719247544,529.9171701011946,,,,,,,,,,,,,,,,,,,,,,,,,,,,,,,,,,,,,,,292869,2023-05-16_14h03.22.455,eb_02psyexp,2022.2.4,120.01688179535188,
251,0,251,0,,,,,,,,,,,,,,,,,,,,,,,,,,,,,,,,,,,,,,,,,,,,,,,,,,,,,,,,,,,529.9171701011946,529.9171701011946,529.9171701011946,529.9171701011946,529.9171701011946,529.9171701011946,l,1,0.45434565644245595,530.3838679590262,531.4089652299881,,,,,,,,,,,,,,,,,,,,,,,,,,,,,,,,,,,,,,,292869,2023-05-16_14h03.22.455,eb_02psyexp,2022.2.4,120.01688179535188,
252,0,252,0,,,,,,,,,,,,,,,,,,,,,,,,,,,,,,,,,,,,,,,,,,,,,,,,,,,,,,,,,,,531.4089652299881,531.4089652299881,531.4089652299881,531.4089652299881,531.4089652299881,531.4089652299881,s,1,0.4105823185527697,531.8340084699448,532.8590924595483,,,,,,,,,,,,,,,,,,,,,,,,,,,,,,,,,,,,,,,292869,2023-05-16_14h03.22.455,eb_02psyexp,2022.2.4,120.01688179535188,
253,0,253,0,,,,,,,,,,,,,,,,,,,,,,,,,,,,,,,,,,,,,,,,,,,,,,,,,,,,,,,,,,,532.8590924595483,532.8590924595483,532.8590924595483,532.8590924595483,532.8590924595483,532.8590924595483,s,1,0.46448719361796975,533.334137661499,534.3592361398041,,,,,,,,,,,,,,,,,,,,,,,,,,,,,,,,,,,,,,,292869,2023-05-16_14h03.22.455,eb_02psyexp,2022.2.4,120.01688179535188,
254,0,254,0,,,,,,,,,,,,,,,,,,,,,,,,,,,,,,,,,,,,,,,,,,,,,,,,,,,,,,,,,,,534.3592361398041,534.3592361398041,534.3592361398041,534.3592361398041,534.3592361398041,534.3592361398041,s,1,0.4203945379704237,534.7925874835346,535.8260176099138,,,,,,,,,,,,,,,,,,,,,,,,,,,,,,,,,,,,,,,292869,2023-05-16_14h03.22.455,eb_02psyexp,2022.2.4,120.01688179535188,
255,0,255,0,,,,,,,,,,,,,,,,,,,,,,,,,,,,,,,,,,,,,,,,,,,,,,,,,,,,,,,,,,,535.8260176099138,535.8260176099138,535.8260176099138,535.8260176099138,535.8260176099138,535.8260176099138,l,1,0.4736754904733971,536.309390535811,537.3344808642287,,,,,,,,,,,,,,,,,,,,,,,,,,,,,,,,,,,,,,,292869,2023-05-16_14h03.22.455,eb_02psyexp,2022.2.4,120.01688179535188,
256,0,256,0,,,,,,,,,,,,,,,,,,,,,,,,,,,,,,,,,,,,,,,,,,,,,,,,,,,,,,,,,,,537.3344808642287,537.3344808642287,537.3344808642287,537.3344808642287,537.3344808642287,537.3344808642287,l,1,0.4761898961151019,537.8261806085939,538.926295613288,,,,,,,,,,,,,,,,,,,,,,,,,,,,,,,,,,,,,,,292869,2023-05-16_14h03.22.455,eb_02psyexp,2022.2.4,120.01688179535188,
257,0,257,0,,,,,,,,,,,,,,,,,,,,,,,,,,,,,,,,,,,,,,,,,,,,,,,,,,,,,,,,,,,538.926295613288,538.926295613288,538.926295613288,538.926295613288,538.926295613288,538.926295613288,l,1,0.5564130232669413,539.4929919617716,540.5180958734127,,,,,,,,,,,,,,,,,,,,,,,,,,,,,,,,,,,,,,,292869,2023-05-16_14h03.22.455,eb_02psyexp,2022.2.4,120.01688179535188,
258,0,258,0,,,,,,,,,,,,,,,,,,,,,,,,,,,,,,,,,,,,,,,,,,,,,,,,,,,,,,,,,,,540.5180958734127,540.5180958734127,540.5180958734127,540.5180958734127,540.5180958734127,540.5180958734127,l,1,0.4606365005020052,540.9931220589206,542.0182208390906,,,,,,,,,,,,,,,,,,,,,,,,,,,,,,,,,,,,,,,292869,2023-05-16_14h03.22.455,eb_02psyexp,2022.2.4,120.01688179535188,
259,0,259,0,,,,,,,,,,,,,,,,,,,,,,,,,,,,,,,,,,,,,,,,,,,,,,,,,,,,,,,,,,,542.0182208390906,542.0182208390906,542.0182208390906,542.0182208390906,542.0182208390906,542.0182208390906,s,1,0.4805365279316902,542.5099226963939,543.5350323432358,,,,,,,,,,,,,,,,,,,,,,,,,,,,,,,,,,,,,,,292869,2023-05-16_14h03.22.455,eb_02psyexp,2022.2.4,120.01688179535188,
260,0,260,0,,,,,,,,,,,,,,,,,,,,,,,,,,,,,,,,,,,,,,,,,,,,,,,,,,,,,,,,,,,543.5350323432358,543.5350323432358,543.5350323432358,543.5350323432358,543.5350323432358,543.5350323432358,l,1,0.5077564041130245,544.0517348796129,545.0768418097869,,,,,,,,,,,,,,,,,,,,,,,,,,,,,,,,,,,,,,,292869,2023-05-16_14h03.22.455,eb_02psyexp,2022.2.4,120.01688179535188,
261,0,261,0,,,,,,,,,,,,,,,,,,,,,,,,,,,,,,,,,,,,,,,,,,,,,,,,,,,,,,,,,,,545.0768418097869,545.0768418097869,545.0768418097869,545.0768418097869,545.0768418097869,545.0768418097869,l,1,0.397963201161474,545.4851758725708,546.5186105266912,,,,,,,,,,,,,,,,,,,,,,,,,,,,,,,,,,,,,,,292869,2023-05-16_14h03.22.455,eb_02psyexp,2022.2.4,120.01688179535188,
262,0,262,0,,,,,,,,,,,,,,,,,,,,,,,,,,,,,,,,,,,,,,,,,,,,,,,,,,,,,,,,,,,546.5186105266912,546.5186105266912,546.5186105266912,546.5186105266912,546.5186105266912,546.5186105266912,l,0,0.3242506644455716,546.851992357173,547.8770817801123,,,,,,,,,,,,,,,,,,,,,,,,,,,,,,,,,,,,,,,292869,2023-05-16_14h03.22.455,eb_02psyexp,2022.2.4,120.01688179535188,
263,0,263,0,,,,,,,,,,,,,,,,,,,,,,,,,,,,,,,,,,,,,,,,,,,,,,,,,,,,,,,,,,,547.8770817801123,547.8770817801123,547.8770817801123,547.8770817801123,547.8770817801123,547.8770817801123,l,1,0.509793585864827,548.4020999665372,549.4355322058545,,,,,,,,,,,,,,,,,,,,,,,,,,,,,,,,,,,,,,,292869,2023-05-16_14h03.22.455,eb_02psyexp,2022.2.4,120.01688179535188,
264,0,264,0,,,,,,,,,,,,,,,,,,,,,,,,,,,,,,,,,,,,,,,,,,,,,,,,,,,,,,,,,,,549.4355322058545,549.4355322058545,549.4355322058545,549.4355322058545,549.4355322058545,549.4355322058545,s,1,0.383441225043498,549.8272231965093,550.8606678117067,,,,,,,,,,,,,,,,,,,,,,,,,,,,,,,,,,,,,,,292869,2023-05-16_14h03.22.455,eb_02psyexp,2022.2.4,120.01688179535188,
265,0,265,0,,,,,,,,,,,,,,,,,,,,,,,,,,,,,,,,,,,,,,,,,,,,,,,,,,,,,,,,,,,550.8606678117067,550.8606678117067,550.8606678117067,550.8606678117067,550.8606678117067,550.8606678117067,l,1,0.35027853725478053,551.2273656694451,552.2524409054313,,,,,,,,,,,,,,,,,,,,,,,,,,,,,,,,,,,,,,,292869,2023-05-16_14h03.22.455,eb_02psyexp,2022.2.4,120.01688179535188,
266,0,266,0,,,,,,,,,,,,,,,,,,,,,,,,,,,,,,,,,,,,,,,,,,,,,,,,,,,,,,,,,,,552.2524409054313,552.2524409054313,552.2524409054313,552.2524409054313,552.2524409054313,552.2524409054313,l,1,0.4695320031605661,552.7358231886756,553.7692424484994,,,,,,,,,,,,,,,,,,,,,,,,,,,,,,,,,,,,,,,292869,2023-05-16_14h03.22.455,eb_02psyexp,2022.2.4,120.01688179535188,
267,0,267,0,,,,,,,,,,,,,,,,,,,,,,,,,,,,,,,,,,,,,,,,,,,,,,,,,,,,,,,,,,,553.7692424484994,553.7692424484994,553.7692424484994,553.7692424484994,553.7692424484994,553.7692424484994,l,1,0.3687577594537288,554.1525987726636,555.1776993640233,,,,,,,,,,,,,,,,,,,,,,,,,,,,,,,,,,,,,,,292869,2023-05-16_14h03.22.455,eb_02psyexp,2022.2.4,120.01688179535188,
268,0,268,0,,,,,,,,,,,,,,,,,,,,,,,,,,,,,,,,,,,,,,,,,,,,,,,,,,,,,,,,,,,555.1776993640233,555.1776993640233,555.1776993640233,555.1776993640233,555.1776993640233,555.1776993640233,l,1,0.3923442739760503,555.5860793079482,556.6111587698106,,,,,,,,,,,,,,,,,,,,,,,,,,,,,,,,,,,,,,,292869,2023-05-16_14h03.22.455,eb_02psyexp,2022.2.4,120.01688179535188,
269,0,269,0,,,,,,,,,,,,,,,,,,,,,,,,,,,,,,,,,,,,,,,,,,,,,,,,,,,,,,,,,,,556.6111587698106,556.6111587698106,556.6111587698106,556.6111587698106,556.6111587698106,556.6111587698106,s,1,0.3669119500555098,556.994534110534,558.0196087427903,,,,,,,,,,,,,,,,,,,,,,,,,,,,,,,,,,,,,,,292869,2023-05-16_14h03.22.455,eb_02psyexp,2022.2.4,120.01688179535188,
