trials.thisRepN,trials.thisTrialN,trials.thisN,trials.thisIndex,image_loop.thisRepN,image_loop.thisTrialN,image_loop.thisN,image_loop.thisIndex,break_loop.thisRepN,break_loop.thisTrialN,break_loop.thisN,break_loop.thisIndex,tool,correct_answer,distance matrix,tools,welcome_text.started,instructions_0_keypress.started,instructions_0_keypress.keys,instructions_0_keypress.rt,consent_image_0.started,consent0_key_resp.started,consent0_text.started,consent0_key_resp.keys,consent0_key_resp.rt,consent_image_1.started,consent1_key_resp.started,consent1_text.started,consent1_key_resp.keys,consent1_key_resp.rt,consent2_text.started,consent_image_2.started,consent2_key_resp.started,consent2_key_resp.keys,consent2_key_resp.rt,agree_button.started,disagree_button.started,consent_image_3.started,agree_button.numClicks,agree_button.timesOn,agree_button.timesOff,disagree_button.numClicks,disagree_button.timesOn,disagree_button.timesOff,instructions_text1.started,instructions1_key_resp.started,instr1_cnt_text.started,instructions1_key_resp.keys,instructions1_key_resp.rt,instructions_text2.started,instr2_cnt_text.started,instructions2_key_resp.started,instructions2_key_resp.keys,instructions2_key_resp.rt,instructions_text3.started,instructions3_key_resp.started,instr3_cnt_text.started,instructions3_key_resp.keys,instructions3_key_resp.rt,text_countdown.started,image.started,small_large_keyresp.started,task_question_text.started,smalleroption_text.started,largeroption_text.started,accuracy_score_text.started,small_large_keyresp.keys,small_large_keyresp.corr,small_large_keyresp.rt,fb_2.started,fb_2.stopped,break_text.started,break_key_resp.started,break_key_resp.keys,break_key_resp.rt,participant,date,expName,psychopyVersion,frameRate,
,,,,,,,,,,,,,,"[[0. 1. 1. 2. 2. 3. 4. 5. 5. 6. 6. 7.]
 [1. 0. 2. 1. 1. 2. 3. 4. 4. 5. 5. 6.]
 [1. 2. 0. 1. 1. 2. 3. 4. 4. 5. 5. 6.]
 [2. 1. 1. 0. 1. 1. 2. 3. 3. 4. 4. 5.]
 [2. 1. 1. 1. 0. 1. 2. 3. 3. 4. 4. 5.]
 [3. 2. 2. 1. 1. 0. 1. 2. 2. 3. 3. 4.]
 [4. 3. 3. 2. 2. 1. 0. 1. 1. 2. 2. 3.]
 [5. 4. 4. 3. 3. 2. 1. 0. 1. 1. 1. 2.]
 [5. 4. 4. 3. 3. 2. 1. 1. 0. 1. 1. 2.]
 [6. 5. 5. 4. 4. 3. 2. 1. 1. 0. 2. 1.]
 [6. 5. 5. 4. 4. 3. 2. 1. 1. 2. 0. 1.]
 [7. 6. 6. 5. 5. 4. 3. 2. 2. 1. 1. 0.]]",[ 7  8  5  3 10  1  0 11  9  2  4  6],12.418730632867664,12.418730632867664,return,6.977308968504076,,,,,,,,,,,,,,,,,,,,,,,,,,,,,,,,,,,,,,,,,,,,,,,,,,,,,,,,329270,2023-05-16_15h10.52.968,eb_02psyexp,2022.2.4,60.00648433679932,
,,,,,,,,,,,,,,,,,,,,19.418185198839637,19.418185198839637,19.418185198839637,space,2.6657653268630384,,,,,,,,,,,,,,,,,,,,,,,,,,,,,,,,,,,,,,,,,,,,,,,,,,,329270,2023-05-16_15h10.52.968,eb_02psyexp,2022.2.4,60.00648433679932,
,,,,,,,,,,,,,,,,,,,,,,,,,22.101316406668047,22.101316406668047,22.101316406668047,space,0.654657428705832,,,,,,,,,,,,,,,,,,,,,,,,,,,,,,,,,,,,,,,,,,,,,,329270,2023-05-16_15h10.52.968,eb_02psyexp,2022.2.4,60.00648433679932,
,,,,,,,,,,,,,,,,,,,,,,,,,,,,,,22.784589783506817,22.784589783506817,22.784589783506817,space,0.41136367128638085,,,,,,,,,,,,,,,,,,,,,,,,,,,,,,,,,,,,,,,,,329270,2023-05-16_15h10.52.968,eb_02psyexp,2022.2.4,60.00648433679932,
,,,,,,,,,,,,,,,,,,,,,,,,,,,,,,,,,,,23.21789047733182,23.21789047733182,23.21789047733182,1,[2.099367694972898],[2.0993719208054245],0,,,25.31775168897002,27.3006105118111,27.3006105118111,space,0.9913767592806835,,,,,,,,,,,,,,,,,,,,,,,,,,,329270,2023-05-16_15h10.52.968,eb_02psyexp,2022.2.4,60.00648433679932,
,,,,,,,,,,,,,,,,,,,,,,,,,,,,,,,,,,,,,,,,,,,,,,,,,28.317528323619626,31.300606587828952,31.300606587828952,space,15.566469169149059,,,,,,,,,,,,,,,,,,,,,,329270,2023-05-16_15h10.52.968,eb_02psyexp,2022.2.4,60.00648433679932,
,,,,,,,,,,,,,,,,,,,,,,,,,,,,,,,,,,,,,,,,,,,,,,,,,,,,,,46.899513667231076,49.88261789010721,49.88261789010721,space,5.85552324107266,,,,,,,,,,,,,,,,,329270,2023-05-16_15h10.52.968,eb_02psyexp,2022.2.4,60.00648433679932,
0,0,0,0,,,,,,,,,,,,,,,,,,,,,,,,,,,,,,,,,,,,,,,,,,,,,,,,,,,,,,,,55.78218105994165,60.83181857421005,60.83181857421005,60.83181857421005,60.83181857421005,60.83181857421005,60.83181857421005,s,1,3.5143734287266852,64.36485038445971,65.38151042058598,,,,,329270,2023-05-16_15h10.52.968,eb_02psyexp,2022.2.4,60.00648433679932,
1,0,1,0,,,,,,,,,,,,,,,,,,,,,,,,,,,,,,,,,,,,,,,,,,,,,,,,,,,,,,,,,65.38151042058598,65.38151042058598,65.38151042058598,65.38151042058598,65.38151042058598,65.38151042058598,s,1,3.027706226785085,68.43128195406462,69.46453350751835,,,,,329270,2023-05-16_15h10.52.968,eb_02psyexp,2022.2.4,60.00648433679932,
2,0,2,0,,,,,,,,,,,,,,,,,,,,,,,,,,,,,,,,,,,,,,,,,,,,,,,,,,,,,,,,,69.46453350751835,69.46453350751835,69.46453350751835,69.46453350751835,69.46453350751835,69.46453350751835,s,1,0.6726905580144376,70.16447235370288,71.18107081344351,,,,,329270,2023-05-16_15h10.52.968,eb_02psyexp,2022.2.4,60.00648433679932,
3,0,3,0,,,,,,,,,,,,,,,,,,,,,,,,,,,,,,,,,,,,,,,,,,,,,,,,,,,,,,,,,71.18107081344351,71.18107081344351,71.18107081344351,71.18107081344351,71.18107081344351,71.18107081344351,l,1,0.9241709571069805,72.130989586949,73.14762336255808,,,,,329270,2023-05-16_15h10.52.968,eb_02psyexp,2022.2.4,60.00648433679932,
4,0,4,0,,,,,,,,,,,,,,,,,,,,,,,,,,,,,,,,,,,,,,,,,,,,,,,,,,,,,,,,,73.14762336255808,73.14762336255808,73.14762336255808,73.14762336255808,73.14762336255808,73.14762336255808,s,1,1.0456726483389502,74.21419076244638,75.2474640487344,,,,,329270,2023-05-16_15h10.52.968,eb_02psyexp,2022.2.4,60.00648433679932,
5,0,5,0,,,,,,,,,,,,,,,,,,,,,,,,,,,,,,,,,,,,,,,,,,,,,,,,,,,,,,,,,75.2474640487344,75.2474640487344,75.2474640487344,75.2474640487344,75.2474640487344,75.2474640487344,s,1,0.8818063995131524,76.14739456400275,77.16398668500187,,,,,329270,2023-05-16_15h10.52.968,eb_02psyexp,2022.2.4,60.00648433679932,
6,0,6,0,,,,,,,,,,,,,,,,,,,,,,,,,,,,,,,,,,,,,,,,,,,,,,,,,,,,,,,,,77.16398668500187,77.16398668500187,77.16398668500187,77.16398668500187,77.16398668500187,77.16398668500187,s,1,0.9732745074725244,78.16388918904704,79.19715915505367,,,,,329270,2023-05-16_15h10.52.968,eb_02psyexp,2022.2.4,60.00648433679932,
7,0,7,0,,,,,,,,,,,,,,,,,,,,,,,,,,,,,,,,,,,,,,,,,,,,,,,,,,,,,,,,,79.19715915505367,79.19715915505367,79.19715915505367,79.19715915505367,79.19715915505367,79.19715915505367,s,1,0.6521225339238299,79.88044068170711,80.89705272448191,,,,,329270,2023-05-16_15h10.52.968,eb_02psyexp,2022.2.4,60.00648433679932,
8,0,8,0,,,,,,,,,,,,,,,,,,,,,,,,,,,,,,,,,,,,,,,,,,,,,,,,,,,,,,,,,80.89705272448191,80.89705272448191,80.89705272448191,80.89705272448191,80.89705272448191,80.89705272448191,l,1,0.6482371843303554,81.56336935149739,82.59691731678322,,,,,329270,2023-05-16_15h10.52.968,eb_02psyexp,2022.2.4,60.00648433679932,
9,0,9,0,,,,,,,,,,,,,,,,,,,,,,,,,,,,,,,,,,,,,,,,,,,,,,,,,,,,,,,,,82.59691731678322,82.59691731678322,82.59691731678322,82.59691731678322,82.59691731678322,82.59691731678322,s,1,0.6353831125306897,83.2635315630323,84.27980131350341,,,,,329270,2023-05-16_15h10.52.968,eb_02psyexp,2022.2.4,60.00648433679932,
10,0,10,0,,,,,,,,,,,,,,,,,,,,,,,,,,,,,,,,,,,,,,,,,,,,,,,,,,,,,,,,,84.27980131350341,84.27980131350341,84.27980131350341,84.27980131350341,84.27980131350341,84.27980131350341,s,1,1.0805040588165866,85.38004073699994,86.39665972221701,,,,,329270,2023-05-16_15h10.52.968,eb_02psyexp,2022.2.4,60.00648433679932,
11,0,11,0,,,,,,,,,,,,,,,,,,,,,,,,,,,,,,,,,,,,,,,,,,,,,,,,,,,,,,,,,86.39665972221701,86.39665972221701,86.39665972221701,86.39665972221701,86.39665972221701,86.39665972221701,l,1,0.8436559007677715,87.26325265818741,88.27954112306179,,,,,329270,2023-05-16_15h10.52.968,eb_02psyexp,2022.2.4,60.00648433679932,
12,0,12,0,,,,,,,,,,,,,,,,,,,,,,,,,,,,,,,,,,,,,,,,,,,,,,,,,,,,,,,,,88.27954112306179,88.27954112306179,88.27954112306179,88.27954112306179,88.27954112306179,88.27954112306179,s,1,0.792785349447513,89.09643979789689,90.14637855354522,,,,,329270,2023-05-16_15h10.52.968,eb_02psyexp,2022.2.4,60.00648433679932,
13,0,13,0,,,,,,,,,,,,,,,,,,,,,,,,,,,,,,,,,,,,,,,,,,,,,,,,,,,,,,,,,90.14637855354522,90.14637855354522,90.14637855354522,90.14637855354522,90.14637855354522,90.14637855354522,l,1,0.765967019717209,90.92964323725027,91.94625226156495,,,,,329270,2023-05-16_15h10.52.968,eb_02psyexp,2022.2.4,60.00648433679932,
14,0,14,0,,,,,,,,,,,,,,,,,,,,,,,,,,,,,,,,,,,,,,,,,,,,,,,,,,,,,,,,,91.94625226156495,91.94625226156495,91.94625226156495,91.94625226156495,91.94625226156495,91.94625226156495,s,1,0.6620991167728789,92.62952080888499,93.64613556826953,,,,,329270,2023-05-16_15h10.52.968,eb_02psyexp,2022.2.4,60.00648433679932,
15,0,15,0,,,,,,,,,,,,,,,,,,,,,,,,,,,,,,,,,,,,,,,,,,,,,,,,,,,,,,,,,93.64613556826953,93.64613556826953,93.64613556826953,93.64613556826953,93.64613556826953,93.64613556826953,l,1,0.6742272512201453,94.34606626463938,95.36267891110037,,,,,329270,2023-05-16_15h10.52.968,eb_02psyexp,2022.2.4,60.00648433679932,
16,0,16,0,,,,,,,,,,,,,,,,,,,,,,,,,,,,,,,,,,,,,,,,,,,,,,,,,,,,,,,,,95.36267891110037,95.36267891110037,95.36267891110037,95.36267891110037,95.36267891110037,95.36267891110037,l,1,0.9656894430081593,96.34591866240953,97.36252164983307,,,,,329270,2023-05-16_15h10.52.968,eb_02psyexp,2022.2.4,60.00648433679932,
17,0,17,0,,,,,,,,,,,,,,,,,,,,,,,,,,,,,,,,,,,,,,,,,,,,,,,,,,,,,,,,,97.36252164983307,97.36252164983307,97.36252164983307,97.36252164983307,97.36252164983307,97.36252164983307,l,1,0.6528620543103898,98.04583487022319,99.07908702736313,,,,,329270,2023-05-16_15h10.52.968,eb_02psyexp,2022.2.4,60.00648433679932,
18,0,18,0,,,,,,,,,,,,,,,,,,,,,,,,,,,,,,,,,,,,,,,,,,,,,,,,,,,,,,,,,99.07908702736313,99.07908702736313,99.07908702736313,99.07908702736313,99.07908702736313,99.07908702736313,s,1,0.58426082241931,99.69567679397005,100.71229698655952,,,,,329270,2023-05-16_15h10.52.968,eb_02psyexp,2022.2.4,60.00648433679932,
19,0,19,0,,,,,,,,,,,,,,,,,,,,,,,,,,,,,,,,,,,,,,,,,,,,,,,,,,,,,,,,,100.71229698655952,100.71229698655952,100.71229698655952,100.71229698655952,100.71229698655952,100.71229698655952,l,1,0.7751008511841064,101.51222804514691,102.52883888053475,,,,,329270,2023-05-16_15h10.52.968,eb_02psyexp,2022.2.4,60.00648433679932,
20,0,20,0,,,,,,,,,,,,,,,,,,,,,,,,,,,,,,,,,,,,,,,,,,,,,,,,,,,,,,,,,102.52883888053475,102.52883888053475,102.52883888053475,102.52883888053475,102.52883888053475,102.52883888053475,l,1,0.6225933337263996,103.17876018953393,104.19538792825188,,,,,329270,2023-05-16_15h10.52.968,eb_02psyexp,2022.2.4,60.00648433679932,
21,0,21,0,,,,,,,,,,,,,,,,,,,,,,,,,,,,,,,,,,,,,,,,,,,,,,,,,,,,,,,,,104.19538792825188,104.19538792825188,104.19538792825188,104.19538792825188,104.19538792825188,104.19538792825188,s,1,0.7800354141800199,104.99529846137739,106.0119292185409,,,,,329270,2023-05-16_15h10.52.968,eb_02psyexp,2022.2.4,60.00648433679932,
22,0,22,0,,,,,,,,,,,,,,,,,,,,,,,,,,,,,,,,,,,,,,,,,,,,,,,,,,,,,,,,,106.0119292185409,106.0119292185409,106.0119292185409,106.0119292185409,106.0119292185409,106.0119292185409,l,1,0.6194976108090486,106.66185897919058,107.67843661163351,,,,,329270,2023-05-16_15h10.52.968,eb_02psyexp,2022.2.4,60.00648433679932,
23,0,23,0,,,,,,,,,,,,,,,,,,,,,,,,,,,,,,,,,,,,,,,,,,,,,,,,,,,,,,,,,107.67843661163351,107.67843661163351,107.67843661163351,107.67843661163351,107.67843661163351,107.67843661163351,l,1,0.6649566839332692,108.36174228589516,109.39494252567238,,,,,329270,2023-05-16_15h10.52.968,eb_02psyexp,2022.2.4,60.00648433679932,
24,0,24,0,,,,,,,,,,,,,,,,,,,,,,,,,,,,,,,,,,,,,,,,,,,,,,,,,,,,,,,,,109.39494252567238,109.39494252567238,109.39494252567238,109.39494252567238,109.39494252567238,109.39494252567238,s,1,0.6044874597573653,110.0282735247456,111.04455323610455,,,,,329270,2023-05-16_15h10.52.968,eb_02psyexp,2022.2.4,60.00648433679932,
25,0,25,0,,,,,,,,,,,,,,,,,,,,,,,,,,,,,,,,,,,,,,,,,,,,,,,,,,,,,,,,,111.04455323610455,111.04455323610455,111.04455323610455,111.04455323610455,111.04455323610455,111.04455323610455,s,1,1.0429276693903375,112.11146292829653,113.12806319911033,,,,,329270,2023-05-16_15h10.52.968,eb_02psyexp,2022.2.4,60.00648433679932,
26,0,26,0,,,,,,,,,,,,,,,,,,,,,,,,,,,,,,,,,,,,,,,,,,,,,,,,,,,,,,,,,113.12806319911033,113.12806319911033,113.12806319911033,113.12806319911033,113.12806319911033,113.12806319911033,l,1,0.6544394965749234,113.81134593315073,114.82794499657757,,,,,329270,2023-05-16_15h10.52.968,eb_02psyexp,2022.2.4,60.00648433679932,
27,0,27,0,,,,,,,,,,,,,,,,,,,,,,,,,,,,,,,,,,,,,,,,,,,,,,,,,,,,,,,,,114.82794499657757,114.82794499657757,114.82794499657757,114.82794499657757,114.82794499657757,114.82794499657757,l,1,0.5865611836052267,115.44456042001548,116.46116280375281,,,,,329270,2023-05-16_15h10.52.968,eb_02psyexp,2022.2.4,60.00648433679932,
28,0,28,0,,,,,,,,,,,,,,,,,,,,,,,,,,,,,,,,,,,,,,,,,,,,,,,,,,,,,,,,,116.46116280375281,116.46116280375281,116.46116280375281,116.46116280375281,116.46116280375281,116.46116280375281,l,1,0.6493316745181801,117.12777222046861,118.14437671711494,,,,,329270,2023-05-16_15h10.52.968,eb_02psyexp,2022.2.4,60.00648433679932,
29,0,29,0,,,,,,,,,,,,,,,,,,,,,,,,,,,,,,,,,,,,,,,,,,,,,,,,,,,,,,,,,118.14437671711494,118.14437671711494,118.14437671711494,118.14437671711494,118.14437671711494,118.14437671711494,l,1,0.5821261741657509,118.74431248448673,119.77758546893892,,,,,329270,2023-05-16_15h10.52.968,eb_02psyexp,2022.2.4,60.00648433679932,
30,0,30,0,,,,,,,,,,,,,,,,,,,,,,,,,,,,,,,,,,,,,,,,,,,,,,,,,,,,,,,,,119.77758546893892,119.77758546893892,119.77758546893892,119.77758546893892,119.77758546893892,119.77758546893892,s,1,0.5809166810213355,120.37753995069943,121.39382841557381,,,,,329270,2023-05-16_15h10.52.968,eb_02psyexp,2022.2.4,60.00648433679932,
31,0,31,0,,,,,,,,,,,,,,,,,,,,,,,,,,,,,,,,,,,,,,,,,,,,,,,,,,,,,,,,,121.39382841557381,121.39382841557381,121.39382841557381,121.39382841557381,121.39382841557381,121.39382841557381,s,1,0.7086919199355179,122.12741091194039,123.14403472666163,,,,,329270,2023-05-16_15h10.52.968,eb_02psyexp,2022.2.4,60.00648433679932,
32,0,32,0,,,,,,,,,,,,,,,,,,,,,,,,,,,,,,,,,,,,,,,,,,,,,,,,,,,,,,,,,123.14403472666163,123.14403472666163,123.14403472666163,123.14403472666163,123.14403472666163,123.14403472666163,l,1,0.6064880888006883,123.77729599951999,124.79392736038426,,,,,329270,2023-05-16_15h10.52.968,eb_02psyexp,2022.2.4,60.00648433679932,
33,0,33,0,,,,,,,,,,,,,,,,,,,,,,,,,,,,,,,,,,,,,,,,,,,,,,,,,,,,,,,,,124.79392736038426,124.79392736038426,124.79392736038426,124.79392736038426,124.79392736038426,124.79392736038426,s,1,0.540606179041788,125.3604935528856,126.39379008124524,,,,,329270,2023-05-16_15h10.52.968,eb_02psyexp,2022.2.4,60.00648433679932,
34,0,34,0,,,,,,,,,,,,,,,,,,,,,,,,,,,,,,,,,,,,,,,,,,,,,,,,,,,,,,,,,126.39379008124524,126.39379008124524,126.39379008124524,126.39379008124524,126.39379008124524,126.39379008124524,s,1,1.2367574734380469,127.66030809927906,128.67693915829295,,,,,329270,2023-05-16_15h10.52.968,eb_02psyexp,2022.2.4,60.00648433679932,
35,0,35,0,,,,,,,,,,,,,,,,,,,,,,,,,,,,,,,,,,,,,,,,,,,,,,,,,,,,,,,,,128.67693915829295,128.67693915829295,128.67693915829295,128.67693915829295,128.67693915829295,128.67693915829295,s,1,0.5606266562244855,129.2602348112996,130.29349632564117,,,,,329270,2023-05-16_15h10.52.968,eb_02psyexp,2022.2.4,60.00648433679932,
36,0,36,0,,,,,,,,,,,,,,,,,,,,,,,,,,,,,,,,,,,,,,,,,,,,,,,,,,,,,,,,,130.29349632564117,130.29349632564117,130.29349632564117,130.29349632564117,130.29349632564117,130.29349632564117,s,1,0.6800585958844749,130.9934463401005,132.0267042322812,,,,,329270,2023-05-16_15h10.52.968,eb_02psyexp,2022.2.4,60.00648433679932,
37,0,37,0,,,,,,,,,,,,,,,,,,,,,,,,,,,,,,,,,,,,,,,,,,,,,,,,,,,,,,,,,132.0267042322812,132.0267042322812,132.0267042322812,132.0267042322812,132.0267042322812,132.0267042322812,l,1,1.0428775631007738,133.09328642257606,134.10992412218184,,,,,329270,2023-05-16_15h10.52.968,eb_02psyexp,2022.2.4,60.00648433679932,
38,0,38,0,,,,,,,,,,,,,,,,,,,,,,,,,,,,,,,,,,,,,,,,,,,,,,,,,,,,,,,,,134.10992412218184,134.10992412218184,134.10992412218184,134.10992412218184,134.10992412218184,134.10992412218184,s,1,1.2796668613736983,135.4097993394389,136.42643432243494,,,,,329270,2023-05-16_15h10.52.968,eb_02psyexp,2022.2.4,60.00648433679932,
39,0,39,0,,,,,,,,,,,,,,,,,,,,,,,,,,,,,,,,,,,,,,,,,,,,,,,,,,,,,,,,,136.42643432243494,136.42643432243494,136.42643432243494,136.42643432243494,136.42643432243494,136.42643432243494,l,1,0.8111716374696698,137.25966794628766,138.29290652039344,,,,,329270,2023-05-16_15h10.52.968,eb_02psyexp,2022.2.4,60.00648433679932,
40,0,40,0,,,,,,,,,,,,,,,,,,,,,,,,,,,,,,,,,,,,,,,,,,,,,,,,,,,,,,,,,138.29290652039344,138.29290652039344,138.29290652039344,138.29290652039344,138.29290652039344,138.29290652039344,s,1,0.6007059448602377,138.92622061613656,139.9594622086879,,,,,329270,2023-05-16_15h10.52.968,eb_02psyexp,2022.2.4,60.00648433679932,
41,0,41,0,,,,,,,,,,,,,,,,,,,,,,,,,,,,,,,,,,,,,,,,,,,,,,,,,,,,,,,,,139.9594622086879,139.9594622086879,139.9594622086879,139.9594622086879,139.9594622086879,139.9594622086879,l,1,0.8861882842174964,140.87608143537364,141.90936136225355,,,,,329270,2023-05-16_15h10.52.968,eb_02psyexp,2022.2.4,60.00648433679932,
42,0,42,0,,,,,,,,,,,,,,,,,,,,,,,,,,,,,,,,,,,,,,,,,,,,,,,,,,,,,,,,,141.90936136225355,141.90936136225355,141.90936136225355,141.90936136225355,141.90936136225355,141.90936136225355,s,1,0.5202500501618488,142.45922797692765,143.4759181975678,,,,,329270,2023-05-16_15h10.52.968,eb_02psyexp,2022.2.4,60.00648433679932,
43,0,43,0,,,,,,,,,,,,,,,,,,,,,,,,,,,,,,,,,,,,,,,,,,,,,,,,,,,,,,,,,143.4759181975678,143.4759181975678,143.4759181975678,143.4759181975678,143.4759181975678,143.4759181975678,s,1,0.6417408749839524,144.1425218792283,145.1757713197585,,,,,329270,2023-05-16_15h10.52.968,eb_02psyexp,2022.2.4,60.00648433679932,
44,0,44,0,,,,,,,,,,,,,,,,,,,,,,,,,,,,,,,,,,,,,,,,,,,,,,,,,,,,,,,,,145.1757713197585,145.1757713197585,145.1757713197585,145.1757713197585,145.1757713197585,145.1757713197585,s,1,0.8048597554588923,146.0090115842031,147.02529129556206,,,,,329270,2023-05-16_15h10.52.968,eb_02psyexp,2022.2.4,60.00648433679932,
45,0,45,0,,,,,,,,,,,,,,,,,,,,,,,,,,,,,,,,,,,,,,,,,,,,,,,,,,,,,,,,,147.02529129556206,147.02529129556206,147.02529129556206,147.02529129556206,147.02529129556206,147.02529129556206,s,1,0.5873773726489162,147.64226229248743,148.65887463709805,,,,,329270,2023-05-16_15h10.52.968,eb_02psyexp,2022.2.4,60.00648433679932,
46,0,46,0,,,,,,,,,,,,,,,,,,,,,,,,,,,,,,,,,,,,,,,,,,,,,,,,,,,,,,,,,148.65887463709805,148.65887463709805,148.65887463709805,148.65887463709805,148.65887463709805,148.65887463709805,l,1,1.169777753209928,149.85873077774886,150.87538809727994,,,,,329270,2023-05-16_15h10.52.968,eb_02psyexp,2022.2.4,60.00648433679932,
47,0,47,0,,,,,,,,,,,,,,,,,,,,,,,,,,,,,,,,,,,,,,,,,,,,,,,,,,,,,,,,,150.87538809727994,150.87538809727994,150.87538809727994,150.87538809727994,150.87538809727994,150.87538809727994,l,1,0.6492848885245621,151.54198332727537,152.55859204975422,,,,,329270,2023-05-16_15h10.52.968,eb_02psyexp,2022.2.4,60.00648433679932,
48,0,48,0,,,,,,,,,,,,,,,,,,,,,,,,,,,,,,,,,,,,,,,,,,,,,,,,,,,,,,,,,152.55859204975422,152.55859204975422,152.55859204975422,152.55859204975422,152.55859204975422,152.55859204975422,l,1,0.9341203739168122,153.5251919885486,154.55846587852284,,,,,329270,2023-05-16_15h10.52.968,eb_02psyexp,2022.2.4,60.00648433679932,
49,0,49,0,,,,,,,,,,,,,,,,,,,,,,,,,,,,,,,,,,,,,,,,,,,,,,,,,,,,,,,,,154.55846587852284,154.55846587852284,154.55846587852284,154.55846587852284,154.55846587852284,154.55846587852284,s,1,0.8622383880865527,155.44170828606002,156.4579961472482,,,,,329270,2023-05-16_15h10.52.968,eb_02psyexp,2022.2.4,60.00648433679932,
50,0,50,0,,,,,,,,,,,,,,,,,,,,,,,,,,,,,,,,,,,,,,,,,,,,,,,,,,,,,,,,,156.4579961472482,156.4579961472482,156.4579961472482,156.4579961472482,156.4579961472482,156.4579961472482,s,1,0.8267030749266269,157.30823964565934,158.34150055630016,,,,,329270,2023-05-16_15h10.52.968,eb_02psyexp,2022.2.4,60.00648433679932,
51,0,51,0,,,,,,,,,,,,,,,,,,,,,,,,,,,,,,,,,,,,,,,,,,,,,,,,,,,,,,,,,158.34150055630016,158.34150055630016,158.34150055630016,158.34150055630016,158.34150055630016,158.34150055630016,s,1,0.6872126256057527,159.05813837664027,160.07473653453053,,,,,329270,2023-05-16_15h10.52.968,eb_02psyexp,2022.2.4,60.00648433679932,
52,0,52,0,,,,,,,,,,,,,,,,,,,,,,,,,,,,,,,,,,,,,,,,,,,,,,,,,,,,,,,,,160.07473653453053,160.07473653453053,160.07473653453053,160.07473653453053,160.07473653453053,160.07473653453053,l,1,0.7530076039984124,160.85798974812496,161.8745921318623,,,,,329270,2023-05-16_15h10.52.968,eb_02psyexp,2022.2.4,60.00648433679932,
53,0,53,0,,,,,,,,,,,,,,,,,,,,,,,,,,,,,,,,,,,,,,,,,,,,,,,,,,,,,,,,,161.8745921318623,161.8745921318623,161.8745921318623,161.8745921318623,161.8745921318623,161.8745921318623,l,1,0.953139329169062,162.85785331416992,163.87446716800332,,,,,329270,2023-05-16_15h10.52.968,eb_02psyexp,2022.2.4,60.00648433679932,
54,0,54,0,,,,,,,,,,,,,,,,,,,,,,,,,,,,,,,,,,,,,,,,,,,,,,,,,,,,,,,,,163.87446716800332,163.87446716800332,163.87446716800332,163.87446716800332,163.87446716800332,163.87446716800332,l,1,0.5772963513882132,164.47439689848397,165.49101346892712,,,,,329270,2023-05-16_15h10.52.968,eb_02psyexp,2022.2.4,60.00648433679932,
55,0,55,0,,,,,,,,,,,,,,,,,,,,,,,,,,,,,,,,,,,,,,,,,,,,,,,,,,,,,,,,,165.49101346892712,165.49101346892712,165.49101346892712,165.49101346892712,165.49101346892712,165.49101346892712,l,1,1.1127571088145487,166.62426115875132,167.64080136240227,,,,,329270,2023-05-16_15h10.52.968,eb_02psyexp,2022.2.4,60.00648433679932,
56,0,56,0,,,,,,,,,,,,,,,,,,,,,,,,,,,,,,,,,,,,,,,,,,,,,,,,,,,,,,,,,167.64080136240227,167.64080136240227,167.64080136240227,167.64080136240227,167.64080136240227,167.64080136240227,l,1,1.0029902479000157,168.6741066442628,169.69071989442455,,,,,329270,2023-05-16_15h10.52.968,eb_02psyexp,2022.2.4,60.00648433679932,
57,0,57,0,,,,,,,,,,,,,,,,,,,,,,,,,,,,,,,,,,,,,,,,,,,,,,,,,,,,,,,,,169.69071989442455,169.69071989442455,169.69071989442455,169.69071989442455,169.69071989442455,169.69071989442455,l,1,1.6970778276445344,171.40722882692353,172.4405156962457,,,,,329270,2023-05-16_15h10.52.968,eb_02psyexp,2022.2.4,60.00648433679932,
58,0,58,0,,,,,,,,,,,,,,,,,,,,,,,,,,,,,,,,,,,,,,,,,,,,,,,,,,,,,,,,,172.4405156962457,172.4405156962457,172.4405156962457,172.4405156962457,172.4405156962457,172.4405156962457,s,1,0.5312921460863436,172.9904668275267,174.00707766291453,,,,,329270,2023-05-16_15h10.52.968,eb_02psyexp,2022.2.4,60.00648433679932,
59,0,59,0,,,,,,,,,,,,,,,,,,,,,,,,,,,,,,,,,,,,,,,,,,,,,,,,,,,,,,,,,174.00707766291453,174.00707766291453,174.00707766291453,174.00707766291453,174.00707766291453,174.00707766291453,l,1,0.5727719958231319,174.607019467192,175.62364116900426,,,,,329270,2023-05-16_15h10.52.968,eb_02psyexp,2022.2.4,60.00648433679932,
60,0,60,0,,,,,,,,,,,,,,,,,,,,,,,,,,,,,,,,,,,,,,,,,,,,,,,,,,,,,,,,,175.62364116900426,175.62364116900426,175.62364116900426,175.62364116900426,175.62364116900426,175.62364116900426,l,1,0.643170111332438,176.2902481709607,177.32349338565837,,,,,329270,2023-05-16_15h10.52.968,eb_02psyexp,2022.2.4,60.00648433679932,
61,0,61,0,,,,,,,,,,,,,,,,,,,,,,,,,,,,,,,,,,,,,,,,,,,,,,,,,,,,,,,,,177.32349338565837,177.32349338565837,177.32349338565837,177.32349338565837,177.32349338565837,177.32349338565837,s,1,1.535341397539014,178.890050522823,179.90661245930823,,,,,329270,2023-05-16_15h10.52.968,eb_02psyexp,2022.2.4,60.00648433679932,
62,0,62,0,,,,,,,,,,,,,,,,,,,,,,,,,,,,,,,,,,,,,,,,,,,,,,,,,,,,,,,,,179.90661245930823,179.90661245930823,179.90661245930823,179.90661245930823,179.90661245930823,179.90661245930823,s,1,0.5762368752475595,180.50659259791428,181.53989516316506,,,,,329270,2023-05-16_15h10.52.968,eb_02psyexp,2022.2.4,60.00648433679932,
63,0,63,0,,,,,,,,,,,,,,,,,,,,,,,,,,,,,,,,,,,,,,,,,,,,,,,,,,,,,,,,,181.53989516316506,181.53989516316506,181.53989516316506,181.53989516316506,181.53989516316506,181.53989516316506,s,1,0.6229649049928412,182.1898312625708,183.20641583744145,,,,,329270,2023-05-16_15h10.52.968,eb_02psyexp,2022.2.4,60.00648433679932,
64,0,64,0,,,,,,,,,,,,,,,,,,,,,,,,,,,,,,,,,,,,,,,,,,,,,,,,,,,,,,,,,183.20641583744145,183.20641583744145,183.20641583744145,183.20641583744145,183.20641583744145,183.20641583744145,l,1,1.0924541046697414,184.3229896062694,185.33962730586063,,,,,329270,2023-05-16_15h10.52.968,eb_02psyexp,2022.2.4,60.00648433679932,
65,0,65,0,,,,,,,,,,,,,,,,,,,,,,,,,,,,,,,,,,,,,,,,,,,,,,,,,,,,,,,,,185.33962730586063,185.33962730586063,185.33962730586063,185.33962730586063,185.33962730586063,185.33962730586063,s,1,0.6392542753892485,186.00621529159253,187.03949280371307,,,,,329270,2023-05-16_15h10.52.968,eb_02psyexp,2022.2.4,60.00648433679932,
66,0,66,0,,,,,,,,,,,,,,,,,,,,,,,,,,,,,,,,,,,,,,,,,,,,,,,,,,,,,,,,,187.03949280371307,187.03949280371307,187.03949280371307,187.03949280371307,187.03949280371307,187.03949280371307,l,1,0.6513996150024468,187.72275893627375,188.75603614654392,,,,,329270,2023-05-16_15h10.52.968,eb_02psyexp,2022.2.4,60.00648433679932,
67,0,67,0,,,,,,,,,,,,,,,,,,,,,,,,,,,,,,,,,,,,,,,,,,,,,,,,,,,,,,,,,188.75603614654392,188.75603614654392,188.75603614654392,188.75603614654392,188.75603614654392,188.75603614654392,s,1,0.6468610727024497,189.42264345035073,190.43923043998075,,,,,329270,2023-05-16_15h10.52.968,eb_02psyexp,2022.2.4,60.00648433679932,
68,0,68,0,,,,,,,,,,,,,,,,,,,,,,,,,,,,,,,,,,,,,,,,,,,,,,,,,,,,,,,,,190.43923043998075,190.43923043998075,190.43923043998075,190.43923043998075,190.43923043998075,190.43923043998075,l,1,0.6597051836142782,191.12252554966835,192.13913185738784,,,,,329270,2023-05-16_15h10.52.968,eb_02psyexp,2022.2.4,60.00648433679932,
69,0,69,0,,,,,,,,,,,,,,,,,,,,,,,,,,,,,,,,,,,,,,,,,,,,,,,,,,,,,,,,,192.13913185738784,192.13913185738784,192.13913185738784,192.13913185738784,192.13913185738784,192.13913185738784,s,1,0.6068167980702128,192.7724172778544,193.80562023424136,,,,,329270,2023-05-16_15h10.52.968,eb_02psyexp,2022.2.4,60.00648433679932,
70,0,70,0,,,,,,,,,,,,,,,,,,,,,,,,,,,,,,,,,,,,,,,,,,,,,,,,,,,,,,,,,193.80562023424136,193.80562023424136,193.80562023424136,193.80562023424136,193.80562023424136,193.80562023424136,l,1,0.6763087747385725,194.50560556456912,195.53889001913194,,,,,329270,2023-05-16_15h10.52.968,eb_02psyexp,2022.2.4,60.00648433679932,
71,0,71,0,,,,,,,,,,,,,,,,,,,,,,,,,,,,,,,,,,,,,,,,,,,,,,,,,,,,,,,,,195.53889001913194,195.53889001913194,195.53889001913194,195.53889001913194,195.53889001913194,195.53889001913194,s,1,0.5110473980312236,196.07216572017933,197.08880311793473,,,,,329270,2023-05-16_15h10.52.968,eb_02psyexp,2022.2.4,60.00648433679932,
72,0,72,0,,,,,,,,,,,,,,,,,,,,,,,,,,,,,,,,,,,,,,,,,,,,,,,,,,,,,,,,,197.08880311793473,197.08880311793473,197.08880311793473,197.08880311793473,197.08880311793473,197.08880311793473,s,1,0.5691401960793883,197.68871685062186,198.72199738118798,,,,,329270,2023-05-16_15h10.52.968,eb_02psyexp,2022.2.4,60.00648433679932,
73,0,73,0,,,,,,,,,,,,,,,,,,,,,,,,,,,,,,,,,,,,,,,,,,,,,,,,,,,,,,,,,198.72199738118798,198.72199738118798,198.72199738118798,198.72199738118798,198.72199738118798,198.72199738118798,s,1,0.5919352330092806,199.338606164034,200.3552121699031,,,,,329270,2023-05-16_15h10.52.968,eb_02psyexp,2022.2.4,60.00648433679932,
74,0,74,0,,,,,,,,,,,,,,,,,,,,,,,,,,,,,,,,,,,,,,,,,,,,,,,,,,,,,,,,,200.3552121699031,200.3552121699031,200.3552121699031,200.3552121699031,200.3552121699031,200.3552121699031,l,1,1.4547336747782538,201.83844528062036,202.87168536394893,,,,,329270,2023-05-16_15h10.52.968,eb_02psyexp,2022.2.4,60.00648433679932,
75,0,75,0,,,,,,,,,,,,,,,,,,,,,,,,,,,,,,,,,,,,,,,,,,,,,,,,,,,,,,,,,202.87168536394893,202.87168536394893,202.87168536394893,202.87168536394893,202.87168536394893,202.87168536394893,s,1,0.5382916311355075,203.43831615129602,204.4549460029375,,,,,329270,2023-05-16_15h10.52.968,eb_02psyexp,2022.2.4,60.00648433679932,
76,0,76,0,,,,,,,,,,,,,,,,,,,,,,,,,,,,,,,,,,,,,,,,,,,,,,,,,,,,,,,,,204.4549460029375,204.4549460029375,204.4549460029375,204.4549460029375,204.4549460029375,204.4549460029375,l,1,0.835036111442605,205.32151267839072,206.35476392999408,,,,,329270,2023-05-16_15h10.52.968,eb_02psyexp,2022.2.4,60.00648433679932,
77,0,77,0,,,,,,,,,,,,,,,,,,,,,,,,,,,,,,,,,,,,,,,,,,,,,,,,,,,,,,,,,206.35476392999408,206.35476392999408,206.35476392999408,206.35476392999408,206.35476392999408,206.35476392999408,l,1,0.5902660298452247,206.9714031991898,207.98798837774666,,,,,329270,2023-05-16_15h10.52.968,eb_02psyexp,2022.2.4,60.00648433679932,
78,0,78,0,,,,,,,,,,,,,,,,,,,,,,,,,,,,,,,,,,,,,,,,,,,,,,,,,,,,,,,,,207.98798837774666,207.98798837774666,207.98798837774666,207.98798837774666,207.98798837774666,207.98798837774666,s,1,0.5890441610536072,208.60461617683177,209.6212134292,,,,,329270,2023-05-16_15h10.52.968,eb_02psyexp,2022.2.4,60.00648433679932,
79,0,79,0,,,,,,,,,,,,,,,,,,,,,,,,,,,,,,,,,,,,,,,,,,,,,,,,,,,,,,,,,209.6212134292,209.6212134292,209.6212134292,209.6212134292,209.6212134292,209.6212134292,l,1,1.5478380847926019,211.18775849255326,212.20435121725313,,,,,329270,2023-05-16_15h10.52.968,eb_02psyexp,2022.2.4,60.00648433679932,
80,0,80,0,,,,,,,,,,,,,,,,,,,,,,,,,,,,,,,,,,,,,,,,,,,,,,,,,,,,,,,,,212.20435121725313,212.20435121725313,212.20435121725313,212.20435121725313,212.20435121725313,212.20435121725313,s,1,1.0527228433638811,213.2876296650793,214.30390967828862,,,,,329270,2023-05-16_15h10.52.968,eb_02psyexp,2022.2.4,60.00648433679932,
81,0,81,0,,,,,,,,,,,,,,,,,,,,,,,,,,,,,,,,,,,,,,,,,,,,,,,,,,,,,,,,,214.30390967828862,214.30390967828862,214.30390967828862,214.30390967828862,214.30390967828862,214.30390967828862,l,1,0.5851355694030644,214.92083207816177,215.95410294969042,,,,,329270,2023-05-16_15h10.52.968,eb_02psyexp,2022.2.4,60.00648433679932,
82,0,82,0,,,,,,,,,,,,,,,,,,,,,,,,,,,,,,,,,,,,,,,,,,,,,,,,,,,,,,,,,215.95410294969042,215.95410294969042,215.95410294969042,215.95410294969042,215.95410294969042,215.95410294969042,s,1,0.6549456907523563,216.63738840032602,217.67066047924163,,,,,329270,2023-05-16_15h10.52.968,eb_02psyexp,2022.2.4,60.00648433679932,
83,0,83,0,,,,,,,,,,,,,,,,,,,,,,,,,,,,,,,,,,,,,,,,,,,,,,,,,,,,,,,,,217.67066047924163,217.67066047924163,217.67066047924163,217.67066047924163,217.67066047924163,217.67066047924163,l,1,0.6583960815914907,218.35392932841205,219.3705510302243,,,,,329270,2023-05-16_15h10.52.968,eb_02psyexp,2022.2.4,60.00648433679932,
84,0,84,0,,,,,,,,,,,,,,,,,,,,,,,,,,,,,,,,,,,,,,,,,,,,,,,,,,,,,,,,,219.3705510302243,219.3705510302243,219.3705510302243,219.3705510302243,219.3705510302243,219.3705510302243,s,1,0.5825234022631776,219.9704940418742,221.00372869199782,,,,,329270,2023-05-16_15h10.52.968,eb_02psyexp,2022.2.4,60.00648433679932,
85,0,85,0,,,,,,,,,,,,,,,,,,,,,,,,,,,,,,,,,,,,,,,,,,,,,,,,,,,,,,,,,221.00372869199782,221.00372869199782,221.00372869199782,221.00372869199782,221.00372869199782,221.00372869199782,l,1,0.6613517484074691,221.68698486367066,222.7202886363084,,,,,329270,2023-05-16_15h10.52.968,eb_02psyexp,2022.2.4,60.00648433679932,
86,0,86,0,,,,,,,,,,,,,,,,,,,,,,,,,,,,,,,,,,,,,,,,,,,,,,,,,,,,,,,,,222.7202886363084,222.7202886363084,222.7202886363084,222.7202886363084,222.7202886363084,222.7202886363084,s,1,0.6157969904015772,223.35357707522053,224.37013418220158,,,,,329270,2023-05-16_15h10.52.968,eb_02psyexp,2022.2.4,60.00648433679932,
87,0,87,0,,,,,,,,,,,,,,,,,,,,,,,,,,,,,,,,,,,,,,,,,,,,,,,,,,,,,,,,,224.37013418220158,224.37013418220158,224.37013418220158,224.37013418220158,224.37013418220158,224.37013418220158,s,1,0.8219505244778702,225.22011447171099,226.25337658973876,,,,,329270,2023-05-16_15h10.52.968,eb_02psyexp,2022.2.4,60.00648433679932,
88,0,88,0,,,,,,,,,,,,,,,,,,,,,,,,,,,,,,,,,,,,,,,,,,,,,,,,,,,,,,,,,226.25337658973876,226.25337658973876,226.25337658973876,226.25337658973876,226.25337658973876,226.25337658973876,s,1,0.9067336699517909,227.18666098391986,228.21991736689233,,,,,329270,2023-05-16_15h10.52.968,eb_02psyexp,2022.2.4,60.00648433679932,
89,0,89,0,,,,,,,,,,,,,,,,,,,,,,,,,,,,,,,,,,,,,,,,,,,,,,,,,,,,,,,,,228.21991736689233,228.21991736689233,228.21991736689233,228.21991736689233,228.21991736689233,228.21991736689233,l,1,0.6361827000800986,228.88651048397878,229.9197882979497,,,,,329270,2023-05-16_15h10.52.968,eb_02psyexp,2022.2.4,60.00648433679932,
90,0,90,0,,,,,,,,,,,,,,,,,,,,,,,,,,,,,,,,,,,,,,,,,,,,,,,,,,,,,,,,,229.9197882979497,229.9197882979497,229.9197882979497,229.9197882979497,229.9197882979497,229.9197882979497,s,1,0.5203227948222775,230.46969234140124,231.51967003504978,,,,,329270,2023-05-16_15h10.52.968,eb_02psyexp,2022.2.4,60.00648433679932,
91,0,91,0,,,,,,,,,,,,,,,,,,,,,,,,,,,,,,,,,,,,,,,,,,,,,,,,,,,,,,,,,231.51967003504978,231.51967003504978,231.51967003504978,231.51967003504978,231.51967003504978,231.51967003504978,l,1,0.6485218242160045,232.1862897145038,233.2195454937755,,,,,329270,2023-05-16_15h10.52.968,eb_02psyexp,2022.2.4,60.00648433679932,
92,0,92,0,,,,,,,,,,,,,,,,,,,,,,,,,,,,,,,,,,,,,,,,,,,,,,,,,,,,,,,,,233.2195454937755,233.2195454937755,233.2195454937755,233.2195454937755,233.2195454937755,233.2195454937755,s,1,1.5966059834463522,234.83610899986525,235.8526908581407,,,,,329270,2023-05-16_15h10.52.968,eb_02psyexp,2022.2.4,60.00648433679932,
93,0,93,0,,,,,,,,,,,,,,,,,,,,,,,,,,,,,,,,,,,,,,,,,,,,,,,,,,,,,,,,,235.8526908581407,235.8526908581407,235.8526908581407,235.8526908581407,235.8526908581407,235.8526908581407,l,1,0.7394701549783349,236.61929550570494,237.65258780823206,,,,,329270,2023-05-16_15h10.52.968,eb_02psyexp,2022.2.4,60.00648433679932,
94,0,94,0,,,,,,,,,,,,,,,,,,,,,,,,,,,,,,,,,,,,,,,,,,,,,,,,,,,,,,,,,237.65258780823206,237.65258780823206,237.65258780823206,237.65258780823206,237.65258780823206,237.65258780823206,s,1,0.7066131130268332,238.38585880049504,239.41912514435535,,,,,329270,2023-05-16_15h10.52.968,eb_02psyexp,2022.2.4,60.00648433679932,
95,0,95,0,,,,,,,,,,,,,,,,,,,,,,,,,,,,,,,,,,,,,,,,,,,,,,,,,,,,,,,,,239.41912514435535,239.41912514435535,239.41912514435535,239.41912514435535,239.41912514435535,239.41912514435535,l,1,0.6600610589521239,240.10239308798919,241.1190105639689,,,,,329270,2023-05-16_15h10.52.968,eb_02psyexp,2022.2.4,60.00648433679932,
96,0,96,0,,,,,,,,,,,,,,,,,,,,,,,,,,,,,,,,,,,,,,,,,,,,,,,,,,,,,,,,,241.1190105639689,241.1190105639689,241.1190105639689,241.1190105639689,241.1190105639689,241.1190105639689,s,1,0.5281792180030607,241.66891219266108,242.6855604568409,,,,,329270,2023-05-16_15h10.52.968,eb_02psyexp,2022.2.4,60.00648433679932,
97,0,97,0,,,,,,,,,,,,,,,,,,,,,,,,,,,,,,,,,,,,,,,,,,,,,,,,,,,,,,,,,242.6855604568409,242.6855604568409,242.6855604568409,242.6855604568409,242.6855604568409,242.6855604568409,l,1,0.665662699524546,243.3688431908813,244.3854422543227,,,,,329270,2023-05-16_15h10.52.968,eb_02psyexp,2022.2.4,60.00648433679932,
98,0,98,0,,,,,,,,,,,,,,,,,,,,,,,,,,,,,,,,,,,,,,,,,,,,,,,,,,,,,,,,,244.3854422543227,244.3854422543227,244.3854422543227,244.3854422543227,244.3854422543227,244.3854422543227,s,1,0.5097730082052294,244.91868475241063,245.93533663873677,,,,,329270,2023-05-16_15h10.52.968,eb_02psyexp,2022.2.4,60.00648433679932,
99,0,99,0,,,,,,,,,,,,,,,,,,,,,,,,,,,,,,,,,,,,,,,,,,,,,,,,,,,,,,,,,245.93533663873677,245.93533663873677,245.93533663873677,245.93533663873677,245.93533663873677,245.93533663873677,l,1,0.70387477465556,246.6686115549819,247.70186914532678,,,,,329270,2023-05-16_15h10.52.968,eb_02psyexp,2022.2.4,60.00648433679932,
100,0,100,0,,,,,,,,,,,,,,,,,,,,,,,,,,,,,,,,,,,,,,,,,,,,,,,,,,,,,,,,,247.70186914532678,247.70186914532678,247.70186914532678,247.70186914532678,247.70186914532678,247.70186914532678,s,1,0.9373606806038879,248.66846244352928,249.68505486637878,,,,,329270,2023-05-16_15h10.52.968,eb_02psyexp,2022.2.4,60.00648433679932,
101,0,101,0,,,,,,,,,,,,,,,,,,,,,,,,,,,,,,,,,,,,,,,,,,,,,,,,,,,,,,,,,249.68505486637878,249.68505486637878,249.68505486637878,249.68505486637878,249.68505486637878,249.68505486637878,l,1,1.5541898103401763,251.26828049132018,252.30156645510579,,,,,329270,2023-05-16_15h10.52.968,eb_02psyexp,2022.2.4,60.00648433679932,
102,0,102,0,,,,,,,,,,,,,,,,,,,,,,,,,,,,,,,,,,,,,,,,,,,,,,,,,,,,,,,,,252.30156645510579,252.30156645510579,252.30156645510579,252.30156645510579,252.30156645510579,252.30156645510579,s,1,0.5367057372059207,252.8681682653405,253.8847809118015,,,,,329270,2023-05-16_15h10.52.968,eb_02psyexp,2022.2.4,60.00648433679932,
103,0,103,0,,,,,,,,,,,,,,,,,,,,,,,,,,,,,,,,,,,,,,,,,,,,,,,,,,,,,,,,,253.8847809118015,253.8847809118015,253.8847809118015,253.8847809118015,253.8847809118015,253.8847809118015,l,1,0.6814830027142307,254.58472338013235,255.61796708560723,,,,,329270,2023-05-16_15h10.52.968,eb_02psyexp,2022.2.4,60.00648433679932,
104,0,104,0,,,,,,,,,,,,,,,,,,,,,,,,,,,,,,,,,,,,,,,,,,,,,,,,,,,,,,,,,255.61796708560723,255.61796708560723,255.61796708560723,255.61796708560723,255.61796708560723,255.61796708560723,s,1,0.556309970037546,256.2012307430414,257.23453994888405,,,,,329270,2023-05-16_15h10.52.968,eb_02psyexp,2022.2.4,60.00648433679932,
105,0,105,0,,,,,,,,,,,,,,,,,,,,,,,,,,,,,,,,,,,,,,,,,,,,,,,,,,,,,,,,,257.23453994888405,257.23453994888405,257.23453994888405,257.23453994888405,257.23453994888405,257.23453994888405,l,1,0.9477483764349017,258.2011175511434,259.2344032130786,,,,,329270,2023-05-16_15h10.52.968,eb_02psyexp,2022.2.4,60.00648433679932,
106,0,106,0,,,,,,,,,,,,,,,,,,,,,,,,,,,,,,,,,,,,,,,,,,,,,,,,,,,,,,,,,259.2344032130786,259.2344032130786,259.2344032130786,259.2344032130786,259.2344032130786,259.2344032130786,s,1,0.8599027110321913,260.11765678887605,261.13428120729805,,,,,329270,2023-05-16_15h10.52.968,eb_02psyexp,2022.2.4,60.00648433679932,
107,0,107,0,,,,,,,,,,,,,,,,,,,,,,,,,,,,,,,,,,,,,,,,,,,,,,,,,,,,,,,,,261.13428120729805,261.13428120729805,261.13428120729805,261.13428120729805,261.13428120729805,261.13428120729805,l,1,0.5839746733108768,261.7508637296269,262.78416237091005,,,,,329270,2023-05-16_15h10.52.968,eb_02psyexp,2022.2.4,60.00648433679932,
108,0,108,0,,,,,,,,,,,,,,,,,,,,,,,,,,,,,,,,,,,,,,,,,,,,,,,,,,,,,,,,,262.78416237091005,262.78416237091005,262.78416237091005,262.78416237091005,262.78416237091005,262.78416237091005,s,1,0.46217204253480304,263.2674428712926,264.28405883804953,,,,,329270,2023-05-16_15h10.52.968,eb_02psyexp,2022.2.4,60.00648433679932,
109,0,109,0,,,,,,,,,,,,,,,,,,,,,,,,,,,,,,,,,,,,,,,,,,,,,,,,,,,,,,,,,264.28405883804953,264.28405883804953,264.28405883804953,264.28405883804953,264.28405883804953,264.28405883804953,l,1,0.5782704053854104,264.88398494638386,265.900599403918,,,,,329270,2023-05-16_15h10.52.968,eb_02psyexp,2022.2.4,60.00648433679932,
110,0,110,0,,,,,,,,,,,,,,,,,,,,,,,,,,,,,,,,,,,,,,,,,,,,,,,,,,,,,,,,,265.900599403918,265.900599403918,265.900599403918,265.900599403918,265.900599403918,265.900599403918,s,1,0.9377325537207071,266.86717610062624,267.8838273832516,,,,,329270,2023-05-16_15h10.52.968,eb_02psyexp,2022.2.4,60.00648433679932,
111,0,111,0,,,,,,,,,,,,,,,,,,,,,,,,,,,,,,,,,,,,,,,,,,,,,,,,,,,,,,,,,267.8838273832516,267.8838273832516,267.8838273832516,267.8838273832516,267.8838273832516,267.8838273832516,l,1,0.8575196442980086,268.76704654873174,269.7836558748968,,,,,329270,2023-05-16_15h10.52.968,eb_02psyexp,2022.2.4,60.00648433679932,
112,0,112,0,,,,,,,,,,,,,,,,,,,,,,,,,,,,,,,,,,,,,,,,,,,,,,,,,,,,,,,,,269.7836558748968,269.7836558748968,269.7836558748968,269.7836558748968,269.7836558748968,269.7836558748968,s,1,0.4776983486372046,270.2836039575486,271.30022807412024,,,,,329270,2023-05-16_15h10.52.968,eb_02psyexp,2022.2.4,60.00648433679932,
113,0,113,0,,,,,,,,,,,,,,,,,,,,,,,,,,,,,,,,,,,,,,,,,,,,,,,,,,,,,,,,,271.30022807412024,271.30022807412024,271.30022807412024,271.30022807412024,271.30022807412024,271.30022807412024,l,1,0.8011437409440987,272.1334798086755,273.1500975865056,,,,,329270,2023-05-16_15h10.52.968,eb_02psyexp,2022.2.4,60.00648433679932,
114,0,114,0,,,,,,,,,,,,,,,,,,,,,,,,,,,,,,,,,,,,,,,,,,,,,,,,,,,,,,,,,273.1500975865056,273.1500975865056,273.1500975865056,273.1500975865056,273.1500975865056,273.1500975865056,s,1,0.47931261600751895,273.6500607613998,274.6833089945576,,,,,329270,2023-05-16_15h10.52.968,eb_02psyexp,2022.2.4,60.00648433679932,
115,0,115,0,,,,,,,,,,,,,,,,,,,,,,,,,,,,,,,,,,,,,,,,,,,,,,,,,,,,,,,,,274.6833089945576,274.6833089945576,274.6833089945576,274.6833089945576,274.6833089945576,274.6833089945576,l,1,0.5460985517129302,275.2499274062575,276.26653401582735,,,,,329270,2023-05-16_15h10.52.968,eb_02psyexp,2022.2.4,60.00648433679932,
116,0,116,0,,,,,,,,,,,,,,,,,,,,,,,,,,,,,,,,,,,,,,,,,,,,,,,,,,,,,,,,,276.26653401582735,276.26653401582735,276.26653401582735,276.26653401582735,276.26653401582735,276.26653401582735,l,1,0.7309194881672738,277.01646625160356,278.04973108622653,,,,,329270,2023-05-16_15h10.52.968,eb_02psyexp,2022.2.4,60.00648433679932,
117,0,117,0,,,,,,,,,,,,,,,,,,,,,,,,,,,,,,,,,,,,,,,,,,,,,,,,,,,,,,,,,278.04973108622653,278.04973108622653,278.04973108622653,278.04973108622653,278.04973108622653,278.04973108622653,l,1,0.587673180794809,278.66631149564637,279.682960061662,,,,,329270,2023-05-16_15h10.52.968,eb_02psyexp,2022.2.4,60.00648433679932,
118,0,118,0,,,,,,,,,,,,,,,,,,,,,,,,,,,,,,,,,,,,,,,,,,,,,,,,,,,,,,,,,279.682960061662,279.682960061662,279.682960061662,279.682960061662,279.682960061662,279.682960061662,s,1,2.242455704457825,281.9494596671575,282.98273204790894,,,,,329270,2023-05-16_15h10.52.968,eb_02psyexp,2022.2.4,60.00648433679932,
119,0,119,0,,,,,,,,,,,,,,,,,,,,,,,,,,,,,,,,,,,,,,,,,,,,,,,,,,,,,,,,,282.98273204790894,282.98273204790894,282.98273204790894,282.98273204790894,282.98273204790894,282.98273204790894,l,1,0.7347109639376868,283.74934967482113,284.7659508511715,,,,,329270,2023-05-16_15h10.52.968,eb_02psyexp,2022.2.4,60.00648433679932,
120,0,120,0,,,,,,,,,,,,,,,,,,,,,,,,,,,,,,,,,,,,,,,,,,,,,,,,,,,,,,,,,284.7659508511715,284.7659508511715,284.7659508511715,284.7659508511715,284.7659508511715,284.7659508511715,s,1,0.5584959319385234,285.34922114919755,286.3825122443377,,,,,329270,2023-05-16_15h10.52.968,eb_02psyexp,2022.2.4,60.00648433679932,
121,0,121,0,,,,,,,,,,,,,,,,,,,,,,,,,,,,,,,,,,,,,,,,,,,,,,,,,,,,,,,,,286.3825122443377,286.3825122443377,286.3825122443377,286.3825122443377,286.3825122443377,286.3825122443377,l,1,0.5419394286582246,286.9491022826114,287.96566874677956,,,,,329270,2023-05-16_15h10.52.968,eb_02psyexp,2022.2.4,60.00648433679932,
122,0,122,0,,,,,,,,,,,,,,,,,,,,,,,,,,,,,,,,,,,,,,,,,,,,,,,,,,,,,,,,,287.96566874677956,287.96566874677956,287.96566874677956,287.96566874677956,287.96566874677956,287.96566874677956,s,1,0.5748185053089401,288.5656775606476,289.5822911126452,,,,,329270,2023-05-16_15h10.52.968,eb_02psyexp,2022.2.4,60.00648433679932,
123,0,123,0,,,,,,,,,,,,,,,,,,,,,,,,,,,,,,,,,,,,,,,,,,,,,,,,,,,,,,,,,289.5822911126452,289.5822911126452,289.5822911126452,289.5822911126452,289.5822911126452,289.5822911126452,l,1,0.6782378664938733,290.28221214997757,291.29880487467744,,,,,329270,2023-05-16_15h10.52.968,eb_02psyexp,2022.2.4,60.00648433679932,
124,0,124,0,,,,,,,,,,,,,,,,,,,,,,,,,,,,,,,,,,,,,,,,,,,,,,,,,,,,,,,,,291.29880487467744,291.29880487467744,291.29880487467744,291.29880487467744,291.29880487467744,291.29880487467744,s,1,1.24171558037051,292.5653947318351,293.581976590096,,,,,329270,2023-05-16_15h10.52.968,eb_02psyexp,2022.2.4,60.00648433679932,
125,0,125,0,,,,,,,,,,,,,,,,,,,,,,,,,,,,,,,,,,,,,,,,,,,,,,,,,,,,,,,,,293.581976590096,293.581976590096,293.581976590096,293.581976590096,293.581976590096,293.581976590096,l,1,0.6305083148326958,294.2319416666287,295.2651905034727,,,,,329270,2023-05-16_15h10.52.968,eb_02psyexp,2022.2.4,60.00648433679932,
126,0,126,0,,,,,,,,,,,,,,,,,,,,,,,,,,,,,,,,,,,,,,,,,,,,,,,,,,,,,,,,,295.2651905034727,295.2651905034727,295.2651905034727,295.2651905034727,295.2651905034727,295.2651905034727,l,1,0.6992927666724427,295.9818047798908,296.99840716362814,,,,,329270,2023-05-16_15h10.52.968,eb_02psyexp,2022.2.4,60.00648433679932,
127,0,127,0,,,,,,,,,,,,,,,,,,,,,,,,,,,,,,,,,,,,,,,,,,,,,,,,,,,,,,,,,296.99840716362814,296.99840716362814,296.99840716362814,296.99840716362814,296.99840716362814,296.99840716362814,s,1,0.4861116759420838,297.5150352041819,298.54829520928615,,,,,329270,2023-05-16_15h10.52.968,eb_02psyexp,2022.2.4,60.00648433679932,
128,0,128,0,,,,,,,,,,,,,,,,,,,,,,,,,,,,,,,,,,,,,,,,,,,,,,,,,,,,,,,,,298.54829520928615,298.54829520928615,298.54829520928615,298.54829520928615,298.54829520928615,298.54829520928615,l,1,1.2242408644087845,299.7982156731159,300.81482530113135,,,,,329270,2023-05-16_15h10.52.968,eb_02psyexp,2022.2.4,60.00648433679932,
129,0,129,0,,,,,,,,,,,,,,,,,,,,,,,,,,,,,,,,,,,,,,,,,,,,,,,,,,,,,,,,,300.81482530113135,300.81482530113135,300.81482530113135,300.81482530113135,300.81482530113135,300.81482530113135,l,1,0.5566902948048664,301.39806601834425,302.43137069651857,,,,,329270,2023-05-16_15h10.52.968,eb_02psyexp,2022.2.4,60.00648433679932,
130,0,130,0,,,,,,,,,,,,,,,,,,,,,,,,,,,,,,,,,,,,,,,,,,,,,,,,,,,,,,,,,302.43137069651857,302.43137069651857,302.43137069651857,302.43137069651857,302.43137069651857,302.43137069651857,s,1,0.5561647825670661,303.01464340930397,304.0312448874902,,,,,329270,2023-05-16_15h10.52.968,eb_02psyexp,2022.2.4,60.00648433679932,
131,0,131,0,,,,,,,,,,,,,,,,,,,,,,,,,,,,,,,,,,,,,,,,,,,,,,,,,,,,,,,,,304.0312448874902,304.0312448874902,304.0312448874902,304.0312448874902,304.0312448874902,304.0312448874902,l,1,0.740305360261118,304.797860099643,305.81445855938364,,,,,329270,2023-05-16_15h10.52.968,eb_02psyexp,2022.2.4,60.00648433679932,
132,0,132,0,,,,,,,,,,,,,,,,,,,,,,,,,,,,,,,,,,,,,,,,,,,,,,,,,,,,,,,,,305.81445855938364,305.81445855938364,305.81445855938364,305.81445855938364,305.81445855938364,305.81445855938364,s,1,8.949149541193037,314.7804880110052,315.81373594231263,,,,,329270,2023-05-16_15h10.52.968,eb_02psyexp,2022.2.4,60.00648433679932,
133,0,133,0,,,,,,,,,,,,,,,,,,,,,,,,,,,,,,,,,,,,,,,,,,,,,,,,,,,,,,,,,315.81373594231263,315.81373594231263,315.81373594231263,315.81373594231263,315.81373594231263,315.81373594231263,l,1,0.564866975590121,316.3970497060218,317.43032359601057,,,,,329270,2023-05-16_15h10.52.968,eb_02psyexp,2022.2.4,60.00648433679932,
134,0,134,0,,,,,,,,,,,,,,,,,,,,,,,,,,,,,,,,,,,,,,,,,,,,,,,,,,,,,,,,,317.43032359601057,317.43032359601057,317.43032359601057,317.43032359601057,317.43032359601057,317.43032359601057,s,1,0.5002787737466861,317.96361227639136,318.98018115531886,,,,,329270,2023-05-16_15h10.52.968,eb_02psyexp,2022.2.4,60.00648433679932,
135,0,135,0,,,,,,,,,,,,,,,,,,,,,,,,,,,,,,,,,,,,,,,,,,,,,,,,,,,,,,,,,318.98018115531886,318.98018115531886,318.98018115531886,318.98018115531886,318.98018115531886,318.98018115531886,s,1,0.49444139216211624,319.4968209678482,320.53010904454277,,,,,329270,2023-05-16_15h10.52.968,eb_02psyexp,2022.2.4,60.00648433679932,
136,0,136,0,,,,,,,,,,,,,,,,,,,,,,,,,,,,,,,,,,,,,,,,,,,,,,,,,,,,,,,,,320.53010904454277,320.53010904454277,320.53010904454277,320.53010904454277,320.53010904454277,320.53010904454277,s,1,0.5125216093001654,321.06334097805666,322.0799509079079,,,,,329270,2023-05-16_15h10.52.968,eb_02psyexp,2022.2.4,60.00648433679932,
137,0,137,0,,,,,,,,,,,,,,,,,,,,,,,,,,,,,,,,,,,,,,,,,,,,,,,,,,,,,,,,,322.0799509079079,322.0799509079079,322.0799509079079,322.0799509079079,322.0799509079079,322.0799509079079,s,1,0.9386860822560266,323.04656805186823,324.07984103632043,,,,,329270,2023-05-16_15h10.52.968,eb_02psyexp,2022.2.4,60.00648433679932,
138,0,138,0,,,,,,,,,,,,,,,,,,,,,,,,,,,,,,,,,,,,,,,,,,,,,,,,,,,,,,,,,324.07984103632043,324.07984103632043,324.07984103632043,324.07984103632043,324.07984103632043,324.07984103632043,s,1,1.3228285917575704,325.42974556272384,326.44635217227915,,,,,329270,2023-05-16_15h10.52.968,eb_02psyexp,2022.2.4,60.00648433679932,
139,0,139,0,,,,,,,,,,,,,,,,,,,,,,,,,,,,,,,,,,,,,,,,,,,,,,,,,,,,,,,,,326.44635217227915,326.44635217227915,326.44635217227915,326.44635217227915,326.44635217227915,326.44635217227915,l,1,0.5243503134406637,326.99629364452267,328.0295627049927,,,,,329270,2023-05-16_15h10.52.968,eb_02psyexp,2022.2.4,60.00648433679932,
140,0,140,0,,,,,,,,,,,,,,,,,,,,,,,,,,,,,,,,,,,,,,,,,,,,,,,,,,,,,,,,,328.0295627049927,328.0295627049927,328.0295627049927,328.0295627049927,328.0295627049927,328.0295627049927,s,1,0.4771248430333799,328.52953221862845,329.54616840901144,,,,,329270,2023-05-16_15h10.52.968,eb_02psyexp,2022.2.4,60.00648433679932,
141,0,141,0,,,,,,,,,,,,,,,,,,,,,,,,,,,,,,,,,,,,,,,,,,,,,,,,,,,,,,,,,329.54616840901144,329.54616840901144,329.54616840901144,329.54616840901144,329.54616840901144,329.54616840901144,s,1,0.4405092264059931,330.012748727866,331.0459694931196,,,,,329270,2023-05-16_15h10.52.968,eb_02psyexp,2022.2.4,60.00648433679932,
142,0,142,0,,,,,,,,,,,,,,,,,,,,,,,,,,,,,,,,,,,,,,,,,,,,,,,,,,,,,,,,,331.0459694931196,331.0459694931196,331.0459694931196,331.0459694931196,331.0459694931196,331.0459694931196,s,1,0.47572428196144756,331.54598186876683,332.5625709713204,,,,,329270,2023-05-16_15h10.52.968,eb_02psyexp,2022.2.4,60.00648433679932,
143,0,143,0,,,,,,,,,,,,,,,,,,,,,,,,,,,,,,,,,,,,,,,,,,,,,,,,,,,,,,,,,332.5625709713204,332.5625709713204,332.5625709713204,332.5625709713204,332.5625709713204,332.5625709713204,s,1,0.4551475043554092,333.0458735063876,334.07915614987724,,,,,329270,2023-05-16_15h10.52.968,eb_02psyexp,2022.2.4,60.00648433679932,
144,0,144,0,,,,,,,,,,,,,,,,,,,,,,,,,,,,,,,,,,,,,,,,,,,,,,,,,,,,,,,,,334.07915614987724,334.07915614987724,334.07915614987724,334.07915614987724,334.07915614987724,334.07915614987724,s,1,0.370572933825315,334.4791174533457,335.4957065558847,,,,,329270,2023-05-16_15h10.52.968,eb_02psyexp,2022.2.4,60.00648433679932,
145,0,145,0,,,,,,,,,,,,,,,,,,,,,,,,,,,,,,,,,,,,,,,,,,,,,,,,,,,,,,,,,335.4957065558847,335.4957065558847,335.4957065558847,335.4957065558847,335.4957065558847,335.4957065558847,s,1,0.4820509543787921,335.9956676178699,337.02893667833996,,,,,329270,2023-05-16_15h10.52.968,eb_02psyexp,2022.2.4,60.00648433679932,
146,0,146,0,,,,,,,,,,,,,,,,,,,,,,,,,,,,,,,,,,,,,,,,,,,,,,,,,,,,,,,,,337.02893667833996,337.02893667833996,337.02893667833996,337.02893667833996,337.02893667833996,337.02893667833996,s,1,0.3807979351695394,337.42890462238574,338.4455039876775,,,,,329270,2023-05-16_15h10.52.968,eb_02psyexp,2022.2.4,60.00648433679932,
147,0,147,0,,,,,,,,,,,,,,,,,,,,,,,,,,,,,,,,,,,,,,,,,,,,,,,,,,,,,,,,,338.4455039876775,338.4455039876775,338.4455039876775,338.4455039876775,338.4455039876775,338.4455039876775,s,0,0.4922442619863432,338.96213414114027,339.97874648576544,,,,,329270,2023-05-16_15h10.52.968,eb_02psyexp,2022.2.4,60.00648433679932,
148,0,148,0,,,,,,,,,,,,,,,,,,,,,,,,,,,,,,,,,,,,,,,,,,,,,,,,,,,,,,,,,339.97874648576544,339.97874648576544,339.97874648576544,339.97874648576544,339.97874648576544,339.97874648576544,s,1,0.9590141395310638,340.96197989831853,341.97859556323965,,,,,329270,2023-05-16_15h10.52.968,eb_02psyexp,2022.2.4,60.00648433679932,
149,0,149,0,,,,,,,,,,,,,,,,,,,,,,,,,,,,,,,,,,,,,,,,,,,,,,,,,,,,,,,,,341.97859556323965,341.97859556323965,341.97859556323965,341.97859556323965,341.97859556323965,341.97859556323965,l,1,0.6471647288417444,342.64521131869697,343.66181672087987,,,,,329270,2023-05-16_15h10.52.968,eb_02psyexp,2022.2.4,60.00648433679932,
150,0,150,0,,,,,,,,,,,,,,,,,,,,,,,,,,,,,,,,,,,,,,,,,,,,,,,,,,,,,,,,,343.66181672087987,343.66181672087987,343.66181672087987,343.66181672087987,343.66181672087987,343.66181672087987,l,1,0.5639611385704484,344.2450761524815,345.26169664692134,,,,,329270,2023-05-16_15h10.52.968,eb_02psyexp,2022.2.4,60.00648433679932,
151,0,151,0,,,,,,,,,,,,,,,,,,,,,,,,,,,,,,,,,,,,,,,,,,,,,,,,,,,,,,,,,345.26169664692134,345.26169664692134,345.26169664692134,345.26169664692134,345.26169664692134,345.26169664692134,l,1,1.499146251095226,346.77828212732857,347.81150198704563,,,,,329270,2023-05-16_15h10.52.968,eb_02psyexp,2022.2.4,60.00648433679932,
152,0,152,0,,,,,,,,,,,,,,,,,,,,,,,,,,,,,,,,,,,,,,,,,,,,,,,,,,,,,,,,,347.81150198704563,347.81150198704563,347.81150198704563,347.81150198704563,347.81150198704563,347.81150198704563,s,1,0.517297703656368,348.36146307921445,349.37807632936165,,,,,329270,2023-05-16_15h10.52.968,eb_02psyexp,2022.2.4,60.00648433679932,
153,0,153,0,,,,,,,,,,,,,,,,,,,,,,,,,,,,,,,,,,,,,,,,,,,,,,,,,,,,,,,,,349.37807632936165,349.37807632936165,349.37807632936165,349.37807632936165,349.37807632936165,349.37807632936165,l,1,1.3587152525578858,350.76129730590037,351.7778990859515,,,,,329270,2023-05-16_15h10.52.968,eb_02psyexp,2022.2.4,60.00648433679932,
154,0,154,0,,,,,,,,,,,,,,,,,,,,,,,,,,,,,,,,,,,,,,,,,,,,,,,,,,,,,,,,,351.7778990859515,351.7778990859515,351.7778990859515,351.7778990859515,351.7778990859515,351.7778990859515,l,1,0.6309179185773246,352.4278514849866,353.4444414930622,,,,,329270,2023-05-16_15h10.52.968,eb_02psyexp,2022.2.4,60.00648433679932,
155,0,155,0,,,,,,,,,,,,,,,,,,,,,,,,,,,,,,,,,,,,,,,,,,,,,,,,,,,,,,,,,353.4444414930622,353.4444414930622,353.4444414930622,353.4444414930622,353.4444414930622,353.4444414930622,s,1,0.8123907896515448,354.2777110364841,355.2943131183565,,,,,329270,2023-05-16_15h10.52.968,eb_02psyexp,2022.2.4,60.00648433679932,
156,0,156,0,,,,,,,,,,,,,,,,,,,,,,,,,,,,,,,,,,,,,,,,,,,,,,,,,,,,,,,,,355.2943131183565,355.2943131183565,355.2943131183565,355.2943131183565,355.2943131183565,355.2943131183565,l,1,0.6745212482928764,355.9942963357753,357.010851933519,,,,,329270,2023-05-16_15h10.52.968,eb_02psyexp,2022.2.4,60.00648433679932,
157,0,157,0,,,,,,,,,,,,,,,,,,,,,,,,,,,,,,,,,,,,,,,,,,,,,,,,,,,,,,,,,357.010851933519,357.010851933519,357.010851933519,357.010851933519,357.010851933519,357.010851933519,l,1,0.7579946880432544,357.7941320113314,358.82740409023245,,,,,329270,2023-05-16_15h10.52.968,eb_02psyexp,2022.2.4,60.00648433679932,
158,0,158,0,,,,,,,,,,,,,,,,,,,,,,,,,,,,,,,,,,,,,,,,,,,,,,,,,,,,,,,,,358.82740409023245,358.82740409023245,358.82740409023245,358.82740409023245,358.82740409023245,358.82740409023245,s,1,0.517441985590267,359.3773528067686,360.3939313447336,,,,,329270,2023-05-16_15h10.52.968,eb_02psyexp,2022.2.4,60.00648433679932,
159,0,159,0,,,,,,,,,,,,,,,,,,,,,,,,,,,,,,,,,,,,,,,,,,,,,,,,,,,,,,,,,360.3939313447336,360.3939313447336,360.3939313447336,360.3939313447336,360.3939313447336,360.3939313447336,l,1,1.1029368816962233,361.52720982275787,362.560476468454,,,,,329270,2023-05-16_15h10.52.968,eb_02psyexp,2022.2.4,60.00648433679932,
160,0,160,0,,,,,,,,,,,,,,,,,,,,,,,,,,,,,,,,,,,,,,,,,,,,,,,,,,,,,,,,,362.560476468454,362.560476468454,362.560476468454,362.560476468454,362.560476468454,362.560476468454,s,1,0.8793997888715239,363.4604051726492,364.47701329144184,,,,,329270,2023-05-16_15h10.52.968,eb_02psyexp,2022.2.4,60.00648433679932,
161,0,161,0,,,,,,,,,,,,,,,,,,,,,,,,,,,,,,,,,,,,,,,,,,,,,,,,,,,,,,,,,364.47701329144184,364.47701329144184,364.47701329144184,364.47701329144184,364.47701329144184,364.47701329144184,l,1,0.6108829528529895,365.11030233404017,366.14357079080946,,,,,329270,2023-05-16_15h10.52.968,eb_02psyexp,2022.2.4,60.00648433679932,
162,0,162,0,,,,,,,,,,,,,,,,,,,,,,,,,,,,,,,,,,,,,,,,,,,,,,,,,,,,,,,,,366.14357079080946,366.14357079080946,366.14357079080946,366.14357079080946,366.14357079080946,366.14357079080946,s,1,0.5283265183970798,366.69350803722045,367.70978171168827,,,,,329270,2023-05-16_15h10.52.968,eb_02psyexp,2022.2.4,60.00648433679932,
163,0,163,0,,,,,,,,,,,,,,,,,,,,,,,,,,,,,,,,,,,,,,,,,,,,,,,,,,,,,,,,,367.70978171168827,367.70978171168827,367.70978171168827,367.70978171168827,367.70978171168827,367.70978171168827,s,1,0.7461095388862304,368.4767298589286,369.50999439171574,,,,,329270,2023-05-16_15h10.52.968,eb_02psyexp,2022.2.4,60.00648433679932,
164,0,164,0,,,,,,,,,,,,,,,,,,,,,,,,,,,,,,,,,,,,,,,,,,,,,,,,,,,,,,,,,369.50999439171574,369.50999439171574,369.50999439171574,369.50999439171574,369.50999439171574,369.50999439171574,s,1,0.7619271254661726,370.2932466997736,371.30989918978594,,,,,329270,2023-05-16_15h10.52.968,eb_02psyexp,2022.2.4,60.00648433679932,
165,0,165,0,,,,,,,,,,,,,,,,,,,,,,,,,,,,,,,,,,,,,,,,,,,,,,,,,,,,,,,,,371.30989918978594,371.30989918978594,371.30989918978594,371.30989918978594,371.30989918978594,371.30989918978594,l,1,2.330039670196129,373.6596875058458,374.67627419362543,,,,,329270,2023-05-16_15h10.52.968,eb_02psyexp,2022.2.4,60.00648433679932,
166,0,166,0,,,,,,,,,,,,,,,,,,,,,,,,,,,,,,,,,,,,,,,,,,,,,,,,,,,,,,,,,374.67627419362543,374.67627419362543,374.67627419362543,374.67627419362543,374.67627419362543,374.67627419362543,l,1,0.6676757042150712,375.37624262063764,376.3925090508128,,,,,329270,2023-05-16_15h10.52.968,eb_02psyexp,2022.2.4,60.00648433679932,
167,0,167,0,,,,,,,,,,,,,,,,,,,,,,,,,,,,,,,,,,,,,,,,,,,,,,,,,,,,,,,,,376.3925090508128,376.3925090508128,376.3925090508128,376.3925090508128,376.3925090508128,376.3925090508128,s,1,0.5674480526795378,376.9927877141745,378.0093988514127,,,,,329270,2023-05-16_15h10.52.968,eb_02psyexp,2022.2.4,60.00648433679932,
168,0,168,0,,,,,,,,,,,,,,,,,,,,,,,,,,,,,,,,,,,,,,,,,,,,,,,,,,,,,,,,,378.0093988514127,378.0093988514127,378.0093988514127,378.0093988514127,378.0093988514127,378.0093988514127,l,1,1.4295607024541823,379.459280497962,380.4755813384836,,,,,329270,2023-05-16_15h10.52.968,eb_02psyexp,2022.2.4,60.00648433679932,
169,0,169,0,,,,,,,,,,,,,,,,,,,,,,,,,,,,,,,,,,,,,,,,,,,,,,,,,,,,,,,,,380.4755813384836,380.4755813384836,380.4755813384836,380.4755813384836,380.4755813384836,380.4755813384836,s,1,0.523404029183439,381.0258352203673,382.04245088527387,,,,,329270,2023-05-16_15h10.52.968,eb_02psyexp,2022.2.4,60.00648433679932,
170,0,170,0,,,,,,,,,,,,,,,,,,,,,,,,,,,,,,,,,,,,,,,,,,,,,,,,,,,,,,,,,382.04245088527387,382.04245088527387,382.04245088527387,382.04245088527387,382.04245088527387,382.04245088527387,l,1,0.8525452377361944,382.9256938965118,383.94233008688025,,,,,329270,2023-05-16_15h10.52.968,eb_02psyexp,2022.2.4,60.00648433679932,
171,0,171,0,,,,,,,,,,,,,,,,,,,,,,,,,,,,,,,,,,,,,,,,,,,,,,,,,,,,,,,,,383.94233008688025,383.94233008688025,383.94233008688025,383.94233008688025,383.94233008688025,383.94233008688025,l,1,1.520680481218733,385.4921846277575,386.5255128498393,,,,,329270,2023-05-16_15h10.52.968,eb_02psyexp,2022.2.4,60.00648433679932,
172,0,172,0,,,,,,,,,,,,,,,,,,,,,,,,,,,,,,,,,,,,,,,,,,,,,,,,,,,,,,,,,386.5255128498393,386.5255128498393,386.5255128498393,386.5255128498393,386.5255128498393,386.5255128498393,s,1,0.617519318300765,387.1754154444352,388.1920332222653,,,,,329270,2023-05-16_15h10.52.968,eb_02psyexp,2022.2.4,60.00648433679932,
173,0,173,0,,,,,,,,,,,,,,,,,,,,,,,,,,,,,,,,,,,,,,,,,,,,,,,,,,,,,,,,,388.1920332222653,388.1920332222653,388.1920332222653,388.1920332222653,388.1920332222653,388.1920332222653,s,1,0.7909978230163688,389.00861556349264,390.041880699966,,,,,329270,2023-05-16_15h10.52.968,eb_02psyexp,2022.2.4,60.00648433679932,
174,0,174,0,,,,,,,,,,,,,,,,,,,,,,,,,,,,,,,,,,,,,,,,,,,,,,,,,,,,,,,,,390.041880699966,390.041880699966,390.041880699966,390.041880699966,390.041880699966,390.041880699966,s,1,0.4931594562076498,390.55851417373924,391.57511444455304,,,,,329270,2023-05-16_15h10.52.968,eb_02psyexp,2022.2.4,60.00648433679932,
175,0,175,0,,,,,,,,,,,,,,,,,,,,,,,,,,,,,,,,,,,,,,,,,,,,,,,,,,,,,,,,,391.57511444455304,391.57511444455304,391.57511444455304,391.57511444455304,391.57511444455304,391.57511444455304,l,1,0.6079303044971311,392.2083844709123,393.24166077564587,,,,,329270,2023-05-16_15h10.52.968,eb_02psyexp,2022.2.4,60.00648433679932,
176,0,176,0,,,,,,,,,,,,,,,,,,,,,,,,,,,,,,,,,,,,,,,,,,,,,,,,,,,,,,,,,393.24166077564587,393.24166077564587,393.24166077564587,393.24166077564587,393.24166077564587,393.24166077564587,s,1,0.564424772572238,393.82493529950443,394.84155669948086,,,,,329270,2023-05-16_15h10.52.968,eb_02psyexp,2022.2.4,60.00648433679932,
177,0,177,0,,,,,,,,,,,,,,,,,,,,,,,,,,,,,,,,,,,,,,,,,,,,,,,,,,,,,,,,,394.84155669948086,394.84155669948086,394.84155669948086,394.84155669948086,394.84155669948086,394.84155669948086,l,1,0.6125117087794933,395.4748400070239,396.4914451073564,,,,,329270,2023-05-16_15h10.52.968,eb_02psyexp,2022.2.4,60.00648433679932,
178,0,178,0,,,,,,,,,,,,,,,,,,,,,,,,,,,,,,,,,,,,,,,,,,,,,,,,,,,,,,,,,396.4914451073564,396.4914451073564,396.4914451073564,396.4914451073564,396.4914451073564,396.4914451073564,l,1,0.6266320206050295,397.14137728278,398.1746037830744,,,,,329270,2023-05-16_15h10.52.968,eb_02psyexp,2022.2.4,60.00648433679932,
179,0,179,0,,,,,,,,,,,,,,,,,,,,,,,,,,,,,,,,,,,,,,,,,,,,,,,,,,,,,,,,,398.1746037830744,398.1746037830744,398.1746037830744,398.1746037830744,398.1746037830744,398.1746037830744,s,1,0.7594954616652103,398.95791102694056,399.97453635089914,,,,,329270,2023-05-16_15h10.52.968,eb_02psyexp,2022.2.4,60.00648433679932,
180,0,180,0,,,,,,,,,,,,,,,,,,,,,,,,,,,,,,,,,,,,,,,,,,,,,,,,,,,,,,,,,399.97453635089914,399.97453635089914,399.97453635089914,399.97453635089914,399.97453635089914,399.97453635089914,s,1,0.6395799662132049,400.64113973070926,401.67440698010614,,,,,329270,2023-05-16_15h10.52.968,eb_02psyexp,2022.2.4,60.00648433679932,
181,0,181,0,,,,,,,,,,,,,,,,,,,,,,,,,,,,,,,,,,,,,,,,,,,,,,,,,,,,,,,,,401.67440698010614,401.67440698010614,401.67440698010614,401.67440698010614,401.67440698010614,401.67440698010614,s,1,0.6356710727122845,402.3410118691536,403.35733293328667,,,,,329270,2023-05-16_15h10.52.968,eb_02psyexp,2022.2.4,60.00648433679932,
182,0,182,0,,,,,,,,,,,,,,,,,,,,,,,,,,,,,,,,,,,,,,,,,,,,,,,,,,,,,,,,,403.35733293328667,403.35733293328667,403.35733293328667,403.35733293328667,403.35733293328667,403.35733293328667,s,1,0.6887779940734617,404.07422339793993,405.09078352336655,,,,,329270,2023-05-16_15h10.52.968,eb_02psyexp,2022.2.4,60.00648433679932,
183,0,183,0,,,,,,,,,,,,,,,,,,,,,,,,,,,,,,,,,,,,,,,,,,,,,,,,,,,,,,,,,405.09078352336655,405.09078352336655,405.09078352336655,405.09078352336655,405.09078352336655,405.09078352336655,l,1,0.5553159942501225,405.67410573874076,406.6907217054977,,,,,329270,2023-05-16_15h10.52.968,eb_02psyexp,2022.2.4,60.00648433679932,
184,0,184,0,,,,,,,,,,,,,,,,,,,,,,,,,,,,,,,,,,,,,,,,,,,,,,,,,,,,,,,,,406.6907217054977,406.6907217054977,406.6907217054977,406.6907217054977,406.6907217054977,406.6907217054977,l,1,1.2354100371157983,407.9572901316569,408.973897344913,,,,,329270,2023-05-16_15h10.52.968,eb_02psyexp,2022.2.4,60.00648433679932,
185,0,185,0,,,,,,,,,,,,,,,,,,,,,,,,,,,,,,,,,,,,,,,,,,,,,,,,,,,,,,,,,408.973897344913,408.973897344913,408.973897344913,408.973897344913,408.973897344913,408.973897344913,l,1,0.5752368625544477,409.57383582887996,410.5904575306922,,,,,329270,2023-05-16_15h10.52.968,eb_02psyexp,2022.2.4,60.00648433679932,
186,0,186,0,,,,,,,,,,,,,,,,,,,,,,,,,,,,,,,,,,,,,,,,,,,,,,,,,,,,,,,,,410.5904575306922,410.5904575306922,410.5904575306922,410.5904575306922,410.5904575306922,410.5904575306922,s,1,0.5027327740681358,411.1236879549833,412.14034014315985,,,,,329270,2023-05-16_15h10.52.968,eb_02psyexp,2022.2.4,60.00648433679932,
187,0,187,0,,,,,,,,,,,,,,,,,,,,,,,,,,,,,,,,,,,,,,,,,,,,,,,,,,,,,,,,,412.14034014315985,412.14034014315985,412.14034014315985,412.14034014315985,412.14034014315985,412.14034014315985,l,1,0.6088412728859112,412.77364488170133,413.7902213067573,,,,,329270,2023-05-16_15h10.52.968,eb_02psyexp,2022.2.4,60.00648433679932,
188,0,188,0,,,,,,,,,,,,,,,,,,,,,,,,,,,,,,,,,,,,,,,,,,,,,,,,,,,,,,,,,413.7902213067573,413.7902213067573,413.7902213067573,413.7902213067573,413.7902213067573,413.7902213067573,s,1,0.5909503126022173,414.4068391449546,415.4401057906507,,,,,329270,2023-05-16_15h10.52.968,eb_02psyexp,2022.2.4,60.00648433679932,
189,0,189,0,,,,,,,,,,,,,,,,,,,,,,,,,,,,,,,,,,,,,,,,,,,,,,,,,,,,,,,,,415.4401057906507,415.4401057906507,415.4401057906507,415.4401057906507,415.4401057906507,415.4401057906507,s,1,0.6690451752510853,416.1400443349994,417.1566630183661,,,,,329270,2023-05-16_15h10.52.968,eb_02psyexp,2022.2.4,60.00648433679932,
190,0,190,0,,,,,,,,,,,,,,,,,,,,,,,,,,,,,,,,,,,,,,,,,,,,,,,,,,,,,,,,,417.1566630183661,417.1566630183661,417.1566630183661,417.1566630183661,417.1566630183661,417.1566630183661,l,1,0.9525286966236308,418.1399075991794,419.17318994083325,,,,,329270,2023-05-16_15h10.52.968,eb_02psyexp,2022.2.4,60.00648433679932,
191,0,191,0,,,,,,,,,,,,,,,,,,,,,,,,,,,,,,,,,,,,,,,,,,,,,,,,,,,,,,,,,419.17318994083325,419.17318994083325,419.17318994083325,419.17318994083325,419.17318994083325,419.17318994083325,s,1,0.6240424918505596,419.8231284549838,420.8397208778333,,,,,329270,2023-05-16_15h10.52.968,eb_02psyexp,2022.2.4,60.00648433679932,
192,0,192,0,,,,,,,,,,,,,,,,,,,,,,,,,,,,,,,,,,,,,,,,,,,,,,,,,,,,,,,,,420.8397208778333,420.8397208778333,420.8397208778333,420.8397208778333,420.8397208778333,420.8397208778333,l,1,0.7735152590757934,421.6396649157541,422.67294906846655,,,,,329270,2023-05-16_15h10.52.968,eb_02psyexp,2022.2.4,60.00648433679932,
193,0,193,0,,,,,,,,,,,,,,,,,,,,,,,,,,,,,,,,,,,,,,,,,,,,,,,,,,,,,,,,,422.67294906846655,422.67294906846655,422.67294906846655,422.67294906846655,422.67294906846655,422.67294906846655,s,1,0.5642723408236634,423.25621544251044,424.27279066017945,,,,,329270,2023-05-16_15h10.52.968,eb_02psyexp,2022.2.4,60.00648433679932,
194,0,194,0,,,,,,,,,,,,,,,,,,,,,,,,,,,,,,,,,,,,,,,,,,,,,,,,,,,,,,,,,424.27279066017945,424.27279066017945,424.27279066017945,424.27279066017945,424.27279066017945,424.27279066017945,l,1,0.8034447058162186,425.1060967268422,426.12271450467233,,,,,329270,2023-05-16_15h10.52.968,eb_02psyexp,2022.2.4,60.00648433679932,
195,0,195,0,,,,,,,,,,,,,,,,,,,,,,,,,,,,,,,,,,,,,,,,,,,,,,,,,,,,,,,,,426.12271450467233,426.12271450467233,426.12271450467233,426.12271450467233,426.12271450467233,426.12271450467233,s,1,0.6735296872793697,426.8226479176519,427.8392258519307,,,,,329270,2023-05-16_15h10.52.968,eb_02psyexp,2022.2.4,60.00648433679932,
196,0,196,0,,,,,,,,,,,,,,,,,,,,,,,,,,,,,,,,,,,,,,,,,,,,,,,,,,,,,,,,,427.8392258519307,427.8392258519307,427.8392258519307,427.8392258519307,427.8392258519307,427.8392258519307,l,1,1.0050355500134174,428.8724918939406,429.8891054459382,,,,,329270,2023-05-16_15h10.52.968,eb_02psyexp,2022.2.4,60.00648433679932,
197,0,197,0,,,,,,,,,,,,,,,,,,,,,,,,,,,,,,,,,,,,,,,,,,,,,,,,,,,,,,,,,429.8891054459382,429.8891054459382,429.8891054459382,429.8891054459382,429.8891054459382,429.8891054459382,s,1,0.6671791691042017,430.5890231629746,431.6056554293755,,,,,329270,2023-05-16_15h10.52.968,eb_02psyexp,2022.2.4,60.00648433679932,
198,0,198,0,,,,,,,,,,,,,,,,,,,,,,,,,,,,,,,,,,,,,,,,,,,,,,,,,,,,,,,,,431.6056554293755,431.6056554293755,431.6056554293755,431.6056554293755,431.6056554293755,431.6056554293755,l,1,0.5266262251680018,432.15559961822873,433.1888578122598,,,,,329270,2023-05-16_15h10.52.968,eb_02psyexp,2022.2.4,60.00648433679932,
199,0,199,0,,,,,0,0,0,0,,,,,,,,,,,,,,,,,,,,,,,,,,,,,,,,,,,,,,,,,,,,,,,,,433.1888578122598,433.1888578122598,433.1888578122598,433.1888578122598,433.1888578122598,433.1888578122598,s,1,0.6234421220142394,433.83881715372263,434.83874652198574,434.83874652198574,434.83874652198574,space,3.1655833142867777,329270,2023-05-16_15h10.52.968,eb_02psyexp,2022.2.4,60.00648433679932,
199,0,199,0,,,,,,,,,,,,,,,,,,,,,,,,,,,,,,,,,,,,,,,,,,,,,,,,,,,,,,,,,,,,,,,,,,,,,,,,329270,2023-05-16_15h10.52.968,eb_02psyexp,2022.2.4,60.00648433679932,
200,0,200,0,,,,,,,,,,,,,,,,,,,,,,,,,,,,,,,,,,,,,,,,,,,,,,,,,,,,,,,,,438.0385006389988,438.0385006389988,438.0385006389988,438.0385006389988,438.0385006389988,438.0385006389988,l,1,2.6527959502418526,440.7216641442501,441.7549223382812,,,,,329270,2023-05-16_15h10.52.968,eb_02psyexp,2022.2.4,60.00648433679932,
201,0,201,0,,,,,,,,,,,,,,,,,,,,,,,,,,,,,,,,,,,,,,,,,,,,,,,,,,,,,,,,,441.7549223382812,441.7549223382812,441.7549223382812,441.7549223382812,441.7549223382812,441.7549223382812,s,1,1.3764075988001423,443.1548172358307,444.1714401450299,,,,,329270,2023-05-16_15h10.52.968,eb_02psyexp,2022.2.4,60.00648433679932,
202,0,202,0,,,,,,,,,,,,,,,,,,,,,,,,,,,,,,,,,,,,,,,,,,,,,,,,,,,,,,,,,444.1714401450299,444.1714401450299,444.1714401450299,444.1714401450299,444.1714401450299,444.1714401450299,l,1,1.447911976458272,445.63798333694285,446.67129978707817,,,,,329270,2023-05-16_15h10.52.968,eb_02psyexp,2022.2.4,60.00648433679932,
203,0,203,0,,,,,,,,,,,,,,,,,,,,,,,,,,,,,,,,,,,,,,,,,,,,,,,,,,,,,,,,,446.67129978707817,446.67129978707817,446.67129978707817,446.67129978707817,446.67129978707817,446.67129978707817,s,1,0.8760468939581187,447.57118049790733,448.58781185875705,,,,,329270,2023-05-16_15h10.52.968,eb_02psyexp,2022.2.4,60.00648433679932,
204,0,204,0,,,,,,,,,,,,,,,,,,,,,,,,,,,,,,,,,,,,,,,,,,,,,,,,,,,,,,,,,448.58781185875705,448.58781185875705,448.58781185875705,448.58781185875705,448.58781185875705,448.58781185875705,l,1,0.9275558475783328,449.5376892794884,450.57097494142363,,,,,329270,2023-05-16_15h10.52.968,eb_02psyexp,2022.2.4,60.00648433679932,
205,0,205,0,,,,,,,,,,,,,,,,,,,,,,,,,,,,,,,,,,,,,,,,,,,,,,,,,,,,,,,,,450.57097494142363,450.57097494142363,450.57097494142363,450.57097494142363,450.57097494142363,450.57097494142363,s,1,1.3924047831824282,451.98752564928145,453.0041219961131,,,,,329270,2023-05-16_15h10.52.968,eb_02psyexp,2022.2.4,60.00648433679932,
206,0,206,0,,,,,,,,,,,,,,,,,,,,,,,,,,,,,,,,,,,,,,,,,,,,,,,,,,,,,,,,,453.0041219961131,453.0041219961131,453.0041219961131,453.0041219961131,453.0041219961131,453.0041219961131,l,1,1.0312990885286126,454.0540661849518,455.0873213605373,,,,,329270,2023-05-16_15h10.52.968,eb_02psyexp,2022.2.4,60.00648433679932,
207,0,207,0,,,,,,,,,,,,,,,,,,,,,,,,,,,,,,,,,,,,,,,,,,,,,,,,,,,,,,,,,455.0873213605373,455.0873213605373,455.0873213605373,455.0873213605373,455.0873213605373,455.0873213605373,s,1,0.47609706060029566,455.5872954018705,456.60387846751837,,,,,329270,2023-05-16_15h10.52.968,eb_02psyexp,2022.2.4,60.00648433679932,
208,0,208,0,,,,,,,,,,,,,,,,,,,,,,,,,,,,,,,,,,,,,,,,,,,,,,,,,,,,,,,,,456.60387846751837,456.60387846751837,456.60387846751837,456.60387846751837,456.60387846751837,456.60387846751837,l,1,0.5025145400868496,457.137174995878,458.17044798031566,,,,,329270,2023-05-16_15h10.52.968,eb_02psyexp,2022.2.4,60.00648433679932,
209,0,209,0,,,,,,,,,,,,,,,,,,,,,,,,,,,,,,,,,,,,,,,,,,,,,,,,,,,,,,,,,458.17044798031566,458.17044798031566,458.17044798031566,458.17044798031566,458.17044798031566,458.17044798031566,s,1,0.41597224163706414,458.603742637235,459.6203604150651,,,,,329270,2023-05-16_15h10.52.968,eb_02psyexp,2022.2.4,60.00648433679932,
210,0,210,0,,,,,,,,,,,,,,,,,,,,,,,,,,,,,,,,,,,,,,,,,,,,,,,,,,,,,,,,,459.6203604150651,459.6203604150651,459.6203604150651,459.6203604150651,459.6203604150651,459.6203604150651,l,1,0.4620458713034168,460.10358477228147,461.136901826103,,,,,329270,2023-05-16_15h10.52.968,eb_02psyexp,2022.2.4,60.00648433679932,
211,0,211,0,,,,,,,,,,,,,,,,,,,,,,,,,,,,,,,,,,,,,,,,,,,,,,,,,,,,,,,,,461.136901826103,461.136901826103,461.136901826103,461.136901826103,461.136901826103,461.136901826103,s,1,0.36152422268060036,461.52020128235745,462.53682026755996,,,,,329270,2023-05-16_15h10.52.968,eb_02psyexp,2022.2.4,60.00648433679932,
212,0,212,0,,,,,,,,,,,,,,,,,,,,,,,,,,,,,,,,,,,,,,,,,,,,,,,,,,,,,,,,,462.53682026755996,462.53682026755996,462.53682026755996,462.53682026755996,462.53682026755996,462.53682026755996,l,1,0.4496493966144044,463.00345854066836,464.0367230734555,,,,,329270,2023-05-16_15h10.52.968,eb_02psyexp,2022.2.4,60.00648433679932,
213,0,213,0,,,,,,,,,,,,,,,,,,,,,,,,,,,,,,,,,,,,,,,,,,,,,,,,,,,,,,,,,464.0367230734555,464.0367230734555,464.0367230734555,464.0367230734555,464.0367230734555,464.0367230734555,s,1,0.45373788791766856,464.5199827465258,465.5365932800778,,,,,329270,2023-05-16_15h10.52.968,eb_02psyexp,2022.2.4,60.00648433679932,
214,0,214,0,,,,,,,,,,,,,,,,,,,,,,,,,,,,,,,,,,,,,,,,,,,,,,,,,,,,,,,,,465.5365932800778,465.5365932800778,465.5365932800778,465.5365932800778,465.5365932800778,465.5365932800778,l,1,0.44187205685011577,466.00321706463,467.0364978970465,,,,,329270,2023-05-16_15h10.52.968,eb_02psyexp,2022.2.4,60.00648433679932,
215,0,215,0,,,,,,,,,,,,,,,,,,,,,,,,,,,,,,,,,,,,,,,,,,,,,,,,,,,,,,,,,467.0364978970465,467.0364978970465,467.0364978970465,467.0364978970465,467.0364978970465,467.0364978970465,s,1,0.5819782700855285,467.6364535861794,468.6697027248738,,,,,329270,2023-05-16_15h10.52.968,eb_02psyexp,2022.2.4,60.00648433679932,
216,0,216,0,,,,,,,,,,,,,,,,,,,,,,,,,,,,,,,,,,,,,,,,,,,,,,,,,,,,,,,,,468.6697027248738,468.6697027248738,468.6697027248738,468.6697027248738,468.6697027248738,468.6697027248738,l,1,0.5167589102347847,469.2029965366237,470.23626801183855,,,,,329270,2023-05-16_15h10.52.968,eb_02psyexp,2022.2.4,60.00648433679932,
217,0,217,0,,,,,,,,,,,,,,,,,,,,,,,,,,,,,,,,,,,,,,,,,,,,,,,,,,,,,,,,,470.23626801183855,470.23626801183855,470.23626801183855,470.23626801183855,470.23626801183855,470.23626801183855,s,1,0.5182240661379183,470.78624087596836,471.80283329881786,,,,,329270,2023-05-16_15h10.52.968,eb_02psyexp,2022.2.4,60.00648433679932,
218,0,218,0,,,,,,,,,,,,,,,,,,,,,,,,,,,,,,,,,,,,,,,,,,,,,,,,,,,,,,,,,471.80283329881786,471.80283329881786,471.80283329881786,471.80283329881786,471.80283329881786,471.80283329881786,s,1,0.5746539997635409,472.40278234737343,473.4360544262745,,,,,329270,2023-05-16_15h10.52.968,eb_02psyexp,2022.2.4,60.00648433679932,
219,0,219,0,,,,,,,,,,,,,,,,,,,,,,,,,,,,,,,,,,,,,,,,,,,,,,,,,,,,,,,,,473.4360544262745,473.4360544262745,473.4360544262745,473.4360544262745,473.4360544262745,473.4360544262745,s,1,0.5654579882102553,474.01932774276065,475.0359452187404,,,,,329270,2023-05-16_15h10.52.968,eb_02psyexp,2022.2.4,60.00648433679932,
220,0,220,0,,,,,,,,,,,,,,,,,,,,,,,,,,,,,,,,,,,,,,,,,,,,,,,,,,,,,,,,,475.0359452187404,475.0359452187404,475.0359452187404,475.0359452187404,475.0359452187404,475.0359452187404,l,1,0.9815722281200578,476.0358546652278,477.0524630858563,,,,,329270,2023-05-16_15h10.52.968,eb_02psyexp,2022.2.4,60.00648433679932,
221,0,221,0,,,,,,,,,,,,,,,,,,,,,,,,,,,,,,,,,,,,,,,,,,,,,,,,,,,,,,,,,477.0524630858563,477.0524630858563,477.0524630858563,477.0524630858563,477.0524630858563,477.0524630858563,s,0,0.6931278832053067,477.769078267811,478.8023298212647,,,,,329270,2023-05-16_15h10.52.968,eb_02psyexp,2022.2.4,60.00648433679932,
222,0,222,0,,,,,,,,,,,,,,,,,,,,,,,,,,,,,,,,,,,,,,,,,,,,,,,,,,,,,,,,,478.8023298212647,478.8023298212647,478.8023298212647,478.8023298212647,478.8023298212647,478.8023298212647,s,1,0.7191912984417286,479.5522702068556,480.5688650444645,,,,,329270,2023-05-16_15h10.52.968,eb_02psyexp,2022.2.4,60.00648433679932,
223,0,223,0,,,,,,,,,,,,,,,,,,,,,,,,,,,,,,,,,,,,,,,,,,,,,,,,,,,,,,,,,480.5688650444645,480.5688650444645,480.5688650444645,480.5688650444645,480.5688650444645,480.5688650444645,l,1,0.5526823961408809,481.15215194397024,482.1854270413314,,,,,329270,2023-05-16_15h10.52.968,eb_02psyexp,2022.2.4,60.00648433679932,
224,0,224,0,,,,,,,,,,,,,,,,,,,,,,,,,,,,,,,,,,,,,,,,,,,,,,,,,,,,,,,,,482.1854270413314,482.1854270413314,482.1854270413314,482.1854270413314,482.1854270413314,482.1854270413314,s,1,0.6801542807661463,482.885372226272,483.9019598195882,,,,,329270,2023-05-16_15h10.52.968,eb_02psyexp,2022.2.4,60.00648433679932,
225,0,225,0,,,,,,,,,,,,,,,,,,,,,,,,,,,,,,,,,,,,,,,,,,,,,,,,,,,,,,,,,483.9019598195882,483.9019598195882,483.9019598195882,483.9019598195882,483.9019598195882,483.9019598195882,l,1,0.939584976847982,484.8685745487892,485.8848566749075,,,,,329270,2023-05-16_15h10.52.968,eb_02psyexp,2022.2.4,60.00648433679932,
226,0,226,0,,,,,,,,,,,,,,,,,,,,,,,,,,,,,,,,,,,,,,,,,,,,,,,,,,,,,,,,,485.8848566749075,485.8848566749075,485.8848566749075,485.8848566749075,485.8848566749075,485.8848566749075,s,1,0.668685074095265,486.5851058178232,487.6017266140989,,,,,329270,2023-05-16_15h10.52.968,eb_02psyexp,2022.2.4,60.00648433679932,
227,0,227,0,,,,,,,,,,,,,,,,,,,,,,,,,,,,,,,,,,,,,,,,,,,,,,,,,,,,,,,,,487.6017266140989,487.6017266140989,487.6017266140989,487.6017266140989,487.6017266140989,487.6017266140989,l,1,0.9508377606107388,488.58496032850235,489.6015953114984,,,,,329270,2023-05-16_15h10.52.968,eb_02psyexp,2022.2.4,60.00648433679932,
228,0,228,0,,,,,,,,,,,,,,,,,,,,,,,,,,,,,,,,,,,,,,,,,,,,,,,,,,,,,,,,,489.6015953114984,489.6015953114984,489.6015953114984,489.6015953114984,489.6015953114984,489.6015953114984,l,1,0.9590165543049807,490.5848453255312,491.60145434986043,,,,,329270,2023-05-16_15h10.52.968,eb_02psyexp,2022.2.4,60.00648433679932,
229,0,229,0,,,,,,,,,,,,,,,,,,,,,,,,,,,,,,,,,,,,,,,,,,,,,,,,,,,,,,,,,491.60145434986043,491.60145434986043,491.60145434986043,491.60145434986043,491.60145434986043,491.60145434986043,l,1,0.8391508632776095,492.46807082975283,493.48467140240245,,,,,329270,2023-05-16_15h10.52.968,eb_02psyexp,2022.2.4,60.00648433679932,
230,0,230,0,,,,,,,,,,,,,,,,,,,,,,,,,,,,,,,,,,,,,,,,,,,,,,,,,,,,,,,,,493.48467140240245,493.48467140240245,493.48467140240245,493.48467140240245,493.48467140240245,493.48467140240245,l,1,0.5959485649073031,494.1012539247313,495.1345435106632,,,,,329270,2023-05-16_15h10.52.968,eb_02psyexp,2022.2.4,60.00648433679932,
231,0,231,0,,,,,,,,,,,,,,,,,,,,,,,,,,,,,,,,,,,,,,,,,,,,,,,,,,,,,,,,,495.1345435106632,495.1345435106632,495.1345435106632,495.1345435106632,495.1345435106632,495.1345435106632,s,1,0.594118780179997,495.75112633482786,496.76775105510023,,,,,329270,2023-05-16_15h10.52.968,eb_02psyexp,2022.2.4,60.00648433679932,
232,0,232,0,,,,,,,,,,,,,,,,,,,,,,,,,,,,,,,,,,,,,,,,,,,,,,,,,,,,,,,,,496.76775105510023,496.76775105510023,496.76775105510023,496.76775105510023,496.76775105510023,496.76775105510023,s,1,0.6328796096204314,497.41768926741497,498.4509553094249,,,,,329270,2023-05-16_15h10.52.968,eb_02psyexp,2022.2.4,60.00648433679932,
233,0,233,0,,,,,,,,,,,,,,,,,,,,,,,,,,,,,,,,,,,,,,,,,,,,,,,,,,,,,,,,,498.4509553094249,498.4509553094249,498.4509553094249,498.4509553094249,498.4509553094249,498.4509553094249,s,1,0.7977181013848167,499.2675672314508,500.30082512364606,,,,,329270,2023-05-16_15h10.52.968,eb_02psyexp,2022.2.4,60.00648433679932,
234,0,234,0,,,,,,,,,,,,,,,,,,,,,,,,,,,,,,,,,,,,,,,,,,,,,,,,,,,,,,,,,500.30082512364606,500.30082512364606,500.30082512364606,500.30082512364606,500.30082512364606,500.30082512364606,l,1,0.6278424192860257,500.95077329684864,501.9673871506966,,,,,329270,2023-05-16_15h10.52.968,eb_02psyexp,2022.2.4,60.00648433679932,
235,0,235,0,,,,,,,,,,,,,,,,,,,,,,,,,,,,,,,,,,,,,,,,,,,,,,,,,,,,,,,,,501.9673871506966,501.9673871506966,501.9673871506966,501.9673871506966,501.9673871506966,501.9673871506966,l,1,0.5442995551711647,502.53399620519485,503.567262850891,,,,,329270,2023-05-16_15h10.52.968,eb_02psyexp,2022.2.4,60.00648433679932,
236,0,236,0,,,,,,,,,,,,,,,,,,,,,,,,,,,,,,,,,,,,,,,,,,,,,,,,,,,,,,,,,503.567262850891,503.567262850891,503.567262850891,503.567262850891,503.567262850891,503.567262850891,s,1,0.6244167797267437,504.21721072225773,505.25048189563677,,,,,329270,2023-05-16_15h10.52.968,eb_02psyexp,2022.2.4,60.00648433679932,
237,0,237,0,,,,,,,,,,,,,,,,,,,,,,,,,,,,,,,,,,,,,,,,,,,,,,,,,,,,,,,,,505.25048189563677,505.25048189563677,505.25048189563677,505.25048189563677,505.25048189563677,505.25048189563677,l,1,1.0052380880515557,506.2837352601491,507.3170166962518,,,,,329270,2023-05-16_15h10.52.968,eb_02psyexp,2022.2.4,60.00648433679932,
238,0,238,0,,,,,,,,,,,,,,,,,,,,,,,,,,,,,,,,,,,,,,,,,,,,,,,,,,,,,,,,,507.3170166962518,507.3170166962518,507.3170166962518,507.3170166962518,507.3170166962518,507.3170166962518,s,1,0.6746845464658691,508.0169458833989,509.05020860511286,,,,,329270,2023-05-16_15h10.52.968,eb_02psyexp,2022.2.4,60.00648433679932,
239,0,239,0,,,,,,,,,,,,,,,,,,,,,,,,,,,,,,,,,,,,,,,,,,,,,,,,,,,,,,,,,509.05020860511286,509.05020860511286,509.05020860511286,509.05020860511286,509.05020860511286,509.05020860511286,l,1,0.6535067953518592,509.7335179015208,510.75011787048425,,,,,329270,2023-05-16_15h10.52.968,eb_02psyexp,2022.2.4,60.00648433679932,
240,0,240,0,,,,,,,,,,,,,,,,,,,,,,,,,,,,,,,,,,,,,,,,,,,,,,,,,,,,,,,,,510.75011787048425,510.75011787048425,510.75011787048425,510.75011787048425,510.75011787048425,510.75011787048425,s,1,0.6256477038696175,511.40005638464936,512.4166753698664,,,,,329270,2023-05-16_15h10.52.968,eb_02psyexp,2022.2.4,60.00648433679932,
241,0,241,0,,,,,,,,,,,,,,,,,,,,,,,,,,,,,,,,,,,,,,,,,,,,,,,,,,,,,,,,,512.4166753698664,512.4166753698664,512.4166753698664,512.4166753698664,512.4166753698664,512.4166753698664,l,1,0.8710435102693737,513.3165778135444,514.349842346317,,,,,329270,2023-05-16_15h10.52.968,eb_02psyexp,2022.2.4,60.00648433679932,
242,0,242,0,,,,,,,,,,,,,,,,,,,,,,,,,,,,,,,,,,,,,,,,,,,,,,,,,,,,,,,,,514.349842346317,514.349842346317,514.349842346317,514.349842346317,514.349842346317,514.349842346317,s,1,0.6099001453403616,514.983138633208,516.0163922995707,,,,,329270,2023-05-16_15h10.52.968,eb_02psyexp,2022.2.4,60.00648433679932,
243,0,243,0,,,,,,,,,,,,,,,,,,,,,,,,,,,,,,,,,,,,,,,,,,,,,,,,,,,,,,,,,516.0163922995707,516.0163922995707,516.0163922995707,516.0163922995707,516.0163922995707,516.0163922995707,l,1,0.6233805456431583,516.6663498299604,517.6829757576052,,,,,329270,2023-05-16_15h10.52.968,eb_02psyexp,2022.2.4,60.00648433679932,
244,0,244,0,,,,,,,,,,,,,,,,,,,,,,,,,,,,,,,,,,,,,,,,,,,,,,,,,,,,,,,,,517.6829757576052,517.6829757576052,517.6829757576052,517.6829757576052,517.6829757576052,517.6829757576052,l,1,0.7397771313990233,518.4495487114473,519.4661444545927,,,,,329270,2023-05-16_15h10.52.968,eb_02psyexp,2022.2.4,60.00648433679932,
245,0,245,0,,,,,,,,,,,,,,,,,,,,,,,,,,,,,,,,,,,,,,,,,,,,,,,,,,,,,,,,,519.4661444545927,519.4661444545927,519.4661444545927,519.4661444545927,519.4661444545927,519.4661444545927,s,1,0.43660787903354503,519.9327788037044,520.9494149940874,,,,,329270,2023-05-16_15h10.52.968,eb_02psyexp,2022.2.4,60.00648433679932,
246,0,246,0,,,,,,,,,,,,,,,,,,,,,,,,,,,,,,,,,,,,,,,,,,,,,,,,,,,,,,,,,520.9494149940874,520.9494149940874,520.9494149940874,520.9494149940874,520.9494149940874,520.9494149940874,l,1,0.9293702382419724,521.8993108273571,522.9159225682815,,,,,329270,2023-05-16_15h10.52.968,eb_02psyexp,2022.2.4,60.00648433679932,
247,0,247,0,,,,,,,,,,,,,,,,,,,,,,,,,,,,,,,,,,,,,,,,,,,,,,,,,,,,,,,,,522.9159225682815,522.9159225682815,522.9159225682815,522.9159225682815,522.9159225682815,522.9159225682815,s,1,0.49087086696818005,523.4325490996271,524.5324715858151,,,,,329270,2023-05-16_15h10.52.968,eb_02psyexp,2022.2.4,60.00648433679932,
248,0,248,0,,,,,,,,,,,,,,,,,,,,,,,,,,,,,,,,,,,,,,,,,,,,,,,,,,,,,,,,,524.5324715858151,524.5324715858151,524.5324715858151,524.5324715858151,524.5324715858151,524.5324715858151,l,1,0.5863399311783724,525.1490888203116,526.1823482217296,,,,,329270,2023-05-16_15h10.52.968,eb_02psyexp,2022.2.4,60.00648433679932,
249,0,249,0,,,,,,,,,,,,,,,,,,,,,,,,,,,,,,,,,,,,,,,,,,,,,,,,,,,,,,,,,526.1823482217296,526.1823482217296,526.1823482217296,526.1823482217296,526.1823482217296,526.1823482217296,s,1,0.49646254668186884,526.6989747530752,527.7155910216679,,,,,329270,2023-05-16_15h10.52.968,eb_02psyexp,2022.2.4,60.00648433679932,
250,0,250,0,,,,,,,,,,,,,,,,,,,,,,,,,,,,,,,,,,,,,,,,,,,,,,,,,,,,,,,,,527.7155910216679,527.7155910216679,527.7155910216679,527.7155910216679,527.7155910216679,527.7155910216679,l,1,0.5792233302345267,528.3154932842444,529.3488212044904,,,,,329270,2023-05-16_15h10.52.968,eb_02psyexp,2022.2.4,60.00648433679932,
251,0,251,0,,,,,,,,,,,,,,,,,,,,,,,,,,,,,,,,,,,,,,,,,,,,,,,,,,,,,,,,,529.3488212044904,529.3488212044904,529.3488212044904,529.3488212044904,529.3488212044904,529.3488212044904,s,1,0.5219892813911429,529.8987391328119,530.9320368685585,,,,,329270,2023-05-16_15h10.52.968,eb_02psyexp,2022.2.4,60.00648433679932,
252,0,252,0,,,,,,,,,,,,,,,,,,,,,,,,,,,,,,,,,,,,,,,,,,,,,,,,,,,,,,,,,530.9320368685585,530.9320368685585,530.9320368685585,530.9320368685585,530.9320368685585,530.9320368685585,l,1,0.8027721950347768,531.7653036953707,532.7985434768489,,,,,329270,2023-05-16_15h10.52.968,eb_02psyexp,2022.2.4,60.00648433679932,
253,0,253,0,,,,,,,,,,,,,,,,,,,,,,,,,,,,,,,,,,,,,,,,,,,,,,,,,,,,,,,,,532.7985434768489,532.7985434768489,532.7985434768489,532.7985434768489,532.7985434768489,532.7985434768489,s,1,0.6163055993238231,533.431845800631,534.4651211998425,,,,,329270,2023-05-16_15h10.52.968,eb_02psyexp,2022.2.4,60.00648433679932,
254,0,254,0,,,,,,,,,,,,,,,,,,,,,,,,,,,,,,,,,,,,,,,,,,,,,,,,,,,,,,,,,534.4651211998425,534.4651211998425,534.4651211998425,534.4651211998425,534.4651211998425,534.4651211998425,l,1,0.5887284311174881,535.0817154941178,536.114986365661,,,,,329270,2023-05-16_15h10.52.968,eb_02psyexp,2022.2.4,60.00648433679932,
255,0,255,0,,,,,,,,,,,,,,,,,,,,,,,,,,,,,,,,,,,,,,,,,,,,,,,,,,,,,,,,,536.114986365661,536.114986365661,536.114986365661,536.114986365661,536.114986365661,536.114986365661,s,1,0.5788571921730181,536.7149550341419,537.7315540975687,,,,,329270,2023-05-16_15h10.52.968,eb_02psyexp,2022.2.4,60.00648433679932,
256,0,256,0,,,,,,,,,,,,,,,,,,,,,,,,,,,,,,,,,,,,,,,,,,,,,,,,,,,,,,,,,537.7315540975687,537.7315540975687,537.7315540975687,537.7315540975687,537.7315540975687,537.7315540975687,l,1,0.674341348640155,538.4314995843597,539.44808385738,,,,,329270,2023-05-16_15h10.52.968,eb_02psyexp,2022.2.4,60.00648433679932,
257,0,257,0,,,,,,,,,,,,,,,,,,,,,,,,,,,,,,,,,,,,,,,,,,,,,,,,,,,,,,,,,539.44808385738,539.44808385738,539.44808385738,539.44808385738,539.44808385738,539.44808385738,s,1,0.501799770994694,539.9813752543705,540.997966469833,,,,,329270,2023-05-16_15h10.52.968,eb_02psyexp,2022.2.4,60.00648433679932,
258,0,258,0,,,,,,,,,,,,,,,,,,,,,,,,,,,,,,,,,,,,,,,,,,,,,,,,,,,,,,,,,540.997966469833,540.997966469833,540.997966469833,540.997966469833,540.997966469833,540.997966469833,l,1,0.6079466041264823,541.6312784526672,542.6645191396819,,,,,329270,2023-05-16_15h10.52.968,eb_02psyexp,2022.2.4,60.00648433679932,
259,0,259,0,,,,,,,,,,,,,,,,,,,,,,,,,,,,,,,,,,,,,,,,,,,,,,,,,,,,,,,,,542.6645191396819,542.6645191396819,542.6645191396819,542.6645191396819,542.6645191396819,542.6645191396819,s,1,0.43738543191284407,543.131161336787,544.1644219455775,,,,,329270,2023-05-16_15h10.52.968,eb_02psyexp,2022.2.4,60.00648433679932,
260,0,260,0,,,,,,,,,,,,,,,,,,,,,,,,,,,,,,,,,,,,,,,,,,,,,,,,,,,,,,,,,544.1644219455775,544.1644219455775,544.1644219455775,544.1644219455775,544.1644219455775,544.1644219455775,l,1,0.569496071402682,544.7643628443184,545.7810050715925,,,,,329270,2023-05-16_15h10.52.968,eb_02psyexp,2022.2.4,60.00648433679932,
261,0,261,0,,,,,,,,,,,,,,,,,,,,,,,,,,,,,,,,,,,,,,,,,,,,,,,,,,,,,,,,,545.7810050715925,545.7810050715925,545.7810050715925,545.7810050715925,545.7810050715925,545.7810050715925,l,1,0.776894414506387,546.580639114647,547.6142009648174,,,,,329270,2023-05-16_15h10.52.968,eb_02psyexp,2022.2.4,60.00648433679932,
262,0,262,0,,,,,,,,,,,,,,,,,,,,,,,,,,,,,,,,,,,,,,,,,,,,,,,,,,,,,,,,,547.6142009648174,547.6142009648174,547.6142009648174,547.6142009648174,547.6142009648174,547.6142009648174,l,1,0.5837298769620247,548.230778657613,549.2640564715839,,,,,329270,2023-05-16_15h10.52.968,eb_02psyexp,2022.2.4,60.00648433679932,
263,0,263,0,,,,,,,,,,,,,,,,,,,,,,,,,,,,,,,,,,,,,,,,,,,,,,,,,,,,,,,,,549.2640564715839,549.2640564715839,549.2640564715839,549.2640564715839,549.2640564715839,549.2640564715839,s,1,0.43687803036300465,549.7306986686744,550.7472699623613,,,,,329270,2023-05-16_15h10.52.968,eb_02psyexp,2022.2.4,60.00648433679932,
264,0,264,0,,,,,,,,,,,,,,,,,,,,,,,,,,,,,,,,,,,,,,,,,,,,,,,,,,,,,,,,,550.7472699623613,550.7472699623613,550.7472699623613,550.7472699623613,550.7472699623613,550.7472699623613,l,1,0.5616797936236253,551.3305819150119,552.3638696898561,,,,,329270,2023-05-16_15h10.52.968,eb_02psyexp,2022.2.4,60.00648433679932,
265,0,265,0,,,,,,,,,,,,,,,,,,,,,,,,,,,,,,,,,,,,,,,,,,,,,,,,,,,,,,,,,552.3638696898561,552.3638696898561,552.3638696898561,552.3638696898561,552.3638696898561,552.3638696898561,s,1,0.46509661931486335,552.8471520013118,553.86374925368,,,,,329270,2023-05-16_15h10.52.968,eb_02psyexp,2022.2.4,60.00648433679932,
266,0,266,0,,,,,,,,,,,,,,,,,,,,,,,,,,,,,,,,,,,,,,,,,,,,,,,,,,,,,,,,,553.86374925368,553.86374925368,553.86374925368,553.86374925368,553.86374925368,553.86374925368,l,1,0.9252153410052415,554.8136734603904,555.8469645555306,,,,,329270,2023-05-16_15h10.52.968,eb_02psyexp,2022.2.4,60.00648433679932,
267,0,267,0,,,,,,,,,,,,,,,,,,,,,,,,,,,,,,,,,,,,,,,,,,,,,,,,,,,,,,,,,555.8469645555306,555.8469645555306,555.8469645555306,555.8469645555306,555.8469645555306,555.8469645555306,l,1,0.5900728490087204,556.4635377206723,557.4802077176864,,,,,329270,2023-05-16_15h10.52.968,eb_02psyexp,2022.2.4,60.00648433679932,
268,0,268,0,,,,,,,,,,,,,,,,,,,,,,,,,,,,,,,,,,,,,,,,,,,,,,,,,,,,,,,,,557.4802077176864,557.4802077176864,557.4802077176864,557.4802077176864,557.4802077176864,557.4802077176864,s,1,0.5567929221288068,558.0634571884002,559.0967307765386,,,,,329270,2023-05-16_15h10.52.968,eb_02psyexp,2022.2.4,60.00648433679932,
269,0,269,0,,,,,,,,,,,,,,,,,,,,,,,,,,,,,,,,,,,,,,,,,,,,,,,,,,,,,,,,,559.0967307765386,559.0967307765386,559.0967307765386,559.0967307765386,559.0967307765386,559.0967307765386,l,1,1.1882542929088231,560.3132768359792,561.3465504241176,,,,,329270,2023-05-16_15h10.52.968,eb_02psyexp,2022.2.4,60.00648433679932,
270,0,270,0,,,,,,,,,,,,,,,,,,,,,,,,,,,,,,,,,,,,,,,,,,,,,,,,,,,,,,,,,561.3465504241176,561.3465504241176,561.3465504241176,561.3465504241176,561.3465504241176,561.3465504241176,s,1,0.6904867389530409,562.063166209773,563.09644160897,,,,,329270,2023-05-16_15h10.52.968,eb_02psyexp,2022.2.4,60.00648433679932,
271,0,271,0,,,,,,,,,,,,,,,,,,,,,,,,,,,,,,,,,,,,,,,,,,,,,,,,,,,,,,,,,563.09644160897,563.09644160897,563.09644160897,563.09644160897,563.09644160897,563.09644160897,l,1,1.0125810727768112,564.1296874273685,565.1629540730646,,,,,329270,2023-05-16_15h10.52.968,eb_02psyexp,2022.2.4,60.00648433679932,
272,0,272,0,,,,,,,,,,,,,,,,,,,,,,,,,,,,,,,,,,,,,,,,,,,,,,,,,,,,,,,,,565.1629540730646,565.1629540730646,565.1629540730646,565.1629540730646,565.1629540730646,565.1629540730646,s,1,0.6010521611606237,565.796215345923,566.8128403680312,,,,,329270,2023-05-16_15h10.52.968,eb_02psyexp,2022.2.4,60.00648433679932,
273,0,273,0,,,,,,,,,,,,,,,,,,,,,,,,,,,,,,,,,,,,,,,,,,,,,,,,,,,,,,,,,566.8128403680312,566.8128403680312,566.8128403680312,566.8128403680312,566.8128403680312,566.8128403680312,l,1,0.8311561950686155,567.6628019431519,568.696080360809,,,,,329270,2023-05-16_15h10.52.968,eb_02psyexp,2022.2.4,60.00648433679932,
274,0,274,0,,,,,,,,,,,,,,,,,,,,,,,,,,,,,,,,,,,,,,,,,,,,,,,,,,,,,,,,,568.696080360809,568.696080360809,568.696080360809,568.696080360809,568.696080360809,568.696080360809,s,1,0.6519694984745001,569.3793211383891,570.3955872667284,,,,,329270,2023-05-16_15h10.52.968,eb_02psyexp,2022.2.4,60.00648433679932,
275,0,275,0,,,,,,,,,,,,,,,,,,,,,,,,,,,,,,,,,,,,,,,,,,,,,,,,,,,,,,,,,570.3955872667284,570.3955872667284,570.3955872667284,570.3955872667284,570.3955872667284,570.3955872667284,l,1,0.8884693273139419,571.3125358063699,572.3291255126096,,,,,329270,2023-05-16_15h10.52.968,eb_02psyexp,2022.2.4,60.00648433679932,
276,0,276,0,,,,,,,,,,,,,,,,,,,,,,,,,,,,,,,,,,,,,,,,,,,,,,,,,,,,,,,,,572.3291255126096,572.3291255126096,572.3291255126096,572.3291255126096,572.3291255126096,572.3291255126096,s,1,0.5629309413925512,572.9124075825821,573.9456784541107,,,,,329270,2023-05-16_15h10.52.968,eb_02psyexp,2022.2.4,60.00648433679932,
277,0,277,0,,,,,,,,,,,,,,,,,,,,,,,,,,,,,,,,,,,,,,,,,,,,,,,,,,,,,,,,,573.9456784541107,573.9456784541107,573.9456784541107,573.9456784541107,573.9456784541107,573.9456784541107,l,1,0.7544093724427512,574.7289431378158,575.7455744986801,,,,,329270,2023-05-16_15h10.52.968,eb_02psyexp,2022.2.4,60.00648433679932,
278,0,278,0,,,,,,,,,,,,,,,,,,,,,,,,,,,,,,,,,,,,,,,,,,,,,,,,,,,,,,,,,575.7455744986801,575.7455744986801,575.7455744986801,575.7455744986801,575.7455744986801,575.7455744986801,s,1,0.7305210526974406,576.4954901329766,577.5121236067498,,,,,329270,2023-05-16_15h10.52.968,eb_02psyexp,2022.2.4,60.00648433679932,
279,0,279,0,,,,,,,,,,,,,,,,,,,,,,,,,,,,,,,,,,,,,,,,,,,,,,,,,,,,,,,,,577.5121236067498,577.5121236067498,577.5121236067498,577.5121236067498,577.5121236067498,577.5121236067498,l,1,0.5479696892434731,578.0787100228772,579.0953166324471,,,,,329270,2023-05-16_15h10.52.968,eb_02psyexp,2022.2.4,60.00648433679932,
280,0,280,0,,,,,,,,,,,,,,,,,,,,,,,,,,,,,,,,,,,,,,,,,,,,,,,,,,,,,,,,,579.0953166324471,579.0953166324471,579.0953166324471,579.0953166324471,579.0953166324471,579.0953166324471,s,1,0.48478114292083774,579.6119359195,580.6285488678113,,,,,329270,2023-05-16_15h10.52.968,eb_02psyexp,2022.2.4,60.00648433679932,
281,0,281,0,,,,,,,,,,,,,,,,,,,,,,,,,,,,,,,,,,,,,,,,,,,,,,,,,,,,,,,,,580.6285488678113,580.6285488678113,580.6285488678113,580.6285488678113,580.6285488678113,580.6285488678113,l,1,0.4865541807957925,581.1451485349244,582.1784299710416,,,,,329270,2023-05-16_15h10.52.968,eb_02psyexp,2022.2.4,60.00648433679932,
282,0,282,0,,,,,,,,,,,,,,,,,,,,,,,,,,,,,,,,,,,,,,,,,,,,,,,,,,,,,,,,,582.1784299710416,582.1784299710416,582.1784299710416,582.1784299710416,582.1784299710416,582.1784299710416,l,1,0.7446978095395025,582.9450361278286,583.9616388134018,,,,,329270,2023-05-16_15h10.52.968,eb_02psyexp,2022.2.4,60.00648433679932,
283,0,283,0,,,,,,,,,,,,,,,,,,,,,,,,,,,,,,,,,,,,,,,,,,,,,,,,,,,,,,,,,583.9616388134018,583.9616388134018,583.9616388134018,583.9616388134018,583.9616388134018,583.9616388134018,s,1,0.609509859685204,584.594936911366,585.6115338618838,,,,,329270,2023-05-16_15h10.52.968,eb_02psyexp,2022.2.4,60.00648433679932,
284,0,284,0,,,,,,,,,,,,,,,,,,,,,,,,,,,,,,,,,,,,,,,,,,,,,,,,,,,,,,,,,585.6115338618838,585.6115338618838,585.6115338618838,585.6115338618838,585.6115338618838,585.6115338618838,l,1,1.567615576699609,587.2114023178001,588.244680131771,,,,,329270,2023-05-16_15h10.52.968,eb_02psyexp,2022.2.4,60.00648433679932,
285,0,285,0,,,,,,,,,,,,,,,,,,,,,,,,,,,,,,,,,,,,,,,,,,,,,,,,,,,,,,,,,588.244680131771,588.244680131771,588.244680131771,588.244680131771,588.244680131771,588.244680131771,s,1,0.5984623305557761,588.8612871035439,589.8779063905968,,,,,329270,2023-05-16_15h10.52.968,eb_02psyexp,2022.2.4,60.00648433679932,
286,0,286,0,,,,,,,,,,,,,,,,,,,,,,,,,,,,,,,,,,,,,,,,,,,,,,,,,,,,,,,,,589.8779063905968,589.8779063905968,589.8779063905968,589.8779063905968,589.8779063905968,589.8779063905968,s,1,0.8932674563548062,590.7944824534352,591.8277804910176,,,,,329270,2023-05-16_15h10.52.968,eb_02psyexp,2022.2.4,60.00648433679932,
287,0,287,0,,,,,,,,,,,,,,,,,,,,,,,,,,,,,,,,,,,,,,,,,,,,,,,,,,,,,,,,,591.8277804910176,591.8277804910176,591.8277804910176,591.8277804910176,591.8277804910176,591.8277804910176,s,1,0.647380246213288,592.4943657601398,593.5276076545415,,,,,329270,2023-05-16_15h10.52.968,eb_02psyexp,2022.2.4,60.00648433679932,
288,0,288,0,,,,,,,,,,,,,,,,,,,,,,,,,,,,,,,,,,,,,,,,,,,,,,,,,,,,,,,,,593.5276076545415,593.5276076545415,593.5276076545415,593.5276076545415,593.5276076545415,593.5276076545415,l,1,0.6275659292150522,594.1775926528499,595.2108620151557,,,,,329270,2023-05-16_15h10.52.968,eb_02psyexp,2022.2.4,60.00648433679932,
289,0,289,0,,,,,,,,,,,,,,,,,,,,,,,,,,,,,,,,,,,,,,,,,,,,,,,,,,,,,,,,,595.2108620151557,595.2108620151557,595.2108620151557,595.2108620151557,595.2108620151557,595.2108620151557,s,1,0.7033791450812714,595.9441076524381,596.9607299579366,,,,,329270,2023-05-16_15h10.52.968,eb_02psyexp,2022.2.4,60.00648433679932,
290,0,290,0,,,,,,,,,,,,,,,,,,,,,,,,,,,,,,,,,,,,,,,,,,,,,,,,,,,,,,,,,596.9607299579366,596.9607299579366,596.9607299579366,596.9607299579366,596.9607299579366,596.9607299579366,l,1,0.8415064621221973,597.8273349677183,598.8605931617494,,,,,329270,2023-05-16_15h10.52.968,eb_02psyexp,2022.2.4,60.00648433679932,
291,0,291,0,,,,,,,,,,,,,,,,,,,,,,,,,,,,,,,,,,,,,,,,,,,,,,,,,,,,,,,,,598.8605931617494,598.8605931617494,598.8605931617494,598.8605931617494,598.8605931617494,598.8605931617494,s,1,0.5656279269751394,599.44389122953,600.4604896892706,,,,,329270,2023-05-16_15h10.52.968,eb_02psyexp,2022.2.4,60.00648433679932,
292,0,292,0,,,,,,,,,,,,,,,,,,,,,,,,,,,,,,,,,,,,,,,,,,,,,,,,,,,,,,,,,600.4604896892706,600.4604896892706,600.4604896892706,600.4604896892706,600.4604896892706,600.4604896892706,s,1,1.0057596763217589,601.493763277409,602.5270235843636,,,,,329270,2023-05-16_15h10.52.968,eb_02psyexp,2022.2.4,60.00648433679932,
293,0,293,0,,,,,,,,,,,,,,,,,,,,,,,,,,,,,,,,,,,,,,,,,,,,,,,,,,,,,,,,,602.5270235843636,602.5270235843636,602.5270235843636,602.5270235843636,602.5270235843636,602.5270235843636,s,1,1.1392204687581398,603.6935442586255,604.7101961449516,,,,,329270,2023-05-16_15h10.52.968,eb_02psyexp,2022.2.4,60.00648433679932,
294,0,294,0,,,,,,,,,,,,,,,,,,,,,,,,,,,,,,,,,,,,,,,,,,,,,,,,,,,,,,,,,604.7101961449516,604.7101961449516,604.7101961449516,604.7101961449516,604.7101961449516,604.7101961449516,l,1,0.5800528004474472,605.3101141034713,606.3267578399682,,,,,329270,2023-05-16_15h10.52.968,eb_02psyexp,2022.2.4,60.00648433679932,
295,0,295,0,,,,,,,,,,,,,,,,,,,,,,,,,,,,,,,,,,,,,,,,,,,,,,,,,,,,,,,,,606.3267578399682,606.3267578399682,606.3267578399682,606.3267578399682,606.3267578399682,606.3267578399682,s,1,1.0355010735802352,607.3933207121736,608.4096094788983,,,,,329270,2023-05-16_15h10.52.968,eb_02psyexp,2022.2.4,60.00648433679932,
296,0,296,0,,,,,,,,,,,,,,,,,,,,,,,,,,,,,,,,,,,,,,,,,,,,,,,,,,,,,,,,,608.4096094788983,608.4096094788983,608.4096094788983,608.4096094788983,608.4096094788983,608.4096094788983,l,1,2.3206501759850653,610.7597766105027,611.7930257491971,,,,,329270,2023-05-16_15h10.52.968,eb_02psyexp,2022.2.4,60.00648433679932,
297,0,297,0,,,,,,,,,,,,,,,,,,,,,,,,,,,,,,,,,,,,,,,,,,,,,,,,,,,,,,,,,611.7930257491971,611.7930257491971,611.7930257491971,611.7930257491971,611.7930257491971,611.7930257491971,l,1,0.6722673712502001,612.4929685193638,613.5262086027069,,,,,329270,2023-05-16_15h10.52.968,eb_02psyexp,2022.2.4,60.00648433679932,
298,0,298,0,,,,,,,,,,,,,,,,,,,,,,,,,,,,,,,,,,,,,,,,,,,,,,,,,,,,,,,,,613.5262086027069,613.5262086027069,613.5262086027069,613.5262086027069,613.5262086027069,613.5262086027069,s,1,1.315092302931589,614.8594702981354,615.8760862648924,,,,,329270,2023-05-16_15h10.52.968,eb_02psyexp,2022.2.4,60.00648433679932,
299,0,299,0,,,,,,,,,,,,,,,,,,,,,,,,,,,,,,,,,,,,,,,,,,,,,,,,,,,,,,,,,615.8760862648924,615.8760862648924,615.8760862648924,615.8760862648924,615.8760862648924,615.8760862648924,l,1,0.5572695354785537,616.4593619961379,617.4759930551372,,,,,329270,2023-05-16_15h10.52.968,eb_02psyexp,2022.2.4,60.00648433679932,
300,0,300,0,,,,,,,,,,,,,,,,,,,,,,,,,,,,,,,,,,,,,,,,,,,,,,,,,,,,,,,,,617.4759930551372,617.4759930551372,617.4759930551372,617.4759930551372,617.4759930551372,617.4759930551372,s,1,1.3253363205149071,618.825856228781,619.8590824272396,,,,,329270,2023-05-16_15h10.52.968,eb_02psyexp,2022.2.4,60.00648433679932,
301,0,301,0,,,,,,,,,,,,,,,,,,,,,,,,,,,,,,,,,,,,,,,,,,,,,,,,,,,,,,,,,619.8590824272396,619.8590824272396,619.8590824272396,619.8590824272396,619.8590824272396,619.8590824272396,l,1,1.2622609660902526,621.1423688437935,622.1589787736448,,,,,329270,2023-05-16_15h10.52.968,eb_02psyexp,2022.2.4,60.00648433679932,
302,0,302,0,,,,,,,,,,,,,,,,,,,,,,,,,,,,,,,,,,,,,,,,,,,,,,,,,,,,,,,,,622.1589787736448,622.1589787736448,622.1589787736448,622.1589787736448,622.1589787736448,622.1589787736448,s,1,1.0583923990780022,623.2422034930642,624.2754719498334,,,,,329270,2023-05-16_15h10.52.968,eb_02psyexp,2022.2.4,60.00648433679932,
303,0,303,0,,,,,,,,,,,,,,,,,,,,,,,,,,,,,,,,,,,,,,,,,,,,,,,,,,,,,,,,,624.2754719498334,624.2754719498334,624.2754719498334,624.2754719498334,624.2754719498334,624.2754719498334,l,1,0.7498946759005776,625.0420865582855,626.0753855014045,,,,,329270,2023-05-16_15h10.52.968,eb_02psyexp,2022.2.4,60.00648433679932,
304,0,304,0,,,,,,,,,,,,,,,,,,,,,,,,,,,,,,,,,,,,,,,,,,,,,,,,,,,,,,,,,626.0753855014045,626.0753855014045,626.0753855014045,626.0753855014045,626.0753855014045,626.0753855014045,s,1,0.5099737351556541,626.6086180386192,627.6252563419112,,,,,329270,2023-05-16_15h10.52.968,eb_02psyexp,2022.2.4,60.00648433679932,
305,0,305,0,,,,,,,,,,,,,,,,,,,,,,,,,,,,,,,,,,,,,,,,,,,,,,,,,,,,,,,,,627.6252563419112,627.6252563419112,627.6252563419112,627.6252563419112,627.6252563419112,627.6252563419112,l,1,0.5591219585912768,628.2085359971243,629.2418038502074,,,,,329270,2023-05-16_15h10.52.968,eb_02psyexp,2022.2.4,60.00648433679932,
306,0,306,0,,,,,,,,,,,,,,,,,,,,,,,,,,,,,,,,,,,,,,,,,,,,,,,,,,,,,,,,,629.2418038502074,629.2418038502074,629.2418038502074,629.2418038502074,629.2418038502074,629.2418038502074,s,1,0.5266138495353516,629.791758905485,630.8250231364218,,,,,329270,2023-05-16_15h10.52.968,eb_02psyexp,2022.2.4,60.00648433679932,
