trials.thisRepN,trials.thisTrialN,trials.thisN,trials.thisIndex,image_loop.thisRepN,image_loop.thisTrialN,image_loop.thisN,image_loop.thisIndex,break_loop.thisRepN,break_loop.thisTrialN,break_loop.thisN,break_loop.thisIndex,test_trials.thisRepN,test_trials.thisTrialN,test_trials.thisN,test_trials.thisIndex,distance matrix,tools,welcome_text.started,instructions_0_keypress.started,instructions_0_keypress.keys,instructions_0_keypress.rt,consent_image_0.started,consent0_key_resp.started,consent0_text.started,consent0_key_resp.keys,consent0_key_resp.rt,consent_image_1.started,consent1_key_resp.started,consent1_text.started,consent1_key_resp.keys,consent1_key_resp.rt,consent2_text.started,consent_image_2.started,consent2_key_resp.started,consent2_key_resp.keys,consent2_key_resp.rt,agree_button.started,disagree_button.started,consent_image_3.started,agree_button.numClicks,agree_button.timesOn,agree_button.timesOff,disagree_button.numClicks,disagree_button.timesOn,disagree_button.timesOff,instructions_text1.started,instructions1_key_resp.started,instr1_cnt_text.started,instructions1_key_resp.keys,instructions1_key_resp.rt,instructions_text2.started,instr2_cnt_text.started,instructions2_key_resp.started,instructions2_key_resp.keys,instructions2_key_resp.rt,instructions_text3.started,instructions3_key_resp.started,instr3_cnt_text.started,instructions3_key_resp.keys,instructions3_key_resp.rt,text_countdown.started,image.started,small_large_keyresp.started,task_question_text.started,smalleroption_text.started,largeroption_text.started,accuracy_score_text.started,small_large_keyresp.keys,small_large_keyresp.corr,small_large_keyresp.rt,fb_2.started,fb_2.stopped,break_text.started,break_key_resp.started,break_key_resp.keys,break_key_resp.rt,reveal_seq_text.started,start_test_text.started,continue_to_test.started,continue_to_test.keys,continue_to_test.rt,test_structure_info.started,start_test_text_2.started,continue_to_test_2.started,continue_to_test_2.keys,continue_to_test_2.rt,test_cntdown_text.started,parent index,left child index,right child index,left distance,right distance,parent_image.started,top_image_text.started,left_child_image.started,right_child_image.started,path_resp.started,child_choice_text.started,left_choice_text.started,right_choice_text.started,path_resp.keys,path_resp.rt,graph.started,debrief_text.started,debriefing_title.started,demo_scr_adv.started,demo_scr_adv_keypress.started,demo_scr_adv_keypress.keys,demo_scr_adv_keypress.rt,text_countdown_2.started,participant,date,expName,psychopyVersion,frameRate,
,,,,,,,,,,,,,,,,"[[0. 1. 1. 2. 2. 3. 4. 5. 5. 6. 6. 7.]
 [1. 0. 2. 1. 1. 2. 3. 4. 4. 5. 5. 6.]
 [1. 2. 0. 1. 1. 2. 3. 4. 4. 5. 5. 6.]
 [2. 1. 1. 0. 1. 1. 2. 3. 3. 4. 4. 5.]
 [2. 1. 1. 1. 0. 1. 2. 3. 3. 4. 4. 5.]
 [3. 2. 2. 1. 1. 0. 1. 2. 2. 3. 3. 4.]
 [4. 3. 3. 2. 2. 1. 0. 1. 1. 2. 2. 3.]
 [5. 4. 4. 3. 3. 2. 1. 0. 1. 1. 1. 2.]
 [5. 4. 4. 3. 3. 2. 1. 1. 0. 1. 1. 2.]
 [6. 5. 5. 4. 4. 3. 2. 1. 1. 0. 2. 1.]
 [6. 5. 5. 4. 4. 3. 2. 1. 1. 2. 0. 1.]
 [7. 6. 6. 5. 5. 4. 3. 2. 2. 1. 1. 0.]]",[ 2  5  1 10  7  9  4  8  3 11  0  6],9.945722523494624,9.945722523494624,return,32.50143636460416,,,,,,,,,,,,,,,,,,,,,,,,,,,,,,,,,,,,,,,,,,,,,,,,,,,,,,,,,,,,,,,,,,,,,,,,,,,,,,,,,,,,,,,,,,356058,2023-05-16_15h22.07.176,eb_02psyexp,2022.2.4,99.95408025716084,
,,,,,,,,,,,,,,,,,,,,,,42.464879421982914,42.464879421982914,42.464879421982914,space,2.942194744129665,,,,,,,,,,,,,,,,,,,,,,,,,,,,,,,,,,,,,,,,,,,,,,,,,,,,,,,,,,,,,,,,,,,,,,,,,,,,,,,,,,,,,356058,2023-05-16_15h22.07.176,eb_02psyexp,2022.2.4,99.95408025716084,
,,,,,,,,,,,,,,,,,,,,,,,,,,,45.42631086788606,45.42631086788606,45.42631086788606,space,0.6768167949048802,,,,,,,,,,,,,,,,,,,,,,,,,,,,,,,,,,,,,,,,,,,,,,,,,,,,,,,,,,,,,,,,,,,,,,,,,,,,,,,,356058,2023-05-16_15h22.07.176,eb_02psyexp,2022.2.4,99.95408025716084,
,,,,,,,,,,,,,,,,,,,,,,,,,,,,,,,,46.11674853716977,46.11674853716977,46.11674853716977,space,0.434355526114814,,,,,,,,,,,,,,,,,,,,,,,,,,,,,,,,,,,,,,,,,,,,,,,,,,,,,,,,,,,,,,,,,,,,,,,,,,,356058,2023-05-16_15h22.07.176,eb_02psyexp,2022.2.4,99.95408025716084,
,,,,,,,,,,,,,,,,,,,,,,,,,,,,,,,,,,,,,46.577007013140246,46.577007013140246,46.577007013140246,1,[2.8713512214599177],[2.871355749084614],0,,,49.43869798537344,51.42986207501963,51.42986207501963,space,2.337291512754746,,,,,,,,,,,,,,,,,,,,,,,,,,,,,,,,,,,,,,,,,,,,,,,,,,,,,,,,,,,,,356058,2023-05-16_15h22.07.176,eb_02psyexp,2022.2.4,99.95408025716084,
,,,,,,,,,,,,,,,,,,,,,,,,,,,,,,,,,,,,,,,,,,,,,,,,,,,53.78157374775037,56.7733569216216,56.7733569216216,space,11.056933294981718,,,,,,,,,,,,,,,,,,,,,,,,,,,,,,,,,,,,,,,,,,,,,,,,,,,,,,,,356058,2023-05-16_15h22.07.176,eb_02psyexp,2022.2.4,99.95408025716084,
,,,,,,,,,,,,,,,,,,,,,,,,,,,,,,,,,,,,,,,,,,,,,,,,,,,,,,,,67.8498864157591,70.84168800211046,70.84168800211046,space,11.907651293906383,,,,,,,,,,,,,,,,,,,,,,,,,,,,,,,,,,,,,,,,,,,,,,,,,,,356058,2023-05-16_15h22.07.176,eb_02psyexp,2022.2.4,99.95408025716084,
0,0,0,0,,,,,,,,,,,,,,,,,,,,,,,,,,,,,,,,,,,,,,,,,,,,,,,,,,,,,,,,,,82.77841373183765,87.82176894485019,87.82176894485019,87.82176894485019,87.82176894485019,87.82176894485019,87.82176894485019,l,1,1.4395907268626615,89.27228597528301,90.30290755280294,,,,,,,,,,,,,,,,,,,,,,,,,,,,,,,,,,,,,,,356058,2023-05-16_15h22.07.176,eb_02psyexp,2022.2.4,99.95408025716084,
1,0,1,0,,,,,,,,,,,,,,,,,,,,,,,,,,,,,,,,,,,,,,,,,,,,,,,,,,,,,,,,,,,90.30290755280294,90.30290755280294,90.30290755280294,90.30290755280294,90.30290755280294,90.30290755280294,s,1,0.99745563196484,91.31350533280056,92.34410970506724,,,,,,,,,,,,,,,,,,,,,,,,,,,,,,,,,,,,,,,356058,2023-05-16_15h22.07.176,eb_02psyexp,2022.2.4,99.95408025716084,
2,0,2,0,,,,,,,,,,,,,,,,,,,,,,,,,,,,,,,,,,,,,,,,,,,,,,,,,,,,,,,,,,,92.34410970506724,92.34410970506724,92.34410970506724,92.34410970506724,92.34410970506724,92.34410970506724,s,1,1.1722553124418482,93.53481299802661,94.56543306622189,,,,,,,,,,,,,,,,,,,,,,,,,,,,,,,,,,,,,,,356058,2023-05-16_15h22.07.176,eb_02psyexp,2022.2.4,99.95408025716084,
3,0,3,0,,,,,,,,,,,,,,,,,,,,,,,,,,,,,,,,,,,,,,,,,,,,,,,,,,,,,,,,,,,94.56543306622189,94.56543306622189,94.56543306622189,94.56543306622189,94.56543306622189,94.56543306622189,s,1,0.8629821493523195,95.44594679446891,96.46652689238545,,,,,,,,,,,,,,,,,,,,,,,,,,,,,,,,,,,,,,,356058,2023-05-16_15h22.07.176,eb_02psyexp,2022.2.4,99.95408025716084,
4,0,4,0,,,,,,,,,,,,,,,,,,,,,,,,,,,,,,,,,,,,,,,,,,,,,,,,,,,,,,,,,,,96.46652689238545,96.46652689238545,96.46652689238545,96.46652689238545,96.46652689238545,96.46652689238545,l,1,0.8178475596942008,97.2970469291322,98.3276528106071,,,,,,,,,,,,,,,,,,,,,,,,,,,,,,,,,,,,,,,356058,2023-05-16_15h22.07.176,eb_02psyexp,2022.2.4,99.95408025716084,
5,0,5,0,,,,,,,,,,,,,,,,,,,,,,,,,,,,,,,,,,,,,,,,,,,,,,,,,,,,,,,,,,,98.3276528106071,98.3276528106071,98.3276528106071,98.3276528106071,98.3276528106071,98.3276528106071,s,1,0.9567587682977319,99.29821205104236,100.31880301539786,,,,,,,,,,,,,,,,,,,,,,,,,,,,,,,,,,,,,,,356058,2023-05-16_15h22.07.176,eb_02psyexp,2022.2.4,99.95408025716084,
6,0,6,0,,,,,,,,,,,,,,,,,,,,,,,,,,,,,,,,,,,,,,,,,,,,,,,,,,,,,,,,,,,100.31880301539786,100.31880301539786,100.31880301539786,100.31880301539786,100.31880301539786,100.31880301539786,l,1,0.6456165804993361,100.97922521212604,102.00984256365336,,,,,,,,,,,,,,,,,,,,,,,,,,,,,,,,,,,,,,,356058,2023-05-16_15h22.07.176,eb_02psyexp,2022.2.4,99.95408025716084,
7,0,7,0,,,,,,,,,,,,,,,,,,,,,,,,,,,,,,,,,,,,,,,,,,,,,,,,,,,,,,,,,,,102.00984256365336,102.00984256365336,102.00984256365336,102.00984256365336,102.00984256365336,102.00984256365336,s,1,0.6825880724936724,102.7102414217079,103.7308514022734,,,,,,,,,,,,,,,,,,,,,,,,,,,,,,,,,,,,,,,356058,2023-05-16_15h22.07.176,eb_02psyexp,2022.2.4,99.95408025716084,
8,0,8,0,,,,,,,,,,,,,,,,,,,,,,,,,,,,,,,,,,,,,,,,,,,,,,,,,,,,,,,,,,,103.7308514022734,103.7308514022734,103.7308514022734,103.7308514022734,103.7308514022734,103.7308514022734,l,1,0.5935884533682838,104.34124006400816,105.37185409537051,,,,,,,,,,,,,,,,,,,,,,,,,,,,,,,,,,,,,,,356058,2023-05-16_15h22.07.176,eb_02psyexp,2022.2.4,99.95408025716084,
9,0,9,0,,,,,,,,,,,,,,,,,,,,,,,,,,,,,,,,,,,,,,,,,,,,,,,,,,,,,,,,,,,105.37185409537051,105.37185409537051,105.37185409537051,105.37185409537051,105.37185409537051,105.37185409537051,s,1,0.6395778682781383,106.022545713,107.04281279759016,,,,,,,,,,,,,,,,,,,,,,,,,,,,,,,,,,,,,,,356058,2023-05-16_15h22.07.176,eb_02psyexp,2022.2.4,99.95408025716084,
10,0,10,0,,,,,,,,,,,,,,,,,,,,,,,,,,,,,,,,,,,,,,,,,,,,,,,,,,,,,,,,,,,107.04281279759016,107.04281279759016,107.04281279759016,107.04281279759016,107.04281279759016,107.04281279759016,l,1,1.0006485489429906,108.0534467989346,109.07403414114378,,,,,,,,,,,,,,,,,,,,,,,,,,,,,,,,,,,,,,,356058,2023-05-16_15h22.07.176,eb_02psyexp,2022.2.4,99.95408025716084,
11,0,11,0,,,,,,,,,,,,,,,,,,,,,,,,,,,,,,,,,,,,,,,,,,,,,,,,,,,,,,,,,,,109.07403414114378,109.07403414114378,109.07403414114378,109.07403414114378,109.07403414114378,109.07403414114378,l,1,0.7694358380977064,109.85449528798927,110.88510992296506,,,,,,,,,,,,,,,,,,,,,,,,,,,,,,,,,,,,,,,356058,2023-05-16_15h22.07.176,eb_02psyexp,2022.2.4,99.95408025716084,
12,0,12,0,,,,,,,,,,,,,,,,,,,,,,,,,,,,,,,,,,,,,,,,,,,,,,,,,,,,,,,,,,,110.88510992296506,110.88510992296506,110.88510992296506,110.88510992296506,110.88510992296506,110.88510992296506,s,1,0.6463618359994143,111.54551219788846,112.5761150609469,,,,,,,,,,,,,,,,,,,,,,,,,,,,,,,,,,,,,,,356058,2023-05-16_15h22.07.176,eb_02psyexp,2022.2.4,99.95408025716084,
13,0,13,0,,,,,,,,,,,,,,,,,,,,,,,,,,,,,,,,,,,,,,,,,,,,,,,,,,,,,,,,,,,112.5761150609469,112.5761150609469,112.5761150609469,112.5761150609469,112.5761150609469,112.5761150609469,s,1,0.6033600834198296,113.19648815353867,114.22707501880359,,,,,,,,,,,,,,,,,,,,,,,,,,,,,,,,,,,,,,,356058,2023-05-16_15h22.07.176,eb_02psyexp,2022.2.4,99.95408025716084,
14,0,14,0,,,,,,,,,,,,,,,,,,,,,,,,,,,,,,,,,,,,,,,,,,,,,,,,,,,,,,,,,,,114.22707501880359,114.22707501880359,114.22707501880359,114.22707501880359,114.22707501880359,114.22707501880359,l,1,0.816408664220944,115.0576373138465,116.07823552249465,,,,,,,,,,,,,,,,,,,,,,,,,,,,,,,,,,,,,,,356058,2023-05-16_15h22.07.176,eb_02psyexp,2022.2.4,99.95408025716084,
15,0,15,0,,,,,,,,,,,,,,,,,,,,,,,,,,,,,,,,,,,,,,,,,,,,,,,,,,,,,,,,,,,116.07823552249465,116.07823552249465,116.07823552249465,116.07823552249465,116.07823552249465,116.07823552249465,l,1,0.6693038714583963,116.75860364071559,117.77919309574645,,,,,,,,,,,,,,,,,,,,,,,,,,,,,,,,,,,,,,,356058,2023-05-16_15h22.07.176,eb_02psyexp,2022.2.4,99.95408025716084,
16,0,16,0,,,,,,,,,,,,,,,,,,,,,,,,,,,,,,,,,,,,,,,,,,,,,,,,,,,,,,,,,,,117.77919309574645,117.77919309574645,117.77919309574645,117.77919309574645,117.77919309574645,117.77919309574645,s,1,1.544301079469733,119.34012595401146,120.36077336326707,,,,,,,,,,,,,,,,,,,,,,,,,,,,,,,,,,,,,,,356058,2023-05-16_15h22.07.176,eb_02psyexp,2022.2.4,99.95408025716084,
17,0,17,0,,,,,,,,,,,,,,,,,,,,,,,,,,,,,,,,,,,,,,,,,,,,,,,,,,,,,,,,,,,120.36077336326707,120.36077336326707,120.36077336326707,120.36077336326707,120.36077336326707,120.36077336326707,l,1,0.6657565883360803,121.04112397448625,122.06172731448896,,,,,,,,,,,,,,,,,,,,,,,,,,,,,,,,,,,,,,,356058,2023-05-16_15h22.07.176,eb_02psyexp,2022.2.4,99.95408025716084,
18,0,18,0,,,,,,,,,,,,,,,,,,,,,,,,,,,,,,,,,,,,,,,,,,,,,,,,,,,,,,,,,,,122.06172731448896,122.06172731448896,122.06172731448896,122.06172731448896,122.06172731448896,122.06172731448896,s,1,0.7409298927523196,122.82219484832603,123.84278943471145,,,,,,,,,,,,,,,,,,,,,,,,,,,,,,,,,,,,,,,356058,2023-05-16_15h22.07.176,eb_02psyexp,2022.2.4,99.95408025716084,
19,0,19,0,,,,,,,,,,,,,,,,,,,,,,,,,,,,,,,,,,,,,,,,,,,,,,,,,,,,,,,,,,,123.84278943471145,123.84278943471145,123.84278943471145,123.84278943471145,123.84278943471145,123.84278943471145,s,1,1.0397637445712462,124.8934520148905,125.9140644101426,,,,,,,,,,,,,,,,,,,,,,,,,,,,,,,,,,,,,,,356058,2023-05-16_15h22.07.176,eb_02psyexp,2022.2.4,99.95408025716084,
20,0,20,0,,,,,,,,,,,,,,,,,,,,,,,,,,,,,,,,,,,,,,,,,,,,,,,,,,,,,,,,,,,125.9140644101426,125.9140644101426,125.9140644101426,125.9140644101426,125.9140644101426,125.9140644101426,s,1,0.7924995172070339,126.72451446717605,127.74510392232332,,,,,,,,,,,,,,,,,,,,,,,,,,,,,,,,,,,,,,,356058,2023-05-16_15h22.07.176,eb_02psyexp,2022.2.4,99.95408025716084,
21,0,21,0,,,,,,,,,,,,,,,,,,,,,,,,,,,,,,,,,,,,,,,,,,,,,,,,,,,,,,,,,,,127.74510392232332,127.74510392232332,127.74510392232332,127.74510392232332,127.74510392232332,127.74510392232332,s,1,0.5614612728822976,128.32547137641814,,,,,,,,,,,,,,,,,,,,,,,,,,,,,,,,,,,,,,,,356058,2023-05-16_15h22.07.176,eb_02psyexp,2022.2.4,99.95408025716084,
22,0,22,0,,,,,,,,,,,,,,,,,,,,,,,,,,,,,,,,,,,,,,,,,,,,,,,,,,,,,,,,,,,129.3563969117822,129.3563969117822,129.3563969117822,129.3563969117822,129.3563969117822,129.3563969117822,s,1,0.6222163442289457,129.99676784314215,131.01711189828347,,,,,,,,,,,,,,,,,,,,,,,,,,,,,,,,,,,,,,,356058,2023-05-16_15h22.07.176,eb_02psyexp,2022.2.4,99.95408025716084,
23,0,23,0,,,,,,,,,,,,,,,,,,,,,,,,,,,,,,,,,,,,,,,,,,,,,,,,,,,,,,,,,,,131.01711189828347,131.01711189828347,131.01711189828347,131.01711189828347,131.01711189828347,131.01711189828347,s,0,0.7934349350398406,131.82754746673163,132.8482111756457,,,,,,,,,,,,,,,,,,,,,,,,,,,,,,,,,,,,,,,356058,2023-05-16_15h22.07.176,eb_02psyexp,2022.2.4,99.95408025716084,
24,0,24,0,,,,,,,,,,,,,,,,,,,,,,,,,,,,,,,,,,,,,,,,,,,,,,,,,,,,,,,,,,,132.8482111756457,132.8482111756457,132.8482111756457,132.8482111756457,132.8482111756457,132.8482111756457,s,1,1.4104213260579854,134.26899495860562,135.28961520188022,,,,,,,,,,,,,,,,,,,,,,,,,,,,,,,,,,,,,,,356058,2023-05-16_15h22.07.176,eb_02psyexp,2022.2.4,99.95408025716084,
25,0,25,0,,,,,,,,,,,,,,,,,,,,,,,,,,,,,,,,,,,,,,,,,,,,,,,,,,,,,,,,,,,135.28961520188022,135.28961520188022,135.28961520188022,135.28961520188022,135.28961520188022,135.28961520188022,l,1,0.592067456105724,135.89997156627942,136.92064372694585,,,,,,,,,,,,,,,,,,,,,,,,,,,,,,,,,,,,,,,356058,2023-05-16_15h22.07.176,eb_02psyexp,2022.2.4,99.95408025716084,
26,0,26,0,,,,,,,,,,,,,,,,,,,,,,,,,,,,,,,,,,,,,,,,,,,,,,,,,,,,,,,,,,,136.92064372694585,136.92064372694585,136.92064372694585,136.92064372694585,136.92064372694585,136.92064372694585,l,1,1.4729886752320454,138.41145677072927,139.43212742218748,,,,,,,,,,,,,,,,,,,,,,,,,,,,,,,,,,,,,,,356058,2023-05-16_15h22.07.176,eb_02psyexp,2022.2.4,99.95408025716084,
27,0,27,0,,,,,,,,,,,,,,,,,,,,,,,,,,,,,,,,,,,,,,,,,,,,,,,,,,,,,,,,,,,139.43212742218748,139.43212742218748,139.43212742218748,139.43212742218748,139.43212742218748,139.43212742218748,l,1,0.9695343603380024,140.41265026608016,141.4432688250672,,,,,,,,,,,,,,,,,,,,,,,,,,,,,,,,,,,,,,,356058,2023-05-16_15h22.07.176,eb_02psyexp,2022.2.4,99.95408025716084,
28,0,28,0,,,,,,,,,,,,,,,,,,,,,,,,,,,,,,,,,,,,,,,,,,,,,,,,,,,,,,,,,,,141.4432688250672,141.4432688250672,141.4432688250672,141.4432688250672,141.4432688250672,141.4432688250672,l,1,2.1343921702355146,143.59453938144725,144.62514586665202,,,,,,,,,,,,,,,,,,,,,,,,,,,,,,,,,,,,,,,356058,2023-05-16_15h22.07.176,eb_02psyexp,2022.2.4,99.95408025716084,
29,0,29,0,,,,,,,,,,,,,,,,,,,,,,,,,,,,,,,,,,,,,,,,,,,,,,,,,,,,,,,,,,,144.62514586665202,144.62514586665202,144.62514586665202,144.62514586665202,144.62514586665202,144.62514586665202,s,1,0.6885398533195257,145.3255643446464,146.3561765649356,,,,,,,,,,,,,,,,,,,,,,,,,,,,,,,,,,,,,,,356058,2023-05-16_15h22.07.176,eb_02psyexp,2022.2.4,99.95408025716084,
30,0,30,0,,,,,,,,,,,,,,,,,,,,,,,,,,,,,,,,,,,,,,,,,,,,,,,,,,,,,,,,,,,146.3561765649356,146.3561765649356,146.3561765649356,146.3561765649356,146.3561765649356,146.3561765649356,l,1,0.9734891343396157,147.34678676887415,148.36741727485787,,,,,,,,,,,,,,,,,,,,,,,,,,,,,,,,,,,,,,,356058,2023-05-16_15h22.07.176,eb_02psyexp,2022.2.4,99.95408025716084,
31,0,31,0,,,,,,,,,,,,,,,,,,,,,,,,,,,,,,,,,,,,,,,,,,,,,,,,,,,,,,,,,,,148.36741727485787,148.36741727485787,148.36741727485787,148.36741727485787,148.36741727485787,148.36741727485787,l,1,0.5862587498268113,148.9677279337775,149.99836822564248,,,,,,,,,,,,,,,,,,,,,,,,,,,,,,,,,,,,,,,356058,2023-05-16_15h22.07.176,eb_02psyexp,2022.2.4,99.95408025716084,
32,0,32,0,,,,,,,,,,,,,,,,,,,,,,,,,,,,,,,,,,,,,,,,,,,,,,,,,,,,,,,,,,,149.99836822564248,149.99836822564248,149.99836822564248,149.99836822564248,149.99836822564248,149.99836822564248,s,1,0.7553339388687164,150.76881747378502,151.78948510671034,,,,,,,,,,,,,,,,,,,,,,,,,,,,,,,,,,,,,,,356058,2023-05-16_15h22.07.176,eb_02psyexp,2022.2.4,99.95408025716084,
33,0,33,0,,,,,,,,,,,,,,,,,,,,,,,,,,,,,,,,,,,,,,,,,,,,,,,,,,,,,,,,,,,151.78948510671034,151.78948510671034,151.78948510671034,151.78948510671034,151.78948510671034,151.78948510671034,l,1,0.8592253857059404,152.65990634355694,153.68057578755543,,,,,,,,,,,,,,,,,,,,,,,,,,,,,,,,,,,,,,,356058,2023-05-16_15h22.07.176,eb_02psyexp,2022.2.4,99.95408025716084,
34,0,34,0,,,,,,,,,,,,,,,,,,,,,,,,,,,,,,,,,,,,,,,,,,,,,,,,,,,,,,,,,,,153.68057578755543,153.68057578755543,153.68057578755543,153.68057578755543,153.68057578755543,153.68057578755543,l,1,0.960149092017673,154.65110303240363,155.67176372301765,,,,,,,,,,,,,,,,,,,,,,,,,,,,,,,,,,,,,,,356058,2023-05-16_15h22.07.176,eb_02psyexp,2022.2.4,99.95408025716084,
35,0,35,0,,,,,,,,,,,,,,,,,,,,,,,,,,,,,,,,,,,,,,,,,,,,,,,,,,,,,,,,,,,155.67176372301765,155.67176372301765,155.67176372301765,155.67176372301765,155.67176372301765,155.67176372301765,s,1,0.9609951636521146,156.65227902075276,157.67294212605339,,,,,,,,,,,,,,,,,,,,,,,,,,,,,,,,,,,,,,,356058,2023-05-16_15h22.07.176,eb_02psyexp,2022.2.4,99.95408025716084,
36,0,36,0,,,,,,,,,,,,,,,,,,,,,,,,,,,,,,,,,,,,,,,,,,,,,,,,,,,,,,,,,,,157.67294212605339,157.67294212605339,157.67294212605339,157.67294212605339,157.67294212605339,157.67294212605339,l,1,0.5438045443734154,158.23324141150806,159.2539304754464,,,,,,,,,,,,,,,,,,,,,,,,,,,,,,,,,,,,,,,356058,2023-05-16_15h22.07.176,eb_02psyexp,2022.2.4,99.95408025716084,
37,0,37,0,,,,,,,,,,,,,,,,,,,,,,,,,,,,,,,,,,,,,,,,,,,,,,,,,,,,,,,,,,,159.2539304754464,159.2539304754464,159.2539304754464,159.2539304754464,159.2539304754464,159.2539304754464,s,1,0.8108510930323973,160.08434064069297,161.1049768817611,,,,,,,,,,,,,,,,,,,,,,,,,,,,,,,,,,,,,,,356058,2023-05-16_15h22.07.176,eb_02psyexp,2022.2.4,99.95408025716084,
38,0,38,0,,,,,,,,,,,,,,,,,,,,,,,,,,,,,,,,,,,,,,,,,,,,,,,,,,,,,,,,,,,161.1049768817611,161.1049768817611,161.1049768817611,161.1049768817611,161.1049768817611,161.1049768817611,l,1,0.5278212447883561,161.64526353799738,162.67588722833898,,,,,,,,,,,,,,,,,,,,,,,,,,,,,,,,,,,,,,,356058,2023-05-16_15h22.07.176,eb_02psyexp,2022.2.4,99.95408025716084,
39,0,39,0,,,,,,,,,,,,,,,,,,,,,,,,,,,,,,,,,,,,,,,,,,,,,,,,,,,,,,,,,,,162.67588722833898,162.67588722833898,162.67588722833898,162.67588722833898,162.67588722833898,162.67588722833898,s,1,0.5168857001699507,163.2061957924161,164.22684561659116,,,,,,,,,,,,,,,,,,,,,,,,,,,,,,,,,,,,,,,356058,2023-05-16_15h22.07.176,eb_02psyexp,2022.2.4,99.95408025716084,
40,0,40,0,,,,,,,,,,,,,,,,,,,,,,,,,,,,,,,,,,,,,,,,,,,,,,,,,,,,,,,,,,,164.22684561659116,164.22684561659116,164.22684561659116,164.22684561659116,164.22684561659116,164.22684561659116,l,1,0.6139255659654737,164.8571783886291,165.88780207908712,,,,,,,,,,,,,,,,,,,,,,,,,,,,,,,,,,,,,,,356058,2023-05-16_15h22.07.176,eb_02psyexp,2022.2.4,99.95408025716084,
41,0,41,0,,,,,,,,,,,,,,,,,,,,,,,,,,,,,,,,,,,,,,,,,,,,,,,,,,,,,,,,,,,165.88780207908712,165.88780207908712,165.88780207908712,165.88780207908712,165.88780207908712,165.88780207908712,s,0,0.7849899139255285,166.68824808532372,167.70894469541963,,,,,,,,,,,,,,,,,,,,,,,,,,,,,,,,,,,,,,,356058,2023-05-16_15h22.07.176,eb_02psyexp,2022.2.4,99.95408025716084,
42,0,42,0,,,,,,,,,,,,,,,,,,,,,,,,,,,,,,,,,,,,,,,,,,,,,,,,,,,,,,,,,,,167.70894469541963,167.70894469541963,167.70894469541963,167.70894469541963,167.70894469541963,167.70894469541963,l,1,1.0108693244401366,168.7394850765122,169.7600567227928,,,,,,,,,,,,,,,,,,,,,,,,,,,,,,,,,,,,,,,356058,2023-05-16_15h22.07.176,eb_02psyexp,2022.2.4,99.95408025716084,
43,0,43,0,,,,,,,,,,,,,,,,,,,,,,,,,,,,,,,,,,,,,,,,,,,,,,,,,,,,,,,,,,,169.7600567227928,169.7600567227928,169.7600567227928,169.7600567227928,169.7600567227928,169.7600567227928,s,1,0.855760506237857,170.63061107334215,171.6512183372397,,,,,,,,,,,,,,,,,,,,,,,,,,,,,,,,,,,,,,,356058,2023-05-16_15h22.07.176,eb_02psyexp,2022.2.4,99.95408025716084,
44,0,44,0,,,,,,,,,,,,,,,,,,,,,,,,,,,,,,,,,,,,,,,,,,,,,,,,,,,,,,,,,,,171.6512183372397,171.6512183372397,171.6512183372397,171.6512183372397,171.6512183372397,171.6512183372397,s,1,1.180655962205492,172.84197113278788,173.86256058793515,,,,,,,,,,,,,,,,,,,,,,,,,,,,,,,,,,,,,,,356058,2023-05-16_15h22.07.176,eb_02psyexp,2022.2.4,99.95408025716084,
45,0,45,0,,,,,,,,,,,,,,,,,,,,,,,,,,,,,,,,,,,,,,,,,,,,,,,,,,,,,,,,,,,173.86256058793515,173.86256058793515,173.86256058793515,173.86256058793515,173.86256058793515,173.86256058793515,l,0,0.7052584473276511,174.58299109141808,175.60359201661777,,,,,,,,,,,,,,,,,,,,,,,,,,,,,,,,,,,,,,,356058,2023-05-16_15h22.07.176,eb_02psyexp,2022.2.4,99.95408025716084,
46,0,46,0,,,,,,,,,,,,,,,,,,,,,,,,,,,,,,,,,,,,,,,,,,,,,,,,,,,,,,,,,,,175.60359201661777,175.60359201661777,175.60359201661777,175.60359201661777,175.60359201661777,175.60359201661777,l,1,0.06024513905867934,175.68361597100738,176.71423000236973,,,,,,,,,,,,,,,,,,,,,,,,,,,,,,,,,,,,,,,356058,2023-05-16_15h22.07.176,eb_02psyexp,2022.2.4,99.95408025716084,
47,0,47,0,,,,,,,,,,,,,,,,,,,,,,,,,,,,,,,,,,,,,,,,,,,,,,,,,,,,,,,,,,,176.71423000236973,176.71423000236973,176.71423000236973,176.71423000236973,176.71423000236973,176.71423000236973,l,1,2.7656356088118628,179.495880116825,180.52648660202976,,,,,,,,,,,,,,,,,,,,,,,,,,,,,,,,,,,,,,,356058,2023-05-16_15h22.07.176,eb_02psyexp,2022.2.4,99.95408025716084,
48,0,48,0,,,,,,,,,,,,,,,,,,,,,,,,,,,,,,,,,,,,,,,,,,,,,,,,,,,,,,,,,,,180.52648660202976,180.52648660202976,180.52648660202976,180.52648660202976,180.52648660202976,180.52648660202976,s,1,0.61738621967379,181.15687159332447,182.1774851960363,,,,,,,,,,,,,,,,,,,,,,,,,,,,,,,,,,,,,,,356058,2023-05-16_15h22.07.176,eb_02psyexp,2022.2.4,99.95408025716084,
49,0,49,0,,,,,,,,,,,,,,,,,,,,,,,,,,,,,,,,,,,,,,,,,,,,,,,,,,,,,,,,,,,182.1774851960363,182.1774851960363,182.1774851960363,182.1774851960363,182.1774851960363,182.1774851960363,l,1,1.2773918701568618,183.4682365427725,184.4988635533955,,,,,,,,,,,,,,,,,,,,,,,,,,,,,,,,,,,,,,,356058,2023-05-16_15h22.07.176,eb_02psyexp,2022.2.4,99.95408025716084,
50,0,50,0,,,,,,,,,,,,,,,,,,,,,,,,,,,,,,,,,,,,,,,,,,,,,,,,,,,,,,,,,,,184.4988635533955,184.4988635533955,184.4988635533955,184.4988635533955,184.4988635533955,184.4988635533955,s,1,0.5640236355829984,185.0791815049015,186.0998017481761,,,,,,,,,,,,,,,,,,,,,,,,,,,,,,,,,,,,,,,356058,2023-05-16_15h22.07.176,eb_02psyexp,2022.2.4,99.95408025716084,
51,0,51,0,,,,,,,,,,,,,,,,,,,,,,,,,,,,,,,,,,,,,,,,,,,,,,,,,,,,,,,,,,,186.0998017481761,186.0998017481761,186.0998017481761,186.0998017481761,186.0998017481761,186.0998017481761,l,1,0.7231053384020925,186.8402590675978,187.86081713088788,,,,,,,,,,,,,,,,,,,,,,,,,,,,,,,,,,,,,,,356058,2023-05-16_15h22.07.176,eb_02psyexp,2022.2.4,99.95408025716084,
52,0,52,0,,,,,,,,,,,,,,,,,,,,,,,,,,,,,,,,,,,,,,,,,,,,,,,,,,,,,,,,,,,187.86081713088788,187.86081713088788,187.86081713088788,187.86081713088788,187.86081713088788,187.86081713088788,l,1,0.7221044200705364,188.60128078900743,189.62191099324264,,,,,,,,,,,,,,,,,,,,,,,,,,,,,,,,,,,,,,,356058,2023-05-16_15h22.07.176,eb_02psyexp,2022.2.4,99.95408025716084,
53,0,53,0,,,,,,,,,,,,,,,,,,,,,,,,,,,,,,,,,,,,,,,,,,,,,,,,,,,,,,,,,,,189.62191099324264,189.62191099324264,189.62191099324264,189.62191099324264,189.62191099324264,189.62191099324264,l,1,0.4970125233521685,190.1321993819438,191.16281039488968,,,,,,,,,,,,,,,,,,,,,,,,,,,,,,,,,,,,,,,356058,2023-05-16_15h22.07.176,eb_02psyexp,2022.2.4,99.95408025716084,
54,0,54,0,,,,,,,,,,,,,,,,,,,,,,,,,,,,,,,,,,,,,,,,,,,,,,,,,,,,,,,,,,,191.16281039488968,191.16281039488968,191.16281039488968,191.16281039488968,191.16281039488968,191.16281039488968,s,1,0.5961260647745803,191.7731818514876,192.80378773296252,,,,,,,,,,,,,,,,,,,,,,,,,,,,,,,,,,,,,,,356058,2023-05-16_15h22.07.176,eb_02psyexp,2022.2.4,99.95408025716084,
55,0,55,0,,,,,,,,,,,,,,,,,,,,,,,,,,,,,,,,,,,,,,,,,,,,,,,,,,,,,,,,,,,192.80378773296252,192.80378773296252,192.80378773296252,192.80378773296252,192.80378773296252,192.80378773296252,s,1,0.563155529089272,193.38413556711748,,,,,,,,,,,,,,,,,,,,,,,,,,,,,,,,,,,,,,,,356058,2023-05-16_15h22.07.176,eb_02psyexp,2022.2.4,99.95408025716084,
56,0,56,0,,,,,,,,,,,,,,,,,,,,,,,,,,,,,,,,,,,,,,,,,,,,,,,,,,,,,,,,,,,194.41507528931834,194.41507528931834,194.41507528931834,194.41507528931834,194.41507528931834,194.41507528931834,s,1,0.6158954068087041,195.04545575287193,196.07573141588364,,,,,,,,,,,,,,,,,,,,,,,,,,,,,,,,,,,,,,,356058,2023-05-16_15h22.07.176,eb_02psyexp,2022.2.4,99.95408025716084,
57,0,57,0,,,,,,,,,,,,,,,,,,,,,,,,,,,,,,,,,,,,,,,,,,,,,,,,,,,,,,,,,,,196.07573141588364,196.07573141588364,196.07573141588364,196.07573141588364,196.07573141588364,196.07573141588364,l,1,0.731247306917794,196.82618041045498,197.8468456286937,,,,,,,,,,,,,,,,,,,,,,,,,,,,,,,,,,,,,,,356058,2023-05-16_15h22.07.176,eb_02psyexp,2022.2.4,99.95408025716084,
58,0,58,0,,,,,,,,,,,,,,,,,,,,,,,,,,,,,,,,,,,,,,,,,,,,,,,,,,,,,,,,,,,197.8468456286937,197.8468456286937,197.8468456286937,197.8468456286937,197.8468456286937,197.8468456286937,l,1,0.6711710849776864,198.5371933481656,199.55784800171386,,,,,,,,,,,,,,,,,,,,,,,,,,,,,,,,,,,,,,,356058,2023-05-16_15h22.07.176,eb_02psyexp,2022.2.4,99.95408025716084,
59,0,59,0,,,,,,,,,,,,,,,,,,,,,,,,,,,,,,,,,,,,,,,,,,,,,,,,,,,,,,,,,,,199.55784800171386,199.55784800171386,199.55784800171386,199.55784800171386,199.55784800171386,199.55784800171386,l,1,0.6081162560731173,200.17815378285013,201.1987444453407,,,,,,,,,,,,,,,,,,,,,,,,,,,,,,,,,,,,,,,356058,2023-05-16_15h22.07.176,eb_02psyexp,2022.2.4,99.95408025716084,
60,0,60,0,,,,,,,,,,,,,,,,,,,,,,,,,,,,,,,,,,,,,,,,,,,,,,,,,,,,,,,,,,,201.1987444453407,201.1987444453407,201.1987444453407,201.1987444453407,201.1987444453407,201.1987444453407,s,1,0.639258214388974,201.84916289313696,202.86983022431377,,,,,,,,,,,,,,,,,,,,,,,,,,,,,,,,,,,,,,,356058,2023-05-16_15h22.07.176,eb_02psyexp,2022.2.4,99.95408025716084,
61,0,61,0,,,,,,,,,,,,,,,,,,,,,,,,,,,,,,,,,,,,,,,,,,,,,,,,,,,,,,,,,,,202.86983022431377,202.86983022431377,202.86983022431377,202.86983022431377,202.86983022431377,202.86983022431377,l,1,0.6001946344040334,203.48013044544496,204.5007084304234,,,,,,,,,,,,,,,,,,,,,,,,,,,,,,,,,,,,,,,356058,2023-05-16_15h22.07.176,eb_02psyexp,2022.2.4,99.95408025716084,
62,0,62,0,,,,,,,,,,,,,,,,,,,,,,,,,,,,,,,,,,,,,,,,,,,,,,,,,,,,,,,,,,,204.5007084304234,204.5007084304234,204.5007084304234,204.5007084304234,204.5007084304234,204.5007084304234,s,1,0.6093006960581988,205.12115638051182,206.1417111235205,,,,,,,,,,,,,,,,,,,,,,,,,,,,,,,,,,,,,,,356058,2023-05-16_15h22.07.176,eb_02psyexp,2022.2.4,99.95408025716084,
63,0,63,0,,,,,,,,,,,,,,,,,,,,,,,,,,,,,,,,,,,,,,,,,,,,,,,,,,,,,,,,,,,206.1417111235205,206.1417111235205,206.1417111235205,206.1417111235205,206.1417111235205,206.1417111235205,s,1,1.4563099247170612,207.61258911225013,208.6332289754646,,,,,,,,,,,,,,,,,,,,,,,,,,,,,,,,,,,,,,,356058,2023-05-16_15h22.07.176,eb_02psyexp,2022.2.4,99.95408025716084,
64,0,64,0,,,,,,,,,,,,,,,,,,,,,,,,,,,,,,,,,,,,,,,,,,,,,,,,,,,,,,,,,,,208.6332289754646,208.6332289754646,208.6332289754646,208.6332289754646,208.6332289754646,208.6332289754646,s,1,0.604805619455874,209.25356946873944,210.27422442426905,,,,,,,,,,,,,,,,,,,,,,,,,,,,,,,,,,,,,,,356058,2023-05-16_15h22.07.176,eb_02psyexp,2022.2.4,99.95408025716084,
65,0,65,0,,,,,,,,,,,,,,,,,,,,,,,,,,,,,,,,,,,,,,,,,,,,,,,,,,,,,,,,,,,210.27422442426905,210.27422442426905,210.27422442426905,210.27422442426905,210.27422442426905,210.27422442426905,l,1,0.6918163815280423,210.98459775222,212.00526025390718,,,,,,,,,,,,,,,,,,,,,,,,,,,,,,,,,,,,,,,356058,2023-05-16_15h22.07.176,eb_02psyexp,2022.2.4,99.95408025716084,
66,0,66,0,,,,,,,,,,,,,,,,,,,,,,,,,,,,,,,,,,,,,,,,,,,,,,,,,,,,,,,,,,,212.00526025390718,212.00526025390718,212.00526025390718,212.00526025390718,212.00526025390718,212.00526025390718,s,1,0.5927927899174392,212.615565304528,213.63625346298795,,,,,,,,,,,,,,,,,,,,,,,,,,,,,,,,,,,,,,,356058,2023-05-16_15h22.07.176,eb_02psyexp,2022.2.4,99.95408025716084,
67,0,67,0,,,,,,,,,,,,,,,,,,,,,,,,,,,,,,,,,,,,,,,,,,,,,,,,,,,,,,,,,,,213.63625346298795,213.63625346298795,213.63625346298795,213.63625346298795,213.63625346298795,213.63625346298795,l,1,0.6008170387940481,214.25654475553893,215.27724619512446,,,,,,,,,,,,,,,,,,,,,,,,,,,,,,,,,,,,,,,356058,2023-05-16_15h22.07.176,eb_02psyexp,2022.2.4,99.95408025716084,
68,0,68,0,,,,,,,,,,,,,,,,,,,,,,,,,,,,,,,,,,,,,,,,,,,,,,,,,,,,,,,,,,,215.27724619512446,215.27724619512446,215.27724619512446,215.27724619512446,215.27724619512446,215.27724619512446,s,1,0.63182648725342,215.92753998097032,216.94820187881123,,,,,,,,,,,,,,,,,,,,,,,,,,,,,,,,,,,,,,,356058,2023-05-16_15h22.07.176,eb_02psyexp,2022.2.4,99.95408025716084,
69,0,69,0,,,,,,,,,,,,,,,,,,,,,,,,,,,,,,,,,,,,,,,,,,,,,,,,,,,,,,,,,,,216.94820187881123,216.94820187881123,216.94820187881123,216.94820187881123,216.94820187881123,216.94820187881123,l,1,0.5208718660287559,217.48846106720157,218.51906785427127,,,,,,,,,,,,,,,,,,,,,,,,,,,,,,,,,,,,,,,356058,2023-05-16_15h22.07.176,eb_02psyexp,2022.2.4,99.95408025716084,
70,0,70,0,,,,,,,,,,,,,,,,,,,,,,,,,,,,,,,,,,,,,,,,,,,,,,,,,,,,,,,,,,,218.51906785427127,218.51906785427127,218.51906785427127,218.51906785427127,218.51906785427127,218.51906785427127,s,1,0.5820757810724899,219.11941503640264,220.14002139482182,,,,,,,,,,,,,,,,,,,,,,,,,,,,,,,,,,,,,,,356058,2023-05-16_15h22.07.176,eb_02psyexp,2022.2.4,99.95408025716084,
71,0,71,0,,,,,,,,,,,,,,,,,,,,,,,,,,,,,,,,,,,,,,,,,,,,,,,,,,,,,,,,,,,220.14002139482182,220.14002139482182,220.14002139482182,220.14002139482182,220.14002139482182,220.14002139482182,l,1,0.5450475421966985,220.70037199393846,221.7309793846216,,,,,,,,,,,,,,,,,,,,,,,,,,,,,,,,,,,,,,,356058,2023-05-16_15h22.07.176,eb_02psyexp,2022.2.4,99.95408025716084,
72,0,72,0,,,,,,,,,,,,,,,,,,,,,,,,,,,,,,,,,,,,,,,,,,,,,,,,,,,,,,,,,,,221.7309793846216,221.7309793846216,221.7309793846216,221.7309793846216,221.7309793846216,221.7309793846216,l,1,0.802166105248034,222.55146911018528,223.5721355357673,,,,,,,,,,,,,,,,,,,,,,,,,,,,,,,,,,,,,,,356058,2023-05-16_15h22.07.176,eb_02psyexp,2022.2.4,99.95408025716084,
73,0,73,0,,,,,,,,,,,,,,,,,,,,,,,,,,,,,,,,,,,,,,,,,,,,,,,,,,,,,,,,,,,223.5721355357673,223.5721355357673,223.5721355357673,223.5721355357673,223.5721355357673,223.5721355357673,l,1,0.5929823485203087,224.18242609780282,225.20310157875065,,,,,,,,,,,,,,,,,,,,,,,,,,,,,,,,,,,,,,,356058,2023-05-16_15h22.07.176,eb_02psyexp,2022.2.4,99.95408025716084,
74,0,74,0,,,,,,,,,,,,,,,,,,,,,,,,,,,,,,,,,,,,,,,,,,,,,,,,,,,,,,,,,,,225.20310157875065,225.20310157875065,225.20310157875065,225.20310157875065,225.20310157875065,225.20310157875065,l,1,0.5620338728185743,225.78339357161894,226.80403494404163,,,,,,,,,,,,,,,,,,,,,,,,,,,,,,,,,,,,,,,356058,2023-05-16_15h22.07.176,eb_02psyexp,2022.2.4,99.95408025716084,
75,0,75,0,,,,,,,,,,,,,,,,,,,,,,,,,,,,,,,,,,,,,,,,,,,,,,,,,,,,,,,,,,,226.80403494404163,226.80403494404163,226.80403494404163,226.80403494404163,226.80403494404163,226.80403494404163,s,1,0.9851041322108358,227.80457826517522,228.82521299703512,,,,,,,,,,,,,,,,,,,,,,,,,,,,,,,,,,,,,,,356058,2023-05-16_15h22.07.176,eb_02psyexp,2022.2.4,99.95408025716084,
76,0,76,0,,,,,,,,,,,,,,,,,,,,,,,,,,,,,,,,,,,,,,,,,,,,,,,,,,,,,,,,,,,228.82521299703512,228.82521299703512,228.82521299703512,228.82521299703512,228.82521299703512,228.82521299703512,s,1,0.6029435372911394,229.44556978996843,230.47652641544119,,,,,,,,,,,,,,,,,,,,,,,,,,,,,,,,,,,,,,,356058,2023-05-16_15h22.07.176,eb_02psyexp,2022.2.4,99.95408025716084,
77,0,77,0,,,,,,,,,,,,,,,,,,,,,,,,,,,,,,,,,,,,,,,,,,,,,,,,,,,,,,,,,,,230.47652641544119,230.47652641544119,230.47652641544119,230.47652641544119,230.47652641544119,230.47652641544119,s,1,0.6556553434347734,231.1465608680155,232.16718262049835,,,,,,,,,,,,,,,,,,,,,,,,,,,,,,,,,,,,,,,356058,2023-05-16_15h22.07.176,eb_02psyexp,2022.2.4,99.95408025716084,
78,0,78,0,,,,,,,,,,,,,,,,,,,,,,,,,,,,,,,,,,,,,,,,,,,,,,,,,,,,,,,,,,,232.16718262049835,232.16718262049835,232.16718262049835,232.16718262049835,232.16718262049835,232.16718262049835,s,1,0.6689839157043025,232.84758937486913,233.8681887908606,,,,,,,,,,,,,,,,,,,,,,,,,,,,,,,,,,,,,,,356058,2023-05-16_15h22.07.176,eb_02psyexp,2022.2.4,99.95408025716084,
79,0,79,0,,,,,,,,,,,,,,,,,,,,,,,,,,,,,,,,,,,,,,,,,,,,,,,,,,,,,,,,,,,233.8681887908606,233.8681887908606,233.8681887908606,233.8681887908606,233.8681887908606,233.8681887908606,s,1,0.6079858589218929,234.4885624870658,235.50923464773223,,,,,,,,,,,,,,,,,,,,,,,,,,,,,,,,,,,,,,,356058,2023-05-16_15h22.07.176,eb_02psyexp,2022.2.4,99.95408025716084,
80,0,80,0,,,,,,,,,,,,,,,,,,,,,,,,,,,,,,,,,,,,,,,,,,,,,,,,,,,,,,,,,,,235.50923464773223,235.50923464773223,235.50923464773223,235.50923464773223,235.50923464773223,235.50923464773223,l,1,0.6149518392048776,236.1395496110199,237.16020426468458,,,,,,,,,,,,,,,,,,,,,,,,,,,,,,,,,,,,,,,356058,2023-05-16_15h22.07.176,eb_02psyexp,2022.2.4,99.95408025716084,
81,0,81,0,,,,,,,,,,,,,,,,,,,,,,,,,,,,,,,,,,,,,,,,,,,,,,,,,,,,,,,,,,,237.16020426468458,237.16020426468458,237.16020426468458,237.16020426468458,237.16020426468458,237.16020426468458,l,1,0.5320241353474557,237.71046931482852,238.7310814082157,,,,,,,,,,,,,,,,,,,,,,,,,,,,,,,,,,,,,,,356058,2023-05-16_15h22.07.176,eb_02psyexp,2022.2.4,99.95408025716084,
82,0,82,0,,,,,,,,,,,,,,,,,,,,,,,,,,,,,,,,,,,,,,,,,,,,,,,,,,,,,,,,,,,238.7310814082157,238.7310814082157,238.7310814082157,238.7310814082157,238.7310814082157,238.7310814082157,l,1,0.5771366903791204,239.32145864819176,240.3523633562727,,,,,,,,,,,,,,,,,,,,,,,,,,,,,,,,,,,,,,,356058,2023-05-16_15h22.07.176,eb_02psyexp,2022.2.4,99.95408025716084,
83,0,83,0,,,,,,,,,,,,,,,,,,,,,,,,,,,,,,,,,,,,,,,,,,,,,,,,,,,,,,,,,,,240.3523633562727,240.3523633562727,240.3523633562727,240.3523633562727,240.3523633562727,240.3523633562727,l,1,0.6438516925554723,241.0127556703519,242.03311481769197,,,,,,,,,,,,,,,,,,,,,,,,,,,,,,,,,,,,,,,356058,2023-05-16_15h22.07.176,eb_02psyexp,2022.2.4,99.95408025716084,
84,0,84,0,,,,,,,,,,,,,,,,,,,,,,,,,,,,,,,,,,,,,,,,,,,,,,,,,,,,,,,,,,,242.03311481769197,242.03311481769197,242.03311481769197,242.03311481769197,242.03311481769197,242.03311481769197,l,1,0.49110209522768855,242.54334615776315,243.56400081142783,,,,,,,,,,,,,,,,,,,,,,,,,,,,,,,,,,,,,,,356058,2023-05-16_15h22.07.176,eb_02psyexp,2022.2.4,99.95408025716084,
85,0,85,0,,,,,,,,,,,,,,,,,,,,,,,,,,,,,,,,,,,,,,,,,,,,,,,,,,,,,,,,,,,243.56400081142783,243.56400081142783,243.56400081142783,243.56400081142783,243.56400081142783,243.56400081142783,s,1,0.6242317636497319,244.2043430674821,245.2249394650571,,,,,,,,,,,,,,,,,,,,,,,,,,,,,,,,,,,,,,,356058,2023-05-16_15h22.07.176,eb_02psyexp,2022.2.4,99.95408025716084,
86,0,86,0,,,,,,,,,,,,,,,,,,,,,,,,,,,,,,,,,,,,,,,,,,,,,,,,,,,,,,,,,,,245.2249394650571,245.2249394650571,245.2249394650571,245.2249394650571,245.2249394650571,245.2249394650571,s,1,0.6503147988114506,245.88533932517748,246.91594490490388,,,,,,,,,,,,,,,,,,,,,,,,,,,,,,,,,,,,,,,356058,2023-05-16_15h22.07.176,eb_02psyexp,2022.2.4,99.95408025716084,
87,0,87,0,,,,,,,,,,,,,,,,,,,,,,,,,,,,,,,,,,,,,,,,,,,,,,,,,,,,,,,,,,,246.91594490490388,246.91594490490388,246.91594490490388,246.91594490490388,246.91594490490388,246.91594490490388,s,1,0.671314763254486,247.60635601182003,248.6269949695561,,,,,,,,,,,,,,,,,,,,,,,,,,,,,,,,,,,,,,,356058,2023-05-16_15h22.07.176,eb_02psyexp,2022.2.4,99.95408025716084,
88,0,88,0,,,,,,,,,,,,,,,,,,,,,,,,,,,,,,,,,,,,,,,,,,,,,,,,,,,,,,,,,,,248.6269949695561,248.6269949695561,248.6269949695561,248.6269949695561,248.6269949695561,248.6269949695561,l,1,0.5202799477847293,249.157280593412,250.17793947283644,,,,,,,,,,,,,,,,,,,,,,,,,,,,,,,,,,,,,,,356058,2023-05-16_15h22.07.176,eb_02psyexp,2022.2.4,99.95408025716084,
89,0,89,0,,,,,,,,,,,,,,,,,,,,,,,,,,,,,,,,,,,,,,,,,,,,,,,,,,,,,,,,,,,250.17793947283644,250.17793947283644,250.17793947283644,250.17793947283644,250.17793947283644,250.17793947283644,s,1,0.5533250392181799,250.74822681129444,251.76890138664749,,,,,,,,,,,,,,,,,,,,,,,,,,,,,,,,,,,,,,,356058,2023-05-16_15h22.07.176,eb_02psyexp,2022.2.4,99.95408025716084,
90,0,90,0,,,,,,,,,,,,,,,,,,,,,,,,,,,,,,,,,,,,,,,,,,,,,,,,,,,,,,,,,,,251.76890138664749,251.76890138664749,251.76890138664749,251.76890138664749,251.76890138664749,251.76890138664749,l,1,0.498400708893314,252.2791342359269,253.31006490276195,,,,,,,,,,,,,,,,,,,,,,,,,,,,,,,,,,,,,,,356058,2023-05-16_15h22.07.176,eb_02psyexp,2022.2.4,99.95408025716084,
91,0,91,0,,,,,,,,,,,,,,,,,,,,,,,,,,,,,,,,,,,,,,,,,,,,,,,,,,,,,,,,,,,253.31006490276195,253.31006490276195,253.31006490276195,253.31006490276195,253.31006490276195,253.31006490276195,l,1,0.5732208543922752,253.90037422755267,254.92078559403308,,,,,,,,,,,,,,,,,,,,,,,,,,,,,,,,,,,,,,,356058,2023-05-16_15h22.07.176,eb_02psyexp,2022.2.4,99.95408025716084,
92,0,92,0,,,,,,,,,,,,,,,,,,,,,,,,,,,,,,,,,,,,,,,,,,,,,,,,,,,,,,,,,,,254.92078559403308,254.92078559403308,254.92078559403308,254.92078559403308,254.92078559403308,254.92078559403308,l,1,0.5385497235693038,255.47102770395577,256.4916648506187,,,,,,,,,,,,,,,,,,,,,,,,,,,,,,,,,,,,,,,356058,2023-05-16_15h22.07.176,eb_02psyexp,2022.2.4,99.95408025716084,
93,0,93,0,,,,,,,,,,,,,,,,,,,,,,,,,,,,,,,,,,,,,,,,,,,,,,,,,,,,,,,,,,,256.4916648506187,256.4916648506187,256.4916648506187,256.4916648506187,256.4916648506187,256.4916648506187,l,1,0.5516582508571446,257.06197543104645,258.0825419459725,,,,,,,,,,,,,,,,,,,,,,,,,,,,,,,,,,,,,,,356058,2023-05-16_15h22.07.176,eb_02psyexp,2022.2.4,99.95408025716084,
94,0,94,0,,,,,,,,,,,,,,,,,,,,,,,,,,,,,,,,,,,,,,,,,,,,,,,,,,,,,,,,,,,258.0825419459725,258.0825419459725,258.0825419459725,258.0825419459725,258.0825419459725,258.0825419459725,s,1,0.5927743773208931,258.6929402666865,259.7136072959984,,,,,,,,,,,,,,,,,,,,,,,,,,,,,,,,,,,,,,,356058,2023-05-16_15h22.07.176,eb_02psyexp,2022.2.4,99.95408025716084,
95,0,95,0,,,,,,,,,,,,,,,,,,,,,,,,,,,,,,,,,,,,,,,,,,,,,,,,,,,,,,,,,,,259.7136072959984,259.7136072959984,259.7136072959984,259.7136072959984,259.7136072959984,259.7136072959984,l,1,0.5207782939542085,260.2538707101485,261.2847986603156,,,,,,,,,,,,,,,,,,,,,,,,,,,,,,,,,,,,,,,356058,2023-05-16_15h22.07.176,eb_02psyexp,2022.2.4,99.95408025716084,
96,0,96,0,,,,,,,,,,,,,,,,,,,,,,,,,,,,,,,,,,,,,,,,,,,,,,,,,,,,,,,,,,,261.2847986603156,261.2847986603156,261.2847986603156,261.2847986603156,261.2847986603156,261.2847986603156,l,1,0.8855203160783276,262.1850255874451,263.20566605438944,,,,,,,,,,,,,,,,,,,,,,,,,,,,,,,,,,,,,,,356058,2023-05-16_15h22.07.176,eb_02psyexp,2022.2.4,99.95408025716084,
97,0,97,0,,,,,,,,,,,,,,,,,,,,,,,,,,,,,,,,,,,,,,,,,,,,,,,,,,,,,,,,,,,263.20566605438944,263.20566605438944,263.20566605438944,263.20566605438944,263.20566605438944,263.20566605438944,l,1,0.5966781394090503,263.8159825751791,264.8366490007611,,,,,,,,,,,,,,,,,,,,,,,,,,,,,,,,,,,,,,,356058,2023-05-16_15h22.07.176,eb_02psyexp,2022.2.4,99.95408025716084,
98,0,98,0,,,,,,,,,,,,,,,,,,,,,,,,,,,,,,,,,,,,,,,,,,,,,,,,,,,,,,,,,,,264.8366490007611,264.8366490007611,264.8366490007611,264.8366490007611,264.8366490007611,264.8366490007611,s,1,0.6537051225313917,265.5069895242341,266.5276381409494,,,,,,,,,,,,,,,,,,,,,,,,,,,,,,,,,,,,,,,356058,2023-05-16_15h22.07.176,eb_02psyexp,2022.2.4,99.95408025716084,
99,0,99,0,,,,,,,,,,,,,,,,,,,,,,,,,,,,,,,,,,,,,,,,,,,,,,,,,,,,,,,,,,,266.5276381409494,266.5276381409494,266.5276381409494,266.5276381409494,266.5276381409494,266.5276381409494,l,1,0.5627124205930158,267.10794311307836,268.1285971630132,,,,,,,,,,,,,,,,,,,,,,,,,,,,,,,,,,,,,,,356058,2023-05-16_15h22.07.176,eb_02psyexp,2022.2.4,99.95408025716084,
100,0,100,0,,,,,,,,,,,,,,,,,,,,,,,,,,,,,,,,,,,,,,,,,,,,,,,,,,,,,,,,,,,268.1285971630132,268.1285971630132,268.1285971630132,268.1285971630132,268.1285971630132,268.1285971630132,l,1,0.5378008460393175,268.6788685519714,269.6995642564725,,,,,,,,,,,,,,,,,,,,,,,,,,,,,,,,,,,,,,,356058,2023-05-16_15h22.07.176,eb_02psyexp,2022.2.4,99.95408025716084,
101,0,101,0,,,,,,,,,,,,,,,,,,,,,,,,,,,,,,,,,,,,,,,,,,,,,,,,,,,,,,,,,,,269.6995642564725,269.6995642564725,269.6995642564725,269.6995642564725,269.6995642564725,269.6995642564725,l,0,0.742814613156952,270.459948481177,271.4805961922975,,,,,,,,,,,,,,,,,,,,,,,,,,,,,,,,,,,,,,,356058,2023-05-16_15h22.07.176,eb_02psyexp,2022.2.4,99.95408025716084,
102,0,102,0,,,,,,,,,,,,,,,,,,,,,,,,,,,,,,,,,,,,,,,,,,,,,,,,,,,,,,,,,,,271.4805961922975,271.4805961922975,271.4805961922975,271.4805961922975,271.4805961922975,271.4805961922975,l,1,0.6017916966229677,272.1009052937152,273.12154726986773,,,,,,,,,,,,,,,,,,,,,,,,,,,,,,,,,,,,,,,356058,2023-05-16_15h22.07.176,eb_02psyexp,2022.2.4,99.95408025716084,
103,0,103,0,,,,,,,,,,,,,,,,,,,,,,,,,,,,,,,,,,,,,,,,,,,,,,,,,,,,,,,,,,,273.12154726986773,273.12154726986773,273.12154726986773,273.12154726986773,273.12154726986773,273.12154726986773,s,1,0.696849345928058,273.83193569013383,274.85255714086816,,,,,,,,,,,,,,,,,,,,,,,,,,,,,,,,,,,,,,,356058,2023-05-16_15h22.07.176,eb_02psyexp,2022.2.4,99.95408025716084,
104,0,104,0,,,,,,,,,,,,,,,,,,,,,,,,,,,,,,,,,,,,,,,,,,,,,,,,,,,,,,,,,,,274.85255714086816,274.85255714086816,274.85255714086816,274.85255714086816,274.85255714086816,274.85255714086816,s,1,0.6378676141612232,275.502918539918,276.5335226103198,,,,,,,,,,,,,,,,,,,,,,,,,,,,,,,,,,,,,,,356058,2023-05-16_15h22.07.176,eb_02psyexp,2022.2.4,99.95408025716084,
105,0,105,0,,,,,,,,,,,,,,,,,,,,,,,,,,,,,,,,,,,,,,,,,,,,,,,,,,,,,,,,,,,276.5335226103198,276.5335226103198,276.5335226103198,276.5335226103198,276.5335226103198,276.5335226103198,s,1,0.651924236677587,277.20391565491445,278.22458751371596,,,,,,,,,,,,,,,,,,,,,,,,,,,,,,,,,,,,,,,356058,2023-05-16_15h22.07.176,eb_02psyexp,2022.2.4,99.95408025716084,
106,0,106,0,,,,,,,,,,,,,,,,,,,,,,,,,,,,,,,,,,,,,,,,,,,,,,,,,,,,,,,,,,,278.22458751371596,278.22458751371596,278.22458751371596,278.22458751371596,278.22458751371596,278.22458751371596,l,1,0.5448093864833936,278.7848741216585,279.8055483951466,,,,,,,,,,,,,,,,,,,,,,,,,,,,,,,,,,,,,,,356058,2023-05-16_15h22.07.176,eb_02psyexp,2022.2.4,99.95408025716084,
107,0,107,0,,,,,,,,,,,,,,,,,,,,,,,,,,,,,,,,,,,,,,,,,,,,,,,,,,,,,,,,,,,279.8055483951466,279.8055483951466,279.8055483951466,279.8055483951466,279.8055483951466,279.8055483951466,l,1,0.6518979761749506,280.4758548102109,281.4965311966371,,,,,,,,,,,,,,,,,,,,,,,,,,,,,,,,,,,,,,,356058,2023-05-16_15h22.07.176,eb_02psyexp,2022.2.4,99.95408025716084,
108,0,108,0,,,,,,,,,,,,,,,,,,,,,,,,,,,,,,,,,,,,,,,,,,,,,,,,,,,,,,,,,,,281.4965311966371,281.4965311966371,281.4965311966371,281.4965311966371,281.4965311966371,281.4965311966371,l,1,0.5209032578859478,282.03679551626556,283.0674297712976,,,,,,,,,,,,,,,,,,,,,,,,,,,,,,,,,,,,,,,356058,2023-05-16_15h22.07.176,eb_02psyexp,2022.2.4,99.95408025716084,
109,0,109,0,,,,,,,,,,,,,,,,,,,,,,,,,,,,,,,,,,,,,,,,,,,,,,,,,,,,,,,,,,,283.0674297712976,283.0674297712976,283.0674297712976,283.0674297712976,283.0674297712976,283.0674297712976,l,1,0.5500430779065937,283.62774113053456,284.64839246380143,,,,,,,,,,,,,,,,,,,,,,,,,,,,,,,,,,,,,,,356058,2023-05-16_15h22.07.176,eb_02psyexp,2022.2.4,99.95408025716084,
110,0,110,0,,,,,,,,,,,,,,,,,,,,,,,,,,,,,,,,,,,,,,,,,,,,,,,,,,,,,,,,,,,284.64839246380143,284.64839246380143,284.64839246380143,284.64839246380143,284.64839246380143,284.64839246380143,l,1,0.5290711851557717,285.18869059020653,286.20931898325216,,,,,,,,,,,,,,,,,,,,,,,,,,,,,,,,,,,,,,,356058,2023-05-16_15h22.07.176,eb_02psyexp,2022.2.4,99.95408025716084,
111,0,111,0,,,,,,,,,,,,,,,,,,,,,,,,,,,,,,,,,,,,,,,,,,,,,,,,,,,,,,,,,,,286.20931898325216,286.20931898325216,286.20931898325216,286.20931898325216,286.20931898325216,286.20931898325216,s,1,0.4561251956038177,286.6795999224996,287.7002032625023,,,,,,,,,,,,,,,,,,,,,,,,,,,,,,,,,,,,,,,356058,2023-05-16_15h22.07.176,eb_02psyexp,2022.2.4,99.95408025716084,
112,0,112,0,,,,,,,,,,,,,,,,,,,,,,,,,,,,,,,,,,,,,,,,,,,,,,,,,,,,,,,,,,,287.7002032625023,287.7002032625023,287.7002032625023,287.7002032625023,287.7002032625023,287.7002032625023,l,1,0.509297919110395,288.22048030793667,289.2411177564645,,,,,,,,,,,,,,,,,,,,,,,,,,,,,,,,,,,,,,,356058,2023-05-16_15h22.07.176,eb_02psyexp,2022.2.4,99.95408025716084,
113,0,113,0,,,,,,,,,,,,,,,,,,,,,,,,,,,,,,,,,,,,,,,,,,,,,,,,,,,,,,,,,,,289.2411177564645,289.2411177564645,289.2411177564645,289.2411177564645,289.2411177564645,289.2411177564645,s,1,0.9043584662722424,290.1616386323003,291.18226913840044,,,,,,,,,,,,,,,,,,,,,,,,,,,,,,,,,,,,,,,356058,2023-05-16_15h22.07.176,eb_02psyexp,2022.2.4,99.95408025716084,
114,0,114,0,,,,,,,,,,,,,,,,,,,,,,,,,,,,,,,,,,,,,,,,,,,,,,,,,,,,,,,,,,,291.18226913840044,291.18226913840044,291.18226913840044,291.18226913840044,291.18226913840044,291.18226913840044,l,1,0.6022861187811941,291.8026392124593,292.8232458727434,,,,,,,,,,,,,,,,,,,,,,,,,,,,,,,,,,,,,,,356058,2023-05-16_15h22.07.176,eb_02psyexp,2022.2.4,99.95408025716084,
115,0,115,0,,,,,,,,,,,,,,,,,,,,,,,,,,,,,,,,,,,,,,,,,,,,,,,,,,,,,,,,,,,292.8232458727434,292.8232458727434,292.8232458727434,292.8232458727434,292.8232458727434,292.8232458727434,s,1,0.4732751261908561,293.31353129143827,294.33441987494007,,,,,,,,,,,,,,,,,,,,,,,,,,,,,,,,,,,,,,,356058,2023-05-16_15h22.07.176,eb_02psyexp,2022.2.4,99.95408025716084,
116,0,116,0,,,,,,,,,,,,,,,,,,,,,,,,,,,,,,,,,,,,,,,,,,,,,,,,,,,,,,,,,,,294.33441987494007,294.33441987494007,294.33441987494007,294.33441987494007,294.33441987494007,294.33441987494007,l,1,0.8580650932854041,295.20463857380673,296.2252068996895,,,,,,,,,,,,,,,,,,,,,,,,,,,,,,,,,,,,,,,356058,2023-05-16_15h22.07.176,eb_02psyexp,2022.2.4,99.95408025716084,
117,0,117,0,,,,,,,,,,,,,,,,,,,,,,,,,,,,,,,,,,,,,,,,,,,,,,,,,,,,,,,,,,,296.2252068996895,296.2252068996895,296.2252068996895,296.2252068996895,296.2252068996895,296.2252068996895,s,1,0.5913843808230013,296.8355656787753,297.85617837600876,,,,,,,,,,,,,,,,,,,,,,,,,,,,,,,,,,,,,,,356058,2023-05-16_15h22.07.176,eb_02psyexp,2022.2.4,99.95408025716084,
118,0,118,0,,,,,,,,,,,,,,,,,,,,,,,,,,,,,,,,,,,,,,,,,,,,,,,,,,,,,,,,,,,297.85617837600876,297.85617837600876,297.85617837600876,297.85617837600876,297.85617837600876,297.85617837600876,s,1,0.5843595407204702,298.456566609093,299.4771883615758,,,,,,,,,,,,,,,,,,,,,,,,,,,,,,,,,,,,,,,356058,2023-05-16_15h22.07.176,eb_02psyexp,2022.2.4,99.95408025716084,
119,0,119,0,,,,,,,,,,,,,,,,,,,,,,,,,,,,,,,,,,,,,,,,,,,,,,,,,,,,,,,,,,,299.4771883615758,299.4771883615758,299.4771883615758,299.4771883615758,299.4771883615758,299.4771883615758,s,1,0.6273778947070241,300.1175405785907,301.1381415037904,,,,,,,,,,,,,,,,,,,,,,,,,,,,,,,,,,,,,,,356058,2023-05-16_15h22.07.176,eb_02psyexp,2022.2.4,99.95408025716084,
120,0,120,0,,,,,,,,,,,,,,,,,,,,,,,,,,,,,,,,,,,,,,,,,,,,,,,,,,,,,,,,,,,301.1381415037904,301.1381415037904,301.1381415037904,301.1381415037904,301.1381415037904,301.1381415037904,s,1,0.6305590397678316,301.77851062407717,302.79915622237604,,,,,,,,,,,,,,,,,,,,,,,,,,,,,,,,,,,,,,,356058,2023-05-16_15h22.07.176,eb_02psyexp,2022.2.4,99.95408025716084,
121,0,121,0,,,,,,,,,,,,,,,,,,,,,,,,,,,,,,,,,,,,,,,,,,,,,,,,,,,,,,,,,,,302.79915622237604,302.79915622237604,302.79915622237604,302.79915622237604,302.79915622237604,302.79915622237604,s,1,0.5694088531890884,303.3794566668803,304.40038086811546,,,,,,,,,,,,,,,,,,,,,,,,,,,,,,,,,,,,,,,356058,2023-05-16_15h22.07.176,eb_02psyexp,2022.2.4,99.95408025716084,
122,0,122,0,,,,,,,,,,,,,,,,,,,,,,,,,,,,,,,,,,,,,,,,,,,,,,,,,,,,,,,,,,,304.40038086811546,304.40038086811546,304.40038086811546,304.40038086811546,304.40038086811546,304.40038086811546,s,1,0.6082336738472804,305.020733435289,306.0410681330832,,,,,,,,,,,,,,,,,,,,,,,,,,,,,,,,,,,,,,,356058,2023-05-16_15h22.07.176,eb_02psyexp,2022.2.4,99.95408025716084,
123,0,123,0,,,,,,,,,,,,,,,,,,,,,,,,,,,,,,,,,,,,,,,,,,,,,,,,,,,,,,,,,,,306.0410681330832,306.0410681330832,306.0410681330832,306.0410681330832,306.0410681330832,306.0410681330832,s,1,0.5675005888333544,306.62136465357617,307.6420286644716,,,,,,,,,,,,,,,,,,,,,,,,,,,,,,,,,,,,,,,356058,2023-05-16_15h22.07.176,eb_02psyexp,2022.2.4,99.95408025716084,
124,0,124,0,,,,,,,,,,,,,,,,,,,,,,,,,,,,,,,,,,,,,,,,,,,,,,,,,,,,,,,,,,,307.6420286644716,307.6420286644716,307.6420286644716,307.6420286644716,307.6420286644716,307.6420286644716,l,1,0.6375757300993428,308.29236983996816,309.32297994731925,,,,,,,,,,,,,,,,,,,,,,,,,,,,,,,,,,,,,,,356058,2023-05-16_15h22.07.176,eb_02psyexp,2022.2.4,99.95408025716084,
125,0,125,0,,,,,,,,,,,,,,,,,,,,,,,,,,,,,,,,,,,,,,,,,,,,,,,,,,,,,,,,,,,309.32297994731925,309.32297994731925,309.32297994731925,309.32297994731925,309.32297994731925,309.32297994731925,s,1,0.6206796510377899,309.9633569155121,310.98396055737976,,,,,,,,,,,,,,,,,,,,,,,,,,,,,,,,,,,,,,,356058,2023-05-16_15h22.07.176,eb_02psyexp,2022.2.4,99.95408025716084,
126,0,126,0,,,,,,,,,,,,,,,,,,,,,,,,,,,,,,,,,,,,,,,,,,,,,,,,,,,,,,,,,,,310.98396055737976,310.98396055737976,310.98396055737976,310.98396055737976,310.98396055737976,310.98396055737976,s,1,0.5356402391334996,311.53429261711426,312.5549478743924,,,,,,,,,,,,,,,,,,,,,,,,,,,,,,,,,,,,,,,356058,2023-05-16_15h22.07.176,eb_02psyexp,2022.2.4,99.95408025716084,
127,0,127,0,,,,,,,,,,,,,,,,,,,,,,,,,,,,,,,,,,,,,,,,,,,,,,,,,,,,,,,,,,,312.5549478743924,312.5549478743924,312.5549478743924,312.5549478743924,312.5549478743924,312.5549478743924,s,1,0.4606682654703036,313.03518275823444,314.0557667800458,,,,,,,,,,,,,,,,,,,,,,,,,,,,,,,,,,,,,,,356058,2023-05-16_15h22.07.176,eb_02psyexp,2022.2.4,99.95408025716084,
128,0,128,0,,,,,,,,,,,,,,,,,,,,,,,,,,,,,,,,,,,,,,,,,,,,,,,,,,,,,,,,,,,314.0557667800458,314.0557667800458,314.0557667800458,314.0557667800458,314.0557667800458,314.0557667800458,s,1,0.42384588497225195,314.49605790362693,315.51669444656,,,,,,,,,,,,,,,,,,,,,,,,,,,,,,,,,,,,,,,356058,2023-05-16_15h22.07.176,eb_02psyexp,2022.2.4,99.95408025716084,
129,0,129,0,,,,,,,,,,,,,,,,,,,,,,,,,,,,,,,,,,,,,,,,,,,,,,,,,,,,,,,,,,,315.51669444656,315.51669444656,315.51669444656,315.51669444656,315.51669444656,315.51669444656,s,1,0.482942619593814,316.0169458833989,317.0375606935704,,,,,,,,,,,,,,,,,,,,,,,,,,,,,,,,,,,,,,,356058,2023-05-16_15h22.07.176,eb_02psyexp,2022.2.4,99.95408025716084,
130,0,130,0,,,,,,,,,,,,,,,,,,,,,,,,,,,,,,,,,,,,,,,,,,,,,,,,,,,,,,,,,,,317.0375606935704,317.0375606935704,317.0375606935704,317.0375606935704,317.0375606935704,317.0375606935704,l,1,0.562086695805192,317.61787441920023,318.6485210497631,,,,,,,,,,,,,,,,,,,,,,,,,,,,,,,,,,,,,,,356058,2023-05-16_15h22.07.176,eb_02psyexp,2022.2.4,99.95408025716084,
131,0,131,0,,,,,,,,,,,,,,,,,,,,,,,,,,,,,,,,,,,,,,,,,,,,,,,,,,,,,,,,,,,318.6485210497631,318.6485210497631,318.6485210497631,318.6485210497631,318.6485210497631,318.6485210497631,s,1,0.5430831346893683,319.20882033521775,320.22951785090845,,,,,,,,,,,,,,,,,,,,,,,,,,,,,,,,,,,,,,,356058,2023-05-16_15h22.07.176,eb_02psyexp,2022.2.4,99.95408025716084,
132,0,132,0,,,,,,,,,,,,,,,,,,,,,,,,,,,,,,,,,,,,,,,,,,,,,,,,,,,,,,,,,,,320.22951785090845,320.22951785090845,320.22951785090845,320.22951785090845,320.22951785090845,320.22951785090845,l,1,0.4901452464982867,320.7297732117586,321.760346494033,,,,,,,,,,,,,,,,,,,,,,,,,,,,,,,,,,,,,,,356058,2023-05-16_15h22.07.176,eb_02psyexp,2022.2.4,99.95408025716084,
133,0,133,0,,,,,,,,,,,,,,,,,,,,,,,,,,,,,,,,,,,,,,,,,,,,,,,,,,,,,,,,,,,321.760346494033,321.760346494033,321.760346494033,321.760346494033,321.760346494033,321.760346494033,l,1,0.5833284379914403,322.36070544819813,,,,,,,,,,,,,,,,,,,,,,,,,,,,,,,,,,,,,,,,356058,2023-05-16_15h22.07.176,eb_02psyexp,2022.2.4,99.95408025716084,
134,0,134,0,,,,,,,,,,,,,,,,,,,,,,,,,,,,,,,,,,,,,,,,,,,,,,,,,,,,,,,,,,,323.3816148589831,323.3816148589831,323.3816148589831,323.3816148589831,323.3816148589831,323.3816148589831,l,1,0.5610528764082119,323.96195816551335,324.9922757849563,,,,,,,,,,,,,,,,,,,,,,,,,,,,,,,,,,,,,,,356058,2023-05-16_15h22.07.176,eb_02psyexp,2022.2.4,99.95408025716084,
135,0,135,0,,,,,,,,,,,,,,,,,,,,,,,,,,,,,,,,,,,,,,,,,,,,,,,,,,,,,,,,,,,324.9922757849563,324.9922757849563,324.9922757849563,324.9922757849563,324.9922757849563,324.9922757849563,s,1,0.7264250302687287,325.73268662032206,326.75330112851225,,,,,,,,,,,,,,,,,,,,,,,,,,,,,,,,,,,,,,,356058,2023-05-16_15h22.07.176,eb_02psyexp,2022.2.4,99.95408025716084,
136,0,136,0,,,,,,,,,,,,,,,,,,,,,,,,,,,,,,,,,,,,,,,,,,,,,,,,,,,,,,,,,,,326.75330112851225,326.75330112851225,326.75330112851225,326.75330112851225,326.75330112851225,326.75330112851225,s,1,0.6374199780402705,327.4036990508903,328.4246564550558,,,,,,,,,,,,,,,,,,,,,,,,,,,,,,,,,,,,,,,356058,2023-05-16_15h22.07.176,eb_02psyexp,2022.2.4,99.95408025716084,
137,0,137,0,,,,,,,,,,,,,,,,,,,,,,,,,,,,,,,,,,,,,,,,,,,,,,,,,,,,,,,,,,,328.4246564550558,328.4246564550558,328.4246564550558,328.4246564550558,328.4246564550558,328.4246564550558,s,1,0.430090757436119,328.8648866058793,329.8851790454937,,,,,,,,,,,,,,,,,,,,,,,,,,,,,,,,,,,,,,,356058,2023-05-16_15h22.07.176,eb_02psyexp,2022.2.4,99.95408025716084,
138,0,138,0,,,,,,,,,,,,,,,,,,,,,,,,,,,,,,,,,,,,,,,,,,,,,,,,,,,,,,,,,,,329.8851790454937,329.8851790454937,329.8851790454937,329.8851790454937,329.8851790454937,329.8851790454937,s,1,0.7455444999504834,330.6455928508658,331.6662879517535,,,,,,,,,,,,,,,,,,,,,,,,,,,,,,,,,,,,,,,356058,2023-05-16_15h22.07.176,eb_02psyexp,2022.2.4,99.95408025716084,
139,0,139,0,,,,,,,,,,,,,,,,,,,,,,,,,,,,,,,,,,,,,,,,,,,,,,,,,,,,,,,,,,,331.6662879517535,331.6662879517535,331.6662879517535,331.6662879517535,331.6662879517535,331.6662879517535,s,1,0.5404833430657163,332.22652777377516,333.2471954067005,,,,,,,,,,,,,,,,,,,,,,,,,,,,,,,,,,,,,,,356058,2023-05-16_15h22.07.176,eb_02psyexp,2022.2.4,99.95408025716084,
140,0,140,0,,,,,,,,,,,,,,,,,,,,,,,,,,,,,,,,,,,,,,,,,,,,,,,,,,,,,,,,,,,333.2471954067005,333.2471954067005,333.2471954067005,333.2471954067005,333.2471954067005,333.2471954067005,l,1,0.5435419391142204,333.8074995216448,334.83809151826426,,,,,,,,,,,,,,,,,,,,,,,,,,,,,,,,,,,,,,,356058,2023-05-16_15h22.07.176,eb_02psyexp,2022.2.4,99.95408025716084,
141,0,141,0,,,,,,,,,,,,,,,,,,,,,,,,,,,,,,,,,,,,,,,,,,,,,,,,,,,,,,,,,,,334.83809151826426,334.83809151826426,334.83809151826426,334.83809151826426,334.83809151826426,334.83809151826426,l,1,0.608670141780749,335.45845495176036,336.47910296486225,,,,,,,,,,,,,,,,,,,,,,,,,,,,,,,,,,,,,,,356058,2023-05-16_15h22.07.176,eb_02psyexp,2022.2.4,99.95408025716084,
142,0,142,0,,,,,,,,,,,,,,,,,,,,,,,,,,,,,,,,,,,,,,,,,,,,,,,,,,,,,,,,,,,336.47910296486225,336.47910296486225,336.47910296486225,336.47910296486225,336.47910296486225,336.47910296486225,l,1,0.5436445664381608,337.03940828714985,338.0700301664183,,,,,,,,,,,,,,,,,,,,,,,,,,,,,,,,,,,,,,,356058,2023-05-16_15h22.07.176,eb_02psyexp,2022.2.4,99.95408025716084,
143,0,143,0,,,,,,,,,,,,,,,,,,,,,,,,,,,,,,,,,,,,,,,,,,,,,,,,,,,,,,,,,,,338.0700301664183,338.0700301664183,338.0700301664183,338.0700301664183,338.0700301664183,338.0700301664183,s,1,0.5517732538282871,338.6403335026698,339.66098664700985,,,,,,,,,,,,,,,,,,,,,,,,,,,,,,,,,,,,,,,356058,2023-05-16_15h22.07.176,eb_02psyexp,2022.2.4,99.95408025716084,
144,0,144,0,,,,,,,,,,,,,,,,,,,,,,,,,,,,,,,,,,,,,,,,,,,,,,,,,,,,,,,,,,,339.66098664700985,339.66098664700985,339.66098664700985,339.66098664700985,339.66098664700985,339.66098664700985,l,1,0.5367839301470667,340.211245056591,341.2419046665309,,,,,,,,,,,,,,,,,,,,,,,,,,,,,,,,,,,,,,,356058,2023-05-16_15h22.07.176,eb_02psyexp,2022.2.4,99.95408025716084,
145,0,145,0,,,,,,,,,,,,,,,,,,,,,,,,,,,,,,,,,,,,,,,,,,,,,,,,,,,,,,,,,,,341.2419046665309,341.2419046665309,341.2419046665309,341.2419046665309,341.2419046665309,341.2419046665309,l,1,0.6038674849551171,341.8622379155131,342.882885928615,,,,,,,,,,,,,,,,,,,,,,,,,,,,,,,,,,,,,,,356058,2023-05-16_15h22.07.176,eb_02psyexp,2022.2.4,99.95408025716084,
146,0,146,0,,,,,,,,,,,,,,,,,,,,,,,,,,,,,,,,,,,,,,,,,,,,,,,,,,,,,,,,,,,342.882885928615,342.882885928615,342.882885928615,342.882885928615,342.882885928615,342.882885928615,l,1,0.5229056980460882,343.4231777162058,,,,,,,,,,,,,,,,,,,,,,,,,,,,,,,,,,,,,,,,356058,2023-05-16_15h22.07.176,eb_02psyexp,2022.2.4,99.95408025716084,
147,0,147,0,,,,,,,,,,,,,,,,,,,,,,,,,,,,,,,,,,,,,,,,,,,,,,,,,,,,,,,,,,,344.44407324213535,344.44407324213535,344.44407324213535,344.44407324213535,344.44407324213535,344.44407324213535,l,1,0.5297400738345459,344.98441634338815,346.0047359489836,,,,,,,,,,,,,,,,,,,,,,,,,,,,,,,,,,,,,,,356058,2023-05-16_15h22.07.176,eb_02psyexp,2022.2.4,99.95408025716084,
148,0,148,0,,,,,,,,,,,,,,,,,,,,,,,,,,,,,,,,,,,,,,,,,,,,,,,,,,,,,,,,,,,346.0047359489836,346.0047359489836,346.0047359489836,346.0047359489836,346.0047359489836,346.0047359489836,s,1,0.49707892921287566,346.5149989827769,347.5356620880775,,,,,,,,,,,,,,,,,,,,,,,,,,,,,,,,,,,,,,,356058,2023-05-16_15h22.07.176,eb_02psyexp,2022.2.4,99.95408025716084,
149,0,149,0,,,,,,,,,,,,,,,,,,,,,,,,,,,,,,,,,,,,,,,,,,,,,,,,,,,,,,,,,,,347.5356620880775,347.5356620880775,347.5356620880775,347.5356620880775,347.5356620880775,347.5356620880775,l,1,0.48612648132257164,348.0359023568453,349.05646132549737,,,,,,,,,,,,,,,,,,,,,,,,,,,,,,,,,,,,,,,356058,2023-05-16_15h22.07.176,eb_02psyexp,2022.2.4,99.95408025716084,
150,0,150,0,,,,,,,,,,,,,,,,,,,,,,,,,,,,,,,,,,,,,,,,,,,,,,,,,,,,,,,,,,,349.05646132549737,349.05646132549737,349.05646132549737,349.05646132549737,349.05646132549737,349.05646132549737,s,1,0.6133164428174496,349.6868758976925,350.7075184774585,,,,,,,,,,,,,,,,,,,,,,,,,,,,,,,,,,,,,,,356058,2023-05-16_15h22.07.176,eb_02psyexp,2022.2.4,99.95408025716084,
151,0,151,0,,,,,,,,,,,,,,,,,,,,,,,,,,,,,,,,,,,,,,,,,,,,,,,,,,,,,,,,,,,350.7075184774585,350.7075184774585,350.7075184774585,350.7075184774585,350.7075184774585,350.7075184774585,s,0,0.6022858169162646,351.32785534870345,352.34847529011313,,,,,,,,,,,,,,,,,,,,,,,,,,,,,,,,,,,,,,,356058,2023-05-16_15h22.07.176,eb_02psyexp,2022.2.4,99.95408025716084,
152,0,152,0,,,,,,,,,,,,,,,,,,,,,,,,,,,,,,,,,,,,,,,,,,,,,,,,,,,,,,,,,,,352.34847529011313,352.34847529011313,352.34847529011313,352.34847529011313,352.34847529011313,352.34847529011313,l,1,1.2173820541938767,353.5791621868266,354.5998252921272,,,,,,,,,,,,,,,,,,,,,,,,,,,,,,,,,,,,,,,356058,2023-05-16_15h22.07.176,eb_02psyexp,2022.2.4,99.95408025716084,
153,0,153,0,,,,,,,,,,,,,,,,,,,,,,,,,,,,,,,,,,,,,,,,,,,,,,,,,,,,,,,,,,,354.5998252921272,354.5998252921272,354.5998252921272,354.5998252921272,354.5998252921272,354.5998252921272,s,1,0.6130263695959002,355.2301284833811,356.2507909850683,,,,,,,,,,,,,,,,,,,,,,,,,,,,,,,,,,,,,,,356058,2023-05-16_15h22.07.176,eb_02psyexp,2022.2.4,99.95408025716084,
154,0,154,0,,,,,,,,,,,,,,,,,,,,,,,,,,,,,,,,,,,,,,,,,,,,,,,,,,,,,,,,,,,356.2507909850683,356.2507909850683,356.2507909850683,356.2507909850683,356.2507909850683,356.2507909850683,l,1,0.9620766745647416,357.231354276184,358.25200772250537,,,,,,,,,,,,,,,,,,,,,,,,,,,,,,,,,,,,,,,356058,2023-05-16_15h22.07.176,eb_02psyexp,2022.2.4,99.95408025716084,
155,0,155,0,,,,,,,,,,,,,,,,,,,,,,,,,,,,,,,,,,,,,,,,,,,,,,,,,,,,,,,,,,,358.25200772250537,358.25200772250537,358.25200772250537,358.25200772250537,358.25200772250537,358.25200772250537,s,1,0.6568989451043308,358.9223373795394,359.9429383047391,,,,,,,,,,,,,,,,,,,,,,,,,,,,,,,,,,,,,,,356058,2023-05-16_15h22.07.176,eb_02psyexp,2022.2.4,99.95408025716084,
156,0,156,0,,,,,,,,,,,,,,,,,,,,,,,,,,,,,,,,,,,,,,,,,,,,,,,,,,,,,,,,,,,359.9429383047391,359.9429383047391,359.9429383047391,359.9429383047391,359.9429383047391,359.9429383047391,s,1,0.5979470959864557,360.5532841044478,361.57394630427007,,,,,,,,,,,,,,,,,,,,,,,,,,,,,,,,,,,,,,,356058,2023-05-16_15h22.07.176,eb_02psyexp,2022.2.4,99.95408025716084,
157,0,157,0,,,,,,,,,,,,,,,,,,,,,,,,,,,,,,,,,,,,,,,,,,,,,,,,,,,,,,,,,,,361.57394630427007,361.57394630427007,361.57394630427007,361.57394630427007,361.57394630427007,361.57394630427007,s,1,0.5909361408557743,362.1842492419528,363.2049120453885,,,,,,,,,,,,,,,,,,,,,,,,,,,,,,,,,,,,,,,356058,2023-05-16_15h22.07.176,eb_02psyexp,2022.2.4,99.95408025716084,
158,0,158,0,,,,,,,,,,,,,,,,,,,,,,,,,,,,,,,,,,,,,,,,,,,,,,,,,,,,,,,,,,,363.2049120453885,363.2049120453885,363.2049120453885,363.2049120453885,363.2049120453885,363.2049120453885,l,1,0.7040163550991565,363.92526105069555,364.9459265707992,,,,,,,,,,,,,,,,,,,,,,,,,,,,,,,,,,,,,,,356058,2023-05-16_15h22.07.176,eb_02psyexp,2022.2.4,99.95408025716084,
159,0,159,0,,,,,,,,,,,,,,,,,,,,,,,,,,,,,,,,,,,,,,,,,,,,,,,,,,,,,,,,,,,364.9459265707992,364.9459265707992,364.9459265707992,364.9459265707992,364.9459265707992,364.9459265707992,s,1,0.7870083518791944,365.7463499386795,366.767062244704,,,,,,,,,,,,,,,,,,,,,,,,,,,,,,,,,,,,,,,356058,2023-05-16_15h22.07.176,eb_02psyexp,2022.2.4,99.95408025716084,
160,0,160,0,,,,,,,,,,,,,,,,,,,,,,,,,,,,,,,,,,,,,,,,,,,,,,,,,,,,,,,,,,,366.767062244704,366.767062244704,366.767062244704,366.767062244704,366.767062244704,366.767062244704,l,1,0.48584757652133703,367.26726146251895,,,,,,,,,,,,,,,,,,,,,,,,,,,,,,,,,,,,,,,,356058,2023-05-16_15h22.07.176,eb_02psyexp,2022.2.4,99.95408025716084,
161,0,161,0,,,,,,,,,,,,,,,,,,,,,,,,,,,,,,,,,,,,,,,,,,,,,,,,,,,,,,,,,,,368.2981903181644,368.2981903181644,368.2981903181644,368.2981903181644,368.2981903181644,368.2981903181644,l,1,0.8747486732900143,369.18839870602824,370.21899764507543,,,,,,,,,,,,,,,,,,,,,,,,,,,,,,,,,,,,,,,356058,2023-05-16_15h22.07.176,eb_02psyexp,2022.2.4,99.95408025716084,
162,0,162,0,,,,,,,,,,,,,,,,,,,,,,,,,,,,,,,,,,,,,,,,,,,,,,,,,,,,,,,,,,,370.21899764507543,370.21899764507543,370.21899764507543,370.21899764507543,370.21899764507543,370.21899764507543,s,1,0.5369620185811073,370.7693260826636,371.7999561118195,,,,,,,,,,,,,,,,,,,,,,,,,,,,,,,,,,,,,,,356058,2023-05-16_15h22.07.176,eb_02psyexp,2022.2.4,99.95408025716084,
163,0,163,0,,,,,,,,,,,,,,,,,,,,,,,,,,,,,,,,,,,,,,,,,,,,,,,,,,,,,,,,,,,371.7999561118195,371.7999561118195,371.7999561118195,371.7999561118195,371.7999561118195,371.7999561118195,s,1,0.5320105523569509,372.3502471206011,,,,,,,,,,,,,,,,,,,,,,,,,,,,,,,,,,,,,,,,356058,2023-05-16_15h22.07.176,eb_02psyexp,2022.2.4,99.95408025716084,
164,0,164,0,,,,,,,,,,,,,,,,,,,,,,,,,,,,,,,,,,,,,,,,,,,,,,,,,,,,,,,,,,,373.37116498313844,373.37116498313844,373.37116498313844,373.37116498313844,373.37116498313844,373.37116498313844,l,1,0.5927924880525097,373.9815234603593,375.0118145174347,,,,,,,,,,,,,,,,,,,,,,,,,,,,,,,,,,,,,,,356058,2023-05-16_15h22.07.176,eb_02psyexp,2022.2.4,99.95408025716084,
165,0,165,0,,,,,,,,,,,,,,,,,,,,,,,,,,,,,,,,,,,,,,,,,,,,,,,,,,,,,,,,,,,375.0118145174347,375.0118145174347,375.0118145174347,375.0118145174347,375.0118145174347,375.0118145174347,s,1,0.5921589151257649,375.62217269290704,376.65281570132356,,,,,,,,,,,,,,,,,,,,,,,,,,,,,,,,,,,,,,,356058,2023-05-16_15h22.07.176,eb_02psyexp,2022.2.4,99.95408025716084,
166,0,166,0,,,,,,,,,,,,,,,,,,,,,,,,,,,,,,,,,,,,,,,,,,,,,,,,,,,,,,,,,,,376.65281570132356,376.65281570132356,376.65281570132356,376.65281570132356,376.65281570132356,376.65281570132356,s,1,0.6231381790712476,377.2931754643796,378.313783332007,,,,,,,,,,,,,,,,,,,,,,,,,,,,,,,,,,,,,,,356058,2023-05-16_15h22.07.176,eb_02psyexp,2022.2.4,99.95408025716084,
167,0,167,0,,,,,,,,,,,,,,,,,,,,,,,,,,,,,,,,,,,,,,,,,,,,,,,,,,,,,,,,,,,378.313783332007,378.313783332007,378.313783332007,378.313783332007,378.313783332007,378.313783332007,l,1,0.4502301615430042,378.77402248990256,379.79462462256197,,,,,,,,,,,,,,,,,,,,,,,,,,,,,,,,,,,,,,,356058,2023-05-16_15h22.07.176,eb_02psyexp,2022.2.4,99.95408025716084,
168,0,168,0,,,,,,,,,,,,,,,,,,,,,,,,,,,,,,,,,,,,,,,,,,,,,,,,,,,,,,,,,,,379.79462462256197,379.79462462256197,379.79462462256197,379.79462462256197,379.79462462256197,379.79462462256197,l,1,0.6093924570595846,380.4150487269508,381.43562037311494,,,,,,,,,,,,,,,,,,,,,,,,,,,,,,,,,,,,,,,356058,2023-05-16_15h22.07.176,eb_02psyexp,2022.2.4,99.95408025716084,
169,0,169,0,,,,,,,,,,,,,,,,,,,,,,,,,,,,,,,,,,,,,,,,,,,,,,,,,,,,,,,,,,,381.43562037311494,381.43562037311494,381.43562037311494,381.43562037311494,381.43562037311494,381.43562037311494,l,1,0.4963708007708192,381.94624622468837,382.9764953253325,,,,,,,,,,,,,,,,,,,,,,,,,,,,,,,,,,,,,,,356058,2023-05-16_15h22.07.176,eb_02psyexp,2022.2.4,99.95408025716084,
170,0,170,0,,,,,,,,,,,,,,,,,,,,,,,,,,,,,,,,,,,,,,,,,,,,,,,,,,,,,,,,,,,382.9764953253325,382.9764953253325,382.9764953253325,382.9764953253325,382.9764953253325,382.9764953253325,s,1,0.6755242944927886,383.6669348056894,384.6975258968305,,,,,,,,,,,,,,,,,,,,,,,,,,,,,,,,,,,,,,,356058,2023-05-16_15h22.07.176,eb_02psyexp,2022.2.4,99.95408025716084,
171,0,171,0,,,,,,,,,,,,,,,,,,,,,,,,,,,,,,,,,,,,,,,,,,,,,,,,,,,,,,,,,,,384.6975258968305,384.6975258968305,384.6975258968305,384.6975258968305,384.6975258968305,384.6975258968305,s,1,0.5535106740426272,385.2678763208678,386.2884473634185,,,,,,,,,,,,,,,,,,,,,,,,,,,,,,,,,,,,,,,356058,2023-05-16_15h22.07.176,eb_02psyexp,2022.2.4,99.95408025716084,
172,0,172,0,,,,,,,,,,,,,,,,,,,,,,,,,,,,,,,,,,,,,,,,,,,,,,,,,,,,,,,,,,,386.2884473634185,386.2884473634185,386.2884473634185,386.2884473634185,386.2884473634185,386.2884473634185,l,1,0.5145922814263031,386.81879275257234,387.84938052343205,,,,,,,,,,,,,,,,,,,,,,,,,,,,,,,,,,,,,,,356058,2023-05-16_15h22.07.176,eb_02psyexp,2022.2.4,99.95408025716084,
173,0,173,0,,,,,,,,,,,,,,,,,,,,,,,,,,,,,,,,,,,,,,,,,,,,,,,,,,,,,,,,,,,387.84938052343205,387.84938052343205,387.84938052343205,387.84938052343205,387.84938052343205,387.84938052343205,s,1,0.5296875527128577,388.3897197006736,,,,,,,,,,,,,,,,,,,,,,,,,,,,,,,,,,,,,,,,356058,2023-05-16_15h22.07.176,eb_02psyexp,2022.2.4,99.95408025716084,
174,0,174,0,,,,,,,,,,,,,,,,,,,,,,,,,,,,,,,,,,,,,,,,,,,,,,,,,,,,,,,,,,,389.41062005620915,389.41062005620915,389.41062005620915,389.41062005620915,389.41062005620915,389.41062005620915,l,1,0.47244384489022195,389.90091634122655,390.92121179925743,,,,,,,,,,,,,,,,,,,,,,,,,,,,,,,,,,,,,,,356058,2023-05-16_15h22.07.176,eb_02psyexp,2022.2.4,99.95408025716084,
175,0,175,0,,,,,,,,,,,,,,,,,,,,,,,,,,,,,,,,,,,,,,,,,,,,,,,,,,,,,,,,,,,390.92121179925743,390.92121179925743,390.92121179925743,390.92121179925743,390.92121179925743,390.92121179925743,l,1,0.5458347541280091,391.4815110847121,392.51212179579306,,,,,,,,,,,,,,,,,,,,,,,,,,,,,,,,,,,,,,,356058,2023-05-16_15h22.07.176,eb_02psyexp,2022.2.4,99.95408025716084,
176,0,176,0,,,,,,,,,,,,,,,,,,,,,,,,,,,,,,,,,,,,,,,,,,,,,,,,,,,,,,,,,,,392.51212179579306,392.51212179579306,392.51212179579306,392.51212179579306,392.51212179579306,392.51212179579306,s,1,0.4189584096893668,392.9423973984085,393.9629784018034,,,,,,,,,,,,,,,,,,,,,,,,,,,,,,,,,,,,,,,356058,2023-05-16_15h22.07.176,eb_02psyexp,2022.2.4,99.95408025716084,
177,0,177,0,,,,,,,,,,,,,,,,,,,,,,,,,,,,,,,,,,,,,,,,,,,,,,,,,,,,,,,,,,,393.9629784018034,393.9629784018034,393.9629784018034,393.9629784018034,393.9629784018034,393.9629784018034,l,1,0.4561043680878356,394.43324424885213,,,,,,,,,,,,,,,,,,,,,,,,,,,,,,,,,,,,,,,,356058,2023-05-16_15h22.07.176,eb_02psyexp,2022.2.4,99.95408025716084,
178,0,178,0,,,,,,,,,,,,,,,,,,,,,,,,,,,,,,,,,,,,,,,,,,,,,,,,,,,,,,,,,,,395.4638887664769,395.4638887664769,395.4638887664769,395.4638887664769,395.4638887664769,395.4638887664769,s,1,0.7792310121003538,396.2543280053651,397.2849426404573,,,,,,,,,,,,,,,,,,,,,,,,,,,,,,,,,,,,,,,356058,2023-05-16_15h22.07.176,eb_02psyexp,2022.2.4,99.95408025716084,
179,0,179,0,,,,,,,,,,,,,,,,,,,,,,,,,,,,,,,,,,,,,,,,,,,,,,,,,,,,,,,,,,,397.2849426404573,397.2849426404573,397.2849426404573,397.2849426404573,397.2849426404573,397.2849426404573,s,1,0.5021719608921558,397.8052269301843,398.8258067262359,,,,,,,,,,,,,,,,,,,,,,,,,,,,,,,,,,,,,,,356058,2023-05-16_15h22.07.176,eb_02psyexp,2022.2.4,99.95408025716084,
180,0,180,0,,,,,,,,,,,,,,,,,,,,,,,,,,,,,,,,,,,,,,,,,,,,,,,,,,,,,,,,,,,398.8258067262359,398.8258067262359,398.8258067262359,398.8258067262359,398.8258067262359,398.8258067262359,l,1,0.6652866156073287,399.50624909834005,400.5368338506669,,,,,,,,,,,,,,,,,,,,,,,,,,,,,,,,,,,,,,,356058,2023-05-16_15h22.07.176,eb_02psyexp,2022.2.4,99.95408025716084,
181,0,181,0,,,,,,,,,,,,,,,,,,,,,,,,,,,,,,,,,,,,,,,,,,,,,,,,,,,,,,,,,,,400.5368338506669,400.5368338506669,400.5368338506669,400.5368338506669,400.5368338506669,400.5368338506669,s,1,0.48128760315012187,401.037123923772,402.06773584219627,,,,,,,,,,,,,,,,,,,,,,,,,,,,,,,,,,,,,,,356058,2023-05-16_15h22.07.176,eb_02psyexp,2022.2.4,99.95408025716084,
182,0,182,0,,,,,,,,,,,,,,,,,,,,,,,,,,,,,,,,,,,,,,,,,,,,,,,,,,,,,,,,,,,402.06773584219627,402.06773584219627,402.06773584219627,402.06773584219627,402.06773584219627,402.06773584219627,s,1,0.6143937277374789,402.698161280714,403.7187268900452,,,,,,,,,,,,,,,,,,,,,,,,,,,,,,,,,,,,,,,356058,2023-05-16_15h22.07.176,eb_02psyexp,2022.2.4,99.95408025716084,
183,0,183,0,,,,,,,,,,,,,,,,,,,,,,,,,,,,,,,,,,,,,,,,,,,,,,,,,,,,,,,,,,,403.7187268900452,403.7187268900452,403.7187268900452,403.7187268900452,403.7187268900452,403.7187268900452,l,1,0.523411892238073,404.25905248429626,405.27961296227295,,,,,,,,,,,,,,,,,,,,,,,,,,,,,,,,,,,,,,,356058,2023-05-16_15h22.07.176,eb_02psyexp,2022.2.4,99.95408025716084,
184,0,184,0,,,,,,,,,,,,,,,,,,,,,,,,,,,,,,,,,,,,,,,,,,,,,,,,,,,,,,,,,,,405.27961296227295,405.27961296227295,405.27961296227295,405.27961296227295,405.27961296227295,405.27961296227295,l,1,0.5385370461735874,405.8302924456075,406.8605747492984,,,,,,,,,,,,,,,,,,,,,,,,,,,,,,,,,,,,,,,356058,2023-05-16_15h22.07.176,eb_02psyexp,2022.2.4,99.95408025716084,
185,0,185,0,,,,,,,,,,,,,,,,,,,,,,,,,,,,,,,,,,,,,,,,,,,,,,,,,,,,,,,,,,,406.8605747492984,406.8605747492984,406.8605747492984,406.8605747492984,406.8605747492984,406.8605747492984,s,1,0.49356122699100524,407.37088788941037,408.4018091990147,,,,,,,,,,,,,,,,,,,,,,,,,,,,,,,,,,,,,,,356058,2023-05-16_15h22.07.176,eb_02psyexp,2022.2.4,99.95408025716084,
186,0,186,0,,,,,,,,,,,,,,,,,,,,,,,,,,,,,,,,,,,,,,,,,,,,,,,,,,,,,,,,,,,408.4018091990147,408.4018091990147,408.4018091990147,408.4018091990147,408.4018091990147,408.4018091990147,s,1,0.5043256253702566,408.92210224224254,409.94234397180844,,,,,,,,,,,,,,,,,,,,,,,,,,,,,,,,,,,,,,,356058,2023-05-16_15h22.07.176,eb_02psyexp,2022.2.4,99.95408025716084,
187,0,187,0,,,,,,,,,,,,,,,,,,,,,,,,,,,,,,,,,,,,,,,,,,,,,,,,,,,,,,,,,,,409.94234397180844,409.94234397180844,409.94234397180844,409.94234397180844,409.94234397180844,409.94234397180844,l,1,0.5558297495590523,410.5127297117142,411.5333025653381,,,,,,,,,,,,,,,,,,,,,,,,,,,,,,,,,,,,,,,356058,2023-05-16_15h22.07.176,eb_02psyexp,2022.2.4,99.95408025716084,
188,0,188,0,,,,,,,,,,,,,,,,,,,,,,,,,,,,,,,,,,,,,,,,,,,,,,,,,,,,,,,,,,,411.5333025653381,411.5333025653381,411.5333025653381,411.5333025653381,411.5333025653381,411.5333025653381,l,1,0.4048779414733872,411.9535620433744,412.9741653833771,,,,,,,,,,,,,,,,,,,,,,,,,,,,,,,,,,,,,,,356058,2023-05-16_15h22.07.176,eb_02psyexp,2022.2.4,99.95408025716084,
189,0,189,0,,,,,,,,,,,,,,,,,,,,,,,,,,,,,,,,,,,,,,,,,,,,,,,,,,,,,,,,,,,412.9741653833771,412.9741653833771,412.9741653833771,412.9741653833771,412.9741653833771,412.9741653833771,l,1,0.45205753145273775,413.4444457188947,414.4650354759069,,,,,,,,,,,,,,,,,,,,,,,,,,,,,,,,,,,,,,,356058,2023-05-16_15h22.07.176,eb_02psyexp,2022.2.4,99.95408025716084,
190,0,190,0,,,,,,,,,,,,,,,,,,,,,,,,,,,,,,,,,,,,,,,,,,,,,,,,,,,,,,,,,,,414.4650354759069,414.4650354759069,414.4650354759069,414.4650354759069,414.4650354759069,414.4650354759069,l,1,0.5203040954656899,414.99568089912646,416.0159769607708,,,,,,,,,,,,,,,,,,,,,,,,,,,,,,,,,,,,,,,356058,2023-05-16_15h22.07.176,eb_02psyexp,2022.2.4,99.95408025716084,
191,0,191,0,,,,,,,,,,,,,,,,,,,,,,,,,,,,,,,,,,,,,,,,,,,,,,,,,,,,,,,,,,,416.0159769607708,416.0159769607708,416.0159769607708,416.0159769607708,416.0159769607708,416.0159769607708,l,1,0.537259939708747,416.566277930513,417.59687475673854,,,,,,,,,,,,,,,,,,,,,,,,,,,,,,,,,,,,,,,356058,2023-05-16_15h22.07.176,eb_02psyexp,2022.2.4,99.95408025716084,
192,0,192,0,,,,,,,,,,,,,,,,,,,,,,,,,,,,,,,,,,,,,,,,,,,,,,,,,,,,,,,,,,,417.59687475673854,417.59687475673854,417.59687475673854,417.59687475673854,417.59687475673854,417.59687475673854,s,1,0.46833694097585976,418.0771443526028,419.0977600682527,,,,,,,,,,,,,,,,,,,,,,,,,,,,,,,,,,,,,,,356058,2023-05-16_15h22.07.176,eb_02psyexp,2022.2.4,99.95408025716084,
193,0,193,0,,,,,,,,,,,,,,,,,,,,,,,,,,,,,,,,,,,,,,,,,,,,,,,,,,,,,,,,,,,419.0977600682527,419.0977600682527,419.0977600682527,419.0977600682527,419.0977600682527,419.0977600682527,l,1,0.503464461537078,419.6181143861031,420.6386624884326,,,,,,,,,,,,,,,,,,,,,,,,,,,,,,,,,,,,,,,356058,2023-05-16_15h22.07.176,eb_02psyexp,2022.2.4,99.95408025716084,
194,0,194,0,,,,,,,,,,,,,,,,,,,,,,,,,,,,,,,,,,,,,,,,,,,,,,,,,,,,,,,,,,,420.6386624884326,420.6386624884326,420.6386624884326,420.6386624884326,420.6386624884326,420.6386624884326,l,1,0.5145989219890907,421.1689888613764,422.19956667127553,,,,,,,,,,,,,,,,,,,,,,,,,,,,,,,,,,,,,,,356058,2023-05-16_15h22.07.176,eb_02psyexp,2022.2.4,99.95408025716084,
195,0,195,0,,,,,,,,,,,,,,,,,,,,,,,,,,,,,,,,,,,,,,,,,,,,,,,,,,,,,,,,,,,422.19956667127553,422.19956667127553,422.19956667127553,422.19956667127553,422.19956667127553,422.19956667127553,s,1,0.48167124832980335,422.69986127200536,423.73048707540147,,,,,,,,,,,,,,,,,,,,,,,,,,,,,,,,,,,,,,,356058,2023-05-16_15h22.07.176,eb_02psyexp,2022.2.4,99.95408025716084,
196,0,196,0,,,,,,,,,,,,,,,,,,,,,,,,,,,,,,,,,,,,,,,,,,,,,,,,,,,,,,,,,,,423.73048707540147,423.73048707540147,423.73048707540147,423.73048707540147,423.73048707540147,423.73048707540147,s,1,0.5827537251170725,424.3308327483246,425.361772772274,,,,,,,,,,,,,,,,,,,,,,,,,,,,,,,,,,,,,,,356058,2023-05-16_15h22.07.176,eb_02psyexp,2022.2.4,99.95408025716084,
197,0,197,0,,,,,,,,,,,,,,,,,,,,,,,,,,,,,,,,,,,,,,,,,,,,,,,,,,,,,,,,,,,425.361772772274,425.361772772274,425.361772772274,425.361772772274,425.361772772274,425.361772772274,s,1,0.5514985747868195,425.932106292923,426.9523450040724,,,,,,,,,,,,,,,,,,,,,,,,,,,,,,,,,,,,,,,356058,2023-05-16_15h22.07.176,eb_02psyexp,2022.2.4,99.95408025716084,
198,0,198,0,,,,,,,,,,,,,,,,,,,,,,,,,,,,,,,,,,,,,,,,,,,,,,,,,,,,,,,,,,,426.9523450040724,426.9523450040724,426.9523450040724,426.9523450040724,426.9523450040724,426.9523450040724,l,1,0.6489211802836508,427.6127548251534,428.6434246978024,,,,,,,,,,,,,,,,,,,,,,,,,,,,,,,,,,,,,,,356058,2023-05-16_15h22.07.176,eb_02psyexp,2022.2.4,99.95408025716084,
199,0,199,0,,,,,0,0,0,0,,,,,,,,,,,,,,,,,,,,,,,,,,,,,,,,,,,,,,,,,,,,,,,,,,,428.6434246978024,428.6434246978024,428.6434246978024,428.6434246978024,428.6434246978024,428.6434246978024,s,1,0.4698606547899544,429.12366531661246,430.1242291632807,430.1242291632807,430.1242291632807,space,27.811205459060147,,,,,,,,,,,,,,,,,,,,,,,,,,,,,,,,,,,356058,2023-05-16_15h22.07.176,eb_02psyexp,2022.2.4,99.95408025716084,
199,0,199,0,,,,,,,,,,,,,,,,,,,,,,,,,,,,,,,,,,,,,,,,,,,,,,,,,,,,,,,,,,,,,,,,,,,,,,,,,,,,,,,,,,,,,,,,,,,,,,,,,,,,,,,,,,,,356058,2023-05-16_15h22.07.176,eb_02psyexp,2022.2.4,99.95408025716084,
200,0,200,0,,,,,,,,,,,,,,,,,,,,,,,,,,,,,,,,,,,,,,,,,,,,,,,,,,,,,,,,,,,457.98091856285464,457.98091856285464,457.98091856285464,457.98091856285464,457.98091856285464,457.98091856285464,s,1,4.282624957850203,462.28308357670903,463.3036642783554,,,,,,,,,,,,,,,,,,,,,,,,,,,,,,,,,,,,,,,356058,2023-05-16_15h22.07.176,eb_02psyexp,2022.2.4,99.95408025716084,
201,0,201,0,,,,,,,,,,,,,,,,,,,,,,,,,,,,,,,,,,,,,,,,,,,,,,,,,,,,,,,,,,,463.3036642783554,463.3036642783554,463.3036642783554,463.3036642783554,463.3036642783554,463.3036642783554,l,1,0.6387975987745449,463.95408121694345,464.98464906588197,,,,,,,,,,,,,,,,,,,,,,,,,,,,,,,,,,,,,,,356058,2023-05-16_15h22.07.176,eb_02psyexp,2022.2.4,99.95408025716084,
202,0,202,0,,,,,,,,,,,,,,,,,,,,,,,,,,,,,,,,,,,,,,,,,,,,,,,,,,,,,,,,,,,464.98464906588197,464.98464906588197,464.98464906588197,464.98464906588197,464.98464906588197,464.98464906588197,s,1,0.5738194131990895,465.575026607723,466.60561166191474,,,,,,,,,,,,,,,,,,,,,,,,,,,,,,,,,,,,,,,356058,2023-05-16_15h22.07.176,eb_02psyexp,2022.2.4,99.95408025716084,
203,0,203,0,,,,,,,,,,,,,,,,,,,,,,,,,,,,,,,,,,,,,,,,,,,,,,,,,,,,,,,,,,,466.60561166191474,466.60561166191474,466.60561166191474,466.60561166191474,466.60561166191474,466.60561166191474,s,1,0.6568971340311691,467.2760062156012,468.29661076294724,,,,,,,,,,,,,,,,,,,,,,,,,,,,,,,,,,,,,,,356058,2023-05-16_15h22.07.176,eb_02psyexp,2022.2.4,99.95408025716084,
204,0,204,0,,,,,,,,,,,,,,,,,,,,,,,,,,,,,,,,,,,,,,,,,,,,,,,,,,,,,,,,,,,468.29661076294724,468.29661076294724,468.29661076294724,468.29661076294724,468.29661076294724,468.29661076294724,l,1,0.5499069457873702,468.85694657161366,469.887520155753,,,,,,,,,,,,,,,,,,,,,,,,,,,,,,,,,,,,,,,356058,2023-05-16_15h22.07.176,eb_02psyexp,2022.2.4,99.95408025716084,
205,0,205,0,,,,,,,,,,,,,,,,,,,,,,,,,,,,,,,,,,,,,,,,,,,,,,,,,,,,,,,,,,,469.887520155753,469.887520155753,469.887520155753,469.887520155753,469.887520155753,469.887520155753,s,1,0.5590066687436774,470.4578959346982,471.4784669772489,,,,,,,,,,,,,,,,,,,,,,,,,,,,,,,,,,,,,,,356058,2023-05-16_15h22.07.176,eb_02psyexp,2022.2.4,99.95408025716084,
206,0,206,0,,,,,,,,,,,,,,,,,,,,,,,,,,,,,,,,,,,,,,,,,,,,,,,,,,,,,,,,,,,471.4784669772489,471.4784669772489,471.4784669772489,471.4784669772489,471.4784669772489,471.4784669772489,l,1,0.592046326957643,472.08883300062735,473.11944793746807,,,,,,,,,,,,,,,,,,,,,,,,,,,,,,,,,,,,,,,356058,2023-05-16_15h22.07.176,eb_02psyexp,2022.2.4,99.95408025716084,
207,0,207,0,,,,,,,,,,,,,,,,,,,,,,,,,,,,,,,,,,,,,,,,,,,,,,,,,,,,,,,,,,,473.11944793746807,473.11944793746807,473.11944793746807,473.11944793746807,473.11944793746807,473.11944793746807,s,1,0.47108342917636037,473.60971132142004,474.64034648193046,,,,,,,,,,,,,,,,,,,,,,,,,,,,,,,,,,,,,,,356058,2023-05-16_15h22.07.176,eb_02psyexp,2022.2.4,99.95408025716084,
208,0,208,0,,,,,,,,,,,,,,,,,,,,,,,,,,,,,,,,,,,,,,,,,,,,,,,,,,,,,,,,,,,474.64034648193046,474.64034648193046,474.64034648193046,474.64034648193046,474.64034648193046,474.64034648193046,s,1,0.5902086943387985,475.2406517076306,476.2712750962237,,,,,,,,,,,,,,,,,,,,,,,,,,,,,,,,,,,,,,,356058,2023-05-16_15h22.07.176,eb_02psyexp,2022.2.4,99.95408025716084,
209,0,209,0,,,,,,,,,,,,,,,,,,,,,,,,,,,,,,,,,,,,,,,,,,,,,,,,,,,,,,,,,,,476.2712750962237,476.2712750962237,476.2712750962237,476.2712750962237,476.2712750962237,476.2712750962237,s,1,0.4872786238556728,476.7715718098916,477.8021629010327,,,,,,,,,,,,,,,,,,,,,,,,,,,,,,,,,,,,,,,356058,2023-05-16_15h22.07.176,eb_02psyexp,2022.2.4,99.95408025716084,
210,0,210,0,,,,,,,,,,,,,,,,,,,,,,,,,,,,,,,,,,,,,,,,,,,,,,,,,,,,,,,,,,,477.8021629010327,477.8021629010327,477.8021629010327,477.8021629010327,477.8021629010327,477.8021629010327,s,1,0.4834270809078589,478.30247410328593,479.33309356775135,,,,,,,,,,,,,,,,,,,,,,,,,,,,,,,,,,,,,,,356058,2023-05-16_15h22.07.176,eb_02psyexp,2022.2.4,99.95408025716084,
211,0,211,0,,,,,,,,,,,,,,,,,,,,,,,,,,,,,,,,,,,,,,,,,,,,,,,,,,,,,,,,,,,479.33309356775135,479.33309356775135,479.33309356775135,479.33309356775135,479.33309356775135,479.33309356775135,s,1,0.49647433357313275,479.8436632761732,480.8639207017841,,,,,,,,,,,,,,,,,,,,,,,,,,,,,,,,,,,,,,,356058,2023-05-16_15h22.07.176,eb_02psyexp,2022.2.4,99.95408025716084,
212,0,212,0,,,,,,,,,,,,,,,,,,,,,,,,,,,,,,,,,,,,,,,,,,,,,,,,,,,,,,,,,,,480.8639207017841,480.8639207017841,480.8639207017841,480.8639207017841,480.8639207017841,480.8639207017841,l,1,0.5017019881634042,481.3842650586739,482.4051554532489,,,,,,,,,,,,,,,,,,,,,,,,,,,,,,,,,,,,,,,356058,2023-05-16_15h22.07.176,eb_02psyexp,2022.2.4,99.95408025716084,
213,0,213,0,,,,,,,,,,,,,,,,,,,,,,,,,,,,,,,,,,,,,,,,,,,,,,,,,,,,,,,,,,,482.4051554532489,482.4051554532489,482.4051554532489,482.4051554532489,482.4051554532489,482.4051554532489,l,1,0.48838277312461287,482.90547842753585,483.9257307216758,,,,,,,,,,,,,,,,,,,,,,,,,,,,,,,,,,,,,,,356058,2023-05-16_15h22.07.176,eb_02psyexp,2022.2.4,99.95408025716084,
214,0,214,0,,,,,,,,,,,,,,,,,,,,,,,,,,,,,,,,,,,,,,,,,,,,,,,,,,,,,,,,,,,483.9257307216758,483.9257307216758,483.9257307216758,483.9257307216758,483.9257307216758,483.9257307216758,l,1,0.4799045491963625,484.41602640307974,485.4369536227314,,,,,,,,,,,,,,,,,,,,,,,,,,,,,,,,,,,,,,,356058,2023-05-16_15h22.07.176,eb_02psyexp,2022.2.4,99.95408025716084,
215,0,215,0,,,,,,,,,,,,,,,,,,,,,,,,,,,,,,,,,,,,,,,,,,,,,,,,,,,,,,,,,,,485.4369536227314,485.4369536227314,485.4369536227314,485.4369536227314,485.4369536227314,485.4369536227314,l,1,0.5046467885840684,485.95727262471337,486.97749865835067,,,,,,,,,,,,,,,,,,,,,,,,,,,,,,,,,,,,,,,356058,2023-05-16_15h22.07.176,eb_02psyexp,2022.2.4,99.95408025716084,
216,0,216,0,,,,,,,,,,,,,,,,,,,,,,,,,,,,,,,,,,,,,,,,,,,,,,,,,,,,,,,,,,,486.97749865835067,486.97749865835067,486.97749865835067,486.97749865835067,486.97749865835067,486.97749865835067,l,1,0.436110453447327,487.4278104341356,488.448714713566,,,,,,,,,,,,,,,,,,,,,,,,,,,,,,,,,,,,,,,356058,2023-05-16_15h22.07.176,eb_02psyexp,2022.2.4,99.95408025716084,
217,0,217,0,,,,,,,,,,,,,,,,,,,,,,,,,,,,,,,,,,,,,,,,,,,,,,,,,,,,,,,,,,,488.448714713566,488.448714713566,488.448714713566,488.448714713566,488.448714713566,488.448714713566,l,1,0.6849029221339151,489.1488325538812,490.1794034213526,,,,,,,,,,,,,,,,,,,,,,,,,,,,,,,,,,,,,,,356058,2023-05-16_15h22.07.176,eb_02psyexp,2022.2.4,99.95408025716084,
218,0,218,0,,,,,,,,,,,,,,,,,,,,,,,,,,,,,,,,,,,,,,,,,,,,,,,,,,,,,,,,,,,490.1794034213526,490.1794034213526,490.1794034213526,490.1794034213526,490.1794034213526,490.1794034213526,s,1,0.4822363023413345,490.67974058235995,491.7003173599951,,,,,,,,,,,,,,,,,,,,,,,,,,,,,,,,,,,,,,,356058,2023-05-16_15h22.07.176,eb_02psyexp,2022.2.4,99.95408025716084,
219,0,219,0,,,,,,,,,,,,,,,,,,,,,,,,,,,,,,,,,,,,,,,,,,,,,,,,,,,,,,,,,,,491.7003173599951,491.7003173599951,491.7003173599951,491.7003173599951,491.7003173599951,491.7003173599951,l,1,0.5052924351766706,492.22062941943295,493.2411905011395,,,,,,,,,,,,,,,,,,,,,,,,,,,,,,,,,,,,,,,356058,2023-05-16_15h22.07.176,eb_02psyexp,2022.2.4,99.95408025716084,
220,0,220,0,,,,,,,,,,,,,,,,,,,,,,,,,,,,,,,,,,,,,,,,,,,,,,,,,,,,,,,,,,,493.2411905011395,493.2411905011395,493.2411905011395,493.2411905011395,493.2411905011395,493.2411905011395,l,1,0.5324509443016723,493.7918008619454,494.82212663127575,,,,,,,,,,,,,,,,,,,,,,,,,,,,,,,,,,,,,,,356058,2023-05-16_15h22.07.176,eb_02psyexp,2022.2.4,99.95408025716084,
221,0,221,0,,,,,,,,,,,,,,,,,,,,,,,,,,,,,,,,,,,,,,,,,,,,,,,,,,,,,,,,,,,494.82212663127575,494.82212663127575,494.82212663127575,494.82212663127575,494.82212663127575,494.82212663127575,s,1,0.6065357953775674,495.4425015349407,496.46309883799404,,,,,,,,,,,,,,,,,,,,,,,,,,,,,,,,,,,,,,,356058,2023-05-16_15h22.07.176,eb_02psyexp,2022.2.4,99.95408025716084,
222,0,222,0,,,,,,,,,,,,,,,,,,,,,,,,,,,,,,,,,,,,,,,,,,,,,,,,,,,,,,,,,,,496.46309883799404,496.46309883799404,496.46309883799404,496.46309883799404,496.46309883799404,496.46309883799404,l,1,0.6055605339352041,497.08340522286016,498.1140750955092,,,,,,,,,,,,,,,,,,,,,,,,,,,,,,,,,,,,,,,356058,2023-05-16_15h22.07.176,eb_02psyexp,2022.2.4,99.95408025716084,
223,0,223,0,,,,,,,,,,,,,,,,,,,,,,,,,,,,,,,,,,,,,,,,,,,,,,,,,,,,,,,,,,,498.1140750955092,498.1140750955092,498.1140750955092,498.1140750955092,498.1140750955092,498.1140750955092,s,1,0.698627816978842,498.8244556677528,499.85509475227445,,,,,,,,,,,,,,,,,,,,,,,,,,,,,,,,,,,,,,,356058,2023-05-16_15h22.07.176,eb_02psyexp,2022.2.4,99.95408025716084,
224,0,224,0,,,,,,,,,,,,,,,,,,,,,,,,,,,,,,,,,,,,,,,,,,,,,,,,,,,,,,,,,,,499.85509475227445,499.85509475227445,499.85509475227445,499.85509475227445,499.85509475227445,499.85509475227445,s,1,0.7335869079688564,500.6055054124445,501.6361227640882,,,,,,,,,,,,,,,,,,,,,,,,,,,,,,,,,,,,,,,356058,2023-05-16_15h22.07.176,eb_02psyexp,2022.2.4,99.95408025716084,
225,0,225,0,,,,,,,,,,,,,,,,,,,,,,,,,,,,,,,,,,,,,,,,,,,,,,,,,,,,,,,,,,,501.6361227640882,501.6361227640882,501.6361227640882,501.6361227640882,501.6361227640882,501.6361227640882,s,1,0.512554525397718,502.16641804703977,503.1869951264234,,,,,,,,,,,,,,,,,,,,,,,,,,,,,,,,,,,,,,,356058,2023-05-16_15h22.07.176,eb_02psyexp,2022.2.4,99.95408025716084,
226,0,226,0,,,,,,,,,,,,,,,,,,,,,,,,,,,,,,,,,,,,,,,,,,,,,,,,,,,,,,,,,,,503.1869951264234,503.1869951264234,503.1869951264234,503.1869951264234,503.1869951264234,503.1869951264234,l,1,0.6177270027110353,503.8173909841571,504.84797935863025,,,,,,,,,,,,,,,,,,,,,,,,,,,,,,,,,,,,,,,356058,2023-05-16_15h22.07.176,eb_02psyexp,2022.2.4,99.95408025716084,
227,0,227,0,,,,,,,,,,,,,,,,,,,,,,,,,,,,,,,,,,,,,,,,,,,,,,,,,,,,,,,,,,,504.84797935863025,504.84797935863025,504.84797935863025,504.84797935863025,504.84797935863025,504.84797935863025,s,1,0.844732295256108,505.7084997757338,506.73909267794807,,,,,,,,,,,,,,,,,,,,,,,,,,,,,,,,,,,,,,,356058,2023-05-16_15h22.07.176,eb_02psyexp,2022.2.4,99.95408025716084,
228,0,228,0,,,,,,,,,,,,,,,,,,,,,,,,,,,,,,,,,,,,,,,,,,,,,,,,,,,,,,,,,,,506.73909267794807,506.73909267794807,506.73909267794807,506.73909267794807,506.73909267794807,506.73909267794807,s,1,0.5776072667213157,507.3294672012562,508.3499962873757,,,,,,,,,,,,,,,,,,,,,,,,,,,,,,,,,,,,,,,356058,2023-05-16_15h22.07.176,eb_02psyexp,2022.2.4,99.95408025716084,
229,0,229,0,,,,,,,,,,,,,,,,,,,,,,,,,,,,,,,,,,,,,,,,,,,,,,,,,,,,,,,,,,,508.3499962873757,508.3499962873757,508.3499962873757,508.3499962873757,508.3499962873757,508.3499962873757,l,1,0.5587479876121506,508.9206847777823,509.94093948672526,,,,,,,,,,,,,,,,,,,,,,,,,,,,,,,,,,,,,,,356058,2023-05-16_15h22.07.176,eb_02psyexp,2022.2.4,99.95408025716084,
230,0,230,0,,,,,,,,,,,,,,,,,,,,,,,,,,,,,,,,,,,,,,,,,,,,,,,,,,,,,,,,,,,509.94093948672526,509.94093948672526,509.94093948672526,509.94093948672526,509.94093948672526,509.94093948672526,l,1,0.6227832091972232,510.5813363768393,511.6119371269597,,,,,,,,,,,,,,,,,,,,,,,,,,,,,,,,,,,,,,,356058,2023-05-16_15h22.07.176,eb_02psyexp,2022.2.4,99.95408025716084,
231,0,231,0,,,,,,,,,,,,,,,,,,,,,,,,,,,,,,,,,,,,,,,,,,,,,,,,,,,,,,,,,,,511.6119371269597,511.6119371269597,511.6119371269597,511.6119371269597,511.6119371269597,511.6119371269597,s,1,0.6558110954938456,512.282332586241,513.3029362279922,,,,,,,,,,,,,,,,,,,,,,,,,,,,,,,,,,,,,,,356058,2023-05-16_15h22.07.176,eb_02psyexp,2022.2.4,99.95408025716084,
232,0,232,0,,,,,,,,,,,,,,,,,,,,,,,,,,,,,,,,,,,,,,,,,,,,,,,,,,,,,,,,,,,513.3029362279922,513.3029362279922,513.3029362279922,513.3029362279922,513.3029362279922,513.3029362279922,l,1,0.5888567302608863,513.9032704308629,514.9338745013811,,,,,,,,,,,,,,,,,,,,,,,,,,,,,,,,,,,,,,,356058,2023-05-16_15h22.07.176,eb_02psyexp,2022.2.4,99.95408025716084,
233,0,233,0,,,,,,,,,,,,,,,,,,,,,,,,,,,,,,,,,,,,,,,,,,,,,,,,,,,,,,,,,,,514.9338745013811,514.9338745013811,514.9338745013811,514.9338745013811,514.9338745013811,514.9338745013811,s,1,0.6458927687490359,515.5942634950625,516.6148943029111,,,,,,,,,,,,,,,,,,,,,,,,,,,,,,,,,,,,,,,356058,2023-05-16_15h22.07.176,eb_02psyexp,2022.2.4,99.95408025716084,
234,0,234,0,,,,,,,,,,,,,,,,,,,,,,,,,,,,,,,,,,,,,,,,,,,,,,,,,,,,,,,,,,,516.6148943029111,516.6148943029111,516.6148943029111,516.6148943029111,516.6148943029111,516.6148943029111,l,1,0.5809314864454791,517.215187454829,518.2458174839849,,,,,,,,,,,,,,,,,,,,,,,,,,,,,,,,,,,,,,,356058,2023-05-16_15h22.07.176,eb_02psyexp,2022.2.4,99.95408025716084,
235,0,235,0,,,,,,,,,,,,,,,,,,,,,,,,,,,,,,,,,,,,,,,,,,,,,,,,,,,,,,,,,,,518.2458174839849,518.2458174839849,518.2458174839849,518.2458174839849,518.2458174839849,518.2458174839849,s,1,0.8059711640235037,519.0662909098901,520.0869144734461,,,,,,,,,,,,,,,,,,,,,,,,,,,,,,,,,,,,,,,356058,2023-05-16_15h22.07.176,eb_02psyexp,2022.2.4,99.95408025716084,
236,0,236,0,,,,,,,,,,,,,,,,,,,,,,,,,,,,,,,,,,,,,,,,,,,,,,,,,,,,,,,,,,,520.0869144734461,520.0869144734461,520.0869144734461,520.0869144734461,520.0869144734461,520.0869144734461,l,1,0.5808952650986612,520.6872498836601,521.7178645187523,,,,,,,,,,,,,,,,,,,,,,,,,,,,,,,,,,,,,,,356058,2023-05-16_15h22.07.176,eb_02psyexp,2022.2.4,99.95408025716084,
237,0,237,0,,,,,,,,,,,,,,,,,,,,,,,,,,,,,,,,,,,,,,,,,,,,,,,,,,,,,,,,,,,521.7178645187523,521.7178645187523,521.7178645187523,521.7178645187523,521.7178645187523,521.7178645187523,s,1,0.5099402454216033,522.2381358291022,523.2587005329551,,,,,,,,,,,,,,,,,,,,,,,,,,,,,,,,,,,,,,,356058,2023-05-16_15h22.07.176,eb_02psyexp,2022.2.4,99.95408025716084,
238,0,238,0,,,,,,,,,,,,,,,,,,,,,,,,,,,,,,,,,,,,,,,,,,,,,,,,,,,,,,,,,,,523.2587005329551,523.2587005329551,523.2587005329551,523.2587005329551,523.2587005329551,523.2587005329551,l,1,0.44911031634546816,523.7193468797486,524.7395653673448,,,,,,,,,,,,,,,,,,,,,,,,,,,,,,,,,,,,,,,356058,2023-05-16_15h22.07.176,eb_02psyexp,2022.2.4,99.95408025716084,
239,0,239,0,,,,,,,,,,,,,,,,,,,,,,,,,,,,,,,,,,,,,,,,,,,,,,,,,,,,,,,,,,,524.7395653673448,524.7395653673448,524.7395653673448,524.7395653673448,524.7395653673448,524.7395653673448,l,1,0.5673327628755942,525.3199370471993,,,,,,,,,,,,,,,,,,,,,,,,,,,,,,,,,,,,,,,,356058,2023-05-16_15h22.07.176,eb_02psyexp,2022.2.4,99.95408025716084,
240,0,240,0,,,,,,,,,,,,,,,,,,,,,,,,,,,,,,,,,,,,,,,,,,,,,,,,,,,,,,,,,,,526.3505269309971,526.3505269309971,526.3505269309971,526.3505269309971,526.3505269309971,526.3505269309971,l,0,0.4523017242318019,526.8211157522164,527.8413780072005,,,,,,,,,,,,,,,,,,,,,,,,,,,,,,,,,,,,,,,356058,2023-05-16_15h22.07.176,eb_02psyexp,2022.2.4,99.95408025716084,
241,0,241,0,,,,,,,,,,,,,,,,,,,,,,,,,,,,,,,,,,,,,,,,,,,,,,,,,,,,,,,,,,,527.8413780072005,527.8413780072005,527.8413780072005,527.8413780072005,527.8413780072005,527.8413780072005,l,1,0.8254652232863009,528.6819226202788,529.7024698170135,,,,,,,,,,,,,,,,,,,,,,,,,,,,,,,,,,,,,,,356058,2023-05-16_15h22.07.176,eb_02psyexp,2022.2.4,99.95408025716084,
242,0,242,0,,,,,,,,,,,,,,,,,,,,,,,,,,,,,,,,,,,,,,,,,,,,,,,,,,,,,,,,,,,529.7024698170135,529.7024698170135,529.7024698170135,529.7024698170135,529.7024698170135,529.7024698170135,l,1,0.6363825364969671,530.3528773984872,,,,,,,,,,,,,,,,,,,,,,,,,,,,,,,,,,,,,,,,356058,2023-05-16_15h22.07.176,eb_02psyexp,2022.2.4,99.95408025716084,
243,0,243,0,,,,,,,,,,,,,,,,,,,,,,,,,,,,,,,,,,,,,,,,,,,,,,,,,,,,,,,,,,,531.3838128946954,531.3838128946954,531.3838128946954,531.3838128946954,531.3838128946954,531.3838128946954,l,1,0.5070811689365655,531.9041092583211,532.9343683198094,,,,,,,,,,,,,,,,,,,,,,,,,,,,,,,,,,,,,,,356058,2023-05-16_15h22.07.176,eb_02psyexp,2022.2.4,99.95408025716084,
244,0,244,0,,,,,,,,,,,,,,,,,,,,,,,,,,,,,,,,,,,,,,,,,,,,,,,,,,,,,,,,,,,532.9343683198094,532.9343683198094,532.9343683198094,532.9343683198094,532.9343683198094,532.9343683198094,s,1,0.5245006473269314,533.4747029694263,534.5052979844622,,,,,,,,,,,,,,,,,,,,,,,,,,,,,,,,,,,,,,,356058,2023-05-16_15h22.07.176,eb_02psyexp,2022.2.4,99.95408025716084,
245,0,245,0,,,,,,,,,,,,,,,,,,,,,,,,,,,,,,,,,,,,,,,,,,,,,,,,,,,,,,,,,,,534.5052979844622,534.5052979844622,534.5052979844622,534.5052979844622,534.5052979844622,534.5052979844622,s,1,0.6735610942123458,535.1957235799637,536.2263243302004,,,,,,,,,,,,,,,,,,,,,,,,,,,,,,,,,,,,,,,356058,2023-05-16_15h22.07.176,eb_02psyexp,2022.2.4,99.95408025716084,
246,0,246,0,,,,,,,,,,,,,,,,,,,,,,,,,,,,,,,,,,,,,,,,,,,,,,,,,,,,,,,,,,,536.2263243302004,536.2263243302004,536.2263243302004,536.2263243302004,536.2263243302004,536.2263243302004,s,1,0.5845750581938773,536.8266386112664,537.8472808891675,,,,,,,,,,,,,,,,,,,,,,,,,,,,,,,,,,,,,,,356058,2023-05-16_15h22.07.176,eb_02psyexp,2022.2.4,99.95408025716084,
247,0,247,0,,,,,,,,,,,,,,,,,,,,,,,,,,,,,,,,,,,,,,,,,,,,,,,,,,,,,,,,,,,537.8472808891675,537.8472808891675,537.8472808891675,537.8472808891675,537.8472808891675,537.8472808891675,s,0,0.4436426948523149,538.3074980124366,539.3281212741276,,,,,,,,,,,,,,,,,,,,,,,,,,,,,,,,,,,,,,,356058,2023-05-16_15h22.07.176,eb_02psyexp,2022.2.4,99.95408025716084,
248,0,248,0,,,,,,,,,,,,,,,,,,,,,,,,,,,,,,,,,,,,,,,,,,,,,,,,,,,,,,,,,,,539.3281212741276,539.3281212741276,539.3281212741276,539.3281212741276,539.3281212741276,539.3281212741276,l,1,0.6907780345063657,540.0385377659695,541.0691228201613,,,,,,,,,,,,,,,,,,,,,,,,,,,,,,,,,,,,,,,356058,2023-05-16_15h22.07.176,eb_02psyexp,2022.2.4,99.95408025716084,
249,0,249,0,,,,,,,,,,,,,,,,,,,,,,,,,,,,,,,,,,,,,,,,,,,,,,,,,,,,,,,,,,,541.0691228201613,541.0691228201613,541.0691228201613,541.0691228201613,541.0691228201613,541.0691228201613,s,1,0.5007910197600722,541.5894215984736,542.6100575377932,,,,,,,,,,,,,,,,,,,,,,,,,,,,,,,,,,,,,,,356058,2023-05-16_15h22.07.176,eb_02psyexp,2022.2.4,99.95408025716084,
250,0,250,0,,,,,,,,,,,,,,,,,,,,,,,,,,,,,,,,,,,,,,,,,,,,,,,,,,,,,,,,,,,542.6100575377932,542.6100575377932,542.6100575377932,542.6100575377932,542.6100575377932,542.6100575377932,l,1,0.5438664224930108,543.1703788578743,544.1909514096333,,,,,,,,,,,,,,,,,,,,,,,,,,,,,,,,,,,,,,,356058,2023-05-16_15h22.07.176,eb_02psyexp,2022.2.4,99.95408025716084,
251,0,251,0,,,,,,,,,,,,,,,,,,,,,,,,,,,,,,,,,,,,,,,,,,,,,,,,,,,,,,,,,,,544.1909514096333,544.1909514096333,544.1909514096333,544.1909514096333,544.1909514096333,544.1909514096333,l,1,0.6589976737741381,544.8613408319652,545.8819296833826,,,,,,,,,,,,,,,,,,,,,,,,,,,,,,,,,,,,,,,356058,2023-05-16_15h22.07.176,eb_02psyexp,2022.2.4,99.95408025716084,
252,0,252,0,,,,,,,,,,,,,,,,,,,,,,,,,,,,,,,,,,,,,,,,,,,,,,,,,,,,,,,,,,,545.8819296833826,545.8819296833826,545.8819296833826,545.8819296833826,545.8819296833826,545.8819296833826,l,1,1.080034704762511,546.9725770746591,548.003166354727,,,,,,,,,,,,,,,,,,,,,,,,,,,,,,,,,,,,,,,356058,2023-05-16_15h22.07.176,eb_02psyexp,2022.2.4,99.95408025716084,
253,0,253,0,,,,,,,,,,,,,,,,,,,,,,,,,,,,,,,,,,,,,,,,,,,,,,,,,,,,,,,,,,,548.003166354727,548.003166354727,548.003166354727,548.003166354727,548.003166354727,548.003166354727,s,1,0.9827895842026919,549.0037621968659,550.0243326356867,,,,,,,,,,,,,,,,,,,,,,,,,,,,,,,,,,,,,,,356058,2023-05-16_15h22.07.176,eb_02psyexp,2022.2.4,99.95408025716084,
254,0,254,0,,,,,,,,,,,,,,,,,,,,,,,,,,,,,,,,,,,,,,,,,,,,,,,,,,,,,,,,,,,550.0243326356867,550.0243326356867,550.0243326356867,550.0243326356867,550.0243326356867,550.0243326356867,l,1,0.4976282872958109,550.5346515108831,551.5552141017979,,,,,,,,,,,,,,,,,,,,,,,,,,,,,,,,,,,,,,,356058,2023-05-16_15h22.07.176,eb_02psyexp,2022.2.4,99.95408025716084,
255,0,255,0,,,,,,,,,,,,,,,,,,,,,,,,,,,,,,,,,,,,,,,,,,,,,,,,,,,,,,,,,,,551.5552141017979,551.5552141017979,551.5552141017979,551.5552141017979,551.5552141017979,551.5552141017979,s,0,0.36676155123859644,551.9354929944966,553.0260908831842,,,,,,,,,,,,,,,,,,,,,,,,,,,,,,,,,,,,,,,356058,2023-05-16_15h22.07.176,eb_02psyexp,2022.2.4,99.95408025716084,
256,0,256,0,,,,,,,,,,,,,,,,,,,,,,,,,,,,,,,,,,,,,,,,,,,,,,,,,,,,,,,,,,,553.0260908831842,553.0260908831842,553.0260908831842,553.0260908831842,553.0260908831842,553.0260908831842,l,1,0.8158632301492617,553.8569432513323,554.8871775616426,,,,,,,,,,,,,,,,,,,,,,,,,,,,,,,,,,,,,,,356058,2023-05-16_15h22.07.176,eb_02psyexp,2022.2.4,99.95408025716084,
257,0,257,0,,,,,,,,,,,,,,,,,,,,,,,,,,,,,,,,,,,,,,,,,,,,,,,,,,,,,,,,,,,554.8871775616426,554.8871775616426,554.8871775616426,554.8871775616426,554.8871775616426,554.8871775616426,s,1,0.4908316421788186,555.3974928145763,,,,,,,,,,,,,,,,,,,,,,,,,,,,,,,,,,,,,,,,356058,2023-05-16_15h22.07.176,eb_02psyexp,2022.2.4,99.95408025716084,
258,0,258,0,,,,,,,,,,,,,,,,,,,,,,,,,,,,,,,,,,,,,,,,,,,,,,,,,,,,,,,,,,,556.4184130919166,556.4184130919166,556.4184130919166,556.4184130919166,556.4184130919166,556.4184130919166,l,1,0.5105750254588202,556.948717128369,557.9790353515418,,,,,,,,,,,,,,,,,,,,,,,,,,,,,,,,,,,,,,,356058,2023-05-16_15h22.07.176,eb_02psyexp,2022.2.4,99.95408025716084,
259,0,259,0,,,,,,,,,,,,,,,,,,,,,,,,,,,,,,,,,,,,,,,,,,,,,,,,,,,,,,,,,,,557.9790353515418,557.9790353515418,557.9790353515418,557.9790353515418,557.9790353515418,557.9790353515418,s,1,0.5819656075909734,558.5793448031181,559.6099301591748,,,,,,,,,,,,,,,,,,,,,,,,,,,,,,,,,,,,,,,356058,2023-05-16_15h22.07.176,eb_02psyexp,2022.2.4,99.95408025716084,
260,0,260,0,,,,,,,,,,,,,,,,,,,,,,,,,,,,,,,,,,,,,,,,,,,,,,,,,,,,,,,,,,,559.6099301591748,559.6099301591748,559.6099301591748,559.6099301591748,559.6099301591748,559.6099301591748,s,1,0.5591144274221733,560.1802971846191,561.2108813333325,,,,,,,,,,,,,,,,,,,,,,,,,,,,,,,,,,,,,,,356058,2023-05-16_15h22.07.176,eb_02psyexp,2022.2.4,99.95408025716084,
261,0,261,0,,,,,,,,,,,,,,,,,,,,,,,,,,,,,,,,,,,,,,,,,,,,,,,,,,,,,,,,,,,561.2108813333325,561.2108813333325,561.2108813333325,561.2108813333325,561.2108813333325,561.2108813333325,s,1,0.4541324144229293,561.6811803833116,562.7017366354121,,,,,,,,,,,,,,,,,,,,,,,,,,,,,,,,,,,,,,,356058,2023-05-16_15h22.07.176,eb_02psyexp,2022.2.4,99.95408025716084,
262,0,262,0,,,,,,,,,,,,,,,,,,,,,,,,,,,,,,,,,,,,,,,,,,,,,,,,,,,,,,,,,,,562.7017366354121,562.7017366354121,562.7017366354121,562.7017366354121,562.7017366354121,562.7017366354121,l,1,0.4512971837539226,563.1720435332973,,,,,,,,,,,,,,,,,,,,,,,,,,,,,,,,,,,,,,,,356058,2023-05-16_15h22.07.176,eb_02psyexp,2022.2.4,99.95408025716084,
263,0,263,0,,,,,,,,,,,,,,,,,,,,,,,,,,,,,,,,,,,,,,,,,,,,,,,,,,,,,,,,,,,564.2029446193483,564.2029446193483,564.2029446193483,564.2029446193483,564.2029446193483,564.2029446193483,s,1,0.6541032561799511,564.8733370602131,565.903614232433,,,,,,,,,,,,,,,,,,,,,,,,,,,,,,,,,,,,,,,356058,2023-05-16_15h22.07.176,eb_02psyexp,2022.2.4,99.95408025716084,
264,0,264,0,,,,,,,,,,,,,,,,,,,,,,,,,,,,,,,,,,,,,,,,,,,,,,,,,,,,,,,,,,,565.903614232433,565.903614232433,565.903614232433,565.903614232433,565.903614232433,565.903614232433,s,1,0.5214752542087808,566.4439515986014,567.4745604986092,,,,,,,,,,,,,,,,,,,,,,,,,,,,,,,,,,,,,,,356058,2023-05-16_15h22.07.176,eb_02psyexp,2022.2.4,99.95408025716084,
265,0,265,0,,,,,,,,,,,,,,,,,,,,,,,,,,,,,,,,,,,,,,,,,,,,,,,,,,,,,,,,,,,567.4745604986092,567.4745604986092,567.4745604986092,567.4745604986092,567.4745604986092,567.4745604986092,s,1,0.47053980617783964,567.9648145253304,568.9954496858409,,,,,,,,,,,,,,,,,,,,,,,,,,,,,,,,,,,,,,,356058,2023-05-16_15h22.07.176,eb_02psyexp,2022.2.4,99.95408025716084,
266,0,266,0,,,,,,,,,,,,,,,,,,,,,,,,,,,,,,,,,,,,,,,,,,,,,,,,,,,,,,,,,,,568.9954496858409,568.9954496858409,568.9954496858409,568.9954496858409,568.9954496858409,568.9954496858409,s,1,0.5656240179669112,569.5757766927127,570.6063551062252,,,,,,,,,,,,,,,,,,,,,,,,,,,,,,,,,,,,,,,356058,2023-05-16_15h22.07.176,eb_02psyexp,2022.2.4,99.95408025716084,
267,0,267,0,,,,,,,,,,,,,,,,,,,,,,,,,,,,,,,,,,,,,,,,,,,,,,,,,,,,,,,,,,,570.6063551062252,570.6063551062252,570.6063551062252,570.6063551062252,570.6063551062252,570.6063551062252,s,1,0.5067261991789564,571.1266596196219,572.147253300529,,,,,,,,,,,,,,,,,,,,,,,,,,,,,,,,,,,,,,,356058,2023-05-16_15h22.07.176,eb_02psyexp,2022.2.4,99.95408025716084,
268,0,268,0,,,,,,,,,,,,,,,,,,,,,,,,,,,,,,,,,,,,,,,,,,,,,,,,,,,,,,,,,,,572.147253300529,572.147253300529,572.147253300529,572.147253300529,572.147253300529,572.147253300529,l,1,0.492837100639008,572.6575407838682,573.6881677944912,,,,,,,,,,,,,,,,,,,,,,,,,,,,,,,,,,,,,,,356058,2023-05-16_15h22.07.176,eb_02psyexp,2022.2.4,99.95408025716084,
269,0,269,0,,,,,,,,,,,,,,,,,,,,,,,,,,,,,,,,,,,,,,,,,,,,,,,,,,,,,,,,,,,573.6881677944912,573.6881677944912,573.6881677944912,573.6881677944912,573.6881677944912,573.6881677944912,s,1,0.5039308121195063,574.2084427271038,575.2390649082372,,,,,,,,,,,,,,,,,,,,,,,,,,,,,,,,,,,,,,,356058,2023-05-16_15h22.07.176,eb_02psyexp,2022.2.4,99.95408025716084,
270,0,270,0,,,,,,,,,,,,,,,,,,,,,,,,,,,,,,,,,,,,,,,,,,,,,,,,,,,,,,,,,,,575.2390649082372,575.2390649082372,575.2390649082372,575.2390649082372,575.2390649082372,575.2390649082372,s,1,0.4250351545633748,575.6793170936871,576.6999225466279,,,,,,,,,,,,,,,,,,,,,,,,,,,,,,,,,,,,,,,356058,2023-05-16_15h22.07.176,eb_02psyexp,2022.2.4,99.95408025716084,
271,0,271,0,,,,,,,,,,,,,,,,,,,,,,,,,,,,,,,,,,,,,,,,,,,,,,,,,,,,,,,,,,,576.6999225466279,576.6999225466279,576.6999225466279,576.6999225466279,576.6999225466279,576.6999225466279,l,1,0.47615835012402385,577.1902019283734,578.2210981848184,,,,,,,,,,,,,,,,,,,,,,,,,,,,,,,,,,,,,,,356058,2023-05-16_15h22.07.176,eb_02psyexp,2022.2.4,99.95408025716084,
