trials.thisRepN,trials.thisTrialN,trials.thisN,trials.thisIndex,image_loop.thisRepN,image_loop.thisTrialN,image_loop.thisN,image_loop.thisIndex,break_loop.thisRepN,break_loop.thisTrialN,break_loop.thisN,break_loop.thisIndex,test_trials.thisRepN,test_trials.thisTrialN,test_trials.thisN,test_trials.thisIndex,tools,welcome_text.started,instructions_0_keypress.started,instructions_0_keypress.keys,instructions_0_keypress.rt,consent_image_0.started,consent0_key_resp.started,consent0_text.started,consent0_key_resp.keys,consent0_key_resp.rt,consent_image_1.started,consent1_key_resp.started,consent1_text.started,consent1_key_resp.keys,consent1_key_resp.rt,consent2_text.started,consent_image_2.started,consent2_key_resp.started,consent2_key_resp.keys,consent2_key_resp.rt,agree_button.started,disagree_button.started,consent_image_3.started,agree_button.numClicks,agree_button.timesOn,agree_button.timesOff,disagree_button.numClicks,disagree_button.timesOn,disagree_button.timesOff,instructions_text1.started,instructions1_key_resp.started,instr1_cnt_text.started,instructions1_key_resp.keys,instructions1_key_resp.rt,instructions_text2.started,instr2_cnt_text.started,instructions2_key_resp.started,instructions2_key_resp.keys,instructions2_key_resp.rt,instructions_text3.started,instructions3_key_resp.started,instr3_cnt_text.started,instructions3_key_resp.keys,instructions3_key_resp.rt,text_countdown.started,image.started,small_large_keyresp.started,task_question_text.started,smalleroption_text.started,largeroption_text.started,accuracy_score_text.started,small_large_keyresp.keys,small_large_keyresp.corr,small_large_keyresp.rt,fb_2.started,fb_2.stopped,break_text.started,break_key_resp.started,break_key_resp.keys,break_key_resp.rt,graph.started,debrief_text.started,debriefing_title.started,demo_scr_adv.started,demo_scr_adv_keypress.started,demo_scr_adv_keypress.keys,demo_scr_adv_keypress.rt,text_countdown_2.started,participant,date,expName,psychopyVersion,frameRate,
,,,,,,,,,,,,,,,,[ 2  9  8  5  4 11  7  1  3 10  6  0],12.570941134821624,12.570941134821624,return,28.526156885316595,,,,,,,,,,,,,,,,,,,,,,,,,,,,,,,,,,,,,,,,,,,,,,,,,,,,,,,,,,,,,,,,542,2023-05-15_09h47.04.442,eb_02psyexp,2022.2.4,99.91609719718393,
,,,,,,,,,,,,,,,,,,,,,41.107463481253944,41.107463481253944,41.107463481253944,space,40.59480067738332,,,,,,,,,,,,,,,,,,,,,,,,,,,,,,,,,,,,,,,,,,,,,,,,,,,,,,,,,,,542,2023-05-15_09h47.04.442,eb_02psyexp,2022.2.4,99.91609719718393,
,,,,,,,,,,,,,,,,,,,,,,,,,,81.72156544099562,81.72156544099562,81.72156544099562,space,8.860747906379402,,,,,,,,,,,,,,,,,,,,,,,,,,,,,,,,,,,,,,,,,,,,,,,,,,,,,,542,2023-05-15_09h47.04.442,eb_02psyexp,2022.2.4,99.91609719718393,
,,,,,,,,,,,,,,,,,,,,,,,,,,,,,,,90.59685332572553,90.59685332572553,90.59685332572553,space,11.55255655606743,,,,,,,,,,,,,,,,,,,,,,,,,,,,,,,,,,,,,,,,,,,,,,,,,542,2023-05-15_09h47.04.442,eb_02psyexp,2022.2.4,99.91609719718393,
,,,,,,,,,,,,,,,,,,,,,,,,,,,,,,,,,,,,102.16369932855014,102.16369932855014,102.16369932855014,1,[20.952203438733704],[20.952207664609887],0,,,123.11617412604392,125.10735542082693,125.10735542082693,space,4.048180104466155,,,,,,,,,,,,,,,,,,,,,,,,,,,,,,,,,,,542,2023-05-15_09h47.04.442,eb_02psyexp,2022.2.4,99.91609719718393,
,,,,,,,,,,,,,,,,,,,,,,,,,,,,,,,,,,,,,,,,,,,,,,,,,,129.1700878791744,132.16187346784864,132.16187346784864,space,10.024758135317825,,,,,,,,,,,,,,,,,,,,,,,,,,,,,,542,2023-05-15_09h47.04.442,eb_02psyexp,2022.2.4,99.91609719718393,
,,,,,,,,,,,,,,,,,,,,,,,,,,,,,,,,,,,,,,,,,,,,,,,,,,,,,,,142.19784675817937,145.1896314411424,145.1896314411424,space,15.532085424172692,,,,,,,,,,,,,,,,,,,,,,,,,542,2023-05-15_09h47.04.442,eb_02psyexp,2022.2.4,99.91609719718393,
0,0,0,0,,,,,,,,,,,,,,,,,,,,,,,,,,,,,,,,,,,,,,,,,,,,,,,,,,,,,,,,,160.7488606858533,165.78183273074683,165.78183273074683,165.78183273074683,165.78183273074683,165.78183273074683,165.78183273074683,l,1,1.6679196242475882,167.4625491781626,168.48318692843895,,,,,,,,,,,,,542,2023-05-15_09h47.04.442,eb_02psyexp,2022.2.4,99.91609719718393,
1,0,1,0,,,,,,,,,,,,,,,,,,,,,,,,,,,,,,,,,,,,,,,,,,,,,,,,,,,,,,,,,,168.48318692843895,168.48318692843895,168.48318692843895,168.48318692843895,168.48318692843895,168.48318692843895,s,1,1.430573120014742,169.9240343524143,170.95460914389696,,,,,,,,,,,,,542,2023-05-15_09h47.04.442,eb_02psyexp,2022.2.4,99.91609719718393,
2,0,2,0,,,,,,,,,,,,,,,,,,,,,,,,,,,,,,,,,,,,,,,,,,,,,,,,,,,,,,,,,,170.95460914389696,170.95460914389696,170.95460914389696,170.95460914389696,170.95460914389696,170.95460914389696,s,1,0.6071793432347476,171.57499189546797,172.59565650997683,,,,,,,,,,,,,542,2023-05-15_09h47.04.442,eb_02psyexp,2022.2.4,99.91609719718393,
3,0,3,0,,,,,,,,,,,,,,,,,,,,,,,,,,,,,,,,,,,,,,,,,,,,,,,,,,,,,,,,,,172.59565650997683,172.59565650997683,172.59565650997683,172.59565650997683,172.59565650997683,172.59565650997683,l,1,0.87710790860001,173.48614923586138,174.51677081326488,,,,,,,,,,,,,542,2023-05-15_09h47.04.442,eb_02psyexp,2022.2.4,99.91609719718393,
4,0,4,0,,,,,,,,,,,,,,,,,,,,,,,,,,,,,,,,,,,,,,,,,,,,,,,,,,,,,,,,,,174.51677081326488,174.51677081326488,174.51677081326488,174.51677081326488,174.51677081326488,174.51677081326488,s,1,0.6840097769163549,175.21716091781855,176.23780017741956,,,,,,,,,,,,,542,2023-05-15_09h47.04.442,eb_02psyexp,2022.2.4,99.91609719718393,
5,0,5,0,,,,,,,,,,,,,,,,,,,,,,,,,,,,,,,,,,,,,,,,,,,,,,,,,,,,,,,,,,176.23780017741956,176.23780017741956,176.23780017741956,176.23780017741956,176.23780017741956,176.23780017741956,s,1,1.2830077117541805,177.53854229371063,178.5591767237056,,,,,,,,,,,,,542,2023-05-15_09h47.04.442,eb_02psyexp,2022.2.4,99.91609719718393,
6,0,6,0,,,,,,,,,,,,,,,,,,,,,,,,,,,,,,,,,,,,,,,,,,,,,,,,,,,,,,,,,,178.5591767237056,178.5591767237056,178.5591767237056,178.5591767237056,178.5591767237056,178.5591767237056,l,1,0.9616592370439321,179.53973397798836,180.56032252754085,,,,,,,,,,,,,542,2023-05-15_09h47.04.442,eb_02psyexp,2022.2.4,99.91609719718393,
7,0,7,0,,,,,,,,,,,,,,,,,,,,,,,,,,,,,,,,,,,,,,,,,,,,,,,,,,,,,,,,,,180.56032252754085,180.56032252754085,180.56032252754085,180.56032252754085,180.56032252754085,180.56032252754085,l,1,1.312504312605597,181.89112841151655,182.9217258413555,,,,,,,,,,,,,542,2023-05-15_09h47.04.442,eb_02psyexp,2022.2.4,99.91609719718393,
8,0,8,0,,,,,,,,,,,,,,,,,,,,,,,,,,,,,,,,,,,,,,,,,,,,,,,,,,,,,,,,,,182.9217258413555,182.9217258413555,182.9217258413555,182.9217258413555,182.9217258413555,182.9217258413555,s,1,0.7911394176771864,183.7322266084375,184.75283387233503,,,,,,,,,,,,,542,2023-05-15_09h47.04.442,eb_02psyexp,2022.2.4,99.91609719718393,
9,0,9,0,,,,,,,,,,,,,,,,,,,,,,,,,,,,,,,,,,,,,,,,,,,,,,,,,,,,,,,,,,184.75283387233503,184.75283387233503,184.75283387233503,184.75283387233503,184.75283387233503,184.75283387233503,l,1,1.048016806365922,185.81346277252305,186.84406593744643,,,,,,,,,,,,,542,2023-05-15_09h47.04.442,eb_02psyexp,2022.2.4,99.91609719718393,
10,0,10,0,,,,,,,,,,,,,,,,,,,,,,,,,,,,,,,,,,,,,,,,,,,,,,,,,,,,,,,,,,186.84406593744643,186.84406593744643,186.84406593744643,186.84406593744643,186.84406593744643,186.84406593744643,s,1,0.6207801797427237,187.4844697699882,188.50507914682385,,,,,,,,,,,,,542,2023-05-15_09h47.04.442,eb_02psyexp,2022.2.4,99.91609719718393,
11,0,11,0,,,,,,,,,,,,,,,,,,,,,,,,,,,,,,,,,,,,,,,,,,,,,,,,,,,,,,,,,,188.50507914682385,188.50507914682385,188.50507914682385,188.50507914682385,188.50507914682385,188.50507914682385,l,1,1.0068258222891018,189.52566769637633,190.54631510574836,,,,,,,,,,,,,542,2023-05-15_09h47.04.442,eb_02psyexp,2022.2.4,99.91609719718393,
12,0,12,0,,,,,,,,,,,,,,,,,,,,,,,,,,,,,,,,,,,,,,,,,,,,,,,,,,,,,,,,,,190.54631510574836,190.54631510574836,190.54631510574836,190.54631510574836,190.54631510574836,190.54631510574836,l,1,0.6936347102746367,191.25670020573307,192.27727788884658,,,,,,,,,,,,,542,2023-05-15_09h47.04.442,eb_02psyexp,2022.2.4,99.91609719718393,
13,0,13,0,,,,,,,,,,,,,,,,,,,,,,,,,,,,,,,,,,,,,,,,,,,,,,,,,,,,,,,,,,192.27727788884658,192.27727788884658,192.27727788884658,192.27727788884658,192.27727788884658,192.27727788884658,l,1,0.594637077418156,192.8876683616545,193.9182594527956,,,,,,,,,,,,,542,2023-05-15_09h47.04.442,eb_02psyexp,2022.2.4,99.91609719718393,
14,0,14,0,,,,,,,,,,,,,,,,,,,,,,,,,,,,,,,,,,,,,,,,,,,,,,,,,,,,,,,,,,193.9182594527956,193.9182594527956,193.9182594527956,193.9182594527956,193.9182594527956,193.9182594527956,s,1,0.6976845654426143,194.6287061291514,195.65931774571072,,,,,,,,,,,,,542,2023-05-15_09h47.04.442,eb_02psyexp,2022.2.4,99.91609719718393,
15,0,15,0,,,,,,,,,,,,,,,,,,,,,,,,,,,,,,,,,,,,,,,,,,,,,,,,,,,,,,,,,,195.65931774571072,195.65931774571072,195.65931774571072,195.65931774571072,195.65931774571072,195.65931774571072,s,1,0.6606436490546912,196.33969703211915,197.37030532839708,,,,,,,,,,,,,542,2023-05-15_09h47.04.442,eb_02psyexp,2022.2.4,99.91609719718393,
16,0,16,0,,,,,,,,,,,,,,,,,,,,,,,,,,,,,,,,,,,,,,,,,,,,,,,,,,,,,,,,,,197.37030532839708,197.37030532839708,197.37030532839708,197.37030532839708,197.37030532839708,197.37030532839708,s,1,0.44561737950425595,197.8306102885399,198.86121405707672,,,,,,,,,,,,,542,2023-05-15_09h47.04.442,eb_02psyexp,2022.2.4,99.91609719718393,
17,0,17,0,,,,,,,,,,,,,,,,,,,,,,,,,,,,,,,,,,,,,,,,,,,,,,,,,,,,,,,,,,198.86121405707672,198.86121405707672,198.86121405707672,198.86121405707672,198.86121405707672,198.86121405707672,l,1,1.4107588030165061,200.28204945556354,201.30265762505587,,,,,,,,,,,,,542,2023-05-15_09h47.04.442,eb_02psyexp,2022.2.4,99.91609719718393,
18,0,18,0,,,,,,,,,,,,,,,,,,,,,,,,,,,,,,,,,,,,,,,,,,,,,,,,,,,,,,,,,,201.30265762505587,201.30265762505587,201.30265762505587,201.30265762505587,201.30265762505587,201.30265762505587,s,1,0.6732858256436884,201.99312517698854,203.01367599586956,,,,,,,,,,,,,542,2023-05-15_09h47.04.442,eb_02psyexp,2022.2.4,99.91609719718393,
19,0,19,0,,,,,,,,,,,,,,,,,,,,,,,,,,,,,,,,,,,,,,,,,,,,,,,,,,,,,,,,,,203.01367599586956,203.01367599586956,203.01367599586956,203.01367599586956,203.01367599586956,203.01367599586956,l,1,0.6653125885641202,203.69414191192482,204.71467462007422,,,,,,,,,,,,,542,2023-05-15_09h47.04.442,eb_02psyexp,2022.2.4,99.91609719718393,
20,0,20,0,,,,,,,,,,,,,,,,,,,,,,,,,,,,,,,,,,,,,,,,,,,,,,,,,,,,,,,,,,204.71467462007422,204.71467462007422,204.71467462007422,204.71467462007422,204.71467462007422,204.71467462007422,s,1,2.0442971696611494,206.7759552038042,207.79651839844882,,,,,,,,,,,,,542,2023-05-15_09h47.04.442,eb_02psyexp,2022.2.4,99.91609719718393,
21,0,21,0,,,,,,,,,,,,,,,,,,,,,,,,,,,,,,,,,,,,,,,,,,,,,,,,,,,,,,,,,,207.79651839844882,207.79651839844882,207.79651839844882,207.79651839844882,207.79651839844882,207.79651839844882,l,1,2.602476899046451,210.4181314704474,211.44870626193006,,,,,,,,,,,,,542,2023-05-15_09h47.04.442,eb_02psyexp,2022.2.4,99.91609719718393,
22,0,22,0,,,,,,,,,,,,,,,,,,,,,,,,,,,,,,,,,,,,,,,,,,,,,,,,,,,,,,,,,,211.44870626193006,211.44870626193006,211.44870626193006,211.44870626193006,211.44870626193006,211.44870626193006,s,1,0.6542928291019052,212.1191415648209,213.13969630771317,,,,,,,,,,,,,542,2023-05-15_09h47.04.442,eb_02psyexp,2022.2.4,99.91609719718393,
23,0,23,0,,,,,,,,,,,,,,,,,,,,,,,,,,,,,,,,,,,,,,,,,,,,,,,,,,,,,,,,,,213.13969630771317,213.13969630771317,213.13969630771317,213.13969630771317,213.13969630771317,213.13969630771317,l,1,0.7073384759714827,213.86010628566146,214.88073105667718,,,,,,,,,,,,,542,2023-05-15_09h47.04.442,eb_02psyexp,2022.2.4,99.91609719718393,
24,0,24,0,,,,,,,,,,,,,,,,,,,,,,,,,,,,,,,,,,,,,,,,,,,,,,,,,,,,,,,,,,214.88073105667718,214.88073105667718,214.88073105667718,214.88073105667718,214.88073105667718,214.88073105667718,s,1,1.2942924910457805,216.19152853742708,217.21211678511463,,,,,,,,,,,,,542,2023-05-15_09h47.04.442,eb_02psyexp,2022.2.4,99.91609719718393,
25,0,25,0,,,,,,,,,,,,,,,,,,,,,,,,,,,,,,,,,,,,,,,,,,,,,,,,,,,,,,,,,,217.21211678511463,217.21211678511463,217.21211678511463,217.21211678511463,217.21211678511463,217.21211678511463,l,1,0.6029166873777285,217.83250376256183,218.8530932175927,,,,,,,,,,,,,542,2023-05-15_09h47.04.442,eb_02psyexp,2022.2.4,99.91609719718393,
26,0,26,0,,,,,,,,,,,,,,,,,,,,,,,,,,,,,,,,,,,,,,,,,,,,,,,,,,,,,,,,,,218.8530932175927,218.8530932175927,218.8530932175927,218.8530932175927,218.8530932175927,218.8530932175927,s,1,1.5849753189831972,220.45409932755865,221.47466131474357,,,,,,,,,,,,,542,2023-05-15_09h47.04.442,eb_02psyexp,2022.2.4,99.91609719718393,
27,0,27,0,,,,,,,,,,,,,,,,,,,,,,,,,,,,,,,,,,,,,,,,,,,,,,,,,,,,,,,,,,221.47466131474357,221.47466131474357,221.47466131474357,221.47466131474357,221.47466131474357,221.47466131474357,l,1,0.6593955198768526,222.14506824419368,223.17566144815646,,,,,,,,,,,,,542,2023-05-15_09h47.04.442,eb_02psyexp,2022.2.4,99.91609719718393,
28,0,28,0,,,,,,,,,,,,,,,,,,,,,,,,,,,,,,,,,,,,,,,,,,,,,,,,,,,,,,,,,,223.17566144815646,223.17566144815646,223.17566144815646,223.17566144815646,223.17566144815646,223.17566144815646,s,1,0.7584055284969509,223.94615506753325,224.97675249737222,,,,,,,,,,,,,542,2023-05-15_09h47.04.442,eb_02psyexp,2022.2.4,99.91609719718393,
29,0,29,0,,,,,,,,,,,,,,,,,,,,,,,,,,,,,,,,,,,,,,,,,,,,,,,,,,,,,,,,,,224.97675249737222,224.97675249737222,224.97675249737222,224.97675249737222,224.97675249737222,224.97675249737222,l,1,1.2053224527044222,226.1974779034499,227.22808287944645,,,,,,,,,,,,,542,2023-05-15_09h47.04.442,eb_02psyexp,2022.2.4,99.91609719718393,
30,0,30,0,,,,,,,,,,,,,,,,,,,,,,,,,,,,,,,,,,,,,,,,,,,,,,,,,,,,,,,,,,227.22808287944645,227.22808287944645,227.22808287944645,227.22808287944645,227.22808287944645,227.22808287944645,s,1,0.5860323803499341,227.828447568696,228.8590691460995,,,,,,,,,,,,,542,2023-05-15_09h47.04.442,eb_02psyexp,2022.2.4,99.91609719718393,
31,0,31,0,,,,,,,,,,,,,,,,,,,,,,,,,,,,,,,,,,,,,,,,,,,,,,,,,,,,,,,,,,228.8590691460995,228.8590691460995,228.8590691460995,228.8590691460995,228.8590691460995,228.8590691460995,l,1,1.4350337863434106,230.30992152635008,231.3405352558475,,,,,,,,,,,,,542,2023-05-15_09h47.04.442,eb_02psyexp,2022.2.4,99.91609719718393,
32,0,32,0,,,,,,,,,,,,,,,,,,,,,,,,,,,,,,,,,,,,,,,,,,,,,,,,,,,,,,,,,,231.3405352558475,231.3405352558475,231.3405352558475,231.3405352558475,231.3405352558475,231.3405352558475,s,1,0.7215771110495552,232.08097627561074,233.1015802192269,,,,,,,,,,,,,542,2023-05-15_09h47.04.442,eb_02psyexp,2022.2.4,99.91609719718393,
33,0,33,0,,,,,,,,,,,,,,,,,,,,,,,,,,,,,,,,,,,,,,,,,,,,,,,,,,,,,,,,,,233.1015802192269,233.1015802192269,233.1015802192269,233.1015802192269,233.1015802192269,233.1015802192269,l,1,1.2645474716555327,234.3823438148247,235.4129370189039,,,,,,,,,,,,,542,2023-05-15_09h47.04.442,eb_02psyexp,2022.2.4,99.91609719718393,
34,0,34,0,,,,,,,,,,,,,,,,,,,,,,,,,,,,,,,,,,,,,,,,,,,,,,,,,,,,,,,,,,235.4129370189039,235.4129370189039,235.4129370189039,235.4129370189039,235.4129370189039,235.4129370189039,s,1,0.6322029022267088,236.06334158184472,237.0939571222989,,,,,,,,,,,,,542,2023-05-15_09h47.04.442,eb_02psyexp,2022.2.4,99.91609719718393,
35,0,35,0,,,,,,,,,,,,,,,,,,,,,,,,,,,,,,,,,,,,,,,,,,,,,,,,,,,,,,,,,,237.0939571222989,237.0939571222989,237.0939571222989,237.0939571222989,237.0939571222989,237.0939571222989,s,1,0.5752067073481157,237.68433768255636,238.70491747860797,,,,,,,,,,,,,542,2023-05-15_09h47.04.442,eb_02psyexp,2022.2.4,99.91609719718393,
36,0,36,0,,,,,,,,,,,,,,,,,,,,,,,,,,,,,,,,,,,,,,,,,,,,,,,,,,,,,,,,,,238.70491747860797,238.70491747860797,238.70491747860797,238.70491747860797,238.70491747860797,238.70491747860797,l,1,0.580289778066799,239.29530618863646,240.32619912480004,,,,,,,,,,,,,542,2023-05-15_09h47.04.442,eb_02psyexp,2022.2.4,99.91609719718393,
37,0,37,0,,,,,,,,,,,,,,,,,,,,,,,,,,,,,,,,,,,,,,,,,,,,,,,,,,,,,,,,,,240.32619912480004,240.32619912480004,240.32619912480004,240.32619912480004,240.32619912480004,240.32619912480004,s,1,0.5749631182989106,240.9165648946073,241.93683771428186,,,,,,,,,,,,,542,2023-05-15_09h47.04.442,eb_02psyexp,2022.2.4,99.91609719718393,
38,0,38,0,,,,,,,,,,,,,,,,,,,,,,,,,,,,,,,,,,,,,,,,,,,,,,,,,,,,,,,,,,241.93683771428186,241.93683771428186,241.93683771428186,241.93683771428186,241.93683771428186,241.93683771428186,l,1,0.5243593980558217,242.47718111728318,243.5077399109723,,,,,,,,,,,,,542,2023-05-15_09h47.04.442,eb_02psyexp,2022.2.4,99.91609719718393,
39,0,39,0,,,,,,,,,,,,,,,,,,,,,,,,,,,,,,,,,,,,,,,,,,,,,,,,,,,,,,,,,,243.5077399109723,243.5077399109723,243.5077399109723,243.5077399109723,243.5077399109723,243.5077399109723,s,1,0.44144135317765176,243.96804034349043,244.99865497846622,,,,,,,,,,,,,542,2023-05-15_09h47.04.442,eb_02psyexp,2022.2.4,99.91609719718393,
40,0,40,0,,,,,,,,,,,,,,,,,,,,,,,,,,,,,,,,,,,,,,,,,,,,,,,,,,,,,,,,,,244.99865497846622,244.99865497846622,244.99865497846622,244.99865497846622,244.99865497846622,244.99865497846622,l,1,0.6865347109269351,245.6990710416576,246.71964691381436,,,,,,,,,,,,,542,2023-05-15_09h47.04.442,eb_02psyexp,2022.2.4,99.91609719718393,
41,0,41,0,,,,,,,,,,,,,,,,,,,,,,,,,,,,,,,,,,,,,,,,,,,,,,,,,,,,,,,,,,246.71964691381436,246.71964691381436,246.71964691381436,246.71964691381436,246.71964691381436,246.71964691381436,s,1,0.6295726243406534,247.36005799053237,248.38065076596104,,,,,,,,,,,,,542,2023-05-15_09h47.04.442,eb_02psyexp,2022.2.4,99.91609719718393,
42,0,42,0,,,,,,,,,,,,,,,,,,,,,,,,,,,,,,,,,,,,,,,,,,,,,,,,,,,,,,,,,,248.38065076596104,248.38065076596104,248.38065076596104,248.38065076596104,248.38065076596104,248.38065076596104,l,1,0.5285767772002146,248.92130869149696,249.94159267947543,,,,,,,,,,,,,542,2023-05-15_09h47.04.442,eb_02psyexp,2022.2.4,99.91609719718393,
43,0,43,0,,,,,,,,,,,,,,,,,,,,,,,,,,,,,,,,,,,,,,,,,,,,,,,,,,,,,,,,,,249.94159267947543,249.94159267947543,249.94159267947543,249.94159267947543,249.94159267947543,249.94159267947543,s,1,0.6546665133209899,250.61198874237016,251.64257500402164,,,,,,,,,,,,,542,2023-05-15_09h47.04.442,eb_02psyexp,2022.2.4,99.91609719718393,
44,0,44,0,,,,,,,,,,,,,,,,,,,,,,,,,,,,,,,,,,,,,,,,,,,,,,,,,,,,,,,,,,251.64257500402164,251.64257500402164,251.64257500402164,251.64257500402164,251.64257500402164,251.64257500402164,l,1,1.4176604902604595,253.0734751240816,254.0940446574241,,,,,,,,,,,,,542,2023-05-15_09h47.04.442,eb_02psyexp,2022.2.4,99.91609719718393,
45,0,45,0,,,,,,,,,,,,,,,,,,,,,,,,,,,,,,,,,,,,,,,,,,,,,,,,,,,,,,,,,,254.0940446574241,254.0940446574241,254.0940446574241,254.0940446574241,254.0940446574241,254.0940446574241,s,1,0.6302261189557612,254.73444366035983,255.7650555787841,,,,,,,,,,,,,542,2023-05-15_09h47.04.442,eb_02psyexp,2022.2.4,99.91609719718393,
46,0,46,0,,,,,,,,,,,,,,,,,,,,,,,,,,,,,,,,,,,,,,,,,,,,,,,,,,,,,,,,,,255.7650555787841,255.7650555787841,255.7650555787841,255.7650555787841,255.7650555787841,255.7650555787841,l,1,1.8472001947229728,257.6261594623793,258.65677258814685,,,,,,,,,,,,,542,2023-05-15_09h47.04.442,eb_02psyexp,2022.2.4,99.91609719718393,
47,0,47,0,,,,,,,,,,,,,,,,,,,,,,,,,,,,,,,,,,,,,,,,,,,,,,,,,,,,,,,,,,258.65677258814685,258.65677258814685,258.65677258814685,258.65677258814685,258.65677258814685,258.65677258814685,s,1,0.9554964664857835,259.62739400868304,260.6479418091476,,,,,,,,,,,,,542,2023-05-15_09h47.04.442,eb_02psyexp,2022.2.4,99.91609719718393,
48,0,48,0,,,,,,,,,,,,,,,,,,,,,,,,,,,,,,,,,,,,,,,,,,,,,,,,,,,,,,,,,,260.6479418091476,260.6479418091476,260.6479418091476,260.6479418091476,260.6479418091476,260.6479418091476,l,1,0.6603342579910532,261.31837831938174,262.3489881248679,,,,,,,,,,,,,542,2023-05-15_09h47.04.442,eb_02psyexp,2022.2.4,99.91609719718393,
49,0,49,0,,,,,,,,,,,,,,,,,,,,,,,,,,,,,,,,,,,,,,,,,,,,,,,,,,,,,,,,,,262.3489881248679,262.3489881248679,262.3489881248679,262.3489881248679,262.3489881248679,262.3489881248679,s,1,0.6553281577071175,263.0194041095674,264.0399712281069,,,,,,,,,,,,,542,2023-05-15_09h47.04.442,eb_02psyexp,2022.2.4,99.91609719718393,
50,0,50,0,,,,,,,,,,,,,,,,,,,,,,,,,,,,,,,,,,,,,,,,,,,,,,,,,,,,,,,,,,264.0399712281069,264.0399712281069,264.0399712281069,264.0399712281069,264.0399712281069,264.0399712281069,l,1,0.6203431080793962,264.6703450512141,265.70094368839636,,,,,,,,,,,,,542,2023-05-15_09h47.04.442,eb_02psyexp,2022.2.4,99.91609719718393,
51,0,51,0,,,,,,,,,,,,,,,,,,,,,,,,,,,,,,,,,,,,,,,,,,,,,,,,,,,,,,,,,,265.70094368839636,265.70094368839636,265.70094368839636,265.70094368839636,265.70094368839636,265.70094368839636,s,1,0.5503570110304281,266.26129458937794,267.2918772287667,,,,,,,,,,,,,542,2023-05-15_09h47.04.442,eb_02psyexp,2022.2.4,99.91609719718393,
52,0,52,0,,,,,,,,,,,,,,,,,,,,,,,,,,,,,,,,,,,,,,,,,,,,,,,,,,,,,,,,,,267.2918772287667,267.2918772287667,267.2918772287667,267.2918772287667,267.2918772287667,267.2918772287667,s,1,1.1354649417335168,268.4425893718144,269.46316403651144,,,,,,,,,,,,,542,2023-05-15_09h47.04.442,eb_02psyexp,2022.2.4,99.91609719718393,
53,0,53,0,,,,,,,,,,,,,,,,,,,,,,,,,,,,,,,,,,,,,,,,,,,,,,,,,,,,,,,,,,269.46316403651144,269.46316403651144,269.46316403651144,269.46316403651144,269.46316403651144,269.46316403651144,l,1,0.564167931675911,270.04353933862876,271.07412137440406,,,,,,,,,,,,,542,2023-05-15_09h47.04.442,eb_02psyexp,2022.2.4,99.91609719718393,
54,0,54,0,,,,,,,,,,,,,,,,,,,,,,,,,,,,,,,,,,,,,,,,,,,,,,,,,,,,,,,,,,271.07412137440406,271.07412137440406,271.07412137440406,271.07412137440406,271.07412137440406,271.07412137440406,s,1,1.849222254822962,272.9352563479915,273.9558491234202,,,,,,,,,,,,,542,2023-05-15_09h47.04.442,eb_02psyexp,2022.2.4,99.91609719718393,
55,0,55,0,,,,,,,,,,,,,,,,,,,,,,,,,,,,,,,,,,,,,,,,,,,,,,,,,,,,,,,,,,273.9558491234202,273.9558491234202,273.9558491234202,273.9558491234202,273.9558491234202,273.9558491234202,l,1,1.1195033751428127,275.086519358214,276.1071160576539,,,,,,,,,,,,,542,2023-05-15_09h47.04.442,eb_02psyexp,2022.2.4,99.91609719718393,
56,0,56,0,,,,,,,,,,,,,,,,,,,,,,,,,,,,,,,,,,,,,,,,,,,,,,,,,,,,,,,,,,276.1071160576539,276.1071160576539,276.1071160576539,276.1071160576539,276.1071160576539,276.1071160576539,s,1,0.6082548170816153,276.72753503068816,277.7481003381545,,,,,,,,,,,,,542,2023-05-15_09h47.04.442,eb_02psyexp,2022.2.4,99.91609719718393,
57,0,57,0,,,,,,,,,,,,,,,,,,,,,,,,,,,,,,,,,,,,,,,,,,,,,,,,,,,,,,,,,,277.7481003381545,277.7481003381545,277.7481003381545,277.7481003381545,277.7481003381545,277.7481003381545,l,1,0.6793076345929876,278.4385515904287,279.46944663953036,,,,,,,,,,,,,542,2023-05-15_09h47.04.442,eb_02psyexp,2022.2.4,99.91609719718393,
58,0,58,0,,,,,,,,,,,,,,,,,,,,,,,,,,,,,,,,,,,,,,,,,,,,,,,,,,,,,,,,,,279.46944663953036,279.46944663953036,279.46944663953036,279.46944663953036,279.46944663953036,279.46944663953036,s,1,0.6779683481436223,280.15955952357035,281.19015302939806,,,,,,,,,,,,,542,2023-05-15_09h47.04.442,eb_02psyexp,2022.2.4,99.91609719718393,
59,0,59,0,,,,,,,,,,,,,,,,,,,,,,,,,,,,,,,,,,,,,,,,,,,,,,,,,,,,,,,,,,281.19015302939806,281.19015302939806,281.19015302939806,281.19015302939806,281.19015302939806,281.19015302939806,s,1,0.5803395825205371,281.7805468707811,282.81109660922084,,,,,,,,,,,,,542,2023-05-15_09h47.04.442,eb_02psyexp,2022.2.4,99.91609719718393,
60,0,60,0,,,,,,,,,,,,,,,,,,,,,,,,,,,,,,,,,,,,,,,,,,,,,,,,,,,,,,,,,,282.81109660922084,282.81109660922084,282.81109660922084,282.81109660922084,282.81109660922084,282.81109660922084,s,1,0.543305910541676,283.3714970126748,,,,,,,,,,,,,,542,2023-05-15_09h47.04.442,eb_02psyexp,2022.2.4,99.91609719718393,
61,0,61,0,,,,,,,,,,,,,,,,,,,,,,,,,,,,,,,,,,,,,,,,,,,,,,,,,,,,,,,,,,284.40241862414405,284.40241862414405,284.40241862414405,284.40241862414405,284.40241862414405,284.40241862414405,l,1,2.8160066208802164,287.2337575665442,288.2543874689145,,,,,,,,,,,,,542,2023-05-15_09h47.04.442,eb_02psyexp,2022.2.4,99.91609719718393,
62,0,62,0,,,,,,,,,,,,,,,,,,,,,,,,,,,,,,,,,,,,,,,,,,,,,,,,,,,,,,,,,,288.2543874689145,288.2543874689145,288.2543874689145,288.2543874689145,288.2543874689145,288.2543874689145,l,1,2.4920767672592774,290.76585003500804,291.7864597137086,,,,,,,,,,,,,542,2023-05-15_09h47.04.442,eb_02psyexp,2022.2.4,99.91609719718393,
63,0,63,0,,,,,,,,,,,,,,,,,,,,,,,,,,,,,,,,,,,,,,,,,,,,,,,,,,,,,,,,,,291.7864597137086,291.7864597137086,291.7864597137086,291.7864597137086,291.7864597137086,291.7864597137086,l,1,0.6480334681691602,292.4468493111199,,,,,,,,,,,,,,542,2023-05-15_09h47.04.442,eb_02psyexp,2022.2.4,99.91609719718393,
64,0,64,0,,,,,,,,,,,,,,,,,,,,,,,,,,,,,,,,,,,,,,,,,,,,,,,,,,,,,,,,,,293.4777832982363,293.4777832982363,293.4777832982363,293.4777832982363,293.4777832982363,293.4777832982363,s,1,0.5647350986255333,294.0581281139748,295.08846354228444,,,,,,,,,,,,,542,2023-05-15_09h47.04.442,eb_02psyexp,2022.2.4,99.91609719718393,
65,0,65,0,,,,,,,,,,,,,,,,,,,,,,,,,,,,,,,,,,,,,,,,,,,,,,,,,,,,,,,,,,295.08846354228444,295.08846354228444,295.08846354228444,295.08846354228444,295.08846354228444,295.08846354228444,l,1,0.7700223373249173,295.86888122337405,296.88948456337675,,,,,,,,,,,,,542,2023-05-15_09h47.04.442,eb_02psyexp,2022.2.4,99.91609719718393,
66,0,66,0,,,,,,,,,,,,,,,,,,,,,,,,,,,,,,,,,,,,,,,,,,,,,,,,,,,,,,,,,,296.88948456337675,296.88948456337675,296.88948456337675,296.88948456337675,296.88948456337675,296.88948456337675,s,1,0.8719925404293463,297.78001924569253,298.80061956716236,,,,,,,,,,,,,542,2023-05-15_09h47.04.442,eb_02psyexp,2022.2.4,99.91609719718393,
67,0,67,0,,,,,,,,,,,,,,,,,,,,,,,,,,,,,,,,,,,,,,,,,,,,,,,,,,,,,,,,,,298.80061956716236,298.80061956716236,298.80061956716236,298.80061956716236,298.80061956716236,298.80061956716236,l,1,0.6888755192048848,299.5010410636896,300.5216522515984,,,,,,,,,,,,,542,2023-05-15_09h47.04.442,eb_02psyexp,2022.2.4,99.91609719718393,
68,0,68,0,,,,,,,,,,,,,,,,,,,,,,,,,,,,,,,,,,,,,,,,,,,,,,,,,,,,,,,,,,300.5216522515984,300.5216522515984,300.5216522515984,300.5216522515984,300.5216522515984,300.5216522515984,s,1,0.8798709982074797,301.4121733508073,302.4327833313728,,,,,,,,,,,,,542,2023-05-15_09h47.04.442,eb_02psyexp,2022.2.4,99.91609719718393,
69,0,69,0,,,,,,,,,,,,,,,,,,,,,,,,,,,,,,,,,,,,,,,,,,,,,,,,,,,,,,,,,,302.4327833313728,302.4327833313728,302.4327833313728,302.4327833313728,302.4327833313728,302.4327833313728,l,1,0.7047329494962469,303.1532071942929,304.1838118684245,,,,,,,,,,,,,542,2023-05-15_09h47.04.442,eb_02psyexp,2022.2.4,99.91609719718393,
70,0,70,0,,,,,,,,,,,,,,,,,,,,,,,,,,,,,,,,,,,,,,,,,,,,,,,,,,,,,,,,,,304.1838118684245,304.1838118684245,304.1838118684245,304.1838118684245,304.1838118684245,304.1838118684245,s,1,0.6177327519981191,304.8141962561058,305.8348029163899,,,,,,,,,,,,,542,2023-05-15_09h47.04.442,eb_02psyexp,2022.2.4,99.91609719718393,
71,0,71,0,,,,,,,,,,,,,,,,,,,,,,,,,,,,,,,,,,,,,,,,,,,,,,,,,,,,,,,,,,305.8348029163899,305.8348029163899,305.8348029163899,305.8348029163899,305.8348029163899,305.8348029163899,l,1,0.6147284881444648,306.46517643751577,307.4858126785839,,,,,,,,,,,,,542,2023-05-15_09h47.04.442,eb_02psyexp,2022.2.4,99.91609719718393,
72,0,72,0,,,,,,,,,,,,,,,,,,,,,,,,,,,,,,,,,,,,,,,,,,,,,,,,,,,,,,,,,,307.4858126785839,307.4858126785839,307.4858126785839,307.4858126785839,307.4858126785839,307.4858126785839,l,1,1.0357706504873931,308.53639919369016,309.56700145313516,,,,,,,,,,,,,542,2023-05-15_09h47.04.442,eb_02psyexp,2022.2.4,99.91609719718393,
73,0,73,0,,,,,,,,,,,,,,,,,,,,,,,,,,,,,,,,,,,,,,,,,,,,,,,,,,,,,,,,,,309.56700145313516,309.56700145313516,309.56700145313516,309.56700145313516,309.56700145313516,309.56700145313516,s,1,0.8345737140625715,310.41754589101765,311.43812870560214,,,,,,,,,,,,,542,2023-05-15_09h47.04.442,eb_02psyexp,2022.2.4,99.91609719718393,
74,0,74,0,,,,,,,,,,,,,,,,,,,,,,,,,,,,,,,,,,,,,,,,,,,,,,,,,,,,,,,,,,311.43812870560214,311.43812870560214,311.43812870560214,311.43812870560214,311.43812870560214,311.43812870560214,l,1,0.9874380123801529,312.43873631965835,313.46933284401894,,,,,,,,,,,,,542,2023-05-15_09h47.04.442,eb_02psyexp,2022.2.4,99.91609719718393,
75,0,75,0,,,,,,,,,,,,,,,,,,,,,,,,,,,,,,,,,,,,,,,,,,,,,,,,,,,,,,,,,,313.46933284401894,313.46933284401894,313.46933284401894,313.46933284401894,313.46933284401894,313.46933284401894,s,1,0.62724449345842,314.1097433170071,315.1303523920942,,,,,,,,,,,,,542,2023-05-15_09h47.04.442,eb_02psyexp,2022.2.4,99.91609719718393,
76,0,76,0,,,,,,,,,,,,,,,,,,,,,,,,,,,,,,,,,,,,,,,,,,,,,,,,,,,,,,,,,,315.1303523920942,315.1303523920942,315.1303523920942,315.1303523920942,315.1303523920942,315.1303523920942,l,1,0.630311843007803,315.77073147322517,316.7913496036781,,,,,,,,,,,,,542,2023-05-15_09h47.04.442,eb_02psyexp,2022.2.4,99.91609719718393,
77,0,77,0,,,,,,,,,,,,,,,,,,,,,,,,,,,,,,,,,,,,,,,,,,,,,,,,,,,,,,,,,,316.7913496036781,316.7913496036781,316.7913496036781,316.7913496036781,316.7913496036781,316.7913496036781,s,1,0.8972678381251171,317.7018465070287,318.7224827480968,,,,,,,,,,,,,542,2023-05-15_09h47.04.442,eb_02psyexp,2022.2.4,99.91609719718393,
78,0,78,0,,,,,,,,,,,,,,,,,,,,,,,,,,,,,,,,,,,,,,,,,,,,,,,,,,,,,,,,,,318.7224827480968,318.7224827480968,318.7224827480968,318.7224827480968,318.7224827480968,318.7224827480968,l,1,1.1101464801467955,319.8431208606344,320.8637848714134,,,,,,,,,,,,,542,2023-05-15_09h47.04.442,eb_02psyexp,2022.2.4,99.91609719718393,
79,0,79,0,,,,,,,,,,,,,,,,,,,,,,,,,,,,,,,,,,,,,,,,,,,,,,,,,,,,,,,,,,320.8637848714134,320.8637848714134,320.8637848714134,320.8637848714134,320.8637848714134,320.8637848714134,s,1,0.6888540883082896,321.5641378490254,322.5847846546676,,,,,,,,,,,,,542,2023-05-15_09h47.04.442,eb_02psyexp,2022.2.4,99.91609719718393,
80,0,80,0,,,,,,,,,,,,,,,,,,,,,,,,,,,,,,,,,,,,,,,,,,,,,,,,,,,,,,,,,,322.5847846546676,322.5847846546676,322.5847846546676,322.5847846546676,322.5847846546676,322.5847846546676,l,1,0.6718466284219176,323.2751547107473,324.30578987125773,,,,,,,,,,,,,542,2023-05-15_09h47.04.442,eb_02psyexp,2022.2.4,99.91609719718393,
81,0,81,0,,,,,,,,,,,,,,,,,,,,,,,,,,,,,,,,,,,,,,,,,,,,,,,,,,,,,,,,,,324.30578987125773,324.30578987125773,324.30578987125773,324.30578987125773,324.30578987125773,324.30578987125773,s,1,0.9988740161061287,325.31636742758565,326.3370175535092,,,,,,,,,,,,,542,2023-05-15_09h47.04.442,eb_02psyexp,2022.2.4,99.91609719718393,
82,0,82,0,,,,,,,,,,,,,,,,,,,,,,,,,,,,,,,,,,,,,,,,,,,,,,,,,,,,,,,,,,326.3370175535092,326.3370175535092,326.3370175535092,326.3370175535092,326.3370175535092,326.3370175535092,l,1,0.6716341295978054,327.0273818745045,328.04801962478086,,,,,,,,,,,,,542,2023-05-15_09h47.04.442,eb_02psyexp,2022.2.4,99.91609719718393,
83,0,83,0,,,,,,,,,,,,,,,,,,,,,,,,,,,,,,,,,,,,,,,,,,,,,,,,,,,,,,,,,,328.04801962478086,328.04801962478086,328.04801962478086,328.04801962478086,328.04801962478086,328.04801962478086,s,1,0.6636436871485785,328.7283931762213,329.7490303227678,,,,,,,,,,,,,542,2023-05-15_09h47.04.442,eb_02psyexp,2022.2.4,99.91609719718393,
84,0,84,0,,,,,,,,,,,,,,,,,,,,,,,,,,,,,,,,,,,,,,,,,,,,,,,,,,,,,,,,,,329.7490303227678,329.7490303227678,329.7490303227678,329.7490303227678,329.7490303227678,329.7490303227678,l,1,0.9466400305973366,330.7095701183425,331.73020635941066,,,,,,,,,,,,,542,2023-05-15_09h47.04.442,eb_02psyexp,2022.2.4,99.91609719718393,
85,0,85,0,,,,,,,,,,,,,,,,,,,,,,,,,,,,,,,,,,,,,,,,,,,,,,,,,,,,,,,,,,331.73020635941066,331.73020635941066,331.73020635941066,331.73020635941066,331.73020635941066,331.73020635941066,s,1,0.6934759397991002,332.44059689261485,333.47121062211227,,,,,,,,,,,,,542,2023-05-15_09h47.04.442,eb_02psyexp,2022.2.4,99.91609719718393,
86,0,86,0,,,,,,,,,,,,,,,,,,,,,,,,,,,,,,,,,,,,,,,,,,,,,,,,,,,,,,,,,,333.47121062211227,333.47121062211227,333.47121062211227,333.47121062211227,333.47121062211227,333.47121062211227,s,1,2.096492217038758,335.5824616551399,336.60309789620806,,,,,,,,,,,,,542,2023-05-15_09h47.04.442,eb_02psyexp,2022.2.4,99.91609719718393,
87,0,87,0,,,,,,,,,,,,,,,,,,,,,,,,,,,,,,,,,,,,,,,,,,,,,,,,,,,,,,,,,,336.60309789620806,336.60309789620806,336.60309789620806,336.60309789620806,336.60309789620806,336.60309789620806,s,1,0.5886403215117753,337.2034242510563,338.23403948987834,,,,,,,,,,,,,542,2023-05-15_09h47.04.442,eb_02psyexp,2022.2.4,99.91609719718393,
88,0,88,0,,,,,,,,,,,,,,,,,,,,,,,,,,,,,,,,,,,,,,,,,,,,,,,,,,,,,,,,,,338.23403948987834,338.23403948987834,338.23403948987834,338.23403948987834,338.23403948987834,338.23403948987834,s,1,0.5336800715886056,338.784360079444,339.8049510437995,,,,,,,,,,,,,542,2023-05-15_09h47.04.442,eb_02psyexp,2022.2.4,99.91609719718393,
89,0,89,0,,,,,,,,,,,,,,,,,,,,,,,,,,,,,,,,,,,,,,,,,,,,,,,,,,,,,,,,,,339.8049510437995,339.8049510437995,339.8049510437995,339.8049510437995,339.8049510437995,339.8049510437995,l,1,0.618774721166119,340.43533965724055,341.45627412118483,,,,,,,,,,,,,542,2023-05-15_09h47.04.442,eb_02psyexp,2022.2.4,99.91609719718393,
90,0,90,0,,,,,,,,,,,,,,,,,,,,,,,,,,,,,,,,,,,,,,,,,,,,,,,,,,,,,,,,,,341.45627412118483,341.45627412118483,341.45627412118483,341.45627412118483,341.45627412118483,341.45627412118483,s,1,1.1674644419690594,342.6366482762387,343.65728330996353,,,,,,,,,,,,,542,2023-05-15_09h47.04.442,eb_02psyexp,2022.2.4,99.91609719718393,
91,0,91,0,,,,,,,,,,,,,,,,,,,,,,,,,,,,,,,,,,,,,,,,,,,,,,,,,,,,,,,,,,343.65728330996353,343.65728330996353,343.65728330996353,343.65728330996353,343.65728330996353,343.65728330996353,l,1,0.757457131287083,344.4276927144965,345.4483464625664,,,,,,,,,,,,,542,2023-05-15_09h47.04.442,eb_02psyexp,2022.2.4,99.91609719718393,
92,0,92,0,,,,,,,,,,,,,,,,,,,,,,,,,,,,,,,,,,,,,,,,,,,,,,,,,,,,,,,,,,345.4483464625664,345.4483464625664,345.4483464625664,345.4483464625664,345.4483464625664,345.4483464625664,s,1,3.350423598079942,348.8103112083627,349.840917995316,,,,,,,,,,,,,542,2023-05-15_09h47.04.442,eb_02psyexp,2022.2.4,99.91609719718393,
93,0,93,0,,,,,,,,,,,,,,,,,,,,,,,,,,,,,,,,,,,,,,,,,,,,,,,,,,,,,,,,,,349.840917995316,349.840917995316,349.840917995316,349.840917995316,349.840917995316,349.840917995316,s,1,0.6458610893459991,350.5013157426147,351.52195258741267,,,,,,,,,,,,,542,2023-05-15_09h47.04.442,eb_02psyexp,2022.2.4,99.91609719718393,
94,0,94,0,,,,,,,,,,,,,,,,,,,,,,,,,,,,,,,,,,,,,,,,,,,,,,,,,,,,,,,,,,351.52195258741267,351.52195258741267,351.52195258741267,351.52195258741267,351.52195258741267,351.52195258741267,l,1,0.8688636145088822,352.40243975329213,353.4330441255588,,,,,,,,,,,,,542,2023-05-15_09h47.04.442,eb_02psyexp,2022.2.4,99.91609719718393,
95,0,95,0,,,,,,,,,,,,,,,,,,,,,,,,,,,,,,,,,,,,,,,,,,,,,,,,,,,,,,,,,,353.4330441255588,353.4330441255588,353.4330441255588,353.4330441255588,353.4330441255588,353.4330441255588,s,1,0.6137459824094549,354.063421268831,355.08408890187275,,,,,,,,,,,,,542,2023-05-15_09h47.04.442,eb_02psyexp,2022.2.4,99.91609719718393,
96,0,96,0,,,,,,,,,,,,,,,,,,,,,,,,,,,,,,,,,,,,,,,,,,,,,,,,,,,,,,,,,,355.08408890187275,355.08408890187275,355.08408890187275,355.08408890187275,355.08408890187275,355.08408890187275,l,1,0.6667348823975772,355.76443649455905,356.79504569631536,,,,,,,,,,,,,542,2023-05-15_09h47.04.442,eb_02psyexp,2022.2.4,99.91609719718393,
97,0,97,0,,,,,,,,,,,,,,,,,,,,,,,,,,,,,,,,,,,,,,,,,,,,,,,,,,,,,,,,,,356.79504569631536,356.79504569631536,356.79504569631536,356.79504569631536,356.79504569631536,356.79504569631536,s,1,0.715772932395339,357.52543769043405,358.54611709539313,,,,,,,,,,,,,542,2023-05-15_09h47.04.442,eb_02psyexp,2022.2.4,99.91609719718393,
98,0,98,0,,,,,,,,,,,,,,,,,,,,,,,,,,,,,,,,,,,,,,,,,,,,,,,,,,,,,,,,,,358.54611709539313,358.54611709539313,358.54611709539313,358.54611709539313,358.54611709539313,358.54611709539313,s,1,0.6287030087551102,359.1864590495825,360.2070759725757,,,,,,,,,,,,,542,2023-05-15_09h47.04.442,eb_02psyexp,2022.2.4,99.91609719718393,
99,0,99,0,,,,,,,,,,,,,,,,,,,,,,,,,,,,,,,,,,,,,,,,,,,,,,,,,,,,,,,,,,360.2070759725757,360.2070759725757,360.2070759725757,360.2070759725757,360.2070759725757,360.2070759725757,l,1,0.6227666221093386,360.84744811139535,361.86808737087995,,,,,,,,,,,,,542,2023-05-15_09h47.04.442,eb_02psyexp,2022.2.4,99.91609719718393,
100,0,100,0,,,,,,,,,,,,,,,,,,,,,,,,,,,,,,,,,,,,,,,,,,,,,,,,,,,,,,,,,,361.86808737087995,361.86808737087995,361.86808737087995,361.86808737087995,361.86808737087995,361.86808737087995,s,1,1.2017821121262386,363.08879376074765,364.10941853176337,,,,,,,,,,,,,542,2023-05-15_09h47.04.442,eb_02psyexp,2022.2.4,99.91609719718393,
101,0,101,0,,,,,,,,,,,,,,,,,,,,,,,,,,,,,,,,,,,,,,,,,,,,,,,,,,,,,,,,,,364.10941853176337,364.10941853176337,364.10941853176337,364.10941853176337,364.10941853176337,364.10941853176337,l,1,1.488470020587556,365.6102745643584,366.64090549899265,,,,,,,,,,,,,542,2023-05-15_09h47.04.442,eb_02psyexp,2022.2.4,99.91609719718393,
102,0,102,0,,,,,,,,,,,,,,,,,,,,,,,,,,,,,,,,,,,,,,,,,,,,,,,,,,,,,,,,,,366.64090549899265,366.64090549899265,366.64090549899265,366.64090549899265,366.64090549899265,366.64090549899265,s,1,0.596971245133318,367.2512516005663,368.28186442446895,,,,,,,,,,,,,542,2023-05-15_09h47.04.442,eb_02psyexp,2022.2.4,99.91609719718393,
103,0,103,0,,,,,,,,,,,,,,,,,,,,,,,,,,,,,,,,,,,,,,,,,,,,,,,,,,,,,,,,,,368.28186442446895,368.28186442446895,368.28186442446895,368.28186442446895,368.28186442446895,368.28186442446895,l,1,0.6840067584998906,368.9822690176079,370.01289421727415,,,,,,,,,,,,,542,2023-05-15_09h47.04.442,eb_02psyexp,2022.2.4,99.91609719718393,
104,0,104,0,,,,,,,,,,,,,,,,,,,,,,,,,,,,,,,,,,,,,,,,,,,,,,,,,,,,,,,,,,370.01289421727415,370.01289421727415,370.01289421727415,370.01289421727415,370.01289421727415,370.01289421727415,s,1,1.0169895491562784,371.0434916471131,372.0641713538207,,,,,,,,,,,,,542,2023-05-15_09h47.04.442,eb_02psyexp,2022.2.4,99.91609719718393,
105,0,105,0,,,,,,,,,,,,,,,,,,,,,,,,,,,,,,,,,,,,,,,,,,,,,,,,,,,,,,,,,,372.0641713538207,372.0641713538207,372.0641713538207,372.0641713538207,372.0641713538207,372.0641713538207,l,1,1.789794999640435,373.86517215135973,374.89578829554375,,,,,,,,,,,,,542,2023-05-15_09h47.04.442,eb_02psyexp,2022.2.4,99.91609719718393,
106,0,106,0,,,,,,,,,,,,,,,,,,,,,,,,,,,,,,,,,,,,,,,,,,,,,,,,,,,,,,,,,,374.89578829554375,374.89578829554375,374.89578829554375,374.89578829554375,374.89578829554375,374.89578829554375,s,1,0.7571196685312316,375.66623724182136,376.69685278239194,,,,,,,,,,,,,542,2023-05-15_09h47.04.442,eb_02psyexp,2022.2.4,99.91609719718393,
107,0,107,0,,,,,,,,,,,,,,,,,,,,,,,,,,,,,,,,,,,,,,,,,,,,,,,,,,,,,,,,,,376.69685278239194,376.69685278239194,376.69685278239194,376.69685278239194,376.69685278239194,376.69685278239194,l,1,1.0041218942496926,377.717457027873,378.7480447986163,,,,,,,,,,,,,542,2023-05-15_09h47.04.442,eb_02psyexp,2022.2.4,99.91609719718393,
108,0,108,0,,,,,,,,,,,,,,,,,,,,,,,,,,,,,,,,,,,,,,,,,,,,,,,,,,,,,,,,,,378.7480447986163,378.7480447986163,378.7480447986163,378.7480447986163,378.7480447986163,378.7480447986163,s,1,0.6168860765174031,379.3784303936409,,,,,,,,,,,,,,542,2023-05-15_09h47.04.442,eb_02psyexp,2022.2.4,99.91609719718393,
109,0,109,0,,,,,,,,,,,,,,,,,,,,,,,,,,,,,,,,,,,,,,,,,,,,,,,,,,,,,,,,,,380.3993829683168,380.3993829683168,380.3993829683168,380.3993829683168,380.3993829683168,380.3993829683168,l,1,0.6135736289434135,381.029743510182,382.0500525512034,,,,,,,,,,,,,542,2023-05-15_09h47.04.442,eb_02psyexp,2022.2.4,99.91609719718393,
110,0,110,0,,,,,,,,,,,,,,,,,,,,,,,,,,,,,,,,,,,,,,,,,,,,,,,,,,,,,,,,,,382.0500525512034,382.0500525512034,382.0500525512034,382.0500525512034,382.0500525512034,382.0500525512034,l,1,0.698932392988354,382.7604442918673,383.7910791503964,,,,,,,,,,,,,542,2023-05-15_09h47.04.442,eb_02psyexp,2022.2.4,99.91609719718393,
111,0,111,0,,,,,,,,,,,,,,,,,,,,,,,,,,,,,,,,,,,,,,,,,,,,,,,,,,,,,,,,,,383.7910791503964,383.7910791503964,383.7910791503964,383.7910791503964,383.7910791503964,383.7910791503964,s,1,0.6698973131133243,384.47145964426454,385.502102954546,,,,,,,,,,,,,542,2023-05-15_09h47.04.442,eb_02psyexp,2022.2.4,99.91609719718393,
112,0,112,0,,,,,,,,,,,,,,,,,,,,,,,,,,,,,,,,,,,,,,,,,,,,,,,,,,,,,,,,,,385.502102954546,385.502102954546,385.502102954546,385.502102954546,385.502102954546,385.502102954546,l,1,0.9109293455258012,386.43262607010547,387.4632174631115,,,,,,,,,,,,,542,2023-05-15_09h47.04.442,eb_02psyexp,2022.2.4,99.91609719718393,
113,0,113,0,,,,,,,,,,,,,,,,,,,,,,,,,,,,,,,,,,,,,,,,,,,,,,,,,,,,,,,,,,387.4632174631115,387.4632174631115,387.4632174631115,387.4632174631115,387.4632174631115,387.4632174631115,s,1,0.8218295138794929,388.3037291750079,389.3343326417962,,,,,,,,,,,,,542,2023-05-15_09h47.04.442,eb_02psyexp,2022.2.4,99.91609719718393,
114,0,114,0,,,,,,,,,,,,,,,,,,,,,,,,,,,,,,,,,,,,,,,,,,,,,,,,,,,,,,,,,,389.3343326417962,389.3343326417962,389.3343326417962,389.3343326417962,389.3343326417962,389.3343326417962,l,1,0.5826852204045281,389.9346982365241,390.96529174235184,,,,,,,,,,,,,542,2023-05-15_09h47.04.442,eb_02psyexp,2022.2.4,99.91609719718393,
115,0,115,0,,,,,,,,,,,,,,,,,,,,,,,,,,,,,,,,,,,,,,,,,,,,,,,,,,,,,,,,,,390.96529174235184,390.96529174235184,390.96529174235184,390.96529174235184,390.96529174235184,390.96529174235184,s,1,0.726742283673957,391.7057463451056,392.7363344178302,,,,,,,,,,,,,542,2023-05-15_09h47.04.442,eb_02psyexp,2022.2.4,99.91609719718393,
116,0,116,0,,,,,,,,,,,,,,,,,,,,,,,,,,,,,,,,,,,,,,,,,,,,,,,,,,,,,,,,,,392.7363344178302,392.7363344178302,392.7363344178302,392.7363344178302,392.7363344178302,392.7363344178302,l,0,1.139712505391799,393.88704324059654,394.91765123500954,,,,,,,,,,,,,542,2023-05-15_09h47.04.442,eb_02psyexp,2022.2.4,99.91609719718393,
117,0,117,0,,,,,,,,,,,,,,,,,,,,,,,,,,,,,,,,,,,,,,,,,,,,,,,,,,,,,,,,,,394.91765123500954,394.91765123500954,394.91765123500954,394.91765123500954,394.91765123500954,394.91765123500954,l,1,2.0383954950375482,396.9688655878417,397.9994787136093,,,,,,,,,,,,,542,2023-05-15_09h47.04.442,eb_02psyexp,2022.2.4,99.91609719718393,
118,0,118,0,,,,,,,,,,,,,,,,,,,,,,,,,,,,,,,,,,,,,,,,,,,,,,,,,,,,,,,,,,397.9994787136093,397.9994787136093,397.9994787136093,397.9994787136093,397.9994787136093,397.9994787136093,s,1,0.7325793633935973,398.749920463888,399.7805354007287,,,,,,,,,,,,,542,2023-05-15_09h47.04.442,eb_02psyexp,2022.2.4,99.91609719718393,
119,0,119,0,,,,,,,,,,,,,,,,,,,,,,,,,,,,,,,,,,,,,,,,,,,,,,,,,,,,,,,,,,399.7805354007287,399.7805354007287,399.7805354007287,399.7805354007287,399.7805354007287,399.7805354007287,s,1,0.6955281842965633,400.4909506852273,401.521565622068,,,,,,,,,,,,,542,2023-05-15_09h47.04.442,eb_02psyexp,2022.2.4,99.91609719718393,
120,0,120,0,,,,,,,,,,,,,,,,,,,,,,,,,,,,,,,,,,,,,,,,,,,,,,,,,,,,,,,,,,401.521565622068,401.521565622068,401.521565622068,401.521565622068,401.521565622068,401.521565622068,l,1,0.6665075930068269,402.2019645284163,403.2225533798337,,,,,,,,,,,,,542,2023-05-15_09h47.04.442,eb_02psyexp,2022.2.4,99.91609719718393,
121,0,121,0,,,,,,,,,,,,,,,,,,,,,,,,,,,,,,,,,,,,,,,,,,,,,,,,,,,,,,,,,,403.2225533798337,403.2225533798337,403.2225533798337,403.2225533798337,403.2225533798337,403.2225533798337,s,1,1.333537479978986,404.57336917647626,405.59396014083177,,,,,,,,,,,,,542,2023-05-15_09h47.04.442,eb_02psyexp,2022.2.4,99.91609719718393,
122,0,122,0,,,,,,,,,,,,,,,,,,,,,,,,,,,,,,,,,,,,,,,,,,,,,,,,,,,,,,,,,,405.59396014083177,405.59396014083177,405.59396014083177,405.59396014083177,405.59396014083177,405.59396014083177,l,1,0.6171245342120528,406.22434603760485,407.2549489006633,,,,,,,,,,,,,542,2023-05-15_09h47.04.442,eb_02psyexp,2022.2.4,99.91609719718393,
123,0,123,0,,,,,,,,,,,,,,,,,,,,,,,,,,,,,,,,,,,,,,,,,,,,,,,,,,,,,,,,,,407.2549489006633,407.2549489006633,407.2549489006633,407.2549489006633,407.2549489006633,407.2549489006633,s,1,0.7001439989544451,407.9653735423926,408.99599391245283,,,,,,,,,,,,,542,2023-05-15_09h47.04.442,eb_02psyexp,2022.2.4,99.91609719718393,
124,0,124,0,,,,,,,,,,,,,,,,,,,,,,,,,,,,,,,,,,,,,,,,,,,,,,,,,,,,,,,,,,408.99599391245283,408.99599391245283,408.99599391245283,408.99599391245283,408.99599391245283,408.99599391245283,s,1,0.5831636448856443,409.5963474333985,410.61693356814794,,,,,,,,,,,,,542,2023-05-15_09h47.04.442,eb_02psyexp,2022.2.4,99.91609719718393,
125,0,125,0,,,,,,,,,,,,,,,,,,,,,,,,,,,,,,,,,,,,,,,,,,,,,,,,,,,,,,,,,,410.61693356814794,410.61693356814794,410.61693356814794,410.61693356814794,410.61693356814794,410.61693356814794,l,1,0.594194874400273,411.2273297760403,412.25790607673116,,,,,,,,,,,,,542,2023-05-15_09h47.04.442,eb_02psyexp,2022.2.4,99.91609719718393,
126,0,126,0,,,,,,,,,,,,,,,,,,,,,,,,,,,,,,,,,,,,,,,,,,,,,,,,,,,,,,,,,,412.25790607673116,412.25790607673116,412.25790607673116,412.25790607673116,412.25790607673116,412.25790607673116,s,1,0.6812524223932996,412.95834840042517,413.97894238319714,,,,,,,,,,,,,542,2023-05-15_09h47.04.442,eb_02psyexp,2022.2.4,99.91609719718393,
127,0,127,0,,,,,,,,,,,,,,,,,,,,,,,,,,,,,,,,,,,,,,,,,,,,,,,,,,,,,,,,,,413.97894238319714,413.97894238319714,413.97894238319714,413.97894238319714,413.97894238319714,413.97894238319714,l,1,1.656210450688377,415.6499303643359,416.68052326655015,,,,,,,,,,,,,542,2023-05-15_09h47.04.442,eb_02psyexp,2022.2.4,99.91609719718393,
128,0,128,0,,,,,,,,,,,,,,,,,,,,,,,,,,,,,,,,,,,,,,,,,,,,,,,,,,,,,,,,,,416.68052326655015,416.68052326655015,416.68052326655015,416.68052326655015,416.68052326655015,416.68052326655015,s,1,0.7386376955546439,417.4309846367687,418.46159685694147,,,,,,,,,,,,,542,2023-05-15_09h47.04.442,eb_02psyexp,2022.2.4,99.91609719718393,
129,0,129,0,,,,,,,,,,,,,,,,,,,,,,,,,,,,,,,,,,,,,,,,,,,,,,,,,,,,,,,,,,418.46159685694147,418.46159685694147,418.46159685694147,418.46159685694147,418.46159685694147,418.46159685694147,s,1,0.41357441374566406,418.8918495194521,419.91242659883574,,,,,,,,,,,,,542,2023-05-15_09h47.04.442,eb_02psyexp,2022.2.4,99.91609719718393,
130,0,130,0,,,,,,,,,,,,,,,,,,,,,,,,,,,,,,,,,,,,,,,,,,,,,,,,,,,,,,,,,,419.91242659883574,419.91242659883574,419.91242659883574,419.91242659883574,419.91242659883574,419.91242659883574,l,1,2.6817453352268785,422.6040475007612,423.63465096754953,,,,,,,,,,,,,542,2023-05-15_09h47.04.442,eb_02psyexp,2022.2.4,99.91609719718393,
131,0,131,0,,,,,,,,,,,,,,,,,,,,,,,,,,,,,,,,,,,,,,,,,,,,,,,,,,,,,,,,,,423.63465096754953,423.63465096754953,423.63465096754953,423.63465096754953,423.63465096754953,423.63465096754953,s,1,1.239577339263633,424.88540059968363,425.91601100889966,,,,,,,,,,,,,542,2023-05-15_09h47.04.442,eb_02psyexp,2022.2.4,99.91609719718393,
132,0,132,0,,,,,,,,,,,,,,,,,,,,,,,,,,,,,,,,,,,,,,,,,,,,,,,,,,,,,,,,,,425.91601100889966,425.91601100889966,425.91601100889966,425.91601100889966,425.91601100889966,425.91601100889966,l,1,0.654202577425167,426.5864140143385,427.6170150663238,,,,,,,,,,,,,542,2023-05-15_09h47.04.442,eb_02psyexp,2022.2.4,99.91609719718393,
133,0,133,0,,,,,,,,,,,,,,,,,,,,,,,,,,,,,,,,,,,,,,,,,,,,,,,,,,,,,,,,,,427.6170150663238,427.6170150663238,427.6170150663238,427.6170150663238,427.6170150663238,427.6170150663238,s,1,1.1212380785727873,428.7577068590326,429.7883057980798,,,,,,,,,,,,,542,2023-05-15_09h47.04.442,eb_02psyexp,2022.2.4,99.91609719718393,
134,0,134,0,,,,,,,,,,,,,,,,,,,,,,,,,,,,,,,,,,,,,,,,,,,,,,,,,,,,,,,,,,429.7883057980798,429.7883057980798,429.7883057980798,429.7883057980798,429.7883057980798,429.7883057980798,l,1,0.677932126680389,430.4787039256189,431.50931705138646,,,,,,,,,,,,,542,2023-05-15_09h47.04.442,eb_02psyexp,2022.2.4,99.91609719718393,
135,0,135,0,,,,,,,,,,,,,,,,,,,,,,,,,,,,,,,,,,,,,,,,,,,,,,,,,,,,,,,,,,431.50931705138646,431.50931705138646,431.50931705138646,431.50931705138646,431.50931705138646,431.50931705138646,s,1,0.6129469986772165,432.1396911763586,433.17029645410366,,,,,,,,,,,,,542,2023-05-15_09h47.04.442,eb_02psyexp,2022.2.4,99.91609719718393,
136,0,136,0,,,,,,,,,,,,,,,,,,,,,,,,,,,,,,,,,,,,,,,,,,,,,,,,,,,,,,,,,,433.17029645410366,433.17029645410366,433.17029645410366,433.17029645410366,433.17029645410366,433.17029645410366,l,1,2.0319658934604377,435.2215147309471,436.24210388422944,,,,,,,,,,,,,542,2023-05-15_09h47.04.442,eb_02psyexp,2022.2.4,99.91609719718393,
137,0,137,0,,,,,,,,,,,,,,,,,,,,,,,,,,,,,,,,,,,,,,,,,,,,,,,,,,,,,,,,,,436.24210388422944,436.24210388422944,436.24210388422944,436.24210388422944,436.24210388422944,436.24210388422944,s,1,1.5031641399255022,437.7630199356936,438.7836078815162,,,,,,,,,,,,,542,2023-05-15_09h47.04.442,eb_02psyexp,2022.2.4,99.91609719718393,
138,0,138,0,,,,,,,,,,,,,,,,,,,,,,,,,,,,,,,,,,,,,,,,,,,,,,,,,,,,,,,,,,438.7836078815162,438.7836078815162,438.7836078815162,438.7836078815162,438.7836078815162,438.7836078815162,l,1,0.7216893973527476,439.5240648991894,440.54466099478304,,,,,,,,,,,,,542,2023-05-15_09h47.04.442,eb_02psyexp,2022.2.4,99.91609719718393,
139,0,139,0,,,,,,,,,,,,,,,,,,,,,,,,,,,,,,,,,,,,,,,,,,,,,,,,,,,,,,,,,,440.54466099478304,440.54466099478304,440.54466099478304,440.54466099478304,440.54466099478304,440.54466099478304,s,1,1.0566375012276694,441.6152972660493,442.63588641933165,,,,,,,,,,,,,542,2023-05-15_09h47.04.442,eb_02psyexp,2022.2.4,99.91609719718393,
140,0,140,0,,,,,,,,,,,,,,,,,,,,,,,,,,,,,,,,,,,,,,,,,,,,,,,,,,,,,,,,,,442.63588641933165,442.63588641933165,442.63588641933165,442.63588641933165,442.63588641933165,442.63588641933165,l,1,3.413437074283138,446.0679335506866,447.09855784475803,,,,,,,,,,,,,542,2023-05-15_09h47.04.442,eb_02psyexp,2022.2.4,99.91609719718393,
141,0,141,0,,,,,,,,,,,,,,,,,,,,,,,,,,,,,,,,,,,,,,,,,,,,,,,,,,,,,,,,,,447.09855784475803,447.09855784475803,447.09855784475803,447.09855784475803,447.09855784475803,447.09855784475803,s,1,2.5347706377506256,449.6500417451607,450.6806382695213,,,,,,,,,,,,,542,2023-05-15_09h47.04.442,eb_02psyexp,2022.2.4,99.91609719718393,
142,0,142,0,,,,,,,,,,,,,,,,,,,,,,,,,,,,,,,,,,,,,,,,,,,,,,,,,,,,,,,,,,450.6806382695213,450.6806382695213,450.6806382695213,450.6806382695213,450.6806382695213,450.6806382695213,l,1,2.079743136651814,452.771887238021,453.7925361566013,,,,,,,,,,,,,542,2023-05-15_09h47.04.442,eb_02psyexp,2022.2.4,99.91609719718393,
143,0,143,0,,,,,,,,,,,,,,,,,,,,,,,,,,,,,,,,,,,,,,,,,,,,,,,,,,,,,,,,,,453.7925361566013,453.7925361566013,453.7925361566013,453.7925361566013,453.7925361566013,453.7925361566013,s,1,0.7598371794447303,454.5629552201135,455.5835576545214,,,,,,,,,,,,,542,2023-05-15_09h47.04.442,eb_02psyexp,2022.2.4,99.91609719718393,
144,0,144,0,,,,,,,,,,,,,,,,,,,,,,,,,,,,,,,,,,,,,,,,,,,,,,,,,,,,,,,,,,455.5835576545214,455.5835576545214,455.5835576545214,455.5835576545214,455.5835576545214,455.5835576545214,l,1,0.6648242032388225,456.2639644088922,457.2945558017818,,,,,,,,,,,,,542,2023-05-15_09h47.04.442,eb_02psyexp,2022.2.4,99.91609719718393,
145,0,145,0,,,,,,,,,,,,,,,,,,,,,,,,,,,,,,,,,,,,,,,,,,,,,,,,,,,,,,,,,,457.2945558017818,457.2945558017818,457.2945558017818,457.2945558017818,457.2945558017818,457.2945558017818,s,1,0.8898355073761195,458.1951038921252,459.2156782549573,,,,,,,,,,,,,542,2023-05-15_09h47.04.442,eb_02psyexp,2022.2.4,99.91609719718393,
146,0,146,0,,,,,,,,,,,,,,,,,,,,,,,,,,,,,,,,,,,,,,,,,,,,,,,,,,,,,,,,,,459.2156782549573,459.2156782549573,459.2156782549573,459.2156782549573,459.2156782549573,459.2156782549573,l,1,0.8487495654262602,460.07621436798945,461.0968711344758,,,,,,,,,,,,,542,2023-05-15_09h47.04.442,eb_02psyexp,2022.2.4,99.91609719718393,
147,0,147,0,,,,,,,,,,,,,,,,,,,,,,,,,,,,,,,,,,,,,,,,,,,,,,,,,,,,,,,,,,461.0968711344758,461.0968711344758,461.0968711344758,461.0968711344758,461.0968711344758,461.0968711344758,s,1,0.7435369427548721,461.85726622561924,462.8778556806501,,,,,,,,,,,,,542,2023-05-15_09h47.04.442,eb_02psyexp,2022.2.4,99.91609719718393,
148,0,148,0,,,,,,,,,,,,,,,,,,,,,,,,,,,,,,,,,,,,,,,,,,,,,,,,,,,,,,,,,,462.8778556806501,462.8778556806501,462.8778556806501,462.8778556806501,462.8778556806501,462.8778556806501,l,1,0.754569077747874,463.64832515234593,464.67893193941563,,,,,,,,,,,,,542,2023-05-15_09h47.04.442,eb_02psyexp,2022.2.4,99.91609719718393,
149,0,149,0,,,,,,,,,,,,,,,,,,,,,,,,,,,,,,,,,,,,,,,,,,,,,,,,,,,,,,,,,,464.67893193941563,464.67893193941563,464.67893193941563,464.67893193941563,464.67893193941563,464.67893193941563,s,1,0.8015210764715448,465.4994192501763,466.53002332057804,,,,,,,,,,,,,542,2023-05-15_09h47.04.442,eb_02psyexp,2022.2.4,99.91609719718393,
150,0,150,0,,,,,,,,,,,,,,,,,,,,,,,,,,,,,,,,,,,,,,,,,,,,,,,,,,,,,,,,,,466.53002332057804,466.53002332057804,466.53002332057804,466.53002332057804,466.53002332057804,466.53002332057804,l,1,0.6544138690223917,467.20042813709006,468.2210613597417,,,,,,,,,,,,,542,2023-05-15_09h47.04.442,eb_02psyexp,2022.2.4,99.91609719718393,
151,0,151,0,,,,,,,,,,,,,,,,,,,,,,,,,,,,,,,,,,,,,,,,,,,,,,,,,,,,,,,,,,468.2210613597417,468.2210613597417,468.2210613597417,468.2210613597417,468.2210613597417,468.2210613597417,l,1,0.7863802264910191,469.0215297024697,470.0421360608889,,,,,,,,,,,,,542,2023-05-15_09h47.04.442,eb_02psyexp,2022.2.4,99.91609719718393,
152,0,152,0,,,,,,,,,,,,,,,,,,,,,,,,,,,,,,,,,,,,,,,,,,,,,,,,,,,,,,,,,,470.0421360608889,470.0421360608889,470.0421360608889,470.0421360608889,470.0421360608889,470.0421360608889,s,1,0.6773272291757166,470.7325218128972,471.75312032329384,,,,,,,,,,,,,542,2023-05-15_09h47.04.442,eb_02psyexp,2022.2.4,99.91609719718393,
153,0,153,0,,,,,,,,,,,,,,,,,,,,,,,,,,,,,,,,,,,,,,,,,,,,,,,,,,,,,,,,,,471.75312032329384,471.75312032329384,471.75312032329384,471.75312032329384,471.75312032329384,471.75312032329384,l,1,0.6463530967012048,472.4135141465813,,,,,,,,,,,,,,542,2023-05-15_09h47.04.442,eb_02psyexp,2022.2.4,99.91609719718393,
154,0,154,0,,,,,,,,,,,,,,,,,,,,,,,,,,,,,,,,,,,,,,,,,,,,,,,,,,,,,,,,,,473.44442489161156,473.44442489161156,473.44442489161156,473.44442489161156,473.44442489161156,473.44442489161156,s,1,3.571074146544561,477.0262333540013,478.0468194888672,,,,,,,,,,,,,542,2023-05-15_09h47.04.442,eb_02psyexp,2022.2.4,99.91609719718393,
155,0,155,0,,,,,,,,,,,,,,,,,,,,,,,,,,,,,,,,,,,,,,,,,,,,,,,,,,,,,,,,,,478.0468194888672,478.0468194888672,478.0468194888672,478.0468194888672,478.0468194888672,478.0468194888672,l,1,0.6646898821927607,478.7272356003523,479.7578294080449,,,,,,,,,,,,,542,2023-05-15_09h47.04.442,eb_02psyexp,2022.2.4,99.91609719718393,
156,0,156,0,,,,,,,,,,,,,,,,,,,,,,,,,,,,,,,,,,,,,,,,,,,,,,,,,,,,,,,,,,479.7578294080449,479.7578294080449,479.7578294080449,479.7578294080449,479.7578294080449,479.7578294080449,s,1,0.6976903005270287,480.4682646143483,481.488852258306,,,,,,,,,,,,,542,2023-05-15_09h47.04.442,eb_02psyexp,2022.2.4,99.91609719718393,
157,0,157,0,,,,,,,,,,,,,,,,,,,,,,,,,,,,,,,,,,,,,,,,,,,,,,,,,,,,,,,,,,481.488852258306,481.488852258306,481.488852258306,481.488852258306,481.488852258306,481.488852258306,l,1,2.3177072159014642,483.8202527771937,484.85083692579065,,,,,,,,,,,,,542,2023-05-15_09h47.04.442,eb_02psyexp,2022.2.4,99.91609719718393,
158,0,158,0,,,,,,,,,,,,,,,,,,,,,,,,,,,,,,,,,,,,,,,,,,,,,,,,,,,,,,,,,,484.85083692579065,484.85083692579065,484.85083692579065,484.85083692579065,484.85083692579065,484.85083692579065,s,1,0.731735706445761,485.60127897793427,486.621882317937,,,,,,,,,,,,,542,2023-05-15_09h47.04.442,eb_02psyexp,2022.2.4,99.91609719718393,
159,0,159,0,,,,,,,,,,,,,,,,,,,,,,,,,,,,,,,,,,,,,,,,,,,,,,,,,,,,,,,,,,486.621882317937,486.621882317937,486.621882317937,486.621882317937,486.621882317937,486.621882317937,l,1,0.5766948034288362,487.2122486913577,488.2428536673542,,,,,,,,,,,,,542,2023-05-15_09h47.04.442,eb_02psyexp,2022.2.4,99.91609719718393,
160,0,160,0,,,,,,,,,,,,,,,,,,,,,,,,,,,,,,,,,,,,,,,,,,,,,,,,,,,,,,,,,,488.2428536673542,488.2428536673542,488.2428536673542,488.2428536673542,488.2428536673542,488.2428536673542,s,1,1.6677185954758897,489.92384962318465,490.94448073301464,,,,,,,,,,,,,542,2023-05-15_09h47.04.442,eb_02psyexp,2022.2.4,99.91609719718393,
161,0,161,0,,,,,,,,,,,,,,,,,,,,,,,,,,,,,,,,,,,,,,,,,,,,,,,,,,,,,,,,,,490.94448073301464,490.94448073301464,490.94448073301464,490.94448073301464,490.94448073301464,490.94448073301464,l,1,0.870132872951217,491.82496970985085,492.8555792135885,,,,,,,,,,,,,542,2023-05-15_09h47.04.442,eb_02psyexp,2022.2.4,99.91609719718393,
162,0,162,0,,,,,,,,,,,,,,,,,,,,,,,,,,,,,,,,,,,,,,,,,,,,,,,,,,,,,,,,,,492.8555792135885,492.8555792135885,492.8555792135885,492.8555792135885,492.8555792135885,492.8555792135885,s,1,0.6630019645672292,493.5359829494264,494.55657572485507,,,,,,,,,,,,,542,2023-05-15_09h47.04.442,eb_02psyexp,2022.2.4,99.91609719718393,
163,0,163,0,,,,,,,,,,,,,,,,,,,,,,,,,,,,,,,,,,,,,,,,,,,,,,,,,,,,,,,,,,494.55657572485507,494.55657572485507,494.55657572485507,494.55657572485507,494.55657572485507,494.55657572485507,l,1,0.602043449645862,495.1769476099871,496.1975977359107,,,,,,,,,,,,,542,2023-05-15_09h47.04.442,eb_02psyexp,2022.2.4,99.91609719718393,
164,0,164,0,,,,,,,,,,,,,,,,,,,,,,,,,,,,,,,,,,,,,,,,,,,,,,,,,,,,,,,,,,496.1975977359107,496.1975977359107,496.1975977359107,496.1975977359107,496.1975977359107,496.1975977359107,s,1,0.5930351855931804,496.807913049357,497.83850353676826,,,,,,,,,,,,,542,2023-05-15_09h47.04.442,eb_02psyexp,2022.2.4,99.91609719718393,
165,0,165,0,,,,,,,,,,,,,,,,,,,,,,,,,,,,,,,,,,,,,,,,,,,,,,,,,,,,,,,,,,497.83850353676826,497.83850353676826,497.83850353676826,497.83850353676826,497.83850353676826,497.83850353676826,s,1,0.6881477708229795,498.53893439040985,499.5595202232944,,,,,,,,,,,,,542,2023-05-15_09h47.04.442,eb_02psyexp,2022.2.4,99.91609719718393,
166,0,166,0,,,,,,,,,,,,,,,,,,,,,,,,,,,,,,,,,,,,,,,,,,,,,,,,,,,,,,,,,,499.5595202232944,499.5595202232944,499.5595202232944,499.5595202232944,499.5595202232944,499.5595202232944,l,1,0.662094316445291,500.23993452382274,501.2605867626844,,,,,,,,,,,,,542,2023-05-15_09h47.04.442,eb_02psyexp,2022.2.4,99.91609719718393,
167,0,167,0,,,,,,,,,,,,,,,,,,,,,,,,,,,,,,,,,,,,,,,,,,,,,,,,,,,,,,,,,,501.2605867626844,501.2605867626844,501.2605867626844,501.2605867626844,501.2605867626844,501.2605867626844,s,1,0.6250687942374498,501.9009166430915,502.92150368343573,,,,,,,,,,,,,542,2023-05-15_09h47.04.442,eb_02psyexp,2022.2.4,99.91609719718393,
168,0,168,0,,,,,,,,,,,,,,,,,,,,,,,,,,,,,,,,,,,,,,,,,,,,,,,,,,,,,,,,,,502.92150368343573,502.92150368343573,502.92150368343573,502.92150368343573,502.92150368343573,502.92150368343573,l,1,0.604172060964629,503.5418846239336,504.5724748095963,,,,,,,,,,,,,542,2023-05-15_09h47.04.442,eb_02psyexp,2022.2.4,99.91609719718393,
169,0,169,0,,,,,,,,,,,,,,,,,,,,,,,,,,,,,,,,,,,,,,,,,,,,,,,,,,,,,,,,,,504.5724748095963,504.5724748095963,504.5724748095963,504.5724748095963,504.5724748095963,504.5724748095963,s,1,0.6171830920502543,505.2028649322456,506.2235165673774,,,,,,,,,,,,,542,2023-05-15_09h47.04.442,eb_02psyexp,2022.2.4,99.91609719718393,
170,0,170,0,,,,,,,,,,,,,,,,,,,,,,,,,,,,,,,,,,,,,,,,,,,,,,,,,,,,,,,,,,506.2235165673774,506.2235165673774,506.2235165673774,506.2235165673774,506.2235165673774,506.2235165673774,l,1,0.6381386852590367,506.8738489893731,507.9044424952008,,,,,,,,,,,,,542,2023-05-15_09h47.04.442,eb_02psyexp,2022.2.4,99.91609719718393,
171,0,171,0,,,,,,,,,,,,,,,,,,,,,,,,,,,,,,,,,,,,,,,,,,,,,,,,,,,,,,,,,,507.9044424952008,507.9044424952008,507.9044424952008,507.9044424952008,507.9044424952008,507.9044424952008,s,1,0.6532357677351683,508.57487508142367,509.5955022672424,,,,,,,,,,,,,542,2023-05-15_09h47.04.442,eb_02psyexp,2022.2.4,99.91609719718393,
172,0,172,0,,,,,,,,,,,,,,,,,,,,,,,,,,,,,,,,,,,,,,,,,,,,,,,,,,,,,,,,,,509.5955022672424,509.5955022672424,509.5955022672424,509.5955022672424,509.5955022672424,509.5955022672424,l,1,0.5541853118920699,510.1658303546719,511.18642041343264,,,,,,,,,,,,,542,2023-05-15_09h47.04.442,eb_02psyexp,2022.2.4,99.91609719718393,
173,0,173,0,,,,,,,,,,,,,,,,,,,,,,,,,,,,,,,,,,,,,,,,,,,,,,,,,,,,,,,,,,511.18642041343264,511.18642041343264,511.18642041343264,511.18642041343264,511.18642041343264,511.18642041343264,s,1,0.6832799154799432,511.88684009877034,512.9074416276999,,,,,,,,,,,,,542,2023-05-15_09h47.04.442,eb_02psyexp,2022.2.4,99.91609719718393,
174,0,174,0,,,,,,,,,,,,,,,,,,,,,,,,,,,,,,,,,,,,,,,,,,,,,,,,,,,,,,,,,,512.9074416276999,512.9074416276999,512.9074416276999,512.9074416276999,512.9074416276999,512.9074416276999,l,1,0.5863043427234516,513.5077857914148,514.5283990923781,,,,,,,,,,,,,542,2023-05-15_09h47.04.442,eb_02psyexp,2022.2.4,99.91609719718393,
175,0,175,0,,,,,,,,,,,,,,,,,,,,,,,,,,,,,,,,,,,,,,,,,,,,,,,,,,,,,,,,,,514.5283990923781,514.5283990923781,514.5283990923781,514.5283990923781,514.5283990923781,514.5283990923781,s,1,0.8523234107997268,515.3988976015244,516.4195136190392,,,,,,,,,,,,,542,2023-05-15_09h47.04.442,eb_02psyexp,2022.2.4,99.91609719718393,
176,0,176,0,,,,,,,,,,,,,,,,,,,,,,,,,,,,,,,,,,,,,,,,,,,,,,,,,,,,,,,,,,516.4195136190392,516.4195136190392,516.4195136190392,516.4195136190392,516.4195136190392,516.4195136190392,l,1,0.689212680212222,517.1198928571539,518.1405284944922,,,,,,,,,,,,,542,2023-05-15_09h47.04.442,eb_02psyexp,2022.2.4,99.91609719718393,
177,0,177,0,,,,,,,,,,,,,,,,,,,,,,,,,,,,,,,,,,,,,,,,,,,,,,,,,,,,,,,,,,518.1405284944922,518.1405284944922,518.1405284944922,518.1405284944922,518.1405284944922,518.1405284944922,s,1,0.664211759576574,518.820921665756,519.8415304389782,,,,,,,,,,,,,542,2023-05-15_09h47.04.442,eb_02psyexp,2022.2.4,99.91609719718393,
178,0,178,0,,,,,,,,,,,,,,,,,,,,,,,,,,,,,,,,,,,,,,,,,,,,,,,,,,,,,,,,,,519.8415304389782,519.8415304389782,519.8415304389782,519.8415304389782,519.8415304389782,519.8415304389782,l,1,0.5632171197794378,520.421879178728,,,,,,,,,,,,,,542,2023-05-15_09h47.04.442,eb_02psyexp,2022.2.4,99.91609719718393,
179,0,179,0,,,,,,,,,,,,,,,,,,,,,,,,,,,,,,,,,,,,,,,,,,,,,,,,,,,,,,,,,,521.4427671586163,521.4427671586163,521.4427671586163,521.4427671586163,521.4427671586163,521.4427671586163,s,1,0.6979939566226676,522.1528971994994,523.1734951061662,,,,,,,,,,,,,542,2023-05-15_09h47.04.442,eb_02psyexp,2022.2.4,99.91609719718393,
180,0,180,0,,,,,,,,,,,,,,,,,,,,,,,,,,,,,,,,,,,,,,,,,,,,,,,,,,,,,,,,,,523.1734951061662,523.1734951061662,523.1734951061662,523.1734951061662,523.1734951061662,523.1734951061662,l,1,0.7992644829209894,523.9839448614512,525.0145350469975,,,,,,,,,,,,,542,2023-05-15_09h47.04.442,eb_02psyexp,2022.2.4,99.91609719718393,
181,0,181,0,,,,,,,,,,,,,,,,,,,,,,,,,,,,,,,,,,,,,,,,,,,,,,,,,,,,,,,,,,525.0145350469975,525.0145350469975,525.0145350469975,525.0145350469975,525.0145350469975,525.0145350469975,s,1,0.622240204247646,525.654968158342,526.6755621412303,,,,,,,,,,,,,542,2023-05-15_09h47.04.442,eb_02psyexp,2022.2.4,99.91609719718393,
182,0,182,0,,,,,,,,,,,,,,,,,,,,,,,,,,,,,,,,,,,,,,,,,,,,,,,,,,,,,,,,,,526.6755621412303,526.6755621412303,526.6755621412303,526.6755621412303,526.6755621412303,526.6755621412303,s,1,0.6812225396279246,527.3759676398477,528.3965752056101,,,,,,,,,,,,,542,2023-05-15_09h47.04.442,eb_02psyexp,2022.2.4,99.91609719718393,
183,0,183,0,,,,,,,,,,,,,,,,,,,,,,,,,,,,,,,,,,,,,,,,,,,,,,,,,,,,,,,,,,528.3965752056101,528.3965752056101,528.3965752056101,528.3965752056101,528.3965752056101,528.3965752056101,l,1,0.5842185934307054,528.9969018623233,530.0275098567363,,,,,,,,,,,,,542,2023-05-15_09h47.04.442,eb_02psyexp,2022.2.4,99.91609719718393,
184,0,184,0,,,,,,,,,,,,,,,,,,,,,,,,,,,,,,,,,,,,,,,,,,,,,,,,,,,,,,,,,,530.0275098567363,530.0275098567363,530.0275098567363,530.0275098567363,530.0275098567363,530.0275098567363,s,1,0.6163243430200964,530.6578851890517,531.6785117711406,,,,,,,,,,,,,542,2023-05-15_09h47.04.442,eb_02psyexp,2022.2.4,99.91609719718393,
185,0,185,0,,,,,,,,,,,,,,,,,,,,,,,,,,,,,,,,,,,,,,,,,,,,,,,,,,,,,,,,,,531.6785117711406,531.6785117711406,531.6785117711406,531.6785117711406,531.6785117711406,531.6785117711406,s,1,1.5893249061191455,533.2794249127619,534.3100461884169,,,,,,,,,,,,,542,2023-05-15_09h47.04.442,eb_02psyexp,2022.2.4,99.91609719718393,
186,0,186,0,,,,,,,,,,,,,,,,,,,,,,,,,,,,,,,,,,,,,,,,,,,,,,,,,,,,,,,,,,534.3100461884169,534.3100461884169,534.3100461884169,534.3100461884169,534.3100461884169,534.3100461884169,l,1,0.6937814069679007,535.0204524174333,536.0510462252423,,,,,,,,,,,,,542,2023-05-15_09h47.04.442,eb_02psyexp,2022.2.4,99.91609719718393,
187,0,187,0,,,,,,,,,,,,,,,,,,,,,,,,,,,,,,,,,,,,,,,,,,,,,,,,,,,,,,,,,,536.0510462252423,536.0510462252423,536.0510462252423,536.0510462252423,536.0510462252423,536.0510462252423,s,1,0.6727853666525334,536.7414857055992,537.7620981008513,,,,,,,,,,,,,542,2023-05-15_09h47.04.442,eb_02psyexp,2022.2.4,99.91609719718393,
188,0,188,0,,,,,,,,,,,,,,,,,,,,,,,,,,,,,,,,,,,,,,,,,,,,,,,,,,,,,,,,,,537.7620981008513,537.7620981008513,537.7620981008513,537.7620981008513,537.7620981008513,537.7620981008513,l,1,0.6657493582461029,538.4424834242091,539.4630541648949,,,,,,,,,,,,,542,2023-05-15_09h47.04.442,eb_02psyexp,2022.2.4,99.91609719718393,
189,0,189,0,,,,,,,,,,,,,,,,,,,,,,,,,,,,,,,,,,,,,,,,,,,,,,,,,,,,,,,,,,539.4630541648949,539.4630541648949,539.4630541648949,539.4630541648949,539.4630541648949,539.4630541648949,l,1,0.5328122670762241,540.0133835080778,541.0440047837328,,,,,,,,,,,,,542,2023-05-15_09h47.04.442,eb_02psyexp,2022.2.4,99.91609719718393,
190,0,190,0,,,,,,,,,,,,,,,,,,,,,,,,,,,,,,,,,,,,,,,,,,,,,,,,,,,,,,,,,,541.0440047837328,541.0440047837328,541.0440047837328,541.0440047837328,541.0440047837328,541.0440047837328,s,1,0.5998795223422348,541.654362053494,542.6849588797195,,,,,,,,,,,,,542,2023-05-15_09h47.04.442,eb_02psyexp,2022.2.4,99.91609719718393,
191,0,191,0,,,,,,,,,,,,,,,,,,,,,,,,,,,,,,,,,,,,,,,,,,,,,,,,,,,,,,,,,,542.6849588797195,542.6849588797195,542.6849588797195,542.6849588797195,542.6849588797195,542.6849588797195,l,1,0.6789170471020043,543.3753769290633,544.4060202393448,,,,,,,,,,,,,542,2023-05-15_09h47.04.442,eb_02psyexp,2022.2.4,99.91609719718393,
192,0,192,0,,,,,,,,,,,,,,,,,,,,,,,,,,,,,,,,,,,,,,,,,,,,,,,,,,,,,,,,,,544.4060202393448,544.4060202393448,544.4060202393448,544.4060202393448,544.4060202393448,544.4060202393448,s,1,0.6778826240915805,545.0963893898297,546.1270330019761,,,,,,,,,,,,,542,2023-05-15_09h47.04.442,eb_02psyexp,2022.2.4,99.91609719718393,
193,0,193,0,,,,,,,,,,,,,,,,,,,,,,,,,,,,,,,,,,,,,,,,,,,,,,,,,,,,,,,,,,546.1270330019761,546.1270330019761,546.1270330019761,546.1270330019761,546.1270330019761,546.1270330019761,s,1,0.6918465801281855,546.8374184038257,547.8680128151318,,,,,,,,,,,,,542,2023-05-15_09h47.04.442,eb_02psyexp,2022.2.4,99.91609719718393,
194,0,194,0,,,,,,,,,,,,,,,,,,,,,,,,,,,,,,,,,,,,,,,,,,,,,,,,,,,,,,,,,,547.8680128151318,547.8680128151318,547.8680128151318,547.8680128151318,547.8680128151318,547.8680128151318,l,1,0.5989202588098124,548.4783845735947,549.5089587613475,,,,,,,,,,,,,542,2023-05-15_09h47.04.442,eb_02psyexp,2022.2.4,99.91609719718393,
195,0,195,0,,,,,,,,,,,,,,,,,,,,,,,,,,,,,,,,,,,,,,,,,,,,,,,,,,,,,,,,,,549.5089587613475,549.5089587613475,549.5089587613475,549.5089587613475,549.5089587613475,549.5089587613475,s,1,0.605977698112838,550.1293394000968,551.1499439474428,,,,,,,,,,,,,542,2023-05-15_09h47.04.442,eb_02psyexp,2022.2.4,99.91609719718393,
196,0,196,0,,,,,,,,,,,,,,,,,,,,,,,,,,,,,,,,,,,,,,,,,,,,,,,,,,,,,,,,,,551.1499439474428,551.1499439474428,551.1499439474428,551.1499439474428,551.1499439474428,551.1499439474428,l,1,0.637007973738946,551.8003445863724,552.8309323571157,,,,,,,,,,,,,542,2023-05-15_09h47.04.442,eb_02psyexp,2022.2.4,99.91609719718393,
197,0,197,0,,,,,,,,,,,,,,,,,,,,,,,,,,,,,,,,,,,,,,,,,,,,,,,,,,,,,,,,,,552.8309323571157,552.8309323571157,552.8309323571157,552.8309323571157,552.8309323571157,552.8309323571157,s,1,0.5639992003561929,553.4112895485014,,,,,,,,,,,,,,542,2023-05-15_09h47.04.442,eb_02psyexp,2022.2.4,99.91609719718393,
198,0,198,0,,,,,,,,,,,,,,,,,,,,,,,,,,,,,,,,,,,,,,,,,,,,,,,,,,,,,,,,,,554.4422033119481,554.4422033119481,554.4422033119481,554.4422033119481,554.4422033119481,554.4422033119481,l,1,1.7208544939057902,556.1729391076369,557.2035108805867,,,,,,,,,,,,,542,2023-05-15_09h47.04.442,eb_02psyexp,2022.2.4,99.91609719718393,
199,0,199,0,,,,,0,0,0,0,,,,,,,,,,,,,,,,,,,,,,,,,,,,,,,,,,,,,,,,,,,,,,,,,,557.2035108805867,557.2035108805867,557.2035108805867,557.2035108805867,557.2035108805867,557.2035108805867,s,1,1.423477346310392,558.6443676617928,559.644967126078,559.644967126078,559.644967126078,space,46.06728025607299,,,,,,,,,542,2023-05-15_09h47.04.442,eb_02psyexp,2022.2.4,99.91609719718393,
199,0,199,0,,,,,,,,,,,,,,,,,,,,,,,,,,,,,,,,,,,,,,,,,,,,,,,,,,,,,,,,,,,,,,,,,,,,,,,,,,,,,,,,,542,2023-05-15_09h47.04.442,eb_02psyexp,2022.2.4,99.91609719718393,
200,0,200,0,,,,,,,,,,,,,,,,,,,,,,,,,,,,,,,,,,,,,,,,,,,,,,,,,,,,,,,,,,605.7523738604505,605.7523738604505,605.7523738604505,605.7523738604505,605.7523738604505,605.7523738604505,l,1,3.9188772276975214,609.6844466485782,610.7150202327175,,,,,,,,,,,,,542,2023-05-15_09h47.04.442,eb_02psyexp,2022.2.4,99.91609719718393,
201,0,201,0,,,,,,,,,,,,,,,,,,,,,,,,,,,,,,,,,,,,,,,,,,,,,,,,,,,,,,,,,,610.7150202327175,610.7150202327175,610.7150202327175,610.7150202327175,610.7150202327175,610.7150202327175,s,1,0.6842400847235695,611.4154604435898,,,,,,,,,,,,,,542,2023-05-15_09h47.04.442,eb_02psyexp,2022.2.4,99.91609719718393,
202,0,202,0,,,,,,,,,,,,,,,,,,,,,,,,,,,,,,,,,,,,,,,,,,,,,,,,,,,,,,,,,,612.4463591147214,612.4463591147214,612.4463591147214,612.4463591147214,612.4463591147214,612.4463591147214,s,1,0.5689286319538951,613.0266933658859,614.0470024069073,,,,,,,,,,,,,542,2023-05-15_09h47.04.442,eb_02psyexp,2022.2.4,99.91609719718393,
203,0,203,0,,,,,,,,,,,,,,,,,,,,,,,,,,,,,,,,,,,,,,,,,,,,,,,,,,,,,,,,,,614.0470024069073,614.0470024069073,614.0470024069073,614.0470024069073,614.0470024069073,614.0470024069073,l,1,0.5762752387672663,614.6373479531612,615.6679354220396,,,,,,,,,,,,,542,2023-05-15_09h47.04.442,eb_02psyexp,2022.2.4,99.91609719718393,
204,0,204,0,,,,,,,,,,,,,,,,,,,,,,,,,,,,,,,,,,,,,,,,,,,,,,,,,,,,,,,,,,615.6679354220396,615.6679354220396,615.6679354220396,615.6679354220396,615.6679354220396,615.6679354220396,s,1,0.5393514382885769,616.2182753297966,617.2488555544987,,,,,,,,,,,,,542,2023-05-15_09h47.04.442,eb_02psyexp,2022.2.4,99.91609719718393,
205,0,205,0,,,,,,,,,,,,,,,,,,,,,,,,,,,,,,,,,,,,,,,,,,,,,,,,,,,,,,,,,,617.2488555544987,617.2488555544987,617.2488555544987,617.2488555544987,617.2488555544987,617.2488555544987,s,1,0.6624396272236481,617.9292825324228,618.9498852686957,,,,,,,,,,,,,542,2023-05-15_09h47.04.442,eb_02psyexp,2022.2.4,99.91609719718393,
206,0,206,0,,,,,,,,,,,,,,,,,,,,,,,,,,,,,,,,,,,,,,,,,,,,,,,,,,,,,,,,,,618.9498852686957,618.9498852686957,618.9498852686957,618.9498852686957,618.9498852686957,618.9498852686957,l,1,0.6494246720103547,619.610282110516,620.6408629388316,,,,,,,,,,,,,542,2023-05-15_09h47.04.442,eb_02psyexp,2022.2.4,99.91609719718393,
207,0,207,0,,,,,,,,,,,,,,,,,,,,,,,,,,,,,,,,,,,,,,,,,,,,,,,,,,,,,,,,,,620.6408629388316,620.6408629388316,620.6408629388316,620.6408629388316,620.6408629388316,620.6408629388316,s,1,0.5264765393221751,621.1811972865835,622.2018000228563,,,,,,,,,,,,,542,2023-05-15_09h47.04.442,eb_02psyexp,2022.2.4,99.91609719718393,
208,0,208,0,,,,,,,,,,,,,,,,,,,,,,,,,,,,,,,,,,,,,,,,,,,,,,,,,,,,,,,,,,622.2018000228563,622.2018000228563,622.2018000228563,622.2018000228563,622.2018000228563,622.2018000228563,l,1,0.620678759762086,622.8421730671544,623.8727720062016,,,,,,,,,,,,,542,2023-05-15_09h47.04.442,eb_02psyexp,2022.2.4,99.91609719718393,
209,0,209,0,,,,,,,,,,,,,,,,,,,,,,,,,,,,,,,,,,,,,,,,,,,,,,,,,,,,,,,,,,623.8727720062016,623.8727720062016,623.8727720062016,623.8727720062016,623.8727720062016,623.8727720062016,s,1,0.5015631536953151,624.3930674642324,,,,,,,,,,,,,,542,2023-05-15_09h47.04.442,eb_02psyexp,2022.2.4,99.91609719718393,
210,0,210,0,,,,,,,,,,,,,,,,,,,,,,,,,,,,,,,,,,,,,,,,,,,,,,,,,,,,,,,,,,625.4136717097135,625.4136717097135,625.4136717097135,625.4136717097135,625.4136717097135,625.4136717097135,l,1,0.6726715710246935,626.104094890412,627.1346775299171,,,,,,,,,,,,,542,2023-05-15_09h47.04.442,eb_02psyexp,2022.2.4,99.91609719718393,
211,0,211,0,,,,,,,,,,,,,,,,,,,,,,,,,,,,,,,,,,,,,,,,,,,,,,,,,,,,,,,,,,627.1346775299171,627.1346775299171,627.1346775299171,627.1346775299171,627.1346775299171,627.1346775299171,s,1,0.5757062608608976,627.725050544017,628.7556374092819,,,,,,,,,,,,,542,2023-05-15_09h47.04.442,eb_02psyexp,2022.2.4,99.91609719718393,
212,0,212,0,,,,,,,,,,,,,,,,,,,,,,,,,,,,,,,,,,,,,,,,,,,,,,,,,,,,,,,,,,628.7556374092819,628.7556374092819,628.7556374092819,628.7556374092819,628.7556374092819,628.7556374092819,l,1,1.362732537672855,630.1365030888701,631.1570596428355,,,,,,,,,,,,,542,2023-05-15_09h47.04.442,eb_02psyexp,2022.2.4,99.91609719718393,
213,0,213,0,,,,,,,,,,,,,,,,,,,,,,,,,,,,,,,,,,,,,,,,,,,,,,,,,,,,,,,,,,631.1570596428355,631.1570596428355,631.1570596428355,631.1570596428355,631.1570596428355,631.1570596428355,s,1,0.6413107749540359,631.8175074963365,632.8480445571477,,,,,,,,,,,,,542,2023-05-15_09h47.04.442,eb_02psyexp,2022.2.4,99.91609719718393,
214,0,214,0,,,,,,,,,,,,,,,,,,,,,,,,,,,,,,,,,,,,,,,,,,,,,,,,,,,,,,,,,,632.8480445571477,632.8480445571477,632.8480445571477,632.8480445571477,632.8480445571477,632.8480445571477,l,1,1.3343461228068918,634.1988500910811,635.2195077631623,,,,,,,,,,,,,542,2023-05-15_09h47.04.442,eb_02psyexp,2022.2.4,99.91609719718393,
215,0,215,0,,,,,,,,,,,,,,,,,,,,,,,,,,,,,,,,,,,,,,,,,,,,,,,,,,,,,,,,,,635.2195077631623,635.2195077631623,635.2195077631623,635.2195077631623,635.2195077631623,635.2195077631623,s,1,1.9388949882704765,637.1706067508785,638.1911883580033,,,,,,,,,,,,,542,2023-05-15_09h47.04.442,eb_02psyexp,2022.2.4,99.91609719718393,
216,0,216,0,,,,,,,,,,,,,,,,,,,,,,,,,,,,,,,,,,,,,,,,,,,,,,,,,,,,,,,,,,638.1911883580033,638.1911883580033,638.1911883580033,638.1911883580033,638.1911883580033,638.1911883580033,l,1,6.262259486014955,644.4648951179115,645.4855087206233,,,,,,,,,,,,,542,2023-05-15_09h47.04.442,eb_02psyexp,2022.2.4,99.91609719718393,
217,0,217,0,,,,,,,,,,,,,,,,,,,,,,,,,,,,,,,,,,,,,,,,,,,,,,,,,,,,,,,,,,645.4855087206233,645.4855087206233,645.4855087206233,645.4855087206233,645.4855087206233,645.4855087206233,s,1,0.6479709862032905,646.1458811128978,647.176474316977,,,,,,,,,,,,,542,2023-05-15_09h47.04.442,eb_02psyexp,2022.2.4,99.91609719718393,
218,0,218,0,,,,,,,,,,,,,,,,,,,,,,,,,,,,,,,,,,,,,,,,,,,,,,,,,,,,,,,,,,647.176474316977,647.176474316977,647.176474316977,647.176474316977,647.176474316977,647.176474316977,l,1,0.6049933813046664,647.7968549556099,648.8174435051624,,,,,,,,,,,,,542,2023-05-15_09h47.04.442,eb_02psyexp,2022.2.4,99.91609719718393,
219,0,219,0,,,,,,,,,,,,,,,,,,,,,,,,,,,,,,,,,,,,,,,,,,,,,,,,,,,,,,,,,,648.8174435051624,648.8174435051624,648.8174435051624,648.8174435051624,648.8174435051624,648.8174435051624,s,1,2.7640388627769426,651.5990893938579,652.6296792775393,,,,,,,,,,,,,542,2023-05-15_09h47.04.442,eb_02psyexp,2022.2.4,99.91609719718393,
220,0,220,0,,,,,,,,,,,,,,,,,,,,,,,,,,,,,,,,,,,,,,,,,,,,,,,,,,,,,,,,,,652.6296792775393,652.6296792775393,652.6296792775393,652.6296792775393,652.6296792775393,652.6296792775393,l,1,1.6158474278636277,654.2606809383724,655.2912626722828,,,,,,,,,,,,,542,2023-05-15_09h47.04.442,eb_02psyexp,2022.2.4,99.91609719718393,
221,0,221,0,,,,,,,,,,,,,,,,,,,,,,,,,,,,,,,,,,,,,,,,,,,,,,,,,,,,,,,,,,655.2912626722828,655.2912626722828,655.2912626722828,655.2912626722828,655.2912626722828,655.2912626722828,s,1,0.7052578579168767,656.011707664351,657.0423017739085,,,,,,,,,,,,,542,2023-05-15_09h47.04.442,eb_02psyexp,2022.2.4,99.91609719718393,
222,0,222,0,,,,,,,,,,,,,,,,,,,,,,,,,,,,,,,,,,,,,,,,,,,,,,,,,,,,,,,,,,657.0423017739085,657.0423017739085,657.0423017739085,657.0423017739085,657.0423017739085,657.0423017739085,l,1,0.6742538429098204,657.732695071958,658.7633012552978,,,,,,,,,,,,,542,2023-05-15_09h47.04.442,eb_02psyexp,2022.2.4,99.91609719718393,
223,0,223,0,,,,,,,,,,,,,,,,,,,,,,,,,,,,,,,,,,,,,,,,,,,,,,,,,,,,,,,,,,658.7633012552978,658.7633012552978,658.7633012552978,658.7633012552978,658.7633012552978,658.7633012552978,s,1,0.625229979516007,659.4037126338808,,,,,,,,,,,,,,542,2023-05-15_09h47.04.442,eb_02psyexp,2022.2.4,99.91609719718393,
224,0,224,0,,,,,,,,,,,,,,,,,,,,,,,,,,,,,,,,,,,,,,,,,,,,,,,,,,,,,,,,,,660.4345883649075,660.4345883649075,660.4345883649075,660.4345883649075,660.4345883649075,660.4345883649075,s,1,0.5939521909458563,661.0449972501956,662.0652260005008,,,,,,,,,,,,,542,2023-05-15_09h47.04.442,eb_02psyexp,2022.2.4,99.91609719718393,
225,0,225,0,,,,,,,,,,,,,,,,,,,,,,,,,,,,,,,,,,,,,,,,,,,,,,,,,,,,,,,,,,662.0652260005008,662.0652260005008,662.0652260005008,662.0652260005008,662.0652260005008,662.0652260005008,l,1,0.5233261823887005,662.6055796663277,663.6361668334575,,,,,,,,,,,,,542,2023-05-15_09h47.04.442,eb_02psyexp,2022.2.4,99.91609719718393,
226,0,226,0,,,,,,,,,,,,,,,,,,,,,,,,,,,,,,,,,,,,,,,,,,,,,,,,,,,,,,,,,,663.6361668334575,663.6361668334575,663.6361668334575,663.6361668334575,663.6361668334575,663.6361668334575,s,1,0.6084105692571029,664.2565486795502,665.2771136851516,,,,,,,,,,,,,542,2023-05-15_09h47.04.442,eb_02psyexp,2022.2.4,99.91609719718393,
227,0,227,0,,,,,,,,,,,,,,,,,,,,,,,,,,,,,,,,,,,,,,,,,,,,,,,,,,,,,,,,,,665.2771136851516,665.2771136851516,665.2771136851516,665.2771136851516,665.2771136851516,665.2771136851516,l,1,0.55945431930013,665.847463505459,666.8780521817971,,,,,,,,,,,,,542,2023-05-15_09h47.04.442,eb_02psyexp,2022.2.4,99.91609719718393,
228,0,228,0,,,,,,,,,,,,,,,,,,,,,,,,,,,,,,,,,,,,,,,,,,,,,,,,,,,,,,,,,,666.8780521817971,666.8780521817971,666.8780521817971,666.8780521817971,666.8780521817971,666.8780521817971,s,1,0.6225508028874174,667.5184463552432,668.5490353334462,,,,,,,,,,,,,542,2023-05-15_09h47.04.442,eb_02psyexp,2022.2.4,99.91609719718393,
229,0,229,0,,,,,,,,,,,,,,,,,,,,,,,,,,,,,,,,,,,,,,,,,,,,,,,,,,,,,,,,,,668.5490353334462,668.5490353334462,668.5490353334462,668.5490353334462,668.5490353334462,668.5490353334462,l,1,1.9745966179762036,670.5402220614487,671.5708092285786,,,,,,,,,,,,,542,2023-05-15_09h47.04.442,eb_02psyexp,2022.2.4,99.91609719718393,
230,0,230,0,,,,,,,,,,,,,,,,,,,,,,,,,,,,,,,,,,,,,,,,,,,,,,,,,,,,,,,,,,671.5708092285786,671.5708092285786,671.5708092285786,671.5708092285786,671.5708092285786,671.5708092285786,s,1,0.5287968221819028,672.1111435762141,673.1417443264509,,,,,,,,,,,,,542,2023-05-15_09h47.04.442,eb_02psyexp,2022.2.4,99.91609719718393,
231,0,231,0,,,,,,,,,,,,,,,,,,,,,,,,,,,,,,,,,,,,,,,,,,,,,,,,,,,,,,,,,,673.1417443264509,673.1417443264509,673.1417443264509,673.1417443264509,673.1417443264509,673.1417443264509,l,1,0.677868437487632,673.8321551315021,674.8627706720727,,,,,,,,,,,,,542,2023-05-15_09h47.04.442,eb_02psyexp,2022.2.4,99.91609719718393,
232,0,232,0,,,,,,,,,,,,,,,,,,,,,,,,,,,,,,,,,,,,,,,,,,,,,,,,,,,,,,,,,,674.8627706720727,674.8627706720727,674.8627706720727,674.8627706720727,674.8627706720727,674.8627706720727,s,1,0.652855442953296,675.5331516427686,676.5637451485964,,,,,,,,,,,,,542,2023-05-15_09h47.04.442,eb_02psyexp,2022.2.4,99.91609719718393,
233,0,233,0,,,,,,,,,,,,,,,,,,,,,,,,,,,,,,,,,,,,,,,,,,,,,,,,,,,,,,,,,,676.5637451485964,676.5637451485964,676.5637451485964,676.5637451485964,676.5637451485964,676.5637451485964,l,1,0.5358865589369088,677.1140823398018,678.144681278849,,,,,,,,,,,,,542,2023-05-15_09h47.04.442,eb_02psyexp,2022.2.4,99.91609719718393,
234,0,234,0,,,,,,,,,,,,,,,,,,,,,,,,,,,,,,,,,,,,,,,,,,,,,,,,,,,,,,,,,,678.144681278849,678.144681278849,678.144681278849,678.144681278849,678.144681278849,678.144681278849,s,1,3.1710165545810014,681.326557414839,682.3471420404967,,,,,,,,,,,,,542,2023-05-15_09h47.04.442,eb_02psyexp,2022.2.4,99.91609719718393,
235,0,235,0,,,,,,,,,,,,,,,,,,,,,,,,,,,,,,,,,,,,,,,,,,,,,,,,,,,,,,,,,,682.3471420404967,682.3471420404967,682.3471420404967,682.3471420404967,682.3471420404967,682.3471420404967,l,1,0.592530500725843,682.957516817376,683.9881214915076,,,,,,,,,,,,,542,2023-05-15_09h47.04.442,eb_02psyexp,2022.2.4,99.91609719718393,
236,0,236,0,,,,,,,,,,,,,,,,,,,,,,,,,,,,,,,,,,,,,,,,,,,,,,,,,,,,,,,,,,683.9881214915076,683.9881214915076,683.9881214915076,683.9881214915076,683.9881214915076,683.9881214915076,s,1,0.895553961978294,684.8986555217998,685.9192395437276,,,,,,,,,,,,,542,2023-05-15_09h47.04.442,eb_02psyexp,2022.2.4,99.91609719718393,
237,0,237,0,,,,,,,,,,,,,,,,,,,,,,,,,,,,,,,,,,,,,,,,,,,,,,,,,,,,,,,,,,685.9192395437276,685.9192395437276,685.9192395437276,685.9192395437276,685.9192395437276,685.9192395437276,l,1,1.4754487266764045,687.4101214081747,688.4407215545652,,,,,,,,,,,,,542,2023-05-15_09h47.04.442,eb_02psyexp,2022.2.4,99.91609719718393,
238,0,238,0,,,,,,,,,,,,,,,,,,,,,,,,,,,,,,,,,,,,,,,,,,,,,,,,,,,,,,,,,,688.4407215545652,688.4407215545652,688.4407215545652,688.4407215545652,688.4407215545652,688.4407215545652,s,1,0.5460007832152769,689.001063400181,690.0216776066227,,,,,,,,,,,,,542,2023-05-15_09h47.04.442,eb_02psyexp,2022.2.4,99.91609719718393,
239,0,239,0,,,,,,,,,,,,,,,,,,,,,,,,,,,,,,,,,,,,,,,,,,,,,,,,,,,,,,,,,,690.0216776066227,690.0216776066227,690.0216776066227,690.0216776066227,690.0216776066227,690.0216776066227,l,1,0.4930327106267214,690.5319463755004,691.5526164232288,,,,,,,,,,,,,542,2023-05-15_09h47.04.442,eb_02psyexp,2022.2.4,99.91609719718393,
240,0,240,0,,,,,,,,,,,,,,,,,,,,,,,,,,,,,,,,,,,,,,,,,,,,,,,,,,,,,,,,,,691.5526164232288,691.5526164232288,691.5526164232288,691.5526164232288,691.5526164232288,691.5526164232288,l,1,0.770099307759665,692.3330232378794,693.3536431792891,,,,,,,,,,,,,542,2023-05-15_09h47.04.442,eb_02psyexp,2022.2.4,99.91609719718393,
241,0,241,0,,,,,,,,,,,,,,,,,,,,,,,,,,,,,,,,,,,,,,,,,,,,,,,,,,,,,,,,,,693.3536431792891,693.3536431792891,693.3536431792891,693.3536431792891,693.3536431792891,693.3536431792891,l,1,0.6170843887375668,693.9839901381638,695.0145978307119,,,,,,,,,,,,,542,2023-05-15_09h47.04.442,eb_02psyexp,2022.2.4,99.91609719718393,
242,0,242,0,,,,,,,,,,,,,,,,,,,,,,,,,,,,,,,,,,,,,,,,,,,,,,,,,,,,,,,,,,695.0145978307119,695.0145978307119,695.0145978307119,695.0145978307119,695.0145978307119,695.0145978307119,s,1,0.43615725368727,695.4648471245309,696.4954650799045,,,,,,,,,,,,,542,2023-05-15_09h47.04.442,eb_02psyexp,2022.2.4,99.91609719718393,
243,0,243,0,,,,,,,,,,,,,,,,,,,,,,,,,,,,,,,,,,,,,,,,,,,,,,,,,,,,,,,,,,696.4954650799045,696.4954650799045,696.4954650799045,696.4954650799045,696.4954650799045,696.4954650799045,l,1,0.5392823158763349,697.0457908009412,698.0763767606113,,,,,,,,,,,,,542,2023-05-15_09h47.04.442,eb_02psyexp,2022.2.4,99.91609719718393,
244,0,244,0,,,,,,,,,,,,,,,,,,,,,,,,,,,,,,,,,,,,,,,,,,,,,,,,,,,,,,,,,,698.0763767606113,698.0763767606113,698.0763767606113,698.0763767606113,698.0763767606113,698.0763767606113,s,1,0.6863768459297717,698.7768302526092,699.8073944795178,,,,,,,,,,,,,542,2023-05-15_09h47.04.442,eb_02psyexp,2022.2.4,99.91609719718393,
245,0,245,0,,,,,,,,,,,,,,,,,,,,,,,,,,,,,,,,,,,,,,,,,,,,,,,,,,,,,,,,,,699.8073944795178,699.8073944795178,699.8073944795178,699.8073944795178,699.8073944795178,699.8073944795178,l,1,0.3473785851383582,700.1676064110361,701.188197979005,,,,,,,,,,,,,542,2023-05-15_09h47.04.442,eb_02psyexp,2022.2.4,99.91609719718393,
246,0,246,0,,,,,,,,,,,,,,,,,,,,,,,,,,,,,,,,,,,,,,,,,,,,,,,,,,,,,,,,,,701.188197979005,701.188197979005,701.188197979005,701.188197979005,701.188197979005,701.188197979005,s,1,0.6936295789200813,701.8989615926985,702.9192217348609,,,,,,,,,,,,,542,2023-05-15_09h47.04.442,eb_02psyexp,2022.2.4,99.91609719718393,
247,0,247,0,,,,,,,,,,,,,,,,,,,,,,,,,,,,,,,,,,,,,,,,,,,,,,,,,,,,,,,,,,702.9192217348609,702.9192217348609,702.9192217348609,702.9192217348609,702.9192217348609,702.9192217348609,l,1,0.9705579311121255,703.8998133994173,704.9304008684121,,,,,,,,,,,,,542,2023-05-15_09h47.04.442,eb_02psyexp,2022.2.4,99.91609719718393,
248,0,248,0,,,,,,,,,,,,,,,,,,,,,,,,,,,,,,,,,,,,,,,,,,,,,,,,,,,,,,,,,,704.9304008684121,704.9304008684121,704.9304008684121,704.9304008684121,704.9304008684121,704.9304008684121,s,1,4.279436582815833,709.222955739242,710.2535244938917,,,,,,,,,,,,,542,2023-05-15_09h47.04.442,eb_02psyexp,2022.2.4,99.91609719718393,
249,0,249,0,,,,,,,,,,,,,,,,,,,,,,,,,,,,,,,,,,,,,,,,,,,,,,,,,,,,,,,,,,710.2535244938917,710.2535244938917,710.2535244938917,710.2535244938917,710.2535244938917,710.2535244938917,s,1,3.6203434098279104,713.88567558059,714.9162696901476,,,,,,,,,,,,,542,2023-05-15_09h47.04.442,eb_02psyexp,2022.2.4,99.91609719718393,
250,0,250,0,,,,,,,,,,,,,,,,,,,,,,,,,,,,,,,,,,,,,,,,,,,,,,,,,,,,,,,,,,714.9162696901476,714.9162696901476,714.9162696901476,714.9162696901476,714.9162696901476,714.9162696901476,s,1,0.6615769540658221,715.5966749351937,716.6172574479133,,,,,,,,,,,,,542,2023-05-15_09h47.04.442,eb_02psyexp,2022.2.4,99.91609719718393,
251,0,251,0,,,,,,,,,,,,,,,,,,,,,,,,,,,,,,,,,,,,,,,,,,,,,,,,,,,,,,,,,,716.6172574479133,716.6172574479133,716.6172574479133,716.6172574479133,716.6172574479133,716.6172574479133,l,1,1.1516033896477893,717.7879961050348,718.8185467488365,,,,,,,,,,,,,542,2023-05-15_09h47.04.442,eb_02psyexp,2022.2.4,99.91609719718393,
252,0,252,0,,,,,,,,,,,,,,,,,,,,,,,,,,,,,,,,,,,,,,,,,,,,,,,,,,,,,,,,,,718.8185467488365,718.8185467488365,718.8185467488365,718.8185467488365,718.8185467488365,718.8185467488365,s,1,0.6223253245698288,719.4589448462939,720.4795231331373,,,,,,,,,,,,,542,2023-05-15_09h47.04.442,eb_02psyexp,2022.2.4,99.91609719718393,
253,0,253,0,,,,,,,,,,,,,,,,,,,,,,,,,,,,,,,,,,,,,,,,,,,,,,,,,,,,,,,,,,720.4795231331373,720.4795231331373,720.4795231331373,720.4795231331373,720.4795231331373,720.4795231331373,l,1,0.577386028598994,721.0698822623817,722.1004920678679,,,,,,,,,,,,,542,2023-05-15_09h47.04.442,eb_02psyexp,2022.2.4,99.91609719718393,
254,0,254,0,,,,,,,,,,,,,,,,,,,,,,,,,,,,,,,,,,,,,,,,,,,,,,,,,,,,,,,,,,722.1004920678679,722.1004920678679,722.1004920678679,722.1004920678679,722.1004920678679,722.1004920678679,s,1,2.9484338958282024,725.0622265661368,726.0828090788564,,,,,,,,,,,,,542,2023-05-15_09h47.04.442,eb_02psyexp,2022.2.4,99.91609719718393,
255,0,255,0,,,,,,,,,,,,,,,,,,,,,,,,,,,,,,,,,,,,,,,,,,,,,,,,,,,,,,,,,,726.0828090788564,726.0828090788564,726.0828090788564,726.0828090788564,726.0828090788564,726.0828090788564,l,1,0.6221061849500984,726.7231987245614,727.7538003802765,,,,,,,,,,,,,542,2023-05-15_09h47.04.442,eb_02psyexp,2022.2.4,99.91609719718393,
256,0,256,0,,,,,,,,,,,,,,,,,,,,,,,,,,,,,,,,,,,,,,,,,,,,,,,,,,,,,,,,,,727.7538003802765,727.7538003802765,727.7538003802765,727.7538003802765,727.7538003802765,727.7538003802765,s,1,0.6471212923061103,728.4141926943557,,,,,,,,,,,,,,542,2023-05-15_09h47.04.442,eb_02psyexp,2022.2.4,99.91609719718393,
257,0,257,0,,,,,,,,,,,,,,,,,,,,,,,,,,,,,,,,,,,,,,,,,,,,,,,,,,,,,,,,,,729.4347758106887,729.4347758106887,729.4347758106887,729.4347758106887,729.4347758106887,729.4347758106887,l,1,0.6141561899567023,730.0654849834973,731.0957494783215,,,,,,,,,,,,,542,2023-05-15_09h47.04.442,eb_02psyexp,2022.2.4,99.91609719718393,
258,0,258,0,,,,,,,,,,,,,,,,,,,,,,,,,,,,,,,,,,,,,,,,,,,,,,,,,,,,,,,,,,731.0957494783215,731.0957494783215,731.0957494783215,731.0957494783215,731.0957494783215,731.0957494783215,s,1,0.6091899331659079,731.7161307206843,732.8067717731465,,,,,,,,,,,,,542,2023-05-15_09h47.04.442,eb_02psyexp,2022.2.4,99.91609719718393,
259,0,259,0,,,,,,,,,,,,,,,,,,,,,,,,,,,,,,,,,,,,,,,,,,,,,,,,,,,,,,,,,,732.8067717731465,732.8067717731465,732.8067717731465,732.8067717731465,732.8067717731465,732.8067717731465,l,1,0.5931779583916068,733.4171257227426,,,,,,,,,,,,,,542,2023-05-15_09h47.04.442,eb_02psyexp,2022.2.4,99.91609719718393,
260,0,260,0,,,,,,,,,,,,,,,,,,,,,,,,,,,,,,,,,,,,,,,,,,,,,,,,,,,,,,,,,,734.4380312096328,734.4380312096328,734.4380312096328,734.4380312096328,734.4380312096328,734.4380312096328,l,1,3.78598752617836,738.2399538418977,739.2605360527523,,,,,,,,,,,,,542,2023-05-15_09h47.04.442,eb_02psyexp,2022.2.4,99.91609719718393,
261,0,261,0,,,,,,,,,,,,,,,,,,,,,,,,,,,,,,,,,,,,,,,,,,,,,,,,,,,,,,,,,,739.2605360527523,739.2605360527523,739.2605360527523,739.2605360527523,739.2605360527523,739.2605360527523,l,1,1.0034605517284945,740.2811810473213,741.3117362188641,,,,,,,,,,,,,542,2023-05-15_09h47.04.442,eb_02psyexp,2022.2.4,99.91609719718393,
262,0,262,0,,,,,,,,,,,,,,,,,,,,,,,,,,,,,,,,,,,,,,,,,,,,,,,,,,,,,,,,,,741.3117362188641,741.3117362188641,741.3117362188641,741.3117362188641,741.3117362188641,741.3117362188641,s,1,0.7042626747861505,742.0321745703695,743.0527579885675,,,,,,,,,,,,,542,2023-05-15_09h47.04.442,eb_02psyexp,2022.2.4,99.91609719718393,
263,0,263,0,,,,,,,,,,,,,,,,,,,,,,,,,,,,,,,,,,,,,,,,,,,,,,,,,,,,,,,,,,743.0527579885675,743.0527579885675,743.0527579885675,743.0527579885675,743.0527579885675,743.0527579885675,l,1,1.5313072674907744,744.6036840793677,745.6242656864924,,,,,,,,,,,,,542,2023-05-15_09h47.04.442,eb_02psyexp,2022.2.4,99.91609719718393,
264,0,264,0,,,,,,,,,,,,,,,,,,,,,,,,,,,,,,,,,,,,,,,,,,,,,,,,,,,,,,,,,,745.6242656864924,745.6242656864924,745.6242656864924,745.6242656864924,745.6242656864924,745.6242656864924,s,1,0.5197773900581524,746.1545917575713,747.1751781943021,,,,,,,,,,,,,542,2023-05-15_09h47.04.442,eb_02psyexp,2022.2.4,99.91609719718393,
265,0,265,0,,,,,,,,,,,,,,,,,,,,,,,,,,,,,,,,,,,,,,,,,,,,,,,,,,,,,,,,,,747.1751781943021,747.1751781943021,747.1751781943021,747.1751781943021,747.1751781943021,747.1751781943021,l,1,0.5688519632676616,747.7555495724082,748.7761354052927,,,,,,,,,,,,,542,2023-05-15_09h47.04.442,eb_02psyexp,2022.2.4,99.91609719718393,
266,0,266,0,,,,,,,,,,,,,,,,,,,,,,,,,,,,,,,,,,,,,,,,,,,,,,,,,,,,,,,,,,748.7761354052927,748.7761354052927,748.7761354052927,748.7761354052927,748.7761354052927,748.7761354052927,s,1,0.5268976131919771,749.3164456054801,750.3473512190394,,,,,,,,,,,,,542,2023-05-15_09h47.04.442,eb_02psyexp,2022.2.4,99.91609719718393,
267,0,267,0,,,,,,,,,,,,,,,,,,,,,,,,,,,,,,,,,,,,,,,,,,,,,,,,,,,,,,,,,,750.3473512190394,750.3473512190394,750.3473512190394,750.3473512190394,750.3473512190394,750.3473512190394,l,1,0.6836988765280694,751.0477814690676,752.0680669661378,,,,,,,,,,,,,542,2023-05-15_09h47.04.442,eb_02psyexp,2022.2.4,99.91609719718393,
268,0,268,0,,,,,,,,,,,,,,,,,,,,,,,,,,,,,,,,,,,,,,,,,,,,,,,,,,,,,,,,,,752.0680669661378,752.0680669661378,752.0680669661378,752.0680669661378,752.0680669661378,752.0680669661378,s,1,0.611016095848754,752.6984275080031,753.729016788071,,,,,,,,,,,,,542,2023-05-15_09h47.04.442,eb_02psyexp,2022.2.4,99.91609719718393,
269,0,269,0,,,,,,,,,,,,,,,,,,,,,,,,,,,,,,,,,,,,,,,,,,,,,,,,,,,,,,,,,,753.729016788071,753.729016788071,753.729016788071,753.729016788071,753.729016788071,753.729016788071,l,1,8.9341086311033,762.6742741683265,763.7048619390698,,,,,,,,,,,,,542,2023-05-15_09h47.04.442,eb_02psyexp,2022.2.4,99.91609719718393,
270,0,270,0,,,,,,,,,,,,,,,,,,,,,,,,,,,,,,,,,,,,,,,,,,,,,,,,,,,,,,,,,,763.7048619390698,763.7048619390698,763.7048619390698,763.7048619390698,763.7048619390698,763.7048619390698,s,1,0.6212730926927179,764.345269091893,765.3761647446081,,,,,,,,,,,,,542,2023-05-15_09h47.04.442,eb_02psyexp,2022.2.4,99.91609719718393,
271,0,271,0,,,,,,,,,,,,,,,,,,,,,,,,,,,,,,,,,,,,,,,,,,,,,,,,,,,,,,,,,,765.3761647446081,765.3761647446081,765.3761647446081,765.3761647446081,765.3761647446081,765.3761647446081,l,1,5.366013593506068,770.7590093204053,771.7895989023382,,,,,,,,,,,,,542,2023-05-15_09h47.04.442,eb_02psyexp,2022.2.4,99.91609719718393,
272,0,272,0,,,,,,,,,,,,,,,,,,,,,,,,,,,,,,,,,,,,,,,,,,,,,,,,,,,,,,,,,,771.7895989023382,771.7895989023382,771.7895989023382,771.7895989023382,771.7895989023382,771.7895989023382,s,1,0.6645908768987283,772.47001380648,773.5005885978462,,,,,,,,,,,,,542,2023-05-15_09h47.04.442,eb_02psyexp,2022.2.4,99.91609719718393,
273,0,273,0,,,,,,,,,,,,,,,,,,,,,,,,,,,,,,,,,,,,,,,,,,,,,,,,,,,,,,,,,,773.5005885978462,773.5005885978462,773.5005885978462,773.5005885978462,773.5005885978462,773.5005885978462,s,1,0.6735888781258836,774.1910235505784,775.2216412040871,,,,,,,,,,,,,542,2023-05-15_09h47.04.442,eb_02psyexp,2022.2.4,99.91609719718393,
274,0,274,0,,,,,,,,,,,,,,,,,,,,,,,,,,,,,,,,,,,,,,,,,,,,,,,,,,,,,,,,,,775.2216412040871,775.2216412040871,775.2216412040871,775.2216412040871,775.2216412040871,775.2216412040871,s,1,1.8565561840077862,777.0927225759951,778.1233462664532,,,,,,,,,,,,,542,2023-05-15_09h47.04.442,eb_02psyexp,2022.2.4,99.91609719718393,
275,0,275,0,,,,,,,,,,,,,,,,,,,,,,,,,,,,,,,,,,,,,,,,,,,,,,,,,,,,,,,,,,778.1233462664532,778.1233462664532,778.1233462664532,778.1233462664532,778.1233462664532,778.1233462664532,l,1,0.5468791523016989,778.6836524942191,779.7042350069387,,,,,,,,,,,,,542,2023-05-15_09h47.04.442,eb_02psyexp,2022.2.4,99.91609719718393,
276,0,276,0,,,,,,,,,,,,,,,,,,,,,,,,,,,,,,,,,,,,,,,,,,,,,,,,,,,,,,,,,,779.7042350069387,779.7042350069387,779.7042350069387,779.7042350069387,779.7042350069387,779.7042350069387,s,1,1.5811138150747865,781.2951923930086,782.3257714103675,,,,,,,,,,,,,542,2023-05-15_09h47.04.442,eb_02psyexp,2022.2.4,99.91609719718393,
277,0,277,0,,,,,,,,,,,,,,,,,,,,,,,,,,,,,,,,,,,,,,,,,,,,,,,,,,,,,,,,,,782.3257714103675,782.3257714103675,782.3257714103675,782.3257714103675,782.3257714103675,782.3257714103675,l,1,0.7034594650613144,783.046230891021,784.0667895579245,,,,,,,,,,,,,542,2023-05-15_09h47.04.442,eb_02psyexp,2022.2.4,99.91609719718393,
278,0,278,0,,,,,,,,,,,,,,,,,,,,,,,,,,,,,,,,,,,,,,,,,,,,,,,,,,,,,,,,,,784.0667895579245,784.0667895579245,784.0667895579245,784.0667895579245,784.0667895579245,784.0667895579245,s,1,3.0824690994340926,787.168624836253,788.1992120033829,,,,,,,,,,,,,542,2023-05-15_09h47.04.442,eb_02psyexp,2022.2.4,99.91609719718393,
279,0,279,0,,,,,,,,,,,,,,,,,,,,,,,,,,,,,,,,,,,,,,,,,,,,,,,,,,,,,,,,,,788.1992120033829,788.1992120033829,788.1992120033829,788.1992120033829,788.1992120033829,788.1992120033829,l,1,0.8700444323476404,789.0797438422451,790.1103461015737,,,,,,,,,,,,,542,2023-05-15_09h47.04.442,eb_02psyexp,2022.2.4,99.91609719718393,
280,0,280,0,,,,,,,,,,,,,,,,,,,,,,,,,,,,,,,,,,,,,,,,,,,,,,,,,,,,,,,,,,790.1103461015737,790.1103461015737,790.1103461015737,790.1103461015737,790.1103461015737,790.1103461015737,s,1,0.6229281091364101,790.7507206550799,791.781312048086,,,,,,,,,,,,,542,2023-05-15_09h47.04.442,eb_02psyexp,2022.2.4,99.91609719718393,
281,0,281,0,,,,,,,,,,,,,,,,,,,,,,,,,,,,,,,,,,,,,,,,,,,,,,,,,,,,,,,,,,791.781312048086,791.781312048086,791.781312048086,791.781312048086,791.781312048086,791.781312048086,s,1,1.1919733551330864,792.9920334033668,794.0126156142214,,,,,,,,,,,,,542,2023-05-15_09h47.04.442,eb_02psyexp,2022.2.4,99.91609719718393,
282,0,282,0,,,,,,,,,,,,,,,,,,,,,,,,,,,,,,,,,,,,,,,,,,,,,,,,,,,,,,,,,,794.0126156142214,794.0126156142214,794.0126156142214,794.0126156142214,794.0126156142214,794.0126156142214,l,1,0.6247092968551442,794.6530073728645,795.683593634516,,,,,,,,,,,,,542,2023-05-15_09h47.04.442,eb_02psyexp,2022.2.4,99.91609719718393,
283,0,283,0,,,,,,,,,,,,,,,,,,,,,,,,,,,,,,,,,,,,,,,,,,,,,,,,,,,,,,,,,,795.683593634516,795.683593634516,795.683593634516,795.683593634516,795.683593634516,795.683593634516,s,1,0.5847232782980427,796.2839320631465,,,,,,,,,,,,,,542,2023-05-15_09h47.04.442,eb_02psyexp,2022.2.4,99.91609719718393,
284,0,284,0,,,,,,,,,,,,,,,,,,,,,,,,,,,,,,,,,,,,,,,,,,,,,,,,,,,,,,,,,,797.3148714834824,797.3148714834824,797.3148714834824,797.3148714834824,797.3148714834824,797.3148714834824,l,1,2.697456370573491,800.0261515540769,801.0567390229553,,,,,,,,,,,,,542,2023-05-15_09h47.04.442,eb_02psyexp,2022.2.4,99.91609719718393,
285,0,285,0,,,,,,,,,,,,,,,,,,,,,,,,,,,,,,,,,,,,,,,,,,,,,,,,,,,,,,,,,,801.0567390229553,801.0567390229553,801.0567390229553,801.0567390229553,801.0567390229553,801.0567390229553,s,1,1.763606620603241,802.8378005395643,803.8683961584466,,,,,,,,,,,,,542,2023-05-15_09h47.04.442,eb_02psyexp,2022.2.4,99.91609719718393,
286,0,286,0,,,,,,,,,,,,,,,,,,,,,,,,,,,,,,,,,,,,,,,,,,,,,,,,,,,,,,,,,,803.8683961584466,803.8683961584466,803.8683961584466,803.8683961584466,803.8683961584466,803.8683961584466,s,1,0.5759413981577381,804.4587483451469,805.4793341781478,,,,,,,,,,,,,542,2023-05-15_09h47.04.442,eb_02psyexp,2022.2.4,99.91609719718393,
287,0,287,0,,,,,,,,,,,,,,,,,,,,,,,,,,,,,,,,,,,,,,,,,,,,,,,,,,,,,,,,,,805.4793341781478,805.4793341781478,805.4793341781478,805.4793341781478,805.4793341781478,805.4793341781478,l,1,0.42902495665475726,805.9196020595264,806.940184270381,,,,,,,,,,,,,542,2023-05-15_09h47.04.442,eb_02psyexp,2022.2.4,99.91609719718393,
288,0,288,0,,,,,,,,,,,,,,,,,,,,,,,,,,,,,,,,,,,,,,,,,,,,,,,,,,,,,,,,,,806.940184270381,806.940184270381,806.940184270381,806.940184270381,806.940184270381,806.940184270381,s,1,0.5521880032029003,807.5105359017616,808.5411399722798,,,,,,,,,,,,,542,2023-05-15_09h47.04.442,eb_02psyexp,2022.2.4,99.91609719718393,
289,0,289,0,,,,,,,,,,,,,,,,,,,,,,,,,,,,,,,,,,,,,,,,,,,,,,,,,,,,,,,,,,808.5411399722798,808.5411399722798,808.5411399722798,808.5411399722798,808.5411399722798,808.5411399722798,l,1,0.7112473694141954,809.2715781485895,810.292147380067,,,,,,,,,,,,,542,2023-05-15_09h47.04.442,eb_02psyexp,2022.2.4,99.91609719718393,
290,0,290,0,,,,,,,,,,,,,,,,,,,,,,,,,,,,,,,,,,,,,,,,,,,,,,,,,,,,,,,,,,810.292147380067,810.292147380067,810.292147380067,810.292147380067,810.292147380067,810.292147380067,s,1,0.6072472584201023,810.9125735973939,811.9431145822164,,,,,,,,,,,,,542,2023-05-15_09h47.04.442,eb_02psyexp,2022.2.4,99.91609719718393,
291,0,291,0,,,,,,,,,,,,,,,,,,,,,,,,,,,,,,,,,,,,,,,,,,,,,,,,,,,,,,,,,,811.9431145822164,811.9431145822164,811.9431145822164,811.9431145822164,811.9431145822164,811.9431145822164,l,1,0.6443313385825604,812.6035283273086,813.6341167017817,,,,,,,,,,,,,542,2023-05-15_09h47.04.442,eb_02psyexp,2022.2.4,99.91609719718393,
292,0,292,0,,,,,,,,,,,,,,,,,,,,,,,,,,,,,,,,,,,,,,,,,,,,,,,,,,,,,,,,,,813.6341167017817,813.6341167017817,813.6341167017817,813.6341167017817,813.6341167017817,813.6341167017817,s,1,0.6652935722377151,814.3145361335482,815.345104888198,,,,,,,,,,,,,542,2023-05-15_09h47.04.442,eb_02psyexp,2022.2.4,99.91609719718393,
293,0,293,0,,,,,,,,,,,,,,,,,,,,,,,,,,,,,,,,,,,,,,,,,,,,,,,,,,,,,,,,,,815.345104888198,815.345104888198,815.345104888198,815.345104888198,815.345104888198,815.345104888198,l,1,0.5223457895917818,815.885446781991,816.9160417971434,,,,,,,,,,,,,542,2023-05-15_09h47.04.442,eb_02psyexp,2022.2.4,99.91609719718393,
294,0,294,0,,,,,,,,,,,,,,,,,,,,,,,,,,,,,,,,,,,,,,,,,,,,,,,,,,,,,,,,,,816.9160417971434,816.9160417971434,816.9160417971434,816.9160417971434,816.9160417971434,816.9160417971434,s,1,0.6393961717840284,817.5664164774353,818.597009983263,,,,,,,,,,,,,542,2023-05-15_09h47.04.442,eb_02psyexp,2022.2.4,99.91609719718393,
295,0,295,0,,,,,,,,,,,,,,,,,,,,,,,,,,,,,,,,,,,,,,,,,,,,,,,,,,,,,,,,,,818.597009983263,818.597009983263,818.597009983263,818.597009983263,818.597009983263,818.597009983263,l,0,1.2064486367162317,819.81774142629,820.8383411441464,,,,,,,,,,,,,542,2023-05-15_09h47.04.442,eb_02psyexp,2022.2.4,99.91609719718393,
296,0,296,0,,,,,,,,,,,,,,,,,,,,,,,,,,,,,,,,,,,,,,,,,,,,,,,,,,,,,,,,,,820.8383411441464,820.8383411441464,820.8383411441464,820.8383411441464,820.8383411441464,820.8383411441464,l,1,3.789153578924015,824.6405997299589,825.6611915997928,,,,,,,,,,,,,542,2023-05-15_09h47.04.442,eb_02psyexp,2022.2.4,99.91609719718393,
297,0,297,0,,,,,,,,,,,,,,,,,,,,,,,,,,,,,,,,,,,,,,,,,,,,,,,,,,,,,,,,,,825.6611915997928,825.6611915997928,825.6611915997928,825.6611915997928,825.6611915997928,825.6611915997928,l,1,0.6693120355485007,826.3415760175558,827.3621404195437,,,,,,,,,,,,,542,2023-05-15_09h47.04.442,eb_02psyexp,2022.2.4,99.91609719718393,
298,0,298,0,,,,,,,,,,,,,,,,,,,,,,,,,,,,,,,,,,,,,,,,,,,,,,,,,,,,,,,,,,827.3621404195437,827.3621404195437,827.3621404195437,827.3621404195437,827.3621404195437,827.3621404195437,l,1,0.5363462690729648,827.9124782143626,828.9430641741492,,,,,,,,,,,,,542,2023-05-15_09h47.04.442,eb_02psyexp,2022.2.4,99.91609719718393,
299,0,299,0,,,,,,,,,,,,,,,,,,,,,,,,,,,,,,,,,,,,,,,,,,,,,,,,,,,,,,,,,,828.9430641741492,828.9430641741492,828.9430641741492,828.9430641741492,828.9430641741492,828.9430641741492,s,1,0.9154627565294504,829.873642225517,830.8942069292534,,,,,,,,,,,,,542,2023-05-15_09h47.04.442,eb_02psyexp,2022.2.4,99.91609719718393,
300,0,300,0,,,,,,,,,,,,,,,,,,,,,,,,,,,,,,,,,,,,,,,,,,,,,,,,,,,,,,,,,,830.8942069292534,830.8942069292534,830.8942069292534,830.8942069292534,830.8942069292534,830.8942069292534,l,1,0.7403265186585486,831.644670714275,832.6752494296525,,,,,,,,,,,,,542,2023-05-15_09h47.04.442,eb_02psyexp,2022.2.4,99.91609719718393,
301,0,301,0,,,,,,,,,,,,,,,,,,,,,,,,,,,,,,,,,,,,,,,,,,,,,,,,,,,,,,,,,,832.6752494296525,832.6752494296525,832.6752494296525,832.6752494296525,832.6752494296525,832.6752494296525,s,1,3.0072828157572076,835.6970302672125,836.717642964446,,,,,,,,,,,,,542,2023-05-15_09h47.04.442,eb_02psyexp,2022.2.4,99.91609719718393,
302,0,302,0,,,,,,,,,,,,,,,,,,,,,,,,,,,,,,,,,,,,,,,,,,,,,,,,,,,,,,,,,,836.717642964446,836.717642964446,836.717642964446,836.717642964446,836.717642964446,836.717642964446,l,1,0.6288955858908594,837.358003029367,838.3889330924721,,,,,,,,,,,,,542,2023-05-15_09h47.04.442,eb_02psyexp,2022.2.4,99.91609719718393,
