trials.thisRepN,trials.thisTrialN,trials.thisN,trials.thisIndex,image_loop.thisRepN,image_loop.thisTrialN,image_loop.thisN,image_loop.thisIndex,break_loop.thisRepN,break_loop.thisTrialN,break_loop.thisN,break_loop.thisIndex,test_trials.thisRepN,test_trials.thisTrialN,test_trials.thisN,test_trials.thisIndex,tools,welcome_text.started,instructions_0_keypress.started,instructions_0_keypress.keys,instructions_0_keypress.rt,consent_image_0.started,consent0_key_resp.started,consent0_text.started,consent0_key_resp.keys,consent0_key_resp.rt,consent_image_1.started,consent1_key_resp.started,consent1_text.started,consent1_key_resp.keys,consent1_key_resp.rt,consent2_text.started,consent_image_2.started,consent2_key_resp.started,consent2_key_resp.keys,consent2_key_resp.rt,agree_button.started,disagree_button.started,consent_image_3.started,agree_button.numClicks,agree_button.timesOn,agree_button.timesOff,disagree_button.numClicks,disagree_button.timesOn,disagree_button.timesOff,instructions_text1.started,instructions1_key_resp.started,instr1_cnt_text.started,instructions1_key_resp.keys,instructions1_key_resp.rt,instructions_text2.started,instr2_cnt_text.started,instructions2_key_resp.started,instructions2_key_resp.keys,instructions2_key_resp.rt,instructions_text3.started,instructions3_key_resp.started,instr3_cnt_text.started,instructions3_key_resp.keys,instructions3_key_resp.rt,text_countdown.started,image.started,small_large_keyresp.started,task_question_text.started,smalleroption_text.started,largeroption_text.started,accuracy_score_text.started,small_large_keyresp.keys,small_large_keyresp.corr,small_large_keyresp.rt,fb_2.started,fb_2.stopped,break_text.started,break_key_resp.started,break_key_resp.keys,break_key_resp.rt,graph.started,debrief_text.started,debriefing_title.started,demo_scr_adv.started,demo_scr_adv_keypress.started,demo_scr_adv_keypress.keys,demo_scr_adv_keypress.rt,text_countdown_2.started,participant,date,expName,psychopyVersion,frameRate,
,,,,,,,,,,,,,,,,[ 2 10  0  6  9  3  7 11  1  4  5  8],12.81082513637375,12.81082513637375,return,10.310447124647908,,,,,,,,,,,,,,,,,,,,,,,,,,,,,,,,,,,,,,,,,,,,,,,,,,,,,,,,,,,,,,,,543,2010-12-28_07h31.41.842,eb_02psyexp,2022.2.4,120.00633917707185,
,,,,,,,,,,,,,,,,,,,,,23.13632992526982,23.13632992526982,23.13632992526982,space,21.64831895311363,,,,,,,,,,,,,,,,,,,,,,,,,,,,,,,,,,,,,,,,,,,,,,,,,,,,,,,,,,,543,2010-12-28_07h31.41.842,eb_02psyexp,2022.2.4,120.00633917707185,
,,,,,,,,,,,,,,,,,,,,,,,,,,44.796451105503365,44.796451105503365,44.796451105503365,space,4.051251231343485,,,,,,,,,,,,,,,,,,,,,,,,,,,,,,,,,,,,,,,,,,,,,,,,,,,,,,543,2010-12-28_07h31.41.842,eb_02psyexp,2022.2.4,120.00633917707185,
,,,,,,,,,,,,,,,,,,,,,,,,,,,,,,,48.863433425314724,48.863433425314724,48.863433425314724,space,3.272321833879687,,,,,,,,,,,,,,,,,,,,,,,,,,,,,,,,,,,,,,,,,,,,,,,,,543,2010-12-28_07h31.41.842,eb_02psyexp,2022.2.4,120.00633917707185,
,,,,,,,,,,,,,,,,,,,,,,,,,,,,,,,,,,,,52.155401022406295,52.155401022406295,52.155401022406295,1,[11.05062936944887],[11.050633897189982],0,,,63.19797254318837,65.18978459772188,65.18978459772188,space,2.7772502672160044,,,,,,,,,,,,,,,,,,,,,,,,,,,,,,,,,,,543,2010-12-28_07h31.41.842,eb_02psyexp,2022.2.4,120.00633917707185,
,,,,,,,,,,,,,,,,,,,,,,,,,,,,,,,,,,,,,,,,,,,,,,,,,,67.98167386522982,70.97360213147476,70.97360213147476,space,12.080695356009528,,,,,,,,,,,,,,,,,,,,,,,,,,,,,,543,2010-12-28_07h31.41.842,eb_02psyexp,2022.2.4,120.00633917707185,
,,,,,,,,,,,,,,,,,,,,,,,,,,,,,,,,,,,,,,,,,,,,,,,,,,,,,,,83.06625033693854,86.0581577756675,86.0581577756675,space,13.563432784751058,,,,,,,,,,,,,,,,,,,,,,,,,543,2010-12-28_07h31.41.842,eb_02psyexp,2022.2.4,120.00633917707185,
0,0,0,0,,,,,,,,,,,,,,,,,,,,,,,,,,,,,,,,,,,,,,,,,,,,,,,,,,,,,,,,,99.64257864432875,104.68469105334952,104.68469105334952,104.68469105334952,104.68469105334952,104.68469105334952,104.68469105334952,l,1,2.0650227724108845,106.7848664575722,107.81832003733143,,,,,,,,,,,,,543,2010-12-28_07h31.41.842,eb_02psyexp,2022.2.4,120.00633917707185,
1,0,1,0,,,,,,,,,,,,,,,,,,,,,,,,,,,,,,,,,,,,,,,,,,,,,,,,,,,,,,,,,,107.81832003733143,107.81832003733143,107.81832003733143,107.81832003733143,107.81832003733143,107.81832003733143,s,1,0.8664229876594618,108.69336165476125,109.71844074665569,,,,,,,,,,,,,543,2010-12-28_07h31.41.842,eb_02psyexp,2022.2.4,120.00633917707185,
2,0,2,0,,,,,,,,,,,,,,,,,,,,,,,,,,,,,,,,,,,,,,,,,,,,,,,,,,,,,,,,,,109.71844074665569,109.71844074665569,109.71844074665569,109.71844074665569,109.71844074665569,109.71844074665569,l,1,0.8143181821797043,110.5435215892503,111.56861577357631,,,,,,,,,,,,,543,2010-12-28_07h31.41.842,eb_02psyexp,2022.2.4,120.00633917707185,
3,0,3,0,,,,,,,,,,,,,,,,,,,,,,,,,,,,,,,,,,,,,,,,,,,,,,,,,,,,,,,,,,111.56861577357631,111.56861577357631,111.56861577357631,111.56861577357631,111.56861577357631,111.56861577357631,l,1,0.9081921947654337,112.48536471906118,113.51875883468892,,,,,,,,,,,,,543,2010-12-28_07h31.41.842,eb_02psyexp,2022.2.4,120.00633917707185,
4,0,4,0,,,,,,,,,,,,,,,,,,,,,,,,,,,,,,,,,,,,,,,,,,,,,,,,,,,,,,,,,,113.51875883468892,113.51875883468892,113.51875883468892,113.51875883468892,113.51875883468892,113.51875883468892,s,1,0.6860461055766791,114.21883963956498,115.24394801072776,,,,,,,,,,,,,543,2010-12-28_07h31.41.842,eb_02psyexp,2022.2.4,120.00633917707185,
5,0,5,0,,,,,,,,,,,,,,,,,,,,,,,,,,,,,,,,,,,,,,,,,,,,,,,,,,,,,,,,,,115.24394801072776,115.24394801072776,115.24394801072776,115.24394801072776,115.24394801072776,115.24394801072776,l,1,0.7209229015279561,115.9773151712725,117.01071351277642,,,,,,,,,,,,,543,2010-12-28_07h31.41.842,eb_02psyexp,2022.2.4,120.00633917707185,
6,0,6,0,,,,,,,,,,,,,,,,,,,,,,,,,,,,,,,,,,,,,,,,,,,,,,,,,,,,,,,,,,117.01071351277642,117.01071351277642,117.01071351277642,117.01071351277642,117.01071351277642,117.01071351277642,s,1,0.5862139031523839,117.61076319694985,118.63584621297196,,,,,,,,,,,,,543,2010-12-28_07h31.41.842,eb_02psyexp,2022.2.4,120.00633917707185,
7,0,7,0,,,,,,,,,,,,,,,,,,,,,,,,,,,,,,,,,,,,,,,,,,,,,,,,,,,,,,,,,,118.63584621297196,118.63584621297196,118.63584621297196,118.63584621297196,118.63584621297196,118.63584621297196,l,1,0.7130733283702284,119.36090589594096,120.39435796649195,,,,,,,,,,,,,543,2010-12-28_07h31.41.842,eb_02psyexp,2022.2.4,120.00633917707185,
8,0,8,0,,,,,,,,,,,,,,,,,,,,,,,,,,,,,,,,,,,,,,,,,,,,,,,,,,,,,,,,,,120.39435796649195,120.39435796649195,120.39435796649195,120.39435796649195,120.39435796649195,120.39435796649195,l,1,1.274628259241581,121.67776362772565,122.70284121041186,,,,,,,,,,,,,543,2010-12-28_07h31.41.842,eb_02psyexp,2022.2.4,120.00633917707185,
9,0,9,0,,,,,,,,,,,,,,,,,,,,,,,,,,,,,,,,,,,,,,,,,,,,,,,,,,,,,,,,,,122.70284121041186,122.70284121041186,122.70284121041186,122.70284121041186,122.70284121041186,122.70284121041186,l,1,0.7091906496789306,123.42788942309562,124.46132760867476,,,,,,,,,,,,,543,2010-12-28_07h31.41.842,eb_02psyexp,2022.2.4,120.00633917707185,
10,0,10,0,,,,,,,,,,,,,,,,,,,,,,,,,,,,,,,,,,,,,,,,,,,,,,,,,,,,,,,,,,124.46132760867476,124.46132760867476,124.46132760867476,124.46132760867476,124.46132760867476,124.46132760867476,s,1,0.7027042247354984,125.17806049587671,126.2031688670395,,,,,,,,,,,,,543,2010-12-28_07h31.41.842,eb_02psyexp,2022.2.4,120.00633917707185,
11,0,11,0,,,,,,,,,,,,,,,,,,,,,,,,,,,,,,,,,,,,,,,,,,,,,,,,,,,,,,,,,,126.2031688670395,126.2031688670395,126.2031688670395,126.2031688670395,126.2031688670395,126.2031688670395,l,1,0.6088975245365873,126.82820467383135,127.86159426171798,,,,,,,,,,,,,543,2010-12-28_07h31.41.842,eb_02psyexp,2022.2.4,120.00633917707185,
12,0,12,0,,,,,,,,,,,,,,,,,,,,,,,,,,,,,,,,,,,,,,,,,,,,,,,,,,,,,,,,,,127.86159426171798,127.86159426171798,127.86159426171798,127.86159426171798,127.86159426171798,127.86159426171798,s,1,0.598489482421428,128.46997496765107,129.49508182960562,,,,,,,,,,,,,543,2010-12-28_07h31.41.842,eb_02psyexp,2022.2.4,120.00633917707185,
13,0,13,0,,,,,,,,,,,,,,,,,,,,,,,,,,,,,,,,,,,,,,,,,,,,,,,,,,,,,,,,,,129.49508182960562,129.49508182960562,129.49508182960562,129.49508182960562,129.49508182960562,129.49508182960562,l,1,0.5650256398366764,130.07015505048912,131.10355550493114,,,,,,,,,,,,,543,2010-12-28_07h31.41.842,eb_02psyexp,2022.2.4,120.00633917707185,
14,0,14,0,,,,,,,,,,,,,,,,,,,,,,,,,,,,,,,,,,,,,,,,,,,,,,,,,,,,,,,,,,131.10355550493114,131.10355550493114,131.10355550493114,131.10355550493114,131.10355550493114,131.10355550493114,s,1,0.9965927865123376,132.11195776285604,133.14537572453264,,,,,,,,,,,,,543,2010-12-28_07h31.41.842,eb_02psyexp,2022.2.4,120.00633917707185,
15,0,15,0,,,,,,,,,,,,,,,,,,,,,,,,,,,,,,,,,,,,,,,,,,,,,,,,,,,,,,,,,,133.14537572453264,133.14537572453264,133.14537572453264,133.14537572453264,133.14537572453264,133.14537572453264,l,1,0.810808890266344,133.97046411328483,134.99552720726933,,,,,,,,,,,,,543,2010-12-28_07h31.41.842,eb_02psyexp,2022.2.4,120.00633917707185,
16,0,16,0,,,,,,,,,,,,,,,,,,,,,,,,,,,,,,,,,,,,,,,,,,,,,,,,,,,,,,,,,,134.99552720726933,134.99552720726933,134.99552720726933,134.99552720726933,134.99552720726933,134.99552720726933,l,1,0.7526743569178507,135.76226735394448,136.79567837296054,,,,,,,,,,,,,543,2010-12-28_07h31.41.842,eb_02psyexp,2022.2.4,120.00633917707185,
17,0,17,0,,,,,,,,,,,,,,,,,,,,,,,,,,,,,,,,,,,,,,,,,,,,,,,,,,,,,,,,,,136.79567837296054,136.79567837296054,136.79567837296054,136.79567837296054,136.79567837296054,136.79567837296054,l,1,0.7285726509289816,137.53738983650692,138.5708431144012,,,,,,,,,,,,,543,2010-12-28_07h31.41.842,eb_02psyexp,2022.2.4,120.00633917707185,
18,0,18,0,,,,,,,,,,,,,,,,,,,,,,,,,,,,,,,,,,,,,,,,,,,,,,,,,,,,,,,,,,138.5708431144012,138.5708431144012,138.5708431144012,138.5708431144012,138.5708431144012,138.5708431144012,s,1,0.9044387073954567,139.4875522160437,140.5126397596905,,,,,,,,,,,,,543,2010-12-28_07h31.41.842,eb_02psyexp,2022.2.4,120.00633917707185,
19,0,19,0,,,,,,,,,,,,,,,,,,,,,,,,,,,,,,,,,,,,,,,,,,,,,,,,,,,,,,,,,,140.5126397596905,140.5126397596905,140.5126397596905,140.5126397596905,140.5126397596905,140.5126397596905,l,1,0.48270246805623174,141.0043550716946,142.03779355902225,,,,,,,,,,,,,543,2010-12-28_07h31.41.842,eb_02psyexp,2022.2.4,120.00633917707185,
20,0,20,0,,,,,,,,,,,,,,,,,,,,,,,,,,,,,,,,,,,,,,,,,,,,,,,,,,,,,,,,,,142.03779355902225,142.03779355902225,142.03779355902225,142.03779355902225,142.03779355902225,142.03779355902225,l,1,0.7335585862165317,142.77952283166815,143.81294683017768,,,,,,,,,,,,,543,2010-12-28_07h31.41.842,eb_02psyexp,2022.2.4,120.00633917707185,
21,0,21,0,,,,,,,,,,,,,,,,,,,,,,,,,,,,,,,,,,,,,,,,,,,,,,,,,,,,,,,,,,143.81294683017768,143.81294683017768,143.81294683017768,143.81294683017768,143.81294683017768,143.81294683017768,s,1,0.5744562960462645,144.39629130682442,145.42140994081274,,,,,,,,,,,,,543,2010-12-28_07h31.41.842,eb_02psyexp,2022.2.4,120.00633917707185,
22,0,22,0,,,,,,,,,,,,,,,,,,,,,,,,,,,,,,,,,,,,,,,,,,,,,,,,,,,,,,,,,,145.42140994081274,145.42140994081274,145.42140994081274,145.42140994081274,145.42140994081274,145.42140994081274,l,1,0.5739510015118867,146.0047800745815,147.03821282682475,,,,,,,,,,,,,543,2010-12-28_07h31.41.842,eb_02psyexp,2022.2.4,120.00633917707185,
23,0,23,0,,,,,,,,,,,,,,,,,,,,,,,,,,,,,,,,,,,,,,,,,,,,,,,,,,,,,,,,,,147.03821282682475,147.03821282682475,147.03821282682475,147.03821282682475,147.03821282682475,147.03821282682475,s,1,0.5252314282115549,147.5798919320805,148.5966224950971,,,,,,,,,,,,,543,2010-12-28_07h31.41.842,eb_02psyexp,2022.2.4,120.00633917707185,
24,0,24,0,,,,,,,,,,,,,,,,,,,,,,,,,,,,,,,,,,,,,,,,,,,,,,,,,,,,,,,,,,148.5966224950971,148.5966224950971,148.5966224950971,148.5966224950971,148.5966224950971,148.5966224950971,l,1,0.5508459995035082,149.16337857942563,150.19679684285074,,,,,,,,,,,,,543,2010-12-28_07h31.41.842,eb_02psyexp,2022.2.4,120.00633917707185,
25,0,25,0,,,,,,,,,,,,,,,,,,,,,,,,,,,,,,,,,,,,,,,,,,,,,,,,,,,,,,,,,,150.19679684285074,150.19679684285074,150.19679684285074,150.19679684285074,150.19679684285074,150.19679684285074,s,1,0.5186770873842761,150.73016243369784,151.75524544971995,,,,,,,,,,,,,543,2010-12-28_07h31.41.842,eb_02psyexp,2022.2.4,120.00633917707185,
26,0,26,0,,,,,,,,,,,,,,,,,,,,,,,,,,,,,,,,,,,,,,,,,,,,,,,,,,,,,,,,,,151.75524544971995,151.75524544971995,151.75524544971995,151.75524544971995,151.75524544971995,151.75524544971995,l,1,0.5682810770813376,152.33862705365755,153.37205286335666,,,,,,,,,,,,,543,2010-12-28_07h31.41.842,eb_02psyexp,2022.2.4,120.00633917707185,
27,0,27,0,,,,,,,,,,,,,,,,,,,,,,,,,,,,,,,,,,,,,,,,,,,,,,,,,,,,,,,,,,153.37205286335666,153.37205286335666,153.37205286335666,153.37205286335666,153.37205286335666,153.37205286335666,s,1,0.5514786741696298,153.93875038891565,154.9638328012079,,,,,,,,,,,,,543,2010-12-28_07h31.41.842,eb_02psyexp,2022.2.4,120.00633917707185,
28,0,28,0,,,,,,,,,,,,,,,,,,,,,,,,,,,,,,,,,,,,,,,,,,,,,,,,,,,,,,,,,,154.9638328012079,154.9638328012079,154.9638328012079,154.9638328012079,154.9638328012079,154.9638328012079,l,1,0.5747578428126872,155.54722406424116,156.58067371998914,,,,,,,,,,,,,543,2010-12-28_07h31.41.842,eb_02psyexp,2022.2.4,120.00633917707185,
29,0,29,0,,,,,,,,,,,,,,,,,,,,,,,,,,,,,,,,,,,,,,,,,,,,,,,,,,,,,,,,,,156.58067371998914,156.58067371998914,156.58067371998914,156.58067371998914,156.58067371998914,156.58067371998914,l,1,0.8218957897042856,157.41403638292104,158.4307684552623,,,,,,,,,,,,,543,2010-12-28_07h31.41.842,eb_02psyexp,2022.2.4,120.00633917707185,
30,0,30,0,,,,,,,,,,,,,,,,,,,,,,,,,,,,,,,,,,,,,,,,,,,,,,,,,,,,,,,,,,158.4307684552623,158.4307684552623,158.4307684552623,158.4307684552623,158.4307684552623,158.4307684552623,l,1,0.8839259812375531,159.33086320548318,160.35596825636458,,,,,,,,,,,,,543,2010-12-28_07h31.41.842,eb_02psyexp,2022.2.4,120.00633917707185,
31,0,31,0,,,,,,,,,,,,,,,,,,,,,,,,,,,,,,,,,,,,,,,,,,,,,,,,,,,,,,,,,,160.35596825636458,160.35596825636458,160.35596825636458,160.35596825636458,160.35596825636458,160.35596825636458,s,1,1.0786907792789862,161.4477420062758,162.46443664934486,,,,,,,,,,,,,543,2010-12-28_07h31.41.842,eb_02psyexp,2022.2.4,120.00633917707185,
32,0,32,0,,,,,,,,,,,,,,,,,,,,,,,,,,,,,,,,,,,,,,,,,,,,,,,,,,,,,,,,,,162.46443664934486,162.46443664934486,162.46443664934486,162.46443664934486,162.46443664934486,162.46443664934486,l,1,0.7622486930340528,163.2395416246727,164.26460441679228,,,,,,,,,,,,,543,2010-12-28_07h31.41.842,eb_02psyexp,2022.2.4,120.00633917707185,
33,0,33,0,,,,,,,,,,,,,,,,,,,,,,,,,,,,,,,,,,,,,,,,,,,,,,,,,,,,,,,,,,164.26460441679228,164.26460441679228,164.26460441679228,164.26460441679228,164.26460441679228,164.26460441679228,l,1,0.6661560931243002,164.93967525311746,165.9564139660215,,,,,,,,,,,,,543,2010-12-28_07h31.41.842,eb_02psyexp,2022.2.4,120.00633917707185,
34,0,34,0,,,,,,,,,,,,,,,,,,,,,,,,,,,,,,,,,,,,,,,,,,,,,,,,,,,,,,,,,,165.9564139660215,165.9564139660215,165.9564139660215,165.9564139660215,165.9564139660215,165.9564139660215,l,1,1.3503647925099358,167.3232182856882,168.35662598442286,,,,,,,,,,,,,543,2010-12-28_07h31.41.842,eb_02psyexp,2022.2.4,120.00633917707185,
35,0,35,0,,,,,,,,,,,,,,,,,,,,,,,,,,,,,,,,,,,,,,,,,,,,,,,,,,,,,,,,,,168.35662598442286,168.35662598442286,168.35662598442286,168.35662598442286,168.35662598442286,168.35662598442286,l,1,0.8132067755796015,169.18167664227076,170.198435277096,,,,,,,,,,,,,543,2010-12-28_07h31.41.842,eb_02psyexp,2022.2.4,120.00633917707185,
36,0,36,0,,,,,,,,,,,,,,,,,,,,,,,,,,,,,,,,,,,,,,,,,,,,,,,,,,,,,,,,,,170.198435277096,170.198435277096,170.198435277096,170.198435277096,170.198435277096,170.198435277096,l,1,0.6514451992698014,170.86518112872727,171.89025478740223,,,,,,,,,,,,,543,2010-12-28_07h31.41.842,eb_02psyexp,2022.2.4,120.00633917707185,
37,0,37,0,,,,,,,,,,,,,,,,,,,,,,,,,,,,,,,,,,,,,,,,,,,,,,,,,,,,,,,,,,171.89025478740223,171.89025478740223,171.89025478740223,171.89025478740223,171.89025478740223,171.89025478740223,l,1,0.4715681782690808,172.37363304081373,173.40705794491805,,,,,,,,,,,,,543,2010-12-28_07h31.41.842,eb_02psyexp,2022.2.4,120.00633917707185,
38,0,38,0,,,,,,,,,,,,,,,,,,,,,,,,,,,,,,,,,,,,,,,,,,,,,,,,,,,,,,,,,,173.40705794491805,173.40705794491805,173.40705794491805,173.40705794491805,173.40705794491805,173.40705794491805,s,1,0.5548219494521618,173.973775694496,174.99885931401514,,,,,,,,,,,,,543,2010-12-28_07h31.41.842,eb_02psyexp,2022.2.4,120.00633917707185,
39,0,39,0,,,,,,,,,,,,,,,,,,,,,,,,,,,,,,,,,,,,,,,,,,,,,,,,,,,,,,,,,,174.99885931401514,174.99885931401514,174.99885931401514,174.99885931401514,174.99885931401514,174.99885931401514,l,1,0.4830399347702041,175.49050852132495,176.507270476548,,,,,,,,,,,,,543,2010-12-28_07h31.41.842,eb_02psyexp,2022.2.4,120.00633917707185,
40,0,40,0,,,,,,,,,,,,,,,,,,,,,,,,,,,,,,,,,,,,,,,,,,,,,,,,,,,,,,,,,,176.507270476548,176.507270476548,176.507270476548,176.507270476548,176.507270476548,176.507270476548,s,1,1.0866746749961749,177.60739034065045,178.63248241203837,,,,,,,,,,,,,543,2010-12-28_07h31.41.842,eb_02psyexp,2022.2.4,120.00633917707185,
41,0,41,0,,,,,,,,,,,,,,,,,,,,,,,,,,,,,,,,,,,,,,,,,,,,,,,,,,,,,,,,,,178.63248241203837,178.63248241203837,178.63248241203837,178.63248241203837,178.63248241203837,178.63248241203837,l,1,0.4975181034533307,179.1408612766536,180.15759365074337,,,,,,,,,,,,,543,2010-12-28_07h31.41.842,eb_02psyexp,2022.2.4,120.00633917707185,
42,0,42,0,,,,,,,,,,,,,,,,,,,,,,,,,,,,,,,,,,,,,,,,,,,,,,,,,,,,,,,,,,180.15759365074337,180.15759365074337,180.15759365074337,180.15759365074337,180.15759365074337,180.15759365074337,s,1,0.4284062416991219,180.59931679582223,181.624422752182,,,,,,,,,,,,,543,2010-12-28_07h31.41.842,eb_02psyexp,2022.2.4,120.00633917707185,
43,0,43,0,,,,,,,,,,,,,,,,,,,,,,,,,,,,,,,,,,,,,,,,,,,,,,,,,,,,,,,,,,181.624422752182,181.624422752182,181.624422752182,181.624422752182,181.624422752182,181.624422752182,l,1,0.6496389370877296,182.28275517746806,183.29953313071746,,,,,,,,,,,,,543,2010-12-28_07h31.41.842,eb_02psyexp,2022.2.4,120.00633917707185,
44,0,44,0,,,,,,,,,,,,,,,,,,,,,,,,,,,,,,,,,,,,,,,,,,,,,,,,,,,,,,,,,,183.29953313071746,183.29953313071746,183.29953313071746,183.29953313071746,183.29953313071746,183.29953313071746,l,1,0.46251966257113963,183.7745492720278,184.80796783743426,,,,,,,,,,,,,543,2010-12-28_07h31.41.842,eb_02psyexp,2022.2.4,120.00633917707185,
45,0,45,0,,,,,,,,,,,,,,,,,,,,,,,,,,,,,,,,,,,,,,,,,,,,,,,,,,,,,,,,,,184.80796783743426,184.80796783743426,184.80796783743426,184.80796783743426,184.80796783743426,184.80796783743426,s,1,0.6970985942753032,185.5163956618635,186.54144607821945,,,,,,,,,,,,,543,2010-12-28_07h31.41.842,eb_02psyexp,2022.2.4,120.00633917707185,
46,0,46,0,,,,,,,,,,,,,,,,,,,,,,,,,,,,,,,,,,,,,,,,,,,,,,,,,,,,,,,,,,186.54144607821945,186.54144607821945,186.54144607821945,186.54144607821945,186.54144607821945,186.54144607821945,l,1,0.4996992616215721,187.0498539203545,188.0749158068793,,,,,,,,,,,,,543,2010-12-28_07h31.41.842,eb_02psyexp,2022.2.4,120.00633917707185,
47,0,47,0,,,,,,,,,,,,,,,,,,,,,,,,,,,,,,,,,,,,,,,,,,,,,,,,,,,,,,,,,,188.0749158068793,188.0749158068793,188.0749158068793,188.0749158068793,188.0749158068793,188.0749158068793,l,1,0.5662713691126555,188.64999295177404,189.6750512161525,,,,,,,,,,,,,543,2010-12-28_07h31.41.842,eb_02psyexp,2022.2.4,120.00633917707185,
48,0,48,0,,,,,,,,,,,,,,,,,,,,,,,,,,,,,,,,,,,,,,,,,,,,,,,,,,,,,,,,,,189.6750512161525,189.6750512161525,189.6750512161525,189.6750512161525,189.6750512161525,189.6750512161525,l,1,0.5020796397002414,190.19176653574686,191.20849709876347,,,,,,,,,,,,,543,2010-12-28_07h31.41.842,eb_02psyexp,2022.2.4,120.00633917707185,
49,0,49,0,,,,,,,,,,,,,,,,,,,,,,,,,,,,,,,,,,,,,,,,,,,,,,,,,,,,,,,,,,191.20849709876347,191.20849709876347,191.20849709876347,191.20849709876347,191.20849709876347,191.20849709876347,l,1,0.49669466039631516,191.7168813967146,192.75029633985832,,,,,,,,,,,,,543,2010-12-28_07h31.41.842,eb_02psyexp,2022.2.4,120.00633917707185,
50,0,50,0,,,,,,,,,,,,,,,,,,,,,,,,,,,,,,,,,,,,,,,,,,,,,,,,,,,,,,,,,,192.75029633985832,192.75029633985832,192.75029633985832,192.75029633985832,192.75029633985832,192.75029633985832,l,1,0.6269218106754124,193.39200958423316,194.41711674805265,,,,,,,,,,,,,543,2010-12-28_07h31.41.842,eb_02psyexp,2022.2.4,120.00633917707185,
51,0,51,0,,,,,,,,,,,,,,,,,,,,,,,,,,,,,,,,,,,,,,,,,,,,,,,,,,,,,,,,,,194.41711674805265,194.41711674805265,194.41711674805265,194.41711674805265,194.41711674805265,194.41711674805265,l,1,0.47213384264614433,194.9004802108975,195.9338848912157,,,,,,,,,,,,,543,2010-12-28_07h31.41.842,eb_02psyexp,2022.2.4,120.00633917707185,
52,0,52,0,,,,,,,,,,,,,,,,,,,,,,,,,,,,,,,,,,,,,,,,,,,,,,,,,,,,,,,,,,195.9338848912157,195.9338848912157,195.9338848912157,195.9338848912157,195.9338848912157,195.9338848912157,l,1,0.45940428297035396,196.40893061365932,197.44235672522336,,,,,,,,,,,,,543,2010-12-28_07h31.41.842,eb_02psyexp,2022.2.4,120.00633917707185,
53,0,53,0,,,,,,,,,,,,,,,,,,,,,,,,,,,,,,,,,,,,,,,,,,,,,,,,,,,,,,,,,,197.44235672522336,197.44235672522336,197.44235672522336,197.44235672522336,197.44235672522336,197.44235672522336,s,1,0.7029475148301572,198.15910621418152,199.18420432251878,,,,,,,,,,,,,543,2010-12-28_07h31.41.842,eb_02psyexp,2022.2.4,120.00633917707185,
54,0,54,0,,,,,,,,,,,,,,,,,,,,,,,,,,,,,,,,,,,,,,,,,,,,,,,,,,,,,,,,,,199.18420432251878,199.18420432251878,199.18420432251878,199.18420432251878,199.18420432251878,199.18420432251878,l,1,0.5051280087791383,199.700866214931,200.73435873317067,,,,,,,,,,,,,543,2010-12-28_07h31.41.842,eb_02psyexp,2022.2.4,120.00633917707185,
55,0,55,0,,,,,,,,,,,,,,,,,,,,,,,,,,,,,,,,,,,,,,,,,,,,,,,,,,,,,,,,,,200.73435873317067,200.73435873317067,200.73435873317067,200.73435873317067,200.73435873317067,200.73435873317067,s,1,0.5459980089217424,201.2926675840281,202.31777293677442,,,,,,,,,,,,,543,2010-12-28_07h31.41.842,eb_02psyexp,2022.2.4,120.00633917707185,
56,0,56,0,,,,,,,,,,,,,,,,,,,,,,,,,,,,,,,,,,,,,,,,,,,,,,,,,,,,,,,,,,202.31777293677442,202.31777293677442,202.31777293677442,202.31777293677442,202.31777293677442,202.31777293677442,l,1,0.45060630154330283,202.78446560259908,203.80957367201336,,,,,,,,,,,,,543,2010-12-28_07h31.41.842,eb_02psyexp,2022.2.4,120.00633917707185,
57,0,57,0,,,,,,,,,,,,,,,,,,,,,,,,,,,,,,,,,,,,,,,,,,,,,,,,,,,,,,,,,,203.80957367201336,203.80957367201336,203.80957367201336,203.80957367201336,203.80957367201336,203.80957367201336,l,1,0.6628692635567859,204.48461070132907,205.51801417418756,,,,,,,,,,,,,543,2010-12-28_07h31.41.842,eb_02psyexp,2022.2.4,120.00633917707185,
58,0,58,0,,,,,,,,,,,,,,,,,,,,,,,,,,,,,,,,,,,,,,,,,,,,,,,,,,,,,,,,,,205.51801417418756,205.51801417418756,205.51801417418756,205.51801417418756,205.51801417418756,205.51801417418756,l,1,0.5304144707042724,206.05974308447912,207.09314565185923,,,,,,,,,,,,,543,2010-12-28_07h31.41.842,eb_02psyexp,2022.2.4,120.00633917707185,
59,0,59,0,,,,,,,,,,,,,,,,,,,,,,,,,,,,,,,,,,,,,,,,,,,,,,,,,,,,,,,,,,207.09314565185923,207.09314565185923,207.09314565185923,207.09314565185923,207.09314565185923,207.09314565185923,s,1,0.6113265001913533,207.71821073803585,208.75162236078177,,,,,,,,,,,,,543,2010-12-28_07h31.41.842,eb_02psyexp,2022.2.4,120.00633917707185,
60,0,60,0,,,,,,,,,,,,,,,,,,,,,,,,,,,,,,,,,,,,,,,,,,,,,,,,,,,,,,,,,,208.75162236078177,208.75162236078177,208.75162236078177,208.75162236078177,208.75162236078177,208.75162236078177,l,1,0.4808829246321693,209.24335880228318,210.27675533259753,,,,,,,,,,,,,543,2010-12-28_07h31.41.842,eb_02psyexp,2022.2.4,120.00633917707185,
61,0,61,0,,,,,,,,,,,,,,,,,,,,,,,,,,,,,,,,,,,,,,,,,,,,,,,,,,,,,,,,,,210.27675533259753,210.27675533259753,210.27675533259753,210.27675533259753,210.27675533259753,210.27675533259753,s,1,0.4517765686614439,210.74346188362688,211.77686535648536,,,,,,,,,,,,,543,2010-12-28_07h31.41.842,eb_02psyexp,2022.2.4,120.00633917707185,
62,0,62,0,,,,,,,,,,,,,,,,,,,,,,,,,,,,,,,,,,,,,,,,,,,,,,,,,,,,,,,,,,211.77686535648536,211.77686535648536,211.77686535648536,211.77686535648536,211.77686535648536,211.77686535648536,l,1,0.4396811929764226,212.22691559919622,213.25202879996505,,,,,,,,,,,,,543,2010-12-28_07h31.41.842,eb_02psyexp,2022.2.4,120.00633917707185,
63,0,63,0,,,,,,,,,,,,,,,,,,,,,,,,,,,,,,,,,,,,,,,,,,,,,,,,,,,,,,,,,,213.25202879996505,213.25202879996505,213.25202879996505,213.25202879996505,213.25202879996505,213.25202879996505,l,1,0.5325603124219924,213.79370186827146,214.81879695819225,,,,,,,,,,,,,543,2010-12-28_07h31.41.842,eb_02psyexp,2022.2.4,120.00633917707185,
64,0,64,0,,,,,,,,,,,,,,,,,,,,,,,,,,,,,,,,,,,,,,,,,,,,,,,,,,,,,,,,,,214.81879695819225,214.81879695819225,214.81879695819225,214.81879695819225,214.81879695819225,214.81879695819225,l,1,0.5978094175225124,215.4272060379153,216.46064633631613,,,,,,,,,,,,,543,2010-12-28_07h31.41.842,eb_02psyexp,2022.2.4,120.00633917707185,
65,0,65,0,,,,,,,,,,,,,,,,,,,,,,,,,,,,,,,,,,,,,,,,,,,,,,,,,,,,,,,,,,216.46064633631613,216.46064633631613,216.46064633631613,216.46064633631613,216.46064633631613,216.46064633631613,l,1,0.5069710965035483,216.97730822872836,218.0024027149193,,,,,,,,,,,,,543,2010-12-28_07h31.41.842,eb_02psyexp,2022.2.4,120.00633917707185,
66,0,66,0,,,,,,,,,,,,,,,,,,,,,,,,,,,,,,,,,,,,,,,,,,,,,,,,,,,,,,,,,,218.0024027149193,218.0024027149193,218.0024027149193,218.0024027149193,218.0024027149193,218.0024027149193,l,1,0.45325532485730946,218.4691252638586,219.50252451084089,,,,,,,,,,,,,543,2010-12-28_07h31.41.842,eb_02psyexp,2022.2.4,120.00633917707185,
67,0,67,0,,,,,,,,,,,,,,,,,,,,,,,,,,,,,,,,,,,,,,,,,,,,,,,,,,,,,,,,,,219.50252451084089,219.50252451084089,219.50252451084089,219.50252451084089,219.50252451084089,219.50252451084089,l,1,0.40916309086605906,219.92756901087705,220.9609589005122,,,,,,,,,,,,,543,2010-12-28_07h31.41.842,eb_02psyexp,2022.2.4,120.00633917707185,
68,0,68,0,,,,,,,,,,,,,,,,,,,,,,,,,,,,,,,,,,,,,,,,,,,,,,,,,,,,,,,,,,220.9609589005122,220.9609589005122,220.9609589005122,220.9609589005122,220.9609589005122,220.9609589005122,s,1,0.758828446501866,221.7360234282678,222.7611097644549,,,,,,,,,,,,,543,2010-12-28_07h31.41.842,eb_02psyexp,2022.2.4,120.00633917707185,
69,0,69,0,,,,,,,,,,,,,,,,,,,,,,,,,,,,,,,,,,,,,,,,,,,,,,,,,,,,,,,,,,222.7611097644549,222.7611097644549,222.7611097644549,222.7611097644549,222.7611097644549,222.7611097644549,s,1,0.6226340510183945,223.39449077984318,224.42792836157605,,,,,,,,,,,,,543,2010-12-28_07h31.41.842,eb_02psyexp,2022.2.4,120.00633917707185,
70,0,70,0,,,,,,,,,,,,,,,,,,,,,,,,,,,,,,,,,,,,,,,,,,,,,,,,,,,,,,,,,,224.42792836157605,224.42792836157605,224.42792836157605,224.42792836157605,224.42792836157605,224.42792836157605,s,1,0.6038448804756626,225.04464944661595,226.06971465342212,,,,,,,,,,,,,543,2010-12-28_07h31.41.842,eb_02psyexp,2022.2.4,120.00633917707185,
71,0,71,0,,,,,,,,,,,,,,,,,,,,,,,,,,,,,,,,,,,,,,,,,,,,,,,,,,,,,,,,,,226.06971465342212,226.06971465342212,226.06971465342212,226.06971465342212,226.06971465342212,226.06971465342212,l,1,0.5140744998352602,226.59479963139165,227.6114888411248,,,,,,,,,,,,,543,2010-12-28_07h31.41.842,eb_02psyexp,2022.2.4,120.00633917707185,
72,0,72,0,,,,,,,,,,,,,,,,,,,,,,,,,,,,,,,,,,,,,,,,,,,,,,,,,,,,,,,,,,227.6114888411248,227.6114888411248,227.6114888411248,227.6114888411248,227.6114888411248,227.6114888411248,l,1,0.8923617444233969,228.51994540158194,229.54500215663575,,,,,,,,,,,,,543,2010-12-28_07h31.41.842,eb_02psyexp,2022.2.4,120.00633917707185,
73,0,73,0,,,,,,,,,,,,,,,,,,,,,,,,,,,,,,,,,,,,,,,,,,,,,,,,,,,,,,,,,,229.54500215663575,229.54500215663575,229.54500215663575,229.54500215663575,229.54500215663575,229.54500215663575,s,1,0.7108556465245783,230.2700642545242,231.29512946133036,,,,,,,,,,,,,543,2010-12-28_07h31.41.842,eb_02psyexp,2022.2.4,120.00633917707185,
74,0,74,0,,,,,,,,,,,,,,,,,,,,,,,,,,,,,,,,,,,,,,,,,,,,,,,,,,,,,,,,,,231.29512946133036,231.29512946133036,231.29512946133036,231.29512946133036,231.29512946133036,231.29512946133036,l,1,0.5037739159306511,231.81188824714627,232.83694319112692,,,,,,,,,,,,,543,2010-12-28_07h31.41.842,eb_02psyexp,2022.2.4,120.00633917707185,
75,0,75,0,,,,,,,,,,,,,,,,,,,,,,,,,,,,,,,,,,,,,,,,,,,,,,,,,,,,,,,,,,232.83694319112692,232.83694319112692,232.83694319112692,232.83694319112692,232.83694319112692,232.83694319112692,l,1,0.4579762371722609,233.30367811582983,234.33708279614802,,,,,,,,,,,,,543,2010-12-28_07h31.41.842,eb_02psyexp,2022.2.4,120.00633917707185,
76,0,76,0,,,,,,,,,,,,,,,,,,,,,,,,,,,,,,,,,,,,,,,,,,,,,,,,,,,,,,,,,,234.33708279614802,234.33708279614802,234.33708279614802,234.33708279614802,234.33708279614802,234.33708279614802,s,1,0.4618299384601414,234.8121125206817,235.8455371229211,,,,,,,,,,,,,543,2010-12-28_07h31.41.842,eb_02psyexp,2022.2.4,120.00633917707185,
77,0,77,0,,,,,,,,,,,,,,,,,,,,,,,,,,,,,,,,,,,,,,,,,,,,,,,,,,,,,,,,,,235.8455371229211,235.8455371229211,235.8455371229211,235.8455371229211,235.8455371229211,235.8455371229211,l,1,0.46543038869276643,236.3205749974586,237.3456755205989,,,,,,,,,,,,,543,2010-12-28_07h31.41.842,eb_02psyexp,2022.2.4,120.00633917707185,
78,0,78,0,,,,,,,,,,,,,,,,,,,,,,,,,,,,,,,,,,,,,,,,,,,,,,,,,,,,,,,,,,237.3456755205989,237.3456755205989,237.3456755205989,237.3456755205989,237.3456755205989,237.3456755205989,l,1,0.4773488810751587,237.83736728841905,238.87077528901864,,,,,,,,,,,,,543,2010-12-28_07h31.41.842,eb_02psyexp,2022.2.4,120.00633917707185,
79,0,79,0,,,,,,,,,,,,,,,,,,,,,,,,,,,,,,,,,,,,,,,,,,,,,,,,,,,,,,,,,,238.87077528901864,238.87077528901864,238.87077528901864,238.87077528901864,238.87077528901864,238.87077528901864,s,1,0.5602506967261434,239.44582013622858,240.47925077553373,,,,,,,,,,,,,543,2010-12-28_07h31.41.842,eb_02psyexp,2022.2.4,120.00633917707185,
80,0,80,0,,,,,,,,,,,,,,,,,,,,,,,,,,,,,,,,,,,,,,,,,,,,,,,,,,,,,,,,,,240.47925077553373,240.47925077553373,240.47925077553373,240.47925077553373,240.47925077553373,240.47925077553373,l,1,0.4238410833058879,240.91262207133695,241.92937014147174,,,,,,,,,,,,,543,2010-12-28_07h31.41.842,eb_02psyexp,2022.2.4,120.00633917707185,
81,0,81,0,,,,,,,,,,,,,,,,,,,,,,,,,,,,,,,,,,,,,,,,,,,,,,,,,,,,,,,,,,241.92937014147174,241.92937014147174,241.92937014147174,241.92937014147174,241.92937014147174,241.92937014147174,l,1,0.669678364531137,242.61278860119637,243.6462047516834,,,,,,,,,,,,,543,2010-12-28_07h31.41.842,eb_02psyexp,2022.2.4,120.00633917707185,
82,0,82,0,,,,,,,,,,,,,,,,,,,,,,,,,,,,,,,,,,,,,,,,,,,,,,,,,,,,,,,,,,243.6462047516834,243.6462047516834,243.6462047516834,243.6462047516834,243.6462047516834,243.6462047516834,l,1,0.44890417729038745,244.1045537183527,245.13796020962764,,,,,,,,,,,,,543,2010-12-28_07h31.41.842,eb_02psyexp,2022.2.4,120.00633917707185,
83,0,83,0,,,,,,,,,,,,,,,,,,,,,,,,,,,,,,,,,,,,,,,,,,,,,,,,,,,,,,,,,,245.13796020962764,245.13796020962764,245.13796020962764,245.13796020962764,245.13796020962764,245.13796020962764,s,1,0.4852226021466777,245.63799507322256,246.6714655564865,,,,,,,,,,,,,543,2010-12-28_07h31.41.842,eb_02psyexp,2022.2.4,120.00633917707185,
84,0,84,0,,,,,,,,,,,,,,,,,,,,,,,,,,,,,,,,,,,,,,,,,,,,,,,,,,,,,,,,,,246.6714655564865,246.6714655564865,246.6714655564865,246.6714655564865,246.6714655564865,246.6714655564865,l,1,0.46275661373510957,247.1464723405661,248.17990509269293,,,,,,,,,,,,,543,2010-12-28_07h31.41.842,eb_02psyexp,2022.2.4,120.00633917707185,
85,0,85,0,,,,,,,,,,,,,,,,,,,,,,,,,,,,,,,,,,,,,,,,,,,,,,,,,,,,,,,,,,248.17990509269293,248.17990509269293,248.17990509269293,248.17990509269293,248.17990509269293,248.17990509269293,s,1,0.5222796506714076,248.71330177399796,249.74667113798205,,,,,,,,,,,,,543,2010-12-28_07h31.41.842,eb_02psyexp,2022.2.4,120.00633917707185,
86,0,86,0,,,,,,,,,,,,,,,,,,,,,,,,,,,,,,,,,,,,,,,,,,,,,,,,,,,,,,,,,,249.74667113798205,249.74667113798205,249.74667113798205,249.74667113798205,249.74667113798205,249.74667113798205,l,1,0.43551205983385444,250.19672953058034,251.221840920276,,,,,,,,,,,,,543,2010-12-28_07h31.41.842,eb_02psyexp,2022.2.4,120.00633917707185,
87,0,87,0,,,,,,,,,,,,,,,,,,,,,,,,,,,,,,,,,,,,,,,,,,,,,,,,,,,,,,,,,,251.221840920276,251.221840920276,251.221840920276,251.221840920276,251.221840920276,251.221840920276,l,1,0.5444000223651528,251.78018840786535,252.8135924844537,,,,,,,,,,,,,543,2010-12-28_07h31.41.842,eb_02psyexp,2022.2.4,120.00633917707185,
88,0,88,0,,,,,,,,,,,,,,,,,,,,,,,,,,,,,,,,,,,,,,,,,,,,,,,,,,,,,,,,,,252.8135924844537,252.8135924844537,252.8135924844537,252.8135924844537,252.8135924844537,252.8135924844537,l,1,0.6486733233323321,253.47201516246423,254.50541471131146,,,,,,,,,,,,,543,2010-12-28_07h31.41.842,eb_02psyexp,2022.2.4,120.00633917707185,
89,0,89,0,,,,,,,,,,,,,,,,,,,,,,,,,,,,,,,,,,,,,,,,,,,,,,,,,,,,,,,,,,254.50541471131146,254.50541471131146,254.50541471131146,254.50541471131146,254.50541471131146,254.50541471131146,s,1,0.5328844977775589,255.04714181052987,256.0722088285256,,,,,,,,,,,,,543,2010-12-28_07h31.41.842,eb_02psyexp,2022.2.4,120.00633917707185,
90,0,90,0,,,,,,,,,,,,,,,,,,,,,,,,,,,,,,,,,,,,,,,,,,,,,,,,,,,,,,,,,,256.0722088285256,256.0722088285256,256.0722088285256,256.0722088285256,256.0722088285256,256.0722088285256,l,1,0.40611200511921197,256.4889156661229,257.5056836584117,,,,,,,,,,,,,543,2010-12-28_07h31.41.842,eb_02psyexp,2022.2.4,120.00633917707185,
91,0,91,0,,,,,,,,,,,,,,,,,,,,,,,,,,,,,,,,,,,,,,,,,,,,,,,,,,,,,,,,,,257.5056836584117,257.5056836584117,257.5056836584117,257.5056836584117,257.5056836584117,257.5056836584117,s,1,0.7726666959933937,258.2890710578067,259.3141426035436,,,,,,,,,,,,,543,2010-12-28_07h31.41.842,eb_02psyexp,2022.2.4,120.00633917707185,
92,0,92,0,,,,,,,,,,,,,,,,,,,,,,,,,,,,,,,,,,,,,,,,,,,,,,,,,,,,,,,,,,259.3141426035436,259.3141426035436,259.3141426035436,259.3141426035436,259.3141426035436,259.3141426035436,s,1,0.6602739691734314,259.98918265127577,261.01427110040095,,,,,,,,,,,,,543,2010-12-28_07h31.41.842,eb_02psyexp,2022.2.4,120.00633917707185,
93,0,93,0,,,,,,,,,,,,,,,,,,,,,,,,,,,,,,,,,,,,,,,,,,,,,,,,,,,,,,,,,,261.01427110040095,261.01427110040095,261.01427110040095,261.01427110040095,261.01427110040095,261.01427110040095,l,1,0.6241556698223576,261.6476705286186,262.6727393575711,,,,,,,,,,,,,543,2010-12-28_07h31.41.842,eb_02psyexp,2022.2.4,120.00633917707185,
94,0,94,0,,,,,,,,,,,,,,,,,,,,,,,,,,,,,,,,,,,,,,,,,,,,,,,,,,,,,,,,,,262.6727393575711,262.6727393575711,262.6727393575711,262.6727393575711,262.6727393575711,262.6727393575711,l,1,0.5167352952994406,263.19782554288395,264.2312142252922,,,,,,,,,,,,,543,2010-12-28_07h31.41.842,eb_02psyexp,2022.2.4,120.00633917707185,
95,0,95,0,,,,,,,,,,,,,,,,,,,,,,,,,,,,,,,,,,,,,,,,,,,,,,,,,,,,,,,,,,264.2312142252922,264.2312142252922,264.2312142252922,264.2312142252922,264.2312142252922,264.2312142252922,s,1,0.5022640691604465,264.74792622448877,265.78134388430044,,,,,,,,,,,,,543,2010-12-28_07h31.41.842,eb_02psyexp,2022.2.4,120.00633917707185,
96,0,96,0,,,,,,,,,,,,,,,,,,,,,,,,,,,,,,,,,,,,,,,,,,,,,,,,,,,,,,,,,,265.78134388430044,265.78134388430044,265.78134388430044,265.78134388430044,265.78134388430044,265.78134388430044,l,1,0.5361468776827678,266.3313920442015,267.3481096277246,,,,,,,,,,,,,543,2010-12-28_07h31.41.842,eb_02psyexp,2022.2.4,120.00633917707185,
97,0,97,0,,,,,,,,,,,,,,,,,,,,,,,,,,,,,,,,,,,,,,,,,,,,,,,,,,,,,,,,,,267.3481096277246,267.3481096277246,267.3481096277246,267.3481096277246,267.3481096277246,267.3481096277246,l,1,0.6573801466729492,268.0148720809957,269.0399538895581,,,,,,,,,,,,,543,2010-12-28_07h31.41.842,eb_02psyexp,2022.2.4,120.00633917707185,
98,0,98,0,,,,,,,,,,,,,,,,,,,,,,,,,,,,,,,,,,,,,,,,,,,,,,,,,,,,,,,,,,269.0399538895581,269.0399538895581,269.0399538895581,269.0399538895581,269.0399538895581,269.0399538895581,s,1,0.5176194099476561,269.57332551747095,270.5900424972642,,,,,,,,,,,,,543,2010-12-28_07h31.41.842,eb_02psyexp,2022.2.4,120.00633917707185,
99,0,99,0,,,,,,,,,,,,,,,,,,,,,,,,,,,,,,,,,,,,,,,,,,,,,,,,,,,,,,,,,,270.5900424972642,270.5900424972642,270.5900424972642,270.5900424972642,270.5900424972642,270.5900424972642,l,1,0.4875356680713594,271.0901193176396,272.1151878448436,,,,,,,,,,,,,543,2010-12-28_07h31.41.842,eb_02psyexp,2022.2.4,120.00633917707185,
100,0,100,0,,,,,,,,,,,,,,,,,,,,,,,,,,,,,,,,,,,,,,,,,,,,,,,,,,,,,,,,,,272.1151878448436,272.1151878448436,272.1151878448436,272.1151878448436,272.1151878448436,272.1151878448436,l,1,0.5064166004303843,272.6319143328583,273.6653322945349,,,,,,,,,,,,,543,2010-12-28_07h31.41.842,eb_02psyexp,2022.2.4,120.00633917707185,
101,0,101,0,,,,,,,,,,,,,,,,,,,,,,,,,,,,,,,,,,,,,,,,,,,,,,,,,,,,,,,,,,273.6653322945349,273.6653322945349,273.6653322945349,273.6653322945349,273.6653322945349,273.6653322945349,s,1,0.5163290071068332,274.1903653545305,275.2237875419669,,,,,,,,,,,,,543,2010-12-28_07h31.41.842,eb_02psyexp,2022.2.4,120.00633917707185,
102,0,102,0,,,,,,,,,,,,,,,,,,,,,,,,,,,,,,,,,,,,,,,,,,,,,,,,,,,,,,,,,,275.2237875419669,275.2237875419669,275.2237875419669,275.2237875419669,275.2237875419669,275.2237875419669,l,1,0.4458497711457312,275.682168806321,276.7156078973785,,,,,,,,,,,,,543,2010-12-28_07h31.41.842,eb_02psyexp,2022.2.4,120.00633917707185,
103,0,103,0,,,,,,,,,,,,,,,,,,,,,,,,,,,,,,,,,,,,,,,,,,,,,,,,,,,,,,,,,,276.7156078973785,276.7156078973785,276.7156078973785,276.7156078973785,276.7156078973785,276.7156078973785,s,1,0.4580794693902135,277.1822918097023,278.21571278979536,,,,,,,,,,,,,543,2010-12-28_07h31.41.842,eb_02psyexp,2022.2.4,120.00633917707185,
104,0,104,0,,,,,,,,,,,,,,,,,,,,,,,,,,,,,,,,,,,,,,,,,,,,,,,,,,,,,,,,,,278.21571278979536,278.21571278979536,278.21571278979536,278.21571278979536,278.21571278979536,278.21571278979536,l,1,0.46099894924554974,278.690745230997,279.7158442448126,,,,,,,,,,,,,543,2010-12-28_07h31.41.842,eb_02psyexp,2022.2.4,120.00633917707185,
105,0,105,0,,,,,,,,,,,,,,,,,,,,,,,,,,,,,,,,,,,,,,,,,,,,,,,,,,,,,,,,,,279.7158442448126,279.7158442448126,279.7158442448126,279.7158442448126,279.7158442448126,279.7158442448126,l,1,0.512889442150481,280.2408658346394,281.2659832612844,,,,,,,,,,,,,543,2010-12-28_07h31.41.842,eb_02psyexp,2022.2.4,120.00633917707185,
106,0,106,0,,,,,,,,,,,,,,,,,,,,,,,,,,,,,,,,,,,,,,,,,,,,,,,,,,,,,,,,,,281.2659832612844,281.2659832612844,281.2659832612844,281.2659832612844,281.2659832612844,281.2659832612844,l,1,0.6267947322921827,281.9077025426086,282.9410851879511,,,,,,,,,,,,,543,2010-12-28_07h31.41.842,eb_02psyexp,2022.2.4,120.00633917707185,
107,0,107,0,,,,,,,,,,,,,,,,,,,,,,,,,,,,,,,,,,,,,,,,,,,,,,,,,,,,,,,,,,282.9410851879511,282.9410851879511,282.9410851879511,282.9410851879511,282.9410851879511,282.9410851879511,l,1,0.7757195929298177,283.73281568300445,284.76627318689134,,,,,,,,,,,,,543,2010-12-28_07h31.41.842,eb_02psyexp,2022.2.4,120.00633917707185,
108,0,108,0,,,,,,,,,,,,,,,,,,,,,,,,,,,,,,,,,,,,,,,,,,,,,,,,,,,,,,,,,,284.76627318689134,284.76627318689134,284.76627318689134,284.76627318689134,284.76627318689134,284.76627318689134,s,1,0.5745163639076054,285.3496224930277,286.3746997737326,,,,,,,,,,,,,543,2010-12-28_07h31.41.842,eb_02psyexp,2022.2.4,120.00633917707185,
109,0,109,0,,,,,,,,,,,,,,,,,,,,,,,,,,,,,,,,,,,,,,,,,,,,,,,,,,,,,,,,,,286.3746997737326,286.3746997737326,286.3746997737326,286.3746997737326,286.3746997737326,286.3746997737326,l,1,0.40615879162214696,286.7914241186809,287.80815226689447,,,,,,,,,,,,,543,2010-12-28_07h31.41.842,eb_02psyexp,2022.2.4,120.00633917707185,
110,0,110,0,,,,,,,,,,,,,,,,,,,,,,,,,,,,,,,,,,,,,,,,,,,,,,,,,,,,,,,,,,287.80815226689447,287.80815226689447,287.80815226689447,287.80815226689447,287.80815226689447,287.80815226689447,s,1,0.5807232769438997,288.3999189233873,289.42496058612596,,,,,,,,,,,,,543,2010-12-28_07h31.41.842,eb_02psyexp,2022.2.4,120.00633917707185,
111,0,111,0,,,,,,,,,,,,,,,,,,,,,,,,,,,,,,,,,,,,,,,,,,,,,,,,,,,,,,,,,,289.42496058612596,289.42496058612596,289.42496058612596,289.42496058612596,289.42496058612596,289.42496058612596,s,1,0.7079132263315842,290.14170162321534,291.16678584646434,,,,,,,,,,,,,543,2010-12-28_07h31.41.842,eb_02psyexp,2022.2.4,120.00633917707185,
112,0,112,0,,,,,,,,,,,,,,,,,,,,,,,,,,,,,,,,,,,,,,,,,,,,,,,,,,,,,,,,,,291.16678584646434,291.16678584646434,291.16678584646434,291.16678584646434,291.16678584646434,291.16678584646434,l,1,0.47009877930395305,291.65015323343687,292.675223571714,,,,,,,,,,,,,543,2010-12-28_07h31.41.842,eb_02psyexp,2022.2.4,120.00633917707185,
113,0,113,0,,,,,,,,,,,,,,,,,,,,,,,,,,,,,,,,,,,,,,,,,,,,,,,,,,,,,,,,,,292.675223571714,292.675223571714,292.675223571714,292.675223571714,292.675223571714,292.675223571714,l,1,0.6257612026529387,293.31698088604026,294.33367371791974,,,,,,,,,,,,,543,2010-12-28_07h31.41.842,eb_02psyexp,2022.2.4,120.00633917707185,
114,0,114,0,,,,,,,,,,,,,,,,,,,,,,,,,,,,,,,,,,,,,,,,,,,,,,,,,,,,,,,,,,294.33367371791974,294.33367371791974,294.33367371791974,294.33367371791974,294.33367371791974,294.33367371791974,s,1,0.5583427116507664,294.9004074654076,295.9338239177596,,,,,,,,,,,,,543,2010-12-28_07h31.41.842,eb_02psyexp,2022.2.4,120.00633917707185,
115,0,115,0,,,,,,,,,,,,,,,,,,,,,,,,,,,,,,,,,,,,,,,,,,,,,,,,,,,,,,,,,,295.9338239177596,295.9338239177596,295.9338239177596,295.9338239177596,295.9338239177596,295.9338239177596,s,1,0.48619334725663066,296.4338630072307,297.45896232291125,,,,,,,,,,,,,543,2010-12-28_07h31.41.842,eb_02psyexp,2022.2.4,120.00633917707185,
116,0,116,0,,,,,,,,,,,,,,,,,,,,,,,,,,,,,,,,,,,,,,,,,,,,,,,,,,,,,,,,,,297.45896232291125,297.45896232291125,297.45896232291125,297.45896232291125,297.45896232291125,297.45896232291125,s,1,0.48907962371595204,297.95901590108406,298.9924235998187,,,,,,,,,,,,,543,2010-12-28_07h31.41.842,eb_02psyexp,2022.2.4,120.00633917707185,
117,0,117,0,,,,,,,,,,,,,,,,,,,,,,,,,,,,,,,,,,,,,,,,,,,,,,,,,,,,,,,,,,298.9924235998187,298.9924235998187,298.9924235998187,298.9924235998187,298.9924235998187,298.9924235998187,s,1,0.4116038386709988,299.41746327024885,300.4425381362671,,,,,,,,,,,,,543,2010-12-28_07h31.41.842,eb_02psyexp,2022.2.4,120.00633917707185,
118,0,118,0,,,,,,,,,,,,,,,,,,,,,,,,,,,,,,,,,,,,,,,,,,,,,,,,,,,,,,,,,,300.4425381362671,300.4425381362671,300.4425381362671,300.4425381362671,300.4425381362671,300.4425381362671,l,1,0.45757417485583574,300.9092253688723,301.9343557750108,,,,,,,,,,,,,543,2010-12-28_07h31.41.842,eb_02psyexp,2022.2.4,120.00633917707185,
119,0,119,0,,,,,,,,,,,,,,,,,,,,,,,,,,,,,,,,,,,,,,,,,,,,,,,,,,,,,,,,,,301.9343557750108,301.9343557750108,301.9343557750108,301.9343557750108,301.9343557750108,301.9343557750108,l,1,0.5347855404252186,302.4843846167205,303.5094516345998,,,,,,,,,,,,,543,2010-12-28_07h31.41.842,eb_02psyexp,2022.2.4,120.00633917707185,
120,0,120,0,,,,,,,,,,,,,,,,,,,,,,,,,,,,,,,,,,,,,,,,,,,,,,,,,,,,,,,,,,303.5094516345998,303.5094516345998,303.5094516345998,303.5094516345998,303.5094516345998,303.5094516345998,l,1,0.42269617156125605,303.94281628972385,304.95955349341966,,,,,,,,,,,,,543,2010-12-28_07h31.41.842,eb_02psyexp,2022.2.4,120.00633917707185,
121,0,121,0,,,,,,,,,,,,,,,,,,,,,,,,,,,,,,,,,,,,,,,,,,,,,,,,,,,,,,,,,,304.95955349341966,304.95955349341966,304.95955349341966,304.95955349341966,304.95955349341966,304.95955349341966,s,1,0.5566097988048568,305.5263319144724,306.5597124468768,,,,,,,,,,,,,543,2010-12-28_07h31.41.842,eb_02psyexp,2022.2.4,120.00633917707185,
122,0,122,0,,,,,,,,,,,,,,,,,,,,,,,,,,,,,,,,,,,,,,,,,,,,,,,,,,,,,,,,,,306.5597124468768,306.5597124468768,306.5597124468768,306.5597124468768,306.5597124468768,306.5597124468768,s,1,0.5804884387180209,307.15143080765847,308.17654793243855,,,,,,,,,,,,,543,2010-12-28_07h31.41.842,eb_02psyexp,2022.2.4,120.00633917707185,
123,0,123,0,,,,,,,,,,,,,,,,,,,,,,,,,,,,,,,,,,,,,,,,,,,,,,,,,,,,,,,,,,308.17654793243855,308.17654793243855,308.17654793243855,308.17654793243855,308.17654793243855,308.17654793243855,l,1,0.467658635112457,308.6598902659025,309.69336618250236,,,,,,,,,,,,,543,2010-12-28_07h31.41.842,eb_02psyexp,2022.2.4,120.00633917707185,
124,0,124,0,,,,,,,,,,,,,,,,,,,,,,,,,,,,,,,,,,,,,,,,,,,,,,,,,,,,,,,,,,309.69336618250236,309.69336618250236,309.69336618250236,309.69336618250236,309.69336618250236,309.69336618250236,s,1,0.621880636899732,310.32671972957905,311.3517713532783,,,,,,,,,,,,,543,2010-12-28_07h31.41.842,eb_02psyexp,2022.2.4,120.00633917707185,
125,0,125,0,,,,,,,,,,,,,,,,,,,,,,,,,,,,,,,,,,,,,,,,,,,,,,,,,,,,,,,,,,311.3517713532783,311.3517713532783,311.3517713532783,311.3517713532783,311.3517713532783,311.3517713532783,l,1,0.54751449637115,311.91016200510785,312.9352281175088,,,,,,,,,,,,,543,2010-12-28_07h31.41.842,eb_02psyexp,2022.2.4,120.00633917707185,
126,0,126,0,,,,,,,,,,,,,,,,,,,,,,,,,,,,,,,,,,,,,,,,,,,,,,,,,,,,,,,,,,312.9352281175088,312.9352281175088,312.9352281175088,312.9352281175088,312.9352281175088,312.9352281175088,s,1,0.5800782263977453,313.52694164868444,314.5520406626165,,,,,,,,,,,,,543,2010-12-28_07h31.41.842,eb_02psyexp,2022.2.4,120.00633917707185,
127,0,127,0,,,,,,,,,,,,,,,,,,,,,,,,,,,,,,,,,,,,,,,,,,,,,,,,,,,,,,,,,,314.5520406626165,314.5520406626165,314.5520406626165,314.5520406626165,314.5520406626165,314.5520406626165,l,1,1.0113091138191521,315.5771206599893,316.61055552517064,,,,,,,,,,,,,543,2010-12-28_07h31.41.842,eb_02psyexp,2022.2.4,120.00633917707185,
128,0,128,0,,,,,,,,,,,,,,,,,,,,,,,,,,,,,,,,,,,,,,,,,,,,,,,,,,,,,,,,,,316.61055552517064,316.61055552517064,316.61055552517064,316.61055552517064,316.61055552517064,316.61055552517064,s,1,0.5928286135895178,317.2189317033626,318.24400958791375,,,,,,,,,,,,,543,2010-12-28_07h31.41.842,eb_02psyexp,2022.2.4,120.00633917707185,
129,0,129,0,,,,,,,,,,,,,,,,,,,,,,,,,,,,,,,,,,,,,,,,,,,,,,,,,,,,,,,,,,318.24400958791375,318.24400958791375,318.24400958791375,318.24400958791375,318.24400958791375,318.24400958791375,l,1,0.6074124292936176,318.8607391245896,319.89414984185714,,,,,,,,,,,,,543,2010-12-28_07h31.41.842,eb_02psyexp,2022.2.4,120.00633917707185,
130,0,130,0,,,,,,,,,,,,,,,,,,,,,,,,,,,,,,,,,,,,,,,,,,,,,,,,,,,,,,,,,,319.89414984185714,319.89414984185714,319.89414984185714,319.89414984185714,319.89414984185714,319.89414984185714,s,1,0.7253060451475903,320.6358766995836,321.66096907283645,,,,,,,,,,,,,543,2010-12-28_07h31.41.842,eb_02psyexp,2022.2.4,120.00633917707185,
131,0,131,0,,,,,,,,,,,,,,,,,,,,,,,,,,,,,,,,,,,,,,,,,,,,,,,,,,,,,,,,,,321.66096907283645,321.66096907283645,321.66096907283645,321.66096907283645,321.66096907283645,321.66096907283645,s,1,0.766524076811038,322.43603148765396,323.4611027314095,,,,,,,,,,,,,543,2010-12-28_07h31.41.842,eb_02psyexp,2022.2.4,120.00633917707185,
132,0,132,0,,,,,,,,,,,,,,,,,,,,,,,,,,,,,,,,,,,,,,,,,,,,,,,,,,,,,,,,,,323.4611027314095,323.4611027314095,323.4611027314095,323.4611027314095,323.4611027314095,323.4611027314095,l,1,0.5343617449980229,324.01115089131054,325.02787692658603,,,,,,,,,,,,,543,2010-12-28_07h31.41.842,eb_02psyexp,2022.2.4,120.00633917707185,
133,0,133,0,,,,,,,,,,,,,,,,,,,,,,,,,,,,,,,,,,,,,,,,,,,,,,,,,,,,,,,,,,325.02787692658603,325.02787692658603,325.02787692658603,325.02787692658603,325.02787692658603,325.02787692658603,s,1,0.5746615530224517,325.6112935449928,326.63640704762656,,,,,,,,,,,,,543,2010-12-28_07h31.41.842,eb_02psyexp,2022.2.4,120.00633917707185,
134,0,134,0,,,,,,,,,,,,,,,,,,,,,,,,,,,,,,,,,,,,,,,,,,,,,,,,,,,,,,,,,,326.63640704762656,326.63640704762656,326.63640704762656,326.63640704762656,326.63640704762656,326.63640704762656,l,1,0.486145353410393,327.1363993504783,328.1614865922602,,,,,,,,,,,,,543,2010-12-28_07h31.41.842,eb_02psyexp,2022.2.4,120.00633917707185,
135,0,135,0,,,,,,,,,,,,,,,,,,,,,,,,,,,,,,,,,,,,,,,,,,,,,,,,,,,,,,,,,,328.1614865922602,328.1614865922602,328.1614865922602,328.1614865922602,328.1614865922602,328.1614865922602,s,1,0.5690803723409772,328.74488630716223,329.7699623805238,,,,,,,,,,,,,543,2010-12-28_07h31.41.842,eb_02psyexp,2022.2.4,120.00633917707185,
136,0,136,0,,,,,,,,,,,,,,,,,,,,,,,,,,,,,,,,,,,,,,,,,,,,,,,,,,,,,,,,,,329.7699623805238,329.7699623805238,329.7699623805238,329.7699623805238,329.7699623805238,329.7699623805238,l,1,1.0646542152389884,330.84505990031175,331.87847363599576,,,,,,,,,,,,,543,2010-12-28_07h31.41.842,eb_02psyexp,2022.2.4,120.00633917707185,
137,0,137,0,,,,,,,,,,,,,,,,,,,,,,,,,,,,,,,,,,,,,,,,,,,,,,,,,,,,,,,,,,331.87847363599576,331.87847363599576,331.87847363599576,331.87847363599576,331.87847363599576,331.87847363599576,s,1,0.540212778490968,332.4285036850488,333.45360179338604,,,,,,,,,,,,,543,2010-12-28_07h31.41.842,eb_02psyexp,2022.2.4,120.00633917707185,
138,0,138,0,,,,,,,,,,,,,,,,,,,,,,,,,,,,,,,,,,,,,,,,,,,,,,,,,,,,,,,,,,333.45360179338604,333.45360179338604,333.45360179338604,333.45360179338604,333.45360179338604,333.45360179338604,l,1,0.8051030458882451,334.27034769032616,335.295430102502,,,,,,,,,,,,,543,2010-12-28_07h31.41.842,eb_02psyexp,2022.2.4,120.00633917707185,
139,0,139,0,,,,,,,,,,,,,,,,,,,,,,,,,,,,,,,,,,,,,,,,,,,,,,,,,,,,,,,,,,335.295430102502,335.295430102502,335.295430102502,335.295430102502,335.295430102502,335.295430102502,s,1,0.5233116711024195,335.82881289883517,336.85386814468075,,,,,,,,,,,,,543,2010-12-28_07h31.41.842,eb_02psyexp,2022.2.4,120.00633917707185,
140,0,140,0,,,,,,,,,,,,,,,,,,,,,,,,,,,,,,,,,,,,,,,,,,,,,,,,,,,,,,,,,,336.85386814468075,336.85386814468075,336.85386814468075,336.85386814468075,336.85386814468075,336.85386814468075,l,1,0.49288050131872296,337.36228534404654,338.3956809688825,,,,,,,,,,,,,543,2010-12-28_07h31.41.842,eb_02psyexp,2022.2.4,120.00633917707185,
141,0,141,0,,,,,,,,,,,,,,,,,,,,,,,,,,,,,,,,,,,,,,,,,,,,,,,,,,,,,,,,,,338.3956809688825,338.3956809688825,338.3956809688825,338.3956809688825,338.3956809688825,338.3956809688825,s,1,0.5590994460508227,338.9707713952521,339.9958163781557,,,,,,,,,,,,,543,2010-12-28_07h31.41.842,eb_02psyexp,2022.2.4,120.00633917707185,
142,0,142,0,,,,,,,,,,,,,,,,,,,,,,,,,,,,,,,,,,,,,,,,,,,,,,,,,,,,,,,,,,339.9958163781557,339.9958163781557,339.9958163781557,339.9958163781557,339.9958163781557,339.9958163781557,l,1,0.48599986219778657,340.49586693779565,341.5209098078776,,,,,,,,,,,,,543,2010-12-28_07h31.41.842,eb_02psyexp,2022.2.4,120.00633917707185,
143,0,143,0,,,,,,,,,,,,,,,,,,,,,,,,,,,,,,,,,,,,,,,,,,,,,,,,,,,,,,,,,,341.5209098078776,341.5209098078776,341.5209098078776,341.5209098078776,341.5209098078776,341.5209098078776,s,1,0.5529040032997727,342.0876501960447,343.1127501154551,,,,,,,,,,,,,543,2010-12-28_07h31.41.842,eb_02psyexp,2022.2.4,120.00633917707185,
144,0,144,0,,,,,,,,,,,,,,,,,,,,,,,,,,,,,,,,,,,,,,,,,,,,,,,,,,,,,,,,,,343.1127501154551,343.1127501154551,343.1127501154551,343.1127501154551,343.1127501154551,343.1127501154551,l,1,0.44911124533973634,343.5711099485634,344.5961917571258,,,,,,,,,,,,,543,2010-12-28_07h31.41.842,eb_02psyexp,2022.2.4,120.00633917707185,
145,0,145,0,,,,,,,,,,,,,,,,,,,,,,,,,,,,,,,,,,,,,,,,,,,,,,,,,,,,,,,,,,344.5961917571258,344.5961917571258,344.5961917571258,344.5961917571258,344.5961917571258,344.5961917571258,s,1,0.49367043923120946,345.10456669772975,346.1296346213203,,,,,,,,,,,,,543,2010-12-28_07h31.41.842,eb_02psyexp,2022.2.4,120.00633917707185,
146,0,146,0,,,,,,,,,,,,,,,,,,,,,,,,,,,,,,,,,,,,,,,,,,,,,,,,,,,,,,,,,,346.1296346213203,346.1296346213203,346.1296346213203,346.1296346213203,346.1296346213203,346.1296346213203,l,1,0.47225639317184687,346.61305664270185,347.6297431358835,,,,,,,,,,,,,543,2010-12-28_07h31.41.842,eb_02psyexp,2022.2.4,120.00633917707185,
147,0,147,0,,,,,,,,,,,,,,,,,,,,,,,,,,,,,,,,,,,,,,,,,,,,,,,,,,,,,,,,,,347.6297431358835,347.6297431358835,347.6297431358835,347.6297431358835,347.6297431358835,347.6297431358835,s,1,0.5721746223280206,348.2131612634985,349.22987371555064,,,,,,,,,,,,,543,2010-12-28_07h31.41.842,eb_02psyexp,2022.2.4,120.00633917707185,
148,0,148,0,,,,,,,,,,,,,,,,,,,,,,,,,,,,,,,,,,,,,,,,,,,,,,,,,,,,,,,,,,349.22987371555064,349.22987371555064,349.22987371555064,349.22987371555064,349.22987371555064,349.22987371555064,l,1,0.43606172618456185,349.6799493135186,350.6966623693006,,,,,,,,,,,,,543,2010-12-28_07h31.41.842,eb_02psyexp,2022.2.4,120.00633917707185,
149,0,149,0,,,,,,,,,,,,,,,,,,,,,,,,,,,,,,,,,,,,,,,,,,,,,,,,,,,,,,,,,,350.6966623693006,350.6966623693006,350.6966623693006,350.6966623693006,350.6966623693006,350.6966623693006,s,1,0.6013289723778144,351.31340186705347,352.34684729680885,,,,,,,,,,,,,543,2010-12-28_07h31.41.842,eb_02psyexp,2022.2.4,120.00633917707185,
150,0,150,0,,,,,,,,,,,,,,,,,,,,,,,,,,,,,,,,,,,,,,,,,,,,,,,,,,,,,,,,,,352.34684729680885,352.34684729680885,352.34684729680885,352.34684729680885,352.34684729680885,352.34684729680885,l,0,0.679127735318616,353.0385810821317,354.05529987299815,,,,,,,,,,,,,543,2010-12-28_07h31.41.842,eb_02psyexp,2022.2.4,120.00633917707185,
151,0,151,0,,,,,,,,,,,,,,,,,,,,,,,,,,,,,,,,,,,,,,,,,,,,,,,,,,,,,,,,,,354.05529987299815,354.05529987299815,354.05529987299815,354.05529987299815,354.05529987299815,354.05529987299815,s,1,1.0267287482274696,355.0970630431548,356.1304788918933,,,,,,,,,,,,,543,2010-12-28_07h31.41.842,eb_02psyexp,2022.2.4,120.00633917707185,
152,0,152,0,,,,,,,,,,,,,,,,,,,,,,,,,,,,,,,,,,,,,,,,,,,,,,,,,,,,,,,,,,356.1304788918933,356.1304788918933,356.1304788918933,356.1304788918933,356.1304788918933,356.1304788918933,s,1,0.7346078120172024,356.8805654469179,357.8972836341709,,,,,,,,,,,,,543,2010-12-28_07h31.41.842,eb_02psyexp,2022.2.4,120.00633917707185,
153,0,153,0,,,,,,,,,,,,,,,,,,,,,,,,,,,,,,,,,,,,,,,,,,,,,,,,,,,,,,,,,,357.8972836341709,357.8972836341709,357.8972836341709,357.8972836341709,357.8972836341709,357.8972836341709,s,1,0.4717815852491185,358.38068784656934,359.414095545304,,,,,,,,,,,,,543,2010-12-28_07h31.41.842,eb_02psyexp,2022.2.4,120.00633917707185,
154,0,154,0,,,,,,,,,,,,,,,,,,,,,,,,,,,,,,,,,,,,,,,,,,,,,,,,,,,,,,,,,,359.414095545304,359.414095545304,359.414095545304,359.414095545304,359.414095545304,359.414095545304,s,1,0.43502910202369094,359.8641252622474,360.8892623090651,,,,,,,,,,,,,543,2010-12-28_07h31.41.842,eb_02psyexp,2022.2.4,120.00633917707185,
155,0,155,0,,,,,,,,,,,,,,,,,,,,,,,,,,,,,,,,,,,,,,,,,,,,,,,,,,,,,,,,,,360.8892623090651,360.8892623090651,360.8892623090651,360.8892623090651,360.8892623090651,360.8892623090651,s,1,0.37588880909606814,361.28093171003275,362.3060056704562,,,,,,,,,,,,,543,2010-12-28_07h31.41.842,eb_02psyexp,2022.2.4,120.00633917707185,
156,0,156,0,,,,,,,,,,,,,,,,,,,,,,,,,,,,,,,,,,,,,,,,,,,,,,,,,,,,,,,,,,362.3060056704562,362.3060056704562,362.3060056704562,362.3060056704562,362.3060056704562,362.3060056704562,s,1,0.6231867359019816,362.9393755174242,363.96447000361513,,,,,,,,,,,,,543,2010-12-28_07h31.41.842,eb_02psyexp,2022.2.4,120.00633917707185,
157,0,157,0,,,,,,,,,,,,,,,,,,,,,,,,,,,,,,,,,,,,,,,,,,,,,,,,,,,,,,,,,,363.96447000361513,363.96447000361513,363.96447000361513,363.96447000361513,363.96447000361513,363.96447000361513,l,1,0.4207311370410025,364.3978228867054,365.4312453760067,,,,,,,,,,,,,543,2010-12-28_07h31.41.842,eb_02psyexp,2022.2.4,120.00633917707185,
158,0,158,0,,,,,,,,,,,,,,,,,,,,,,,,,,,,,,,,,,,,,,,,,,,,,,,,,,,,,,,,,,365.4312453760067,365.4312453760067,365.4312453760067,365.4312453760067,365.4312453760067,365.4312453760067,s,1,0.4580272496677935,365.89795192691963,366.92303615028504,,,,,,,,,,,,,543,2010-12-28_07h31.41.842,eb_02psyexp,2022.2.4,120.00633917707185,
159,0,159,0,,,,,,,,,,,,,,,,,,,,,,,,,,,,,,,,,,,,,,,,,,,,,,,,,,,,,,,,,,366.92303615028504,366.92303615028504,366.92303615028504,366.92303615028504,366.92303615028504,366.92303615028504,l,1,0.5102096301270649,367.4480993950274,368.4815188659122,,,,,,,,,,,,,543,2010-12-28_07h31.41.842,eb_02psyexp,2022.2.4,120.00633917707185,
160,0,160,0,,,,,,,,,,,,,,,,,,,,,,,,,,,,,,,,,,,,,,,,,,,,,,,,,,,,,,,,,,368.4815188659122,368.4815188659122,368.4815188659122,368.4815188659122,368.4815188659122,368.4815188659122,s,1,0.543773082899861,369.03989684022963,370.0649608395761,,,,,,,,,,,,,543,2010-12-28_07h31.41.842,eb_02psyexp,2022.2.4,120.00633917707185,
161,0,161,0,,,,,,,,,,,,,,,,,,,,,,,,,,,,,,,,,,,,,,,,,,,,,,,,,,,,,,,,,,370.0649608395761,370.0649608395761,370.0649608395761,370.0649608395761,370.0649608395761,370.0649608395761,l,1,0.6723539506783709,370.74837597901933,371.77342609339394,,,,,,,,,,,,,543,2010-12-28_07h31.41.842,eb_02psyexp,2022.2.4,120.00633917707185,
162,0,162,0,,,,,,,,,,,,,,,,,,,,,,,,,,,,,,,,,,,,,,,,,,,,,,,,,,,,,,,,,,371.77342609339394,371.77342609339394,371.77342609339394,371.77342609339394,371.77342609339394,371.77342609339394,s,1,0.5229093068046495,372.3068034563912,373.3235605820082,,,,,,,,,,,,,543,2010-12-28_07h31.41.842,eb_02psyexp,2022.2.4,120.00633917707185,
163,0,163,0,,,,,,,,,,,,,,,,,,,,,,,,,,,,,,,,,,,,,,,,,,,,,,,,,,,,,,,,,,373.3235605820082,373.3235605820082,373.3235605820082,373.3235605820082,373.3235605820082,373.3235605820082,s,1,0.4128027814440429,373.7486038747011,374.7820176103851,,,,,,,,,,,,,543,2010-12-28_07h31.41.842,eb_02psyexp,2022.2.4,120.00633917707185,
164,0,164,0,,,,,,,,,,,,,,,,,,,,,,,,,,,,,,,,,,,,,,,,,,,,,,,,,,,,,,,,,,374.7820176103851,374.7820176103851,374.7820176103851,374.7820176103851,374.7820176103851,374.7820176103851,s,1,0.43438646639697254,375.2320551754674,376.2487815126078,,,,,,,,,,,,,543,2010-12-28_07h31.41.842,eb_02psyexp,2022.2.4,120.00633917707185,
165,0,165,0,,,,,,,,,,,,,,,,,,,,,,,,,,,,,,,,,,,,,,,,,,,,,,,,,,,,,,,,,,376.2487815126078,376.2487815126078,376.2487815126078,376.2487815126078,376.2487815126078,376.2487815126078,s,1,0.4396238416666165,376.6988483569585,377.7239525022451,,,,,,,,,,,,,543,2010-12-28_07h31.41.842,eb_02psyexp,2022.2.4,120.00633917707185,
166,0,166,0,,,,,,,,,,,,,,,,,,,,,,,,,,,,,,,,,,,,,,,,,,,,,,,,,,,,,,,,,,377.7239525022451,377.7239525022451,377.7239525022451,377.7239525022451,377.7239525022451,377.7239525022451,s,1,0.5084694729885086,378.2406460888451,379.26573634904344,,,,,,,,,,,,,543,2010-12-28_07h31.41.842,eb_02psyexp,2022.2.4,120.00633917707185,
167,0,167,0,,,,,,,,,,,,,,,,,,,,,,,,,,,,,,,,,,,,,,,,,,,,,,,,,,,,,,,,,,379.26573634904344,379.26573634904344,379.26573634904344,379.26573634904344,379.26573634904344,379.26573634904344,l,1,0.4707329631783068,379.7490940768039,380.77420305169653,,,,,,,,,,,,,543,2010-12-28_07h31.41.842,eb_02psyexp,2022.2.4,120.00633917707185,
168,0,168,0,,,,,,,,,,,,,,,,,,,,,,,,,,,,,,,,,,,,,,,,,,,,,,,,,,,,,,,,,,380.77420305169653,380.77420305169653,380.77420305169653,380.77420305169653,380.77420305169653,380.77420305169653,s,1,0.42628213309217244,381.21588273055386,382.24097631115,,,,,,,,,,,,,543,2010-12-28_07h31.41.842,eb_02psyexp,2022.2.4,120.00633917707185,
169,0,169,0,,,,,,,,,,,,,,,,,,,,,,,,,,,,,,,,,,,,,,,,,,,,,,,,,,,,,,,,,,382.24097631115,382.24097631115,382.24097631115,382.24097631115,382.24097631115,382.24097631115,l,1,0.3835989283397794,382.64100812596735,383.6577447259333,,,,,,,,,,,,,543,2010-12-28_07h31.41.842,eb_02psyexp,2022.2.4,120.00633917707185,
170,0,170,0,,,,,,,,,,,,,,,,,,,,,,,,,,,,,,,,,,,,,,,,,,,,,,,,,,,,,,,,,,383.6577447259333,383.6577447259333,383.6577447259333,383.6577447259333,383.6577447259333,383.6577447259333,s,1,0.4788010746706277,384.14950803201646,385.1745774646988,,,,,,,,,,,,,543,2010-12-28_07h31.41.842,eb_02psyexp,2022.2.4,120.00633917707185,
171,0,171,0,,,,,,,,,,,,,,,,,,,,,,,,,,,,,,,,,,,,,,,,,,,,,,,,,,,,,,,,,,385.1745774646988,385.1745774646988,385.1745774646988,385.1745774646988,385.1745774646988,385.1745774646988,s,0,0.5299559626728296,385.71626079594716,386.7496790593723,,,,,,,,,,,,,543,2010-12-28_07h31.41.842,eb_02psyexp,2022.2.4,120.00633917707185,
172,0,172,0,,,,,,,,,,,,,,,,,,,,,,,,,,,,,,,,,,,,,,,,,,,,,,,,,,,,,,,,,,386.7496790593723,386.7496790593723,386.7496790593723,386.7496790593723,386.7496790593723,386.7496790593723,s,1,0.7459434347692877,387.50805588660296,388.53314976906404,,,,,,,,,,,,,543,2010-12-28_07h31.41.842,eb_02psyexp,2022.2.4,120.00633917707185,
173,0,173,0,,,,,,,,,,,,,,,,,,,,,,,,,,,,,,,,,,,,,,,,,,,,,,,,,,,,,,,,,,388.53314976906404,388.53314976906404,388.53314976906404,388.53314976906404,388.53314976906404,388.53314976906404,l,1,0.4425046847900376,388.9915071873693,390.0166324621532,,,,,,,,,,,,,543,2010-12-28_07h31.41.842,eb_02psyexp,2022.2.4,120.00633917707185,
174,0,174,0,,,,,,,,,,,,,,,,,,,,,,,,,,,,,,,,,,,,,,,,,,,,,,,,,,,,,,,,,,390.0166324621532,390.0166324621532,390.0166324621532,390.0166324621532,390.0166324621532,390.0166324621532,s,1,0.5990406580967829,390.6249935479136,391.65006599912886,,,,,,,,,,,,,543,2010-12-28_07h31.41.842,eb_02psyexp,2022.2.4,120.00633917707185,
175,0,175,0,,,,,,,,,,,,,,,,,,,,,,,,,,,,,,,,,,,,,,,,,,,,,,,,,,,,,,,,,,391.65006599912886,391.65006599912886,391.65006599912886,391.65006599912886,391.65006599912886,391.65006599912886,l,1,0.6856250268174335,392.35016612231266,393.3752186514903,,,,,,,,,,,,,543,2010-12-28_07h31.41.842,eb_02psyexp,2022.2.4,120.00633917707185,
176,0,176,0,,,,,,,,,,,,,,,,,,,,,,,,,,,,,,,,,,,,,,,,,,,,,,,,,,,,,,,,,,393.3752186514903,393.3752186514903,393.3752186514903,393.3752186514903,393.3752186514903,393.3752186514903,s,1,0.6084918398410082,393.9919367179973,395.01702245057095,,,,,,,,,,,,,543,2010-12-28_07h31.41.842,eb_02psyexp,2022.2.4,120.00633917707185,
177,0,177,0,,,,,,,,,,,,,,,,,,,,,,,,,,,,,,,,,,,,,,,,,,,,,,,,,,,,,,,,,,395.01702245057095,395.01702245057095,395.01702245057095,395.01702245057095,395.01702245057095,395.01702245057095,l,1,0.662715622689575,395.6920821184758,396.70881992578506,,,,,,,,,,,,,543,2010-12-28_07h31.41.842,eb_02psyexp,2022.2.4,120.00633917707185,
178,0,178,0,,,,,,,,,,,,,,,,,,,,,,,,,,,,,,,,,,,,,,,,,,,,,,,,,,,,,,,,,,396.70881992578506,396.70881992578506,396.70881992578506,396.70881992578506,396.70881992578506,396.70881992578506,s,1,0.5309499502182007,397.25056332489476,398.2839604590554,,,,,,,,,,,,,543,2010-12-28_07h31.41.842,eb_02psyexp,2022.2.4,120.00633917707185,
179,0,179,0,,,,,,,,,,,,,,,,,,,,,,,,,,,,,,,,,,,,,,,,,,,,,,,,,,,,,,,,,,398.2839604590554,398.2839604590554,398.2839604590554,398.2839604590554,398.2839604590554,398.2839604590554,s,1,0.683864947524853,398.98404699901585,400.0007340958109,,,,,,,,,,,,,543,2010-12-28_07h31.41.842,eb_02psyexp,2022.2.4,120.00633917707185,
180,0,180,0,,,,,,,,,,,,,,,,,,,,,,,,,,,,,,,,,,,,,,,,,,,,,,,,,,,,,,,,,,400.0007340958109,400.0007340958109,400.0007340958109,400.0007340958109,400.0007340958109,400.0007340958109,s,1,0.3910829627420753,400.40079217148013,401.4259289164329,,,,,,,,,,,,,543,2010-12-28_07h31.41.842,eb_02psyexp,2022.2.4,120.00633917707185,
181,0,181,0,,,,,,,,,,,,,,,,,,,,,,,,,,,,,,,,,,,,,,,,,,,,,,,,,,,,,,,,,,401.4259289164329,401.4259289164329,401.4259289164329,401.4259289164329,401.4259289164329,401.4259289164329,s,1,0.3739678446436301,401.8092543161474,402.83433431363665,,,,,,,,,,,,,543,2010-12-28_07h31.41.842,eb_02psyexp,2022.2.4,120.00633917707185,
182,0,182,0,,,,,,,,,,,,,,,,,,,,,,,,,,,,,,,,,,,,,,,,,,,,,,,,,,,,,,,,,,402.83433431363665,402.83433431363665,402.83433431363665,402.83433431363665,402.83433431363665,402.83433431363665,l,1,0.3965485355583951,403.24271194066387,404.25942107243463,,,,,,,,,,,,,543,2010-12-28_07h31.41.842,eb_02psyexp,2022.2.4,120.00633917707185,
183,0,183,0,,,,,,,,,,,,,,,,,,,,,,,,,,,,,,,,,,,,,,,,,,,,,,,,,,,,,,,,,,404.25942107243463,404.25942107243463,404.25942107243463,404.25942107243463,404.25942107243463,404.25942107243463,s,1,0.443482976173982,404.7178340308601,405.7429046710022,,,,,,,,,,,,,543,2010-12-28_07h31.41.842,eb_02psyexp,2022.2.4,120.00633917707185,
184,0,184,0,,,,,,,,,,,,,,,,,,,,,,,,,,,,,,,,,,,,,,,,,,,,,,,,,,,,,,,,,,405.7429046710022,405.7429046710022,405.7429046710022,405.7429046710022,405.7429046710022,405.7429046710022,l,1,0.4560247858753428,406.20961242937483,407.2346951434156,,,,,,,,,,,,,543,2010-12-28_07h31.41.842,eb_02psyexp,2022.2.4,120.00633917707185,
185,0,185,0,,,,,,,,,,,,,,,,,,,,,,,,,,,,,,,,,,,,,,,,,,,,,,,,,,,,,,,,,,407.2346951434156,407.2346951434156,407.2346951434156,407.2346951434156,407.2346951434156,407.2346951434156,s,1,0.3722599851898849,407.6180887609953,408.64315245859325,,,,,,,,,,,,,543,2010-12-28_07h31.41.842,eb_02psyexp,2022.2.4,120.00633917707185,
186,0,186,0,,,,,,,,,,,,,,,,,,,,,,,,,,,,,,,,,,,,,,,,,,,,,,,,,,,,,,,,,,408.64315245859325,408.64315245859325,408.64315245859325,408.64315245859325,408.64315245859325,408.64315245859325,l,1,0.4518115830142051,409.10987289447803,410.143276065588,,,,,,,,,,,,,543,2010-12-28_07h31.41.842,eb_02psyexp,2022.2.4,120.00633917707185,
187,0,187,0,,,,,,,,,,,,,,,,,,,,,,,,,,,,,,,,,,,,,,,,,,,,,,,,,,,,,,,,,,410.143276065588,410.143276065588,410.143276065588,410.143276065588,410.143276065588,410.143276065588,s,1,0.6077671013772488,410.76003759820014,411.78504032245837,,,,,,,,,,,,,543,2010-12-28_07h31.41.842,eb_02psyexp,2022.2.4,120.00633917707185,
188,0,188,0,,,,,,,,,,,,,,,,,,,,,,,,,,,,,,,,,,,,,,,,,,,,,,,,,,,,,,,,,,411.78504032245837,411.78504032245837,411.78504032245837,411.78504032245837,411.78504032245837,411.78504032245837,l,1,0.5259857478085905,412.3268039453542,413.34350432350766,,,,,,,,,,,,,543,2010-12-28_07h31.41.842,eb_02psyexp,2022.2.4,120.00633917707185,
189,0,189,0,,,,,,,,,,,,,,,,,,,,,,,,,,,,,,,,,,,,,,,,,,,,,,,,,,,,,,,,,,413.34350432350766,413.34350432350766,413.34350432350766,413.34350432350766,413.34350432350766,413.34350432350766,s,1,0.7115625760052353,414.06857577862684,415.0936850553844,,,,,,,,,,,,,543,2010-12-28_07h31.41.842,eb_02psyexp,2022.2.4,120.00633917707185,
190,0,190,0,,,,,,,,,,,,,,,,,,,,,,,,,,,,,,,,,,,,,,,,,,,,,,,,,,,,,,,,,,415.0936850553844,415.0936850553844,415.0936850553844,415.0936850553844,415.0936850553844,415.0936850553844,l,0,0.6574190850369632,415.7604016276309,416.7854731733678,,,,,,,,,,,,,543,2010-12-28_07h31.41.842,eb_02psyexp,2022.2.4,120.00633917707185,
191,0,191,0,,,,,,,,,,,,,,,,,,,,,,,,,,,,,,,,,,,,,,,,,,,,,,,,,,,,,,,,,,416.7854731733678,416.7854731733678,416.7854731733678,416.7854731733678,416.7854731733678,416.7854731733678,l,1,0.9816564116626978,417.77721519896295,418.8023130055517,,,,,,,,,,,,,543,2010-12-28_07h31.41.842,eb_02psyexp,2022.2.4,120.00633917707185,
192,0,192,0,,,,,,,,,,,,,,,,,,,,,,,,,,,,,,,,,,,,,,,,,,,,,,,,,,,,,,,,,,418.8023130055517,418.8023130055517,418.8023130055517,418.8023130055517,418.8023130055517,418.8023130055517,s,1,0.5078718127915636,419.31903043808416,420.344097154215,,,,,,,,,,,,,543,2010-12-28_07h31.41.842,eb_02psyexp,2022.2.4,120.00633917707185,
193,0,193,0,,,,,,,,,,,,,,,,,,,,,,,,,,,,,,,,,,,,,,,,,,,,,,,,,,,,,,,,,,420.344097154215,420.344097154215,420.344097154215,420.344097154215,420.344097154215,420.344097154215,l,1,0.5261046763043851,420.88582485716324,421.9025415350916,,,,,,,,,,,,,543,2010-12-28_07h31.41.842,eb_02psyexp,2022.2.4,120.00633917707185,
194,0,194,0,,,,,,,,,,,,,,,,,,,,,,,,,,,,,,,,,,,,,,,,,,,,,,,,,,,,,,,,,,421.9025415350916,421.9025415350916,421.9025415350916,421.9025415350916,421.9025415350916,421.9025415350916,l,1,0.5276999461930245,422.4443434928544,423.47770953644067,,,,,,,,,,,,,543,2010-12-28_07h31.41.842,eb_02psyexp,2022.2.4,120.00633917707185,
195,0,195,0,,,,,,,,,,,,,,,,,,,,,,,,,,,,,,,,,,,,,,,,,,,,,,,,,,,,,,,,,,423.47770953644067,423.47770953644067,423.47770953644067,423.47770953644067,423.47770953644067,423.47770953644067,s,1,0.5925569499377161,424.0860884313006,425.11952903156634,,,,,,,,,,,,,543,2010-12-28_07h31.41.842,eb_02psyexp,2022.2.4,120.00633917707185,
196,0,196,0,,,,,,,,,,,,,,,,,,,,,,,,,,,,,,,,,,,,,,,,,,,,,,,,,,,,,,,,,,425.11952903156634,425.11952903156634,425.11952903156634,425.11952903156634,425.11952903156634,425.11952903156634,l,1,0.7187411397462711,425.8528868347639,426.88630509830546,,,,,,,,,,,,,543,2010-12-28_07h31.41.842,eb_02psyexp,2022.2.4,120.00633917707185,
197,0,197,0,,,,,,,,,,,,,,,,,,,,,,,,,,,,,,,,,,,,,,,,,,,,,,,,,,,,,,,,,,426.88630509830546,426.88630509830546,426.88630509830546,426.88630509830546,426.88630509830546,426.88630509830546,s,1,0.7919708201661706,427.69470910693053,428.71146834560204,,,,,,,,,,,,,543,2010-12-28_07h31.41.842,eb_02psyexp,2022.2.4,120.00633917707185,
198,0,198,0,,,,,,,,,,,,,,,,,,,,,,,,,,,,,,,,,,,,,,,,,,,,,,,,,,,,,,,,,,428.71146834560204,428.71146834560204,428.71146834560204,428.71146834560204,428.71146834560204,428.71146834560204,l,1,0.5348594932584092,429.2615180147113,430.2782359000994,,,,,,,,,,,,,543,2010-12-28_07h31.41.842,eb_02psyexp,2022.2.4,120.00633917707185,
199,0,199,0,,,,,0,0,0,0,,,,,,,,,,,,,,,,,,,,,,,,,,,,,,,,,,,,,,,,,,,,,,,,,,430.2782359000994,430.2782359000994,430.2782359000994,430.2782359000994,430.2782359000994,430.2782359000994,s,1,1.0801321064354852,431.37002323323395,432.37010382686276,432.37010382686276,432.37010382686276,space,20.93066210730467,,,,,,,,,543,2010-12-28_07h31.41.842,eb_02psyexp,2022.2.4,120.00633917707185,
199,0,199,0,,,,,,,,,,,,,,,,,,,,,,,,,,,,,,,,,,,,,,,,,,,,,,,,,,,,,,,,,,,,,,,,,,,,,,,,,,,,,,,,,543,2010-12-28_07h31.41.842,eb_02psyexp,2022.2.4,120.00633917707185,
200,0,200,0,,,,,,,,,,,,,,,,,,,,,,,,,,,,,,,,,,,,,,,,,,,,,,,,,,,,,,,,,,453.34686148376204,453.34686148376204,453.34686148376204,453.34686148376204,453.34686148376204,453.34686148376204,s,1,1.0499393972568214,454.4052553049987,455.43034073570743,,,,,,,,,,,,,543,2010-12-28_07h31.41.842,eb_02psyexp,2022.2.4,120.00633917707185,
201,0,201,0,,,,,,,,,,,,,,,,,,,,,,,,,,,,,,,,,,,,,,,,,,,,,,,,,,,,,,,,,,455.43034073570743,455.43034073570743,455.43034073570743,455.43034073570743,455.43034073570743,455.43034073570743,l,1,0.5425195056013763,455.9887039193418,457.02213908638805,,,,,,,,,,,,,543,2010-12-28_07h31.41.842,eb_02psyexp,2022.2.4,120.00633917707185,
202,0,202,0,,,,,,,,,,,,,,,,,,,,,,,,,,,,,,,,,,,,,,,,,,,,,,,,,,,,,,,,,,457.02213908638805,457.02213908638805,457.02213908638805,457.02213908638805,457.02213908638805,457.02213908638805,s,1,0.40668793220538646,457.4388586017303,458.46394976752345,,,,,,,,,,,,,543,2010-12-28_07h31.41.842,eb_02psyexp,2022.2.4,120.00633917707185,
203,0,203,0,,,,,,,,,,,,,,,,,,,,,,,,,,,,,,,,,,,,,,,,,,,,,,,,,,,,,,,,,,458.46394976752345,458.46394976752345,458.46394976752345,458.46394976752345,458.46394976752345,458.46394976752345,s,1,0.46894179366063327,458.9472797252238,459.964038360049,,,,,,,,,,,,,543,2010-12-28_07h31.41.842,eb_02psyexp,2022.2.4,120.00633917707185,
204,0,204,0,,,,,,,,,,,,,,,,,,,,,,,,,,,,,,,,,,,,,,,,,,,,,,,,,,,,,,,,,,459.964038360049,459.964038360049,459.964038360049,459.964038360049,459.964038360049,459.964038360049,l,1,0.568864852306433,460.5474573932588,461.56414750858676,,,,,,,,,,,,,543,2010-12-28_07h31.41.842,eb_02psyexp,2022.2.4,120.00633917707185,
205,0,205,0,,,,,,,,,,,,,,,,,,,,,,,,,,,,,,,,,,,,,,,,,,,,,,,,,,,,,,,,,,461.56414750858676,461.56414750858676,461.56414750858676,461.56414750858676,461.56414750858676,461.56414750858676,s,1,0.5367578192381188,462.1142493975349,463.1476564926561,,,,,,,,,,,,,543,2010-12-28_07h31.41.842,eb_02psyexp,2022.2.4,120.00633917707185,
206,0,206,0,,,,,,,,,,,,,,,,,,,,,,,,,,,,,,,,,,,,,,,,,,,,,,,,,,,,,,,,,,463.1476564926561,463.1476564926561,463.1476564926561,463.1476564926561,463.1476564926561,463.1476564926561,s,1,1.1772869115229696,464.33939737128094,465.35618438001256,,,,,,,,,,,,,543,2010-12-28_07h31.41.842,eb_02psyexp,2022.2.4,120.00633917707185,
207,0,207,0,,,,,,,,,,,,,,,,,,,,,,,,,,,,,,,,,,,,,,,,,,,,,,,,,,,,,,,,,,465.35618438001256,465.35618438001256,465.35618438001256,465.35618438001256,465.35618438001256,465.35618438001256,s,1,0.7597711195703596,466.13124528550543,467.14797071705107,,,,,,,,,,,,,543,2010-12-28_07h31.41.842,eb_02psyexp,2022.2.4,120.00633917707185,
208,0,208,0,,,,,,,,,,,,,,,,,,,,,,,,,,,,,,,,,,,,,,,,,,,,,,,,,,,,,,,,,,467.14797071705107,467.14797071705107,467.14797071705107,467.14797071705107,467.14797071705107,467.14797071705107,l,1,0.8160646782489493,467.9730693687452,468.9981306515401,,,,,,,,,,,,,543,2010-12-28_07h31.41.842,eb_02psyexp,2022.2.4,120.00633917707185,
209,0,209,0,,,,,,,,,,,,,,,,,,,,,,,,,,,,,,,,,,,,,,,,,,,,,,,,,,,,,,,,,,468.9981306515401,468.9981306515401,468.9981306515401,468.9981306515401,468.9981306515401,468.9981306515401,l,1,0.7179035097360611,469.731520450674,470.7649396196939,,,,,,,,,,,,,543,2010-12-28_07h31.41.842,eb_02psyexp,2022.2.4,120.00633917707185,
210,0,210,0,,,,,,,,,,,,,,,,,,,,,,,,,,,,,,,,,,,,,,,,,,,,,,,,,,,,,,,,,,470.7649396196939,470.7649396196939,470.7649396196939,470.7649396196939,470.7649396196939,470.7649396196939,s,1,0.6311156952288002,471.4066426012432,472.4317597260233,,,,,,,,,,,,,543,2010-12-28_07h31.41.842,eb_02psyexp,2022.2.4,120.00633917707185,
211,0,211,0,,,,,,,,,,,,,,,,,,,,,,,,,,,,,,,,,,,,,,,,,,,,,,,,,,,,,,,,,,472.4317597260233,472.4317597260233,472.4317597260233,472.4317597260233,472.4317597260233,472.4317597260233,l,1,0.45232895156368613,472.89844876970164,473.9235668000765,,,,,,,,,,,,,543,2010-12-28_07h31.41.842,eb_02psyexp,2022.2.4,120.00633917707185,
212,0,212,0,,,,,,,,,,,,,,,,,,,,,,,,,,,,,,,,,,,,,,,,,,,,,,,,,,,,,,,,,,473.9235668000765,473.9235668000765,473.9235668000765,473.9235668000765,473.9235668000765,473.9235668000765,s,1,0.5845633950084448,474.52356909413356,475.5486672024708,,,,,,,,,,,,,543,2010-12-28_07h31.41.842,eb_02psyexp,2022.2.4,120.00633917707185,
213,0,213,0,,,,,,,,,,,,,,,,,,,,,,,,,,,,,,,,,,,,,,,,,,,,,,,,,,,,,,,,,,475.5486672024708,475.5486672024708,475.5486672024708,475.5486672024708,475.5486672024708,475.5486672024708,l,1,0.5194634030340239,476.08206841151696,477.1071529366309,,,,,,,,,,,,,543,2010-12-28_07h31.41.842,eb_02psyexp,2022.2.4,120.00633917707185,
214,0,214,0,,,,,,,,,,,,,,,,,,,,,,,,,,,,,,,,,,,,,,,,,,,,,,,,,,,,,,,,,,477.1071529366309,477.1071529366309,477.1071529366309,477.1071529366309,477.1071529366309,477.1071529366309,s,1,0.7770468211965635,477.89887890405953,478.9239253962878,,,,,,,,,,,,,543,2010-12-28_07h31.41.842,eb_02psyexp,2022.2.4,120.00633917707185,
215,0,215,0,,,,,,,,,,,,,,,,,,,,,,,,,,,,,,,,,,,,,,,,,,,,,,,,,,,,,,,,,,478.9239253962878,478.9239253962878,478.9239253962878,478.9239253962878,478.9239253962878,478.9239253962878,s,1,0.5922551013063639,479.53232753346674,480.55741930298973,,,,,,,,,,,,,543,2010-12-28_07h31.41.842,eb_02psyexp,2022.2.4,120.00633917707185,
216,0,216,0,,,,,,,,,,,,,,,,,,,,,,,,,,,,,,,,,,,,,,,,,,,,,,,,,,,,,,,,,,480.55741930298973,480.55741930298973,480.55741930298973,480.55741930298973,480.55741930298973,480.55741930298973,l,1,0.4298068193020299,480.99910018919036,482.0158364874078,,,,,,,,,,,,,543,2010-12-28_07h31.41.842,eb_02psyexp,2022.2.4,120.00633917707185,
217,0,217,0,,,,,,,,,,,,,,,,,,,,,,,,,,,,,,,,,,,,,,,,,,,,,,,,,,,,,,,,,,482.0158364874078,482.0158364874078,482.0158364874078,482.0158364874078,482.0158364874078,482.0158364874078,s,1,0.48345437296666205,482.5075991896447,483.53265413362533,,,,,,,,,,,,,543,2010-12-28_07h31.41.842,eb_02psyexp,2022.2.4,120.00633917707185,
218,0,218,0,,,,,,,,,,,,,,,,,,,,,,,,,,,,,,,,,,,,,,,,,,,,,,,,,,,,,,,,,,483.53265413362533,483.53265413362533,483.53265413362533,483.53265413362533,483.53265413362533,483.53265413362533,l,1,0.5826409212313592,484.12437943695113,485.14110698143486,,,,,,,,,,,,,543,2010-12-28_07h31.41.842,eb_02psyexp,2022.2.4,120.00633917707185,
219,0,219,0,,,,,,,,,,,,,,,,,,,,,,,,,,,,,,,,,,,,,,,,,,,,,,,,,,,,,,,,,,485.14110698143486,485.14110698143486,485.14110698143486,485.14110698143486,485.14110698143486,485.14110698143486,s,1,0.5822530457517132,485.73282232368365,486.7579578612931,,,,,,,,,,,,,543,2010-12-28_07h31.41.842,eb_02psyexp,2022.2.4,120.00633917707185,
220,0,220,0,,,,,,,,,,,,,,,,,,,,,,,,,,,,,,,,,,,,,,,,,,,,,,,,,,,,,,,,,,486.7579578612931,486.7579578612931,486.7579578612931,486.7579578612931,486.7579578612931,486.7579578612931,l,1,0.5573915867134929,487.3246571980417,488.34975560824387,,,,,,,,,,,,,543,2010-12-28_07h31.41.842,eb_02psyexp,2022.2.4,120.00633917707185,
221,0,221,0,,,,,,,,,,,,,,,,,,,,,,,,,,,,,,,,,,,,,,,,,,,,,,,,,,,,,,,,,,488.34975560824387,488.34975560824387,488.34975560824387,488.34975560824387,488.34975560824387,488.34975560824387,l,1,0.5096077440539375,488.87476421846077,489.89983727340586,,,,,,,,,,,,,543,2010-12-28_07h31.41.842,eb_02psyexp,2022.2.4,120.00633917707185,
222,0,222,0,,,,,,,,,,,,,,,,,,,,,,,,,,,,,,,,,,,,,,,,,,,,,,,,,,,,,,,,,,489.89983727340586,489.89983727340586,489.89983727340586,489.89983727340586,489.89983727340586,489.89983727340586,l,1,0.5755604582373053,490.4915752542438,491.5082837822847,,,,,,,,,,,,,543,2010-12-28_07h31.41.842,eb_02psyexp,2022.2.4,120.00633917707185,
223,0,223,0,,,,,,,,,,,,,,,,,,,,,,,,,,,,,,,,,,,,,,,,,,,,,,,,,,,,,,,,,,491.5082837822847,491.5082837822847,491.5082837822847,491.5082837822847,491.5082837822847,491.5082837822847,s,1,0.4231404926395044,491.9416913000168,492.9584206555737,,,,,,,,,,,,,543,2010-12-28_07h31.41.842,eb_02psyexp,2022.2.4,120.00633917707185,
224,0,224,0,,,,,,,,,,,,,,,,,,,,,,,,,,,,,,,,,,,,,,,,,,,,,,,,,,,,,,,,,,492.9584206555737,492.9584206555737,492.9584206555737,492.9584206555737,492.9584206555737,492.9584206555737,l,1,0.4530099220573902,493.4251595042879,494.45861157483887,,,,,,,,,,,,,543,2010-12-28_07h31.41.842,eb_02psyexp,2022.2.4,120.00633917707185,
225,0,225,0,,,,,,,,,,,,,,,,,,,,,,,,,,,,,,,,,,,,,,,,,,,,,,,,,,,,,,,,,,494.45861157483887,494.45861157483887,494.45861157483887,494.45861157483887,494.45861157483887,494.45861157483887,s,1,0.6488272661808878,495.11695094266906,496.1336667150026,,,,,,,,,,,,,543,2010-12-28_07h31.41.842,eb_02psyexp,2022.2.4,120.00633917707185,
226,0,226,0,,,,,,,,,,,,,,,,,,,,,,,,,,,,,,,,,,,,,,,,,,,,,,,,,,,,,,,,,,496.1336667150026,496.1336667150026,496.1336667150026,496.1336667150026,496.1336667150026,496.1336667150026,l,1,0.5968601036584005,496.7420914908871,497.7671666587703,,,,,,,,,,,,,543,2010-12-28_07h31.41.842,eb_02psyexp,2022.2.4,120.00633917707185,
227,0,227,0,,,,,,,,,,,,,,,,,,,,,,,,,,,,,,,,,,,,,,,,,,,,,,,,,,,,,,,,,,497.7671666587703,497.7671666587703,497.7671666587703,497.7671666587703,497.7671666587703,497.7671666587703,s,1,0.5553366012172773,498.3338943691924,499.35896561306436,,,,,,,,,,,,,543,2010-12-28_07h31.41.842,eb_02psyexp,2022.2.4,120.00633917707185,
228,0,228,0,,,,,,,,,,,,,,,,,,,,,,,,,,,,,,,,,,,,,,,,,,,,,,,,,,,,,,,,,,499.35896561306436,499.35896561306436,499.35896561306436,499.35896561306436,499.35896561306436,499.35896561306436,l,1,0.4756156663643196,499.8506516458001,500.867388547631,,,,,,,,,,,,,543,2010-12-28_07h31.41.842,eb_02psyexp,2022.2.4,120.00633917707185,
229,0,229,0,,,,,,,,,,,,,,,,,,,,,,,,,,,,,,,,,,,,,,,,,,,,,,,,,,,,,,,,,,500.867388547631,500.867388547631,500.867388547631,500.867388547631,500.867388547631,500.867388547631,s,1,0.3191645126789808,501.20078788523097,502.2258878046414,,,,,,,,,,,,,543,2010-12-28_07h31.41.842,eb_02psyexp,2022.2.4,120.00633917707185,
230,0,230,0,,,,,,,,,,,,,,,,,,,,,,,,,,,,,,,,,,,,,,,,,,,,,,,,,,,,,,,,,,502.2258878046414,502.2258878046414,502.2258878046414,502.2258878046414,502.2258878046414,502.2258878046414,l,1,0.36072272760793567,502.6008948603412,503.6343390827533,,,,,,,,,,,,,543,2010-12-28_07h31.41.842,eb_02psyexp,2022.2.4,120.00633917707185,
231,0,231,0,,,,,,,,,,,,,,,,,,,,,,,,,,,,,,,,,,,,,,,,,,,,,,,,,,,,,,,,,,503.6343390827533,503.6343390827533,503.6343390827533,503.6343390827533,503.6343390827533,503.6343390827533,s,1,0.3762926827184856,504.0260178410681,505.051099951379,,,,,,,,,,,,,543,2010-12-28_07h31.41.842,eb_02psyexp,2022.2.4,120.00633917707185,
232,0,232,0,,,,,,,,,,,,,,,,,,,,,,,,,,,,,,,,,,,,,,,,,,,,,,,,,,,,,,,,,,505.051099951379,505.051099951379,505.051099951379,505.051099951379,505.051099951379,505.051099951379,l,1,0.31152955384459347,505.3761489489116,506.40955544030294,,,,,,,,,,,,,543,2010-12-28_07h31.41.842,eb_02psyexp,2022.2.4,120.00633917707185,
233,0,233,0,,,,,,,,,,,,,,,,,,,,,,,,,,,,,,,,,,,,,,,,,,,,,,,,,,,,,,,,,,506.40955544030294,506.40955544030294,506.40955544030294,506.40955544030294,506.40955544030294,506.40955544030294,s,1,0.3691123079042882,506.7928956307005,507.82634619192686,,,,,,,,,,,,,543,2010-12-28_07h31.41.842,eb_02psyexp,2022.2.4,120.00633917707185,
234,0,234,0,,,,,,,,,,,,,,,,,,,,,,,,,,,,,,,,,,,,,,,,,,,,,,,,,,,,,,,,,,507.82634619192686,507.82634619192686,507.82634619192686,507.82634619192686,507.82634619192686,507.82634619192686,s,0,0.6163912181509659,508.45137898030225,509.47646199620795,,,,,,,,,,,,,543,2010-12-28_07h31.41.842,eb_02psyexp,2022.2.4,120.00633917707185,
235,0,235,0,,,,,,,,,,,,,,,,,,,,,,,,,,,,,,,,,,,,,,,,,,,,,,,,,,,,,,,,,,509.47646199620795,509.47646199620795,509.47646199620795,509.47646199620795,509.47646199620795,509.47646199620795,l,1,0.8782826196402311,510.3681741086766,511.40165545849595,,,,,,,,,,,,,543,2010-12-28_07h31.41.842,eb_02psyexp,2022.2.4,120.00633917707185,
236,0,236,0,,,,,,,,,,,,,,,,,,,,,,,,,,,,,,,,,,,,,,,,,,,,,,,,,,,,,,,,,,511.40165545849595,511.40165545849595,511.40165545849595,511.40165545849595,511.40165545849595,511.40165545849595,s,1,0.6002027752110735,512.010010809172,513.0350902029313,,,,,,,,,,,,,543,2010-12-28_07h31.41.842,eb_02psyexp,2022.2.4,120.00633917707185,
237,0,237,0,,,,,,,,,,,,,,,,,,,,,,,,,,,,,,,,,,,,,,,,,,,,,,,,,,,,,,,,,,513.0350902029313,513.0350902029313,513.0350902029313,513.0350902029313,513.0350902029313,513.0350902029313,l,1,0.5587459813104942,513.6101250890642,514.6435765558854,,,,,,,,,,,,,543,2010-12-28_07h31.41.842,eb_02psyexp,2022.2.4,120.00633917707185,
238,0,238,0,,,,,,,,,,,,,,,,,,,,,,,,,,,,,,,,,,,,,,,,,,,,,,,,,,,,,,,,,,514.6435765558854,514.6435765558854,514.6435765558854,514.6435765558854,514.6435765558854,514.6435765558854,s,0,0.9262626637937501,515.5853049833095,516.6186888359953,,,,,,,,,,,,,543,2010-12-28_07h31.41.842,eb_02psyexp,2022.2.4,120.00633917707185,
239,0,239,0,,,,,,,,,,,,,,,,,,,,,,,,,,,,,,,,,,,,,,,,,,,,,,,,,,,,,,,,,,516.6186888359953,516.6186888359953,516.6186888359953,516.6186888359953,516.6186888359953,516.6186888359953,s,1,0.6471912467386574,517.2771021566587,518.3105596604291,,,,,,,,,,,,,543,2010-12-28_07h31.41.842,eb_02psyexp,2022.2.4,120.00633917707185,
240,0,240,0,,,,,,,,,,,,,,,,,,,,,,,,,,,,,,,,,,,,,,,,,,,,,,,,,,,,,,,,,,518.3105596604291,518.3105596604291,518.3105596604291,518.3105596604291,518.3105596604291,518.3105596604291,l,1,0.6033362656598911,518.9272448254051,519.952313352609,,,,,,,,,,,,,543,2010-12-28_07h31.41.842,eb_02psyexp,2022.2.4,120.00633917707185,
241,0,241,0,,,,,,,,,,,,,,,,,,,,,,,,,,,,,,,,,,,,,,,,,,,,,,,,,,,,,,,,,,519.952313352609,519.952313352609,519.952313352609,519.952313352609,519.952313352609,519.952313352609,l,1,0.48961842351127416,520.4523774954723,521.4857975699706,,,,,,,,,,,,,543,2010-12-28_07h31.41.842,eb_02psyexp,2022.2.4,120.00633917707185,
242,0,242,0,,,,,,,,,,,,,,,,,,,,,,,,,,,,,,,,,,,,,,,,,,,,,,,,,,,,,,,,,,521.4857975699706,521.4857975699706,521.4857975699706,521.4857975699706,521.4857975699706,521.4857975699706,l,1,0.5161137890536338,522.0108357614372,523.0442356121494,,,,,,,,,,,,,543,2010-12-28_07h31.41.842,eb_02psyexp,2022.2.4,120.00633917707185,
243,0,243,0,,,,,,,,,,,,,,,,,,,,,,,,,,,,,,,,,,,,,,,,,,,,,,,,,,,,,,,,,,523.0442356121494,523.0442356121494,523.0442356121494,523.0442356121494,523.0442356121494,523.0442356121494,s,1,0.5097269741818309,523.5692910088692,524.6026953873225,,,,,,,,,,,,,543,2010-12-28_07h31.41.842,eb_02psyexp,2022.2.4,120.00633917707185,
244,0,244,0,,,,,,,,,,,,,,,,,,,,,,,,,,,,,,,,,,,,,,,,,,,,,,,,,,,,,,,,,,524.6026953873225,524.6026953873225,524.6026953873225,524.6026953873225,524.6026953873225,524.6026953873225,l,1,0.7113096268149093,525.3277535610832,526.3528543860884,,,,,,,,,,,,,543,2010-12-28_07h31.41.842,eb_02psyexp,2022.2.4,120.00633917707185,
245,0,245,0,,,,,,,,,,,,,,,,,,,,,,,,,,,,,,,,,,,,,,,,,,,,,,,,,,,,,,,,,,526.3528543860884,526.3528543860884,526.3528543860884,526.3528543860884,526.3528543860884,526.3528543860884,l,1,0.4811805473873392,526.8445636611432,527.8780211650301,,,,,,,,,,,,,543,2010-12-28_07h31.41.842,eb_02psyexp,2022.2.4,120.00633917707185,
246,0,246,0,,,,,,,,,,,,,,,,,,,,,,,,,,,,,,,,,,,,,,,,,,,,,,,,,,,,,,,,,,527.8780211650301,527.8780211650301,527.8780211650301,527.8780211650301,527.8780211650301,527.8780211650301,s,1,0.4270515451207757,528.3197062771069,529.3447419027798,,,,,,,,,,,,,543,2010-12-28_07h31.41.842,eb_02psyexp,2022.2.4,120.00633917707185,
247,0,247,0,,,,,,,,,,,,,,,,,,,,,,,,,,,,,,,,,,,,,,,,,,,,,,,,,,,,,,,,,,529.3447419027798,529.3447419027798,529.3447419027798,529.3447419027798,529.3447419027798,529.3447419027798,l,1,0.3283216939307749,529.6864499251824,530.7198699997971,,,,,,,,,,,,,543,2010-12-28_07h31.41.842,eb_02psyexp,2022.2.4,120.00633917707185,
248,0,248,0,,,,,,,,,,,,,,,,,,,,,,,,,,,,,,,,,,,,,,,,,,,,,,,,,,,,,,,,,,530.7198699997971,530.7198699997971,530.7198699997971,530.7198699997971,530.7198699997971,530.7198699997971,s,1,0.28923350607510656,531.0199060103623,532.0449573321966,,,,,,,,,,,,,543,2010-12-28_07h31.41.842,eb_02psyexp,2022.2.4,120.00633917707185,
249,0,249,0,,,,,,,,,,,,,,,,,,,,,,,,,,,,,,,,,,,,,,,,,,,,,,,,,,,,,,,,,,532.0449573321966,532.0449573321966,532.0449573321966,532.0449573321966,532.0449573321966,532.0449573321966,l,1,0.3161710798740387,532.3700220258906,533.4034273098223,,,,,,,,,,,,,543,2010-12-28_07h31.41.842,eb_02psyexp,2022.2.4,120.00633917707185,
250,0,250,0,,,,,,,,,,,,,,,,,,,,,,,,,,,,,,,,,,,,,,,,,,,,,,,,,,,,,,,,,,533.4034273098223,533.4034273098223,533.4034273098223,533.4034273098223,533.4034273098223,533.4034273098223,s,1,0.3257176459301263,533.7451262768591,534.7702491367236,,,,,,,,,,,,,543,2010-12-28_07h31.41.842,eb_02psyexp,2022.2.4,120.00633917707185,
251,0,251,0,,,,,,,,,,,,,,,,,,,,,,,,,,,,,,,,,,,,,,,,,,,,,,,,,,,,,,,,,,534.7702491367236,534.7702491367236,534.7702491367236,534.7702491367236,534.7702491367236,534.7702491367236,l,1,0.32693077553994954,535.1119097690098,536.1453440304613,,,,,,,,,,,,,543,2010-12-28_07h31.41.842,eb_02psyexp,2022.2.4,120.00633917707185,
252,0,252,0,,,,,,,,,,,,,,,,,,,,,,,,,,,,,,,,,,,,,,,,,,,,,,,,,,,,,,,,,,536.1453440304613,536.1453440304613,536.1453440304613,536.1453440304613,536.1453440304613,536.1453440304613,s,0,0.33585975924506783,536.4953314583981,537.5120740953134,,,,,,,,,,,,,543,2010-12-28_07h31.41.842,eb_02psyexp,2022.2.4,120.00633917707185,
253,0,253,0,,,,,,,,,,,,,,,,,,,,,,,,,,,,,,,,,,,,,,,,,,,,,,,,,,,,,,,,,,537.5120740953134,537.5120740953134,537.5120740953134,537.5120740953134,537.5120740953134,537.5120740953134,l,1,1.0091324835084379,538.5372262345627,539.5706125020515,,,,,,,,,,,,,543,2010-12-28_07h31.41.842,eb_02psyexp,2022.2.4,120.00633917707185,
254,0,254,0,,,,,,,,,,,,,,,,,,,,,,,,,,,,,,,,,,,,,,,,,,,,,,,,,,,,,,,,,,539.5706125020515,539.5706125020515,539.5706125020515,539.5706125020515,539.5706125020515,539.5706125020515,l,1,0.8466470740968361,540.429011998116,541.4624266393948,,,,,,,,,,,,,543,2010-12-28_07h31.41.842,eb_02psyexp,2022.2.4,120.00633917707185,
255,0,255,0,,,,,,,,,,,,,,,,,,,,,,,,,,,,,,,,,,,,,,,,,,,,,,,,,,,,,,,,,,541.4624266393948,541.4624266393948,541.4624266393948,541.4624266393948,541.4624266393948,541.4624266393948,s,1,0.5948706194758415,542.0708173064049,543.0875345880631,,,,,,,,,,,,,543,2010-12-28_07h31.41.842,eb_02psyexp,2022.2.4,120.00633917707185,
256,0,256,0,,,,,,,,,,,,,,,,,,,,,,,,,,,,,,,,,,,,,,,,,,,,,,,,,,,,,,,,,,543.0875345880631,543.0875345880631,543.0875345880631,543.0875345880631,543.0875345880631,543.0875345880631,l,1,0.5767959246877581,543.6793148277793,544.7126881157747,,,,,,,,,,,,,543,2010-12-28_07h31.41.842,eb_02psyexp,2022.2.4,120.00633917707185,
257,0,257,0,,,,,,,,,,,,,,,,,,,,,,,,,,,,,,,,,,,,,,,,,,,,,,,,,,,,,,,,,,544.7126881157747,544.7126881157747,544.7126881157747,544.7126881157747,544.7126881157747,544.7126881157747,s,1,0.4716644680593163,545.1960941392463,546.2211511962814,,,,,,,,,,,,,543,2010-12-28_07h31.41.842,eb_02psyexp,2022.2.4,120.00633917707185,
258,0,258,0,,,,,,,,,,,,,,,,,,,,,,,,,,,,,,,,,,,,,,,,,,,,,,,,,,,,,,,,,,546.2211511962814,546.2211511962814,546.2211511962814,546.2211511962814,546.2211511962814,546.2211511962814,l,1,0.5552403115434572,546.7878629087936,547.8046272788197,,,,,,,,,,,,,543,2010-12-28_07h31.41.842,eb_02psyexp,2022.2.4,120.00633917707185,
259,0,259,0,,,,,,,,,,,,,,,,,,,,,,,,,,,,,,,,,,,,,,,,,,,,,,,,,,,,,,,,,,547.8046272788197,547.8046272788197,547.8046272788197,547.8046272788197,547.8046272788197,547.8046272788197,s,0,0.4197769935708493,548.2379572213395,549.2630840053316,,,,,,,,,,,,,543,2010-12-28_07h31.41.842,eb_02psyexp,2022.2.4,120.00633917707185,
260,0,260,0,,,,,,,,,,,,,,,,,,,,,,,,,,,,,,,,,,,,,,,,,,,,,,,,,,,,,,,,,,549.2630840053316,549.2630840053316,549.2630840053316,549.2630840053316,549.2630840053316,549.2630840053316,l,1,0.721354243112728,549.9964689748595,551.0298878420144,,,,,,,,,,,,,543,2010-12-28_07h31.41.842,eb_02psyexp,2022.2.4,120.00633917707185,
261,0,261,0,,,,,,,,,,,,,,,,,,,,,,,,,,,,,,,,,,,,,,,,,,,,,,,,,,,,,,,,,,551.0298878420144,551.0298878420144,551.0298878420144,551.0298878420144,551.0298878420144,551.0298878420144,s,1,0.514533007866703,551.5549501813948,552.5800310843624,,,,,,,,,,,,,543,2010-12-28_07h31.41.842,eb_02psyexp,2022.2.4,120.00633917707185,
262,0,262,0,,,,,,,,,,,,,,,,,,,,,,,,,,,,,,,,,,,,,,,,,,,,,,,,,,,,,,,,,,552.5800310843624,552.5800310843624,552.5800310843624,552.5800310843624,552.5800310843624,552.5800310843624,l,1,0.6444465372478589,553.2384036554722,554.2635011600796,,,,,,,,,,,,,543,2010-12-28_07h31.41.842,eb_02psyexp,2022.2.4,120.00633917707185,
263,0,263,0,,,,,,,,,,,,,,,,,,,,,,,,,,,,,,,,,,,,,,,,,,,,,,,,,,,,,,,,,,554.2635011600796,554.2635011600796,554.2635011600796,554.2635011600796,554.2635011600796,554.2635011600796,l,1,0.7290208960184827,555.005238280748,556.1053213193081,,,,,,,,,,,,,543,2010-12-28_07h31.41.842,eb_02psyexp,2022.2.4,120.00633917707185,
264,0,264,0,,,,,,,,,,,,,,,,,,,,,,,,,,,,,,,,,,,,,,,,,,,,,,,,,,,,,,,,,,556.1053213193081,556.1053213193081,556.1053213193081,556.1053213193081,556.1053213193081,556.1053213193081,l,1,0.5592219965765253,556.6803788441466,557.7138236702885,,,,,,,,,,,,,543,2010-12-28_07h31.41.842,eb_02psyexp,2022.2.4,120.00633917707185,
265,0,265,0,,,,,,,,,,,,,,,,,,,,,,,,,,,,,,,,,,,,,,,,,,,,,,,,,,,,,,,,,,557.7138236702885,557.7138236702885,557.7138236702885,557.7138236702885,557.7138236702885,557.7138236702885,s,1,0.5027424992294982,558.2304768090835,559.2639321999159,,,,,,,,,,,,,543,2010-12-28_07h31.41.842,eb_02psyexp,2022.2.4,120.00633917707185,
266,0,266,0,,,,,,,,,,,,,,,,,,,,,,,,,,,,,,,,,,,,,,,,,,,,,,,,,,,,,,,,,,559.2639321999159,559.2639321999159,559.2639321999159,559.2639321999159,559.2639321999159,559.2639321999159,l,1,0.6076937521575019,559.8806200815598,560.9057263397845,,,,,,,,,,,,,543,2010-12-28_07h31.41.842,eb_02psyexp,2022.2.4,120.00633917707185,
267,0,267,0,,,,,,,,,,,,,,,,,,,,,,,,,,,,,,,,,,,,,,,,,,,,,,,,,,,,,,,,,,560.9057263397845,560.9057263397845,560.9057263397845,560.9057263397845,560.9057263397845,560.9057263397845,l,1,0.5818769423058257,561.4974217599956,562.5308400235372,,,,,,,,,,,,,543,2010-12-28_07h31.41.842,eb_02psyexp,2022.2.4,120.00633917707185,
268,0,268,0,,,,,,,,,,,,,,,,,,,,,,,,,,,,,,,,,,,,,,,,,,,,,,,,,,,,,,,,,,562.5308400235372,562.5308400235372,562.5308400235372,562.5308400235372,562.5308400235372,562.5308400235372,s,0,0.6608163911150768,563.2059039173182,564.2310005164472,,,,,,,,,,,,,543,2010-12-28_07h31.41.842,eb_02psyexp,2022.2.4,120.00633917707185,
269,0,269,0,,,,,,,,,,,,,,,,,,,,,,,,,,,,,,,,,,,,,,,,,,,,,,,,,,,,,,,,,,564.2310005164472,564.2310005164472,564.2310005164472,564.2310005164472,564.2310005164472,564.2310005164472,l,1,0.6406945590861142,564.8810185217299,565.9144660644233,,,,,,,,,,,,,543,2010-12-28_07h31.41.842,eb_02psyexp,2022.2.4,120.00633917707185,
270,0,270,0,,,,,,,,,,,,,,,,,,,,,,,,,,,,,,,,,,,,,,,,,,,,,,,,,,,,,,,,,,565.9144660644233,565.9144660644233,565.9144660644233,565.9144660644233,565.9144660644233,565.9144660644233,l,1,0.6772586887236685,566.6061591001926,567.6396235463908,,,,,,,,,,,,,543,2010-12-28_07h31.41.842,eb_02psyexp,2022.2.4,120.00633917707185,
271,0,271,0,,,,,,,,,,,,,,,,,,,,,,,,,,,,,,,,,,,,,,,,,,,,,,,,,,,,,,,,,,567.6396235463908,567.6396235463908,567.6396235463908,567.6396235463908,567.6396235463908,567.6396235463908,s,1,0.5601287499302998,568.2146593381185,569.248090882902,,,,,,,,,,,,,543,2010-12-28_07h31.41.842,eb_02psyexp,2022.2.4,120.00633917707185,
272,0,272,0,,,,,,,,,,,,,,,,,,,,,,,,,,,,,,,,,,,,,,,,,,,,,,,,,,,,,,,,,,569.248090882902,569.248090882902,569.248090882902,569.248090882902,569.248090882902,569.248090882902,l,1,0.5036872854689136,569.7647971471306,570.7981843202142,,,,,,,,,,,,,543,2010-12-28_07h31.41.842,eb_02psyexp,2022.2.4,120.00633917707185,
273,0,273,0,,,,,,,,,,,,,,,,,,,,,,,,,,,,,,,,,,,,,,,,,,,,,,,,,,,,,,,,,,570.7981843202142,570.7981843202142,570.7981843202142,570.7981843202142,570.7981843202142,570.7981843202142,s,1,0.6576499992515892,571.4649039109936,572.4900219413685,,,,,,,,,,,,,543,2010-12-28_07h31.41.842,eb_02psyexp,2022.2.4,120.00633917707185,
274,0,274,0,,,,,,,,,,,,,,,,,,,,,,,,,,,,,,,,,,,,,,,,,,,,,,,,,,,,,,,,,,572.4900219413685,572.4900219413685,572.4900219413685,572.4900219413685,572.4900219413685,572.4900219413685,s,1,0.9168905663536862,573.4150560275884,574.431784175802,,,,,,,,,,,,,543,2010-12-28_07h31.41.842,eb_02psyexp,2022.2.4,120.00633917707185,
275,0,275,0,,,,,,,,,,,,,,,,,,,,,,,,,,,,,,,,,,,,,,,,,,,,,,,,,,,,,,,,,,574.431784175802,574.431784175802,574.431784175802,574.431784175802,574.431784175802,574.431784175802,l,1,0.8470735860755667,575.2902060085908,576.315306833596,,,,,,,,,,,,,543,2010-12-28_07h31.41.842,eb_02psyexp,2022.2.4,120.00633917707185,
276,0,276,0,,,,,,,,,,,,,,,,,,,,,,,,,,,,,,,,,,,,,,,,,,,,,,,,,,,,,,,,,,576.315306833596,576.315306833596,576.315306833596,576.315306833596,576.315306833596,576.315306833596,s,1,0.787602768978104,577.1153752928367,578.1320916690165,,,,,,,,,,,,,543,2010-12-28_07h31.41.842,eb_02psyexp,2022.2.4,120.00633917707185,
277,0,277,0,,,,,,,,,,,,,,,,,,,,,,,,,,,,,,,,,,,,,,,,,,,,,,,,,,,,,,,,,,578.1320916690165,578.1320916690165,578.1320916690165,578.1320916690165,578.1320916690165,578.1320916690165,l,1,0.6348743140697479,578.7821627996163,579.8072612098185,,,,,,,,,,,,,543,2010-12-28_07h31.41.842,eb_02psyexp,2022.2.4,120.00633917707185,
278,0,278,0,,,,,,,,,,,,,,,,,,,,,,,,,,,,,,,,,,,,,,,,,,,,,,,,,,,,,,,,,,579.8072612098185,579.8072612098185,579.8072612098185,579.8072612098185,579.8072612098185,579.8072612098185,s,1,0.8876909390091896,580.7073405657429,581.7240979933413,,,,,,,,,,,,,543,2010-12-28_07h31.41.842,eb_02psyexp,2022.2.4,120.00633917707185,
279,0,279,0,,,,,,,,,,,,,,,,,,,,,,,,,,,,,,,,,,,,,,,,,,,,,,,,,,,,,,,,,,581.7240979933413,581.7240979933413,581.7240979933413,581.7240979933413,581.7240979933413,581.7240979933413,l,1,0.7868713897187263,582.5241438138764,583.5492784458911,,,,,,,,,,,,,543,2010-12-28_07h31.41.842,eb_02psyexp,2022.2.4,120.00633917707185,
280,0,280,0,,,,,,,,,,,,,,,,,,,,,,,,,,,,,,,,,,,,,,,,,,,,,,,,,,,,,,,,,,583.5492784458911,583.5492784458911,583.5492784458911,583.5492784458911,583.5492784458911,583.5492784458911,l,1,0.5297660998767242,584.0909506087191,585.1243501576828,,,,,,,,,,,,,543,2010-12-28_07h31.41.842,eb_02psyexp,2022.2.4,120.00633917707185,
281,0,281,0,,,,,,,,,,,,,,,,,,,,,,,,,,,,,,,,,,,,,,,,,,,,,,,,,,,,,,,,,,585.1243501576828,585.1243501576828,585.1243501576828,585.1243501576828,585.1243501576828,585.1243501576828,l,1,0.6987062400439754,585.8327381381532,586.8494726251811,,,,,,,,,,,,,543,2010-12-28_07h31.41.842,eb_02psyexp,2022.2.4,120.00633917707185,
282,0,282,0,,,,,,,,,,,,,,,,,,,,,,,,,,,,,,,,,,,,,,,,,,,,,,,,,,,,,,,,,,586.8494726251811,586.8494726251811,586.8494726251811,586.8494726251811,586.8494726251811,586.8494726251811,l,1,0.6296221482334659,587.4912474467419,588.5246491085272,,,,,,,,,,,,,543,2010-12-28_07h31.41.842,eb_02psyexp,2022.2.4,120.00633917707185,
283,0,283,0,,,,,,,,,,,,,,,,,,,,,,,,,,,,,,,,,,,,,,,,,,,,,,,,,,,,,,,,,,588.5246491085272,588.5246491085272,588.5246491085272,588.5246491085272,588.5246491085272,588.5246491085272,l,1,0.5304675960214809,589.0663544746349,590.091476127156,,,,,,,,,,,,,543,2010-12-28_07h31.41.842,eb_02psyexp,2022.2.4,120.00633917707185,
284,0,284,0,,,,,,,,,,,,,,,,,,,,,,,,,,,,,,,,,,,,,,,,,,,,,,,,,,,,,,,,,,590.091476127156,590.091476127156,590.091476127156,590.091476127156,590.091476127156,590.091476127156,l,1,0.5626799743622541,590.6664938080357,591.6999289749656,,,,,,,,,,,,,543,2010-12-28_07h31.41.842,eb_02psyexp,2022.2.4,120.00633917707185,
285,0,285,0,,,,,,,,,,,,,,,,,,,,,,,,,,,,,,,,,,,,,,,,,,,,,,,,,,,,,,,,,,591.6999289749656,591.6999289749656,591.6999289749656,591.6999289749656,591.6999289749656,591.6999289749656,s,1,0.5142438368638977,592.2249490554677,593.2500402212609,,,,,,,,,,,,,543,2010-12-28_07h31.41.842,eb_02psyexp,2022.2.4,120.00633917707185,
286,0,286,0,,,,,,,,,,,,,,,,,,,,,,,,,,,,,,,,,,,,,,,,,,,,,,,,,,,,,,,,,,593.2500402212609,593.2500402212609,593.2500402212609,593.2500402212609,593.2500402212609,593.2500402212609,l,1,0.4761568809626624,593.7417700220831,594.7751689673169,,,,,,,,,,,,,543,2010-12-28_07h31.41.842,eb_02psyexp,2022.2.4,120.00633917707185,
287,0,287,0,,,,,,,,,,,,,,,,,,,,,,,,,,,,,,,,,,,,,,,,,,,,,,,,,,,,,,,,,,594.7751689673169,594.7751689673169,594.7751689673169,594.7751689673169,594.7751689673169,594.7751689673169,s,1,0.3590589379891753,595.1502146596322,596.1836075678002,,,,,,,,,,,,,543,2010-12-28_07h31.41.842,eb_02psyexp,2022.2.4,120.00633917707185,
288,0,288,0,,,,,,,,,,,,,,,,,,,,,,,,,,,,,,,,,,,,,,,,,,,,,,,,,,,,,,,,,,596.1836075678002,596.1836075678002,596.1836075678002,596.1836075678002,596.1836075678002,596.1836075678002,l,1,0.5106427829014137,596.7086484758183,597.7420809261966,,,,,,,,,,,,,543,2010-12-28_07h31.41.842,eb_02psyexp,2022.2.4,120.00633917707185,
289,0,289,0,,,,,,,,,,,,,,,,,,,,,,,,,,,,,,,,,,,,,,,,,,,,,,,,,,,,,,,,,,597.7420809261966,597.7420809261966,597.7420809261966,597.7420809261966,597.7420809261966,597.7420809261966,s,1,0.464181037270464,598.2170982749667,599.2422184181632,,,,,,,,,,,,,543,2010-12-28_07h31.41.842,eb_02psyexp,2022.2.4,120.00633917707185,
290,0,290,0,,,,,,,,,,,,,,,,,,,,,,,,,,,,,,,,,,,,,,,,,,,,,,,,,,,,,,,,,,599.2422184181632,599.2422184181632,599.2422184181632,599.2422184181632,599.2422184181632,599.2422184181632,l,1,0.5001007202081382,599.7505583444145,600.7839986428153,,,,,,,,,,,,,543,2010-12-28_07h31.41.842,eb_02psyexp,2022.2.4,120.00633917707185,
291,0,291,0,,,,,,,,,,,,,,,,,,,,,,,,,,,,,,,,,,,,,,,,,,,,,,,,,,,,,,,,,,600.7839986428153,600.7839986428153,600.7839986428153,600.7839986428153,600.7839986428153,600.7839986428153,s,1,0.5023304759524763,601.300683475798,602.3341147187166,,,,,,,,,,,,,543,2010-12-28_07h31.41.842,eb_02psyexp,2022.2.4,120.00633917707185,
292,0,292,0,,,,,,,,,,,,,,,,,,,,,,,,,,,,,,,,,,,,,,,,,,,,,,,,,,,,,,,,,,602.3341147187166,602.3341147187166,602.3341147187166,602.3341147187166,602.3341147187166,602.3341147187166,l,1,0.4882404846139252,602.8341737301089,603.8592398425099,,,,,,,,,,,,,543,2010-12-28_07h31.41.842,eb_02psyexp,2022.2.4,120.00633917707185,
293,0,293,0,,,,,,,,,,,,,,,,,,,,,,,,,,,,,,,,,,,,,,,,,,,,,,,,,,,,,,,,,,603.8592398425099,603.8592398425099,603.8592398425099,603.8592398425099,603.8592398425099,603.8592398425099,s,0,0.8111508847214282,604.684310120414,605.7094257359859,,,,,,,,,,,,,543,2010-12-28_07h31.41.842,eb_02psyexp,2022.2.4,120.00633917707185,
294,0,294,0,,,,,,,,,,,,,,,,,,,,,,,,,,,,,,,,,,,,,,,,,,,,,,,,,,,,,,,,,,605.7094257359859,605.7094257359859,605.7094257359859,605.7094257359859,605.7094257359859,605.7094257359859,s,1,1.1519533613463864,606.8761234427802,607.8928733241046,,,,,,,,,,,,,543,2010-12-28_07h31.41.842,eb_02psyexp,2022.2.4,120.00633917707185,
295,0,295,0,,,,,,,,,,,,,,,,,,,,,,,,,,,,,,,,,,,,,,,,,,,,,,,,,,,,,,,,,,607.8928733241046,607.8928733241046,607.8928733241046,607.8928733241046,607.8928733241046,607.8928733241046,l,1,0.5926146029960364,608.5013104757527,609.5346934228437,,,,,,,,,,,,,543,2010-12-28_07h31.41.842,eb_02psyexp,2022.2.4,120.00633917707185,
296,0,296,0,,,,,,,,,,,,,,,,,,,,,,,,,,,,,,,,,,,,,,,,,,,,,,,,,,,,,,,,,,609.5346934228437,609.5346934228437,609.5346934228437,609.5346934228437,609.5346934228437,609.5346934228437,l,1,0.5908107557334006,610.1347621235764,611.1598466488067,,,,,,,,,,,,,543,2010-12-28_07h31.41.842,eb_02psyexp,2022.2.4,120.00633917707185,
297,0,297,0,,,,,,,,,,,,,,,,,,,,,,,,,,,,,,,,,,,,,,,,,,,,,,,,,,,,,,,,,,611.1598466488067,611.1598466488067,611.1598466488067,611.1598466488067,611.1598466488067,611.1598466488067,l,1,0.5096545305568725,611.6848851420218,612.7183369107079,,,,,,,,,,,,,543,2010-12-28_07h31.41.842,eb_02psyexp,2022.2.4,120.00633917707185,
298,0,298,0,,,,,,,,,,,,,,,,,,,,,,,,,,,,,,,,,,,,,,,,,,,,,,,,,,,,,,,,,,612.7183369107079,612.7183369107079,612.7183369107079,612.7183369107079,612.7183369107079,612.7183369107079,l,1,0.383259046706371,613.1100051042158,614.1434103881475,,,,,,,,,,,,,543,2010-12-28_07h31.41.842,eb_02psyexp,2022.2.4,120.00633917707185,
299,0,299,0,,,,,,,,,,,,,,,,,,,,,,,,,,,,,,,,,,,,,,,,,,,,,,,,,,,,,,,,,,614.1434103881475,614.1434103881475,614.1434103881475,614.1434103881475,614.1434103881475,614.1434103881475,s,1,0.35811475559603423,614.5101253606845,615.543536077952,,,,,,,,,,,,,543,2010-12-28_07h31.41.842,eb_02psyexp,2022.2.4,120.00633917707185,
