trials.thisRepN,trials.thisTrialN,trials.thisN,trials.thisIndex,image_loop.thisRepN,image_loop.thisTrialN,image_loop.thisN,image_loop.thisIndex,break_loop.thisRepN,break_loop.thisTrialN,break_loop.thisN,break_loop.thisIndex,test_trials.thisRepN,test_trials.thisTrialN,test_trials.thisN,test_trials.thisIndex,tools,welcome_text.started,instructions_0_keypress.started,instructions_0_keypress.keys,instructions_0_keypress.rt,consent_image_0.started,consent0_key_resp.started,consent0_text.started,consent0_key_resp.keys,consent0_key_resp.rt,consent_image_1.started,consent1_key_resp.started,consent1_text.started,consent1_key_resp.keys,consent1_key_resp.rt,consent2_text.started,consent_image_2.started,consent2_key_resp.started,consent2_key_resp.keys,consent2_key_resp.rt,agree_button.started,disagree_button.started,consent_image_3.started,agree_button.numClicks,agree_button.timesOn,agree_button.timesOff,disagree_button.numClicks,disagree_button.timesOn,disagree_button.timesOff,instructions_text1.started,instructions1_key_resp.started,instr1_cnt_text.started,instructions1_key_resp.keys,instructions1_key_resp.rt,instructions_text2.started,instr2_cnt_text.started,instructions2_key_resp.started,instructions2_key_resp.keys,instructions2_key_resp.rt,instructions_text3.started,instructions3_key_resp.started,instr3_cnt_text.started,instructions3_key_resp.keys,instructions3_key_resp.rt,text_countdown.started,image.started,small_large_keyresp.started,task_question_text.started,smalleroption_text.started,largeroption_text.started,accuracy_score_text.started,small_large_keyresp.keys,small_large_keyresp.corr,small_large_keyresp.rt,fb_2.started,fb_2.stopped,break_text.started,break_key_resp.started,break_key_resp.keys,break_key_resp.rt,graph.started,debrief_text.started,debriefing_title.started,demo_scr_adv.started,demo_scr_adv_keypress.started,demo_scr_adv_keypress.keys,demo_scr_adv_keypress.rt,text_countdown_2.started,participant,date,expName,psychopyVersion,frameRate,
,,,,,,,,,,,,,,,,[ 2  5  4  7  8 10  9  1 11  0  3  6],15.372804164653644,15.372804164653644,return,8.80244351143483,,,,,,,,,,,,,,,,,,,,,,,,,,,,,,,,,,,,,,,,,,,,,,,,,,,,,,,,,,,,,,,,545,2010-12-28_08h32.50.344,eb_02psyexp,2022.2.4,119.92727437430851,
,,,,,,,,,,,,,,,,,,,,,24.189817499369383,24.189817499369383,24.189817499369383,space,9.601592237944715,,,,,,,,,,,,,,,,,,,,,,,,,,,,,,,,,,,,,,,,,,,,,,,,,,,,,,,,,,,545,2010-12-28_08h32.50.344,eb_02psyexp,2022.2.4,119.92727437430851,
,,,,,,,,,,,,,,,,,,,,,,,,,,33.80727056716569,33.80727056716569,33.80727056716569,space,9.247299845097587,,,,,,,,,,,,,,,,,,,,,,,,,,,,,,,,,,,,,,,,,,,,,,,,,,,,,,545,2010-12-28_08h32.50.344,eb_02psyexp,2022.2.4,119.92727437430851,
,,,,,,,,,,,,,,,,,,,,,,,,,,,,,,,43.06637107639108,43.06637107639108,43.06637107639108,space,13.907442154712044,,,,,,,,,,,,,,,,,,,,,,,,,,,,,,,,,,,,,,,,,,,,,,,,,545,2010-12-28_08h32.50.344,eb_02psyexp,2022.2.4,119.92727437430851,
,,,,,,,,,,,,,,,,,,,,,,,,,,,,,,,,,,,,56.99251113599166,56.99251113599166,56.99251113599166,1,[9.71718867868185],[9.717192602693103],0,,,66.70163774001412,68.69346639630385,68.69346639630385,space,2.127588798641227,,,,,,,,,,,,,,,,,,,,,,,,,,,,,,,,,,,545,2010-12-28_08h32.50.344,eb_02psyexp,2022.2.4,119.92727437430851,
,,,,,,,,,,,,,,,,,,,,,,,,,,,,,,,,,,,,,,,,,,,,,,,,,,70.83530807727948,73.8272547563538,73.8272547563538,space,12.273058398277499,,,,,,,,,,,,,,,,,,,,,,,,,,,,,,545,2010-12-28_08h32.50.344,eb_02psyexp,2022.2.4,119.92727437430851,
,,,,,,,,,,,,,,,,,,,,,,,,,,,,,,,,,,,,,,,,,,,,,,,,,,,,,,,86.11157381150406,89.10351535922382,89.10351535922382,space,26.307318517472595,,,,,,,,,,,,,,,,,,,,,,,,,545,2010-12-28_08h32.50.344,eb_02psyexp,2022.2.4,119.92727437430851,
0,0,0,0,,,,,,,,,,,,,,,,,,,,,,,,,,,,,,,,,,,,,,,,,,,,,,,,,,,,,,,,,115.43064077338204,120.4810669986764,120.4810669986764,120.4810669986764,120.4810669986764,120.4810669986764,120.4810669986764,s,1,1.3458319854689762,121.83951765799429,122.86460037215147,,,,,,,,,,,,,545,2010-12-28_08h32.50.344,eb_02psyexp,2022.2.4,119.92727437430851,
1,0,1,0,,,,,,,,,,,,,,,,,,,,,,,,,,,,,,,,,,,,,,,,,,,,,,,,,,,,,,,,,,122.86460037215147,122.86460037215147,122.86460037215147,122.86460037215147,122.86460037215147,122.86460037215147,l,1,0.850421140785329,123.73132666398305,124.76476816972718,,,,,,,,,,,,,545,2010-12-28_08h32.50.344,eb_02psyexp,2022.2.4,119.92727437430851,
2,0,2,0,,,,,,,,,,,,,,,,,,,,,,,,,,,,,,,,,,,,,,,,,,,,,,,,,,,,,,,,,,124.76476816972718,124.76476816972718,124.76476816972718,124.76476816972718,124.76476816972718,124.76476816972718,s,1,0.6141901916125789,125.38980669318698,126.41489393496886,,,,,,,,,,,,,545,2010-12-28_08h32.50.344,eb_02psyexp,2022.2.4,119.92727437430851,
3,0,3,0,,,,,,,,,,,,,,,,,,,,,,,,,,,,,,,,,,,,,,,,,,,,,,,,,,,,,,,,,,126.41489393496886,126.41489393496886,126.41489393496886,126.41489393496886,126.41489393496886,126.41489393496886,l,1,0.3561262305593118,126.7815871743951,127.81502475612797,,,,,,,,,,,,,545,2010-12-28_08h32.50.344,eb_02psyexp,2022.2.4,119.92727437430851,
4,0,4,0,,,,,,,,,,,,,,,,,,,,,,,,,,,,,,,,,,,,,,,,,,,,,,,,,,,,,,,,,,127.81502475612797,127.81502475612797,127.81502475612797,127.81502475612797,127.81502475612797,127.81502475612797,s,1,0.7480039070360363,128.57339494267944,129.59844928304665,,,,,,,,,,,,,545,2010-12-28_08h32.50.344,eb_02psyexp,2022.2.4,119.92727437430851,
5,0,5,0,,,,,,,,,,,,,,,,,,,,,,,,,,,,,,,,,,,,,,,,,,,,,,,,,,,,,,,,,,129.59844928304665,129.59844928304665,129.59844928304665,129.59844928304665,129.59844928304665,129.59844928304665,s,1,0.636615430470556,130.2485315820668,131.28195678803604,,,,,,,,,,,,,545,2010-12-28_08h32.50.344,eb_02psyexp,2022.2.4,119.92727437430851,
6,0,6,0,,,,,,,,,,,,,,,,,,,,,,,,,,,,,,,,,,,,,,,,,,,,,,,,,,,,,,,,,,131.28195678803604,131.28195678803604,131.28195678803604,131.28195678803604,131.28195678803604,131.28195678803604,s,1,0.696133034187369,131.9903483906528,133.01543774548918,,,,,,,,,,,,,545,2010-12-28_08h32.50.344,eb_02psyexp,2022.2.4,119.92727437430851,
7,0,7,0,,,,,,,,,,,,,,,,,,,,,,,,,,,,,,,,,,,,,,,,,,,,,,,,,,,,,,,,,,133.01543774548918,133.01543774548918,133.01543774548918,133.01543774548918,133.01543774548918,133.01543774548918,l,1,0.514681269065477,133.5404798608506,134.57389902987052,,,,,,,,,,,,,545,2010-12-28_08h32.50.344,eb_02psyexp,2022.2.4,119.92727437430851,
8,0,8,0,,,,,,,,,,,,,,,,,,,,,,,,,,,,,,,,,,,,,,,,,,,,,,,,,,,,,,,,,,134.57389902987052,134.57389902987052,134.57389902987052,134.57389902987052,134.57389902987052,134.57389902987052,s,1,0.5482513624010608,135.1322703633923,136.15735911449883,,,,,,,,,,,,,545,2010-12-28_08h32.50.344,eb_02psyexp,2022.2.4,119.92727437430851,
9,0,9,0,,,,,,,,,,,,,,,,,,,,,,,,,,,,,,,,,,,,,,,,,,,,,,,,,,,,,,,,,,136.15735911449883,136.15735911449883,136.15735911449883,136.15735911449883,136.15735911449883,136.15735911449883,s,1,0.5248339471872896,136.6907376848394,137.72416138160042,,,,,,,,,,,,,545,2010-12-28_08h32.50.344,eb_02psyexp,2022.2.4,119.92727437430851,
10,0,10,0,,,,,,,,,,,,,,,,,,,,,,,,,,,,,,,,,,,,,,,,,,,,,,,,,,,,,,,,,,137.72416138160042,137.72416138160042,137.72416138160042,137.72416138160042,137.72416138160042,137.72416138160042,s,1,0.5820689715910703,138.3158643480856,139.34096004161984,,,,,,,,,,,,,545,2010-12-28_08h32.50.344,eb_02psyexp,2022.2.4,119.92727437430851,
11,0,11,0,,,,,,,,,,,,,,,,,,,,,,,,,,,,,,,,,,,,,,,,,,,,,,,,,,,,,,,,,,139.34096004161984,139.34096004161984,139.34096004161984,139.34096004161984,139.34096004161984,139.34096004161984,l,1,0.35729196993634105,139.70765328104608,140.74107214820106,,,,,,,,,,,,,545,2010-12-28_08h32.50.344,eb_02psyexp,2022.2.4,119.92727437430851,
12,0,12,0,,,,,,,,,,,,,,,,,,,,,,,,,,,,,,,,,,,,,,,,,,,,,,,,,,,,,,,,,,140.74107214820106,140.74107214820106,140.74107214820106,140.74107214820106,140.74107214820106,140.74107214820106,s,1,0.5172131753060967,141.27445434080437,142.2995346400421,,,,,,,,,,,,,545,2010-12-28_08h32.50.344,eb_02psyexp,2022.2.4,119.92727437430851,
13,0,13,0,,,,,,,,,,,,,,,,,,,,,,,,,,,,,,,,,,,,,,,,,,,,,,,,,,,,,,,,,,142.2995346400421,142.2995346400421,142.2995346400421,142.2995346400421,142.2995346400421,142.2995346400421,l,1,0.4467626149998978,142.7579056415707,143.79133960115723,,,,,,,,,,,,,545,2010-12-28_08h32.50.344,eb_02psyexp,2022.2.4,119.92727437430851,
14,0,14,0,,,,,,,,,,,,,,,,,,,,,,,,,,,,,,,,,,,,,,,,,,,,,,,,,,,,,,,,,,143.79133960115723,143.79133960115723,143.79133960115723,143.79133960115723,143.79133960115723,143.79133960115723,s,1,0.7309699861798435,144.53304351842962,145.55813860835042,,,,,,,,,,,,,545,2010-12-28_08h32.50.344,eb_02psyexp,2022.2.4,119.92727437430851,
15,0,15,0,,,,,,,,,,,,,,,,,,,,,,,,,,,,,,,,,,,,,,,,,,,,,,,,,,,,,,,,,,145.55813860835042,145.55813860835042,145.55813860835042,145.55813860835042,145.55813860835042,145.55813860835042,l,1,0.5152737979078665,146.0831801200984,147.1166014020564,,,,,,,,,,,,,545,2010-12-28_08h32.50.344,eb_02psyexp,2022.2.4,119.92727437430851,
16,0,16,0,,,,,,,,,,,,,,,,,,,,,,,,,,,,,,,,,,,,,,,,,,,,,,,,,,,,,,,,,,147.1166014020564,147.1166014020564,147.1166014020564,147.1166014020564,147.1166014020564,147.1166014020564,s,1,0.6287664610426873,147.75831826857757,148.77506271668244,,,,,,,,,,,,,545,2010-12-28_08h32.50.344,eb_02psyexp,2022.2.4,119.92727437430851,
17,0,17,0,,,,,,,,,,,,,,,,,,,,,,,,,,,,,,,,,,,,,,,,,,,,,,,,,,,,,,,,,,148.77506271668244,148.77506271668244,148.77506271668244,148.77506271668244,148.77506271668244,148.77506271668244,s,1,0.5783408394781873,149.3667822848074,150.4001999446191,,,,,,,,,,,,,545,2010-12-28_08h32.50.344,eb_02psyexp,2022.2.4,119.92727437430851,
18,0,18,0,,,,,,,,,,,,,,,,,,,,,,,,,,,,,,,,,,,,,,,,,,,,,,,,,,,,,,,,,,150.4001999446191,150.4001999446191,150.4001999446191,150.4001999446191,150.4001999446191,150.4001999446191,s,1,0.5372311715036631,150.95024840638507,151.97534228884615,,,,,,,,,,,,,545,2010-12-28_08h32.50.344,eb_02psyexp,2022.2.4,119.92727437430851,
19,0,19,0,,,,,,,,,,,,,,,,,,,,,,,,,,,,,,,,,,,,,,,,,,,,,,,,,,,,,,,,,,151.97534228884615,151.97534228884615,151.97534228884615,151.97534228884615,151.97534228884615,151.97534228884615,l,1,0.6341378571232781,152.62538414017763,153.6588051202707,,,,,,,,,,,,,545,2010-12-28_08h32.50.344,eb_02psyexp,2022.2.4,119.92727437430851,
20,0,20,0,,,,,,,,,,,,,,,,,,,,,,,,,,,,,,,,,,,,,,,,,,,,,,,,,,,,,,,,,,153.6588051202707,153.6588051202707,153.6588051202707,153.6588051202707,153.6588051202707,153.6588051202707,s,1,0.5187015908304602,154.19218218140304,155.21726912132,,,,,,,,,,,,,545,2010-12-28_08h32.50.344,eb_02psyexp,2022.2.4,119.92727437430851,
21,0,21,0,,,,,,,,,,,,,,,,,,,,,,,,,,,,,,,,,,,,,,,,,,,,,,,,,,,,,,,,,,155.21726912132,155.21726912132,155.21726912132,155.21726912132,155.21726912132,155.21726912132,l,1,0.4402511367807165,155.66730366786942,156.70072766649537,,,,,,,,,,,,,545,2010-12-28_08h32.50.344,eb_02psyexp,2022.2.4,119.92727437430851,
22,0,22,0,,,,,,,,,,,,,,,,,,,,,,,,,,,,,,,,,,,,,,,,,,,,,,,,,,,,,,,,,,156.70072766649537,156.70072766649537,156.70072766649537,156.70072766649537,156.70072766649537,156.70072766649537,s,1,0.540809586760588,157.25076797837391,158.2758518998744,,,,,,,,,,,,,545,2010-12-28_08h32.50.344,eb_02psyexp,2022.2.4,119.92727437430851,
23,0,23,0,,,,,,,,,,,,,,,,,,,,,,,,,,,,,,,,,,,,,,,,,,,,,,,,,,,,,,,,,,158.2758518998744,158.2758518998744,158.2758518998744,158.2758518998744,158.2758518998744,158.2758518998744,l,1,0.49373599397949874,158.7842280479381,159.81765023537446,,,,,,,,,,,,,545,2010-12-28_08h32.50.344,eb_02psyexp,2022.2.4,119.92727437430851,
24,0,24,0,,,,,,,,,,,,,,,,,,,,,,,,,,,,,,,,,,,,,,,,,,,,,,,,,,,,,,,,,,159.81765023537446,159.81765023537446,159.81765023537446,159.81765023537446,159.81765023537446,159.81765023537446,s,1,0.7759780288906768,160.60936926025897,161.63446284085512,,,,,,,,,,,,,545,2010-12-28_08h32.50.344,eb_02psyexp,2022.2.4,119.92727437430851,
25,0,25,0,,,,,,,,,,,,,,,,,,,,,,,,,,,,,,,,,,,,,,,,,,,,,,,,,,,,,,,,,,161.63446284085512,161.63446284085512,161.63446284085512,161.63446284085512,161.63446284085512,161.63446284085512,l,1,0.4541811482049525,162.10116788255982,163.13458916451782,,,,,,,,,,,,,545,2010-12-28_08h32.50.344,eb_02psyexp,2022.2.4,119.92727437430851,
26,0,26,0,,,,,,,,,,,,,,,,,,,,,,,,,,,,,,,,,,,,,,,,,,,,,,,,,,,,,,,,,,163.13458916451782,163.13458916451782,163.13458916451782,163.13458916451782,163.13458916451782,163.13458916451782,s,1,0.4500859681284055,163.59295956231654,164.6180247691227,,,,,,,,,,,,,545,2010-12-28_08h32.50.344,eb_02psyexp,2022.2.4,119.92727437430851,
27,0,27,0,,,,,,,,,,,,,,,,,,,,,,,,,,,,,,,,,,,,,,,,,,,,,,,,,,,,,,,,,,164.6180247691227,164.6180247691227,164.6180247691227,164.6180247691227,164.6180247691227,164.6180247691227,l,1,0.44664338475558907,165.07641418348067,166.109862329904,,,,,,,,,,,,,545,2010-12-28_08h32.50.344,eb_02psyexp,2022.2.4,119.92727437430851,
28,0,28,0,,,,,,,,,,,,,,,,,,,,,,,,,,,,,,,,,,,,,,,,,,,,,,,,,,,,,,,,,,166.109862329904,166.109862329904,166.109862329904,166.109862329904,166.109862329904,166.109862329904,s,1,0.4748568726936355,166.59320496523287,167.6099346226547,,,,,,,,,,,,,545,2010-12-28_08h32.50.344,eb_02psyexp,2022.2.4,119.92727437430851,
29,0,29,0,,,,,,,,,,,,,,,,,,,,,,,,,,,,,,,,,,,,,,,,,,,,,,,,,,,,,,,,,,167.6099346226547,167.6099346226547,167.6099346226547,167.6099346226547,167.6099346226547,167.6099346226547,s,1,0.5668241075472906,168.18499697709922,169.21842550334986,,,,,,,,,,,,,545,2010-12-28_08h32.50.344,eb_02psyexp,2022.2.4,119.92727437430851,
30,0,30,0,,,,,,,,,,,,,,,,,,,,,,,,,,,,,,,,,,,,,,,,,,,,,,,,,,,,,,,,,,169.21842550334986,169.21842550334986,169.21842550334986,169.21842550334986,169.21842550334986,169.21842550334986,s,1,0.47830519115086645,169.71012059156783,170.73521719069686,,,,,,,,,,,,,545,2010-12-28_08h32.50.344,eb_02psyexp,2022.2.4,119.92727437430851,
31,0,31,0,,,,,,,,,,,,,,,,,,,,,,,,,,,,,,,,,,,,,,,,,,,,,,,,,,,,,,,,,,170.73521719069686,170.73521719069686,170.73521719069686,170.73521719069686,170.73521719069686,170.73521719069686,l,1,0.4495827865321189,171.19358487194404,172.22700404084753,,,,,,,,,,,,,545,2010-12-28_08h32.50.344,eb_02psyexp,2022.2.4,119.92727437430851,
32,0,32,0,,,,,,,,,,,,,,,,,,,,,,,,,,,,,,,,,,,,,,,,,,,,,,,,,,,,,,,,,,172.22700404084753,172.22700404084753,172.22700404084753,172.22700404084753,172.22700404084753,172.22700404084753,s,1,0.4458057547453791,172.6853671943536,173.71046047308482,,,,,,,,,,,,,545,2010-12-28_08h32.50.344,eb_02psyexp,2022.2.4,119.92727437430851,
33,0,33,0,,,,,,,,,,,,,,,,,,,,,,,,,,,,,,,,,,,,,,,,,,,,,,,,,,,,,,,,,,173.71046047308482,173.71046047308482,173.71046047308482,173.71046047308482,173.71046047308482,173.71046047308482,l,1,0.37036593875382096,174.09384352597408,175.1272442821646,,,,,,,,,,,,,545,2010-12-28_08h32.50.344,eb_02psyexp,2022.2.4,119.92727437430851,
34,0,34,0,,,,,,,,,,,,,,,,,,,,,,,,,,,,,,,,,,,,,,,,,,,,,,,,,,,,,,,,,,175.1272442821646,175.1272442821646,175.1272442821646,175.1272442821646,175.1272442821646,175.1272442821646,s,1,0.3856126139871776,175.52726915455423,176.55236001848243,,,,,,,,,,,,,545,2010-12-28_08h32.50.344,eb_02psyexp,2022.2.4,119.92727437430851,
35,0,35,0,,,,,,,,,,,,,,,,,,,,,,,,,,,,,,,,,,,,,,,,,,,,,,,,,,,,,,,,,,176.55236001848243,176.55236001848243,176.55236001848243,176.55236001848243,176.55236001848243,176.55236001848243,l,1,0.5365242421394214,177.10240636742674,178.13582432898693,,,,,,,,,,,,,545,2010-12-28_08h32.50.344,eb_02psyexp,2022.2.4,119.92727437430851,
36,0,36,0,,,,,,,,,,,,,,,,,,,,,,,,,,,,,,,,,,,,,,,,,,,,,,,,,,,,,,,,,,178.13582432898693,178.13582432898693,178.13582432898693,178.13582432898693,178.13582432898693,178.13582432898693,s,1,0.512081447057426,178.6608646332752,179.68596515641548,,,,,,,,,,,,,545,2010-12-28_08h32.50.344,eb_02psyexp,2022.2.4,119.92727437430851,
37,0,37,0,,,,,,,,,,,,,,,,,,,,,,,,,,,,,,,,,,,,,,,,,,,,,,,,,,,,,,,,,,179.68596515641548,179.68596515641548,179.68596515641548,179.68596515641548,179.68596515641548,179.68596515641548,l,1,0.5219697057036683,180.21932229562663,181.24441195221152,,,,,,,,,,,,,545,2010-12-28_08h32.50.344,eb_02psyexp,2022.2.4,119.92727437430851,
38,0,38,0,,,,,,,,,,,,,,,,,,,,,,,,,,,,,,,,,,,,,,,,,,,,,,,,,,,,,,,,,,181.24441195221152,181.24441195221152,181.24441195221152,181.24441195221152,181.24441195221152,181.24441195221152,s,1,0.5555482507916167,181.81114087009337,182.83621271757875,,,,,,,,,,,,,545,2010-12-28_08h32.50.344,eb_02psyexp,2022.2.4,119.92727437430851,
39,0,39,0,,,,,,,,,,,,,,,,,,,,,,,,,,,,,,,,,,,,,,,,,,,,,,,,,,,,,,,,,,182.83621271757875,182.83621271757875,182.83621271757875,182.83621271757875,182.83621271757875,182.83621271757875,l,1,0.4517778296722099,183.30290900566615,184.31967126275413,,,,,,,,,,,,,545,2010-12-28_08h32.50.344,eb_02psyexp,2022.2.4,119.92727437430851,
40,0,40,0,,,,,,,,,,,,,,,,,,,,,,,,,,,,,,,,,,,,,,,,,,,,,,,,,,,,,,,,,,184.31967126275413,184.31967126275413,184.31967126275413,184.31967126275413,184.31967126275413,184.31967126275413,s,1,0.4723397570196539,184.80305706243962,185.82814611529466,,,,,,,,,,,,,545,2010-12-28_08h32.50.344,eb_02psyexp,2022.2.4,119.92727437430851,
41,0,41,0,,,,,,,,,,,,,,,,,,,,,,,,,,,,,,,,,,,,,,,,,,,,,,,,,,,,,,,,,,185.82814611529466,185.82814611529466,185.82814611529466,185.82814611529466,185.82814611529466,185.82814611529466,l,1,0.4358809724217281,186.27817492675968,187.3115524406312,,,,,,,,,,,,,545,2010-12-28_08h32.50.344,eb_02psyexp,2022.2.4,119.92727437430851,
42,0,42,0,,,,,,,,,,,,,,,,,,,,,,,,,,,,,,,,,,,,,,,,,,,,,,,,,,,,,,,,,,187.3115524406312,187.3115524406312,187.3115524406312,187.3115524406312,187.3115524406312,187.3115524406312,s,1,0.4565355674130842,187.77827921544667,188.795049924287,,,,,,,,,,,,,545,2010-12-28_08h32.50.344,eb_02psyexp,2022.2.4,119.92727437430851,
43,0,43,0,,,,,,,,,,,,,,,,,,,,,,,,,,,,,,,,,,,,,,,,,,,,,,,,,,,,,,,,,,188.795049924287,188.795049924287,188.795049924287,188.795049924287,188.795049924287,188.795049924287,s,1,0.34105583489872515,189.14506995200645,190.17848942277487,,,,,,,,,,,,,545,2010-12-28_08h32.50.344,eb_02psyexp,2022.2.4,119.92727437430851,
44,0,44,0,,,,,,,,,,,,,,,,,,,,,,,,,,,,,,,,,,,,,,,,,,,,,,,,,,,,,,,,,,190.17848942277487,190.17848942277487,190.17848942277487,190.17848942277487,190.17848942277487,190.17848942277487,l,1,0.9976686286972836,191.18690224550664,192.2036545415176,,,,,,,,,,,,,545,2010-12-28_08h32.50.344,eb_02psyexp,2022.2.4,119.92727437430851,
45,0,45,0,,,,,,,,,,,,,,,,,,,,,,,,,,,,,,,,,,,,,,,,,,,,,,,,,,,,,,,,,,192.2036545415176,192.2036545415176,192.2036545415176,192.2036545415176,192.2036545415176,192.2036545415176,s,1,0.5556777437450364,192.7703674614895,193.8037830083631,,,,,,,,,,,,,545,2010-12-28_08h32.50.344,eb_02psyexp,2022.2.4,119.92727437430851,
46,0,46,0,,,,,,,,,,,,,,,,,,,,,,,,,,,,,,,,,,,,,,,,,,,,,,,,,,,,,,,,,,193.8037830083631,193.8037830083631,193.8037830083631,193.8037830083631,193.8037830083631,193.8037830083631,l,1,0.5234113346086815,194.3371639935067,195.3622482167557,,,,,,,,,,,,,545,2010-12-28_08h32.50.344,eb_02psyexp,2022.2.4,119.92727437430851,
47,0,47,0,,,,,,,,,,,,,,,,,,,,,,,,,,,,,,,,,,,,,,,,,,,,,,,,,,,,,,,,,,195.3622482167557,195.3622482167557,195.3622482167557,195.3622482167557,195.3622482167557,195.3622482167557,l,1,0.3809541843365878,195.75393935083412,196.7873835732462,,,,,,,,,,,,,545,2010-12-28_08h32.50.344,eb_02psyexp,2022.2.4,119.92727437430851,
48,0,48,0,,,,,,,,,,,,,,,,,,,,,,,,,,,,,,,,,,,,,,,,,,,,,,,,,,,,,,,,,,196.7873835732462,196.7873835732462,196.7873835732462,196.7873835732462,196.7873835732462,196.7873835732462,s,1,0.3318603187799454,197.1290674478514,198.1541450304212,,,,,,,,,,,,,545,2010-12-28_08h32.50.344,eb_02psyexp,2022.2.4,119.92727437430851,
49,0,49,0,,,,,,,,,,,,,,,,,,,,,,,,,,,,,,,,,,,,,,,,,,,,,,,,,,,,,,,,,,198.1541450304212,198.1541450304212,198.1541450304212,198.1541450304212,198.1541450304212,198.1541450304212,l,1,0.4611167238326743,198.6291750568198,199.66260358318686,,,,,,,,,,,,,545,2010-12-28_08h32.50.344,eb_02psyexp,2022.2.4,119.92727437430851,
50,0,50,0,,,,,,,,,,,,,,,,,,,,,,,,,,,,,,,,,,,,,,,,,,,,,,,,,,,,,,,,,,199.66260358318686,199.66260358318686,199.66260358318686,199.66260358318686,199.66260358318686,199.66260358318686,s,1,0.544682908221148,200.22098216111772,201.24606668623164,,,,,,,,,,,,,545,2010-12-28_08h32.50.344,eb_02psyexp,2022.2.4,119.92727437430851,
51,0,51,0,,,,,,,,,,,,,,,,,,,,,,,,,,,,,,,,,,,,,,,,,,,,,,,,,,,,,,,,,,201.24606668623164,201.24606668623164,201.24606668623164,201.24606668623164,201.24606668623164,201.24606668623164,l,1,0.5372417363105342,201.79611212958116,202.82952526165172,,,,,,,,,,,,,545,2010-12-28_08h32.50.344,eb_02psyexp,2022.2.4,119.92727437430851,
52,0,52,0,,,,,,,,,,,,,,,,,,,,,,,,,,,,,,,,,,,,,,,,,,,,,,,,,,,,,,,,,,202.82952526165172,202.82952526165172,202.82952526165172,202.82952526165172,202.82952526165172,202.82952526165172,l,1,0.6498297590296715,203.48791775479913,204.50467156013474,,,,,,,,,,,,,545,2010-12-28_08h32.50.344,eb_02psyexp,2022.2.4,119.92727437430851,
53,0,53,0,,,,,,,,,,,,,,,,,,,,,,,,,,,,,,,,,,,,,,,,,,,,,,,,,,,,,,,,,,204.50467156013474,204.50467156013474,204.50467156013474,204.50467156013474,204.50467156013474,204.50467156013474,s,1,0.47868461487814784,204.99638928694185,206.0297978912713,,,,,,,,,,,,,545,2010-12-28_08h32.50.344,eb_02psyexp,2022.2.4,119.92727437430851,
54,0,54,0,,,,,,,,,,,,,,,,,,,,,,,,,,,,,,,,,,,,,,,,,,,,,,,,,,,,,,,,,,206.0297978912713,206.0297978912713,206.0297978912713,206.0297978912713,206.0297978912713,206.0297978912713,s,1,0.5295750832883641,206.57150537043344,207.5965935176937,,,,,,,,,,,,,545,2010-12-28_08h32.50.344,eb_02psyexp,2022.2.4,119.92727437430851,
55,0,55,0,,,,,,,,,,,,,,,,,,,,,,,,,,,,,,,,,,,,,,,,,,,,,,,,,,,,,,,,,,207.5965935176937,207.5965935176937,207.5965935176937,207.5965935176937,207.5965935176937,207.5965935176937,l,1,0.4268409084761515,208.03829553339165,209.07171228760853,,,,,,,,,,,,,545,2010-12-28_08h32.50.344,eb_02psyexp,2022.2.4,119.92727437430851,
56,0,56,0,,,,,,,,,,,,,,,,,,,,,,,,,,,,,,,,,,,,,,,,,,,,,,,,,,,,,,,,,,209.07171228760853,209.07171228760853,209.07171228760853,209.07171228760853,209.07171228760853,209.07171228760853,s,1,0.5427628491306677,209.63008422486018,210.65517689997796,,,,,,,,,,,,,545,2010-12-28_08h32.50.344,eb_02psyexp,2022.2.4,119.92727437430851,
57,0,57,0,,,,,,,,,,,,,,,,,,,,,,,,,,,,,,,,,,,,,,,,,,,,,,,,,,,,,,,,,,210.65517689997796,210.65517689997796,210.65517689997796,210.65517689997796,210.65517689997796,210.65517689997796,l,1,0.5032949357992038,211.17187803273555,212.20530565350782,,,,,,,,,,,,,545,2010-12-28_08h32.50.344,eb_02psyexp,2022.2.4,119.92727437430851,
58,0,58,0,,,,,,,,,,,,,,,,,,,,,,,,,,,,,,,,,,,,,,,,,,,,,,,,,,,,,,,,,,212.20530565350782,212.20530565350782,212.20530565350782,212.20530565350782,212.20530565350782,212.20530565350782,s,1,0.4012266389327124,212.62200403935276,213.6387626742944,,,,,,,,,,,,,545,2010-12-28_08h32.50.344,eb_02psyexp,2022.2.4,119.92727437430851,
59,0,59,0,,,,,,,,,,,,,,,,,,,,,,,,,,,,,,,,,,,,,,,,,,,,,,,,,,,,,,,,,,213.6387626742944,213.6387626742944,213.6387626742944,213.6387626742944,213.6387626742944,213.6387626742944,s,1,0.5437818900682032,214.19714336516336,215.2305685711326,,,,,,,,,,,,,545,2010-12-28_08h32.50.344,eb_02psyexp,2022.2.4,119.92727437430851,
60,0,60,0,,,,,,,,,,,,,,,,,,,,,,,,,,,,,,,,,,,,,,,,,,,,,,,,,,,,,,,,,,215.2305685711326,215.2305685711326,215.2305685711326,215.2305685711326,215.2305685711326,215.2305685711326,l,1,0.4479959683958441,215.68892598943785,216.70566560793668,,,,,,,,,,,,,545,2010-12-28_08h32.50.344,eb_02psyexp,2022.2.4,119.92727437430851,
61,0,61,0,,,,,,,,,,,,,,,,,,,,,,,,,,,,,,,,,,,,,,,,,,,,,,,,,,,,,,,,,,216.70566560793668,216.70566560793668,216.70566560793668,216.70566560793668,216.70566560793668,216.70566560793668,l,1,0.6849573912331834,217.40576331631746,218.43082973058335,,,,,,,,,,,,,545,2010-12-28_08h32.50.344,eb_02psyexp,2022.2.4,119.92727437430851,
62,0,62,0,,,,,,,,,,,,,,,,,,,,,,,,,,,,,,,,,,,,,,,,,,,,,,,,,,,,,,,,,,218.43082973058335,218.43082973058335,218.43082973058335,218.43082973058335,218.43082973058335,218.43082973058335,l,1,0.5518080446636304,218.99753359507304,220.02264407917392,,,,,,,,,,,,,545,2010-12-28_08h32.50.344,eb_02psyexp,2022.2.4,119.92727437430851,
63,0,63,0,,,,,,,,,,,,,,,,,,,,,,,,,,,,,,,,,,,,,,,,,,,,,,,,,,,,,,,,,,220.02264407917392,220.02264407917392,220.02264407917392,220.02264407917392,220.02264407917392,220.02264407917392,s,1,0.8639804823324084,220.8976899224799,221.91444221849088,,,,,,,,,,,,,545,2010-12-28_08h32.50.344,eb_02psyexp,2022.2.4,119.92727437430851,
64,0,64,0,,,,,,,,,,,,,,,,,,,,,,,,,,,,,,,,,,,,,,,,,,,,,,,,,,,,,,,,,,221.91444221849088,221.91444221849088,221.91444221849088,221.91444221849088,221.91444221849088,221.91444221849088,l,1,0.7322564648929983,222.65616666153073,223.68125299783424,,,,,,,,,,,,,545,2010-12-28_08h32.50.344,eb_02psyexp,2022.2.4,119.92727437430851,
65,0,65,0,,,,,,,,,,,,,,,,,,,,,,,,,,,,,,,,,,,,,,,,,,,,,,,,,,,,,,,,,,223.68125299783424,223.68125299783424,223.68125299783424,223.68125299783424,223.68125299783424,223.68125299783424,l,1,0.9404686186462641,224.6313239170704,225.66475334903225,,,,,,,,,,,,,545,2010-12-28_08h32.50.344,eb_02psyexp,2022.2.4,119.92727437430851,
66,0,66,0,,,,,,,,,,,,,,,,,,,,,,,,,,,,,,,,,,,,,,,,,,,,,,,,,,,,,,,,,,225.66475334903225,225.66475334903225,225.66475334903225,225.66475334903225,225.66475334903225,225.66475334903225,s,1,0.7250021372456104,226.39814646844752,227.42322646593675,,,,,,,,,,,,,545,2010-12-28_08h32.50.344,eb_02psyexp,2022.2.4,119.92727437430851,
67,0,67,0,,,,,,,,,,,,,,,,,,,,,,,,,,,,,,,,,,,,,,,,,,,,,,,,,,,,,,,,,,227.42322646593675,227.42322646593675,227.42322646593675,227.42322646593675,227.42322646593675,227.42322646593675,s,1,0.9585632354719564,228.3899769358104,229.42337889946066,,,,,,,,,,,,,545,2010-12-28_08h32.50.344,eb_02psyexp,2022.2.4,119.92727437430851,
68,0,68,0,,,,,,,,,,,,,,,,,,,,,,,,,,,,,,,,,,,,,,,,,,,,,,,,,,,,,,,,,,229.42337889946066,229.42337889946066,229.42337889946066,229.42337889946066,229.42337889946066,229.42337889946066,s,1,0.6064441525377333,230.0401105490746,231.06519537605345,,,,,,,,,,,,,545,2010-12-28_08h32.50.344,eb_02psyexp,2022.2.4,119.92727437430851,
69,0,69,0,,,,,,,,,,,,,,,,,,,,,,,,,,,,,,,,,,,,,,,,,,,,,,,,,,,,,,,,,,231.06519537605345,231.06519537605345,231.06519537605345,231.06519537605345,231.06519537605345,231.06519537605345,l,1,0.6846652016974986,231.76525263674557,232.79033897304907,,,,,,,,,,,,,545,2010-12-28_08h32.50.344,eb_02psyexp,2022.2.4,119.92727437430851,
70,0,70,0,,,,,,,,,,,,,,,,,,,,,,,,,,,,,,,,,,,,,,,,,,,,,,,,,,,,,,,,,,232.79033897304907,232.79033897304907,232.79033897304907,232.79033897304907,232.79033897304907,232.79033897304907,l,1,0.7755243504652753,233.58206282742321,234.59879912552424,,,,,,,,,,,,,545,2010-12-28_08h32.50.344,eb_02psyexp,2022.2.4,119.92727437430851,
71,0,71,0,,,,,,,,,,,,,,,,,,,,,,,,,,,,,,,,,,,,,,,,,,,,,,,,,,,,,,,,,,234.59879912552424,234.59879912552424,234.59879912552424,234.59879912552424,234.59879912552424,234.59879912552424,l,1,0.5191045586252585,235.13219490123447,236.16561407025438,,,,,,,,,,,,,545,2010-12-28_08h32.50.344,eb_02psyexp,2022.2.4,119.92727437430851,
72,0,72,0,,,,,,,,,,,,,,,,,,,,,,,,,,,,,,,,,,,,,,,,,,,,,,,,,,,,,,,,,,236.16561407025438,236.16561407025438,236.16561407025438,236.16561407025438,236.16561407025438,236.16561407025438,s,1,0.5443062010454014,236.72399747779127,237.74910524534062,,,,,,,,,,,,,545,2010-12-28_08h32.50.344,eb_02psyexp,2022.2.4,119.92727437430851,
73,0,73,0,,,,,,,,,,,,,,,,,,,,,,,,,,,,,,,,,,,,,,,,,,,,,,,,,,,,,,,,,,237.74910524534062,237.74910524534062,237.74910524534062,237.74910524534062,237.74910524534062,237.74910524534062,l,1,0.5208404900040478,238.28245906415395,239.3075140081346,,,,,,,,,,,,,545,2010-12-28_08h32.50.344,eb_02psyexp,2022.2.4,119.92727437430851,
74,0,74,0,,,,,,,,,,,,,,,,,,,,,,,,,,,,,,,,,,,,,,,,,,,,,,,,,,,,,,,,,,239.3075140081346,239.3075140081346,239.3075140081346,239.3075140081346,239.3075140081346,239.3075140081346,s,1,0.7054779652971774,240.02426681737415,241.04103360208683,,,,,,,,,,,,,545,2010-12-28_08h32.50.344,eb_02psyexp,2022.2.4,119.92727437430851,
75,0,75,0,,,,,,,,,,,,,,,,,,,,,,,,,,,,,,,,,,,,,,,,,,,,,,,,,,,,,,,,,,241.04103360208683,241.04103360208683,241.04103360208683,241.04103360208683,241.04103360208683,241.04103360208683,l,1,0.5879701119847596,241.64107060874812,242.66615271917544,,,,,,,,,,,,,545,2010-12-28_08h32.50.344,eb_02psyexp,2022.2.4,119.92727437430851,
76,0,76,0,,,,,,,,,,,,,,,,,,,,,,,,,,,,,,,,,,,,,,,,,,,,,,,,,,,,,,,,,,242.66615271917544,242.66615271917544,242.66615271917544,242.66615271917544,242.66615271917544,242.66615271917544,l,1,0.5868765144841745,243.26621296815574,244.2912845137762,,,,,,,,,,,,,545,2010-12-28_08h32.50.344,eb_02psyexp,2022.2.4,119.92727437430851,
77,0,77,0,,,,,,,,,,,,,,,,,,,,,,,,,,,,,,,,,,,,,,,,,,,,,,,,,,,,,,,,,,244.2912845137762,244.2912845137762,244.2912845137762,244.2912845137762,244.2912845137762,244.2912845137762,l,1,0.6017968913074583,244.90799654333387,245.9414226547815,,,,,,,,,,,,,545,2010-12-28_08h32.50.344,eb_02psyexp,2022.2.4,119.92727437430851,
78,0,78,0,,,,,,,,,,,,,,,,,,,,,,,,,,,,,,,,,,,,,,,,,,,,,,,,,,,,,,,,,,245.9414226547815,245.9414226547815,245.9414226547815,245.9414226547815,245.9414226547815,245.9414226547815,s,1,0.5836802396224812,246.5414650947787,247.56655807164498,,,,,,,,,,,,,545,2010-12-28_08h32.50.344,eb_02psyexp,2022.2.4,119.92727437430851,
79,0,79,0,,,,,,,,,,,,,,,,,,,,,,,,,,,,,,,,,,,,,,,,,,,,,,,,,,,,,,,,,,247.56655807164498,247.56655807164498,247.56655807164498,247.56655807164498,247.56655807164498,247.56655807164498,s,1,0.5585785090224817,248.14160201326013,249.16668382182252,,,,,,,,,,,,,545,2010-12-28_08h32.50.344,eb_02psyexp,2022.2.4,119.92727437430851,
80,0,80,0,,,,,,,,,,,,,,,,,,,,,,,,,,,,,,,,,,,,,,,,,,,,,,,,,,,,,,,,,,249.16668382182252,249.16668382182252,249.16668382182252,249.16668382182252,249.16668382182252,249.16668382182252,s,1,0.5504799108020961,249.73339462873992,250.75848911493085,,,,,,,,,,,,,545,2010-12-28_08h32.50.344,eb_02psyexp,2022.2.4,119.92727437430851,
81,0,81,0,,,,,,,,,,,,,,,,,,,,,,,,,,,,,,,,,,,,,,,,,,,,,,,,,,,,,,,,,,250.75848911493085,250.75848911493085,250.75848911493085,250.75848911493085,250.75848911493085,250.75848911493085,l,1,0.5026848998386413,251.27520232158713,252.300304655917,,,,,,,,,,,,,545,2010-12-28_08h32.50.344,eb_02psyexp,2022.2.4,119.92727437430851,
82,0,82,0,,,,,,,,,,,,,,,,,,,,,,,,,,,,,,,,,,,,,,,,,,,,,,,,,,,,,,,,,,252.300304655917,252.300304655917,252.300304655917,252.300304655917,252.300304655917,252.300304655917,s,1,0.520893313572742,252.83365998393856,253.85874450905249,,,,,,,,,,,,,545,2010-12-28_08h32.50.344,eb_02psyexp,2022.2.4,119.92727437430851,
83,0,83,0,,,,,,,,,,,,,,,,,,,,,,,,,,,,,,,,,,,,,,,,,,,,,,,,,,,,,,,,,,253.85874450905249,253.85874450905249,253.85874450905249,253.85874450905249,253.85874450905249,253.85874450905249,s,1,0.8425114998826757,254.71715124940965,255.74226716684643,,,,,,,,,,,,,545,2010-12-28_08h32.50.344,eb_02psyexp,2022.2.4,119.92727437430851,
84,0,84,0,,,,,,,,,,,,,,,,,,,,,,,,,,,,,,,,,,,,,,,,,,,,,,,,,,,,,,,,,,255.74226716684643,255.74226716684643,255.74226716684643,255.74226716684643,255.74226716684643,255.74226716684643,s,1,1.1660165417706594,256.9173306078883,257.9424326402368,,,,,,,,,,,,,545,2010-12-28_08h32.50.344,eb_02psyexp,2022.2.4,119.92727437430851,
85,0,85,0,,,,,,,,,,,,,,,,,,,,,,,,,,,,,,,,,,,,,,,,,,,,,,,,,,,,,,,,,,257.9424326402368,257.9424326402368,257.9424326402368,257.9424326402368,257.9424326402368,257.9424326402368,l,1,0.5258852858096361,258.4841274417704,259.50920804287307,,,,,,,,,,,,,545,2010-12-28_08h32.50.344,eb_02psyexp,2022.2.4,119.92727437430851,
86,0,86,0,,,,,,,,,,,,,,,,,,,,,,,,,,,,,,,,,,,,,,,,,,,,,,,,,,,,,,,,,,259.50920804287307,259.50920804287307,259.50920804287307,259.50920804287307,259.50920804287307,259.50920804287307,l,1,0.8471309910528362,260.36760844441596,261.39268693258055,,,,,,,,,,,,,545,2010-12-28_08h32.50.344,eb_02psyexp,2022.2.4,119.92727437430851,
87,0,87,0,,,,,,,,,,,,,,,,,,,,,,,,,,,,,,,,,,,,,,,,,,,,,,,,,,,,,,,,,,261.39268693258055,261.39268693258055,261.39268693258055,261.39268693258055,261.39268693258055,261.39268693258055,l,1,0.5636667710496113,261.9677399296779,262.99283441586886,,,,,,,,,,,,,545,2010-12-28_08h32.50.344,eb_02psyexp,2022.2.4,119.92727437430851,
88,0,88,0,,,,,,,,,,,,,,,,,,,,,,,,,,,,,,,,,,,,,,,,,,,,,,,,,,,,,,,,,,262.99283441586886,262.99283441586886,262.99283441586886,262.99283441586886,262.99283441586886,262.99283441586886,s,1,0.8035555217647925,263.809575181338,264.8346473306883,,,,,,,,,,,,,545,2010-12-28_08h32.50.344,eb_02psyexp,2022.2.4,119.92727437430851,
89,0,89,0,,,,,,,,,,,,,,,,,,,,,,,,,,,,,,,,,,,,,,,,,,,,,,,,,,,,,,,,,,264.8346473306883,264.8346473306883,264.8346473306883,264.8346473306883,264.8346473306883,264.8346473306883,l,1,0.5617714636027813,265.4096985167125,266.4264619811438,,,,,,,,,,,,,545,2010-12-28_08h32.50.344,eb_02psyexp,2022.2.4,119.92727437430851,
90,0,90,0,,,,,,,,,,,,,,,,,,,,,,,,,,,,,,,,,,,,,,,,,,,,,,,,,,,,,,,,,,266.4264619811438,266.4264619811438,266.4264619811438,266.4264619811438,266.4264619811438,266.4264619811438,l,1,0.9059902628650889,267.3431913065724,268.3599206621293,,,,,,,,,,,,,545,2010-12-28_08h32.50.344,eb_02psyexp,2022.2.4,119.92727437430851,
91,0,91,0,,,,,,,,,,,,,,,,,,,,,,,,,,,,,,,,,,,,,,,,,,,,,,,,,,,,,,,,,,268.3599206621293,268.3599206621293,268.3599206621293,268.3599206621293,268.3599206621293,268.3599206621293,l,1,0.46054894651751965,268.8349739308469,269.8600578523474,,,,,,,,,,,,,545,2010-12-28_08h32.50.344,eb_02psyexp,2022.2.4,119.92727437430851,
92,0,92,0,,,,,,,,,,,,,,,,,,,,,,,,,,,,,,,,,,,,,,,,,,,,,,,,,,,,,,,,,,269.8600578523474,269.8600578523474,269.8600578523474,269.8600578523474,269.8600578523474,269.8600578523474,s,1,0.5204852143069729,270.39343944122083,271.4185517365113,,,,,,,,,,,,,545,2010-12-28_08h32.50.344,eb_02psyexp,2022.2.4,119.92727437430851,
93,0,93,0,,,,,,,,,,,,,,,,,,,,,,,,,,,,,,,,,,,,,,,,,,,,,,,,,,,,,,,,,,271.4185517365113,271.4185517365113,271.4185517365113,271.4185517365113,271.4185517365113,271.4185517365113,l,1,0.520988697768189,271.95189589611255,272.96867596230004,,,,,,,,,,,,,545,2010-12-28_08h32.50.344,eb_02psyexp,2022.2.4,119.92727437430851,
94,0,94,0,,,,,,,,,,,,,,,,,,,,,,,,,,,,,,,,,,,,,,,,,,,,,,,,,,,,,,,,,,272.96867596230004,272.96867596230004,272.96867596230004,272.96867596230004,272.96867596230004,272.96867596230004,l,1,0.6269079791381955,273.6103747179732,274.63546075229533,,,,,,,,,,,,,545,2010-12-28_08h32.50.344,eb_02psyexp,2022.2.4,119.92727437430851,
95,0,95,0,,,,,,,,,,,,,,,,,,,,,,,,,,,,,,,,,,,,,,,,,,,,,,,,,,,,,,,,,,274.63546075229533,274.63546075229533,274.63546075229533,274.63546075229533,274.63546075229533,274.63546075229533,l,1,0.6401446445379406,275.28551165910903,276.3022648607148,,,,,,,,,,,,,545,2010-12-28_08h32.50.344,eb_02psyexp,2022.2.4,119.92727437430851,
96,0,96,0,,,,,,,,,,,,,,,,,,,,,,,,,,,,,,,,,,,,,,,,,,,,,,,,,,,,,,,,,,276.3022648607148,276.3022648607148,276.3022648607148,276.3022648607148,276.3022648607148,276.3022648607148,l,1,0.533371735131368,276.8439753582934,277.8690607890021,,,,,,,,,,,,,545,2010-12-28_08h32.50.344,eb_02psyexp,2022.2.4,119.92727437430851,
97,0,97,0,,,,,,,,,,,,,,,,,,,,,,,,,,,,,,,,,,,,,,,,,,,,,,,,,,,,,,,,,,277.8690607890021,277.8690607890021,277.8690607890021,277.8690607890021,277.8690607890021,277.8690607890021,l,1,0.42258816328831017,278.30242785904557,279.3275093656266,,,,,,,,,,,,,545,2010-12-28_08h32.50.344,eb_02psyexp,2022.2.4,119.92727437430851,
98,0,98,0,,,,,,,,,,,,,,,,,,,,,,,,,,,,,,,,,,,,,,,,,,,,,,,,,,,,,,,,,,279.3275093656266,279.3275093656266,279.3275093656266,279.3275093656266,279.3275093656266,279.3275093656266,l,1,0.4681754535995424,279.8108861098299,280.8359691257356,,,,,,,,,,,,,545,2010-12-28_08h32.50.344,eb_02psyexp,2022.2.4,119.92727437430851,
99,0,99,0,,,,,,,,,,,,,,,,,,,,,,,,,,,,,,,,,,,,,,,,,,,,,,,,,,,,,,,,,,280.8359691257356,280.8359691257356,280.8359691257356,280.8359691257356,280.8359691257356,280.8359691257356,l,1,0.3997424492845312,281.2443310567178,282.26109301194083,,,,,,,,,,,,,545,2010-12-28_08h32.50.344,eb_02psyexp,2022.2.4,119.92727437430851,
100,0,100,0,,,,,,,,,,,,,,,,,,,,,,,,,,,,,,,,,,,,,,,,,,,,,,,,,,,,,,,,,,282.26109301194083,282.26109301194083,282.26109301194083,282.26109301194083,282.26109301194083,282.26109301194083,l,1,0.5026302651967853,282.77779867243953,283.80289949744474,,,,,,,,,,,,,545,2010-12-28_08h32.50.344,eb_02psyexp,2022.2.4,119.92727437430851,
101,0,101,0,,,,,,,,,,,,,,,,,,,,,,,,,,,,,,,,,,,,,,,,,,,,,,,,,,,,,,,,,,283.80289949744474,283.80289949744474,283.80289949744474,283.80289949744474,283.80289949744474,283.80289949744474,l,1,0.4728646718431264,284.28625541413203,285.31967669609,,,,,,,,,,,,,545,2010-12-28_08h32.50.344,eb_02psyexp,2022.2.4,119.92727437430851,
102,0,102,0,,,,,,,,,,,,,,,,,,,,,,,,,,,,,,,,,,,,,,,,,,,,,,,,,,,,,,,,,,285.31967669609,285.31967669609,285.31967669609,285.31967669609,285.31967669609,285.31967669609,s,1,0.500118582858704,285.8280486181611,286.8530914882431,,,,,,,,,,,,,545,2010-12-28_08h32.50.344,eb_02psyexp,2022.2.4,119.92727437430851,
103,0,103,0,,,,,,,,,,,,,,,,,,,,,,,,,,,,,,,,,,,,,,,,,,,,,,,,,,,,,,,,,,286.8530914882431,286.8530914882431,286.8530914882431,286.8530914882431,286.8530914882431,286.8530914882431,l,1,0.501721399021335,287.3698448408395,288.3949532120023,,,,,,,,,,,,,545,2010-12-28_08h32.50.344,eb_02psyexp,2022.2.4,119.92727437430851,
104,0,104,0,,,,,,,,,,,,,,,,,,,,,,,,,,,,,,,,,,,,,,,,,,,,,,,,,,,,,,,,,,288.3949532120023,288.3949532120023,288.3949532120023,288.3949532120023,288.3949532120023,288.3949532120023,l,1,0.5999021875904873,289.00331158121116,290.0367280335631,,,,,,,,,,,,,545,2010-12-28_08h32.50.344,eb_02psyexp,2022.2.4,119.92727437430851,
105,0,105,0,,,,,,,,,,,,,,,,,,,,,,,,,,,,,,,,,,,,,,,,,,,,,,,,,,,,,,,,,,290.0367280335631,290.0367280335631,290.0367280335631,290.0367280335631,290.0367280335631,290.0367280335631,l,1,0.8781365784816444,290.9284621810075,291.9452005920466,,,,,,,,,,,,,545,2010-12-28_08h32.50.344,eb_02psyexp,2022.2.4,119.92727437430851,
106,0,106,0,,,,,,,,,,,,,,,,,,,,,,,,,,,,,,,,,,,,,,,,,,,,,,,,,,,,,,,,,,291.9452005920466,291.9452005920466,291.9452005920466,291.9452005920466,291.9452005920466,291.9452005920466,l,1,0.5216886847047135,292.4785984806949,293.50366640416905,,,,,,,,,,,,,545,2010-12-28_08h32.50.344,eb_02psyexp,2022.2.4,119.92727437430851,
107,0,107,0,,,,,,,,,,,,,,,,,,,,,,,,,,,,,,,,,,,,,,,,,,,,,,,,,,,,,,,,,,293.50366640416905,293.50366640416905,293.50366640416905,293.50366640416905,293.50366640416905,293.50366640416905,l,1,0.5072705838829279,294.02039319404867,295.0454798322171,,,,,,,,,,,,,545,2010-12-28_08h32.50.344,eb_02psyexp,2022.2.4,119.92727437430851,
108,0,108,0,,,,,,,,,,,,,,,,,,,,,,,,,,,,,,,,,,,,,,,,,,,,,,,,,,,,,,,,,,295.0454798322171,295.0454798322171,295.0454798322171,295.0454798322171,295.0454798322171,295.0454798322171,s,1,0.6214460285846144,295.67886296042707,296.703955031815,,,,,,,,,,,,,545,2010-12-28_08h32.50.344,eb_02psyexp,2022.2.4,119.92727437430851,
109,0,109,0,,,,,,,,,,,,,,,,,,,,,,,,,,,,,,,,,,,,,,,,,,,,,,,,,,,,,,,,,,296.703955031815,296.703955031815,296.703955031815,296.703955031815,296.703955031815,296.703955031815,s,1,0.6510818271199241,297.37066103948746,298.40409681014717,,,,,,,,,,,,,545,2010-12-28_08h32.50.344,eb_02psyexp,2022.2.4,119.92727437430851,
110,0,110,0,,,,,,,,,,,,,,,,,,,,,,,,,,,,,,,,,,,,,,,,,,,,,,,,,,,,,,,,,,298.40409681014717,298.40409681014717,298.40409681014717,298.40409681014717,298.40409681014717,298.40409681014717,s,1,0.7669388704234734,299.18747636151966,300.21256601810455,,,,,,,,,,,,,545,2010-12-28_08h32.50.344,eb_02psyexp,2022.2.4,119.92727437430851,
111,0,111,0,,,,,,,,,,,,,,,,,,,,,,,,,,,,,,,,,,,,,,,,,,,,,,,,,,,,,,,,,,300.21256601810455,300.21256601810455,300.21256601810455,300.21256601810455,300.21256601810455,300.21256601810455,s,1,0.7024775901809335,300.9292952831602,301.9543843360152,,,,,,,,,,,,,545,2010-12-28_08h32.50.344,eb_02psyexp,2022.2.4,119.92727437430851,
112,0,112,0,,,,,,,,,,,,,,,,,,,,,,,,,,,,,,,,,,,,,,,,,,,,,,,,,,,,,,,,,,301.9543843360152,301.9543843360152,301.9543843360152,301.9543843360152,301.9543843360152,301.9543843360152,s,1,0.5757011732785031,302.5460951506393,303.56285046518315,,,,,,,,,,,,,545,2010-12-28_08h32.50.344,eb_02psyexp,2022.2.4,119.92727437430851,
113,0,113,0,,,,,,,,,,,,,,,,,,,,,,,,,,,,,,,,,,,,,,,,,,,,,,,,,,,,,,,,,,303.56285046518315,303.56285046518315,303.56285046518315,303.56285046518315,303.56285046518315,303.56285046518315,l,1,0.7352674048161134,304.31290140212514,305.3379904549802,,,,,,,,,,,,,545,2010-12-28_08h32.50.344,eb_02psyexp,2022.2.4,119.92727437430851,
114,0,114,0,,,,,,,,,,,,,,,,,,,,,,,,,,,,,,,,,,,,,,,,,,,,,,,,,,,,,,,,,,305.3379904549802,305.3379904549802,305.3379904549802,305.3379904549802,305.3379904549802,305.3379904549802,l,1,0.6961257897783071,306.04638537799474,307.07146960136015,,,,,,,,,,,,,545,2010-12-28_08h32.50.344,eb_02psyexp,2022.2.4,119.92727437430851,
115,0,115,0,,,,,,,,,,,,,,,,,,,,,,,,,,,,,,,,,,,,,,,,,,,,,,,,,,,,,,,,,,307.07146960136015,307.07146960136015,307.07146960136015,307.07146960136015,307.07146960136015,307.07146960136015,l,1,0.4907093580113724,307.57154310145415,308.5882739663357,,,,,,,,,,,,,545,2010-12-28_08h32.50.344,eb_02psyexp,2022.2.4,119.92727437430851,
116,0,116,0,,,,,,,,,,,,,,,,,,,,,,,,,,,,,,,,,,,,,,,,,,,,,,,,,,,,,,,,,,308.5882739663357,308.5882739663357,308.5882739663357,308.5882739663357,308.5882739663357,308.5882739663357,l,1,0.6619088349398226,309.2633179380791,310.2800672156736,,,,,,,,,,,,,545,2010-12-28_08h32.50.344,eb_02psyexp,2022.2.4,119.92727437430851,
117,0,117,0,,,,,,,,,,,,,,,,,,,,,,,,,,,,,,,,,,,,,,,,,,,,,,,,,,,,,,,,,,310.2800672156736,310.2800672156736,310.2800672156736,310.2800672156736,310.2800672156736,310.2800672156736,l,1,0.8821656537475064,311.1718067964539,312.20525192446075,,,,,,,,,,,,,545,2010-12-28_08h32.50.344,eb_02psyexp,2022.2.4,119.92727437430851,
118,0,118,0,,,,,,,,,,,,,,,,,,,,,,,,,,,,,,,,,,,,,,,,,,,,,,,,,,,,,,,,,,312.20525192446075,312.20525192446075,312.20525192446075,312.20525192446075,312.20525192446075,312.20525192446075,s,1,0.7010157372569665,312.9219510045368,313.9470328130992,,,,,,,,,,,,,545,2010-12-28_08h32.50.344,eb_02psyexp,2022.2.4,119.92727437430851,
119,0,119,0,,,,,,,,,,,,,,,,,,,,,,,,,,,,,,,,,,,,,,,,,,,,,,,,,,,,,,,,,,313.9470328130992,313.9470328130992,313.9470328130992,313.9470328130992,313.9470328130992,313.9470328130992,l,1,0.6072570307878777,314.56375450175256,315.5888299715007,,,,,,,,,,,,,545,2010-12-28_08h32.50.344,eb_02psyexp,2022.2.4,119.92727437430851,
120,0,120,0,,,,,,,,,,,,,,,,,,,,,,,,,,,,,,,,,,,,,,,,,,,,,,,,,,,,,,,,,,315.5888299715007,315.5888299715007,315.5888299715007,315.5888299715007,315.5888299715007,315.5888299715007,s,1,0.5895261415280402,316.1888995777117,317.21396991598886,,,,,,,,,,,,,545,2010-12-28_08h32.50.344,eb_02psyexp,2022.2.4,119.92727437430851,
121,0,121,0,,,,,,,,,,,,,,,,,,,,,,,,,,,,,,,,,,,,,,,,,,,,,,,,,,,,,,,,,,317.21396991598886,317.21396991598886,317.21396991598886,317.21396991598886,317.21396991598886,317.21396991598886,l,1,0.5634017480770126,317.789018989075,318.82245777826756,,,,,,,,,,,,,545,2010-12-28_08h32.50.344,eb_02psyexp,2022.2.4,119.92727437430851,
122,0,122,0,,,,,,,,,,,,,,,,,,,,,,,,,,,,,,,,,,,,,,,,,,,,,,,,,,,,,,,,,,318.82245777826756,318.82245777826756,318.82245777826756,318.82245777826756,318.82245777826756,318.82245777826756,s,1,0.58690096414648,319.4224875405198,320.4475729712285,,,,,,,,,,,,,545,2010-12-28_08h32.50.344,eb_02psyexp,2022.2.4,119.92727437430851,
123,0,123,0,,,,,,,,,,,,,,,,,,,,,,,,,,,,,,,,,,,,,,,,,,,,,,,,,,,,,,,,,,320.4475729712285,320.4475729712285,320.4475729712285,320.4475729712285,320.4475729712285,320.4475729712285,s,1,0.5938389545772225,321.05595880863257,322.08937677019276,,,,,,,,,,,,,545,2010-12-28_08h32.50.344,eb_02psyexp,2022.2.4,119.92727437430851,
124,0,124,0,,,,,,,,,,,,,,,,,,,,,,,,,,,,,,,,,,,,,,,,,,,,,,,,,,,,,,,,,,322.08937677019276,322.08937677019276,322.08937677019276,322.08937677019276,322.08937677019276,322.08937677019276,s,1,0.42405756236985326,322.52274414198473,323.54782957269344,,,,,,,,,,,,,545,2010-12-28_08h32.50.344,eb_02psyexp,2022.2.4,119.92727437430851,
125,0,125,0,,,,,,,,,,,,,,,,,,,,,,,,,,,,,,,,,,,,,,,,,,,,,,,,,,,,,,,,,,323.54782957269344,323.54782957269344,323.54782957269344,323.54782957269344,323.54782957269344,323.54782957269344,s,1,0.4856150590348989,324.04786986950785,325.08128783106804,,,,,,,,,,,,,545,2010-12-28_08h32.50.344,eb_02psyexp,2022.2.4,119.92727437430851,
126,0,126,0,,,,,,,,,,,,,,,,,,,,,,,,,,,,,,,,,,,,,,,,,,,,,,,,,,,,,,,,,,325.08128783106804,325.08128783106804,325.08128783106804,325.08128783106804,325.08128783106804,325.08128783106804,s,1,0.4161962171783671,325.50631965347566,326.5314084045822,,,,,,,,,,,,,545,2010-12-28_08h32.50.344,eb_02psyexp,2022.2.4,119.92727437430851,
127,0,127,0,,,,,,,,,,,,,,,,,,,,,,,,,,,,,,,,,,,,,,,,,,,,,,,,,,,,,,,,,,326.5314084045822,326.5314084045822,326.5314084045822,326.5314084045822,326.5314084045822,326.5314084045822,l,1,0.5261068427935243,327.07311075227335,328.10654984321445,,,,,,,,,,,,,545,2010-12-28_08h32.50.344,eb_02psyexp,2022.2.4,119.92727437430851,
128,0,128,0,,,,,,,,,,,,,,,,,,,,,,,,,,,,,,,,,,,,,,,,,,,,,,,,,,,,,,,,,,328.10654984321445,328.10654984321445,328.10654984321445,328.10654984321445,328.10654984321445,328.10654984321445,s,1,0.6309738800628111,328.7482564470265,329.7733418777352,,,,,,,,,,,,,545,2010-12-28_08h32.50.344,eb_02psyexp,2022.2.4,119.92727437430851,
129,0,129,0,,,,,,,,,,,,,,,,,,,,,,,,,,,,,,,,,,,,,,,,,,,,,,,,,,,,,,,,,,329.7733418777352,329.7733418777352,329.7733418777352,329.7733418777352,329.7733418777352,329.7733418777352,l,1,0.588208572473377,330.37339246750344,331.3984751816606,,,,,,,,,,,,,545,2010-12-28_08h32.50.344,eb_02psyexp,2022.2.4,119.92727437430851,
130,0,130,0,,,,,,,,,,,,,,,,,,,,,,,,,,,,,,,,,,,,,,,,,,,,,,,,,,,,,,,,,,331.3984751816606,331.3984751816606,331.3984751816606,331.3984751816606,331.3984751816606,331.3984751816606,l,1,0.5231176359811798,331.9318528464064,332.96527231729124,,,,,,,,,,,,,545,2010-12-28_08h32.50.344,eb_02psyexp,2022.2.4,119.92727437430851,
131,0,131,0,,,,,,,,,,,,,,,,,,,,,,,,,,,,,,,,,,,,,,,,,,,,,,,,,,,,,,,,,,332.96527231729124,332.96527231729124,332.96527231729124,332.96527231729124,332.96527231729124,332.96527231729124,s,1,0.4513534305151552,333.43196769978385,334.45705977117177,,,,,,,,,,,,,545,2010-12-28_08h32.50.344,eb_02psyexp,2022.2.4,119.92727437430851,
132,0,132,0,,,,,,,,,,,,,,,,,,,,,,,,,,,,,,,,,,,,,,,,,,,,,,,,,,,,,,,,,,334.45705977117177,334.45705977117177,334.45705977117177,334.45705977117177,334.45705977117177,334.45705977117177,l,1,0.5276200098451227,334.9987959259888,336.0321897396352,,,,,,,,,,,,,545,2010-12-28_08h32.50.344,eb_02psyexp,2022.2.4,119.92727437430851,
133,0,133,0,,,,,,,,,,,,,,,,,,,,,,,,,,,,,,,,,,,,,,,,,,,,,,,,,,,,,,,,,,336.0321897396352,336.0321897396352,336.0321897396352,336.0321897396352,336.0321897396352,336.0321897396352,s,1,0.45648334769066423,336.4988935739966,337.5239841360599,,,,,,,,,,,,,545,2010-12-28_08h32.50.344,eb_02psyexp,2022.2.4,119.92727437430851,
134,0,134,0,,,,,,,,,,,,,,,,,,,,,,,,,,,,,,,,,,,,,,,,,,,,,,,,,,,,,,,,,,337.5239841360599,337.5239841360599,337.5239841360599,337.5239841360599,337.5239841360599,337.5239841360599,l,1,0.47672712651547045,338.01570367405657,339.0324420850957,,,,,,,,,,,,,545,2010-12-28_08h32.50.344,eb_02psyexp,2022.2.4,119.92727437430851,
135,0,135,0,,,,,,,,,,,,,,,,,,,,,,,,,,,,,,,,,,,,,,,,,,,,,,,,,,,,,,,,,,339.0324420850957,339.0324420850957,339.0324420850957,339.0324420850957,339.0324420850957,339.0324420850957,l,1,0.6002957981545478,339.6491483794525,340.6825750947464,,,,,,,,,,,,,545,2010-12-28_08h32.50.344,eb_02psyexp,2022.2.4,119.92727437430851,
136,0,136,0,,,,,,,,,,,,,,,,,,,,,,,,,,,,,,,,,,,,,,,,,,,,,,,,,,,,,,,,,,340.6825750947464,340.6825750947464,340.6825750947464,340.6825750947464,340.6825750947464,340.6825750947464,l,1,0.5581852002069354,341.24928831646685,342.2743722379673,,,,,,,,,,,,,545,2010-12-28_08h32.50.344,eb_02psyexp,2022.2.4,119.92727437430851,
137,0,137,0,,,,,,,,,,,,,,,,,,,,,,,,,,,,,,,,,,,,,,,,,,,,,,,,,,,,,,,,,,342.2743722379673,342.2743722379673,342.2743722379673,342.2743722379673,342.2743722379673,342.2743722379673,l,1,0.5424199491972104,342.83276047499385,343.8578465094324,,,,,,,,,,,,,545,2010-12-28_08h32.50.344,eb_02psyexp,2022.2.4,119.92727437430851,
138,0,138,0,,,,,,,,,,,,,,,,,,,,,,,,,,,,,,,,,,,,,,,,,,,,,,,,,,,,,,,,,,343.8578465094324,343.8578465094324,343.8578465094324,343.8578465094324,343.8578465094324,343.8578465094324,l,1,0.5270090682897717,344.3995413108496,345.4246354951756,,,,,,,,,,,,,545,2010-12-28_08h32.50.344,eb_02psyexp,2022.2.4,119.92727437430851,
139,0,139,0,,,,,,,,,,,,,,,,,,,,,,,,,,,,,,,,,,,,,,,,,,,,,,,,,,,,,,,,,,345.4246354951756,345.4246354951756,345.4246354951756,345.4246354951756,345.4246354951756,345.4246354951756,l,1,0.4322008341550827,345.86633509607054,346.89975305774715,,,,,,,,,,,,,545,2010-12-28_08h32.50.344,eb_02psyexp,2022.2.4,119.92727437430851,
140,0,140,0,,,,,,,,,,,,,,,,,,,,,,,,,,,,,,,,,,,,,,,,,,,,,,,,,,,,,,,,,,346.89975305774715,346.89975305774715,346.89975305774715,346.89975305774715,346.89975305774715,346.89975305774715,s,1,0.5251596418675035,347.43312227074057,348.4582146439934,,,,,,,,,,,,,545,2010-12-28_08h32.50.344,eb_02psyexp,2022.2.4,119.92727437430851,
141,0,141,0,,,,,,,,,,,,,,,,,,,,,,,,,,,,,,,,,,,,,,,,,,,,,,,,,,,,,,,,,,348.4582146439934,348.4582146439934,348.4582146439934,348.4582146439934,348.4582146439934,348.4582146439934,l,1,0.3977218746440485,348.8665750657674,349.9000072142808,,,,,,,,,,,,,545,2010-12-28_08h32.50.344,eb_02psyexp,2022.2.4,119.92727437430851,
142,0,142,0,,,,,,,,,,,,,,,,,,,,,,,,,,,,,,,,,,,,,,,,,,,,,,,,,,,,,,,,,,349.9000072142808,349.9000072142808,349.9000072142808,349.9000072142808,349.9000072142808,349.9000072142808,s,1,0.523906970047392,350.4333785402123,351.4584651783807,,,,,,,,,,,,,545,2010-12-28_08h32.50.344,eb_02psyexp,2022.2.4,119.92727437430851,
143,0,143,0,,,,,,,,,,,,,,,,,,,,,,,,,,,,,,,,,,,,,,,,,,,,,,,,,,,,,,,,,,351.4584651783807,351.4584651783807,351.4584651783807,351.4584651783807,351.4584651783807,351.4584651783807,l,1,0.46946253604255617,351.94182743376587,352.96692252368666,,,,,,,,,,,,,545,2010-12-28_08h32.50.344,eb_02psyexp,2022.2.4,119.92727437430851,
144,0,144,0,,,,,,,,,,,,,,,,,,,,,,,,,,,,,,,,,,,,,,,,,,,,,,,,,,,,,,,,,,352.96692252368666,352.96692252368666,352.96692252368666,352.96692252368666,352.96692252368666,352.96692252368666,l,1,0.4970213142223656,353.4752956532175,354.50038168765604,,,,,,,,,,,,,545,2010-12-28_08h32.50.344,eb_02psyexp,2022.2.4,119.92727437430851,
145,0,145,0,,,,,,,,,,,,,,,,,,,,,,,,,,,,,,,,,,,,,,,,,,,,,,,,,,,,,,,,,,354.50038168765604,354.50038168765604,354.50038168765604,354.50038168765604,354.50038168765604,354.50038168765604,l,1,0.45161603880114853,354.9670960865915,355.99218091357034,,,,,,,,,,,,,545,2010-12-28_08h32.50.344,eb_02psyexp,2022.2.4,119.92727437430851,
146,0,146,0,,,,,,,,,,,,,,,,,,,,,,,,,,,,,,,,,,,,,,,,,,,,,,,,,,,,,,,,,,355.99218091357034,355.99218091357034,355.99218091357034,355.99218091357034,355.99218091357034,355.99218091357034,l,1,0.4078422549646348,356.40887024404947,357.425626766053,,,,,,,,,,,,,545,2010-12-28_08h32.50.344,eb_02psyexp,2022.2.4,119.92727437430851,
147,0,147,0,,,,,,,,,,,,,,,,,,,,,,,,,,,,,,,,,,,,,,,,,,,,,,,,,,,,,,,,,,357.425626766053,357.425626766053,357.425626766053,357.425626766053,357.425626766053,357.425626766053,l,1,0.42240252648480237,357.85898146021646,358.88408349256497,,,,,,,,,,,,,545,2010-12-28_08h32.50.344,eb_02psyexp,2022.2.4,119.92727437430851,
148,0,148,0,,,,,,,,,,,,,,,,,,,,,,,,,,,,,,,,,,,,,,,,,,,,,,,,,,,,,,,,,,358.88408349256497,358.88408349256497,358.88408349256497,358.88408349256497,358.88408349256497,358.88408349256497,s,1,0.5559723482001573,359.4507822255837,360.4758718821686,,,,,,,,,,,,,545,2010-12-28_08h32.50.344,eb_02psyexp,2022.2.4,119.92727437430851,
149,0,149,0,,,,,,,,,,,,,,,,,,,,,,,,,,,,,,,,,,,,,,,,,,,,,,,,,,,,,,,,,,360.4758718821686,360.4758718821686,360.4758718821686,360.4758718821686,360.4758718821686,360.4758718821686,l,1,0.4202189535135403,360.9092510261107,361.934328306932,,,,,,,,,,,,,545,2010-12-28_08h32.50.344,eb_02psyexp,2022.2.4,119.92727437430851,
150,0,150,0,,,,,,,,,,,,,,,,,,,,,,,,,,,,,,,,,,,,,,,,,,,,,,,,,,,,,,,,,,361.934328306932,361.934328306932,361.934328306932,361.934328306932,361.934328306932,361.934328306932,l,0,0.40178988850675523,362.3510306169046,363.3761223864276,,,,,,,,,,,,,545,2010-12-28_08h32.50.344,eb_02psyexp,2022.2.4,119.92727437430851,
151,0,151,0,,,,,,,,,,,,,,,,,,,,,,,,,,,,,,,,,,,,,,,,,,,,,,,,,,,,,,,,,,363.3761223864276,363.3761223864276,363.3761223864276,363.3761223864276,363.3761223864276,363.3761223864276,l,1,0.4799979580566287,363.8678201911971,364.8845724873245,,,,,,,,,,,,,545,2010-12-28_08h32.50.344,eb_02psyexp,2022.2.4,119.92727437430851,
152,0,152,0,,,,,,,,,,,,,,,,,,,,,,,,,,,,,,,,,,,,,,,,,,,,,,,,,,,,,,,,,,364.8845724873245,364.8845724873245,364.8845724873245,364.8845724873245,364.8845724873245,364.8845724873245,l,1,0.45858753426000476,365.3596061358694,366.37632070097607,,,,,,,,,,,,,545,2010-12-28_08h32.50.344,eb_02psyexp,2022.2.4,119.92727437430851,
153,0,153,0,,,,,,,,,,,,,,,,,,,,,,,,,,,,,,,,,,,,,,,,,,,,,,,,,,,,,,,,,,366.37632070097607,366.37632070097607,366.37632070097607,366.37632070097607,366.37632070097607,366.37632070097607,l,1,0.4948646059492603,366.88473458006047,367.90981759596616,,,,,,,,,,,,,545,2010-12-28_08h32.50.344,eb_02psyexp,2022.2.4,119.92727437430851,
154,0,154,0,,,,,,,,,,,,,,,,,,,,,,,,,,,,,,,,,,,,,,,,,,,,,,,,,,,,,,,,,,367.90981759596616,367.90981759596616,367.90981759596616,367.90981759596616,367.90981759596616,367.90981759596616,l,1,0.6094249075977132,368.53487030626275,369.56829158822075,,,,,,,,,,,,,545,2010-12-28_08h32.50.344,eb_02psyexp,2022.2.4,119.92727437430851,
155,0,155,0,,,,,,,,,,,,,,,,,,,,,,,,,,,,,,,,,,,,,,,,,,,,,,,,,,,,,,,,,,369.56829158822075,369.56829158822075,369.56829158822075,369.56829158822075,369.56829158822075,369.56829158822075,s,1,0.6229522530920804,370.20167501841206,371.2267616564641,,,,,,,,,,,,,545,2010-12-28_08h32.50.344,eb_02psyexp,2022.2.4,119.92727437430851,
156,0,156,0,,,,,,,,,,,,,,,,,,,,,,,,,,,,,,,,,,,,,,,,,,,,,,,,,,,,,,,,,,371.2267616564641,371.2267616564641,371.2267616564641,371.2267616564641,371.2267616564641,371.2267616564641,l,1,0.5245348152238876,371.7601405286696,372.7768922210671,,,,,,,,,,,,,545,2010-12-28_08h32.50.344,eb_02psyexp,2022.2.4,119.92727437430851,
157,0,157,0,,,,,,,,,,,,,,,,,,,,,,,,,,,,,,,,,,,,,,,,,,,,,,,,,,,,,,,,,,372.7768922210671,372.7768922210671,372.7768922210671,372.7768922210671,372.7768922210671,372.7768922210671,l,1,0.5984231294132769,373.38526356976945,374.41036650771275,,,,,,,,,,,,,545,2010-12-28_08h32.50.344,eb_02psyexp,2022.2.4,119.92727437430851,
158,0,158,0,,,,,,,,,,,,,,,,,,,,,,,,,,,,,,,,,,,,,,,,,,,,,,,,,,,,,,,,,,374.41036650771275,374.41036650771275,374.41036650771275,374.41036650771275,374.41036650771275,374.41036650771275,l,1,0.4529604724375531,374.8770612864755,375.90214581170585,,,,,,,,,,,,,545,2010-12-28_08h32.50.344,eb_02psyexp,2022.2.4,119.92727437430851,
159,0,159,0,,,,,,,,,,,,,,,,,,,,,,,,,,,,,,,,,,,,,,,,,,,,,,,,,,,,,,,,,,375.90214581170585,375.90214581170585,375.90214581170585,375.90214581170585,375.90214581170585,375.90214581170585,s,1,0.6252535468665883,376.5438635838218,377.56061587983277,,,,,,,,,,,,,545,2010-12-28_08h32.50.344,eb_02psyexp,2022.2.4,119.92727437430851,
160,0,160,0,,,,,,,,,,,,,,,,,,,,,,,,,,,,,,,,,,,,,,,,,,,,,,,,,,,,,,,,,,377.56061587983277,377.56061587983277,377.56061587983277,377.56061587983277,377.56061587983277,377.56061587983277,l,1,0.654768304200843,378.2273481483571,379.25244052149355,,,,,,,,,,,,,545,2010-12-28_08h32.50.344,eb_02psyexp,2022.2.4,119.92727437430851,
161,0,161,0,,,,,,,,,,,,,,,,,,,,,,,,,,,,,,,,,,,,,,,,,,,,,,,,,,,,,,,,,,379.25244052149355,379.25244052149355,379.25244052149355,379.25244052149355,379.25244052149355,379.25244052149355,l,1,0.7540119016775861,380.0191516907653,381.03587953711394,,,,,,,,,,,,,545,2010-12-28_08h32.50.344,eb_02psyexp,2022.2.4,119.92727437430851,
162,0,162,0,,,,,,,,,,,,,,,,,,,,,,,,,,,,,,,,,,,,,,,,,,,,,,,,,,,,,,,,,,381.03587953711394,381.03587953711394,381.03587953711394,381.03587953711394,381.03587953711394,381.03587953711394,l,1,0.7225656153168529,381.769296804443,382.7943828388816,,,,,,,,,,,,,545,2010-12-28_08h32.50.344,eb_02psyexp,2022.2.4,119.92727437430851,
163,0,163,0,,,,,,,,,,,,,,,,,,,,,,,,,,,,,,,,,,,,,,,,,,,,,,,,,,,,,,,,,,382.7943828388816,382.7943828388816,382.7943828388816,382.7943828388816,382.7943828388816,382.7943828388816,s,1,0.5800906558288261,383.3861208198359,384.411163086188,,,,,,,,,,,,,545,2010-12-28_08h32.50.344,eb_02psyexp,2022.2.4,119.92727437430851,
164,0,164,0,,,,,,,,,,,,,,,,,,,,,,,,,,,,,,,,,,,,,,,,,,,,,,,,,,,,,,,,,,384.411163086188,384.411163086188,384.411163086188,384.411163086188,384.411163086188,384.411163086188,l,1,0.6353579291608185,385.0612260669004,386.0863220622996,,,,,,,,,,,,,545,2010-12-28_08h32.50.344,eb_02psyexp,2022.2.4,119.92727437430851,
165,0,165,0,,,,,,,,,,,,,,,,,,,,,,,,,,,,,,,,,,,,,,,,,,,,,,,,,,,,,,,,,,386.0863220622996,386.0863220622996,386.0863220622996,386.0863220622996,386.0863220622996,386.0863220622996,l,1,0.8002617496531457,386.9030528666917,387.9198051628191,,,,,,,,,,,,,545,2010-12-28_08h32.50.344,eb_02psyexp,2022.2.4,119.92727437430851,
166,0,166,0,,,,,,,,,,,,,,,,,,,,,,,,,,,,,,,,,,,,,,,,,,,,,,,,,,,,,,,,,,387.9198051628191,387.9198051628191,387.9198051628191,387.9198051628191,387.9198051628191,387.9198051628191,l,1,0.6067761860322207,388.53651055158116,389.5699366631452,,,,,,,,,,,,,545,2010-12-28_08h32.50.344,eb_02psyexp,2022.2.4,119.92727437430851,
167,0,167,0,,,,,,,,,,,,,,,,,,,,,,,,,,,,,,,,,,,,,,,,,,,,,,,,,,,,,,,,,,389.5699366631452,389.5699366631452,389.5699366631452,389.5699366631452,389.5699366631452,389.5699366631452,l,1,0.6686802048934624,390.2533207121305,391.2700564065017,,,,,,,,,,,,,545,2010-12-28_08h32.50.344,eb_02psyexp,2022.2.4,119.92727437430851,
168,0,168,0,,,,,,,,,,,,,,,,,,,,,,,,,,,,,,,,,,,,,,,,,,,,,,,,,,,,,,,,,,391.2700564065017,391.2700564065017,391.2700564065017,391.2700564065017,391.2700564065017,391.2700564065017,l,1,0.5205470931250602,391.80345580447465,392.83687467162963,,,,,,,,,,,,,545,2010-12-28_08h32.50.344,eb_02psyexp,2022.2.4,119.92727437430851,
169,0,169,0,,,,,,,,,,,,,,,,,,,,,,,,,,,,,,,,,,,,,,,,,,,,,,,,,,,,,,,,,,392.83687467162963,392.83687467162963,392.83687467162963,392.83687467162963,392.83687467162963,392.83687467162963,l,1,0.4738037227652967,393.32024658622686,394.34532628185116,,,,,,,,,,,,,545,2010-12-28_08h32.50.344,eb_02psyexp,2022.2.4,119.92727437430851,
170,0,170,0,,,,,,,,,,,,,,,,,,,,,,,,,,,,,,,,,,,,,,,,,,,,,,,,,,,,,,,,,,394.34532628185116,394.34532628185116,394.34532628185116,394.34532628185116,394.34532628185116,394.34532628185116,l,1,0.629360499093309,394.9870525057195,396.02047137287445,,,,,,,,,,,,,545,2010-12-28_08h32.50.344,eb_02psyexp,2022.2.4,119.92727437430851,
171,0,171,0,,,,,,,,,,,,,,,,,,,,,,,,,,,,,,,,,,,,,,,,,,,,,,,,,,,,,,,,,,396.02047137287445,396.02047137287445,396.02047137287445,396.02047137287445,396.02047137287445,396.02047137287445,l,1,0.4572796243010089,396.487174603506,397.5039305217797,,,,,,,,,,,,,545,2010-12-28_08h32.50.344,eb_02psyexp,2022.2.4,119.92727437430851,
172,0,172,0,,,,,,,,,,,,,,,,,,,,,,,,,,,,,,,,,,,,,,,,,,,,,,,,,,,,,,,,,,397.5039305217797,397.5039305217797,397.5039305217797,397.5039305217797,397.5039305217797,397.5039305217797,s,1,0.6298011981416494,398.14563621999696,399.1790668591857,,,,,,,,,,,,,545,2010-12-28_08h32.50.344,eb_02psyexp,2022.2.4,119.92727437430851,
173,0,173,0,,,,,,,,,,,,,,,,,,,,,,,,,,,,,,,,,,,,,,,,,,,,,,,,,,,,,,,,,,399.1790668591857,399.1790668591857,399.1790668591857,399.1790668591857,399.1790668591857,399.1790668591857,s,1,0.6267108720494434,399.8207891591592,400.8375100629637,,,,,,,,,,,,,545,2010-12-28_08h32.50.344,eb_02psyexp,2022.2.4,119.92727437430851,
174,0,174,0,,,,,,,,,,,,,,,,,,,,,,,,,,,,,,,,,,,,,,,,,,,,,,,,,,,,,,,,,,400.8375100629637,400.8375100629637,400.8375100629637,400.8375100629637,400.8375100629637,400.8375100629637,s,1,0.7122834442416206,401.56259238463826,402.58767992828507,,,,,,,,,,,,,545,2010-12-28_08h32.50.344,eb_02psyexp,2022.2.4,119.92727437430851,
175,0,175,0,,,,,,,,,,,,,,,,,,,,,,,,,,,,,,,,,,,,,,,,,,,,,,,,,,,,,,,,,,402.58767992828507,402.58767992828507,402.58767992828507,402.58767992828507,402.58767992828507,402.58767992828507,l,1,0.5221541351638734,403.12105849862564,404.15447434724774,,,,,,,,,,,,,545,2010-12-28_08h32.50.344,eb_02psyexp,2022.2.4,119.92727437430851,
176,0,176,0,,,,,,,,,,,,,,,,,,,,,,,,,,,,,,,,,,,,,,,,,,,,,,,,,,,,,,,,,,404.15447434724774,404.15447434724774,404.15447434724774,404.15447434724774,404.15447434724774,404.15447434724774,s,1,1.0034001300809905,405.17122362495866,406.19630905555096,,,,,,,,,,,,,545,2010-12-28_08h32.50.344,eb_02psyexp,2022.2.4,119.92727437430851,
177,0,177,0,,,,,,,,,,,,,,,,,,,,,,,,,,,,,,,,,,,,,,,,,,,,,,,,,,,,,,,,,,406.19630905555096,406.19630905555096,406.19630905555096,406.19630905555096,406.19630905555096,406.19630905555096,l,1,0.5695727409329265,406.7796921688132,407.8131098286249,,,,,,,,,,,,,545,2010-12-28_08h32.50.344,eb_02psyexp,2022.2.4,119.92727437430851,
178,0,178,0,,,,,,,,,,,,,,,,,,,,,,,,,,,,,,,,,,,,,,,,,,,,,,,,,,,,,,,,,,407.8131098286249,407.8131098286249,407.8131098286249,407.8131098286249,407.8131098286249,407.8131098286249,s,1,0.9768335282569751,408.804856985691,409.829956301488,,,,,,,,,,,,,545,2010-12-28_08h32.50.344,eb_02psyexp,2022.2.4,119.92727437430851,
179,0,179,0,,,,,,,,,,,,,,,,,,,,,,,,,,,,,,,,,,,,,,,,,,,,,,,,,,,,,,,,,,409.829956301488,409.829956301488,409.829956301488,409.829956301488,409.829956301488,409.829956301488,l,1,0.5119700649520382,410.3549848336261,411.38840671931393,,,,,,,,,,,,,545,2010-12-28_08h32.50.344,eb_02psyexp,2022.2.4,119.92727437430851,
180,0,180,0,,,,,,,,,,,,,,,,,,,,,,,,,,,,,,,,,,,,,,,,,,,,,,,,,,,,,,,,,,411.38840671931393,411.38840671931393,411.38840671931393,411.38840671931393,411.38840671931393,411.38840671931393,l,1,0.5365637842332944,411.9384473330574,412.95517699047923,,,,,,,,,,,,,545,2010-12-28_08h32.50.344,eb_02psyexp,2022.2.4,119.92727437430851,
181,0,181,0,,,,,,,,,,,,,,,,,,,,,,,,,,,,,,,,,,,,,,,,,,,,,,,,,,,,,,,,,,412.95517699047923,412.95517699047923,412.95517699047923,412.95517699047923,412.95517699047923,412.95517699047923,s,1,0.5378203799482435,413.50523450772744,414.53033231419977,,,,,,,,,,,,,545,2010-12-28_08h32.50.344,eb_02psyexp,2022.2.4,119.92727437430851,
182,0,182,0,,,,,,,,,,,,,,,,,,,,,,,,,,,,,,,,,,,,,,,,,,,,,,,,,,,,,,,,,,414.53033231419977,414.53033231419977,414.53033231419977,414.53033231419977,414.53033231419977,414.53033231419977,l,1,0.5226929349591956,415.0637057531858,416.09713759983424,,,,,,,,,,,,,545,2010-12-28_08h32.50.344,eb_02psyexp,2022.2.4,119.92727437430851,
183,0,183,0,,,,,,,,,,,,,,,,,,,,,,,,,,,,,,,,,,,,,,,,,,,,,,,,,,,,,,,,,,416.09713759983424,416.09713759983424,416.09713759983424,416.09713759983424,416.09713759983424,416.09713759983424,s,1,0.5239329291507602,416.63049987039994,417.6555868103169,,,,,,,,,,,,,545,2010-12-28_08h32.50.344,eb_02psyexp,2022.2.4,119.92727437430851,
184,0,184,0,,,,,,,,,,,,,,,,,,,,,,,,,,,,,,,,,,,,,,,,,,,,,,,,,,,,,,,,,,417.6555868103169,417.6555868103169,417.6555868103169,417.6555868103169,417.6555868103169,417.6555868103169,l,1,0.5255149176809937,418.19729942095,419.23071376036387,,,,,,,,,,,,,545,2010-12-28_08h32.50.344,eb_02psyexp,2022.2.4,119.92727437430851,
185,0,185,0,,,,,,,,,,,,,,,,,,,,,,,,,,,,,,,,,,,,,,,,,,,,,,,,,,,,,,,,,,419.23071376036387,419.23071376036387,419.23071376036387,419.23071376036387,419.23071376036387,419.23071376036387,s,1,0.5024050860665739,419.74741700605955,420.7725096810609,,,,,,,,,,,,,545,2010-12-28_08h32.50.344,eb_02psyexp,2022.2.4,119.92727437430851,
186,0,186,0,,,,,,,,,,,,,,,,,,,,,,,,,,,,,,,,,,,,,,,,,,,,,,,,,,,,,,,,,,420.7725096810609,420.7725096810609,420.7725096810609,420.7725096810609,420.7725096810609,420.7725096810609,l,1,0.6166584077291191,421.3975732579129,422.43099544546567,,,,,,,,,,,,,545,2010-12-28_08h32.50.344,eb_02psyexp,2022.2.4,119.92727437430851,
187,0,187,0,,,,,,,,,,,,,,,,,,,,,,,,,,,,,,,,,,,,,,,,,,,,,,,,,,,,,,,,,,422.43099544546567,422.43099544546567,422.43099544546567,422.43099544546567,422.43099544546567,422.43099544546567,s,1,0.5901606273837388,423.03102671692614,424.05611637351103,,,,,,,,,,,,,545,2010-12-28_08h32.50.344,eb_02psyexp,2022.2.4,119.92727437430851,
188,0,188,0,,,,,,,,,,,,,,,,,,,,,,,,,,,,,,,,,,,,,,,,,,,,,,,,,,,,,,,,,,424.05611637351103,424.05611637351103,424.05611637351103,424.05611637351103,424.05611637351103,424.05611637351103,l,1,0.5730971252778545,424.63949586462695,425.67291624099016,,,,,,,,,,,,,545,2010-12-28_08h32.50.344,eb_02psyexp,2022.2.4,119.92727437430851,
189,0,189,0,,,,,,,,,,,,,,,,,,,,,,,,,,,,,,,,,,,,,,,,,,,,,,,,,,,,,,,,,,425.67291624099016,425.67291624099016,425.67291624099016,425.67291624099016,425.67291624099016,425.67291624099016,s,1,0.6353965657763183,426.32295809232164,427.3480519747827,,,,,,,,,,,,,545,2010-12-28_08h32.50.344,eb_02psyexp,2022.2.4,119.92727437430851,
190,0,190,0,,,,,,,,,,,,,,,,,,,,,,,,,,,,,,,,,,,,,,,,,,,,,,,,,,,,,,,,,,427.3480519747827,427.3480519747827,427.3480519747827,427.3480519747827,427.3480519747827,427.3480519747827,l,1,0.6402355008758605,427.99810559814796,429.031524163438,,,,,,,,,,,,,545,2010-12-28_08h32.50.344,eb_02psyexp,2022.2.4,119.92727437430851,
191,0,191,0,,,,,,,,,,,,,,,,,,,,,,,,,,,,,,,,,,,,,,,,,,,,,,,,,,,,,,,,,,429.031524163438,429.031524163438,429.031524163438,429.031524163438,429.031524163438,429.031524163438,s,1,0.5807456673355773,429.6232295447262,430.6483279549284,,,,,,,,,,,,,545,2010-12-28_08h32.50.344,eb_02psyexp,2022.2.4,119.92727437430851,
192,0,192,0,,,,,,,,,,,,,,,,,,,,,,,,,,,,,,,,,,,,,,,,,,,,,,,,,,,,,,,,,,430.6483279549284,430.6483279549284,430.6483279549284,430.6483279549284,430.6483279549284,430.6483279549284,l,1,0.5639710344839841,431.22336978360545,432.2567883488955,,,,,,,,,,,,,545,2010-12-28_08h32.50.344,eb_02psyexp,2022.2.4,119.92727437430851,
193,0,193,0,,,,,,,,,,,,,,,,,,,,,,,,,,,,,,,,,,,,,,,,,,,,,,,,,,,,,,,,,,432.2567883488955,432.2567883488955,432.2567883488955,432.2567883488955,432.2567883488955,432.2567883488955,l,1,0.6675633649574593,432.9401796422899,433.9652641674038,,,,,,,,,,,,,545,2010-12-28_08h32.50.344,eb_02psyexp,2022.2.4,119.92727437430851,
194,0,194,0,,,,,,,,,,,,,,,,,,,,,,,,,,,,,,,,,,,,,,,,,,,,,,,,,,,,,,,,,,433.9652641674038,433.9652641674038,433.9652641674038,433.9652641674038,433.9652641674038,433.9652641674038,s,1,0.6951028249459341,434.67364550719503,435.70707342983223,,,,,,,,,,,,,545,2010-12-28_08h32.50.344,eb_02psyexp,2022.2.4,119.92727437430851,
195,0,195,0,,,,,,,,,,,,,,,,,,,,,,,,,,,,,,,,,,,,,,,,,,,,,,,,,,,,,,,,,,435.70707342983223,435.70707342983223,435.70707342983223,435.70707342983223,435.70707342983223,435.70707342983223,l,1,0.7693292095791548,436.4904713940341,437.51556497463025,,,,,,,,,,,,,545,2010-12-28_08h32.50.344,eb_02psyexp,2022.2.4,119.92727437430851,
196,0,196,0,,,,,,,,,,,,,,,,,,,,,,,,,,,,,,,,,,,,,,,,,,,,,,,,,,,,,,,,,,437.51556497463025,437.51556497463025,437.51556497463025,437.51556497463025,437.51556497463025,437.51556497463025,l,1,0.5368617087369785,438.0656016643625,439.08235516783316,,,,,,,,,,,,,545,2010-12-28_08h32.50.344,eb_02psyexp,2022.2.4,119.92727437430851,
197,0,197,0,,,,,,,,,,,,,,,,,,,,,,,,,,,,,,,,,,,,,,,,,,,,,,,,,,,,,,,,,,439.08235516783316,439.08235516783316,439.08235516783316,439.08235516783316,439.08235516783316,439.08235516783316,s,1,0.40213641070295125,439.49904329085257,440.5324857021915,,,,,,,,,,,,,545,2010-12-28_08h32.50.344,eb_02psyexp,2022.2.4,119.92727437430851,
198,0,198,0,,,,,,,,,,,,,,,,,,,,,,,,,,,,,,,,,,,,,,,,,,,,,,,,,,,,,,,,,,440.5324857021915,440.5324857021915,440.5324857021915,440.5324857021915,440.5324857021915,440.5324857021915,s,1,0.592038125731051,441.1408534287475,442.1659427834675,,,,,,,,,,,,,545,2010-12-28_08h32.50.344,eb_02psyexp,2022.2.4,119.92727437430851,
199,0,199,0,,,,,0,0,0,0,,,,,,,,,,,,,,,,,,,,,,,,,,,,,,,,,,,,,,,,,,,,,,,,,,442.1659427834675,442.1659427834675,442.1659427834675,442.1659427834675,442.1659427834675,442.1659427834675,l,1,0.453564471565187,442.63267318042926,443.63272389094345,443.63272389094345,443.63272389094345,space,12.339033147436567,,,,,,,,,545,2010-12-28_08h32.50.344,eb_02psyexp,2022.2.4,119.92727437430851,
199,0,199,0,,,,,,,,,,,,,,,,,,,,,,,,,,,,,,,,,,,,,,,,,,,,,,,,,,,,,,,,,,,,,,,,,,,,,,,,,,,,,,,,,545,2010-12-28_08h32.50.344,eb_02psyexp,2022.2.4,119.92727437430851,
200,0,200,0,,,,,,,,,,,,,,,,,,,,,,,,,,,,,,,,,,,,,,,,,,,,,,,,,,,,,,,,,,456.008761759731,456.008761759731,456.008761759731,456.008761759731,456.008761759731,456.008761759731,s,1,1.610059695201926,457.633884197101,458.66730064945295,,,,,,,,,,,,,545,2010-12-28_08h32.50.344,eb_02psyexp,2022.2.4,119.92727437430851,
201,0,201,0,,,,,,,,,,,,,,,,,,,,,,,,,,,,,,,,,,,,,,,,,,,,,,,,,,,,,,,,,,458.66730064945295,458.66730064945295,458.66730064945295,458.66730064945295,458.66730064945295,458.66730064945295,s,1,0.5915104943560436,459.26733886345755,460.2924348588567,,,,,,,,,,,,,545,2010-12-28_08h32.50.344,eb_02psyexp,2022.2.4,119.92727437430851,
202,0,202,0,,,,,,,,,,,,,,,,,,,,,,,,,,,,,,,,,,,,,,,,,,,,,,,,,,,,,,,,,,460.2924348588567,460.2924348588567,460.2924348588567,460.2924348588567,460.2924348588567,460.2924348588567,l,1,0.4863883951911703,460.7924727408681,461.82588345813565,,,,,,,,,,,,,545,2010-12-28_08h32.50.344,eb_02psyexp,2022.2.4,119.92727437430851,
203,0,203,0,,,,,,,,,,,,,,,,,,,,,,,,,,,,,,,,,,,,,,,,,,,,,,,,,,,,,,,,,,461.82588345813565,461.82588345813565,461.82588345813565,461.82588345813565,461.82588345813565,461.82588345813565,s,1,0.42498574685305357,462.2592293986818,463.2843480326701,,,,,,,,,,,,,545,2010-12-28_08h32.50.344,eb_02psyexp,2022.2.4,119.92727437430851,
204,0,204,0,,,,,,,,,,,,,,,,,,,,,,,,,,,,,,,,,,,,,,,,,,,,,,,,,,,,,,,,,,463.2843480326701,463.2843480326701,463.2843480326701,463.2843480326701,463.2843480326701,463.2843480326701,l,1,0.4705283634830266,463.76771813619416,464.8011385126738,,,,,,,,,,,,,545,2010-12-28_08h32.50.344,eb_02psyexp,2022.2.4,119.92727437430851,
205,0,205,0,,,,,,,,,,,,,,,,,,,,,,,,,,,,,,,,,,,,,,,,,,,,,,,,,,,,,,,,,,464.8011385126738,464.8011385126738,464.8011385126738,464.8011385126738,464.8011385126738,464.8011385126738,s,1,0.4897796642035246,465.30116854654625,466.326266353135,,,,,,,,,,,,,545,2010-12-28_08h32.50.344,eb_02psyexp,2022.2.4,119.92727437430851,
206,0,206,0,,,,,,,,,,,,,,,,,,,,,,,,,,,,,,,,,,,,,,,,,,,,,,,,,,,,,,,,,,466.326266353135,466.326266353135,466.326266353135,466.326266353135,466.326266353135,466.326266353135,l,1,0.44466235232539475,466.7846322231926,467.8180710123852,,,,,,,,,,,,,545,2010-12-28_08h32.50.344,eb_02psyexp,2022.2.4,119.92727437430851,
207,0,207,0,,,,,,,,,,,,,,,,,,,,,,,,,,,,,,,,,,,,,,,,,,,,,,,,,,,,,,,,,,467.8180710123852,467.8180710123852,467.8180710123852,467.8180710123852,467.8180710123852,467.8180710123852,s,1,0.48088267643470317,468.30975825246423,469.33484338142443,,,,,,,,,,,,,545,2010-12-28_08h32.50.344,eb_02psyexp,2022.2.4,119.92727437430851,
208,0,208,0,,,,,,,,,,,,,,,,,,,,,,,,,,,,,,,,,,,,,,,,,,,,,,,,,,,,,,,,,,469.33484338142443,469.33484338142443,469.33484338142443,469.33484338142443,469.33484338142443,469.33484338142443,l,1,0.44414166337810457,469.79320502560586,470.8266359666595,,,,,,,,,,,,,545,2010-12-28_08h32.50.344,eb_02psyexp,2022.2.4,119.92727437430851,
209,0,209,0,,,,,,,,,,,,,,,,,,,,,,,,,,,,,,,,,,,,,,,,,,,,,,,,,,,,,,,,,,470.8266359666595,470.8266359666595,470.8266359666595,470.8266359666595,470.8266359666595,470.8266359666595,s,1,0.6003887676633894,471.4433513164986,472.4600794647122,,,,,,,,,,,,,545,2010-12-28_08h32.50.344,eb_02psyexp,2022.2.4,119.92727437430851,
210,0,210,0,,,,,,,,,,,,,,,,,,,,,,,,,,,,,,,,,,,,,,,,,,,,,,,,,,,,,,,,,,472.4600794647122,472.4600794647122,472.4600794647122,472.4600794647122,472.4600794647122,472.4600794647122,s,1,0.6139951973455027,473.08516417094506,474.1185715679312,,,,,,,,,,,,,545,2010-12-28_08h32.50.344,eb_02psyexp,2022.2.4,119.92727437430851,
211,0,211,0,,,,,,,,,,,,,,,,,,,,,,,,,,,,,,,,,,,,,,,,,,,,,,,,,,,,,,,,,,474.1185715679312,474.1185715679312,474.1185715679312,474.1185715679312,474.1185715679312,474.1185715679312,s,1,0.443496914813295,474.57693200476933,475.6020292075118,,,,,,,,,,,,,545,2010-12-28_08h32.50.344,eb_02psyexp,2022.2.4,119.92727437430851,
212,0,212,0,,,,,,,,,,,,,,,,,,,,,,,,,,,,,,,,,,,,,,,,,,,,,,,,,,,,,,,,,,475.6020292075118,475.6020292075118,475.6020292075118,475.6020292075118,475.6020292075118,475.6020292075118,l,1,0.5921090601477772,476.21041172463447,477.2438278751215,,,,,,,,,,,,,545,2010-12-28_08h32.50.344,eb_02psyexp,2022.2.4,119.92727437430851,
213,0,213,0,,,,,,,,,,,,,,,,,,,,,,,,,,,,,,,,,,,,,,,,,,,,,,,,,,,,,,,,,,477.2438278751215,477.2438278751215,477.2438278751215,477.2438278751215,477.2438278751215,477.2438278751215,s,1,0.8143046526238322,478.06889483262785,479.09398358373437,,,,,,,,,,,,,545,2010-12-28_08h32.50.344,eb_02psyexp,2022.2.4,119.92727437430851,
214,0,214,0,,,,,,,,,,,,,,,,,,,,,,,,,,,,,,,,,,,,,,,,,,,,,,,,,,,,,,,,,,479.09398358373437,479.09398358373437,479.09398358373437,479.09398358373437,479.09398358373437,479.09398358373437,l,1,0.5481888798531145,479.65235823765397,480.6857801232254,,,,,,,,,,,,,545,2010-12-28_08h32.50.344,eb_02psyexp,2022.2.4,119.92727437430851,
215,0,215,0,,,,,,,,,,,,,,,,,,,,,,,,,,,,,,,,,,,,,,,,,,,,,,,,,,,,,,,,,,480.6857801232254,480.6857801232254,480.6857801232254,480.6857801232254,480.6857801232254,480.6857801232254,s,1,0.7085957597009838,481.4025235752342,482.41925745853223,,,,,,,,,,,,,545,2010-12-28_08h32.50.344,eb_02psyexp,2022.2.4,119.92727437430851,
216,0,216,0,,,,,,,,,,,,,,,,,,,,,,,,,,,,,,,,,,,,,,,,,,,,,,,,,,,,,,,,,,482.41925745853223,482.41925745853223,482.41925745853223,482.41925745853223,482.41925745853223,482.41925745853223,s,1,0.4549481455469504,482.8859501243569,483.9193979690317,,,,,,,,,,,,,545,2010-12-28_08h32.50.344,eb_02psyexp,2022.2.4,119.92727437430851,
217,0,217,0,,,,,,,,,,,,,,,,,,,,,,,,,,,,,,,,,,,,,,,,,,,,,,,,,,,,,,,,,,483.9193979690317,483.9193979690317,483.9193979690317,483.9193979690317,483.9193979690317,483.9193979690317,s,1,0.40282130520790815,484.33608186617494,485.36116397660226,,,,,,,,,,,,,545,2010-12-28_08h32.50.344,eb_02psyexp,2022.2.4,119.92727437430851,
218,0,218,0,,,,,,,,,,,,,,,,,,,,,,,,,,,,,,,,,,,,,,,,,,,,,,,,,,,,,,,,,,485.36116397660226,485.36116397660226,485.36116397660226,485.36116397660226,485.36116397660226,485.36116397660226,l,1,0.5130986769217998,485.886196432868,486.9196243555052,,,,,,,,,,,,,545,2010-12-28_08h32.50.344,eb_02psyexp,2022.2.4,119.92727437430851,
219,0,219,0,,,,,,,,,,,,,,,,,,,,,,,,,,,,,,,,,,,,,,,,,,,,,,,,,,,,,,,,,,486.9196243555052,486.9196243555052,486.9196243555052,486.9196243555052,486.9196243555052,486.9196243555052,l,1,0.5946666235104203,487.52800777810626,488.5530913977418,,,,,,,,,,,,,545,2010-12-28_08h32.50.344,eb_02psyexp,2022.2.4,119.92727437430851,
220,0,220,0,,,,,,,,,,,,,,,,,,,,,,,,,,,,,,,,,,,,,,,,,,,,,,,,,,,,,,,,,,488.5530913977418,488.5530913977418,488.5530913977418,488.5530913977418,488.5530913977418,488.5530913977418,l,1,0.5602386763785034,489.12814167817123,490.16155873425305,,,,,,,,,,,,,545,2010-12-28_08h32.50.344,eb_02psyexp,2022.2.4,119.92727437430851,
221,0,221,0,,,,,,,,,,,,,,,,,,,,,,,,,,,,,,,,,,,,,,,,,,,,,,,,,,,,,,,,,,490.16155873425305,490.16155873425305,490.16155873425305,490.16155873425305,490.16155873425305,490.16155873425305,l,1,0.5038038525963202,490.67826590396,491.6950188037008,,,,,,,,,,,,,545,2010-12-28_08h32.50.344,eb_02psyexp,2022.2.4,119.92727437430851,
222,0,222,0,,,,,,,,,,,,,,,,,,,,,,,,,,,,,,,,,,,,,,,,,,,,,,,,,,,,,,,,,,491.6950188037008,491.6950188037008,491.6950188037008,491.6950188037008,491.6950188037008,491.6950188037008,s,1,0.594353606342338,492.3034073577728,493.3368210934568,,,,,,,,,,,,,545,2010-12-28_08h32.50.344,eb_02psyexp,2022.2.4,119.92727437430851,
223,0,223,0,,,,,,,,,,,,,,,,,,,,,,,,,,,,,,,,,,,,,,,,,,,,,,,,,,,,,,,,,,493.3368210934568,493.3368210934568,493.3368210934568,493.3368210934568,493.3368210934568,493.3368210934568,s,1,0.5365972894942388,493.88686351827346,494.91195226938,,,,,,,,,,,,,545,2010-12-28_08h32.50.344,eb_02psyexp,2022.2.4,119.92727437430851,
224,0,224,0,,,,,,,,,,,,,,,,,,,,,,,,,,,,,,,,,,,,,,,,,,,,,,,,,,,,,,,,,,494.91195226938,494.91195226938,494.91195226938,494.91195226938,494.91195226938,494.91195226938,l,1,0.4175026179291308,495.34530937823,496.3787394138053,,,,,,,,,,,,,545,2010-12-28_08h32.50.344,eb_02psyexp,2022.2.4,119.92727437430851,
225,0,225,0,,,,,,,,,,,,,,,,,,,,,,,,,,,,,,,,,,,,,,,,,,,,,,,,,,,,,,,,,,496.3787394138053,496.3787394138053,496.3787394138053,496.3787394138053,496.3787394138053,496.3787394138053,s,1,0.5827324348501861,496.9704604912549,497.98718894133344,,,,,,,,,,,,,545,2010-12-28_08h32.50.344,eb_02psyexp,2022.2.4,119.92727437430851,
226,0,226,0,,,,,,,,,,,,,,,,,,,,,,,,,,,,,,,,,,,,,,,,,,,,,,,,,,,,,,,,,,497.98718894133344,497.98718894133344,497.98718894133344,497.98718894133344,497.98718894133344,497.98718894133344,s,1,0.5423127928515896,498.5455949874595,499.57899695110973,,,,,,,,,,,,,545,2010-12-28_08h32.50.344,eb_02psyexp,2022.2.4,119.92727437430851,
227,0,227,0,,,,,,,,,,,,,,,,,,,,,,,,,,,,,,,,,,,,,,,,,,,,,,,,,,,,,,,,,,499.57899695110973,499.57899695110973,499.57899695110973,499.57899695110973,499.57899695110973,499.57899695110973,l,1,0.6305129571119323,500.22071110107936,501.2374730563024,,,,,,,,,,,,,545,2010-12-28_08h32.50.344,eb_02psyexp,2022.2.4,119.92727437430851,
228,0,228,0,,,,,,,,,,,,,,,,,,,,,,,,,,,,,,,,,,,,,,,,,,,,,,,,,,,,,,,,,,501.2374730563024,501.2374730563024,501.2374730563024,501.2374730563024,501.2374730563024,501.2374730563024,l,1,0.5640664186794311,501.81252243113704,502.83759790088516,,,,,,,,,,,,,545,2010-12-28_08h32.50.344,eb_02psyexp,2022.2.4,119.92727437430851,
229,0,229,0,,,,,,,,,,,,,,,,,,,,,,,,,,,,,,,,,,,,,,,,,,,,,,,,,,,,,,,,,,502.83759790088516,502.83759790088516,502.83759790088516,502.83759790088516,502.83759790088516,502.83759790088516,l,1,0.6599945110501722,503.5126663224073,504.53775960113853,,,,,,,,,,,,,545,2010-12-28_08h32.50.344,eb_02psyexp,2022.2.4,119.92727437430851,
230,0,230,0,,,,,,,,,,,,,,,,,,,,,,,,,,,,,,,,,,,,,,,,,,,,,,,,,,,,,,,,,,504.53775960113853,504.53775960113853,504.53775960113853,504.53775960113853,504.53775960113853,504.53775960113853,l,1,0.5188443651422858,505.07111221260857,506.08787024382036,,,,,,,,,,,,,545,2010-12-28_08h32.50.344,eb_02psyexp,2022.2.4,119.92727437430851,
231,0,231,0,,,,,,,,,,,,,,,,,,,,,,,,,,,,,,,,,,,,,,,,,,,,,,,,,,,,,,,,,,506.08787024382036,506.08787024382036,506.08787024382036,506.08787024382036,506.08787024382036,506.08787024382036,l,1,0.44876719161402434,506.54624033975415,507.56299203215167,,,,,,,,,,,,,545,2010-12-28_08h32.50.344,eb_02psyexp,2022.2.4,119.92727437430851,
232,0,232,0,,,,,,,,,,,,,,,,,,,,,,,,,,,,,,,,,,,,,,,,,,,,,,,,,,,,,,,,,,507.56299203215167,507.56299203215167,507.56299203215167,507.56299203215167,507.56299203215167,507.56299203215167,l,1,0.6136568251531571,508.1880353852175,509.2131259472808,,,,,,,,,,,,,545,2010-12-28_08h32.50.344,eb_02psyexp,2022.2.4,119.92727437430851,
233,0,233,0,,,,,,,,,,,,,,,,,,,,,,,,,,,,,,,,,,,,,,,,,,,,,,,,,,,,,,,,,,509.2131259472808,509.2131259472808,509.2131259472808,509.2131259472808,509.2131259472808,509.2131259472808,l,1,0.5635472389403731,509.78817652957514,510.80492490157485,,,,,,,,,,,,,545,2010-12-28_08h32.50.344,eb_02psyexp,2022.2.4,119.92727437430851,
234,0,234,0,,,,,,,,,,,,,,,,,,,,,,,,,,,,,,,,,,,,,,,,,,,,,,,,,,,,,,,,,,510.80492490157485,510.80492490157485,510.80492490157485,510.80492490157485,510.80492490157485,510.80492490157485,l,1,0.5877696844981983,511.40496432303917,512.4217241653241,,,,,,,,,,,,,545,2010-12-28_08h32.50.344,eb_02psyexp,2022.2.4,119.92727437430851,
235,0,235,0,,,,,,,,,,,,,,,,,,,,,,,,,,,,,,,,,,,,,,,,,,,,,,,,,,,,,,,,,,512.4217241653241,512.4217241653241,512.4217241653241,512.4217241653241,512.4217241653241,512.4217241653241,l,1,0.47502620960585773,512.9050972873811,513.9301790959435,,,,,,,,,,,,,545,2010-12-28_08h32.50.344,eb_02psyexp,2022.2.4,119.92727437430851,
236,0,236,0,,,,,,,,,,,,,,,,,,,,,,,,,,,,,,,,,,,,,,,,,,,,,,,,,,,,,,,,,,513.9301790959435,513.9301790959435,513.9301790959435,513.9301790959435,513.9301790959435,513.9301790959435,l,1,0.4305623999098316,514.371891072602,515.3969695607666,,,,,,,,,,,,,545,2010-12-28_08h32.50.344,eb_02psyexp,2022.2.4,119.92727437430851,
237,0,237,0,,,,,,,,,,,,,,,,,,,,,,,,,,,,,,,,,,,,,,,,,,,,,,,,,,,,,,,,,,515.3969695607666,515.3969695607666,515.3969695607666,515.3969695607666,515.3969695607666,515.3969695607666,s,1,0.5558126701507717,515.9636806695489,516.9804341730196,,,,,,,,,,,,,545,2010-12-28_08h32.50.344,eb_02psyexp,2022.2.4,119.92727437430851,
238,0,238,0,,,,,,,,,,,,,,,,,,,,,,,,,,,,,,,,,,,,,,,,,,,,,,,,,,,,,,,,,,516.9804341730196,516.9804341730196,516.9804341730196,516.9804341730196,516.9804341730196,516.9804341730196,l,1,0.5403915264178067,517.5304759942228,518.5555626322748,,,,,,,,,,,,,545,2010-12-28_08h32.50.344,eb_02psyexp,2022.2.4,119.92727437430851,
239,0,239,0,,,,,,,,,,,,,,,,,,,,,,,,,,,,,,,,,,,,,,,,,,,,,,,,,,,,,,,,,,518.5555626322748,518.5555626322748,518.5555626322748,518.5555626322748,518.5555626322748,518.5555626322748,l,1,0.6212588824564591,519.1889569290215,520.2056742106797,,,,,,,,,,,,,545,2010-12-28_08h32.50.344,eb_02psyexp,2022.2.4,119.92727437430851,
240,0,240,0,,,,,,,,,,,,,,,,,,,,,,,,,,,,,,,,,,,,,,,,,,,,,,,,,,,,,,,,,,520.2056742106797,520.2056742106797,520.2056742106797,520.2056742106797,520.2056742106797,520.2056742106797,l,1,0.4982108996482566,520.7140645455802,521.7391484669643,,,,,,,,,,,,,545,2010-12-28_08h32.50.344,eb_02psyexp,2022.2.4,119.92727437430851,
241,0,241,0,,,,,,,,,,,,,,,,,,,,,,,,,,,,,,,,,,,,,,,,,,,,,,,,,,,,,,,,,,521.7391484669643,521.7391484669643,521.7391484669643,521.7391484669643,521.7391484669643,521.7391484669643,l,1,0.47676938539370894,522.2308737400454,523.255959472619,,,,,,,,,,,,,545,2010-12-28_08h32.50.344,eb_02psyexp,2022.2.4,119.92727437430851,
242,0,242,0,,,,,,,,,,,,,,,,,,,,,,,,,,,,,,,,,,,,,,,,,,,,,,,,,,,,,,,,,,523.255959472619,523.255959472619,523.255959472619,523.255959472619,523.255959472619,523.255959472619,l,1,0.5519834186416119,523.8226627333788,524.8394120110897,,,,,,,,,,,,,545,2010-12-28_08h32.50.344,eb_02psyexp,2022.2.4,119.92727437430851,
243,0,243,0,,,,,,,,,,,,,,,,,,,,,,,,,,,,,,,,,,,,,,,,,,,,,,,,,,,,,,,,,,524.8394120110897,524.8394120110897,524.8394120110897,524.8394120110897,524.8394120110897,524.8394120110897,l,1,0.6325655276887119,525.4811521199299,526.5145507632988,,,,,,,,,,,,,545,2010-12-28_08h32.50.344,eb_02psyexp,2022.2.4,119.92727437430851,
244,0,244,0,,,,,,,,,,,,,,,,,,,,,,,,,,,,,,,,,,,,,,,,,,,,,,,,,,,,,,,,,,526.5145507632988,526.5145507632988,526.5145507632988,526.5145507632988,526.5145507632988,526.5145507632988,l,1,0.5654528093291447,527.0895886679646,528.1063476046547,,,,,,,,,,,,,545,2010-12-28_08h32.50.344,eb_02psyexp,2022.2.4,119.92727437430851,
245,0,245,0,,,,,,,,,,,,,,,,,,,,,,,,,,,,,,,,,,,,,,,,,,,,,,,,,,,,,,,,,,528.1063476046547,528.1063476046547,528.1063476046547,528.1063476046547,528.1063476046547,528.1063476046547,l,0,0.5816859257174656,528.698057815549,529.72316769592,,,,,,,,,,,,,545,2010-12-28_08h32.50.344,eb_02psyexp,2022.2.4,119.92727437430851,
246,0,246,0,,,,,,,,,,,,,,,,,,,,,,,,,,,,,,,,,,,,,,,,,,,,,,,,,,,,,,,,,,529.72316769592,529.72316769592,529.72316769592,529.72316769592,529.72316769592,529.72316769592,l,1,0.9648905859794468,530.6982241341611,531.7316460197326,,,,,,,,,,,,,545,2010-12-28_08h32.50.344,eb_02psyexp,2022.2.4,119.92727437430851,
247,0,247,0,,,,,,,,,,,,,,,,,,,,,,,,,,,,,,,,,,,,,,,,,,,,,,,,,,,,,,,,,,531.7316460197326,531.7316460197326,531.7316460197326,531.7316460197326,531.7316460197326,531.7316460197326,l,1,0.5244427513098344,532.2650236845948,533.2901151522528,,,,,,,,,,,,,545,2010-12-28_08h32.50.344,eb_02psyexp,2022.2.4,119.92727437430851,
248,0,248,0,,,,,,,,,,,,,,,,,,,,,,,,,,,,,,,,,,,,,,,,,,,,,,,,,,,,,,,,,,533.2901151522528,533.2901151522528,533.2901151522528,533.2901151522528,533.2901151522528,533.2901151522528,l,1,0.49398501904215664,533.798483754159,534.831899904646,,,,,,,,,,,,,545,2010-12-28_08h32.50.344,eb_02psyexp,2022.2.4,119.92727437430851,
249,0,249,0,,,,,,,,,,,,,,,,,,,,,,,,,,,,,,,,,,,,,,,,,,,,,,,,,,,,,,,,,,534.831899904646,534.831899904646,534.831899904646,534.831899904646,534.831899904646,534.831899904646,l,1,1.407254857593216,536.2486831099959,537.2737688425696,,,,,,,,,,,,,545,2010-12-28_08h32.50.344,eb_02psyexp,2022.2.4,119.92727437430851,
250,0,250,0,,,,,,,,,,,,,,,,,,,,,,,,,,,,,,,,,,,,,,,,,,,,,,,,,,,,,,,,,,537.2737688425696,537.2737688425696,537.2737688425696,537.2737688425696,537.2737688425696,537.2737688425696,l,1,0.8134096715366468,538.0988285557833,539.1155883980682,,,,,,,,,,,,,545,2010-12-28_08h32.50.344,eb_02psyexp,2022.2.4,119.92727437430851,
251,0,251,0,,,,,,,,,,,,,,,,,,,,,,,,,,,,,,,,,,,,,,,,,,,,,,,,,,,,,,,,,,539.1155883980682,539.1155883980682,539.1155883980682,539.1155883980682,539.1155883980682,539.1155883980682,l,1,1.3716234400635585,540.4990366501734,541.524127212353,,,,,,,,,,,,,545,2010-12-28_08h32.50.344,eb_02psyexp,2022.2.4,119.92727437430851,
252,0,252,0,,,,,,,,,,,,,,,,,,,,,,,,,,,,,,,,,,,,,,,,,,,,,,,,,,,,,,,,,,541.524127212353,541.524127212353,541.524127212353,541.524127212353,541.524127212353,541.524127212353,s,1,0.7071212292648852,542.2408356497763,543.265925910091,,,,,,,,,,,,,545,2010-12-28_08h32.50.344,eb_02psyexp,2022.2.4,119.92727437430851,
253,0,253,0,,,,,,,,,,,,,,,,,,,,,,,,,,,,,,,,,,,,,,,,,,,,,,,,,,,,,,,,,,543.265925910091,543.265925910091,543.265925910091,543.265925910091,543.265925910091,543.265925910091,l,1,0.6053668549284339,543.8826445802115,544.916062843753,,,,,,,,,,,,,545,2010-12-28_08h32.50.344,eb_02psyexp,2022.2.4,119.92727437430851,
254,0,254,0,,,,,,,,,,,,,,,,,,,,,,,,,,,,,,,,,,,,,,,,,,,,,,,,,,,,,,,,,,544.916062843753,544.916062843753,544.916062843753,544.916062843753,544.916062843753,544.916062843753,s,1,0.6992882577469572,545.6244782924186,546.6495404808084,,,,,,,,,,,,,545,2010-12-28_08h32.50.344,eb_02psyexp,2022.2.4,119.92727437430851,
255,0,255,0,,,,,,,,,,,,,,,,,,,,,,,,,,,,,,,,,,,,,,,,,,,,,,,,,,,,,,,,,,546.6495404808084,546.6495404808084,546.6495404808084,546.6495404808084,546.6495404808084,546.6495404808084,s,1,0.6217702139401808,547.2829254202079,548.3080105490517,,,,,,,,,,,,,545,2010-12-28_08h32.50.344,eb_02psyexp,2022.2.4,119.92727437430851,
256,0,256,0,,,,,,,,,,,,,,,,,,,,,,,,,,,,,,,,,,,,,,,,,,,,,,,,,,,,,,,,,,548.3080105490517,548.3080105490517,548.3080105490517,548.3080105490517,548.3080105490517,548.3080105490517,s,1,0.7393505109939724,549.0580729562789,550.0748228376033,,,,,,,,,,,,,545,2010-12-28_08h32.50.344,eb_02psyexp,2022.2.4,119.92727437430851,
257,0,257,0,,,,,,,,,,,,,,,,,,,,,,,,,,,,,,,,,,,,,,,,,,,,,,,,,,,,,,,,,,550.0748228376033,550.0748228376033,550.0748228376033,550.0748228376033,550.0748228376033,550.0748228376033,l,1,0.5325820992002264,550.6165731791407,551.6416211806936,,,,,,,,,,,,,545,2010-12-28_08h32.50.344,eb_02psyexp,2022.2.4,119.92727437430851,
258,0,258,0,,,,,,,,,,,,,,,,,,,,,,,,,,,,,,,,,,,,,,,,,,,,,,,,,,,,,,,,,,551.6416211806936,551.6416211806936,551.6416211806936,551.6416211806936,551.6416211806936,551.6416211806936,s,1,0.580795472371392,552.2333289766684,553.2584180296399,,,,,,,,,,,,,545,2010-12-28_08h32.50.344,eb_02psyexp,2022.2.4,119.92727437430851,
259,0,259,0,,,,,,,,,,,,,,,,,,,,,,,,,,,,,,,,,,,,,,,,,,,,,,,,,,,,,,,,,,553.2584180296399,553.2584180296399,553.2584180296399,553.2584180296399,553.2584180296399,553.2584180296399,s,1,0.5800073456484824,553.8501351829618,554.8835661240155,,,,,,,,,,,,,545,2010-12-28_08h32.50.344,eb_02psyexp,2022.2.4,119.92727437430851,
260,0,260,0,,,,,,,,,,,,,,,,,,,,,,,,,,,,,,,,,,,,,,,,,,,,,,,,,,,,,,,,,,554.8835661240155,554.8835661240155,554.8835661240155,554.8835661240155,554.8835661240155,554.8835661240155,s,1,0.6349259838461876,555.5335971087916,556.5586912931176,,,,,,,,,,,,,545,2010-12-28_08h32.50.344,eb_02psyexp,2022.2.4,119.92727437430851,
261,0,261,0,,,,,,,,,,,,,,,,,,,,,,,,,,,,,,,,,,,,,,,,,,,,,,,,,,,,,,,,,,556.5586912931176,556.5586912931176,556.5586912931176,556.5586912931176,556.5586912931176,556.5586912931176,l,1,0.5998291402356699,557.1670719990507,558.2004911680706,,,,,,,,,,,,,545,2010-12-28_08h32.50.344,eb_02psyexp,2022.2.4,119.92727437430851,
262,0,262,0,,,,,,,,,,,,,,,,,,,,,,,,,,,,,,,,,,,,,,,,,,,,,,,,,,,,,,,,,,558.2004911680706,558.2004911680706,558.2004911680706,558.2004911680706,558.2004911680706,558.2004911680706,s,1,0.5500715095549822,558.7588685386581,559.7839440082898,,,,,,,,,,,,,545,2010-12-28_08h32.50.344,eb_02psyexp,2022.2.4,119.92727437430851,
263,0,263,0,,,,,,,,,,,,,,,,,,,,,,,,,,,,,,,,,,,,,,,,,,,,,,,,,,,,,,,,,,559.7839440082898,559.7839440082898,559.7839440082898,559.7839440082898,559.7839440082898,559.7839440082898,l,1,0.5186348822899163,560.3173271064879,561.3340833266266,,,,,,,,,,,,,545,2010-12-28_08h32.50.344,eb_02psyexp,2022.2.4,119.92727437430851,
264,0,264,0,,,,,,,,,,,,,,,,,,,,,,,,,,,,,,,,,,,,,,,,,,,,,,,,,,,,,,,,,,561.3340833266266,561.3340833266266,561.3340833266266,561.3340833266266,561.3340833266266,561.3340833266266,l,1,0.6245209603803232,561.9674655493582,562.9842217693804,,,,,,,,,,,,,545,2010-12-28_08h32.50.344,eb_02psyexp,2022.2.4,119.92727437430851,
265,0,265,0,,,,,,,,,,,,,,,,,,,,,,,,,,,,,,,,,,,,,,,,,,,,,,,,,,,,,,,,,,562.9842217693804,562.9842217693804,562.9842217693804,562.9842217693804,562.9842217693804,562.9842217693804,l,1,0.5744101668242365,563.5676069955807,564.5926845782669,,,,,,,,,,,,,545,2010-12-28_08h32.50.344,eb_02psyexp,2022.2.4,119.92727437430851,
266,0,266,0,,,,,,,,,,,,,,,,,,,,,,,,,,,,,,,,,,,,,,,,,,,,,,,,,,,,,,,,,,564.5926845782669,564.5926845782669,564.5926845782669,564.5926845782669,564.5926845782669,564.5926845782669,l,1,0.5179898317437619,565.1260592245962,566.2178127507214,,,,,,,,,,,,,545,2010-12-28_08h32.50.344,eb_02psyexp,2022.2.4,119.92727437430851,
267,0,267,0,,,,,,,,,,,,,,,,,,,,,,,,,,,,,,,,,,,,,,,,,,,,,,,,,,,,,,,,,,566.2178127507214,566.2178127507214,566.2178127507214,566.2178127507214,566.2178127507214,566.2178127507214,l,1,0.5798790599219501,566.8095323188463,567.8429505822714,,,,,,,,,,,,,545,2010-12-28_08h32.50.344,eb_02psyexp,2022.2.4,119.92727437430851,
268,0,268,0,,,,,,,,,,,,,,,,,,,,,,,,,,,,,,,,,,,,,,,,,,,,,,,,,,,,,,,,,,567.8429505822714,567.8429505822714,567.8429505822714,567.8429505822714,567.8429505822714,567.8429505822714,s,1,0.658797379466705,568.5180008929456,569.5430911532603,,,,,,,,,,,,,545,2010-12-28_08h32.50.344,eb_02psyexp,2022.2.4,119.92727437430851,
269,0,269,0,,,,,,,,,,,,,,,,,,,,,,,,,,,,,,,,,,,,,,,,,,,,,,,,,,,,,,,,,,569.5430911532603,569.5430911532603,569.5430911532603,569.5430911532603,569.5430911532603,569.5430911532603,s,1,0.558649443439208,570.1182036144892,571.1515539620304,,,,,,,,,,,,,545,2010-12-28_08h32.50.344,eb_02psyexp,2022.2.4,119.92727437430851,
270,0,270,0,,,,,,,,,,,,,,,,,,,,,,,,,,,,,,,,,,,,,,,,,,,,,,,,,,,,,,,,,,571.1515539620304,571.1515539620304,571.1515539620304,571.1515539620304,571.1515539620304,571.1515539620304,s,1,0.4622015677159652,571.6265936475247,572.6516790782334,,,,,,,,,,,,,545,2010-12-28_08h32.50.344,eb_02psyexp,2022.2.4,119.92727437430851,
271,0,271,0,,,,,,,,,,,,,,,,,,,,,,,,,,,,,,,,,,,,,,,,,,,,,,,,,,,,,,,,,,572.6516790782334,572.6516790782334,572.6516790782334,572.6516790782334,572.6516790782334,572.6516790782334,s,1,0.49812094878870994,573.160055830027,574.1851255645743,,,,,,,,,,,,,545,2010-12-28_08h32.50.344,eb_02psyexp,2022.2.4,119.92727437430851,
272,0,272,0,,,,,,,,,,,,,,,,,,,,,,,,,,,,,,,,,,,,,,,,,,,,,,,,,,,,,,,,,,574.1851255645743,574.1851255645743,574.1851255645743,574.1851255645743,574.1851255645743,574.1851255645743,s,1,0.7086983881890774,574.9102024529129,575.9352839596104,,,,,,,,,,,,,545,2010-12-28_08h32.50.344,eb_02psyexp,2022.2.4,119.92727437430851,
273,0,273,0,,,,,,,,,,,,,,,,,,,,,,,,,,,,,,,,,,,,,,,,,,,,,,,,,,,,,,,,,,575.9352839596104,575.9352839596104,575.9352839596104,575.9352839596104,575.9352839596104,575.9352839596104,s,1,0.52657199150417,576.4769863073016,577.5104121170007,,,,,,,,,,,,,545,2010-12-28_08h32.50.344,eb_02psyexp,2022.2.4,119.92727437430851,
274,0,274,0,,,,,,,,,,,,,,,,,,,,,,,,,,,,,,,,,,,,,,,,,,,,,,,,,,,,,,,,,,577.5104121170007,577.5104121170007,577.5104121170007,577.5104121170007,577.5104121170007,577.5104121170007,s,1,0.4554510252783075,577.9771171587054,579.002202891279,,,,,,,,,,,,,545,2010-12-28_08h32.50.344,eb_02psyexp,2022.2.4,119.92727437430851,
275,0,275,0,,,,,,,,,,,,,,,,,,,,,,,,,,,,,,,,,,,,,,,,,,,,,,,,,,,,,,,,,,579.002202891279,579.002202891279,579.002202891279,579.002202891279,579.002202891279,579.002202891279,l,1,0.7077089283848181,579.7189366839593,580.7356805283343,,,,,,,,,,,,,545,2010-12-28_08h32.50.344,eb_02psyexp,2022.2.4,119.92727437430851,
276,0,276,0,,,,,,,,,,,,,,,,,,,,,,,,,,,,,,,,,,,,,,,,,,,,,,,,,,,,,,,,,,580.7356805283343,580.7356805283343,580.7356805283343,580.7356805283343,580.7356805283343,580.7356805283343,l,1,0.5822675880044699,581.3274025112623,582.3441478648456,,,,,,,,,,,,,545,2010-12-28_08h32.50.344,eb_02psyexp,2022.2.4,119.92727437430851,
277,0,277,0,,,,,,,,,,,,,,,,,,,,,,,,,,,,,,,,,,,,,,,,,,,,,,,,,,,,,,,,,,582.3441478648456,582.3441478648456,582.3441478648456,582.3441478648456,582.3441478648456,582.3441478648456,l,1,0.9088321675080806,583.269218474743,584.2859891835833,,,,,,,,,,,,,545,2010-12-28_08h32.50.344,eb_02psyexp,2022.2.4,119.92727437430851,
278,0,278,0,,,,,,,,,,,,,,,,,,,,,,,,,,,,,,,,,,,,,,,,,,,,,,,,,,,,,,,,,,584.2859891835833,584.2859891835833,584.2859891835833,584.2859891835833,584.2859891835833,584.2859891835833,l,1,0.6150133326882496,584.9110277070431,585.9444399335189,,,,,,,,,,,,,545,2010-12-28_08h32.50.344,eb_02psyexp,2022.2.4,119.92727437430851,
279,0,279,0,,,,,,,,,,,,,,,,,,,,,,,,,,,,,,,,,,,,,,,,,,,,,,,,,,,,,,,,,,585.9444399335189,585.9444399335189,585.9444399335189,585.9444399335189,585.9444399335189,585.9444399335189,l,1,0.5245915628038347,586.477815485443,587.5028985013487,,,,,,,,,,,,,545,2010-12-28_08h32.50.344,eb_02psyexp,2022.2.4,119.92727437430851,
280,0,280,0,,,,,,,,,,,,,,,,,,,,,,,,,,,,,,,,,,,,,,,,,,,,,,,,,,,,,,,,,,587.5028985013487,587.5028985013487,587.5028985013487,587.5028985013487,587.5028985013487,587.5028985013487,l,1,0.6221439024666324,588.1362783092773,589.1530423774384,,,,,,,,,,,,,545,2010-12-28_08h32.50.344,eb_02psyexp,2022.2.4,119.92727437430851,
281,0,281,0,,,,,,,,,,,,,,,,,,,,,,,,,,,,,,,,,,,,,,,,,,,,,,,,,,,,,,,,,,589.1530423774384,589.1530423774384,589.1530423774384,589.1530423774384,589.1530423774384,589.1530423774384,l,1,0.4280256641795859,589.5947398653952,590.6198268053122,,,,,,,,,,,,,545,2010-12-28_08h32.50.344,eb_02psyexp,2022.2.4,119.92727437430851,
282,0,282,0,,,,,,,,,,,,,,,,,,,,,,,,,,,,,,,,,,,,,,,,,,,,,,,,,,,,,,,,,,590.6198268053122,590.6198268053122,590.6198268053122,590.6198268053122,590.6198268053122,590.6198268053122,s,1,0.6092905849218369,591.2448758934624,592.26162758586,,,,,,,,,,,,,545,2010-12-28_08h32.50.344,eb_02psyexp,2022.2.4,119.92727437430851,
283,0,283,0,,,,,,,,,,,,,,,,,,,,,,,,,,,,,,,,,,,,,,,,,,,,,,,,,,,,,,,,,,592.26162758586,592.26162758586,592.26162758586,592.26162758586,592.26162758586,592.26162758586,l,1,0.575502858730033,592.8533408151707,593.8867590787122,,,,,,,,,,,,,545,2010-12-28_08h32.50.344,eb_02psyexp,2022.2.4,119.92727437430851,
284,0,284,0,,,,,,,,,,,,,,,,,,,,,,,,,,,,,,,,,,,,,,,,,,,,,,,,,,,,,,,,,,593.8867590787122,593.8867590787122,593.8867590787122,593.8867590787122,593.8867590787122,593.8867590787122,s,1,0.6463941180845723,594.5451570050791,595.5702294562943,,,,,,,,,,,,,545,2010-12-28_08h32.50.344,eb_02psyexp,2022.2.4,119.92727437430851,
285,0,285,0,,,,,,,,,,,,,,,,,,,,,,,,,,,,,,,,,,,,,,,,,,,,,,,,,,,,,,,,,,595.5702294562943,595.5702294562943,595.5702294562943,595.5702294562943,595.5702294562943,595.5702294562943,l,1,0.6029553863918409,596.1869478246663,597.2036762746284,,,,,,,,,,,,,545,2010-12-28_08h32.50.344,eb_02psyexp,2022.2.4,119.92727437430851,
286,0,286,0,,,,,,,,,,,,,,,,,,,,,,,,,,,,,,,,,,,,,,,,,,,,,,,,,,,,,,,,,,597.2036762746284,597.2036762746284,597.2036762746284,597.2036762746284,597.2036762746284,597.2036762746284,l,1,0.5045910737244412,597.7204066867707,598.745494532166,,,,,,,,,,,,,545,2010-12-28_08h32.50.344,eb_02psyexp,2022.2.4,119.92727437430851,
287,0,287,0,,,,,,,,,,,,,,,,,,,,,,,,,,,,,,,,,,,,,,,,,,,,,,,,,,,,,,,,,,598.745494532166,598.745494532166,598.745494532166,598.745494532166,598.745494532166,598.745494532166,l,1,0.5787410907214507,599.3372068559984,600.3623097939417,,,,,,,,,,,,,545,2010-12-28_08h32.50.344,eb_02psyexp,2022.2.4,119.92727437430851,
288,0,288,0,,,,,,,,,,,,,,,,,,,,,,,,,,,,,,,,,,,,,,,,,,,,,,,,,,,,,,,,,,600.3623097939417,600.3623097939417,600.3623097939417,600.3623097939417,600.3623097939417,600.3623097939417,s,1,0.5859576873481274,600.9623410654021,601.9874367590528,,,,,,,,,,,,,545,2010-12-28_08h32.50.344,eb_02psyexp,2022.2.4,119.92727437430851,
289,0,289,0,,,,,,,,,,,,,,,,,,,,,,,,,,,,,,,,,,,,,,,,,,,,,,,,,,,,,,,,,,601.9874367590528,601.9874367590528,601.9874367590528,601.9874367590528,601.9874367590528,601.9874367590528,s,1,0.5928902443265542,602.5957987502916,603.6292287858669,,,,,,,,,,,,,545,2010-12-28_08h32.50.344,eb_02psyexp,2022.2.4,119.92727437430851,
290,0,290,0,,,,,,,,,,,,,,,,,,,,,,,,,,,,,,,,,,,,,,,,,,,,,,,,,,,,,,,,,,603.6292287858669,603.6292287858669,603.6292287858669,603.6292287858669,603.6292287858669,603.6292287858669,s,1,0.5670996953267604,604.2126085787313,605.2376891799504,,,,,,,,,,,,,545,2010-12-28_08h32.50.344,eb_02psyexp,2022.2.4,119.92727437430851,
291,0,291,0,,,,,,,,,,,,,,,,,,,,,,,,,,,,,,,,,,,,,,,,,,,,,,,,,,,,,,,,,,605.2376891799504,605.2376891799504,605.2376891799504,605.2376891799504,605.2376891799504,605.2376891799504,l,1,0.8466661440907046,606.0960980332457,607.1211810491513,,,,,,,,,,,,,545,2010-12-28_08h32.50.344,eb_02psyexp,2022.2.4,119.92727437430851,
292,0,292,0,,,,,,,,,,,,,,,,,,,,,,,,,,,,,,,,,,,,,,,,,,,,,,,,,,,,,,,,,,607.1211810491513,607.1211810491513,607.1211810491513,607.1211810491513,607.1211810491513,607.1211810491513,l,1,1.1232349342899397,608.2546077945735,609.2797037899727,,,,,,,,,,,,,545,2010-12-28_08h32.50.344,eb_02psyexp,2022.2.4,119.92727437430851,
293,0,293,0,,,,,,,,,,,,,,,,,,,,,,,,,,,,,,,,,,,,,,,,,,,,,,,,,,,,,,,,,,609.2797037899727,609.2797037899727,609.2797037899727,609.2797037899727,609.2797037899727,609.2797037899727,s,1,0.6207191770663485,609.9130742406705,610.9298289514845,,,,,,,,,,,,,545,2010-12-28_08h32.50.344,eb_02psyexp,2022.2.4,119.92727437430851,
294,0,294,0,,,,,,,,,,,,,,,,,,,,,,,,,,,,,,,,,,,,,,,,,,,,,,,,,,,,,,,,,,610.9298289514845,610.9298289514845,610.9298289514845,610.9298289514845,610.9298289514845,610.9298289514845,l,1,0.49864314682781696,611.4381909127114,612.4632890210487,,,,,,,,,,,,,545,2010-12-28_08h32.50.344,eb_02psyexp,2022.2.4,119.92727437430851,
295,0,295,0,,,,,,,,,,,,,,,,,,,,,,,,,,,,,,,,,,,,,,,,,,,,,,,,,,,,,,,,,,612.4632890210487,612.4632890210487,612.4632890210487,612.4632890210487,612.4632890210487,612.4632890210487,s,1,0.4531684460816905,612.9299907423556,613.9550764749292,,,,,,,,,,,,,545,2010-12-28_08h32.50.344,eb_02psyexp,2022.2.4,119.92727437430851,
296,0,296,0,,,,,,,,,,,,,,,,,,,,,,,,,,,,,,,,,,,,,,,,,,,,,,,,,,,,,,,,,,613.9550764749292,613.9550764749292,613.9550764749292,613.9550764749292,613.9550764749292,613.9550764749292,l,0,0.9364322989713401,614.9051567515125,615.9302376544802,,,,,,,,,,,,,545,2010-12-28_08h32.50.344,eb_02psyexp,2022.2.4,119.92727437430851,
297,0,297,0,,,,,,,,,,,,,,,,,,,,,,,,,,,,,,,,,,,,,,,,,,,,,,,,,,,,,,,,,,615.9302376544802,615.9302376544802,615.9302376544802,615.9302376544802,615.9302376544802,615.9302376544802,s,1,1.2013340366538614,617.1470060090069,618.1720890249126,,,,,,,,,,,,,545,2010-12-28_08h32.50.344,eb_02psyexp,2022.2.4,119.92727437430851,
298,0,298,0,,,,,,,,,,,,,,,,,,,,,,,,,,,,,,,,,,,,,,,,,,,,,,,,,,,,,,,,,,618.1720890249126,618.1720890249126,618.1720890249126,618.1720890249126,618.1720890249126,618.1720890249126,l,1,0.45546611782629043,618.6387910480844,619.6555231203092,,,,,,,,,,,,,545,2010-12-28_08h32.50.344,eb_02psyexp,2022.2.4,119.92727437430851,
299,0,299,0,,,,,,,,,,,,,,,,,,,,,,,,,,,,,,,,,,,,,,,,,,,,,,,,,,,,,,,,,,619.6555231203092,619.6555231203092,619.6555231203092,619.6555231203092,619.6555231203092,619.6555231203092,l,1,0.564079096307978,620.2305912098382,621.2640070584603,,,,,,,,,,,,,545,2010-12-28_08h32.50.344,eb_02psyexp,2022.2.4,119.92727437430851,
300,0,300,0,,,,,,,,,,,,,,,,,,,,,,,,,,,,,,,,,,,,,,,,,,,,,,,,,,,,,,,,,,621.2640070584603,621.2640070584603,621.2640070584603,621.2640070584603,621.2640070584603,621.2640070584603,l,1,0.8596631416585296,622.1390731255524,623.1558441362577,,,,,,,,,,,,,545,2010-12-28_08h32.50.344,eb_02psyexp,2022.2.4,119.92727437430851,
