trials.thisRepN,trials.thisTrialN,trials.thisN,trials.thisIndex,image_loop.thisRepN,image_loop.thisTrialN,image_loop.thisN,image_loop.thisIndex,break_loop.thisRepN,break_loop.thisTrialN,break_loop.thisN,break_loop.thisIndex,test_trials.thisRepN,test_trials.thisTrialN,test_trials.thisN,test_trials.thisIndex,tools,welcome_text.started,instructions_0_keypress.started,instructions_0_keypress.keys,instructions_0_keypress.rt,consent_image_0.started,consent0_key_resp.started,consent0_text.started,consent0_key_resp.keys,consent0_key_resp.rt,consent_image_1.started,consent1_key_resp.started,consent1_text.started,consent1_key_resp.keys,consent1_key_resp.rt,consent2_text.started,consent_image_2.started,consent2_key_resp.started,consent2_key_resp.keys,consent2_key_resp.rt,agree_button.started,disagree_button.started,consent_image_3.started,agree_button.numClicks,agree_button.timesOn,agree_button.timesOff,disagree_button.numClicks,disagree_button.timesOn,disagree_button.timesOff,instructions_text1.started,instructions1_key_resp.started,instr1_cnt_text.started,instructions1_key_resp.keys,instructions1_key_resp.rt,instructions_text2.started,instr2_cnt_text.started,instructions2_key_resp.started,instructions2_key_resp.keys,instructions2_key_resp.rt,instructions_text3.started,instructions3_key_resp.started,instr3_cnt_text.started,instructions3_key_resp.keys,instructions3_key_resp.rt,text_countdown.started,text_countdown.stopped,image.started,small_large_keyresp.started,task_question_text.started,smalleroption_text.started,largeroption_text.started,accuracy_score_text.started,small_large_keyresp.keys,small_large_keyresp.corr,small_large_keyresp.rt,fb_2.started,fb_2.stopped,break_text.started,break_key_resp.started,break_key_resp.keys,break_key_resp.rt,graph.started,debrief_text.started,debriefing_title.started,demo_scr_adv.started,demo_scr_adv_keypress.started,demo_scr_adv_keypress.keys,demo_scr_adv_keypress.rt,text_countdown_2.started,participant,date,expName,psychopyVersion,frameRate,
,,,,,,,,,,,,,,,,[ 6  5  9  8  2  0  4  3  7 11  1 10],120.79661166854203,120.79661166854203,return,3.1199341997271404,,,,,,,,,,,,,,,,,,,,,,,,,,,,,,,,,,,,,,,,,,,,,,,,,,,,,,,,,,,,,,,,,546,2023-05-15_11h00.19.011,eb_02psyexp,2022.2.4,60.00572355575006,
,,,,,,,,,,,,,,,,,,,,,123.94633194874041,123.94633194874041,123.94633194874041,space,1.1772452191216871,,,,,,,,,,,,,,,,,,,,,,,,,,,,,,,,,,,,,,,,,,,,,,,,,,,,,,,,,,,,546,2023-05-15_11h00.19.011,eb_02psyexp,2022.2.4,60.00572355575006,
,,,,,,,,,,,,,,,,,,,,,,,,,,125.14621797204018,125.14621797204018,125.14621797204018,space,0.6733387403655797,,,,,,,,,,,,,,,,,,,,,,,,,,,,,,,,,,,,,,,,,,,,,,,,,,,,,,,546,2023-05-15_11h00.19.011,eb_02psyexp,2022.2.4,60.00572355575006,
,,,,,,,,,,,,,,,,,,,,,,,,,,,,,,,125.84618338057771,125.84618338057771,125.84618338057771,space,0.4533241792814806,,,,,,,,,,,,,,,,,,,,,,,,,,,,,,,,,,,,,,,,,,,,,,,,,,546,2023-05-15_11h00.19.011,eb_02psyexp,2022.2.4,60.00572355575006,
,,,,,,,,,,,,,,,,,,,,,,,,,,,,,,,,,,,,126.32947836956009,126.32947836956009,126.32947836956009,1,[2.1991954017430544],[2.1992002313490957],0,,,128.52899493451696,130.51247465261258,130.51247465261258,space,0.7071043357718736,,,,,,,,,,,,,,,,,,,,,,,,,,,,,,,,,,,,546,2023-05-15_11h00.19.011,eb_02psyexp,2022.2.4,60.00572355575006,
,,,,,,,,,,,,,,,,,,,,,,,,,,,,,,,,,,,,,,,,,,,,,,,,,,131.24575349281076,134.22887069510762,134.22887069510762,space,0.5827164021320641,,,,,,,,,,,,,,,,,,,,,,,,,,,,,,,546,2023-05-15_11h00.19.011,eb_02psyexp,2022.2.4,60.00572355575006,
,,,,,,,,,,,,,,,,,,,,,,,,,,,,,,,,,,,,,,,,,,,,,,,,,,,,,,,134.8288149141008,137.81192215543706,137.81192215543706,space,0.7436701480764896,,,,,,,,,,,,,,,,,,,,,,,,,,546,2023-05-15_11h00.19.011,eb_02psyexp,2022.2.4,60.00572355575006,
0,0,0,0,,,,,,,,,,,,,,,,,,,,,,,,,,,,,,,,,,,,,,,,,,,,,,,,,,,,,,,,,138.57820624357555,143.61146443756297,143.61146443756297,143.61146443756297,143.61146443756297,143.61146443756297,143.61146443756297,143.61146443756297,s,1,1.1671853269217536,144.81138456938788,145.8276516032638,,,,,,,,,,,,,546,2023-05-15_11h00.19.011,eb_02psyexp,2022.2.4,60.00572355575006,
1,0,1,0,,,,,,,,,,,,,,,,,,,,,,,,,,,,,,,,,,,,,,,,,,,,,,,,,,,,,,,,,,,145.8276516032638,145.8276516032638,145.8276516032638,145.8276516032638,145.8276516032638,145.8276516032638,s,1,1.2630030221771449,147.11120454897173,148.1278111585416,,,,,,,,,,,,,546,2023-05-15_11h00.19.011,eb_02psyexp,2022.2.4,60.00572355575006,
2,0,2,0,,,,,,,,,,,,,,,,,,,,,,,,,,,,,,,,,,,,,,,,,,,,,,,,,,,,,,,,,,,148.1278111585416,148.1278111585416,148.1278111585416,148.1278111585416,148.1278111585416,148.1278111585416,l,1,1.0028515200829133,149.16104943084065,150.19430641748477,,,,,,,,,,,,,546,2023-05-15_11h00.19.011,eb_02psyexp,2022.2.4,60.00572355575006,
3,0,3,0,,,,,,,,,,,,,,,,,,,,,,,,,,,,,,,,,,,,,,,,,,,,,,,,,,,,,,,,,,,150.19430641748477,150.19430641748477,150.19430641748477,150.19430641748477,150.19430641748477,150.19430641748477,l,1,0.5443823817186058,150.76093116786797,151.77750970586203,,,,,,,,,,,,,546,2023-05-15_11h00.19.011,eb_02psyexp,2022.2.4,60.00572355575006,
4,0,4,0,,,,,,,,,,,,,,,,,,,,,,,,,,,,,,,,,,,,,,,,,,,,,,,,,,,,,,,,,,,151.77750970586203,151.77750970586203,151.77750970586203,151.77750970586203,151.77750970586203,151.77750970586203,s,1,1.0171942918095738,152.82743397296872,153.86070424073841,,,,,,,,,,,,,546,2023-05-15_11h00.19.011,eb_02psyexp,2022.2.4,60.00572355575006,
5,0,5,0,,,,,,,,,,,,,,,,,,,,,,,,,,,,,,,,,,,,,,,,,,,,,,,,,,,,,,,,,,,153.86070424073841,153.86070424073841,153.86070424073841,153.86070424073841,153.86070424073841,153.86070424073841,s,1,0.44603130081668496,154.32731836626772,155.3605759566417,,,,,,,,,,,,,546,2023-05-15_11h00.19.011,eb_02psyexp,2022.2.4,60.00572355575006,
6,0,6,0,,,,,,,,,,,,,,,,,,,,,,,,,,,,,,,,,,,,,,,,,,,,,,,,,,,,,,,,,,,155.3605759566417,155.3605759566417,155.3605759566417,155.3605759566417,155.3605759566417,155.3605759566417,s,1,0.4412349829217419,155.82721543707885,156.86045853886753,,,,,,,,,,,,,546,2023-05-15_11h00.19.011,eb_02psyexp,2022.2.4,60.00572355575006,
7,0,7,0,,,,,,,,,,,,,,,,,,,,,,,,,,,,,,,,,,,,,,,,,,,,,,,,,,,,,,,,,,,156.86045853886753,156.86045853886753,156.86045853886753,156.86045853886753,156.86045853886753,156.86045853886753,s,1,0.38128100824542344,157.2604328216985,158.27700803941116,,,,,,,,,,,,,546,2023-05-15_11h00.19.011,eb_02psyexp,2022.2.4,60.00572355575006,
8,0,8,0,,,,,,,,,,,,,,,,,,,,,,,,,,,,,,,,,,,,,,,,,,,,,,,,,,,,,,,,,,,158.27700803941116,158.27700803941116,158.27700803941116,158.27700803941116,158.27700803941116,158.27700803941116,s,1,0.43671183462720364,158.7436475198483,159.77690450649243,,,,,,,,,,,,,546,2023-05-15_11h00.19.011,eb_02psyexp,2022.2.4,60.00572355575006,
9,0,9,0,,,,,,,,,,,,,,,,,,,,,,,,,,,,,,,,,,,,,,,,,,,,,,,,,,,,,,,,,,,159.77690450649243,159.77690450649243,159.77690450649243,159.77690450649243,159.77690450649243,159.77690450649243,s,1,0.3848379503469914,160.19353037385736,161.21012973913457,,,,,,,,,,,,,546,2023-05-15_11h00.19.011,eb_02psyexp,2022.2.4,60.00572355575006,
10,0,10,0,,,,,,,,,,,,,,,,,,,,,,,,,,,,,,,,,,,,,,,,,,,,,,,,,,,,,,,,,,,161.21012973913457,161.21012973913457,161.21012973913457,161.21012973913457,161.21012973913457,161.21012973913457,l,1,0.5035880220821127,161.7434172121575,162.7766705766553,,,,,,,,,,,,,546,2023-05-15_11h00.19.011,eb_02psyexp,2022.2.4,60.00572355575006,
11,0,11,0,,,,,,,,,,,,,,,,,,,,,,,,,,,,,,,,,,,,,,,,,,,,,,,,,,,,,,,,,,,162.7766705766553,162.7766705766553,162.7766705766553,162.7766705766553,162.7766705766553,162.7766705766553,s,1,0.4250799334840849,163.226634023129,164.25987621943932,,,,,,,,,,,,,546,2023-05-15_11h00.19.011,eb_02psyexp,2022.2.4,60.00572355575006,
12,0,12,0,,,,,,,,,,,,,,,,,,,,,,,,,,,,,,,,,,,,,,,,,,,,,,,,,,,,,,,,,,,164.25987621943932,164.25987621943932,164.25987621943932,164.25987621943932,164.25987621943932,164.25987621943932,s,1,0.4858621710445732,164.77651482459623,165.80978207394946,,,,,,,,,,,,,546,2023-05-15_11h00.19.011,eb_02psyexp,2022.2.4,60.00572355575006,
13,0,13,0,,,,,,,,,,,,,,,,,,,,,,,,,,,,,,,,,,,,,,,,,,,,,,,,,,,,,,,,,,,165.80978207394946,165.80978207394946,165.80978207394946,165.80978207394946,165.80978207394946,165.80978207394946,s,1,0.3759887587511912,166.20975364011247,167.2263182932511,,,,,,,,,,,,,546,2023-05-15_11h00.19.011,eb_02psyexp,2022.2.4,60.00572355575006,
14,0,14,0,,,,,,,,,,,,,,,,,,,,,,,,,,,,,,,,,,,,,,,,,,,,,,,,,,,,,,,,,,,167.2263182932511,167.2263182932511,167.2263182932511,167.2263182932511,167.2263182932511,167.2263182932511,s,1,0.3994904150022194,167.64294476422947,168.67620808957145,,,,,,,,,,,,,546,2023-05-15_11h00.19.011,eb_02psyexp,2022.2.4,60.00572355575006,
15,0,15,0,,,,,,,,,,,,,,,,,,,,,,,,,,,,,,,,,,,,,,,,,,,,,,,,,,,,,,,,,,,168.67620808957145,168.67620808957145,168.67620808957145,168.67620808957145,168.67620808957145,168.67620808957145,l,1,0.3816082082921639,169.07617271342315,170.0927702676272,,,,,,,,,,,,,546,2023-05-15_11h00.19.011,eb_02psyexp,2022.2.4,60.00572355575006,
16,0,16,0,,,,,,,,,,,,,,,,,,,,,,,,,,,,,,,,,,,,,,,,,,,,,,,,,,,,,,,,,,,170.0927702676272,170.0927702676272,170.0927702676272,170.0927702676272,170.0927702676272,170.0927702676272,l,1,0.5090266662882641,170.62606377748307,171.64265891700052,,,,,,,,,,,,,546,2023-05-15_11h00.19.011,eb_02psyexp,2022.2.4,60.00572355575006,
17,0,17,0,,,,,,,,,,,,,,,,,,,,,,,,,,,,,,,,,,,,,,,,,,,,,,,,,,,,,,,,,,,171.64265891700052,171.64265891700052,171.64265891700052,171.64265891700052,171.64265891700052,171.64265891700052,s,1,0.5431535704992712,172.20930751319975,173.22588182531763,,,,,,,,,,,,,546,2023-05-15_11h00.19.011,eb_02psyexp,2022.2.4,60.00572355575006,
18,0,18,0,,,,,,,,,,,,,,,,,,,,,,,,,,,,,,,,,,,,,,,,,,,,,,,,,,,,,,,,,,,173.22588182531763,173.22588182531763,173.22588182531763,173.22588182531763,173.22588182531763,173.22588182531763,s,1,0.46292104106396437,173.70916383492295,174.74241538834758,,,,,,,,,,,,,546,2023-05-15_11h00.19.011,eb_02psyexp,2022.2.4,60.00572355575006,
19,0,19,0,,,,,,,,,,,,,,,,,,,,,,,,,,,,,,,,,,,,,,,,,,,,,,,,,,,,,,,,,,,174.74241538834758,174.74241538834758,174.74241538834758,174.74241538834758,174.74241538834758,174.74241538834758,s,1,0.43441358639393,175.20903283415828,176.24231879797298,,,,,,,,,,,,,546,2023-05-15_11h00.19.011,eb_02psyexp,2022.2.4,60.00572355575006,
20,0,20,0,,,,,,,,,,,,,,,,,,,,,,,,,,,,,,,,,,,,,,,,,,,,,,,,,,,,,,,,,,,176.24231879797298,176.24231879797298,176.24231879797298,176.24231879797298,176.24231879797298,176.24231879797298,s,1,0.43849966290872544,176.7089286976261,177.74218689161353,,,,,,,,,,,,,546,2023-05-15_11h00.19.011,eb_02psyexp,2022.2.4,60.00572355575006,
21,0,21,0,,,,,,,,,,,,,,,,,,,,,,,,,,,,,,,,,,,,,,,,,,,,,,,,,,,,,,,,,,,177.74218689161353,177.74218689161353,177.74218689161353,177.74218689161353,177.74218689161353,177.74218689161353,s,1,0.4346336314920336,178.2088152038632,179.24206947395578,,,,,,,,,,,,,546,2023-05-15_11h00.19.011,eb_02psyexp,2022.2.4,60.00572355575006,
22,0,22,0,,,,,,,,,,,,,,,,,,,,,,,,,,,,,,,,,,,,,,,,,,,,,,,,,,,,,,,,,,,179.24206947395578,179.24206947395578,179.24206947395578,179.24206947395578,179.24206947395578,179.24206947395578,l,0,0.3907683001598343,179.65869503933936,180.69194146140944,,,,,,,,,,,,,546,2023-05-15_11h00.19.011,eb_02psyexp,2022.2.4,60.00572355575006,
23,0,23,0,,,,,,,,,,,,,,,,,,,,,,,,,,,,,,,,,,,,,,,,,,,,,,,,,,,,,,,,,,,180.69194146140944,180.69194146140944,180.69194146140944,180.69194146140944,180.69194146140944,180.69194146140944,l,0,0.3649315705988556,181.07524906750768,182.10850877081975,,,,,,,,,,,,,546,2023-05-15_11h00.19.011,eb_02psyexp,2022.2.4,60.00572355575006,
24,0,24,0,,,,,,,,,,,,,,,,,,,,,,,,,,,,,,,,,,,,,,,,,,,,,,,,,,,,,,,,,,,182.10850877081975,182.10850877081975,182.10850877081975,182.10850877081975,182.10850877081975,182.10850877081975,s,1,0.4363459984306246,182.5751404032344,183.59172407258302,,,,,,,,,,,,,546,2023-05-15_11h00.19.011,eb_02psyexp,2022.2.4,60.00572355575006,
25,0,25,0,,,,,,,,,,,,,,,,,,,,,,,,,,,,,,,,,,,,,,,,,,,,,,,,,,,,,,,,,,,183.59172407258302,183.59172407258302,183.59172407258302,183.59172407258302,183.59172407258302,183.59172407258302,l,1,0.44113899604417384,184.05833517969586,185.07494329847395,,,,,,,,,,,,,546,2023-05-15_11h00.19.011,eb_02psyexp,2022.2.4,60.00572355575006,
26,0,26,0,,,,,,,,,,,,,,,,,,,,,,,,,,,,,,,,,,,,,,,,,,,,,,,,,,,,,,,,,,,185.07494329847395,185.07494329847395,185.07494329847395,185.07494329847395,185.07494329847395,185.07494329847395,s,1,0.3419433528324589,185.44159177388065,186.45817182108294,,,,,,,,,,,,,546,2023-05-15_11h00.19.011,eb_02psyexp,2022.2.4,60.00572355575006,
27,0,27,0,,,,,,,,,,,,,,,,,,,,,,,,,,,,,,,,,,,,,,,,,,,,,,,,,,,,,,,,,,,186.45817182108294,186.45817182108294,186.45817182108294,186.45817182108294,186.45817182108294,186.45817182108294,l,1,0.34271909459494054,186.82481486338656,187.84140124928672,,,,,,,,,,,,,546,2023-05-15_11h00.19.011,eb_02psyexp,2022.2.4,60.00572355575006,
28,0,28,0,,,,,,,,,,,,,,,,,,,,,,,,,,,,,,,,,,,,,,,,,,,,,,,,,,,,,,,,,,,187.84140124928672,187.84140124928672,187.84140124928672,187.84140124928672,187.84140124928672,187.84140124928672,s,1,0.35053205222357064,188.22471066645812,189.2579818398226,,,,,,,,,,,,,546,2023-05-15_11h00.19.011,eb_02psyexp,2022.2.4,60.00572355575006,
29,0,29,0,,,,,,,,,,,,,,,,,,,,,,,,,,,,,,,,,,,,,,,,,,,,,,,,,,,,,,,,,,,189.2579818398226,189.2579818398226,189.2579818398226,189.2579818398226,189.2579818398226,189.2579818398226,s,1,0.3419204126112163,189.62459711241536,190.6578655691119,,,,,,,,,,,,,546,2023-05-15_11h00.19.011,eb_02psyexp,2022.2.4,60.00572355575006,
30,0,30,0,,,,,,,,,,,,,,,,,,,,,,,,,,,,,,,,,,,,,,,,,,,,,,,,,,,,,,,,,,,190.6578655691119,190.6578655691119,190.6578655691119,190.6578655691119,190.6578655691119,190.6578655691119,s,1,0.4540474000386894,191.14115150272846,192.17439460451715,,,,,,,,,,,,,546,2023-05-15_11h00.19.011,eb_02psyexp,2022.2.4,60.00572355575006,
31,0,31,0,,,,,,,,,,,,,,,,,,,,,,,,,,,,,,,,,,,,,,,,,,,,,,,,,,,,,,,,,,,192.17439460451715,192.17439460451715,192.17439460451715,192.17439460451715,192.17439460451715,192.17439460451715,l,0,0.32951608998700976,192.5243591980543,193.55763338995166,,,,,,,,,,,,,546,2023-05-15_11h00.19.011,eb_02psyexp,2022.2.4,60.00572355575006,
32,0,32,0,,,,,,,,,,,,,,,,,,,,,,,,,,,,,,,,,,,,,,,,,,,,,,,,,,,,,,,,,,,193.55763338995166,193.55763338995166,193.55763338995166,193.55763338995166,193.55763338995166,193.55763338995166,s,1,0.35429304162971675,193.94093827938195,194.97414878185373,,,,,,,,,,,,,546,2023-05-15_11h00.19.011,eb_02psyexp,2022.2.4,60.00572355575006,
33,0,33,0,,,,,,,,,,,,,,,,,,,,,,,,,,,,,,,,,,,,,,,,,,,,,,,,,,,,,,,,,,,194.97414878185373,194.97414878185373,194.97414878185373,194.97414878185373,194.97414878185373,194.97414878185373,l,0,0.385766425752081,195.39083531999495,196.40741204691585,,,,,,,,,,,,,546,2023-05-15_11h00.19.011,eb_02psyexp,2022.2.4,60.00572355575006,
34,0,34,0,,,,,,,,,,,,,,,,,,,,,,,,,,,,,,,,,,,,,,,,,,,,,,,,,,,,,,,,,,,196.40741204691585,196.40741204691585,196.40741204691585,196.40741204691585,196.40741204691585,196.40741204691585,l,1,0.6885061527136713,197.12402179569472,198.14059852261562,,,,,,,,,,,,,546,2023-05-15_11h00.19.011,eb_02psyexp,2022.2.4,60.00572355575006,
35,0,35,0,,,,,,,,,,,,,,,,,,,,,,,,,,,,,,,,,,,,,,,,,,,,,,,,,,,,,,,,,,,198.14059852261562,198.14059852261562,198.14059852261562,198.14059852261562,198.14059852261562,198.14059852261562,l,1,0.28335794364102185,198.44052988302428,199.4738013582537,,,,,,,,,,,,,546,2023-05-15_11h00.19.011,eb_02psyexp,2022.2.4,60.00572355575006,
36,0,36,0,,,,,,,,,,,,,,,,,,,,,,,,,,,,,,,,,,,,,,,,,,,,,,,,,,,,,,,,,,,199.4738013582537,199.4738013582537,199.4738013582537,199.4738013582537,199.4738013582537,199.4738013582537,s,1,0.4381253750761971,199.94045894942246,200.95707672729623,,,,,,,,,,,,,546,2023-05-15_11h00.19.011,eb_02psyexp,2022.2.4,60.00572355575006,
37,0,37,0,,,,,,,,,,,,,,,,,,,,,,,,,,,,,,,,,,,,,,,,,,,,,,,,,,,,,,,,,,,200.95707672729623,200.95707672729623,200.95707672729623,200.95707672729623,200.95707672729623,200.95707672729623,l,1,0.8348991946550086,201.82366181525867,202.84026751923375,,,,,,,,,,,,,546,2023-05-15_11h00.19.011,eb_02psyexp,2022.2.4,60.00572355575006,
38,0,38,0,,,,,,,,,,,,,,,,,,,,,,,,,,,,,,,,,,,,,,,,,,,,,,,,,,,,,,,,,,,202.84026751923375,202.84026751923375,202.84026751923375,202.84026751923375,202.84026751923375,202.84026751923375,l,1,0.35170924791600555,203.22350962494966,204.2401600020239,,,,,,,,,,,,,546,2023-05-15_11h00.19.011,eb_02psyexp,2022.2.4,60.00572355575006,
39,0,39,0,,,,,,,,,,,,,,,,,,,,,,,,,,,,,,,,,,,,,,,,,,,,,,,,,,,,,,,,,,,204.2401600020239,204.2401600020239,204.2401600020239,204.2401600020239,204.2401600020239,204.2401600020239,l,1,0.8068203601287678,205.07340479420964,206.09000898897648,,,,,,,,,,,,,546,2023-05-15_11h00.19.011,eb_02psyexp,2022.2.4,60.00572355575006,
40,0,40,0,,,,,,,,,,,,,,,,,,,,,,,,,,,,,,,,,,,,,,,,,,,,,,,,,,,,,,,,,,,206.09000898897648,206.09000898897648,206.09000898897648,206.09000898897648,206.09000898897648,206.09000898897648,l,1,0.9329952164553106,207.03992836619727,208.05650690419134,,,,,,,,,,,,,546,2023-05-15_11h00.19.011,eb_02psyexp,2022.2.4,60.00572355575006,
41,0,41,0,,,,,,,,,,,,,,,,,,,,,,,,,,,,,,,,,,,,,,,,,,,,,,,,,,,,,,,,,,,208.05650690419134,208.05650690419134,208.05650690419134,208.05650690419134,208.05650690419134,208.05650690419134,l,1,0.8544919573469087,208.93978311831597,209.95640874409582,,,,,,,,,,,,,546,2023-05-15_11h00.19.011,eb_02psyexp,2022.2.4,60.00572355575006,
42,0,42,0,,,,,,,,,,,,,,,,,,,,,,,,,,,,,,,,,,,,,,,,,,,,,,,,,,,,,,,,,,,209.95640874409582,209.95640874409582,209.95640874409582,209.95640874409582,209.95640874409582,209.95640874409582,l,1,0.4746184425894171,210.45632935885806,211.4729311389383,,,,,,,,,,,,,546,2023-05-15_11h00.19.011,eb_02psyexp,2022.2.4,60.00572355575006,
43,0,43,0,,,,,,,,,,,,,,,,,,,,,,,,,,,,,,,,,,,,,,,,,,,,,,,,,,,,,,,,,,,211.4729311389383,211.4729311389383,211.4729311389383,211.4729311389383,211.4729311389383,211.4729311389383,l,1,0.5821072788676247,212.07286237867083,213.10613355203532,,,,,,,,,,,,,546,2023-05-15_11h00.19.011,eb_02psyexp,2022.2.4,60.00572355575006,
44,0,44,0,,,,,,,,,,,,,,,,,,,,,,,,,,,,,,,,,,,,,,,,,,,,,,,,,,,,,,,,,,,213.10613355203532,213.10613355203532,213.10613355203532,213.10613355203532,213.10613355203532,213.10613355203532,s,1,0.49294949299655855,213.6227528390009,214.6393642781768,,,,,,,,,,,,,546,2023-05-15_11h00.19.011,eb_02psyexp,2022.2.4,60.00572355575006,
45,0,45,0,,,,,,,,,,,,,,,,,,,,,,,,,,,,,,,,,,,,,,,,,,,,,,,,,,,,,,,,,,,214.6393642781768,214.6393642781768,214.6393642781768,214.6393642781768,214.6393642781768,214.6393642781768,l,1,0.46368501090910286,215.1226293843938,216.13923146633897,,,,,,,,,,,,,546,2023-05-15_11h00.19.011,eb_02psyexp,2022.2.4,60.00572355575006,
46,0,46,0,,,,,,,,,,,,,,,,,,,,,,,,,,,,,,,,,,,,,,,,,,,,,,,,,,,,,,,,,,,216.13923146633897,216.13923146633897,216.13923146633897,216.13923146633897,216.13923146633897,216.13923146633897,l,1,0.395830241846852,216.55586065386888,217.57243738078978,,,,,,,,,,,,,546,2023-05-15_11h00.19.011,eb_02psyexp,2022.2.4,60.00572355575006,
47,0,47,0,,,,,,,,,,,,,,,,,,,,,,,,,,,,,,,,,,,,,,,,,,,,,,,,,,,,,,,,,,,217.57243738078978,217.57243738078978,217.57243738078978,217.57243738078978,217.57243738078978,217.57243738078978,s,1,0.47463504411280155,218.07242228847463,219.08899599697907,,,,,,,,,,,,,546,2023-05-15_11h00.19.011,eb_02psyexp,2022.2.4,60.00572355575006,
48,0,48,0,,,,,,,,,,,,,,,,,,,,,,,,,,,,,,,,,,,,,,,,,,,,,,,,,,,,,,,,,,,219.08899599697907,219.08899599697907,219.08899599697907,219.08899599697907,219.08899599697907,219.08899599697907,l,1,0.35711348184850067,219.47230179200415,220.48891564586665,,,,,,,,,,,,,546,2023-05-15_11h00.19.011,eb_02psyexp,2022.2.4,60.00572355575006,
49,0,49,0,,,,,,,,,,,,,,,,,,,,,,,,,,,,,,,,,,,,,,,,,,,,,,,,,,,,,,,,,,,220.48891564586665,220.48891564586665,220.48891564586665,220.48891564586665,220.48891564586665,220.48891564586665,l,1,0.5171855381922796,221.03883568709716,222.05544742802158,,,,,,,,,,,,,546,2023-05-15_11h00.19.011,eb_02psyexp,2022.2.4,60.00572355575006,
50,0,50,0,,,,,,,,,,,,,,,,,,,,,,,,,,,,,,,,,,,,,,,,,,,,,,,,,,,,,,,,,,,222.05544742802158,222.05544742802158,222.05544742802158,222.05544742802158,222.05544742802158,222.05544742802158,l,1,0.47865743131842464,222.55539883091114,223.57197314302903,,,,,,,,,,,,,546,2023-05-15_11h00.19.011,eb_02psyexp,2022.2.4,60.00572355575006,
51,0,51,0,,,,,,,,,,,,,,,,,,,,,,,,,,,,,,,,,,,,,,,,,,,,,,,,,,,,,,,,,,,223.57197314302903,223.57197314302903,223.57197314302903,223.57197314302903,223.57197314302903,223.57197314302903,l,0,0.37817562627606094,223.97195799043402,224.98854407458566,,,,,,,,,,,,,546,2023-05-15_11h00.19.011,eb_02psyexp,2022.2.4,60.00572355575006,
52,0,52,0,,,,,,,,,,,,,,,,,,,,,,,,,,,,,,,,,,,,,,,,,,,,,,,,,,,,,,,,,,,224.98854407458566,224.98854407458566,224.98854407458566,224.98854407458566,224.98854407458566,224.98854407458566,l,1,0.33756086439825594,225.35518560756464,226.3717484496301,,,,,,,,,,,,,546,2023-05-15_11h00.19.011,eb_02psyexp,2022.2.4,60.00572355575006,
53,0,53,0,,,,,,,,,,,,,,,,,,,,,,,,,,,,,,,,,,,,,,,,,,,,,,,,,,,,,,,,,,,226.3717484496301,226.3717484496301,226.3717484496301,226.3717484496301,226.3717484496301,226.3717484496301,s,1,0.418396178400144,226.82173785485793,227.85499635071028,,,,,,,,,,,,,546,2023-05-15_11h00.19.011,eb_02psyexp,2022.2.4,60.00572355575006,
54,0,54,0,,,,,,,,,,,,,,,,,,,,,,,,,,,,,,,,,,,,,,,,,,,,,,,,,,,,,,,,,,,227.85499635071028,227.85499635071028,227.85499635071028,227.85499635071028,227.85499635071028,227.85499635071028,s,1,0.45512559066992253,228.33827141788788,229.35488949762657,,,,,,,,,,,,,546,2023-05-15_11h00.19.011,eb_02psyexp,2022.2.4,60.00572355575006,
55,0,55,0,,,,,,,,,,,,,,,,,,,,,,,,,,,,,,,,,,,,,,,,,,,,,,,,,,,,,,,,,,,229.35488949762657,229.35488949762657,229.35488949762657,229.35488949762657,229.35488949762657,229.35488949762657,l,1,0.4592699232744053,229.83819022157695,230.85475547844544,,,,,,,,,,,,,546,2023-05-15_11h00.19.011,eb_02psyexp,2022.2.4,60.00572355575006,
56,0,56,0,,,,,,,,,,,,,,,,,,,,,,,,,,,,,,,,,,,,,,,,,,,,,,,,,,,,,,,,,,,230.85475547844544,230.85475547844544,230.85475547844544,230.85475547844544,230.85475547844544,230.85475547844544,s,1,0.8873837115243077,231.771359612816,232.78798040910624,,,,,,,,,,,,,546,2023-05-15_11h00.19.011,eb_02psyexp,2022.2.4,60.00572355575006,
57,0,57,0,,,,,,,,,,,,,,,,,,,,,,,,,,,,,,,,,,,,,,,,,,,,,,,,,,,,,,,,,,,232.78798040910624,232.78798040910624,232.78798040910624,232.78798040910624,232.78798040910624,232.78798040910624,l,1,0.402161140111275,233.22125122020952,234.25450850871857,,,,,,,,,,,,,546,2023-05-15_11h00.19.011,eb_02psyexp,2022.2.4,60.00572355575006,
58,0,58,0,,,,,,,,,,,,,,,,,,,,,,,,,,,,,,,,,,,,,,,,,,,,,,,,,,,,,,,,,,,234.25450850871857,234.25450850871857,234.25450850871857,234.25450850871857,234.25450850871857,234.25450850871857,s,1,0.45467312482651323,234.73779323499184,235.75438113010023,,,,,,,,,,,,,546,2023-05-15_11h00.19.011,eb_02psyexp,2022.2.4,60.00572355575006,
59,0,59,0,,,,,,,,,,,,,,,,,,,,,,,,,,,,,,,,,,,,,,,,,,,,,,,,,,,,,,,,,,,235.75438113010023,235.75438113010023,235.75438113010023,235.75438113010023,235.75438113010023,235.75438113010023,l,1,0.4347785171121359,236.22097503207624,237.23762299434748,,,,,,,,,,,,,546,2023-05-15_11h00.19.011,eb_02psyexp,2022.2.4,60.00572355575006,
60,0,60,0,,,,,,,,,,,,,,,,,,,,,,,,,,,,,,,,,,,,,,,,,,,,,,,,,,,,,,,,,,,237.23762299434748,237.23762299434748,237.23762299434748,237.23762299434748,237.23762299434748,237.23762299434748,l,1,0.3515525902621448,237.62091671559028,238.6374937442597,,,,,,,,,,,,,546,2023-05-15_11h00.19.011,eb_02psyexp,2022.2.4,60.00572355575006,
61,0,61,0,,,,,,,,,,,,,,,,,,,,,,,,,,,,,,,,,,,,,,,,,,,,,,,,,,,,,,,,,,,238.6374937442597,238.6374937442597,238.6374937442597,238.6374937442597,238.6374937442597,238.6374937442597,s,1,0.4477436678716913,239.10411481221672,240.1206969723571,,,,,,,,,,,,,546,2023-05-15_11h00.19.011,eb_02psyexp,2022.2.4,60.00572355575006,
62,0,62,0,,,,,,,,,,,,,,,,,,,,,,,,,,,,,,,,,,,,,,,,,,,,,,,,,,,,,,,,,,,240.1206969723571,240.1206969723571,240.1206969723571,240.1206969723571,240.1206969723571,240.1206969723571,l,1,0.388483936781995,240.53734034660738,241.55396084103268,,,,,,,,,,,,,546,2023-05-15_11h00.19.011,eb_02psyexp,2022.2.4,60.00572355575006,
63,0,63,0,,,,,,,,,,,,,,,,,,,,,,,,,,,,,,,,,,,,,,,,,,,,,,,,,,,,,,,,,,,241.55396084103268,241.55396084103268,241.55396084103268,241.55396084103268,241.55396084103268,241.55396084103268,l,1,0.4752411489607766,242.05390349053778,243.070489574573,,,,,,,,,,,,,546,2023-05-15_11h00.19.011,eb_02psyexp,2022.2.4,60.00572355575006,
64,0,64,0,,,,,,,,,,,,,,,,,,,,,,,,,,,,,,,,,,,,,,,,,,,,,,,,,,,,,,,,,,,243.070489574573,243.070489574573,243.070489574573,243.070489574573,243.070489574573,243.070489574573,l,1,0.4067105487920344,243.50379026844166,244.52037242858205,,,,,,,,,,,,,546,2023-05-15_11h00.19.011,eb_02psyexp,2022.2.4,60.00572355575006,
65,0,65,0,,,,,,,,,,,,,,,,,,,,,,,,,,,,,,,,,,,,,,,,,,,,,,,,,,,,,,,,,,,244.52037242858205,244.52037242858205,244.52037242858205,244.52037242858205,244.52037242858205,244.52037242858205,s,1,0.4848383126081899,245.03700861893594,246.07026922772638,,,,,,,,,,,,,546,2023-05-15_11h00.19.011,eb_02psyexp,2022.2.4,60.00572355575006,
66,0,66,0,,,,,,,,,,,,,,,,,,,,,,,,,,,,,,,,,,,,,,,,,,,,,,,,,,,,,,,,,,,246.07026922772638,246.07026922772638,246.07026922772638,246.07026922772638,246.07026922772638,246.07026922772638,s,1,0.40694538422394544,246.5035581495613,247.520090203383,,,,,,,,,,,,,546,2023-05-15_11h00.19.011,eb_02psyexp,2022.2.4,60.00572355575006,
67,0,67,0,,,,,,,,,,,,,,,,,,,,,,,,,,,,,,,,,,,,,,,,,,,,,,,,,,,,,,,,,,,247.520090203383,247.520090203383,247.520090203383,247.520090203383,247.520090203383,247.520090203383,l,1,0.3411383320344612,247.88678727590013,248.92004426266067,,,,,,,,,,,,,546,2023-05-15_11h00.19.011,eb_02psyexp,2022.2.4,60.00572355575006,
68,0,68,0,,,,,,,,,,,,,,,,,,,,,,,,,,,,,,,,,,,,,,,,,,,,,,,,,,,,,,,,,,,248.92004426266067,248.92004426266067,248.92004426266067,248.92004426266067,248.92004426266067,248.92004426266067,s,1,0.28520070773083717,249.23666946578305,250.26994939276483,,,,,,,,,,,,,546,2023-05-15_11h00.19.011,eb_02psyexp,2022.2.4,60.00572355575006,
69,0,69,0,,,,,,,,,,,,,,,,,,,,,,,,,,,,,,,,,,,,,,,,,,,,,,,,,,,,,,,,,,,250.26994939276483,250.26994939276483,250.26994939276483,250.26994939276483,250.26994939276483,250.26994939276483,s,1,0.3903565835207701,250.6865704304073,251.7198213802185,,,,,,,,,,,,,546,2023-05-15_11h00.19.011,eb_02psyexp,2022.2.4,60.00572355575006,
70,0,70,0,,,,,,,,,,,,,,,,,,,,,,,,,,,,,,,,,,,,,,,,,,,,,,,,,,,,,,,,,,,251.7198213802185,251.7198213802185,251.7198213802185,251.7198213802185,251.7198213802185,251.7198213802185,s,1,0.35644761158619076,252.10312626964878,253.13639472646173,,,,,,,,,,,,,546,2023-05-15_11h00.19.011,eb_02psyexp,2022.2.4,60.00572355575006,
71,0,71,0,,,,,,,,,,,,,,,,,,,,,,,,,,,,,,,,,,,,,,,,,,,,,,,,,,,,,,,,,,,253.13639472646173,253.13639472646173,253.13639472646173,253.13639472646173,253.13639472646173,253.13639472646173,s,1,0.4358615371165797,253.6030151906889,254.6362628202187,,,,,,,,,,,,,546,2023-05-15_11h00.19.011,eb_02psyexp,2022.2.4,60.00572355575006,
72,0,72,0,,,,,,,,,,,,,,,,,,,,,,,,,,,,,,,,,,,,,,,,,,,,,,,,,,,,,,,,,,,254.6362628202187,254.6362628202187,254.6362628202187,254.6362628202187,254.6362628202187,254.6362628202187,s,1,0.3280153163941577,254.9862437134143,256.0028385509504,,,,,,,,,,,,,546,2023-05-15_11h00.19.011,eb_02psyexp,2022.2.4,60.00572355575006,
73,0,73,0,,,,,,,,,,,,,,,,,,,,,,,,,,,,,,,,,,,,,,,,,,,,,,,,,,,,,,,,,,,256.0028385509504,256.0028385509504,256.0028385509504,256.0028385509504,256.0028385509504,256.0028385509504,l,1,0.41746106243226677,256.4527434395859,257.4693826484727,,,,,,,,,,,,,546,2023-05-15_11h00.19.011,eb_02psyexp,2022.2.4,60.00572355575006,
74,0,74,0,,,,,,,,,,,,,,,,,,,,,,,,,,,,,,,,,,,,,,,,,,,,,,,,,,,,,,,,,,,257.4693826484727,257.4693826484727,257.4693826484727,257.4693826484727,257.4693826484727,257.4693826484727,s,1,0.43092546495608985,257.9193539429689,258.93593459390104,,,,,,,,,,,,,546,2023-05-15_11h00.19.011,eb_02psyexp,2022.2.4,60.00572355575006,
75,0,75,0,,,,,,,,,,,,,,,,,,,,,,,,,,,,,,,,,,,,,,,,,,,,,,,,,,,,,,,,,,,258.93593459390104,258.93593459390104,258.93593459390104,258.93593459390104,258.93593459390104,258.93593459390104,l,1,0.4123719547642395,259.3691794463666,260.3858123164391,,,,,,,,,,,,,546,2023-05-15_11h00.19.011,eb_02psyexp,2022.2.4,60.00572355575006,
76,0,76,0,,,,,,,,,,,,,,,,,,,,,,,,,,,,,,,,,,,,,,,,,,,,,,,,,,,,,,,,,,,260.3858123164391,260.3858123164391,260.3858123164391,260.3858123164391,260.3858123164391,260.3858123164391,s,1,0.3544708283152431,260.76913199631963,261.80238807736896,,,,,,,,,,,,,546,2023-05-15_11h00.19.011,eb_02psyexp,2022.2.4,60.00572355575006,
77,0,77,0,,,,,,,,,,,,,,,,,,,,,,,,,,,,,,,,,,,,,,,,,,,,,,,,,,,,,,,,,,,261.80238807736896,261.80238807736896,261.80238807736896,261.80238807736896,261.80238807736896,261.80238807736896,s,1,0.6819198933662847,262.5023308475502,263.51893866457976,,,,,,,,,,,,,546,2023-05-15_11h00.19.011,eb_02psyexp,2022.2.4,60.00572355575006,
78,0,78,0,,,,,,,,,,,,,,,,,,,,,,,,,,,,,,,,,,,,,,,,,,,,,,,,,,,,,,,,,,,263.51893866457976,263.51893866457976,263.51893866457976,263.51893866457976,263.51893866457976,263.51893866457976,l,1,0.4453793155262247,263.9855497715762,265.01880494714715,,,,,,,,,,,,,546,2023-05-15_11h00.19.011,eb_02psyexp,2022.2.4,60.00572355575006,
79,0,79,0,,,,,,,,,,,,,,,,,,,,,,,,,,,,,,,,,,,,,,,,,,,,,,,,,,,,,,,,,,,265.01880494714715,265.01880494714715,265.01880494714715,265.01880494714715,265.01880494714715,265.01880494714715,s,1,0.28951769578270614,265.33545248687733,266.3686943813227,,,,,,,,,,,,,546,2023-05-15_11h00.19.011,eb_02psyexp,2022.2.4,60.00572355575006,
80,0,80,0,,,,,,,,,,,,,,,,,,,,,,,,,,,,,,,,,,,,,,,,,,,,,,,,,,,,,,,,,,,266.3686943813227,266.3686943813227,266.3686943813227,266.3686943813227,266.3686943813227,266.3686943813227,s,1,0.49061109928879887,266.8853438529186,267.91858544549905,,,,,,,,,,,,,546,2023-05-15_11h00.19.011,eb_02psyexp,2022.2.4,60.00572355575006,
81,0,81,0,,,,,,,,,,,,,,,,,,,,,,,,,,,,,,,,,,,,,,,,,,,,,,,,,,,,,,,,,,,267.91858544549905,267.91858544549905,267.91858544549905,267.91858544549905,267.91858544549905,267.91858544549905,s,1,0.3487786342157051,268.28522607299965,269.3018133643782,,,,,,,,,,,,,546,2023-05-15_11h00.19.011,eb_02psyexp,2022.2.4,60.00572355575006,
82,0,82,0,,,,,,,,,,,,,,,,,,,,,,,,,,,,,,,,,,,,,,,,,,,,,,,,,,,,,,,,,,,269.3018133643782,269.3018133643782,269.3018133643782,269.3018133643782,269.3018133643782,269.3018133643782,l,1,0.3655639359494671,269.68511795205995,270.7183764479123,,,,,,,,,,,,,546,2023-05-15_11h00.19.011,eb_02psyexp,2022.2.4,60.00572355575006,
83,0,83,0,,,,,,,,,,,,,,,,,,,,,,,,,,,,,,,,,,,,,,,,,,,,,,,,,,,,,,,,,,,270.7183764479123,270.7183764479123,270.7183764479123,270.7183764479123,270.7183764479123,270.7183764479123,s,1,0.2849800590192899,271.0350082917139,272.06822754780296,,,,,,,,,,,,,546,2023-05-15_11h00.19.011,eb_02psyexp,2022.2.4,60.00572355575006,
84,0,84,0,,,,,,,,,,,,,,,,,,,,,,,,,,,,,,,,,,,,,,,,,,,,,,,,,,,,,,,,,,,272.06822754780296,272.06822754780296,272.06822754780296,272.06822754780296,272.06822754780296,272.06822754780296,s,1,0.30315867764875293,272.4015849280404,273.41816557897255,,,,,,,,,,,,,546,2023-05-15_11h00.19.011,eb_02psyexp,2022.2.4,60.00572355575006,
85,0,85,0,,,,,,,,,,,,,,,,,,,,,,,,,,,,,,,,,,,,,,,,,,,,,,,,,,,,,,,,,,,273.41816557897255,273.41816557897255,273.41816557897255,273.41816557897255,273.41816557897255,273.41816557897255,l,1,0.39326335152145475,273.8347896351479,274.8680541679496,,,,,,,,,,,,,546,2023-05-15_11h00.19.011,eb_02psyexp,2022.2.4,60.00572355575006,
86,0,86,0,,,,,,,,,,,,,,,,,,,,,,,,,,,,,,,,,,,,,,,,,,,,,,,,,,,,,,,,,,,274.8680541679496,274.8680541679496,274.8680541679496,274.8680541679496,274.8680541679496,274.8680541679496,l,0,0.415341506479308,275.30137387802824,276.31796207500156,,,,,,,,,,,,,546,2023-05-15_11h00.19.011,eb_02psyexp,2022.2.4,60.00572355575006,
87,0,87,0,,,,,,,,,,,,,,,,,,,,,,,,,,,,,,,,,,,,,,,,,,,,,,,,,,,,,,,,,,,276.31796207500156,276.31796207500156,276.31796207500156,276.31796207500156,276.31796207500156,276.31796207500156,s,0,0.3814403823344037,276.71789741981775,277.7345085570123,,,,,,,,,,,,,546,2023-05-15_11h00.19.011,eb_02psyexp,2022.2.4,60.00572355575006,
88,0,88,0,,,,,,,,,,,,,,,,,,,,,,,,,,,,,,,,,,,,,,,,,,,,,,,,,,,,,,,,,,,277.7345085570123,277.7345085570123,277.7345085570123,277.7345085570123,277.7345085570123,277.7345085570123,s,1,0.9489163358230144,278.70109853497706,279.73434978653677,,,,,,,,,,,,,546,2023-05-15_11h00.19.011,eb_02psyexp,2022.2.4,60.00572355575006,
89,0,89,0,,,,,,,,,,,,,,,,,,,,,,,,,,,,,,,,,,,,,,,,,,,,,,,,,,,,,,,,,,,279.73434978653677,279.73434978653677,279.73434978653677,279.73434978653677,279.73434978653677,279.73434978653677,l,1,0.4930780789582059,280.2509714884218,281.2675587798003,,,,,,,,,,,,,546,2023-05-15_11h00.19.011,eb_02psyexp,2022.2.4,60.00572355575006,
90,0,90,0,,,,,,,,,,,,,,,,,,,,,,,,,,,,,,,,,,,,,,,,,,,,,,,,,,,,,,,,,,,281.2675587798003,281.2675587798003,281.2675587798003,281.2675587798003,281.2675587798003,281.2675587798003,l,1,0.4868667112896219,281.7841889333213,282.8174356572563,,,,,,,,,,,,,546,2023-05-15_11h00.19.011,eb_02psyexp,2022.2.4,60.00572355575006,
91,0,91,0,,,,,,,,,,,,,,,,,,,,,,,,,,,,,,,,,,,,,,,,,,,,,,,,,,,,,,,,,,,282.8174356572563,282.8174356572563,282.8174356572563,282.8174356572563,282.8174356572563,282.8174356572563,l,1,0.4730068917851895,283.31743414804805,284.33399276423734,,,,,,,,,,,,,546,2023-05-15_11h00.19.011,eb_02psyexp,2022.2.4,60.00572355575006,
92,0,92,0,,,,,,,,,,,,,,,,,,,,,,,,,,,,,,,,,,,,,,,,,,,,,,,,,,,,,,,,,,,284.33399276423734,284.33399276423734,284.33399276423734,284.33399276423734,284.33399276423734,284.33399276423734,l,1,0.468439674237743,284.83394567633513,285.86721171834506,,,,,,,,,,,,,546,2023-05-15_11h00.19.011,eb_02psyexp,2022.2.4,60.00572355575006,
93,0,93,0,,,,,,,,,,,,,,,,,,,,,,,,,,,,,,,,,,,,,,,,,,,,,,,,,,,,,,,,,,,285.86721171834506,285.86721171834506,285.86721171834506,285.86721171834506,285.86721171834506,285.86721171834506,l,1,0.3832559804432094,286.2671630609548,287.2837545783259,,,,,,,,,,,,,546,2023-05-15_11h00.19.011,eb_02psyexp,2022.2.4,60.00572355575006,
94,0,94,0,,,,,,,,,,,,,,,,,,,,,,,,,,,,,,,,,,,,,,,,,,,,,,,,,,,,,,,,,,,287.2837545783259,287.2837545783259,287.2837545783259,287.2837545783259,287.2837545783259,287.2837545783259,l,1,0.3747140670893714,287.68373248318676,288.70033667807,,,,,,,,,,,,,546,2023-05-15_11h00.19.011,eb_02psyexp,2022.2.4,60.00572355575006,
95,0,95,0,,,,,,,,,,,,,,,,,,,,,,,,,,,,,,,,,,,,,,,,,,,,,,,,,,,,,,,,,,,288.70033667807,288.70033667807,288.70033667807,288.70033667807,288.70033667807,288.70033667807,l,0,0.34213442087639123,289.0669670427451,290.0835721431067,,,,,,,,,,,,,546,2023-05-15_11h00.19.011,eb_02psyexp,2022.2.4,60.00572355575006,
96,0,96,0,,,,,,,,,,,,,,,,,,,,,,,,,,,,,,,,,,,,,,,,,,,,,,,,,,,,,,,,,,,290.0835721431067,290.0835721431067,290.0835721431067,290.0835721431067,290.0835721431067,290.0835721431067,l,0,0.31089013698510826,290.4168534585042,291.43345886073075,,,,,,,,,,,,,546,2023-05-15_11h00.19.011,eb_02psyexp,2022.2.4,60.00572355575006,
97,0,97,0,,,,,,,,,,,,,,,,,,,,,,,,,,,,,,,,,,,,,,,,,,,,,,,,,,,,,,,,,,,291.43345886073075,291.43345886073075,291.43345886073075,291.43345886073075,291.43345886073075,291.43345886073075,l,1,0.30500174360349774,291.7667471184395,292.7833664055215,,,,,,,,,,,,,546,2023-05-15_11h00.19.011,eb_02psyexp,2022.2.4,60.00572355575006,
98,0,98,0,,,,,,,,,,,,,,,,,,,,,,,,,,,,,,,,,,,,,,,,,,,,,,,,,,,,,,,,,,,292.7833664055215,292.7833664055215,292.7833664055215,292.7833664055215,292.7833664055215,292.7833664055215,s,1,0.38710058096330613,293.19995182554703,294.23323658201844,,,,,,,,,,,,,546,2023-05-15_11h00.19.011,eb_02psyexp,2022.2.4,60.00572355575006,
99,0,99,0,,,,,,,,,,,,,,,,,,,,,,,,,,,,,,,,,,,,,,,,,,,,,,,,,,,,,,,,,,,294.23323658201844,294.23323658201844,294.23323658201844,294.23323658201844,294.23323658201844,294.23323658201844,s,1,0.32926465303171426,294.58320992905647,295.5997881651856,,,,,,,,,,,,,546,2023-05-15_11h00.19.011,eb_02psyexp,2022.2.4,60.00572355575006,
100,0,100,0,,,,,,,,,,,,,,,,,,,,,,,,,,,,,,,,,,,,,,,,,,,,,,,,,,,,,,,,,,,295.5997881651856,295.5997881651856,295.5997881651856,295.5997881651856,295.5997881651856,295.5997881651856,l,0,0.2987230645958334,295.91643510130234,296.94969661557116,,,,,,,,,,,,,546,2023-05-15_11h00.19.011,eb_02psyexp,2022.2.4,60.00572355575006,
101,0,101,0,,,,,,,,,,,,,,,,,,,,,,,,,,,,,,,,,,,,,,,,,,,,,,,,,,,,,,,,,,,296.94969661557116,296.94969661557116,296.94969661557116,296.94969661557116,296.94969661557116,296.94969661557116,s,1,0.33983707800507545,297.3163266784977,298.33292725111824,,,,,,,,,,,,,546,2023-05-15_11h00.19.011,eb_02psyexp,2022.2.4,60.00572355575006,
102,0,102,0,,,,,,,,,,,,,,,,,,,,,,,,,,,,,,,,,,,,,,,,,,,,,,,,,,,,,,,,,,,298.33292725111824,298.33292725111824,298.33292725111824,298.33292725111824,298.33292725111824,298.33292725111824,s,1,0.3725821354892105,298.73291330598295,299.7495075397892,,,,,,,,,,,,,546,2023-05-15_11h00.19.011,eb_02psyexp,2022.2.4,60.00572355575006,
103,0,103,0,,,,,,,,,,,,,,,,,,,,,,,,,,,,,,,,,,,,,,,,,,,,,,,,,,,,,,,,,,,299.7495075397892,299.7495075397892,299.7495075397892,299.7495075397892,299.7495075397892,299.7495075397892,s,1,0.40398488799110055,300.1827659753617,301.19937167933676,,,,,,,,,,,,,546,2023-05-15_11h00.19.011,eb_02psyexp,2022.2.4,60.00572355575006,
104,0,104,0,,,,,,,,,,,,,,,,,,,,,,,,,,,,,,,,,,,,,,,,,,,,,,,,,,,,,,,,,,,301.19937167933676,301.19937167933676,301.19937167933676,301.19937167933676,301.19937167933676,301.19937167933676,s,0,0.33815278264228255,301.5660261918092,302.58259114669636,,,,,,,,,,,,,546,2023-05-15_11h00.19.011,eb_02psyexp,2022.2.4,60.00572355575006,
105,0,105,0,,,,,,,,,,,,,,,,,,,,,,,,,,,,,,,,,,,,,,,,,,,,,,,,,,,,,,,,,,,302.58259114669636,302.58259114669636,302.58259114669636,302.58259114669636,302.58259114669636,302.58259114669636,s,1,0.41097350663039833,303.01590572542045,304.0491011356935,,,,,,,,,,,,,546,2023-05-15_11h00.19.011,eb_02psyexp,2022.2.4,60.00572355575006,
106,0,106,0,,,,,,,,,,,,,,,,,,,,,,,,,,,,,,,,,,,,,,,,,,,,,,,,,,,,,,,,,,,304.0491011356935,304.0491011356935,304.0491011356935,304.0491011356935,304.0491011356935,304.0491011356935,l,1,0.40844404499512166,304.4824498228263,305.49905613053124,,,,,,,,,,,,,546,2023-05-15_11h00.19.011,eb_02psyexp,2022.2.4,60.00572355575006,
107,0,107,0,,,,,,,,,,,,,,,,,,,,,,,,,,,,,,,,,,,,,,,,,,,,,,,,,,,,,,,,,,,305.49905613053124,305.49905613053124,305.49905613053124,305.49905613053124,305.49905613053124,305.49905613053124,l,1,0.4625416218768805,305.9823269719491,306.99891245225444,,,,,,,,,,,,,546,2023-05-15_11h00.19.011,eb_02psyexp,2022.2.4,60.00572355575006,
108,0,108,0,,,,,,,,,,,,,,,,,,,,,,,,,,,,,,,,,,,,,,,,,,,,,,,,,,,,,,,,,,,306.99891245225444,306.99891245225444,306.99891245225444,306.99891245225444,306.99891245225444,306.99891245225444,s,1,0.498663721838966,307.5155682626646,308.53216672234703,,,,,,,,,,,,,546,2023-05-15_11h00.19.011,eb_02psyexp,2022.2.4,60.00572355575006,
109,0,109,0,,,,,,,,,,,,,,,,,,,,,,,,,,,,,,,,,,,,,,,,,,,,,,,,,,,,,,,,,,,308.53216672234703,308.53216672234703,308.53216672234703,308.53216672234703,308.53216672234703,308.53216672234703,l,1,0.44541885727085173,308.99875820952,310.0153503305046,,,,,,,,,,,,,546,2023-05-15_11h00.19.011,eb_02psyexp,2022.2.4,60.00572355575006,
110,0,110,0,,,,,,,,,,,,,,,,,,,,,,,,,,,,,,,,,,,,,,,,,,,,,,,,,,,,,,,,,,,310.0153503305046,310.0153503305046,310.0153503305046,310.0153503305046,310.0153503305046,310.0153503305046,s,1,0.4902334911748767,310.53197957843076,311.56524622417055,,,,,,,,,,,,,546,2023-05-15_11h00.19.011,eb_02psyexp,2022.2.4,60.00572355575006,
111,0,111,0,,,,,,,,,,,,,,,,,,,,,,,,,,,,,,,,,,,,,,,,,,,,,,,,,,,,,,,,,,,311.56524622417055,311.56524622417055,311.56524622417055,311.56524622417055,311.56524622417055,311.56524622417055,l,1,0.4923566692741588,312.0818718499504,313.0983948484063,,,,,,,,,,,,,546,2023-05-15_11h00.19.011,eb_02psyexp,2022.2.4,60.00572355575006,
112,0,112,0,,,,,,,,,,,,,,,,,,,,,,,,,,,,,,,,,,,,,,,,,,,,,,,,,,,,,,,,,,,313.0983948484063,313.0983948484063,313.0983948484063,313.0983948484063,313.0983948484063,313.0983948484063,l,1,0.5581993391970173,313.68173457076773,314.6980124710826,,,,,,,,,,,,,546,2023-05-15_11h00.19.011,eb_02psyexp,2022.2.4,60.00572355575006,
113,0,113,0,,,,,,,,,,,,,,,,,,,,,,,,,,,,,,,,,,,,,,,,,,,,,,,,,,,,,,,,,,,314.6980124710826,314.6980124710826,314.6980124710826,314.6980124710826,314.6980124710826,314.6980124710826,s,1,0.5745928460964933,315.29829173814505,316.31487420003396,,,,,,,,,,,,,546,2023-05-15_11h00.19.011,eb_02psyexp,2022.2.4,60.00572355575006,
114,0,114,0,,,,,,,,,,,,,,,,,,,,,,,,,,,,,,,,,,,,,,,,,,,,,,,,,,,,,,,,,,,316.31487420003396,316.31487420003396,316.31487420003396,316.31487420003396,316.31487420003396,316.31487420003396,l,1,0.5177644770592451,316.86482895351946,317.88141352834646,,,,,,,,,,,,,546,2023-05-15_11h00.19.011,eb_02psyexp,2022.2.4,60.00572355575006,
115,0,115,0,,,,,,,,,,,,,,,,,,,,,,,,,,,,,,,,,,,,,,,,,,,,,,,,,,,,,,,,,,,317.88141352834646,317.88141352834646,317.88141352834646,317.88141352834646,317.88141352834646,317.88141352834646,s,1,0.40720044332556427,318.3147244849242,319.3313096634811,,,,,,,,,,,,,546,2023-05-15_11h00.19.011,eb_02psyexp,2022.2.4,60.00572355575006,
116,0,116,0,,,,,,,,,,,,,,,,,,,,,,,,,,,,,,,,,,,,,,,,,,,,,,,,,,,,,,,,,,,319.3313096634811,319.3313096634811,319.3313096634811,319.3313096634811,319.3313096634811,319.3313096634811,l,1,0.38933332881424576,319.7479310031049,320.78120398754254,,,,,,,,,,,,,546,2023-05-15_11h00.19.011,eb_02psyexp,2022.2.4,60.00572355575006,
117,0,117,0,,,,,,,,,,,,,,,,,,,,,,,,,,,,,,,,,,,,,,,,,,,,,,,,,,,,,,,,,,,320.78120398754254,320.78120398754254,320.78120398754254,320.78120398754254,320.78120398754254,320.78120398754254,s,1,0.403443377930671,321.2145034739515,322.2477514053462,,,,,,,,,,,,,546,2023-05-15_11h00.19.011,eb_02psyexp,2022.2.4,60.00572355575006,
118,0,118,0,,,,,,,,,,,,,,,,,,,,,,,,,,,,,,,,,,,,,,,,,,,,,,,,,,,,,,,,,,,322.2477514053462,322.2477514053462,322.2477514053462,322.2477514053462,322.2477514053462,322.2477514053462,s,1,0.44088363519404083,322.71438967844006,323.73098994919565,,,,,,,,,,,,,546,2023-05-15_11h00.19.011,eb_02psyexp,2022.2.4,60.00572355575006,
119,0,119,0,,,,,,,,,,,,,,,,,,,,,,,,,,,,,,,,,,,,,,,,,,,,,,,,,,,,,,,,,,,323.73098994919565,323.73098994919565,323.73098994919565,323.73098994919565,323.73098994919565,323.73098994919565,l,1,0.49368991889059544,324.2476028975798,325.2808466029819,,,,,,,,,,,,,546,2023-05-15_11h00.19.011,eb_02psyexp,2022.2.4,60.00572355575006,
120,0,120,0,,,,,,,,,,,,,,,,,,,,,,,,,,,,,,,,,,,,,,,,,,,,,,,,,,,,,,,,,,,325.2808466029819,325.2808466029819,325.2808466029819,325.2808466029819,325.2808466029819,325.2808466029819,s,1,0.8558101148810238,326.16409353818744,327.18073093600105,,,,,,,,,,,,,546,2023-05-15_11h00.19.011,eb_02psyexp,2022.2.4,60.00572355575006,
121,0,121,0,,,,,,,,,,,,,,,,,,,,,,,,,,,,,,,,,,,,,,,,,,,,,,,,,,,,,,,,,,,327.18073093600105,327.18073093600105,327.18073093600105,327.18073093600105,327.18073093600105,327.18073093600105,s,1,1.1469755929429084,328.34728390770033,329.38054994971026,,,,,,,,,,,,,546,2023-05-15_11h00.19.011,eb_02psyexp,2022.2.4,60.00572355575006,
122,0,122,0,,,,,,,,,,,,,,,,,,,,,,,,,,,,,,,,,,,,,,,,,,,,,,,,,,,,,,,,,,,329.38054994971026,329.38054994971026,329.38054994971026,329.38054994971026,329.38054994971026,329.38054994971026,s,1,0.931144000729546,330.33047294896096,331.36367922567297,,,,,,,,,,,,,546,2023-05-15_11h00.19.011,eb_02psyexp,2022.2.4,60.00572355575006,
123,0,123,0,,,,,,,,,,,,,,,,,,,,,,,,,,,,,,,,,,,,,,,,,,,,,,,,,,,,,,,,,,,331.36367922567297,331.36367922567297,331.36367922567297,331.36367922567297,331.36367922567297,331.36367922567297,s,1,0.9560395773733035,332.3469558020588,333.38019739463925,,,,,,,,,,,,,546,2023-05-15_11h00.19.011,eb_02psyexp,2022.2.4,60.00572355575006,
124,0,124,0,,,,,,,,,,,,,,,,,,,,,,,,,,,,,,,,,,,,,,,,,,,,,,,,,,,,,,,,,,,333.38019739463925,333.38019739463925,333.38019739463925,333.38019739463925,333.38019739463925,333.38019739463925,s,1,0.7395282301586121,334.14682860462926,335.1634509101277,,,,,,,,,,,,,546,2023-05-15_11h00.19.011,eb_02psyexp,2022.2.4,60.00572355575006,
125,0,125,0,,,,,,,,,,,,,,,,,,,,,,,,,,,,,,,,,,,,,,,,,,,,,,,,,,,,,,,,,,,335.1634509101277,335.1634509101277,335.1634509101277,335.1634509101277,335.1634509101277,335.1634509101277,l,1,0.4603040444198996,335.64673895656597,336.67999322665855,,,,,,,,,,,,,546,2023-05-15_11h00.19.011,eb_02psyexp,2022.2.4,60.00572355575006,
126,0,126,0,,,,,,,,,,,,,,,,,,,,,,,,,,,,,,,,,,,,,,,,,,,,,,,,,,,,,,,,,,,336.67999322665855,336.67999322665855,336.67999322665855,336.67999322665855,336.67999322665855,336.67999322665855,s,1,0.41574899724218994,337.1132939205272,338.1465334001696,,,,,,,,,,,,,546,2023-05-15_11h00.19.011,eb_02psyexp,2022.2.4,60.00572355575006,
127,0,127,0,,,,,,,,,,,,,,,,,,,,,,,,,,,,,,,,,,,,,,,,,,,,,,,,,,,,,,,,,,,338.1465334001696,338.1465334001696,338.1465334001696,338.1465334001696,338.1465334001696,338.1465334001696,s,1,0.42923664185218513,338.59649322449695,339.6297468908597,,,,,,,,,,,,,546,2023-05-15_11h00.19.011,eb_02psyexp,2022.2.4,60.00572355575006,
128,0,128,0,,,,,,,,,,,,,,,,,,,,,,,,,,,,,,,,,,,,,,,,,,,,,,,,,,,,,,,,,,,339.6297468908597,339.6297468908597,339.6297468908597,339.6297468908597,339.6297468908597,339.6297468908597,s,1,0.43403477093670517,340.0963758068392,341.11299569753464,,,,,,,,,,,,,546,2023-05-15_11h00.19.011,eb_02psyexp,2022.2.4,60.00572355575006,
129,0,129,0,,,,,,,,,,,,,,,,,,,,,,,,,,,,,,,,,,,,,,,,,,,,,,,,,,,,,,,,,,,341.11299569753464,341.11299569753464,341.11299569753464,341.11299569753464,341.11299569753464,341.11299569753464,l,1,0.4467880263691768,341.57961193600204,342.59619892563205,,,,,,,,,,,,,546,2023-05-15_11h00.19.011,eb_02psyexp,2022.2.4,60.00572355575006,
130,0,130,0,,,,,,,,,,,,,,,,,,,,,,,,,,,,,,,,,,,,,,,,,,,,,,,,,,,,,,,,,,,342.59619892563205,342.59619892563205,342.59619892563205,342.59619892563205,342.59619892563205,342.59619892563205,l,1,0.4906461132923141,343.11284537869506,344.1294281425653,,,,,,,,,,,,,546,2023-05-15_11h00.19.011,eb_02psyexp,2022.2.4,60.00572355575006,
131,0,131,0,,,,,,,,,,,,,,,,,,,,,,,,,,,,,,,,,,,,,,,,,,,,,,,,,,,,,,,,,,,344.1294281425653,344.1294281425653,344.1294281425653,344.1294281425653,344.1294281425653,344.1294281425653,s,1,0.4773510459344834,344.62936354766134,345.64598615502473,,,,,,,,,,,,,546,2023-05-15_11h00.19.011,eb_02psyexp,2022.2.4,60.00572355575006,
132,0,132,0,,,,,,,,,,,,,,,,,,,,,,,,,,,,,,,,,,,,,,,,,,,,,,,,,,,,,,,,,,,345.64598615502473,345.64598615502473,345.64598615502473,345.64598615502473,345.64598615502473,345.64598615502473,l,1,0.37684841349255294,346.0459248201223,347.0625202613883,,,,,,,,,,,,,546,2023-05-15_11h00.19.011,eb_02psyexp,2022.2.4,60.00572355575006,
133,0,133,0,,,,,,,,,,,,,,,,,,,,,,,,,,,,,,,,,,,,,,,,,,,,,,,,,,,,,,,,,,,347.0625202613883,347.0625202613883,347.0625202613883,347.0625202613883,347.0625202613883,347.0625202613883,s,1,0.4882739130407572,347.5791836178396,348.6123977424577,,,,,,,,,,,,,546,2023-05-15_11h00.19.011,eb_02psyexp,2022.2.4,60.00572355575006,
134,0,134,0,,,,,,,,,,,,,,,,,,,,,,,,,,,,,,,,,,,,,,,,,,,,,,,,,,,,,,,,,,,348.6123977424577,348.6123977424577,348.6123977424577,348.6123977424577,348.6123977424577,348.6123977424577,s,1,0.5064676239853725,349.1456840081373,350.178943711333,,,,,,,,,,,,,546,2023-05-15_11h00.19.011,eb_02psyexp,2022.2.4,60.00572355575006,
135,0,135,0,,,,,,,,,,,,,,,,,,,,,,,,,,,,,,,,,,,,,,,,,,,,,,,,,,,,,,,,,,,350.178943711333,350.178943711333,350.178943711333,350.178943711333,350.178943711333,350.178943711333,s,1,0.44387733459006995,350.64557413652074,351.6788576855324,,,,,,,,,,,,,546,2023-05-15_11h00.19.011,eb_02psyexp,2022.2.4,60.00572355575006,
136,0,136,0,,,,,,,,,,,,,,,,,,,,,,,,,,,,,,,,,,,,,,,,,,,,,,,,,,,,,,,,,,,351.6788576855324,351.6788576855324,351.6788576855324,351.6788576855324,351.6788576855324,351.6788576855324,s,1,0.46396904706489295,352.16212882869877,353.1787505305838,,,,,,,,,,,,,546,2023-05-15_11h00.19.011,eb_02psyexp,2022.2.4,60.00572355575006,
137,0,137,0,,,,,,,,,,,,,,,,,,,,,,,,,,,,,,,,,,,,,,,,,,,,,,,,,,,,,,,,,,,353.1787505305838,353.1787505305838,353.1787505305838,353.1787505305838,353.1787505305838,353.1787505305838,s,1,0.5240983938565478,353.728685664013,354.76193721743766,,,,,,,,,,,,,546,2023-05-15_11h00.19.011,eb_02psyexp,2022.2.4,60.00572355575006,
138,0,138,0,,,,,,,,,,,,,,,,,,,,,,,,,,,,,,,,,,,,,,,,,,,,,,,,,,,,,,,,,,,354.76193721743766,354.76193721743766,354.76193721743766,354.76193721743766,354.76193721743766,354.76193721743766,l,1,0.4449226240394637,355.2285558707081,356.2451733466005,,,,,,,,,,,,,546,2023-05-15_11h00.19.011,eb_02psyexp,2022.2.4,60.00572355575006,
139,0,139,0,,,,,,,,,,,,,,,,,,,,,,,,,,,,,,,,,,,,,,,,,,,,,,,,,,,,,,,,,,,356.2451733466005,356.2451733466005,356.2451733466005,356.2451733466005,356.2451733466005,356.2451733466005,l,0,0.38565957255195826,356.66179046046454,357.67839888110757,,,,,,,,,,,,,546,2023-05-15_11h00.19.011,eb_02psyexp,2022.2.4,60.00572355575006,
140,0,140,0,,,,,,,,,,,,,,,,,,,,,,,,,,,,,,,,,,,,,,,,,,,,,,,,,,,,,,,,,,,357.67839888110757,357.67839888110757,357.67839888110757,357.67839888110757,357.67839888110757,357.67839888110757,l,1,0.6404542303644121,358.34501041064505,359.37821427267045,,,,,,,,,,,,,546,2023-05-15_11h00.19.011,eb_02psyexp,2022.2.4,60.00572355575006,
141,0,141,0,,,,,,,,,,,,,,,,,,,,,,,,,,,,,,,,,,,,,,,,,,,,,,,,,,,,,,,,,,,359.37821427267045,359.37821427267045,359.37821427267045,359.37821427267045,359.37821427267045,359.37821427267045,l,1,0.47567278740461916,359.8782215168467,360.89478888665326,,,,,,,,,,,,,546,2023-05-15_11h00.19.011,eb_02psyexp,2022.2.4,60.00572355575006,
142,0,142,0,,,,,,,,,,,,,,,,,,,,,,,,,,,,,,,,,,,,,,,,,,,,,,,,,,,,,,,,,,,360.89478888665326,360.89478888665326,360.89478888665326,360.89478888665326,360.89478888665326,360.89478888665326,l,1,0.5351000423543155,361.46140578913037,362.47768459492363,,,,,,,,,,,,,546,2023-05-15_11h00.19.011,eb_02psyexp,2022.2.4,60.00572355575006,
143,0,143,0,,,,,,,,,,,,,,,,,,,,,,,,,,,,,,,,,,,,,,,,,,,,,,,,,,,,,,,,,,,362.47768459492363,362.47768459492363,362.47768459492363,362.47768459492363,362.47768459492363,362.47768459492363,s,1,0.4642177674686536,362.96129772858694,363.97791278979275,,,,,,,,,,,,,546,2023-05-15_11h00.19.011,eb_02psyexp,2022.2.4,60.00572355575006,
144,0,144,0,,,,,,,,,,,,,,,,,,,,,,,,,,,,,,,,,,,,,,,,,,,,,,,,,,,,,,,,,,,363.97791278979275,363.97791278979275,363.97791278979275,363.97791278979275,363.97791278979275,363.97791278979275,s,1,0.5160448658280075,364.5111812464893,365.5444324981654,,,,,,,,,,,,,546,2023-05-15_11h00.19.011,eb_02psyexp,2022.2.4,60.00572355575006,
145,0,145,0,,,,,,,,,,,,,,,,,,,,,,,,,,,,,,,,,,,,,,,,,,,,,,,,,,,,,,,,,,,365.5444324981654,365.5444324981654,365.5444324981654,365.5444324981654,365.5444324981654,365.5444324981654,l,1,0.42948204185813665,365.9944104332244,367.0109895749483,,,,,,,,,,,,,546,2023-05-15_11h00.19.011,eb_02psyexp,2022.2.4,60.00572355575006,
146,0,146,0,,,,,,,,,,,,,,,,,,,,,,,,,,,,,,,,,,,,,,,,,,,,,,,,,,,,,,,,,,,367.0109895749483,367.0109895749483,367.0109895749483,367.0109895749483,367.0109895749483,367.0109895749483,l,1,0.40291786566376686,367.44429872045293,368.46089687827043,,,,,,,,,,,,,546,2023-05-15_11h00.19.011,eb_02psyexp,2022.2.4,60.00572355575006,
147,0,147,0,,,,,,,,,,,,,,,,,,,,,,,,,,,,,,,,,,,,,,,,,,,,,,,,,,,,,,,,,,,368.46089687827043,368.46089687827043,368.46089687827043,368.46089687827043,368.46089687827043,368.46089687827043,s,1,0.4970397953875363,368.9775049970485,369.9941061733989,,,,,,,,,,,,,546,2023-05-15_11h00.19.011,eb_02psyexp,2022.2.4,60.00572355575006,
148,0,148,0,,,,,,,,,,,,,,,,,,,,,,,,,,,,,,,,,,,,,,,,,,,,,,,,,,,,,,,,,,,369.9941061733989,369.9941061733989,369.9941061733989,369.9941061733989,369.9941061733989,369.9941061733989,l,1,0.41984533658251166,370.44406297942623,371.46064785611816,,,,,,,,,,,,,546,2023-05-15_11h00.19.011,eb_02psyexp,2022.2.4,60.00572355575006,
149,0,149,0,,,,,,,,,,,,,,,,,,,,,,,,,,,,,,,,,,,,,,,,,,,,,,,,,,,,,,,,,,,371.46064785611816,371.46064785611816,371.46064785611816,371.46064785611816,371.46064785611816,371.46064785611816,s,1,0.5532846980495378,372.04393686854746,373.07718570542056,,,,,,,,,,,,,546,2023-05-15_11h00.19.011,eb_02psyexp,2022.2.4,60.00572355575006,
150,0,150,0,,,,,,,,,,,,,,,,,,,,,,,,,,,,,,,,,,,,,,,,,,,,,,,,,,,,,,,,,,,373.07718570542056,373.07718570542056,373.07718570542056,373.07718570542056,373.07718570542056,373.07718570542056,l,1,0.4567652129335329,373.56050001247786,374.5771020943066,,,,,,,,,,,,,546,2023-05-15_11h00.19.011,eb_02psyexp,2022.2.4,60.00572355575006,
151,0,151,0,,,,,,,,,,,,,,,,,,,,,,,,,,,,,,,,,,,,,,,,,,,,,,,,,,,,,,,,,,,374.5771020943066,374.5771020943066,374.5771020943066,374.5771020943066,374.5771020943066,374.5771020943066,l,1,1.7718265568837523,376.3769896872109,377.41019686940126,,,,,,,,,,,,,546,2023-05-15_11h00.19.011,eb_02psyexp,2022.2.4,60.00572355575006,
152,0,152,0,,,,,,,,,,,,,,,,,,,,,,,,,,,,,,,,,,,,,,,,,,,,,,,,,,,,,,,,,,,377.41019686940126,377.41019686940126,377.41019686940126,377.41019686940126,377.41019686940126,377.41019686940126,l,1,0.40276060439646244,377.84347673598677,378.8600908915978,,,,,,,,,,,,,546,2023-05-15_11h00.19.011,eb_02psyexp,2022.2.4,60.00572355575006,
153,0,153,0,,,,,,,,,,,,,,,,,,,,,,,,,,,,,,,,,,,,,,,,,,,,,,,,,,,,,,,,,,,378.8600908915978,378.8600908915978,378.8600908915978,378.8600908915978,378.8600908915978,378.8600908915978,l,1,0.38489258440677077,379.2767101182835,380.29329710791353,,,,,,,,,,,,,546,2023-05-15_11h00.19.011,eb_02psyexp,2022.2.4,60.00572355575006,
154,0,154,0,,,,,,,,,,,,,,,,,,,,,,,,,,,,,,,,,,,,,,,,,,,,,,,,,,,,,,,,,,,380.29329710791353,380.29329710791353,380.29329710791353,380.29329710791353,380.29329710791353,380.29329710791353,s,1,0.49569084984250367,380.8099668031791,381.82652813591994,,,,,,,,,,,,,546,2023-05-15_11h00.19.011,eb_02psyexp,2022.2.4,60.00572355575006,
155,0,155,0,,,,,,,,,,,,,,,,,,,,,,,,,,,,,,,,,,,,,,,,,,,,,,,,,,,,,,,,,,,381.82652813591994,381.82652813591994,381.82652813591994,381.82652813591994,381.82652813591994,381.82652813591994,l,1,0.6824764957418665,382.5264724153094,383.55973423155956,,,,,,,,,,,,,546,2023-05-15_11h00.19.011,eb_02psyexp,2022.2.4,60.00572355575006,
156,0,156,0,,,,,,,,,,,,,,,,,,,,,,,,,,,,,,,,,,,,,,,,,,,,,,,,,,,,,,,,,,,383.55973423155956,383.55973423155956,383.55973423155956,383.55973423155956,383.55973423155956,383.55973423155956,l,1,0.46126330795232207,384.0430201650597,385.0596143989824,,,,,,,,,,,,,546,2023-05-15_11h00.19.011,eb_02psyexp,2022.2.4,60.00572355575006,
157,0,157,0,,,,,,,,,,,,,,,,,,,,,,,,,,,,,,,,,,,,,,,,,,,,,,,,,,,,,,,,,,,385.0596143989824,385.0596143989824,385.0596143989824,385.0596143989824,385.0596143989824,385.0596143989824,l,1,0.4414028086466715,385.5262378817424,386.5428592816461,,,,,,,,,,,,,546,2023-05-15_11h00.19.011,eb_02psyexp,2022.2.4,60.00572355575006,
158,0,158,0,,,,,,,,,,,,,,,,,,,,,,,,,,,,,,,,,,,,,,,,,,,,,,,,,,,,,,,,,,,386.5428592816461,386.5428592816461,386.5428592816461,386.5428592816461,386.5428592816461,386.5428592816461,s,1,1.446187656489201,388.0093825518852,389.0259985185694,,,,,,,,,,,,,546,2023-05-15_11h00.19.011,eb_02psyexp,2022.2.4,60.00572355575006,
159,0,159,0,,,,,,,,,,,,,,,,,,,,,,,,,,,,,,,,,,,,,,,,,,,,,,,,,,,,,,,,,,,389.0259985185694,389.0259985185694,389.0259985185694,389.0259985185694,389.0259985185694,389.0259985185694,l,1,0.723029681132175,389.7759253211552,390.8091829115292,,,,,,,,,,,,,546,2023-05-15_11h00.19.011,eb_02psyexp,2022.2.4,60.00572355575006,
160,0,160,0,,,,,,,,,,,,,,,,,,,,,,,,,,,,,,,,,,,,,,,,,,,,,,,,,,,,,,,,,,,390.8091829115292,390.8091829115292,390.8091829115292,390.8091829115292,390.8091829115292,390.8091829115292,l,1,0.43487842776812613,391.2757967351936,392.29243473662063,,,,,,,,,,,,,546,2023-05-15_11h00.19.011,eb_02psyexp,2022.2.4,60.00572355575006,
161,0,161,0,,,,,,,,,,,,,,,,,,,,,,,,,,,,,,,,,,,,,,,,,,,,,,,,,,,,,,,,,,,392.29243473662063,392.29243473662063,392.29243473662063,392.29243473662063,392.29243473662063,392.29243473662063,l,1,0.7356142053613439,393.05904028972145,394.09224867937155,,,,,,,,,,,,,546,2023-05-15_11h00.19.011,eb_02psyexp,2022.2.4,60.00572355575006,
162,0,162,0,,,,,,,,,,,,,,,,,,,,,,,,,,,,,,,,,,,,,,,,,,,,,,,,,,,,,,,,,,,394.09224867937155,394.09224867937155,394.09224867937155,394.09224867937155,394.09224867937155,394.09224867937155,l,1,0.511852539726533,394.6255418873625,395.64214638399426,,,,,,,,,,,,,546,2023-05-15_11h00.19.011,eb_02psyexp,2022.2.4,60.00572355575006,
163,0,163,0,,,,,,,,,,,,,,,,,,,,,,,,,,,,,,,,,,,,,,,,,,,,,,,,,,,,,,,,,,,395.64214638399426,395.64214638399426,395.64214638399426,395.64214638399426,395.64214638399426,395.64214638399426,l,1,0.45790316886268556,396.1254600874381,397.15865579945967,,,,,,,,,,,,,546,2023-05-15_11h00.19.011,eb_02psyexp,2022.2.4,60.00572355575006,
164,0,164,0,,,,,,,,,,,,,,,,,,,,,,,,,,,,,,,,,,,,,,,,,,,,,,,,,,,,,,,,,,,397.15865579945967,397.15865579945967,397.15865579945967,397.15865579945967,397.15865579945967,397.15865579945967,s,0,0.42139531089924276,397.60866391914897,398.62524638103787,,,,,,,,,,,,,546,2023-05-15_11h00.19.011,eb_02psyexp,2022.2.4,60.00572355575006,
165,0,165,0,,,,,,,,,,,,,,,,,,,,,,,,,,,,,,,,,,,,,,,,,,,,,,,,,,,,,,,,,,,398.62524638103787,398.62524638103787,398.62524638103787,398.62524638103787,398.62524638103787,398.62524638103787,l,1,0.4988674671621993,399.1418602349004,400.15846925927326,,,,,,,,,,,,,546,2023-05-15_11h00.19.011,eb_02psyexp,2022.2.4,60.00572355575006,
166,0,166,0,,,,,,,,,,,,,,,,,,,,,,,,,,,,,,,,,,,,,,,,,,,,,,,,,,,,,,,,,,,400.15846925927326,400.15846925927326,400.15846925927326,400.15846925927326,400.15846925927326,400.15846925927326,s,1,0.8216011088807136,401.0084036682965,402.02498854498845,,,,,,,,,,,,,546,2023-05-15_11h00.19.011,eb_02psyexp,2022.2.4,60.00572355575006,
167,0,167,0,,,,,,,,,,,,,,,,,,,,,,,,,,,,,,,,,,,,,,,,,,,,,,,,,,,,,,,,,,,402.02498854498845,402.02498854498845,402.02498854498845,402.02498854498845,402.02498854498845,402.02498854498845,l,1,0.43511447054333985,402.4916153480299,403.5248662978411,,,,,,,,,,,,,546,2023-05-15_11h00.19.011,eb_02psyexp,2022.2.4,60.00572355575006,
168,0,168,0,,,,,,,,,,,,,,,,,,,,,,,,,,,,,,,,,,,,,,,,,,,,,,,,,,,,,,,,,,,403.5248662978411,403.5248662978411,403.5248662978411,403.5248662978411,403.5248662978411,403.5248662978411,l,1,0.4072348535992205,403.95816970826127,404.9747566978913,,,,,,,,,,,,,546,2023-05-15_11h00.19.011,eb_02psyexp,2022.2.4,60.00572355575006,
169,0,169,0,,,,,,,,,,,,,,,,,,,,,,,,,,,,,,,,,,,,,,,,,,,,,,,,,,,,,,,,,,,404.9747566978913,404.9747566978913,404.9747566978913,404.9747566978913,404.9747566978913,404.9747566978913,l,1,0.556450147065334,405.55805687850807,406.59128760464955,,,,,,,,,,,,,546,2023-05-15_11h00.19.011,eb_02psyexp,2022.2.4,60.00572355575006,
170,0,170,0,,,,,,,,,,,,,,,,,,,,,,,,,,,,,,,,,,,,,,,,,,,,,,,,,,,,,,,,,,,406.59128760464955,406.59128760464955,406.59128760464955,406.59128760464955,406.59128760464955,406.59128760464955,l,1,0.39585016353521496,407.0079394306522,408.02451796852984,,,,,,,,,,,,,546,2023-05-15_11h00.19.011,eb_02psyexp,2022.2.4,60.00572355575006,
171,0,171,0,,,,,,,,,,,,,,,,,,,,,,,,,,,,,,,,,,,,,,,,,,,,,,,,,,,,,,,,,,,408.02451796852984,408.02451796852984,408.02451796852984,408.02451796852984,408.02451796852984,408.02451796852984,l,1,0.4266676384722814,408.4745046572061,409.49110281514004,,,,,,,,,,,,,546,2023-05-15_11h00.19.011,eb_02psyexp,2022.2.4,60.00572355575006,
172,0,172,0,,,,,,,,,,,,,,,,,,,,,,,,,,,,,,,,,,,,,,,,,,,,,,,,,,,,,,,,,,,409.49110281514004,409.49110281514004,409.49110281514004,409.49110281514004,409.49110281514004,409.49110281514004,s,1,0.5920606196159497,410.10770284442697,411.12428953219205,,,,,,,,,,,,,546,2023-05-15_11h00.19.011,eb_02psyexp,2022.2.4,60.00572355575006,
173,0,173,0,,,,,,,,,,,,,,,,,,,,,,,,,,,,,,,,,,,,,,,,,,,,,,,,,,,,,,,,,,,411.12428953219205,411.12428953219205,411.12428953219205,411.12428953219205,411.12428953219205,411.12428953219205,l,1,0.5108697322430089,411.65758455137257,412.69083308638074,,,,,,,,,,,,,546,2023-05-15_11h00.19.011,eb_02psyexp,2022.2.4,60.00572355575006,
174,0,174,0,,,,,,,,,,,,,,,,,,,,,,,,,,,,,,,,,,,,,,,,,,,,,,,,,,,,,,,,,,,412.69083308638074,412.69083308638074,412.69083308638074,412.69083308638074,412.69083308638074,412.69083308638074,s,1,0.44030197977554053,413.15747437789105,414.1907235166291,,,,,,,,,,,,,546,2023-05-15_11h00.19.011,eb_02psyexp,2022.2.4,60.00572355575006,
175,0,175,0,,,,,,,,,,,,,,,,,,,,,,,,,,,,,,,,,,,,,,,,,,,,,,,,,,,,,,,,,,,414.1907235166291,414.1907235166291,414.1907235166291,414.1907235166291,414.1907235166291,414.1907235166291,s,1,0.49244571360759437,414.70735034975223,415.7406055254396,,,,,,,,,,,,,546,2023-05-15_11h00.19.011,eb_02psyexp,2022.2.4,60.00572355575006,
176,0,176,0,,,,,,,,,,,,,,,,,,,,,,,,,,,,,,,,,,,,,,,,,,,,,,,,,,,,,,,,,,,415.7406055254396,415.7406055254396,415.7406055254396,415.7406055254396,415.7406055254396,415.7406055254396,s,1,0.6065893279155716,416.373889738461,417.39049755537417,,,,,,,,,,,,,546,2023-05-15_11h00.19.011,eb_02psyexp,2022.2.4,60.00572355575006,
177,0,177,0,,,,,,,,,,,,,,,,,,,,,,,,,,,,,,,,,,,,,,,,,,,,,,,,,,,,,,,,,,,417.39049755537417,417.39049755537417,417.39049755537417,417.39049755537417,417.39049755537417,417.39049755537417,l,1,0.8687004080275074,418.29041237477213,419.3236853592098,,,,,,,,,,,,,546,2023-05-15_11h00.19.011,eb_02psyexp,2022.2.4,60.00572355575006,
178,0,178,0,,,,,,,,,,,,,,,,,,,,,,,,,,,,,,,,,,,,,,,,,,,,,,,,,,,,,,,,,,,419.3236853592098,419.3236853592098,419.3236853592098,419.3236853592098,419.3236853592098,419.3236853592098,s,1,0.48754888121038675,419.8402804986108,420.8735441258177,,,,,,,,,,,,,546,2023-05-15_11h00.19.011,eb_02psyexp,2022.2.4,60.00572355575006,
179,0,179,0,,,,,,,,,,,,,,,,,,,,,,,,,,,,,,,,,,,,,,,,,,,,,,,,,,,,,,,,,,,420.8735441258177,420.8735441258177,420.8735441258177,420.8735441258177,420.8735441258177,420.8735441258177,s,1,0.9366677653742954,421.84012716135476,422.85674433549866,,,,,,,,,,,,,546,2023-05-15_11h00.19.011,eb_02psyexp,2022.2.4,60.00572355575006,
180,0,180,0,,,,,,,,,,,,,,,,,,,,,,,,,,,,,,,,,,,,,,,,,,,,,,,,,,,,,,,,,,,422.85674433549866,422.85674433549866,422.85674433549866,422.85674433549866,422.85674433549866,422.85674433549866,l,1,0.4654984959634021,423.3400184970815,424.3733014424797,,,,,,,,,,,,,546,2023-05-15_11h00.19.011,eb_02psyexp,2022.2.4,60.00572355575006,
181,0,181,0,,,,,,,,,,,,,,,,,,,,,,,,,,,,,,,,,,,,,,,,,,,,,,,,,,,,,,,,,,,424.3733014424797,424.3733014424797,424.3733014424797,424.3733014424797,424.3733014424797,424.3733014424797,s,1,0.4289381169946864,424.82325643731747,425.83983044768684,,,,,,,,,,,,,546,2023-05-15_11h00.19.011,eb_02psyexp,2022.2.4,60.00572355575006,
182,0,182,0,,,,,,,,,,,,,,,,,,,,,,,,,,,,,,,,,,,,,,,,,,,,,,,,,,,,,,,,,,,425.83983044768684,425.83983044768684,425.83983044768684,425.83983044768684,425.83983044768684,425.83983044768684,s,0,0.3384008993161842,426.2064795268234,427.22306138509884,,,,,,,,,,,,,546,2023-05-15_11h00.19.011,eb_02psyexp,2022.2.4,60.00572355575006,
183,0,183,0,,,,,,,,,,,,,,,,,,,,,,,,,,,,,,,,,,,,,,,,,,,,,,,,,,,,,,,,,,,427.22306138509884,427.22306138509884,427.22306138509884,427.22306138509884,427.22306138509884,427.22306138509884,l,1,0.45919355645310134,427.70634188549593,428.72292887512594,,,,,,,,,,,,,546,2023-05-15_11h00.19.011,eb_02psyexp,2022.2.4,60.00572355575006,
184,0,184,0,,,,,,,,,,,,,,,,,,,,,,,,,,,,,,,,,,,,,,,,,,,,,,,,,,,,,,,,,,,428.72292887512594,428.72292887512594,428.72292887512594,428.72292887512594,428.72292887512594,428.72292887512594,l,1,0.4393532808171585,429.189579523867,430.2228283607401,,,,,,,,,,,,,546,2023-05-15_11h00.19.011,eb_02psyexp,2022.2.4,60.00572355575006,
185,0,185,0,,,,,,,,,,,,,,,,,,,,,,,,,,,,,,,,,,,,,,,,,,,,,,,,,,,,,,,,,,,430.2228283607401,430.2228283607401,430.2228283607401,430.2228283607401,430.2228283607401,430.2228283607401,s,1,0.46742849331349134,430.7227882152656,431.7394050875446,,,,,,,,,,,,,546,2023-05-15_11h00.19.011,eb_02psyexp,2022.2.4,60.00572355575006,
186,0,186,0,,,,,,,,,,,,,,,,,,,,,,,,,,,,,,,,,,,,,,,,,,,,,,,,,,,,,,,,,,,431.7394050875446,431.7394050875446,431.7394050875446,431.7394050875446,431.7394050875446,431.7394050875446,l,1,0.4708523218287155,432.2393377760891,433.2559425745858,,,,,,,,,,,,,546,2023-05-15_11h00.19.011,eb_02psyexp,2022.2.4,60.00572355575006,
187,0,187,0,,,,,,,,,,,,,,,,,,,,,,,,,,,,,,,,,,,,,,,,,,,,,,,,,,,,,,,,,,,433.2559425745858,433.2559425745858,433.2559425745858,433.2559425745858,433.2559425745858,433.2559425745858,s,1,0.8183454079553485,434.1058664191514,435.1224573327927,,,,,,,,,,,,,546,2023-05-15_11h00.19.011,eb_02psyexp,2022.2.4,60.00572355575006,
188,0,188,0,,,,,,,,,,,,,,,,,,,,,,,,,,,,,,,,,,,,,,,,,,,,,,,,,,,,,,,,,,,435.1224573327927,435.1224573327927,435.1224573327927,435.1224573327927,435.1224573327927,435.1224573327927,l,1,0.49584418709855527,435.63907511055004,436.6556808146415,,,,,,,,,,,,,546,2023-05-15_11h00.19.011,eb_02psyexp,2022.2.4,60.00572355575006,
189,0,189,0,,,,,,,,,,,,,,,,,,,,,,,,,,,,,,,,,,,,,,,,,,,,,,,,,,,,,,,,,,,436.6556808146415,436.6556808146415,436.6556808146415,436.6556808146415,436.6556808146415,436.6556808146415,l,1,0.5456603935454041,437.22231824253686,438.2388907435816,,,,,,,,,,,,,546,2023-05-15_11h00.19.011,eb_02psyexp,2022.2.4,60.00572355575006,
190,0,190,0,,,,,,,,,,,,,,,,,,,,,,,,,,,,,,,,,,,,,,,,,,,,,,,,,,,,,,,,,,,438.2388907435816,438.2388907435816,438.2388907435816,438.2388907435816,438.2388907435816,438.2388907435816,l,1,0.46643602673429996,438.7221277783392,439.73875249852426,,,,,,,,,,,,,546,2023-05-15_11h00.19.011,eb_02psyexp,2022.2.4,60.00572355575006,
191,0,191,0,,,,,,,,,,,,,,,,,,,,,,,,,,,,,,,,,,,,,,,,,,,,,,,,,,,,,,,,,,,439.73875249852426,439.73875249852426,439.73875249852426,439.73875249852426,439.73875249852426,439.73875249852426,l,1,0.798586328746751,440.555397019838,441.57196559698787,,,,,,,,,,,,,546,2023-05-15_11h00.19.011,eb_02psyexp,2022.2.4,60.00572355575006,
192,0,192,0,,,,,,,,,,,,,,,,,,,,,,,,,,,,,,,,,,,,,,,,,,,,,,,,,,,,,,,,,,,441.57196559698787,441.57196559698787,441.57196559698787,441.57196559698787,441.57196559698787,441.57196559698787,l,1,0.4613737832987681,442.05526632093824,443.0718741378514,,,,,,,,,,,,,546,2023-05-15_11h00.19.011,eb_02psyexp,2022.2.4,60.00572355575006,
193,0,193,0,,,,,,,,,,,,,,,,,,,,,,,,,,,,,,,,,,,,,,,,,,,,,,,,,,,,,,,,,,,443.0718741378514,443.0718741378514,443.0718741378514,443.0718741378514,443.0718741378514,443.0718741378514,l,1,0.3694384191185236,443.4718396671815,444.48843178816605,,,,,,,,,,,,,546,2023-05-15_11h00.19.011,eb_02psyexp,2022.2.4,60.00572355575006,
194,0,194,0,,,,,,,,,,,,,,,,,,,,,,,,,,,,,,,,,,,,,,,,,,,,,,,,,,,,,,,,,,,444.48843178816605,444.48843178816605,444.48843178816605,444.48843178816605,444.48843178816605,444.48843178816605,l,1,0.39293735881801695,444.90505161858164,445.9216546060052,,,,,,,,,,,,,546,2023-05-15_11h00.19.011,eb_02psyexp,2022.2.4,60.00572355575006,
195,0,195,0,,,,,,,,,,,,,,,,,,,,,,,,,,,,,,,,,,,,,,,,,,,,,,,,,,,,,,,,,,,445.9216546060052,445.9216546060052,445.9216546060052,445.9216546060052,445.9216546060052,445.9216546060052,l,1,0.4157468843040988,446.3549393020803,447.3715229713125,,,,,,,,,,,,,546,2023-05-15_11h00.19.011,eb_02psyexp,2022.2.4,60.00572355575006,
196,0,196,0,,,,,,,,,,,,,,,,,,,,,,,,,,,,,,,,,,,,,,,,,,,,,,,,,,,,,,,,,,,447.3715229713125,447.3715229713125,447.3715229713125,447.3715229713125,447.3715229713125,447.3715229713125,l,1,0.37383177399169654,447.77150057442486,448.7881011471618,,,,,,,,,,,,,546,2023-05-15_11h00.19.011,eb_02psyexp,2022.2.4,60.00572355575006,
197,0,197,0,,,,,,,,,,,,,,,,,,,,,,,,,,,,,,,,,,,,,,,,,,,,,,,,,,,,,,,,,,,448.7881011471618,448.7881011471618,448.7881011471618,448.7881011471618,448.7881011471618,448.7881011471618,l,0,0.413316126097925,449.22137497668155,450.2379713235423,,,,,,,,,,,,,546,2023-05-15_11h00.19.011,eb_02psyexp,2022.2.4,60.00572355575006,
198,0,198,0,,,,,,,,,,,,,,,,,,,,,,,,,,,,,,,,,,,,,,,,,,,,,,,,,,,,,,,,,,,450.2379713235423,450.2379713235423,450.2379713235423,450.2379713235423,450.2379713235423,450.2379713235423,l,1,0.42655022081453353,450.68793869414367,451.70452326897066,,,,,,,,,,,,,546,2023-05-15_11h00.19.011,eb_02psyexp,2022.2.4,60.00572355575006,
199,0,199,0,,,,,0,0,0,0,,,,,,,,,,,,,,,,,,,,,,,,,,,,,,,,,,,,,,,,,,,,,,,,,,,451.70452326897066,451.70452326897066,451.70452326897066,451.70452326897066,451.70452326897066,451.70452326897066,l,1,0.3928754805820063,452.12116785068065,453.12107790086884,453.12107790086884,453.12107790086884,space,1.119313002564013,,,,,,,,,546,2023-05-15_11h00.19.011,eb_02psyexp,2022.2.4,60.00572355575006,
199,0,199,0,,,,,,,,,,,,,,,,,,,,,,,,,,,,,,,,,,,,,,,,,,,,,,,,,,,,,,,,,,,,,,,,,,,,,,,,,,,,,,,,,,546,2023-05-15_11h00.19.011,eb_02psyexp,2022.2.4,60.00572355575006,
200,0,200,0,,,,,,,,,,,,,,,,,,,,,,,,,,,,,,,,,,,,,,,,,,,,,,,,,,,,,,,,,,,454.28767282899935,454.28767282899935,454.28767282899935,454.28767282899935,454.28767282899935,454.28767282899935,l,1,0.49677024770062417,454.8042903050082,455.82089027389884,,,,,,,,,,,,,546,2023-05-15_11h00.19.011,eb_02psyexp,2022.2.4,60.00572355575006,
201,0,201,0,,,,,,,,,,,,,,,,,,,,,,,,,,,,,,,,,,,,,,,,,,,,,,,,,,,,,,,,,,,455.82089027389884,455.82089027389884,455.82089027389884,455.82089027389884,455.82089027389884,455.82089027389884,l,1,0.45151190157048404,456.30417650938034,457.32076440460514,,,,,,,,,,,,,546,2023-05-15_11h00.19.011,eb_02psyexp,2022.2.4,60.00572355575006,
202,0,202,0,,,,,,,,,,,,,,,,,,,,,,,,,,,,,,,,,,,,,,,,,,,,,,,,,,,,,,,,,,,457.32076440460514,457.32076440460514,457.32076440460514,457.32076440460514,457.32076440460514,457.32076440460514,l,1,0.49570624390617013,457.83740089682397,458.85397883108817,,,,,,,,,,,,,546,2023-05-15_11h00.19.011,eb_02psyexp,2022.2.4,60.00572355575006,
203,0,203,0,,,,,,,,,,,,,,,,,,,,,,,,,,,,,,,,,,,,,,,,,,,,,,,,,,,,,,,,,,,458.85397883108817,458.85397883108817,458.85397883108817,458.85397883108817,458.85397883108817,458.85397883108817,l,1,0.39445895969402045,459.2706040946068,460.30386802367866,,,,,,,,,,,,,546,2023-05-15_11h00.19.011,eb_02psyexp,2022.2.4,60.00572355575006,
204,0,204,0,,,,,,,,,,,,,,,,,,,,,,,,,,,,,,,,,,,,,,,,,,,,,,,,,,,,,,,,,,,460.30386802367866,460.30386802367866,460.30386802367866,460.30386802367866,460.30386802367866,460.30386802367866,s,1,0.4805771659594029,460.8038209358929,461.8370927129872,,,,,,,,,,,,,546,2023-05-15_11h00.19.011,eb_02psyexp,2022.2.4,60.00572355575006,
205,0,205,0,,,,,,,,,,,,,,,,,,,,,,,,,,,,,,,,,,,,,,,,,,,,,,,,,,,,,,,,,,,461.8370927129872,461.8370927129872,461.8370927129872,461.8370927129872,461.8370927129872,461.8370927129872,s,1,0.40332414908334613,462.27038767177146,463.30364888417535,,,,,,,,,,,,,546,2023-05-15_11h00.19.011,eb_02psyexp,2022.2.4,60.00572355575006,
206,0,206,0,,,,,,,,,,,,,,,,,,,,,,,,,,,,,,,,,,,,,,,,,,,,,,,,,,,,,,,,,,,463.30364888417535,463.30364888417535,463.30364888417535,463.30364888417535,463.30364888417535,463.30364888417535,s,1,0.4168498261133209,463.7536014643265,464.77019117062446,,,,,,,,,,,,,546,2023-05-15_11h00.19.011,eb_02psyexp,2022.2.4,60.00572355575006,
207,0,207,0,,,,,,,,,,,,,,,,,,,,,,,,,,,,,,,,,,,,,,,,,,,,,,,,,,,,,,,,,,,464.77019117062446,464.77019117062446,464.77019117062446,464.77019117062446,464.77019117062446,464.77019117062446,l,1,0.422260700725019,465.22016216325574,466.2534499381436,,,,,,,,,,,,,546,2023-05-15_11h00.19.011,eb_02psyexp,2022.2.4,60.00572355575006,
208,0,208,0,,,,,,,,,,,,,,,,,,,,,,,,,,,,,,,,,,,,,,,,,,,,,,,,,,,,,,,,,,,466.2534499381436,466.2534499381436,466.2534499381436,466.2534499381436,466.2534499381436,466.2534499381436,l,1,0.4270210991380736,466.7033783707302,467.71992642234545,,,,,,,,,,,,,546,2023-05-15_11h00.19.011,eb_02psyexp,2022.2.4,60.00572355575006,
209,0,209,0,,,,,,,,,,,,,,,,,,,,,,,,,,,,,,,,,,,,,,,,,,,,,,,,,,,,,,,,,,,467.71992642234545,467.71992642234545,467.71992642234545,467.71992642234545,467.71992642234545,467.71992642234545,l,1,0.40761095262132585,468.15327027998865,469.18654175521806,,,,,,,,,,,,,546,2023-05-15_11h00.19.011,eb_02psyexp,2022.2.4,60.00572355575006,
210,0,210,0,,,,,,,,,,,,,,,,,,,,,,,,,,,,,,,,,,,,,,,,,,,,,,,,,,,,,,,,,,,469.18654175521806,469.18654175521806,469.18654175521806,469.18654175521806,469.18654175521806,469.18654175521806,l,1,0.5329318892909214,469.73648654774297,470.7530756503111,,,,,,,,,,,,,546,2023-05-15_11h00.19.011,eb_02psyexp,2022.2.4,60.00572355575006,
211,0,211,0,,,,,,,,,,,,,,,,,,,,,,,,,,,,,,,,,,,,,,,,,,,,,,,,,,,,,,,,,,,470.7530756503111,470.7530756503111,470.7530756503111,470.7530756503111,470.7530756503111,470.7530756503111,l,1,0.4223980401875451,471.2030484540155,472.21963785844855,,,,,,,,,,,,,546,2023-05-15_11h00.19.011,eb_02psyexp,2022.2.4,60.00572355575006,
212,0,212,0,,,,,,,,,,,,,,,,,,,,,,,,,,,,,,,,,,,,,,,,,,,,,,,,,,,,,,,,,,,472.21963785844855,472.21963785844855,472.21963785844855,472.21963785844855,472.21963785844855,472.21963785844855,s,1,0.4918471548007801,472.7362502029864,473.7528435314307,,,,,,,,,,,,,546,2023-05-15_11h00.19.011,eb_02psyexp,2022.2.4,60.00572355575006,
213,0,213,0,,,,,,,,,,,,,,,,,,,,,,,,,,,,,,,,,,,,,,,,,,,,,,,,,,,,,,,,,,,473.7528435314307,473.7528435314307,473.7528435314307,473.7528435314307,473.7528435314307,473.7528435314307,l,0,0.4066498780157417,474.1861333588604,475.20272880012635,,,,,,,,,,,,,546,2023-05-15_11h00.19.011,eb_02psyexp,2022.2.4,60.00572355575006,
214,0,214,0,,,,,,,,,,,,,,,,,,,,,,,,,,,,,,,,,,,,,,,,,,,,,,,,,,,,,,,,,,,475.20272880012635,475.20272880012635,475.20272880012635,475.20272880012635,475.20272880012635,475.20272880012635,l,1,0.42881285143084824,475.6526934540598,476.6692852731794,,,,,,,,,,,,,546,2023-05-15_11h00.19.011,eb_02psyexp,2022.2.4,60.00572355575006,
215,0,215,0,,,,,,,,,,,,,,,,,,,,,,,,,,,,,,,,,,,,,,,,,,,,,,,,,,,,,,,,,,,476.6692852731794,476.6692852731794,476.6692852731794,476.6692852731794,476.6692852731794,476.6692852731794,l,0,0.35423237073700875,477.0525913700694,478.0691732283449,,,,,,,,,,,,,546,2023-05-15_11h00.19.011,eb_02psyexp,2022.2.4,60.00572355575006,
216,0,216,0,,,,,,,,,,,,,,,,,,,,,,,,,,,,,,,,,,,,,,,,,,,,,,,,,,,,,,,,,,,478.0691732283449,478.0691732283449,478.0691732283449,478.0691732283449,478.0691732283449,478.0691732283449,l,1,0.34635602578055114,478.43580238567665,479.4521011132747,,,,,,,,,,,,,546,2023-05-15_11h00.19.011,eb_02psyexp,2022.2.4,60.00572355575006,
217,0,217,0,,,,,,,,,,,,,,,,,,,,,,,,,,,,,,,,,,,,,,,,,,,,,,,,,,,,,,,,,,,479.4521011132747,479.4521011132747,479.4521011132747,479.4521011132747,479.4521011132747,479.4521011132747,s,1,0.5154580789385363,479.98568741290364,481.00228677818086,,,,,,,,,,,,,546,2023-05-15_11h00.19.011,eb_02psyexp,2022.2.4,60.00572355575006,
218,0,218,0,,,,,,,,,,,,,,,,,,,,,,,,,,,,,,,,,,,,,,,,,,,,,,,,,,,,,,,,,,,481.00228677818086,481.00228677818086,481.00228677818086,481.00228677818086,481.00228677818086,481.00228677818086,l,1,0.38126380299218,481.402262872085,482.4355358565226,,,,,,,,,,,,,546,2023-05-15_11h00.19.011,eb_02psyexp,2022.2.4,60.00572355575006,
219,0,219,0,,,,,,,,,,,,,,,,,,,,,,,,,,,,,,,,,,,,,,,,,,,,,,,,,,,,,,,,,,,482.4355358565226,482.4355358565226,482.4355358565226,482.4355358565226,482.4355358565226,482.4355358565226,s,1,0.4920581445330754,482.9521506158635,483.96872673917096,,,,,,,,,,,,,546,2023-05-15_11h00.19.011,eb_02psyexp,2022.2.4,60.00572355575006,
220,0,220,0,,,,,,,,,,,,,,,,,,,,,,,,,,,,,,,,,,,,,,,,,,,,,,,,,,,,,,,,,,,483.96872673917096,483.96872673917096,483.96872673917096,483.96872673917096,483.96872673917096,483.96872673917096,s,1,0.4538225254509598,484.45200603210833,485.46864463726524,,,,,,,,,,,,,546,2023-05-15_11h00.19.011,eb_02psyexp,2022.2.4,60.00572355575006,
221,0,221,0,,,,,,,,,,,,,,,,,,,,,,,,,,,,,,,,,,,,,,,,,,,,,,,,,,,,,,,,,,,485.46864463726524,485.46864463726524,485.46864463726524,485.46864463726524,485.46864463726524,485.46864463726524,s,1,0.5459323560353369,486.03524101432413,487.0518503404455,,,,,,,,,,,,,546,2023-05-15_11h00.19.011,eb_02psyexp,2022.2.4,60.00572355575006,
222,0,222,0,,,,,,,,,,,,,,,,,,,,,,,,,,,,,,,,,,,,,,,,,,,,,,,,,,,,,,,,,,,487.0518503404455,487.0518503404455,487.0518503404455,487.0518503404455,487.0518503404455,487.0518503404455,s,1,0.5147390840575099,487.58511094923597,488.6016967315227,,,,,,,,,,,,,546,2023-05-15_11h00.19.011,eb_02psyexp,2022.2.4,60.00572355575006,
223,0,223,0,,,,,,,,,,,,,,,,,,,,,,,,,,,,,,,,,,,,,,,,,,,,,,,,,,,,,,,,,,,488.6016967315227,488.6016967315227,488.6016967315227,488.6016967315227,488.6016967315227,488.6016967315227,s,1,0.46887191641144454,489.10164904000703,490.1182568569202,,,,,,,,,,,,,546,2023-05-15_11h00.19.011,eb_02psyexp,2022.2.4,60.00572355575006,
224,0,224,0,,,,,,,,,,,,,,,,,,,,,,,,,,,,,,,,,,,,,,,,,,,,,,,,,,,,,,,,,,,490.1182568569202,490.1182568569202,490.1182568569202,490.1182568569202,490.1182568569202,490.1182568569202,l,1,0.62437252944801,490.7681938618189,491.7848122434225,,,,,,,,,,,,,546,2023-05-15_11h00.19.011,eb_02psyexp,2022.2.4,60.00572355575006,
225,0,225,0,,,,,,,,,,,,,,,,,,,,,,,,,,,,,,,,,,,,,,,,,,,,,,,,,,,,,,,,,,,491.7848122434225,491.7848122434225,491.7848122434225,491.7848122434225,491.7848122434225,491.7848122434225,s,1,0.4857951613375917,492.3014257954201,493.31801701080985,,,,,,,,,,,,,546,2023-05-15_11h00.19.011,eb_02psyexp,2022.2.4,60.00572355575006,
226,0,226,0,,,,,,,,,,,,,,,,,,,,,,,,,,,,,,,,,,,,,,,,,,,,,,,,,,,,,,,,,,,493.31801701080985,493.31801701080985,493.31801701080985,493.31801701080985,493.31801701080985,493.31801701080985,l,1,0.4566197235835716,493.80131350900047,494.8345617421437,,,,,,,,,,,,,546,2023-05-15_11h00.19.011,eb_02psyexp,2022.2.4,60.00572355575006,
227,0,227,0,,,,,,,,,,,,,,,,,,,,,,,,,,,,,,,,,,,,,,,,,,,,,,,,,,,,,,,,,,,494.8345617421437,494.8345617421437,494.8345617421437,494.8345617421437,494.8345617421437,494.8345617421437,s,0,0.35603861161507666,495.21787719614804,496.2344678079244,,,,,,,,,,,,,546,2023-05-15_11h00.19.011,eb_02psyexp,2022.2.4,60.00572355575006,
228,0,228,0,,,,,,,,,,,,,,,,,,,,,,,,,,,,,,,,,,,,,,,,,,,,,,,,,,,,,,,,,,,496.2344678079244,496.2344678079244,496.2344678079244,496.2344678079244,496.2344678079244,496.2344678079244,s,1,0.3881633772980422,496.6510366265429,497.6843400973594,,,,,,,,,,,,,546,2023-05-15_11h00.19.011,eb_02psyexp,2022.2.4,60.00572355575006,
229,0,229,0,,,,,,,,,,,,,,,,,,,,,,,,,,,,,,,,,,,,,,,,,,,,,,,,,,,,,,,,,,,497.6843400973594,497.6843400973594,497.6843400973594,497.6843400973594,497.6843400973594,497.6843400973594,s,1,0.37831477681174874,498.0843038154999,499.11756351881195,,,,,,,,,,,,,546,2023-05-15_11h00.19.011,eb_02psyexp,2022.2.4,60.00572355575006,
230,0,230,0,,,,,,,,,,,,,,,,,,,,,,,,,,,,,,,,,,,,,,,,,,,,,,,,,,,,,,,,,,,499.11756351881195,499.11756351881195,499.11756351881195,499.11756351881195,499.11756351881195,499.11756351881195,s,1,0.49614874878898263,499.6342048405204,500.6674603179563,,,,,,,,,,,,,546,2023-05-15_11h00.19.011,eb_02psyexp,2022.2.4,60.00572355575006,
231,0,231,0,,,,,,,,,,,,,,,,,,,,,,,,,,,,,,,,,,,,,,,,,,,,,,,,,,,,,,,,,,,500.6674603179563,500.6674603179563,500.6674603179563,500.6674603179563,500.6674603179563,500.6674603179563,s,1,0.47422513843048364,501.16742047446314,502.1840391578153,,,,,,,,,,,,,546,2023-05-15_11h00.19.011,eb_02psyexp,2022.2.4,60.00572355575006,
232,0,232,0,,,,,,,,,,,,,,,,,,,,,,,,,,,,,,,,,,,,,,,,,,,,,,,,,,,,,,,,,,,502.1840391578153,502.1840391578153,502.1840391578153,502.1840391578153,502.1840391578153,502.1840391578153,l,1,0.43762008647900075,502.650645737187,503.6672058625845,,,,,,,,,,,,,546,2023-05-15_11h00.19.011,eb_02psyexp,2022.2.4,60.00572355575006,
233,0,233,0,,,,,,,,,,,,,,,,,,,,,,,,,,,,,,,,,,,,,,,,,,,,,,,,,,,,,,,,,,,503.6672058625845,503.6672058625845,503.6672058625845,503.6672058625845,503.6672058625845,503.6672058625845,l,1,0.426499510766007,504.11718711804133,505.1338048959151,,,,,,,,,,,,,546,2023-05-15_11h00.19.011,eb_02psyexp,2022.2.4,60.00572355575006,
234,0,234,0,,,,,,,,,,,,,,,,,,,,,,,,,,,,,,,,,,,,,,,,,,,,,,,,,,,,,,,,,,,505.1338048959151,505.1338048959151,505.1338048959151,505.1338048959151,505.1338048959151,505.1338048959151,l,1,0.5838797129690647,505.75039647356607,506.767000366468,,,,,,,,,,,,,546,2023-05-15_11h00.19.011,eb_02psyexp,2022.2.4,60.00572355575006,
235,0,235,0,,,,,,,,,,,,,,,,,,,,,,,,,,,,,,,,,,,,,,,,,,,,,,,,,,,,,,,,,,,506.767000366468,506.767000366468,506.767000366468,506.767000366468,506.767000366468,506.767000366468,l,1,0.4386925419094041,507.23361177544575,508.2502150646178,,,,,,,,,,,,,546,2023-05-15_11h00.19.011,eb_02psyexp,2022.2.4,60.00572355575006,
236,0,236,0,,,,,,,,,,,,,,,,,,,,,,,,,,,,,,,,,,,,,,,,,,,,,,,,,,,,,,,,,,,508.2502150646178,508.2502150646178,508.2502150646178,508.2502150646178,508.2502150646178,508.2502150646178,s,1,0.5234974202467129,508.80016921437345,509.8167712963186,,,,,,,,,,,,,546,2023-05-15_11h00.19.011,eb_02psyexp,2022.2.4,60.00572355575006,
237,0,237,0,,,,,,,,,,,,,,,,,,,,,,,,,,,,,,,,,,,,,,,,,,,,,,,,,,,,,,,,,,,509.8167712963186,509.8167712963186,509.8167712963186,509.8167712963186,509.8167712963186,509.8167712963186,l,1,0.3489687965484336,510.18339864257723,511.20000223373063,,,,,,,,,,,,,546,2023-05-15_11h00.19.011,eb_02psyexp,2022.2.4,60.00572355575006,
238,0,238,0,,,,,,,,,,,,,,,,,,,,,,,,,,,,,,,,,,,,,,,,,,,,,,,,,,,,,,,,,,,511.20000223373063,511.20000223373063,511.20000223373063,511.20000223373063,511.20000223373063,511.20000223373063,s,1,0.5097320782952011,511.73326706828084,512.76653975097,,,,,,,,,,,,,546,2023-05-15_11h00.19.011,eb_02psyexp,2022.2.4,60.00572355575006,
239,0,239,0,,,,,,,,,,,,,,,,,,,,,,,,,,,,,,,,,,,,,,,,,,,,,,,,,,,,,,,,,,,512.76653975097,512.76653975097,512.76653975097,512.76653975097,512.76653975097,512.76653975097,s,1,0.5351921051042154,513.3331593699986,514.3497641684953,,,,,,,,,,,,,546,2023-05-15_11h00.19.011,eb_02psyexp,2022.2.4,60.00572355575006,
240,0,240,0,,,,,,,,,,,,,,,,,,,,,,,,,,,,,,,,,,,,,,,,,,,,,,,,,,,,,,,,,,,514.3497641684953,514.3497641684953,514.3497641684953,514.3497641684953,514.3497641684953,514.3497641684953,l,1,0.47905405575875193,514.8497140621766,515.8829638046445,,,,,,,,,,,,,546,2023-05-15_11h00.19.011,eb_02psyexp,2022.2.4,60.00572355575006,
241,0,241,0,,,,,,,,,,,,,,,,,,,,,,,,,,,,,,,,,,,,,,,,,,,,,,,,,,,,,,,,,,,515.8829638046445,515.8829638046445,515.8829638046445,515.8829638046445,515.8829638046445,515.8829638046445,s,1,0.4257793085416779,516.3329266475048,517.3495383884292,,,,,,,,,,,,,546,2023-05-15_11h00.19.011,eb_02psyexp,2022.2.4,60.00572355575006,
242,0,242,0,,,,,,,,,,,,,,,,,,,,,,,,,,,,,,,,,,,,,,,,,,,,,,,,,,,,,,,,,,,517.3495383884292,517.3495383884292,517.3495383884292,517.3495383884292,517.3495383884292,517.3495383884292,l,1,0.6872045967029408,518.066145722405,519.0993465658976,,,,,,,,,,,,,546,2023-05-15_11h00.19.011,eb_02psyexp,2022.2.4,60.00572355575006,
243,0,243,0,,,,,,,,,,,,,,,,,,,,,,,,,,,,,,,,,,,,,,,,,,,,,,,,,,,,,,,,,,,519.0993465658976,519.0993465658976,519.0993465658976,519.0993465658976,519.0993465658976,519.0993465658976,s,1,0.47341468441300094,519.5993381142616,520.6325917806244,,,,,,,,,,,,,546,2023-05-15_11h00.19.011,eb_02psyexp,2022.2.4,60.00572355575006,
244,0,244,0,,,,,,,,,,,,,,,,,,,,,,,,,,,,,,,,,,,,,,,,,,,,,,,,,,,,,,,,,,,520.6325917806244,520.6325917806244,520.6325917806244,520.6325917806244,520.6325917806244,520.6325917806244,s,1,0.5401837169192731,521.1992476211162,522.2158113686601,,,,,,,,,,,,,546,2023-05-15_11h00.19.011,eb_02psyexp,2022.2.4,60.00572355575006,
245,0,245,0,,,,,,,,,,,,,,,,,,,,,,,,,,,,,,,,,,,,,,,,,,,,,,,,,,,,,,,,,,,522.2158113686601,522.2158113686601,522.2158113686601,522.2158113686601,522.2158113686601,522.2158113686601,l,1,0.33300028753001243,522.5657777732704,523.5823892123299,,,,,,,,,,,,,546,2023-05-15_11h00.19.011,eb_02psyexp,2022.2.4,60.00572355575006,
246,0,246,0,,,,,,,,,,,,,,,,,,,,,,,,,,,,,,,,,,,,,,,,,,,,,,,,,,,,,,,,,,,523.5823892123299,523.5823892123299,523.5823892123299,523.5823892123299,523.5823892123299,523.5823892123299,l,1,0.3664088003570214,523.9656814243644,524.9989353924757,,,,,,,,,,,,,546,2023-05-15_11h00.19.011,eb_02psyexp,2022.2.4,60.00572355575006,
247,0,247,0,,,,,,,,,,,,,,,,,,,,,,,,,,,,,,,,,,,,,,,,,,,,,,,,,,,,,,,,,,,524.9989353924757,524.9989353924757,524.9989353924757,524.9989353924757,524.9989353924757,524.9989353924757,s,1,0.7338562597287819,525.7655385308899,526.7821363869589,,,,,,,,,,,,,546,2023-05-15_11h00.19.011,eb_02psyexp,2022.2.4,60.00572355575006,
248,0,248,0,,,,,,,,,,,,,,,,,,,,,,,,,,,,,,,,,,,,,,,,,,,,,,,,,,,,,,,,,,,526.7821363869589,526.7821363869589,526.7821363869589,526.7821363869589,526.7821363869589,526.7821363869589,l,1,0.32670108298771083,527.132109432132,528.1653682298493,,,,,,,,,,,,,546,2023-05-15_11h00.19.011,eb_02psyexp,2022.2.4,60.00572355575006,
249,0,249,0,,,,,,,,,,,,,,,,,,,,,,,,,,,,,,,,,,,,,,,,,,,,,,,,,,,,,,,,,,,528.1653682298493,528.1653682298493,528.1653682298493,528.1653682298493,528.1653682298493,528.1653682298493,s,1,0.35947089176625013,528.5486655732384,529.5819225598825,,,,,,,,,,,,,546,2023-05-15_11h00.19.011,eb_02psyexp,2022.2.4,60.00572355575006,
250,0,250,0,,,,,,,,,,,,,,,,,,,,,,,,,,,,,,,,,,,,,,,,,,,,,,,,,,,,,,,,,,,529.5819225598825,529.5819225598825,529.5819225598825,529.5819225598825,529.5819225598825,529.5819225598825,s,1,0.3989271721802652,529.9985457105795,531.0151408499805,,,,,,,,,,,,,546,2023-05-15_11h00.19.011,eb_02psyexp,2022.2.4,60.00572355575006,
251,0,251,0,,,,,,,,,,,,,,,,,,,,,,,,,,,,,,,,,,,,,,,,,,,,,,,,,,,,,,,,,,,531.0151408499805,531.0151408499805,531.0151408499805,531.0151408499805,531.0151408499805,531.0151408499805,s,1,0.4447086158907041,531.4817779157311,532.4983618869446,,,,,,,,,,,,,546,2023-05-15_11h00.19.011,eb_02psyexp,2022.2.4,60.00572355575006,
252,0,252,0,,,,,,,,,,,,,,,,,,,,,,,,,,,,,,,,,,,,,,,,,,,,,,,,,,,,,,,,,,,532.4983618869446,532.4983618869446,532.4983618869446,532.4983618869446,532.4983618869446,532.4983618869446,s,1,0.5054999087005854,533.031654793187,534.0482285015751,,,,,,,,,,,,,546,2023-05-15_11h00.19.011,eb_02psyexp,2022.2.4,60.00572355575006,
253,0,253,0,,,,,,,,,,,,,,,,,,,,,,,,,,,,,,,,,,,,,,,,,,,,,,,,,,,,,,,,,,,534.0482285015751,534.0482285015751,534.0482285015751,534.0482285015751,534.0482285015751,534.0482285015751,s,1,0.38760707702022046,534.4648954197764,535.4981255421881,,,,,,,,,,,,,546,2023-05-15_11h00.19.011,eb_02psyexp,2022.2.4,60.00572355575006,
254,0,254,0,,,,,,,,,,,,,,,,,,,,,,,,,,,,,,,,,,,,,,,,,,,,,,,,,,,,,,,,,,,535.4981255421881,535.4981255421881,535.4981255421881,535.4981255421881,535.4981255421881,535.4981255421881,l,1,0.5537247881293297,536.0814070085762,537.098030521418,,,,,,,,,,,,,546,2023-05-15_11h00.19.011,eb_02psyexp,2022.2.4,60.00572355575006,
255,0,255,0,,,,,,,,,,,,,,,,,,,,,,,,,,,,,,,,,,,,,,,,,,,,,,,,,,,,,,,,,,,537.098030521418,537.098030521418,537.098030521418,537.098030521418,537.098030521418,537.098030521418,l,1,0.6978488608729094,537.8146164243808,538.8309287350858,,,,,,,,,,,,,546,2023-05-15_11h00.19.011,eb_02psyexp,2022.2.4,60.00572355575006,
256,0,256,0,,,,,,,,,,,,,,,,,,,,,,,,,,,,,,,,,,,,,,,,,,,,,,,,,,,,,,,,,,,538.8309287350858,538.8309287350858,538.8309287350858,538.8309287350858,538.8309287350858,538.8309287350858,s,1,0.5649615740403533,539.4145017836709,540.4310993378749,,,,,,,,,,,,,546,2023-05-15_11h00.19.011,eb_02psyexp,2022.2.4,60.00572355575006,
257,0,257,0,,,,,,,,,,,,,,,,,,,,,,,,,,,,,,,,,,,,,,,,,,,,,,,,,,,,,,,,,,,540.4310993378749,540.4310993378749,540.4310993378749,540.4310993378749,540.4310993378749,540.4310993378749,l,1,0.44479947118088603,540.8977198021021,541.9143170544412,,,,,,,,,,,,,546,2023-05-15_11h00.19.011,eb_02psyexp,2022.2.4,60.00572355575006,
258,0,258,0,,,,,,,,,,,,,,,,,,,,,,,,,,,,,,,,,,,,,,,,,,,,,,,,,,,,,,,,,,,541.9143170544412,541.9143170544412,541.9143170544412,541.9143170544412,541.9143170544412,541.9143170544412,s,1,0.32958762731868774,542.264272290864,543.2808755801525,,,,,,,,,,,,,546,2023-05-15_11h00.19.011,eb_02psyexp,2022.2.4,60.00572355575006,
259,0,259,0,,,,,,,,,,,,,,,,,,,,,,,,,,,,,,,,,,,,,,,,,,,,,,,,,,,,,,,,,,,543.2808755801525,543.2808755801525,543.2808755801525,543.2808755801525,543.2808755801525,543.2808755801525,l,0,0.3230348728829995,543.630846210639,544.6474374260288,,,,,,,,,,,,,546,2023-05-15_11h00.19.011,eb_02psyexp,2022.2.4,60.00572355575006,
260,0,260,0,,,,,,,,,,,,,,,,,,,,,,,,,,,,,,,,,,,,,,,,,,,,,,,,,,,,,,,,,,,544.6474374260288,544.6474374260288,544.6474374260288,544.6474374260288,544.6474374260288,544.6474374260288,l,1,0.34848614630755037,545.0140729221748,546.0473223627778,,,,,,,,,,,,,546,2023-05-15_11h00.19.011,eb_02psyexp,2022.2.4,60.00572355575006,
261,0,261,0,,,,,,,,,,,,,,,,,,,,,,,,,,,,,,,,,,,,,,,,,,,,,,,,,,,,,,,,,,,546.0473223627778,546.0473223627778,546.0473223627778,546.0473223627778,546.0473223627778,546.0473223627778,l,1,0.36359832098241895,546.4306317798328,547.4472362764645,,,,,,,,,,,,,546,2023-05-15_11h00.19.011,eb_02psyexp,2022.2.4,60.00572355575006,
262,0,262,0,,,,,,,,,,,,,,,,,,,,,,,,,,,,,,,,,,,,,,,,,,,,,,,,,,,,,,,,,,,547.4472362764645,547.4472362764645,547.4472362764645,547.4472362764645,547.4472362764645,547.4472362764645,s,1,0.4437107160920277,547.9138516094536,548.9304416175,,,,,,,,,,,,,546,2023-05-15_11h00.19.011,eb_02psyexp,2022.2.4,60.00572355575006,
263,0,263,0,,,,,,,,,,,,,,,,,,,,,,,,,,,,,,,,,,,,,,,,,,,,,,,,,,,,,,,,,,,548.9304416175,548.9304416175,548.9304416175,548.9304416175,548.9304416175,548.9304416175,l,1,0.368517188122496,549.3304285777267,550.3469944382086,,,,,,,,,,,,,546,2023-05-15_11h00.19.011,eb_02psyexp,2022.2.4,60.00572355575006,
264,0,264,0,,,,,,,,,,,,,,,,,,,,,,,,,,,,,,,,,,,,,,,,,,,,,,,,,,,,,,,,,,,550.3469944382086,550.3469944382086,550.3469944382086,550.3469944382086,550.3469944382086,550.3469944382086,s,1,0.4079586780862883,550.7802794361487,551.8135469873669,,,,,,,,,,,,,546,2023-05-15_11h00.19.011,eb_02psyexp,2022.2.4,60.00572355575006,
265,0,265,0,,,,,,,,,,,,,,,,,,,,,,,,,,,,,,,,,,,,,,,,,,,,,,,,,,,,,,,,,,,551.8135469873669,551.8135469873669,551.8135469873669,551.8135469873669,551.8135469873669,551.8135469873669,l,1,0.7014121417887509,552.5468140556477,553.5634064784972,,,,,,,,,,,,,546,2023-05-15_11h00.19.011,eb_02psyexp,2022.2.4,60.00572355575006,
266,0,266,0,,,,,,,,,,,,,,,,,,,,,,,,,,,,,,,,,,,,,,,,,,,,,,,,,,,,,,,,,,,553.5634064784972,553.5634064784972,553.5634064784972,553.5634064784972,553.5634064784972,553.5634064784972,s,1,0.42354746616911143,554.013357851305,555.0299720069161,,,,,,,,,,,,,546,2023-05-15_11h00.19.011,eb_02psyexp,2022.2.4,60.00572355575006,
267,0,267,0,,,,,,,,,,,,,,,,,,,,,,,,,,,,,,,,,,,,,,,,,,,,,,,,,,,,,,,,,,,555.0299720069161,555.0299720069161,555.0299720069161,555.0299720069161,555.0299720069161,555.0299720069161,l,1,0.49302374687977135,555.5465608076192,556.5631948851515,,,,,,,,,,,,,546,2023-05-15_11h00.19.011,eb_02psyexp,2022.2.4,60.00572355575006,
268,0,268,0,,,,,,,,,,,,,,,,,,,,,,,,,,,,,,,,,,,,,,,,,,,,,,,,,,,,,,,,,,,556.5631948851515,556.5631948851515,556.5631948851515,556.5631948851515,556.5631948851515,556.5631948851515,s,1,0.4717651013052091,557.0631453825627,558.079720298294,,,,,,,,,,,,,546,2023-05-15_11h00.19.011,eb_02psyexp,2022.2.4,60.00572355575006,
269,0,269,0,,,,,,,,,,,,,,,,,,,,,,,,,,,,,,,,,,,,,,,,,,,,,,,,,,,,,,,,,,,558.079720298294,558.079720298294,558.079720298294,558.079720298294,558.079720298294,558.079720298294,l,1,0.371259450330399,558.479720539879,559.5130209921626,,,,,,,,,,,,,546,2023-05-15_11h00.19.011,eb_02psyexp,2022.2.4,60.00572355575006,
270,0,270,0,,,,,,,,,,,,,,,,,,,,,,,,,,,,,,,,,,,,,,,,,,,,,,,,,,,,,,,,,,,559.5130209921626,559.5130209921626,559.5130209921626,559.5130209921626,559.5130209921626,559.5130209921626,l,1,0.46600831230171025,559.9962586305337,561.0128513552481,,,,,,,,,,,,,546,2023-05-15_11h00.19.011,eb_02psyexp,2022.2.4,60.00572355575006,
271,0,271,0,,,,,,,,,,,,,,,,,,,,,,,,,,,,,,,,,,,,,,,,,,,,,,,,,,,,,,,,,,,561.0128513552481,561.0128513552481,561.0128513552481,561.0128513552481,561.0128513552481,561.0128513552481,l,1,0.5651725637726486,561.5961325196549,562.6127469772473,,,,,,,,,,,,,546,2023-05-15_11h00.19.011,eb_02psyexp,2022.2.4,60.00572355575006,
272,0,272,0,,,,,,,,,,,,,,,,,,,,,,,,,,,,,,,,,,,,,,,,,,,,,,,,,,,,,,,,,,,562.6127469772473,562.6127469772473,562.6127469772473,562.6127469772473,562.6127469772473,562.6127469772473,s,1,0.9172890107147396,563.5626612229971,564.579240666586,,,,,,,,,,,,,546,2023-05-15_11h00.19.011,eb_02psyexp,2022.2.4,60.00572355575006,
273,0,273,0,,,,,,,,,,,,,,,,,,,,,,,,,,,,,,,,,,,,,,,,,,,,,,,,,,,,,,,,,,,564.579240666586,564.579240666586,564.579240666586,564.579240666586,564.579240666586,564.579240666586,l,1,0.6148076632525772,565.2125206538476,566.2291088508209,,,,,,,,,,,,,546,2023-05-15_11h00.19.011,eb_02psyexp,2022.2.4,60.00572355575006,
274,0,274,0,,,,,,,,,,,,,,,,,,,,,,,,,,,,,,,,,,,,,,,,,,,,,,,,,,,,,,,,,,,566.2291088508209,566.2291088508209,566.2291088508209,566.2291088508209,566.2291088508209,566.2291088508209,s,1,0.9649412900907919,567.2123863328015,568.2289615503978,,,,,,,,,,,,,546,2023-05-15_11h00.19.011,eb_02psyexp,2022.2.4,60.00572355575006,
275,0,275,0,,,,,,,,,,,,,,,,,,,,,,,,,,,,,,,,,,,,,,,,,,,,,,,,,,,,,,,,,,,568.2289615503978,568.2289615503978,568.2289615503978,568.2289615503978,568.2289615503978,568.2289615503978,l,1,0.39710825379006565,568.6456058302429,569.6621955365408,,,,,,,,,,,,,546,2023-05-15_11h00.19.011,eb_02psyexp,2022.2.4,60.00572355575006,
276,0,276,0,,,,,,,,,,,,,,,,,,,,,,,,,,,,,,,,,,,,,,,,,,,,,,,,,,,,,,,,,,,569.6621955365408,569.6621955365408,569.6621955365408,569.6621955365408,569.6621955365408,569.6621955365408,s,1,0.4918697931570932,570.1788087866735,571.1954024168663,,,,,,,,,,,,,546,2023-05-15_11h00.19.011,eb_02psyexp,2022.2.4,60.00572355575006,
277,0,277,0,,,,,,,,,,,,,,,,,,,,,,,,,,,,,,,,,,,,,,,,,,,,,,,,,,,,,,,,,,,571.1954024168663,571.1954024168663,571.1954024168663,571.1954024168663,571.1954024168663,571.1954024168663,l,1,0.41467714542523026,571.6287031107349,572.7286165414844,,,,,,,,,,,,,546,2023-05-15_11h00.19.011,eb_02psyexp,2022.2.4,60.00572355575006,
278,0,278,0,,,,,,,,,,,,,,,,,,,,,,,,,,,,,,,,,,,,,,,,,,,,,,,,,,,,,,,,,,,572.7286165414844,572.7286165414844,572.7286165414844,572.7286165414844,572.7286165414844,572.7286165414844,l,1,0.6174614849733189,573.3785641110735,574.3951453656191,,,,,,,,,,,,,546,2023-05-15_11h00.19.011,eb_02psyexp,2022.2.4,60.00572355575006,
279,0,279,0,,,,,,,,,,,,,,,,,,,,,,,,,,,,,,,,,,,,,,,,,,,,,,,,,,,,,,,,,,,574.3951453656191,574.3951453656191,574.3951453656191,574.3951453656191,574.3951453656191,574.3951453656191,l,1,0.39895826228894293,574.8117836085148,575.8283998771803,,,,,,,,,,,,,546,2023-05-15_11h00.19.011,eb_02psyexp,2022.2.4,60.00572355575006,
280,0,280,0,,,,,,,,,,,,,,,,,,,,,,,,,,,,,,,,,,,,,,,,,,,,,,,,,,,,,,,,,,,575.8283998771803,575.8283998771803,575.8283998771803,575.8283998771803,575.8283998771803,575.8283998771803,s,1,0.4536924302810803,576.3116870181402,577.3282921185018,,,,,,,,,,,,,546,2023-05-15_11h00.19.011,eb_02psyexp,2022.2.4,60.00572355575006,
281,0,281,0,,,,,,,,,,,,,,,,,,,,,,,,,,,,,,,,,,,,,,,,,,,,,,,,,,,,,,,,,,,577.3282921185018,577.3282921185018,577.3282921185018,577.3282921185018,577.3282921185018,577.3282921185018,s,1,0.5767999371746555,577.928223056253,578.9448058201233,,,,,,,,,,,,,546,2023-05-15_11h00.19.011,eb_02psyexp,2022.2.4,60.00572355575006,
282,0,282,0,,,,,,,,,,,,,,,,,,,,,,,,,,,,,,,,,,,,,,,,,,,,,,,,,,,,,,,,,,,578.9448058201233,578.9448058201233,578.9448058201233,578.9448058201233,578.9448058201233,578.9448058201233,l,1,0.5123203996336088,579.4781264960766,580.4947174097179,,,,,,,,,,,,,546,2023-05-15_11h00.19.011,eb_02psyexp,2022.2.4,60.00572355575006,
283,0,283,0,,,,,,,,,,,,,,,,,,,,,,,,,,,,,,,,,,,,,,,,,,,,,,,,,,,,,,,,,,,580.4947174097179,580.4947174097179,580.4947174097179,580.4947174097179,580.4947174097179,580.4947174097179,s,1,0.7223864493425936,581.244632138405,582.2612502181437,,,,,,,,,,,,,546,2023-05-15_11h00.19.011,eb_02psyexp,2022.2.4,60.00572355575006,
284,0,284,0,,,,,,,,,,,,,,,,,,,,,,,,,,,,,,,,,,,,,,,,,,,,,,,,,,,,,,,,,,,582.2612502181437,582.2612502181437,582.2612502181437,582.2612502181437,582.2612502181437,582.2612502181437,l,1,0.47586838307324797,582.761189547251,583.7944489486981,,,,,,,,,,,,,546,2023-05-15_11h00.19.011,eb_02psyexp,2022.2.4,60.00572355575006,
285,0,285,0,,,,,,,,,,,,,,,,,,,,,,,,,,,,,,,,,,,,,,,,,,,,,,,,,,,,,,,,,,,583.7944489486981,583.7944489486981,583.7944489486981,583.7944489486981,583.7944489486981,583.7944489486981,s,1,0.5667065402958542,584.377721359604,585.3943222340895,,,,,,,,,,,,,546,2023-05-15_11h00.19.011,eb_02psyexp,2022.2.4,60.00572355575006,
286,0,286,0,,,,,,,,,,,,,,,,,,,,,,,,,,,,,,,,,,,,,,,,,,,,,,,,,,,,,,,,,,,585.3943222340895,585.3943222340895,585.3943222340895,585.3943222340895,585.3943222340895,585.3943222340895,s,1,0.7027970068156719,586.127577228588,587.1608595702564,,,,,,,,,,,,,546,2023-05-15_11h00.19.011,eb_02psyexp,2022.2.4,60.00572355575006,
287,0,287,0,,,,,,,,,,,,,,,,,,,,,,,,,,,,,,,,,,,,,,,,,,,,,,,,,,,,,,,,,,,587.1608595702564,587.1608595702564,587.1608595702564,587.1608595702564,587.1608595702564,587.1608595702564,s,1,0.45628377003595233,587.6441696514376,588.6607521134429,,,,,,,,,,,,,546,2023-05-15_11h00.19.011,eb_02psyexp,2022.2.4,60.00572355575006,
288,0,288,0,,,,,,,,,,,,,,,,,,,,,,,,,,,,,,,,,,,,,,,,,,,,,,,,,,,,,,,,,,,588.6607521134429,588.6607521134429,588.6607521134429,588.6607521134429,588.6607521134429,588.6607521134429,s,1,0.5164306237129495,589.1940371716628,590.2273001952562,,,,,,,,,,,,,546,2023-05-15_11h00.19.011,eb_02psyexp,2022.2.4,60.00572355575006,
289,0,289,0,,,,,,,,,,,,,,,,,,,,,,,,,,,,,,,,,,,,,,,,,,,,,,,,,,,,,,,,,,,590.2273001952562,590.2273001952562,590.2273001952562,590.2273001952562,590.2273001952562,590.2273001952562,l,1,0.5978663074783981,590.8439035448246,591.8604956658091,,,,,,,,,,,,,546,2023-05-15_11h00.19.011,eb_02psyexp,2022.2.4,60.00572355575006,
290,0,290,0,,,,,,,,,,,,,,,,,,,,,,,,,,,,,,,,,,,,,,,,,,,,,,,,,,,,,,,,,,,591.8604956658091,591.8604956658091,591.8604956658091,591.8604956658091,591.8604956658091,591.8604956658091,l,1,0.8757385292556137,592.7604258792708,593.7936946379486,,,,,,,,,,,,,546,2023-05-15_11h00.19.011,eb_02psyexp,2022.2.4,60.00572355575006,
291,0,291,0,,,,,,,,,,,,,,,,,,,,,,,,,,,,,,,,,,,,,,,,,,,,,,,,,,,,,,,,,,,593.7936946379486,593.7936946379486,593.7936946379486,593.7936946379486,593.7936946379486,593.7936946379486,s,1,0.7745187130058184,594.5936217724811,595.6102274765726,,,,,,,,,,,,,546,2023-05-15_11h00.19.011,eb_02psyexp,2022.2.4,60.00572355575006,
292,0,292,0,,,,,,,,,,,,,,,,,,,,,,,,,,,,,,,,,,,,,,,,,,,,,,,,,,,,,,,,,,,595.6102274765726,595.6102274765726,595.6102274765726,595.6102274765726,595.6102274765726,595.6102274765726,s,1,0.6140008313814178,596.2434805996018,597.2600841906387,,,,,,,,,,,,,546,2023-05-15_11h00.19.011,eb_02psyexp,2022.2.4,60.00572355575006,
293,0,293,0,,,,,,,,,,,,,,,,,,,,,,,,,,,,,,,,,,,,,,,,,,,,,,,,,,,,,,,,,,,597.2600841906387,597.2600841906387,597.2600841906387,597.2600841906387,597.2600841906387,597.2600841906387,l,1,0.556134115322493,597.8433680717135,598.876628378639,,,,,,,,,,,,,546,2023-05-15_11h00.19.011,eb_02psyexp,2022.2.4,60.00572355575006,
294,0,294,0,,,,,,,,,,,,,,,,,,,,,,,,,,,,,,,,,,,,,,,,,,,,,,,,,,,,,,,,,,,598.876628378639,598.876628378639,598.876628378639,598.876628378639,598.876628378639,598.876628378639,l,1,0.5076140314340591,599.4099255107576,600.4265058598248,,,,,,,,,,,,,546,2023-05-15_11h00.19.011,eb_02psyexp,2022.2.4,60.00572355575006,
295,0,295,0,,,,,,,,,,,,,,,,,,,,,,,,,,,,,,,,,,,,,,,,,,,,,,,,,,,,,,,,,,,600.4265058598248,600.4265058598248,600.4265058598248,600.4265058598248,600.4265058598248,600.4265058598248,s,1,0.501768801943399,600.959802991827,601.993069033837,,,,,,,,,,,,,546,2023-05-15_11h00.19.011,eb_02psyexp,2022.2.4,60.00572355575006,
296,0,296,0,,,,,,,,,,,,,,,,,,,,,,,,,,,,,,,,,,,,,,,,,,,,,,,,,,,,,,,,,,,601.993069033837,601.993069033837,601.993069033837,601.993069033837,601.993069033837,601.993069033837,l,1,0.46316251705866307,602.4763459120877,603.4929452773649,,,,,,,,,,,,,546,2023-05-15_11h00.19.011,eb_02psyexp,2022.2.4,60.00572355575006,
297,0,297,0,,,,,,,,,,,,,,,,,,,,,,,,,,,,,,,,,,,,,,,,,,,,,,,,,,,,,,,,,,,603.4929452773649,603.4929452773649,603.4929452773649,603.4929452773649,603.4929452773649,603.4929452773649,l,1,0.427313586929813,603.9429111386416,604.9594917895738,,,,,,,,,,,,,546,2023-05-15_11h00.19.011,eb_02psyexp,2022.2.4,60.00572355575006,
298,0,298,0,,,,,,,,,,,,,,,,,,,,,,,,,,,,,,,,,,,,,,,,,,,,,,,,,,,,,,,,,,,604.9594917895738,604.9594917895738,604.9594917895738,604.9594917895738,604.9594917895738,604.9594917895738,s,1,0.6727697623427957,605.6594475391321,606.6760487154825,,,,,,,,,,,,,546,2023-05-15_11h00.19.011,eb_02psyexp,2022.2.4,60.00572355575006,
299,0,299,0,,,,,,,,,,,,,,,,,,,,,,,,,,,,,,,,,,,,,,,,,,,,,,,,,,,,,,,,,,,606.6760487154825,606.6760487154825,606.6760487154825,606.6760487154825,606.6760487154825,606.6760487154825,l,1,0.3402041216613725,607.0426570455311,608.0759221819462,,,,,,,,,,,,,546,2023-05-15_11h00.19.011,eb_02psyexp,2022.2.4,60.00572355575006,
