trials.thisRepN,trials.thisTrialN,trials.thisN,trials.thisIndex,image_loop.thisRepN,image_loop.thisTrialN,image_loop.thisN,image_loop.thisIndex,break_loop.thisRepN,break_loop.thisTrialN,break_loop.thisN,break_loop.thisIndex,test_trials.thisRepN,test_trials.thisTrialN,test_trials.thisN,test_trials.thisIndex,tools,welcome_text.started,instructions_0_keypress.started,instructions_0_keypress.keys,instructions_0_keypress.rt,consent_image_0.started,consent0_key_resp.started,consent0_text.started,consent0_key_resp.keys,consent0_key_resp.rt,consent_image_1.started,consent1_key_resp.started,consent1_text.started,consent1_key_resp.keys,consent1_key_resp.rt,consent2_text.started,consent_image_2.started,consent2_key_resp.started,consent2_key_resp.keys,consent2_key_resp.rt,agree_button.started,disagree_button.started,consent_image_3.started,agree_button.numClicks,agree_button.timesOn,agree_button.timesOff,disagree_button.numClicks,disagree_button.timesOn,disagree_button.timesOff,instructions_text1.started,instructions1_key_resp.started,instr1_cnt_text.started,instructions1_key_resp.keys,instructions1_key_resp.rt,instructions_text2.started,instr2_cnt_text.started,instructions2_key_resp.started,instructions2_key_resp.keys,instructions2_key_resp.rt,instructions_text3.started,instructions3_key_resp.started,instr3_cnt_text.started,instructions3_key_resp.keys,instructions3_key_resp.rt,text_countdown.started,image.started,small_large_keyresp.started,task_question_text.started,smalleroption_text.started,largeroption_text.started,accuracy_score_text.started,small_large_keyresp.keys,small_large_keyresp.corr,small_large_keyresp.rt,fb_2.started,fb_2.stopped,break_text.started,break_key_resp.started,break_key_resp.keys,break_key_resp.rt,graph.started,debrief_text.started,debriefing_title.started,demo_scr_adv.started,demo_scr_adv_keypress.started,demo_scr_adv_keypress.keys,demo_scr_adv_keypress.rt,text_countdown_2.started,participant,date,expName,psychopyVersion,frameRate,
,,,,,,,,,,,,,,,,[ 0  5  7  2 10  8  1  3  9  6 11  4],11.1376890380634,11.1376890380634,return,10.712277096463367,,,,,,,,,,,,,,,,,,,,,,,,,,,,,,,,,,,,,,,,,,,,,,,,,,,,,,,,,,,,,,,,547,2023-05-15_10h48.42.920,eb_02psyexp,2022.2.4,99.94111459593861,
,,,,,,,,,,,,,,,,,,,,,21.864003105438314,21.864003105438314,21.864003105438314,space,7.065007194527425,,,,,,,,,,,,,,,,,,,,,,,,,,,,,,,,,,,,,,,,,,,,,,,,,,,,,,,,,,,547,2023-05-15_10h48.42.920,eb_02psyexp,2022.2.4,99.94111459593861,
,,,,,,,,,,,,,,,,,,,,,,,,,,28.94786471792031,28.94786471792031,28.94786471792031,space,7.581174015649594,,,,,,,,,,,,,,,,,,,,,,,,,,,,,,,,,,,,,,,,,,,,,,,,,,,,,,547,2023-05-15_10h48.42.920,eb_02psyexp,2022.2.4,99.94111459593861,
,,,,,,,,,,,,,,,,,,,,,,,,,,,,,,,36.542365764966235,36.542365764966235,36.542365764966235,space,5.082682335516438,,,,,,,,,,,,,,,,,,,,,,,,,,,,,,,,,,,,,,,,,,,,,,,,,547,2023-05-15_10h48.42.920,eb_02psyexp,2022.2.4,99.94111459593861,
,,,,,,,,,,,,,,,,,,,,,,,,,,,,,,,,,,,,41.63538113073446,41.63538113073446,41.63538113073446,1,[3.7918742102338],[3.791878737974912],0,,,45.427590087172575,47.418790398282,47.418790398282,space,2.0773100971709937,,,,,,,,,,,,,,,,,,,,,,,,,,,,,,,,,,,547,2023-05-15_10h48.42.920,eb_02psyexp,2022.2.4,99.94111459593861,
,,,,,,,,,,,,,,,,,,,,,,,,,,,,,,,,,,,,,,,,,,,,,,,,,,49.51035539840814,52.50212710222695,52.50212710222695,space,6.393139033112675,,,,,,,,,,,,,,,,,,,,,,,,,,,,,,547,2023-05-15_10h48.42.920,eb_02psyexp,2022.2.4,99.94111459593861,
,,,,,,,,,,,,,,,,,,,,,,,,,,,,,,,,,,,,,,,,,,,,,,,,,,,,,,,58.90590644371696,61.89767482713796,61.89767482713796,space,6.997543012956157,,,,,,,,,,,,,,,,,,,,,,,,,547,2023-05-15_10h48.42.920,eb_02psyexp,2022.2.4,99.94111459593861,
0,0,0,0,,,,,,,,,,,,,,,,,,,,,,,,,,,,,,,,,,,,,,,,,,,,,,,,,,,,,,,,,68.92183842964005,73.9544760301942,73.9544760301942,73.9544760301942,73.9544760301942,73.9544760301942,73.9544760301942,s,0,2.8997654375853017,76.8662397773005,77.89685561973602,,,,,,,,,,,,,547,2023-05-15_10h48.42.920,eb_02psyexp,2022.2.4,99.94111459593861,
1,0,1,0,,,,,,,,,,,,,,,,,,,,,,,,,,,,,,,,,,,,,,,,,,,,,,,,,,,,,,,,,,77.89685561973602,77.89685561973602,77.89685561973602,77.89685561973602,77.89685561973602,77.89685561973602,s,1,0.8294282949063927,78.7373739721952,79.75792690401431,,,,,,,,,,,,,547,2023-05-15_10h48.42.920,eb_02psyexp,2022.2.4,99.94111459593861,
2,0,2,0,,,,,,,,,,,,,,,,,,,,,,,,,,,,,,,,,,,,,,,,,,,,,,,,,,,,,,,,,,79.75792690401431,79.75792690401431,79.75792690401431,79.75792690401431,79.75792690401431,79.75792690401431,l,1,0.6883803250966594,80.45838250895031,81.48895307455678,,,,,,,,,,,,,547,2023-05-15_10h48.42.920,eb_02psyexp,2022.2.4,99.94111459593861,
3,0,3,0,,,,,,,,,,,,,,,,,,,,,,,,,,,,,,,,,,,,,,,,,,,,,,,,,,,,,,,,,,81.48895307455678,81.48895307455678,81.48895307455678,81.48895307455678,81.48895307455678,81.48895307455678,l,1,0.9253187348367646,82.42951887717936,83.45014968502801,,,,,,,,,,,,,547,2023-05-15_10h48.42.920,eb_02psyexp,2022.2.4,99.94111459593861,
4,0,4,0,,,,,,,,,,,,,,,,,,,,,,,,,,,,,,,,,,,,,,,,,,,,,,,,,,,,,,,,,,83.45014968502801,83.45014968502801,83.45014968502801,83.45014968502801,83.45014968502801,83.45014968502801,l,1,0.5641538784839213,84.03045526088681,85.06105933128856,,,,,,,,,,,,,547,2023-05-15_10h48.42.920,eb_02psyexp,2022.2.4,99.94111459593861,
5,0,5,0,,,,,,,,,,,,,,,,,,,,,,,,,,,,,,,,,,,,,,,,,,,,,,,,,,,,,,,,,,85.06105933128856,85.06105933128856,85.06105933128856,85.06105933128856,85.06105933128856,85.06105933128856,s,1,0.601201435434632,85.68144902540371,86.70204512099735,,,,,,,,,,,,,547,2023-05-15_10h48.42.920,eb_02psyexp,2022.2.4,99.94111459593861,
6,0,6,0,,,,,,,,,,,,,,,,,,,,,,,,,,,,,,,,,,,,,,,,,,,,,,,,,,,,,,,,,,86.70204512099735,86.70204512099735,86.70204512099735,86.70204512099735,86.70204512099735,86.70204512099735,s,0,1.3762598575558513,88.09288647794165,89.12348390778061,,,,,,,,,,,,,547,2023-05-15_10h48.42.920,eb_02psyexp,2022.2.4,99.94111459593861,
7,0,7,0,,,,,,,,,,,,,,,,,,,,,,,,,,,,,,,,,,,,,,,,,,,,,,,,,,,,,,,,,,89.12348390778061,89.12348390778061,89.12348390778061,89.12348390778061,89.12348390778061,89.12348390778061,s,0,0.8428401763085276,89.9840160968015,91.00459740217775,,,,,,,,,,,,,547,2023-05-15_10h48.42.920,eb_02psyexp,2022.2.4,99.94111459593861,
8,0,8,0,,,,,,,,,,,,,,,,,,,,,,,,,,,,,,,,,,,,,,,,,,,,,,,,,,,,,,,,,,91.00459740217775,91.00459740217775,91.00459740217775,91.00459740217775,91.00459740217775,91.00459740217775,l,1,3.096749220858328,94.11650917399675,95.14705438469537,,,,,,,,,,,,,547,2023-05-15_10h48.42.920,eb_02psyexp,2022.2.4,99.94111459593861,
9,0,9,0,,,,,,,,,,,,,,,,,,,,,,,,,,,,,,,,,,,,,,,,,,,,,,,,,,,,,,,,,,95.14705438469537,95.14705438469537,95.14705438469537,95.14705438469537,95.14705438469537,95.14705438469537,s,1,0.8823076250264421,96.04761334136128,97.06819645769428,,,,,,,,,,,,,547,2023-05-15_10h48.42.920,eb_02psyexp,2022.2.4,99.94111459593861,
10,0,10,0,,,,,,,,,,,,,,,,,,,,,,,,,,,,,,,,,,,,,,,,,,,,,,,,,,,,,,,,,,97.06819645769428,97.06819645769428,97.06819645769428,97.06819645769428,97.06819645769428,97.06819645769428,l,1,1.577216223347932,98.65917014342267,99.68977089365944,,,,,,,,,,,,,547,2023-05-15_10h48.42.920,eb_02psyexp,2022.2.4,99.94111459593861,
11,0,11,0,,,,,,,,,,,,,,,,,,,,,,,,,,,,,,,,,,,,,,,,,,,,,,,,,,,,,,,,,,99.68977089365944,99.68977089365944,99.68977089365944,99.68977089365944,99.68977089365944,99.68977089365944,s,0,2.9076321236789227,102.61149854608811,103.63214022037573,,,,,,,,,,,,,547,2023-05-15_10h48.42.920,eb_02psyexp,2022.2.4,99.94111459593861,
12,0,12,0,,,,,,,,,,,,,,,,,,,,,,,,,,,,,,,,,,,,,,,,,,,,,,,,,,,,,,,,,,103.63214022037573,103.63214022037573,103.63214022037573,103.63214022037573,103.63214022037573,103.63214022037573,s,1,2.6772678992711008,106.32370799756609,107.35432112333365,,,,,,,,,,,,,547,2023-05-15_10h48.42.920,eb_02psyexp,2022.2.4,99.94111459593861,
13,0,13,0,,,,,,,,,,,,,,,,,,,,,,,,,,,,,,,,,,,,,,,,,,,,,,,,,,,,,,,,,,107.35432112333365,107.35432112333365,107.35432112333365,107.35432112333365,107.35432112333365,107.35432112333365,l,1,1.1701132658636197,108.5350094990572,109.56562141748145,,,,,,,,,,,,,547,2023-05-15_10h48.42.920,eb_02psyexp,2022.2.4,99.94111459593861,
14,0,14,0,,,,,,,,,,,,,,,,,,,,,,,,,,,,,,,,,,,,,,,,,,,,,,,,,,,,,,,,,,109.56562141748145,109.56562141748145,109.56562141748145,109.56562141748145,109.56562141748145,109.56562141748145,s,1,0.9508868223056197,110.53620480548125,111.56682064791676,,,,,,,,,,,,,547,2023-05-15_10h48.42.920,eb_02psyexp,2022.2.4,99.94111459593861,
15,0,15,0,,,,,,,,,,,,,,,,,,,,,,,,,,,,,,,,,,,,,,,,,,,,,,,,,,,,,,,,,,111.56682064791676,111.56682064791676,111.56682064791676,111.56682064791676,111.56682064791676,111.56682064791676,l,1,0.821633146260865,112.4073160601547,113.42794475518167,,,,,,,,,,,,,547,2023-05-15_10h48.42.920,eb_02psyexp,2022.2.4,99.94111459593861,
16,0,16,0,,,,,,,,,,,,,,,,,,,,,,,,,,,,,,,,,,,,,,,,,,,,,,,,,,,,,,,,,,113.42794475518167,113.42794475518167,113.42794475518167,113.42794475518167,113.42794475518167,113.42794475518167,l,1,0.8645186884095892,114.30846150184516,115.33905108366162,,,,,,,,,,,,,547,2023-05-15_10h48.42.920,eb_02psyexp,2022.2.4,99.94111459593861,
17,0,17,0,,,,,,,,,,,,,,,,,,,,,,,,,,,,,,,,,,,,,,,,,,,,,,,,,,,,,,,,,,115.33905108366162,115.33905108366162,115.33905108366162,115.33905108366162,115.33905108366162,115.33905108366162,s,1,0.9534196041058749,116.30962269974407,117.34026299160905,,,,,,,,,,,,,547,2023-05-15_10h48.42.920,eb_02psyexp,2022.2.4,99.94111459593861,
18,0,18,0,,,,,,,,,,,,,,,,,,,,,,,,,,,,,,,,,,,,,,,,,,,,,,,,,,,,,,,,,,117.34026299160905,117.34026299160905,117.34026299160905,117.34026299160905,117.34026299160905,117.34026299160905,l,1,0.5842105770716444,117.94062496419065,118.97121726267505,,,,,,,,,,,,,547,2023-05-15_10h48.42.920,eb_02psyexp,2022.2.4,99.94111459593861,
19,0,19,0,,,,,,,,,,,,,,,,,,,,,,,,,,,,,,,,,,,,,,,,,,,,,,,,,,,,,,,,,,118.97121726267505,118.97121726267505,118.97121726267505,118.97121726267505,118.97121726267505,118.97121726267505,s,1,0.5852670347085223,119.57157953712158,,,,,,,,,,,,,,547,2023-05-15_10h48.42.920,eb_02psyexp,2022.2.4,99.94111459593861,
20,0,20,0,,,,,,,,,,,,,,,,,,,,,,,,,,,,,,,,,,,,,,,,,,,,,,,,,,,,,,,,,,120.59249981446192,120.59249981446192,120.59249981446192,120.59249981446192,120.59249981446192,120.59249981446192,s,1,0.9240198954939842,121.53273932239972,122.55332757020369,,,,,,,,,,,,,547,2023-05-15_10h48.42.920,eb_02psyexp,2022.2.4,99.94111459593861,
21,0,21,0,,,,,,,,,,,,,,,,,,,,,,,,,,,,,,,,,,,,,,,,,,,,,,,,,,,,,,,,,,122.55332757020369,122.55332757020369,122.55332757020369,122.55332757020369,122.55332757020369,122.55332757020369,l,1,0.8741904078051448,123.44388549448922,124.4645199244842,,,,,,,,,,,,,547,2023-05-15_10h48.42.920,eb_02psyexp,2022.2.4,99.94111459593861,
22,0,22,0,,,,,,,,,,,,,,,,,,,,,,,,,,,,,,,,,,,,,,,,,,,,,,,,,,,,,,,,,,124.4645199244842,124.4645199244842,124.4645199244842,124.4645199244842,124.4645199244842,124.4645199244842,l,1,0.7869967276928946,125.26495566801168,126.28556142281741,,,,,,,,,,,,,547,2023-05-15_10h48.42.920,eb_02psyexp,2022.2.4,99.94111459593861,
23,0,23,0,,,,,,,,,,,,,,,,,,,,,,,,,,,,,,,,,,,,,,,,,,,,,,,,,,,,,,,,,,126.28556142281741,126.28556142281741,126.28556142281741,126.28556142281741,126.28556142281741,126.28556142281741,s,1,1.0859709373908117,127.3862164869206,128.41684591234662,,,,,,,,,,,,,547,2023-05-15_10h48.42.920,eb_02psyexp,2022.2.4,99.94111459593861,
24,0,24,0,,,,,,,,,,,,,,,,,,,,,,,,,,,,,,,,,,,,,,,,,,,,,,,,,,,,,,,,,,128.41684591234662,128.41684591234662,128.41684591234662,128.41684591234662,128.41684591234662,128.41684591234662,s,1,0.8907481183996424,129.32738115009852,130.34802161692642,,,,,,,,,,,,,547,2023-05-15_10h48.42.920,eb_02psyexp,2022.2.4,99.94111459593861,
25,0,25,0,,,,,,,,,,,,,,,,,,,,,,,,,,,,,,,,,,,,,,,,,,,,,,,,,,,,,,,,,,130.34802161692642,130.34802161692642,130.34802161692642,130.34802161692642,130.34802161692642,130.34802161692642,l,1,0.9435465540736914,131.30855929956306,132.32913547358476,,,,,,,,,,,,,547,2023-05-15_10h48.42.920,eb_02psyexp,2022.2.4,99.94111459593861,
26,0,26,0,,,,,,,,,,,,,,,,,,,,,,,,,,,,,,,,,,,,,,,,,,,,,,,,,,,,,,,,,,132.32913547358476,132.32913547358476,132.32913547358476,132.32913547358476,132.32913547358476,132.32913547358476,s,1,1.226446307147853,133.56987954571377,134.6005011232337,,,,,,,,,,,,,547,2023-05-15_10h48.42.920,eb_02psyexp,2022.2.4,99.94111459593861,
27,0,27,0,,,,,,,,,,,,,,,,,,,,,,,,,,,,,,,,,,,,,,,,,,,,,,,,,,,,,,,,,,134.6005011232337,134.6005011232337,134.6005011232337,134.6005011232337,134.6005011232337,134.6005011232337,s,1,0.6270589922787622,135.24088261916768,136.2615378764458,,,,,,,,,,,,,547,2023-05-15_10h48.42.920,eb_02psyexp,2022.2.4,99.94111459593861,
28,0,28,0,,,,,,,,,,,,,,,,,,,,,,,,,,,,,,,,,,,,,,,,,,,,,,,,,,,,,,,,,,136.2615378764458,136.2615378764458,136.2615378764458,136.2615378764458,136.2615378764458,136.2615378764458,l,1,0.6860624568071216,136.96191077586263,137.98250324942637,,,,,,,,,,,,,547,2023-05-15_10h48.42.920,eb_02psyexp,2022.2.4,99.94111459593861,
29,0,29,0,,,,,,,,,,,,,,,,,,,,,,,,,,,,,,,,,,,,,,,,,,,,,,,,,,,,,,,,,,137.98250324942637,137.98250324942637,137.98250324942637,137.98250324942637,137.98250324942637,137.98250324942637,l,1,0.8201082249870524,138.81300245888997,139.83366616780404,,,,,,,,,,,,,547,2023-05-15_10h48.42.920,eb_02psyexp,2022.2.4,99.94111459593861,
30,0,30,0,,,,,,,,,,,,,,,,,,,,,,,,,,,,,,,,,,,,,,,,,,,,,,,,,,,,,,,,,,139.83366616780404,139.83366616780404,139.83366616780404,139.83366616780404,139.83366616780404,139.83366616780404,s,1,0.6169360146159306,140.4639922993956,,,,,,,,,,,,,,547,2023-05-15_10h48.42.920,eb_02psyexp,2022.2.4,99.94111459593861,
31,0,31,0,,,,,,,,,,,,,,,,,,,,,,,,,,,,,,,,,,,,,,,,,,,,,,,,,,,,,,,,,,141.49458972923458,141.49458972923458,141.49458972923458,141.49458972923458,141.49458972923458,141.49458972923458,s,1,2.3080286876065657,143.81598770653363,144.83656448405236,,,,,,,,,,,,,547,2023-05-15_10h48.42.920,eb_02psyexp,2022.2.4,99.94111459593861,
32,0,32,0,,,,,,,,,,,,,,,,,,,,,,,,,,,,,,,,,,,,,,,,,,,,,,,,,,,,,,,,,,144.83656448405236,144.83656448405236,144.83656448405236,144.83656448405236,144.83656448405236,144.83656448405236,l,1,0.7100899271899834,145.55700253369287,,,,,,,,,,,,,,547,2023-05-15_10h48.42.920,eb_02psyexp,2022.2.4,99.94111459593861,
33,0,33,0,,,,,,,,,,,,,,,,,,,,,,,,,,,,,,,,,,,,,,,,,,,,,,,,,,,,,,,,,,146.5879452743102,146.5879452743102,146.5879452743102,146.5879452743102,146.5879452743102,146.5879452743102,l,1,0.6627026678761467,147.26802724332083,148.28867676563095,,,,,,,,,,,,,547,2023-05-15_10h48.42.920,eb_02psyexp,2022.2.4,99.94111459593861,
34,0,34,0,,,,,,,,,,,,,,,,,,,,,,,,,,,,,,,,,,,,,,,,,,,,,,,,,,,,,,,,,,148.28867676563095,148.28867676563095,148.28867676563095,148.28867676563095,148.28867676563095,148.28867676563095,l,1,0.6899825185537338,148.98904906131793,150.01967939233873,,,,,,,,,,,,,547,2023-05-15_10h48.42.920,eb_02psyexp,2022.2.4,99.94111459593861,
35,0,35,0,,,,,,,,,,,,,,,,,,,,,,,,,,,,,,,,,,,,,,,,,,,,,,,,,,,,,,,,,,150.01967939233873,150.01967939233873,150.01967939233873,150.01967939233873,150.01967939233873,150.01967939233873,l,1,0.6549775472376496,150.69005764636677,151.71066370303743,,,,,,,,,,,,,547,2023-05-15_10h48.42.920,eb_02psyexp,2022.2.4,99.94111459593861,
36,0,36,0,,,,,,,,,,,,,,,,,,,,,,,,,,,,,,,,,,,,,,,,,,,,,,,,,,,,,,,,,,151.71066370303743,151.71066370303743,151.71066370303743,151.71066370303743,151.71066370303743,151.71066370303743,l,1,1.691111117368564,153.41169160616118,154.44226247363258,,,,,,,,,,,,,547,2023-05-15_10h48.42.920,eb_02psyexp,2022.2.4,99.94111459593861,
37,0,37,0,,,,,,,,,,,,,,,,,,,,,,,,,,,,,,,,,,,,,,,,,,,,,,,,,,,,,,,,,,154.44226247363258,154.44226247363258,154.44226247363258,154.44226247363258,154.44226247363258,154.44226247363258,s,1,0.6634071741718799,155.12270876963157,156.14328524540178,,,,,,,,,,,,,547,2023-05-15_10h48.42.920,eb_02psyexp,2022.2.4,99.94111459593861,
38,0,38,0,,,,,,,,,,,,,,,,,,,,,,,,,,,,,,,,,,,,,,,,,,,,,,,,,,,,,,,,,,156.14328524540178,156.14328524540178,156.14328524540178,156.14328524540178,156.14328524540178,156.14328524540178,l,1,0.6424165669595823,156.80370261264034,157.8342897797702,,,,,,,,,,,,,547,2023-05-15_10h48.42.920,eb_02psyexp,2022.2.4,99.94111459593861,
39,0,39,0,,,,,,,,,,,,,,,,,,,,,,,,,,,,,,,,,,,,,,,,,,,,,,,,,,,,,,,,,,157.8342897797702,157.8342897797702,157.8342897797702,157.8342897797702,157.8342897797702,157.8342897797702,l,1,0.7753796168835834,158.6247954245191,159.65537172521,,,,,,,,,,,,,547,2023-05-15_10h48.42.920,eb_02psyexp,2022.2.4,99.94111459593861,
40,0,40,0,,,,,,,,,,,,,,,,,,,,,,,,,,,,,,,,,,,,,,,,,,,,,,,,,,,,,,,,,,159.65537172521,159.65537172521,159.65537172521,159.65537172521,159.65537172521,159.65537172521,s,1,0.5783611217048019,160.2457483614562,161.27633552858606,,,,,,,,,,,,,547,2023-05-15_10h48.42.920,eb_02psyexp,2022.2.4,99.94111459593861,
41,0,41,0,,,,,,,,,,,,,,,,,,,,,,,,,,,,,,,,,,,,,,,,,,,,,,,,,,,,,,,,,,161.27633552858606,161.27633552858606,161.27633552858606,161.27633552858606,161.27633552858606,161.27633552858606,l,1,1.021441595396027,162.31696960842237,163.3375620819861,,,,,,,,,,,,,547,2023-05-15_10h48.42.920,eb_02psyexp,2022.2.4,99.94111459593861,
42,0,42,0,,,,,,,,,,,,,,,,,,,,,,,,,,,,,,,,,,,,,,,,,,,,,,,,,,,,,,,,,,163.3375620819861,163.3375620819861,163.3375620819861,163.3375620819861,163.3375620819861,163.3375620819861,l,1,0.5921717404853553,163.94791090022773,164.97855421050917,,,,,,,,,,,,,547,2023-05-15_10h48.42.920,eb_02psyexp,2022.2.4,99.94111459593861,
43,0,43,0,,,,,,,,,,,,,,,,,,,,,,,,,,,,,,,,,,,,,,,,,,,,,,,,,,,,,,,,,,164.97855421050917,164.97855421050917,164.97855421050917,164.97855421050917,164.97855421050917,164.97855421050917,s,1,1.0951566862640902,166.08918646117672,167.11983369546942,,,,,,,,,,,,,547,2023-05-15_10h48.42.920,eb_02psyexp,2022.2.4,99.94111459593861,
44,0,44,0,,,,,,,,,,,,,,,,,,,,,,,,,,,,,,,,,,,,,,,,,,,,,,,,,,,,,,,,,,167.11983369546942,167.11983369546942,167.11983369546942,167.11983369546942,167.11983369546942,167.11983369546942,l,1,0.8730017419438809,168.01036234083585,169.0309424387524,,,,,,,,,,,,,547,2023-05-15_10h48.42.920,eb_02psyexp,2022.2.4,99.94111459593861,
45,0,45,0,,,,,,,,,,,,,,,,,,,,,,,,,,,,,,,,,,,,,,,,,,,,,,,,,,,,,,,,,,169.0309424387524,169.0309424387524,169.0309424387524,169.0309424387524,169.0309424387524,169.0309424387524,l,1,0.9538286041934043,170.00153125997167,171.03214981907513,,,,,,,,,,,,,547,2023-05-15_10h48.42.920,eb_02psyexp,2022.2.4,99.94111459593861,
46,0,46,0,,,,,,,,,,,,,,,,,,,,,,,,,,,,,,,,,,,,,,,,,,,,,,,,,,,,,,,,,,171.03214981907513,171.03214981907513,171.03214981907513,171.03214981907513,171.03214981907513,171.03214981907513,s,1,0.5046469363151118,171.5524597655749,,,,,,,,,,,,,,547,2023-05-15_10h48.42.920,eb_02psyexp,2022.2.4,99.94111459593861,
47,0,47,0,,,,,,,,,,,,,,,,,,,,,,,,,,,,,,,,,,,,,,,,,,,,,,,,,,,,,,,,,,172.57303895801306,172.57303895801306,172.57303895801306,172.57303895801306,172.57303895801306,172.57303895801306,l,1,1.1157567058689892,173.70373696263414,174.73433318501338,,,,,,,,,,,,,547,2023-05-15_10h48.42.920,eb_02psyexp,2022.2.4,99.94111459593861,
48,0,48,0,,,,,,,,,,,,,,,,,,,,,,,,,,,,,,,,,,,,,,,,,,,,,,,,,,,,,,,,,,174.73433318501338,174.73433318501338,174.73433318501338,174.73433318501338,174.73433318501338,174.73433318501338,s,1,0.8184846005169675,175.56485201441683,176.58543513086624,,,,,,,,,,,,,547,2023-05-15_10h48.42.920,eb_02psyexp,2022.2.4,99.94111459593861,
49,0,49,0,,,,,,,,,,,,,,,,,,,,,,,,,,,,,,,,,,,,,,,,,,,,,,,,,,,,,,,,,,176.58543513086624,176.58543513086624,176.58543513086624,176.58543513086624,176.58543513086624,176.58543513086624,l,1,0.7114277044311166,177.31590862304438,178.34648039611056,,,,,,,,,,,,,547,2023-05-15_10h48.42.920,eb_02psyexp,2022.2.4,99.94111459593861,
50,0,50,0,,,,,,,,,,,,,,,,,,,,,,,,,,,,,,,,,,,,,,,,,,,,,,,,,,,,,,,,,,178.34648039611056,178.34648039611056,178.34648039611056,178.34648039611056,178.34648039611056,178.34648039611056,s,1,0.630369327031076,178.9869207518641,180.00755186157767,,,,,,,,,,,,,547,2023-05-15_10h48.42.920,eb_02psyexp,2022.2.4,99.94111459593861,
51,0,51,0,,,,,,,,,,,,,,,,,,,,,,,,,,,,,,,,,,,,,,,,,,,,,,,,,,,,,,,,,,180.00755186157767,180.00755186157767,180.00755186157767,180.00755186157767,180.00755186157767,180.00755186157767,s,1,0.6972775099566206,180.7179282080615,181.7384968358092,,,,,,,,,,,,,547,2023-05-15_10h48.42.920,eb_02psyexp,2022.2.4,99.94111459593861,
52,0,52,0,,,,,,,,,,,,,,,,,,,,,,,,,,,,,,,,,,,,,,,,,,,,,,,,,,,,,,,,,,181.7384968358092,181.7384968358092,181.7384968358092,181.7384968358092,181.7384968358092,181.7384968358092,l,1,0.6223447761731222,182.37889402767178,183.39948770857882,,,,,,,,,,,,,547,2023-05-15_10h48.42.920,eb_02psyexp,2022.2.4,99.94111459593861,
53,0,53,0,,,,,,,,,,,,,,,,,,,,,,,,,,,,,,,,,,,,,,,,,,,,,,,,,,,,,,,,,,183.39948770857882,183.39948770857882,183.39948770857882,183.39948770857882,183.39948770857882,183.39948770857882,s,1,0.6413797292625532,184.05989149282686,185.09048801707104,,,,,,,,,,,,,547,2023-05-15_10h48.42.920,eb_02psyexp,2022.2.4,99.94111459593861,
54,0,54,0,,,,,,,,,,,,,,,,,,,,,,,,,,,,,,,,,,,,,,,,,,,,,,,,,,,,,,,,,,185.09048801707104,185.09048801707104,185.09048801707104,185.09048801707104,185.09048801707104,185.09048801707104,s,1,0.6133742429083213,185.72088055452332,186.7514825121034,,,,,,,,,,,,,547,2023-05-15_10h48.42.920,eb_02psyexp,2022.2.4,99.94111459593861,
55,0,55,0,,,,,,,,,,,,,,,,,,,,,,,,,,,,,,,,,,,,,,,,,,,,,,,,,,,,,,,,,,186.7514825121034,186.7514825121034,186.7514825121034,186.7514825121034,186.7514825121034,186.7514825121034,s,1,1.7924281277228147,188.56258878018707,189.58320509956684,,,,,,,,,,,,,547,2023-05-15_10h48.42.920,eb_02psyexp,2022.2.4,99.94111459593861,
56,0,56,0,,,,,,,,,,,,,,,,,,,,,,,,,,,,,,,,,,,,,,,,,,,,,,,,,,,,,,,,,,189.58320509956684,189.58320509956684,189.58320509956684,189.58320509956684,189.58320509956684,189.58320509956684,l,1,0.8246799702756107,190.42365734791383,191.4542728884844,,,,,,,,,,,,,547,2023-05-15_10h48.42.920,eb_02psyexp,2022.2.4,99.94111459593861,
57,0,57,0,,,,,,,,,,,,,,,,,,,,,,,,,,,,,,,,,,,,,,,,,,,,,,,,,,,,,,,,,,191.4542728884844,191.4542728884844,191.4542728884844,191.4542728884844,191.4542728884844,191.4542728884844,s,1,0.6976249336730689,192.16471020760946,193.18534946721047,,,,,,,,,,,,,547,2023-05-15_10h48.42.920,eb_02psyexp,2022.2.4,99.94111459593861,
58,0,58,0,,,,,,,,,,,,,,,,,,,,,,,,,,,,,,,,,,,,,,,,,,,,,,,,,,,,,,,,,,193.18534946721047,193.18534946721047,193.18534946721047,193.18534946721047,193.18534946721047,193.18534946721047,l,1,0.36656670703087,193.56554173037875,194.5964533810038,,,,,,,,,,,,,547,2023-05-15_10h48.42.920,eb_02psyexp,2022.2.4,99.94111459593861,
59,0,59,0,,,,,,,,,,,,,,,,,,,,,,,,,,,,,,,,,,,,,,,,,,,,,,,,,,,,,,,,,,194.5964533810038,194.5964533810038,194.5964533810038,194.5964533810038,194.5964533810038,194.5964533810038,s,1,0.44344513420946896,195.0567637742497,196.08703460777178,,,,,,,,,,,,,547,2023-05-15_10h48.42.920,eb_02psyexp,2022.2.4,99.94111459593861,
60,0,60,0,,,,,,,,,,,,,,,,,,,,,,,,,,,,,,,,,,,,,,,,,,,,,,,,,,,,,,,,,,196.08703460777178,196.08703460777178,196.08703460777178,196.08703460777178,196.08703460777178,196.08703460777178,s,1,0.6089407426770777,196.70742128335405,197.72802009573206,,,,,,,,,,,,,547,2023-05-15_10h48.42.920,eb_02psyexp,2022.2.4,99.94111459593861,
61,0,61,0,,,,,,,,,,,,,,,,,,,,,,,,,,,,,,,,,,,,,,,,,,,,,,,,,,,,,,,,,,197.72802009573206,197.72802009573206,197.72802009573206,197.72802009573206,197.72802009573206,197.72802009573206,s,1,0.6559346979483962,198.39840559405275,199.41907896206249,,,,,,,,,,,,,547,2023-05-15_10h48.42.920,eb_02psyexp,2022.2.4,99.94111459593861,
62,0,62,0,,,,,,,,,,,,,,,,,,,,,,,,,,,,,,,,,,,,,,,,,,,,,,,,,,,,,,,,,,199.41907896206249,199.41907896206249,199.41907896206249,199.41907896206249,199.41907896206249,199.41907896206249,l,1,0.9399090192746371,200.3695993127767,201.40019795007538,,,,,,,,,,,,,547,2023-05-15_10h48.42.920,eb_02psyexp,2022.2.4,99.94111459593861,
63,0,63,0,,,,,,,,,,,,,,,,,,,,,,,,,,,,,,,,,,,,,,,,,,,,,,,,,,,,,,,,,,201.40019795007538,201.40019795007538,201.40019795007538,201.40019795007538,201.40019795007538,201.40019795007538,s,1,0.558773490251042,201.97053690394387,202.991194576025,,,,,,,,,,,,,547,2023-05-15_10h48.42.920,eb_02psyexp,2022.2.4,99.94111459593861,
64,0,64,0,,,,,,,,,,,,,,,,,,,,,,,,,,,,,,,,,,,,,,,,,,,,,,,,,,,,,,,,,,202.991194576025,202.991194576025,202.991194576025,202.991194576025,202.991194576025,202.991194576025,l,1,0.599792422610335,203.6015017395839,204.63212271337397,,,,,,,,,,,,,547,2023-05-15_10h48.42.920,eb_02psyexp,2022.2.4,99.94111459593861,
65,0,65,0,,,,,,,,,,,,,,,,,,,,,,,,,,,,,,,,,,,,,,,,,,,,,,,,,,,,,,,,,,204.63212271337397,204.63212271337397,204.63212271337397,204.63212271337397,204.63212271337397,204.63212271337397,s,1,0.5988874910399318,205.24248058686499,206.2631693490548,,,,,,,,,,,,,547,2023-05-15_10h48.42.920,eb_02psyexp,2022.2.4,99.94111459593861,
66,0,66,0,,,,,,,,,,,,,,,,,,,,,,,,,,,,,,,,,,,,,,,,,,,,,,,,,,,,,,,,,,206.2631693490548,206.2631693490548,206.2631693490548,206.2631693490548,206.2631693490548,206.2631693490548,l,1,0.6558272410184145,206.9335032318486,207.9641447311733,,,,,,,,,,,,,547,2023-05-15_10h48.42.920,eb_02psyexp,2022.2.4,99.94111459593861,
67,0,67,0,,,,,,,,,,,,,,,,,,,,,,,,,,,,,,,,,,,,,,,,,,,,,,,,,,,,,,,,,,207.9641447311733,207.9641447311733,207.9641447311733,207.9641447311733,207.9641447311733,207.9641447311733,s,1,0.61084719595965,208.59449078445323,209.6150847672252,,,,,,,,,,,,,547,2023-05-15_10h48.42.920,eb_02psyexp,2022.2.4,99.94111459593861,
68,0,68,0,,,,,,,,,,,,,,,,,,,,,,,,,,,,,,,,,,,,,,,,,,,,,,,,,,,,,,,,,,209.6150847672252,209.6150847672252,209.6150847672252,209.6150847672252,209.6150847672252,209.6150847672252,s,1,0.49593055655714124,210.12537949474063,211.1560095238965,,,,,,,,,,,,,547,2023-05-15_10h48.42.920,eb_02psyexp,2022.2.4,99.94111459593861,
69,0,69,0,,,,,,,,,,,,,,,,,,,,,,,,,,,,,,,,,,,,,,,,,,,,,,,,,,,,,,,,,,211.1560095238965,211.1560095238965,211.1560095238965,211.1560095238965,211.1560095238965,211.1560095238965,s,1,0.4269991061883047,211.59627197205555,212.61689402651973,,,,,,,,,,,,,547,2023-05-15_10h48.42.920,eb_02psyexp,2022.2.4,99.94111459593861,
70,0,70,0,,,,,,,,,,,,,,,,,,,,,,,,,,,,,,,,,,,,,,,,,,,,,,,,,,,,,,,,,,212.61689402651973,212.61689402651973,212.61689402651973,212.61689402651973,212.61689402651973,212.61689402651973,l,1,0.6381179915042594,213.26724335178733,214.28785665263422,,,,,,,,,,,,,547,2023-05-15_10h48.42.920,eb_02psyexp,2022.2.4,99.94111459593861,
71,0,71,0,,,,,,,,,,,,,,,,,,,,,,,,,,,,,,,,,,,,,,,,,,,,,,,,,,,,,,,,,,214.28785665263422,214.28785665263422,214.28785665263422,214.28785665263422,214.28785665263422,214.28785665263422,s,1,0.5671702161198482,214.86819331848528,215.8888358983677,,,,,,,,,,,,,547,2023-05-15_10h48.42.920,eb_02psyexp,2022.2.4,99.94111459593861,
72,0,72,0,,,,,,,,,,,,,,,,,,,,,,,,,,,,,,,,,,,,,,,,,,,,,,,,,,,,,,,,,,215.8888358983677,215.8888358983677,215.8888358983677,215.8888358983677,215.8888358983677,215.8888358983677,s,0,0.48519060760736465,216.38910122017842,217.40974078152794,,,,,,,,,,,,,547,2023-05-15_10h48.42.920,eb_02psyexp,2022.2.4,99.94111459593861,
73,0,73,0,,,,,,,,,,,,,,,,,,,,,,,,,,,,,,,,,,,,,,,,,,,,,,,,,,,,,,,,,,217.40974078152794,217.40974078152794,217.40974078152794,217.40974078152794,217.40974078152794,217.40974078152794,l,1,0.668314571143128,218.09012791595887,219.12069968890864,,,,,,,,,,,,,547,2023-05-15_10h48.42.920,eb_02psyexp,2022.2.4,99.94111459593861,
74,0,74,0,,,,,,,,,,,,,,,,,,,,,,,,,,,,,,,,,,,,,,,,,,,,,,,,,,,,,,,,,,219.12069968890864,219.12069968890864,219.12069968890864,219.12069968890864,219.12069968890864,219.12069968890864,s,1,0.6773530195932835,219.8111433951417,220.83177420299035,,,,,,,,,,,,,547,2023-05-15_10h48.42.920,eb_02psyexp,2022.2.4,99.94111459593861,
75,0,75,0,,,,,,,,,,,,,,,,,,,,,,,,,,,,,,,,,,,,,,,,,,,,,,,,,,,,,,,,,,220.83177420299035,220.83177420299035,220.83177420299035,220.83177420299035,220.83177420299035,220.83177420299035,l,1,0.6303113728063181,221.47210800740868,222.49303432158194,,,,,,,,,,,,,547,2023-05-15_10h48.42.920,eb_02psyexp,2022.2.4,99.94111459593861,
76,0,76,0,,,,,,,,,,,,,,,,,,,,,,,,,,,,,,,,,,,,,,,,,,,,,,,,,,,,,,,,,,222.49303432158194,222.49303432158194,222.49303432158194,222.49303432158194,222.49303432158194,222.49303432158194,l,1,0.8170441958354786,223.3232331952313,224.34380997286644,,,,,,,,,,,,,547,2023-05-15_10h48.42.920,eb_02psyexp,2022.2.4,99.94111459593861,
77,0,77,0,,,,,,,,,,,,,,,,,,,,,,,,,,,,,,,,,,,,,,,,,,,,,,,,,,,,,,,,,,224.34380997286644,224.34380997286644,224.34380997286644,224.34380997286644,224.34380997286644,224.34380997286644,l,1,0.686285822186619,225.04425139108207,226.06483420566656,,,,,,,,,,,,,547,2023-05-15_10h48.42.920,eb_02psyexp,2022.2.4,99.94111459593861,
78,0,78,0,,,,,,,,,,,,,,,,,,,,,,,,,,,,,,,,,,,,,,,,,,,,,,,,,,,,,,,,,,226.06483420566656,226.06483420566656,226.06483420566656,226.06483420566656,226.06483420566656,226.06483420566656,s,1,0.5652396150399,226.64521192247048,227.6658626521239,,,,,,,,,,,,,547,2023-05-15_10h48.42.920,eb_02psyexp,2022.2.4,99.94111459593861,
79,0,79,0,,,,,,,,,,,,,,,,,,,,,,,,,,,,,,,,,,,,,,,,,,,,,,,,,,,,,,,,,,227.6658626521239,227.6658626521239,227.6658626521239,227.6658626521239,227.6658626521239,227.6658626521239,l,1,0.9082548299338669,228.58634730661288,229.60695728717837,,,,,,,,,,,,,547,2023-05-15_10h48.42.920,eb_02psyexp,2022.2.4,99.94111459593861,
80,0,80,0,,,,,,,,,,,,,,,,,,,,,,,,,,,,,,,,,,,,,,,,,,,,,,,,,,,,,,,,,,229.60695728717837,229.60695728717837,229.60695728717837,229.60695728717837,229.60695728717837,229.60695728717837,s,1,0.5982662939932197,230.21729252231307,231.2379858121276,,,,,,,,,,,,,547,2023-05-15_10h48.42.920,eb_02psyexp,2022.2.4,99.94111459593861,
81,0,81,0,,,,,,,,,,,,,,,,,,,,,,,,,,,,,,,,,,,,,,,,,,,,,,,,,,,,,,,,,,231.2379858121276,231.2379858121276,231.2379858121276,231.2379858121276,231.2379858121276,231.2379858121276,l,1,0.4711623585317284,231.72824346099515,232.7488045427017,,,,,,,,,,,,,547,2023-05-15_10h48.42.920,eb_02psyexp,2022.2.4,99.94111459593861,
82,0,82,0,,,,,,,,,,,,,,,,,,,,,,,,,,,,,,,,,,,,,,,,,,,,,,,,,,,,,,,,,,232.7488045427017,232.7488045427017,232.7488045427017,232.7488045427017,232.7488045427017,232.7488045427017,s,1,0.5763399671996012,233.3391733309254,234.35976127686445,,,,,,,,,,,,,547,2023-05-15_10h48.42.920,eb_02psyexp,2022.2.4,99.94111459593861,
83,0,83,0,,,,,,,,,,,,,,,,,,,,,,,,,,,,,,,,,,,,,,,,,,,,,,,,,,,,,,,,,,234.35976127686445,234.35976127686445,234.35976127686445,234.35976127686445,234.35976127686445,234.35976127686445,l,1,0.5973800768842921,234.97014450537972,235.9907768224366,,,,,,,,,,,,,547,2023-05-15_10h48.42.920,eb_02psyexp,2022.2.4,99.94111459593861,
84,0,84,0,,,,,,,,,,,,,,,,,,,,,,,,,,,,,,,,,,,,,,,,,,,,,,,,,,,,,,,,,,235.9907768224366,235.9907768224366,235.9907768224366,235.9907768224366,235.9907768224366,235.9907768224366,s,0,0.6943960970966145,236.701166450046,237.7218235185137,,,,,,,,,,,,,547,2023-05-15_10h48.42.920,eb_02psyexp,2022.2.4,99.94111459593861,
85,0,85,0,,,,,,,,,,,,,,,,,,,,,,,,,,,,,,,,,,,,,,,,,,,,,,,,,,,,,,,,,,237.7218235185137,237.7218235185137,237.7218235185137,237.7218235185137,237.7218235185137,237.7218235185137,l,1,0.6033176711061969,238.34215525828768,239.3627803310519,,,,,,,,,,,,,547,2023-05-15_10h48.42.920,eb_02psyexp,2022.2.4,99.94111459593861,
86,0,86,0,,,,,,,,,,,,,,,,,,,,,,,,,,,,,,,,,,,,,,,,,,,,,,,,,,,,,,,,,,239.3627803310519,239.3627803310519,239.3627803310519,239.3627803310519,239.3627803310519,239.3627803310519,l,1,0.5863802393432707,239.96308766969014,240.98373930493835,,,,,,,,,,,,,547,2023-05-15_10h48.42.920,eb_02psyexp,2022.2.4,99.94111459593861,
87,0,87,0,,,,,,,,,,,,,,,,,,,,,,,,,,,,,,,,,,,,,,,,,,,,,,,,,,,,,,,,,,240.98373930493835,240.98373930493835,240.98373930493835,240.98373930493835,240.98373930493835,240.98373930493835,s,1,0.5814511094940826,241.58406777272467,242.6047185023781,,,,,,,,,,,,,547,2023-05-15_10h48.42.920,eb_02psyexp,2022.2.4,99.94111459593861,
88,0,88,0,,,,,,,,,,,,,,,,,,,,,,,,,,,,,,,,,,,,,,,,,,,,,,,,,,,,,,,,,,242.6047185023781,242.6047185023781,242.6047185023781,242.6047185023781,242.6047185023781,242.6047185023781,l,1,0.5764431981369853,243.19502299756277,244.21563146892004,,,,,,,,,,,,,547,2023-05-15_10h48.42.920,eb_02psyexp,2022.2.4,99.94111459593861,
89,0,89,0,,,,,,,,,,,,,,,,,,,,,,,,,,,,,,,,,,,,,,,,,,,,,,,,,,,,,,,,,,244.21563146892004,244.21563146892004,244.21563146892004,244.21563146892004,244.21563146892004,244.21563146892004,s,1,0.6616102905245498,244.89603369566612,245.9166886510793,,,,,,,,,,,,,547,2023-05-15_10h48.42.920,eb_02psyexp,2022.2.4,99.94111459593861,
90,0,90,0,,,,,,,,,,,,,,,,,,,,,,,,,,,,,,,,,,,,,,,,,,,,,,,,,,,,,,,,,,245.9166886510793,245.9166886510793,245.9166886510793,245.9166886510793,245.9166886510793,245.9166886510793,l,1,0.6955666522262618,246.62706046982203,247.64765264163725,,,,,,,,,,,,,547,2023-05-15_10h48.42.920,eb_02psyexp,2022.2.4,99.94111459593861,
91,0,91,0,,,,,,,,,,,,,,,,,,,,,,,,,,,,,,,,,,,,,,,,,,,,,,,,,,,,,,,,,,247.64765264163725,247.64765264163725,247.64765264163725,247.64765264163725,247.64765264163725,247.64765264163725,s,1,0.5245665971888229,248.18799000780564,249.20862534327898,,,,,,,,,,,,,547,2023-05-15_10h48.42.920,eb_02psyexp,2022.2.4,99.94111459593861,
92,0,92,0,,,,,,,,,,,,,,,,,,,,,,,,,,,,,,,,,,,,,,,,,,,,,,,,,,,,,,,,,,249.20862534327898,249.20862534327898,249.20862534327898,249.20862534327898,249.20862534327898,249.20862534327898,l,1,0.4356131603708491,249.6588628651807,250.67950061545707,,,,,,,,,,,,,547,2023-05-15_10h48.42.920,eb_02psyexp,2022.2.4,99.94111459593861,
93,0,93,0,,,,,,,,,,,,,,,,,,,,,,,,,,,,,,,,,,,,,,,,,,,,,,,,,,,,,,,,,,250.67950061545707,250.67950061545707,250.67950061545707,250.67950061545707,250.67950061545707,250.67950061545707,l,1,0.7727384726749733,251.4699377415236,252.4905262910761,,,,,,,,,,,,,547,2023-05-15_10h48.42.920,eb_02psyexp,2022.2.4,99.94111459593861,
94,0,94,0,,,,,,,,,,,,,,,,,,,,,,,,,,,,,,,,,,,,,,,,,,,,,,,,,,,,,,,,,,252.4905262910761,252.4905262910761,252.4905262910761,252.4905262910761,252.4905262910761,252.4905262910761,s,1,0.56174334383104,253.07090581895318,254.0915227419464,,,,,,,,,,,,,547,2023-05-15_10h48.42.920,eb_02psyexp,2022.2.4,99.94111459593861,
95,0,95,0,,,,,,,,,,,,,,,,,,,,,,,,,,,,,,,,,,,,,,,,,,,,,,,,,,,,,,,,,,254.0915227419464,254.0915227419464,254.0915227419464,254.0915227419464,254.0915227419464,254.0915227419464,l,1,0.5527314578648657,254.66183120955247,255.68248737230897,,,,,,,,,,,,,547,2023-05-15_10h48.42.920,eb_02psyexp,2022.2.4,99.94111459593861,
96,0,96,0,,,,,,,,,,,,,,,,,,,,,,,,,,,,,,,,,,,,,,,,,,,,,,,,,,,,,,,,,,255.68248737230897,255.68248737230897,255.68248737230897,255.68248737230897,255.68248737230897,255.68248737230897,l,1,0.6497867178404704,256.34283410781063,257.36348363012075,,,,,,,,,,,,,547,2023-05-15_10h48.42.920,eb_02psyexp,2022.2.4,99.94111459593861,
97,0,97,0,,,,,,,,,,,,,,,,,,,,,,,,,,,,,,,,,,,,,,,,,,,,,,,,,,,,,,,,,,257.36348363012075,257.36348363012075,257.36348363012075,257.36348363012075,257.36348363012075,257.36348363012075,l,1,0.6968072353629395,258.0738590710098,259.0944971231511,,,,,,,,,,,,,547,2023-05-15_10h48.42.920,eb_02psyexp,2022.2.4,99.94111459593861,
98,0,98,0,,,,,,,,,,,,,,,,,,,,,,,,,,,,,,,,,,,,,,,,,,,,,,,,,,,,,,,,,,259.0944971231511,259.0944971231511,259.0944971231511,259.0944971231511,259.0944971231511,259.0944971231511,l,1,0.6137850540690124,259.7248561558081,260.7554732055869,,,,,,,,,,,,,547,2023-05-15_10h48.42.920,eb_02psyexp,2022.2.4,99.94111459593861,
99,0,99,0,,,,,,,,,,,,,,,,,,,,,,,,,,,,,,,,,,,,,,,,,,,,,,,,,,,,,,,,,,260.7554732055869,260.7554732055869,260.7554732055869,260.7554732055869,260.7554732055869,260.7554732055869,s,1,0.7928220353787765,261.56592779024504,262.58656584238634,,,,,,,,,,,,,547,2023-05-15_10h48.42.920,eb_02psyexp,2022.2.4,99.94111459593861,
100,0,100,0,,,,,,,,,,,,,,,,,,,,,,,,,,,,,,,,,,,,,,,,,,,,,,,,,,,,,,,,,,262.58656584238634,262.58656584238634,262.58656584238634,262.58656584238634,262.58656584238634,262.58656584238634,l,1,0.6087569190422073,263.20690029882826,264.2275027332362,,,,,,,,,,,,,547,2023-05-15_10h48.42.920,eb_02psyexp,2022.2.4,99.94111459593861,
101,0,101,0,,,,,,,,,,,,,,,,,,,,,,,,,,,,,,,,,,,,,,,,,,,,,,,,,,,,,,,,,,264.2275027332362,264.2275027332362,264.2275027332362,264.2275027332362,264.2275027332362,264.2275027332362,s,1,0.6958174854516983,264.9379285823088,265.9585376572795,,,,,,,,,,,,,547,2023-05-15_10h48.42.920,eb_02psyexp,2022.2.4,99.94111459593861,
102,0,102,0,,,,,,,,,,,,,,,,,,,,,,,,,,,,,,,,,,,,,,,,,,,,,,,,,,,,,,,,,,265.9585376572795,265.9585376572795,265.9585376572795,265.9585376572795,265.9585376572795,265.9585376572795,l,1,0.7087956154718995,266.67894552240614,267.6995536918985,,,,,,,,,,,,,547,2023-05-15_10h48.42.920,eb_02psyexp,2022.2.4,99.94111459593861,
103,0,103,0,,,,,,,,,,,,,,,,,,,,,,,,,,,,,,,,,,,,,,,,,,,,,,,,,,,,,,,,,,267.6995536918985,267.6995536918985,267.6995536918985,267.6995536918985,267.6995536918985,267.6995536918985,s,1,0.5677983555942774,268.2799132980872,269.30050396057777,,,,,,,,,,,,,547,2023-05-15_10h48.42.920,eb_02psyexp,2022.2.4,99.94111459593861,
104,0,104,0,,,,,,,,,,,,,,,,,,,,,,,,,,,,,,,,,,,,,,,,,,,,,,,,,,,,,,,,,,269.30050396057777,269.30050396057777,269.30050396057777,269.30050396057777,269.30050396057777,269.30050396057777,l,1,0.6708585212472826,269.9909060121281,271.0115651934175,,,,,,,,,,,,,547,2023-05-15_10h48.42.920,eb_02psyexp,2022.2.4,99.94111459593861,
105,0,105,0,,,,,,,,,,,,,,,,,,,,,,,,,,,,,,,,,,,,,,,,,,,,,,,,,,,,,,,,,,271.0115651934175,271.0115651934175,271.0115651934175,271.0115651934175,271.0115651934175,271.0115651934175,s,1,0.8798219310119748,271.9020597303752,272.9326882502064,,,,,,,,,,,,,547,2023-05-15_10h48.42.920,eb_02psyexp,2022.2.4,99.94111459593861,
106,0,106,0,,,,,,,,,,,,,,,,,,,,,,,,,,,,,,,,,,,,,,,,,,,,,,,,,,,,,,,,,,272.9326882502064,272.9326882502064,272.9326882502064,272.9326882502064,272.9326882502064,272.9326882502064,s,1,1.486683231429197,274.43355545110535,275.4641761230305,,,,,,,,,,,,,547,2023-05-15_10h48.42.920,eb_02psyexp,2022.2.4,99.94111459593861,
107,0,107,0,,,,,,,,,,,,,,,,,,,,,,,,,,,,,,,,,,,,,,,,,,,,,,,,,,,,,,,,,,275.4641761230305,275.4641761230305,275.4641761230305,275.4641761230305,275.4641761230305,275.4641761230305,l,1,0.675212636240758,276.15455825277604,277.18522027751897,,,,,,,,,,,,,547,2023-05-15_10h48.42.920,eb_02psyexp,2022.2.4,99.94111459593861,
108,0,108,0,,,,,,,,,,,,,,,,,,,,,,,,,,,,,,,,,,,,,,,,,,,,,,,,,,,,,,,,,,277.18522027751897,277.18522027751897,277.18522027751897,277.18522027751897,277.18522027751897,277.18522027751897,s,1,0.817190590663813,278.01568115269765,279.0362932460848,,,,,,,,,,,,,547,2023-05-15_10h48.42.920,eb_02psyexp,2022.2.4,99.94111459593861,
109,0,109,0,,,,,,,,,,,,,,,,,,,,,,,,,,,,,,,,,,,,,,,,,,,,,,,,,,,,,,,,,,279.0362932460848,279.0362932460848,279.0362932460848,279.0362932460848,279.0362932460848,279.0362932460848,l,1,0.7421018029563129,279.79674568772316,280.82735126744956,,,,,,,,,,,,,547,2023-05-15_10h48.42.920,eb_02psyexp,2022.2.4,99.94111459593861,
110,0,110,0,,,,,,,,,,,,,,,,,,,,,,,,,,,,,,,,,,,,,,,,,,,,,,,,,,,,,,,,,,280.82735126744956,280.82735126744956,280.82735126744956,280.82735126744956,280.82735126744956,280.82735126744956,s,1,0.9270534383831546,281.7679122403497,282.7985271773068,,,,,,,,,,,,,547,2023-05-15_10h48.42.920,eb_02psyexp,2022.2.4,99.94111459593861,
111,0,111,0,,,,,,,,,,,,,,,,,,,,,,,,,,,,,,,,,,,,,,,,,,,,,,,,,,,,,,,,,,282.7985271773068,282.7985271773068,282.7985271773068,282.7985271773068,282.7985271773068,282.7985271773068,l,1,0.6598985273158178,283.4689223347232,284.48951873229817,,,,,,,,,,,,,547,2023-05-15_10h48.42.920,eb_02psyexp,2022.2.4,99.94111459593861,
112,0,112,0,,,,,,,,,,,,,,,,,,,,,,,,,,,,,,,,,,,,,,,,,,,,,,,,,,,,,,,,,,284.48951873229817,284.48951873229817,284.48951873229817,284.48951873229817,284.48951873229817,284.48951873229817,l,1,0.7129082544706762,285.21996234182734,286.2505652048858,,,,,,,,,,,,,547,2023-05-15_10h48.42.920,eb_02psyexp,2022.2.4,99.94111459593861,
113,0,113,0,,,,,,,,,,,,,,,,,,,,,,,,,,,,,,,,,,,,,,,,,,,,,,,,,,,,,,,,,,286.2505652048858,286.2505652048858,286.2505652048858,286.2505652048858,286.2505652048858,286.2505652048858,s,1,1.807854221202433,288.0716640537139,289.09231297229417,,,,,,,,,,,,,547,2023-05-15_10h48.42.920,eb_02psyexp,2022.2.4,99.94111459593861,
114,0,114,0,,,,,,,,,,,,,,,,,,,,,,,,,,,,,,,,,,,,,,,,,,,,,,,,,,,,,,,,,,289.09231297229417,289.09231297229417,289.09231297229417,289.09231297229417,289.09231297229417,289.09231297229417,s,1,0.5981482726056129,289.70261319342535,290.73323024320416,,,,,,,,,,,,,547,2023-05-15_10h48.42.920,eb_02psyexp,2022.2.4,99.94111459593861,
115,0,115,0,,,,,,,,,,,,,,,,,,,,,,,,,,,,,,,,,,,,,,,,,,,,,,,,,,,,,,,,,,290.73323024320416,290.73323024320416,290.73323024320416,290.73323024320416,290.73323024320416,290.73323024320416,s,1,0.5332132508046925,291.2835840358166,292.31418237125035,,,,,,,,,,,,,547,2023-05-15_10h48.42.920,eb_02psyexp,2022.2.4,99.94111459593861,
116,0,116,0,,,,,,,,,,,,,,,,,,,,,,,,,,,,,,,,,,,,,,,,,,,,,,,,,,,,,,,,,,292.31418237125035,292.31418237125035,292.31418237125035,292.31418237125035,292.31418237125035,292.31418237125035,l,1,0.552301932242699,292.8845346062444,293.90513945545536,,,,,,,,,,,,,547,2023-05-15_10h48.42.920,eb_02psyexp,2022.2.4,99.94111459593861,
117,0,117,0,,,,,,,,,,,,,,,,,,,,,,,,,,,,,,,,,,,,,,,,,,,,,,,,,,,,,,,,,,293.90513945545536,293.90513945545536,293.90513945545536,293.90513945545536,293.90513945545536,293.90513945545536,s,1,0.6483517462620512,294.56549192604143,,,,,,,,,,,,,,547,2023-05-15_10h48.42.920,eb_02psyexp,2022.2.4,99.94111459593861,
118,0,118,0,,,,,,,,,,,,,,,,,,,,,,,,,,,,,,,,,,,,,,,,,,,,,,,,,,,,,,,,,,295.5961116923718,295.5961116923718,295.5961116923718,295.5961116923718,295.5961116923718,295.5961116923718,s,1,0.5733655859949067,296.18678081640974,297.21706010156777,,,,,,,,,,,,,547,2023-05-15_10h48.42.920,eb_02psyexp,2022.2.4,99.94111459593861,
119,0,119,0,,,,,,,,,,,,,,,,,,,,,,,,,,,,,,,,,,,,,,,,,,,,,,,,,,,,,,,,,,297.21706010156777,297.21706010156777,297.21706010156777,297.21706010156777,297.21706010156777,297.21706010156777,l,1,0.6484471294097602,297.87747113010846,298.9080748986453,,,,,,,,,,,,,547,2023-05-15_10h48.42.920,eb_02psyexp,2022.2.4,99.94111459593861,
120,0,120,0,,,,,,,,,,,,,,,,,,,,,,,,,,,,,,,,,,,,,,,,,,,,,,,,,,,,,,,,,,298.9080748986453,298.9080748986453,298.9080748986453,298.9080748986453,298.9080748986453,298.9080748986453,s,1,0.5894566441420466,299.50842781586107,300.5393584826961,,,,,,,,,,,,,547,2023-05-15_10h48.42.920,eb_02psyexp,2022.2.4,99.94111459593861,
121,0,121,0,,,,,,,,,,,,,,,,,,,,,,,,,,,,,,,,,,,,,,,,,,,,,,,,,,,,,,,,,,300.5393584826961,300.5393584826961,300.5393584826961,300.5393584826961,300.5393584826961,300.5393584826961,l,1,0.6221573303919286,301.1797300177859,302.21001413243357,,,,,,,,,,,,,547,2023-05-15_10h48.42.920,eb_02psyexp,2022.2.4,99.94111459593861,
122,0,122,0,,,,,,,,,,,,,,,,,,,,,,,,,,,,,,,,,,,,,,,,,,,,,,,,,,,,,,,,,,302.21001413243357,302.21001413243357,302.21001413243357,302.21001413243357,302.21001413243357,302.21001413243357,l,1,0.6075081860180944,302.830400204286,303.8510599893052,,,,,,,,,,,,,547,2023-05-15_10h48.42.920,eb_02psyexp,2022.2.4,99.94111459593861,
123,0,123,0,,,,,,,,,,,,,,,,,,,,,,,,,,,,,,,,,,,,,,,,,,,,,,,,,,,,,,,,,,303.8510599893052,303.8510599893052,303.8510599893052,303.8510599893052,303.8510599893052,303.8510599893052,s,1,0.63053202140145,304.5013875818113,,,,,,,,,,,,,,547,2023-05-15_10h48.42.920,eb_02psyexp,2022.2.4,99.94111459593861,
124,0,124,0,,,,,,,,,,,,,,,,,,,,,,,,,,,,,,,,,,,,,,,,,,,,,,,,,,,,,,,,,,305.5320148942992,305.5320148942992,305.5320148942992,305.5320148942992,305.5320148942992,305.5320148942992,s,1,0.6135327115189284,306.16268995869905,307.1929665271891,,,,,,,,,,,,,547,2023-05-15_10h48.42.920,eb_02psyexp,2022.2.4,99.94111459593861,
125,0,125,0,,,,,,,,,,,,,,,,,,,,,,,,,,,,,,,,,,,,,,,,,,,,,,,,,,,,,,,,,,307.1929665271891,307.1929665271891,307.1929665271891,307.1929665271891,307.1929665271891,307.1929665271891,l,1,0.5606153488624841,307.7733258315129,308.80393050564453,,,,,,,,,,,,,547,2023-05-15_10h48.42.920,eb_02psyexp,2022.2.4,99.94111459593861,
126,0,126,0,,,,,,,,,,,,,,,,,,,,,,,,,,,,,,,,,,,,,,,,,,,,,,,,,,,,,,,,,,308.80393050564453,308.80393050564453,308.80393050564453,308.80393050564453,308.80393050564453,308.80393050564453,s,1,0.8446639241883531,309.66444518766366,310.68509772839025,,,,,,,,,,,,,547,2023-05-15_10h48.42.920,eb_02psyexp,2022.2.4,99.94111459593861,
127,0,127,0,,,,,,,,,,,,,,,,,,,,,,,,,,,,,,,,,,,,,,,,,,,,,,,,,,,,,,,,,,310.68509772839025,310.68509772839025,310.68509772839025,310.68509772839025,310.68509772839025,310.68509772839025,s,1,0.5794924369547516,311.2754025255563,312.30599029629957,,,,,,,,,,,,,547,2023-05-15_10h48.42.920,eb_02psyexp,2022.2.4,99.94111459593861,
128,0,128,0,,,,,,,,,,,,,,,,,,,,,,,,,,,,,,,,,,,,,,,,,,,,,,,,,,,,,,,,,,312.30599029629957,312.30599029629957,312.30599029629957,312.30599029629957,312.30599029629957,312.30599029629957,s,1,0.5506016390863806,312.8763488701079,313.90694720554166,,,,,,,,,,,,,547,2023-05-15_10h48.42.920,eb_02psyexp,2022.2.4,99.94111459593861,
129,0,129,0,,,,,,,,,,,,,,,,,,,,,,,,,,,,,,,,,,,,,,,,,,,,,,,,,,,,,,,,,,313.90694720554166,313.90694720554166,313.90694720554166,313.90694720554166,313.90694720554166,313.90694720554166,l,1,0.5576762835262343,314.4772988369223,315.5082430867478,,,,,,,,,,,,,547,2023-05-15_10h48.42.920,eb_02psyexp,2022.2.4,99.94111459593861,
130,0,130,0,,,,,,,,,,,,,,,,,,,,,,,,,,,,,,,,,,,,,,,,,,,,,,,,,,,,,,,,,,315.5082430867478,315.5082430867478,315.5082430867478,315.5082430867478,315.5082430867478,315.5082430867478,l,1,0.6204817884135991,316.13854778721,317.1688711417373,,,,,,,,,,,,,547,2023-05-15_10h48.42.920,eb_02psyexp,2022.2.4,99.94111459593861,
131,0,131,0,,,,,,,,,,,,,,,,,,,,,,,,,,,,,,,,,,,,,,,,,,,,,,,,,,,,,,,,,,317.1688711417373,317.1688711417373,317.1688711417373,317.1688711417373,317.1688711417373,317.1688711417373,s,1,0.5197434150613844,317.69921864394564,318.72983146784827,,,,,,,,,,,,,547,2023-05-15_10h48.42.920,eb_02psyexp,2022.2.4,99.94111459593861,
132,0,132,0,,,,,,,,,,,,,,,,,,,,,,,,,,,,,,,,,,,,,,,,,,,,,,,,,,,,,,,,,,318.72983146784827,318.72983146784827,318.72983146784827,318.72983146784827,318.72983146784827,318.72983146784827,l,1,0.7348007747204974,319.4802575221984,320.5108902679058,,,,,,,,,,,,,547,2023-05-15_10h48.42.920,eb_02psyexp,2022.2.4,99.94111459593861,
133,0,133,0,,,,,,,,,,,,,,,,,,,,,,,,,,,,,,,,,,,,,,,,,,,,,,,,,,,,,,,,,,320.5108902679058,320.5108902679058,320.5108902679058,320.5108902679058,320.5108902679058,320.5108902679058,s,1,0.5377493783598766,321.06120723544154,322.0918001375394,,,,,,,,,,,,,547,2023-05-15_10h48.42.920,eb_02psyexp,2022.2.4,99.94111459593861,
134,0,134,0,,,,,,,,,,,,,,,,,,,,,,,,,,,,,,,,,,,,,,,,,,,,,,,,,,,,,,,,,,322.0918001375394,322.0918001375394,322.0918001375394,322.0918001375394,322.0918001375394,322.0918001375394,l,1,0.6199529559817165,322.72217456426006,323.75277803104836,,,,,,,,,,,,,547,2023-05-15_10h48.42.920,eb_02psyexp,2022.2.4,99.94111459593861,
135,0,135,0,,,,,,,,,,,,,,,,,,,,,,,,,,,,,,,,,,,,,,,,,,,,,,,,,,,,,,,,,,323.75277803104836,323.75277803104836,323.75277803104836,323.75277803104836,323.75277803104836,323.75277803104836,s,1,0.5678988700965419,324.3331285818713,325.36377098655794,,,,,,,,,,,,,547,2023-05-15_10h48.42.920,eb_02psyexp,2022.2.4,99.94111459593861,
136,0,136,0,,,,,,,,,,,,,,,,,,,,,,,,,,,,,,,,,,,,,,,,,,,,,,,,,,,,,,,,,,325.36377098655794,325.36377098655794,325.36377098655794,325.36377098655794,325.36377098655794,325.36377098655794,l,1,0.6758863544091582,326.05416156805586,327.0747718504863,,,,,,,,,,,,,547,2023-05-15_10h48.42.920,eb_02psyexp,2022.2.4,99.94111459593861,
137,0,137,0,,,,,,,,,,,,,,,,,,,,,,,,,,,,,,,,,,,,,,,,,,,,,,,,,,,,,,,,,,327.0747718504863,327.0747718504863,327.0747718504863,327.0747718504863,327.0747718504863,327.0747718504863,l,1,1.6928959271172062,328.785792636103,329.8163737662835,,,,,,,,,,,,,547,2023-05-15_10h48.42.920,eb_02psyexp,2022.2.4,99.94111459593861,
138,0,138,0,,,,,,,,,,,,,,,,,,,,,,,,,,,,,,,,,,,,,,,,,,,,,,,,,,,,,,,,,,329.8163737662835,329.8163737662835,329.8163737662835,329.8163737662835,329.8163737662835,329.8163737662835,s,1,1.0793221964268014,330.9070217612898,331.93763247225434,,,,,,,,,,,,,547,2023-05-15_10h48.42.920,eb_02psyexp,2022.2.4,99.94111459593861,
139,0,139,0,,,,,,,,,,,,,,,,,,,,,,,,,,,,,,,,,,,,,,,,,,,,,,,,,,,,,,,,,,331.93763247225434,331.93763247225434,331.93763247225434,331.93763247225434,331.93763247225434,331.93763247225434,l,1,0.6141050097066909,332.568001164007,333.59863330598455,,,,,,,,,,,,,547,2023-05-15_10h48.42.920,eb_02psyexp,2022.2.4,99.94111459593861,
140,0,140,0,,,,,,,,,,,,,,,,,,,,,,,,,,,,,,,,,,,,,,,,,,,,,,,,,,,,,,,,,,333.59863330598455,333.59863330598455,333.59863330598455,333.59863330598455,333.59863330598455,333.59863330598455,l,1,0.6730936839012429,334.28901905799285,335.3096411123406,,,,,,,,,,,,,547,2023-05-15_10h48.42.920,eb_02psyexp,2022.2.4,99.94111459593861,
141,0,141,0,,,,,,,,,,,,,,,,,,,,,,,,,,,,,,,,,,,,,,,,,,,,,,,,,,,,,,,,,,335.3096411123406,335.3096411123406,335.3096411123406,335.3096411123406,335.3096411123406,335.3096411123406,l,1,0.8020938101690263,336.13010789756663,337.1607089495519,,,,,,,,,,,,,547,2023-05-15_10h48.42.920,eb_02psyexp,2022.2.4,99.94111459593861,
142,0,142,0,,,,,,,,,,,,,,,,,,,,,,,,,,,,,,,,,,,,,,,,,,,,,,,,,,,,,,,,,,337.1607089495519,337.1607089495519,337.1607089495519,337.1607089495519,337.1607089495519,337.1607089495519,s,1,0.5590342844370753,337.73104609234724,338.7616670661373,,,,,,,,,,,,,547,2023-05-15_10h48.42.920,eb_02psyexp,2022.2.4,99.94111459593861,
143,0,143,0,,,,,,,,,,,,,,,,,,,,,,,,,,,,,,,,,,,,,,,,,,,,,,,,,,,,,,,,,,338.7616670661373,338.7616670661373,338.7616670661373,338.7616670661373,338.7616670661373,338.7616670661373,l,1,0.6060608390253037,339.38202204799745,340.4126448328607,,,,,,,,,,,,,547,2023-05-15_10h48.42.920,eb_02psyexp,2022.2.4,99.94111459593861,
144,0,144,0,,,,,,,,,,,,,,,,,,,,,,,,,,,,,,,,,,,,,,,,,,,,,,,,,,,,,,,,,,340.4126448328607,340.4126448328607,340.4126448328607,340.4126448328607,340.4126448328607,340.4126448328607,s,1,0.6581339410040528,341.083050856716,342.10362974728923,,,,,,,,,,,,,547,2023-05-15_10h48.42.920,eb_02psyexp,2022.2.4,99.94111459593861,
145,0,145,0,,,,,,,,,,,,,,,,,,,,,,,,,,,,,,,,,,,,,,,,,,,,,,,,,,,,,,,,,,342.10362974728923,342.10362974728923,342.10362974728923,342.10362974728923,342.10362974728923,342.10362974728923,l,1,0.6231153865810484,342.7440133560449,343.77461410628166,,,,,,,,,,,,,547,2023-05-15_10h48.42.920,eb_02psyexp,2022.2.4,99.94111459593861,
146,0,146,0,,,,,,,,,,,,,,,,,,,,,,,,,,,,,,,,,,,,,,,,,,,,,,,,,,,,,,,,,,343.77461410628166,343.77461410628166,343.77461410628166,343.77461410628166,343.77461410628166,343.77461410628166,l,1,0.5761428623227403,344.36497836676426,345.38556450163014,,,,,,,,,,,,,547,2023-05-15_10h48.42.920,eb_02psyexp,2022.2.4,99.94111459593861,
147,0,147,0,,,,,,,,,,,,,,,,,,,,,,,,,,,,,,,,,,,,,,,,,,,,,,,,,,,,,,,,,,345.38556450163014,345.38556450163014,345.38556450163014,345.38556450163014,345.38556450163014,345.38556450163014,l,1,0.6292141659650952,346.0259399606148,347.05656214174815,,,,,,,,,,,,,547,2023-05-15_10h48.42.920,eb_02psyexp,2022.2.4,99.94111459593861,
148,0,148,0,,,,,,,,,,,,,,,,,,,,,,,,,,,,,,,,,,,,,,,,,,,,,,,,,,,,,,,,,,347.05656214174815,347.05656214174815,347.05656214174815,347.05656214174815,347.05656214174815,347.05656214174815,l,1,0.6622148861642927,347.7369583315449,348.7576021187706,,,,,,,,,,,,,547,2023-05-15_10h48.42.920,eb_02psyexp,2022.2.4,99.94111459593861,
149,0,149,0,,,,,,,,,,,,,,,,,,,,,,,,,,,,,,,,,,,,,,,,,,,,,,,,,,,,,,,,,,348.7576021187706,348.7576021187706,348.7576021187706,348.7576021187706,348.7576021187706,348.7576021187706,s,1,0.5691943890415132,349.3379671580624,350.3585022811312,,,,,,,,,,,,,547,2023-05-15_10h48.42.920,eb_02psyexp,2022.2.4,99.94111459593861,
150,0,150,0,,,,,,,,,,,,,,,,,,,,,,,,,,,,,,,,,,,,,,,,,,,,,,,,,,,,,,,,,,350.3585022811312,350.3585022811312,350.3585022811312,350.3585022811312,350.3585022811312,350.3585022811312,l,1,0.6242959025548771,350.99893177032936,352.0195287716342,,,,,,,,,,,,,547,2023-05-15_10h48.42.920,eb_02psyexp,2022.2.4,99.94111459593861,
151,0,151,0,,,,,,,,,,,,,,,,,,,,,,,,,,,,,,,,,,,,,,,,,,,,,,,,,,,,,,,,,,352.0195287716342,352.0195287716342,352.0195287716342,352.0195287716342,352.0195287716342,352.0195287716342,s,1,0.6593090238748118,352.6899197031744,353.7105456815334,,,,,,,,,,,,,547,2023-05-15_10h48.42.920,eb_02psyexp,2022.2.4,99.94111459593861,
152,0,152,0,,,,,,,,,,,,,,,,,,,,,,,,,,,,,,,,,,,,,,,,,,,,,,,,,,,,,,,,,,353.7105456815334,353.7105456815334,353.7105456815334,353.7105456815334,353.7105456815334,353.7105456815334,l,1,0.5522648053010926,354.28084026428405,355.30141975847073,,,,,,,,,,,,,547,2023-05-15_10h48.42.920,eb_02psyexp,2022.2.4,99.94111459593861,
153,0,153,0,,,,,,,,,,,,,,,,,,,,,,,,,,,,,,,,,,,,,,,,,,,,,,,,,,,,,,,,,,355.30141975847073,355.30141975847073,355.30141975847073,355.30141975847073,355.30141975847073,355.30141975847073,s,1,0.6564131223130971,355.97183030995075,356.99249522632454,,,,,,,,,,,,,547,2023-05-15_10h48.42.920,eb_02psyexp,2022.2.4,99.94111459593861,
154,0,154,0,,,,,,,,,,,,,,,,,,,,,,,,,,,,,,,,,,,,,,,,,,,,,,,,,,,,,,,,,,356.99249522632454,356.99249522632454,356.99249522632454,356.99249522632454,356.99249522632454,356.99249522632454,l,1,0.589367599808611,357.5927892838372,358.6233827896649,,,,,,,,,,,,,547,2023-05-15_10h48.42.920,eb_02psyexp,2022.2.4,99.94111459593861,
155,0,155,0,,,,,,,,,,,,,,,,,,,,,,,,,,,,,,,,,,,,,,,,,,,,,,,,,,,,,,,,,,358.6233827896649,358.6233827896649,358.6233827896649,358.6233827896649,358.6233827896649,358.6233827896649,s,1,0.654501537559554,359.29383378848433,360.31444316532,,,,,,,,,,,,,547,2023-05-15_10h48.42.920,eb_02psyexp,2022.2.4,99.94111459593861,
156,0,156,0,,,,,,,,,,,,,,,,,,,,,,,,,,,,,,,,,,,,,,,,,,,,,,,,,,,,,,,,,,360.31444316532,360.31444316532,360.31444316532,360.31444316532,360.31444316532,360.31444316532,l,1,0.6514501859201118,360.9848054216709,362.00539366935845,,,,,,,,,,,,,547,2023-05-15_10h48.42.920,eb_02psyexp,2022.2.4,99.94111459593861,
157,0,157,0,,,,,,,,,,,,,,,,,,,,,,,,,,,,,,,,,,,,,,,,,,,,,,,,,,,,,,,,,,362.00539366935845,362.00539366935845,362.00539366935845,362.00539366935845,362.00539366935845,362.00539366935845,s,1,0.6164681547088549,362.6357653795276,363.6563509106636,,,,,,,,,,,,,547,2023-05-15_10h48.42.920,eb_02psyexp,2022.2.4,99.94111459593861,
158,0,158,0,,,,,,,,,,,,,,,,,,,,,,,,,,,,,,,,,,,,,,,,,,,,,,,,,,,,,,,,,,363.6563509106636,363.6563509106636,363.6563509106636,363.6563509106636,363.6563509106636,363.6563509106636,l,1,0.5655212365090847,364.2367123278091,365.2573642648058,,,,,,,,,,,,,547,2023-05-15_10h48.42.920,eb_02psyexp,2022.2.4,99.94111459593861,
159,0,159,0,,,,,,,,,,,,,,,,,,,,,,,,,,,,,,,,,,,,,,,,,,,,,,,,,,,,,,,,,,365.2573642648058,365.2573642648058,365.2573642648058,365.2573642648058,365.2573642648058,365.2573642648058,l,1,0.5485273597296327,365.81764332659077,366.83828228432685,,,,,,,,,,,,,547,2023-05-15_10h48.42.920,eb_02psyexp,2022.2.4,99.94111459593861,
160,0,160,0,,,,,,,,,,,,,,,,,,,,,,,,,,,,,,,,,,,,,,,,,,,,,,,,,,,,,,,,,,366.83828228432685,366.83828228432685,366.83828228432685,366.83828228432685,366.83828228432685,366.83828228432685,l,1,0.6876308437203988,367.53866272990126,368.5595890440745,,,,,,,,,,,,,547,2023-05-15_10h48.42.920,eb_02psyexp,2022.2.4,99.94111459593861,
161,0,161,0,,,,,,,,,,,,,,,,,,,,,,,,,,,,,,,,,,,,,,,,,,,,,,,,,,,,,,,,,,368.5595890440745,368.5595890440745,368.5595890440745,368.5595890440745,368.5595890440745,368.5595890440745,l,1,0.4623336923541501,369.0398679971695,370.07015211181715,,,,,,,,,,,,,547,2023-05-15_10h48.42.920,eb_02psyexp,2022.2.4,99.94111459593861,
162,0,162,0,,,,,,,,,,,,,,,,,,,,,,,,,,,,,,,,,,,,,,,,,,,,,,,,,,,,,,,,,,370.07015211181715,370.07015211181715,370.07015211181715,370.07015211181715,370.07015211181715,370.07015211181715,s,1,0.607776224380359,370.69051765825134,371.7111025856575,,,,,,,,,,,,,547,2023-05-15_10h48.42.920,eb_02psyexp,2022.2.4,99.94111459593861,
163,0,163,0,,,,,,,,,,,,,,,,,,,,,,,,,,,,,,,,,,,,,,,,,,,,,,,,,,,,,,,,,,371.7111025856575,371.7111025856575,371.7111025856575,371.7111025856575,371.7111025856575,371.7111025856575,s,1,0.5658119134604931,372.2914643047843,373.3120763982879,,,,,,,,,,,,,547,2023-05-15_10h48.42.920,eb_02psyexp,2022.2.4,99.94111459593861,
164,0,164,0,,,,,,,,,,,,,,,,,,,,,,,,,,,,,,,,,,,,,,,,,,,,,,,,,,,,,,,,,,373.3120763982879,373.3120763982879,373.3120763982879,373.3120763982879,373.3120763982879,373.3120763982879,l,1,0.5888677444308996,373.9124015456764,374.9330891005229,,,,,,,,,,,,,547,2023-05-15_10h48.42.920,eb_02psyexp,2022.2.4,99.94111459593861,
165,0,165,0,,,,,,,,,,,,,,,,,,,,,,,,,,,,,,,,,,,,,,,,,,,,,,,,,,,,,,,,,,374.9330891005229,374.9330891005229,374.9330891005229,374.9330891005229,374.9330891005229,374.9330891005229,s,1,0.615858125849627,375.56339380098507,,,,,,,,,,,,,,547,2023-05-15_10h48.42.920,eb_02psyexp,2022.2.4,99.94111459593861,
166,0,166,0,,,,,,,,,,,,,,,,,,,,,,,,,,,,,,,,,,,,,,,,,,,,,,,,,,,,,,,,,,376.59402383014094,376.59402383014094,376.59402383014094,376.59402383014094,376.59402383014094,376.59402383014094,s,1,0.5869280881015584,377.1946752720978,378.2249418797437,,,,,,,,,,,,,547,2023-05-15_10h48.42.920,eb_02psyexp,2022.2.4,99.94111459593861,
167,0,167,0,,,,,,,,,,,,,,,,,,,,,,,,,,,,,,,,,,,,,,,,,,,,,,,,,,,,,,,,,,378.2249418797437,378.2249418797437,378.2249418797437,378.2249418797437,378.2249418797437,378.2249418797437,l,1,0.6280460256384686,378.8653481269721,379.88599131058436,,,,,,,,,,,,,547,2023-05-15_10h48.42.920,eb_02psyexp,2022.2.4,99.94111459593861,
168,0,168,0,,,,,,,,,,,,,,,,,,,,,,,,,,,,,,,,,,,,,,,,,,,,,,,,,,,,,,,,,,379.88599131058436,379.88599131058436,379.88599131058436,379.88599131058436,379.88599131058436,379.88599131058436,s,1,0.542975221760571,380.446272485191,381.47687987599056,,,,,,,,,,,,,547,2023-05-15_10h48.42.920,eb_02psyexp,2022.2.4,99.94111459593861,
169,0,169,0,,,,,,,,,,,,,,,,,,,,,,,,,,,,,,,,,,,,,,,,,,,,,,,,,,,,,,,,,,381.47687987599056,381.47687987599056,381.47687987599056,381.47687987599056,381.47687987599056,381.47687987599056,s,1,2.5201044217683375,384.0083550713025,385.03898268565536,,,,,,,,,,,,,547,2023-05-15_10h48.42.920,eb_02psyexp,2022.2.4,99.94111459593861,
170,0,170,0,,,,,,,,,,,,,,,,,,,,,,,,,,,,,,,,,,,,,,,,,,,,,,,,,,,,,,,,,,385.03898268565536,385.03898268565536,385.03898268565536,385.03898268565536,385.03898268565536,385.03898268565536,l,1,0.6460236154962331,385.6993677554419,386.71995238098316,,,,,,,,,,,,,547,2023-05-15_10h48.42.920,eb_02psyexp,2022.2.4,99.94111459593861,
171,0,171,0,,,,,,,,,,,,,,,,,,,,,,,,,,,,,,,,,,,,,,,,,,,,,,,,,,,,,,,,,,386.71995238098316,386.71995238098316,386.71995238098316,386.71995238098316,386.71995238098316,386.71995238098316,l,1,1.188042258610949,387.920685985242,388.9512668135576,,,,,,,,,,,,,547,2023-05-15_10h48.42.920,eb_02psyexp,2022.2.4,99.94111459593861,
172,0,172,0,,,,,,,,,,,,,,,,,,,,,,,,,,,,,,,,,,,,,,,,,,,,,,,,,,,,,,,,,,388.9512668135576,388.9512668135576,388.9512668135576,388.9512668135576,388.9512668135576,388.9512668135576,s,1,0.8607821484329179,389.8318040857557,390.8523896167753,,,,,,,,,,,,,547,2023-05-15_10h48.42.920,eb_02psyexp,2022.2.4,99.94111459593861,
173,0,173,0,,,,,,,,,,,,,,,,,,,,,,,,,,,,,,,,,,,,,,,,,,,,,,,,,,,,,,,,,,390.8523896167753,390.8523896167753,390.8523896167753,390.8523896167753,390.8523896167753,390.8523896167753,l,1,0.9356231213314459,391.80296731810085,392.8335644460749,,,,,,,,,,,,,547,2023-05-15_10h48.42.920,eb_02psyexp,2022.2.4,99.94111459593861,
174,0,174,0,,,,,,,,,,,,,,,,,,,,,,,,,,,,,,,,,,,,,,,,,,,,,,,,,,,,,,,,,,392.8335644460749,392.8335644460749,392.8335644460749,392.8335644460749,392.8335644460749,392.8335644460749,l,1,1.010548007208854,393.85420793143567,394.8847957022954,,,,,,,,,,,,,547,2023-05-15_10h48.42.920,eb_02psyexp,2022.2.4,99.94111459593861,
175,0,175,0,,,,,,,,,,,,,,,,,,,,,,,,,,,,,,,,,,,,,,,,,,,,,,,,,,,,,,,,,,394.8847957022954,394.8847957022954,394.8847957022954,394.8847957022954,394.8847957022954,394.8847957022954,l,1,1.0712737996364012,395.9754237753805,397.00605380453635,,,,,,,,,,,,,547,2023-05-15_10h48.42.920,eb_02psyexp,2022.2.4,99.94111459593861,
176,0,176,0,,,,,,,,,,,,,,,,,,,,,,,,,,,,,,,,,,,,,,,,,,,,,,,,,,,,,,,,,,397.00605380453635,397.00605380453635,397.00605380453635,397.00605380453635,397.00605380453635,397.00605380453635,s,1,0.5500202855328098,397.5663515806664,398.5869449598249,,,,,,,,,,,,,547,2023-05-15_10h48.42.920,eb_02psyexp,2022.2.4,99.94111459593861,
177,0,177,0,,,,,,,,,,,,,,,,,,,,,,,,,,,,,,,,,,,,,,,,,,,,,,,,,,,,,,,,,,398.5869449598249,398.5869449598249,398.5869449598249,398.5869449598249,398.5869449598249,398.5869449598249,l,1,0.6491724631050602,399.24734331073705,400.27796036051586,,,,,,,,,,,,,547,2023-05-15_10h48.42.920,eb_02psyexp,2022.2.4,99.94111459593861,
178,0,178,0,,,,,,,,,,,,,,,,,,,,,,,,,,,,,,,,,,,,,,,,,,,,,,,,,,,,,,,,,,400.27796036051586,400.27796036051586,400.27796036051586,400.27796036051586,400.27796036051586,400.27796036051586,l,1,0.8061327988980338,401.0984325790778,402.11906278319657,,,,,,,,,,,,,547,2023-05-15_10h48.42.920,eb_02psyexp,2022.2.4,99.94111459593861,
179,0,179,0,,,,,,,,,,,,,,,,,,,,,,,,,,,,,,,,,,,,,,,,,,,,,,,,,,,,,,,,,,402.11906278319657,402.11906278319657,402.11906278319657,402.11906278319657,402.11906278319657,402.11906278319657,l,1,1.044036207254976,403.17967870412394,404.2102752283681,,,,,,,,,,,,,547,2023-05-15_10h48.42.920,eb_02psyexp,2022.2.4,99.94111459593861,
180,0,180,0,,,,,,,,,,,,,,,,,,,,,,,,,,,,,,,,,,,,,,,,,,,,,,,,,,,,,,,,,,404.2102752283681,404.2102752283681,404.2102752283681,404.2102752283681,404.2102752283681,404.2102752283681,s,1,0.5368269397877157,404.7605982328532,405.7812033838127,,,,,,,,,,,,,547,2023-05-15_10h48.42.920,eb_02psyexp,2022.2.4,99.94111459593861,
181,0,181,0,,,,,,,,,,,,,,,,,,,,,,,,,,,,,,,,,,,,,,,,,,,,,,,,,,,,,,,,,,405.7812033838127,405.7812033838127,405.7812033838127,405.7812033838127,405.7812033838127,405.7812033838127,l,1,0.629917465033941,406.4215743151726,407.45218593173195,,,,,,,,,,,,,547,2023-05-15_10h48.42.920,eb_02psyexp,2022.2.4,99.94111459593861,
182,0,182,0,,,,,,,,,,,,,,,,,,,,,,,,,,,,,,,,,,,,,,,,,,,,,,,,,,,,,,,,,,407.45218593173195,407.45218593173195,407.45218593173195,407.45218593173195,407.45218593173195,407.45218593173195,s,1,0.534925919608213,408.0025038047461,409.02314396982547,,,,,,,,,,,,,547,2023-05-15_10h48.42.920,eb_02psyexp,2022.2.4,99.94111459593861,
183,0,183,0,,,,,,,,,,,,,,,,,,,,,,,,,,,,,,,,,,,,,,,,,,,,,,,,,,,,,,,,,,409.02314396982547,409.02314396982547,409.02314396982547,409.02314396982547,409.02314396982547,409.02314396982547,s,1,0.5799980274168774,409.61345933156554,410.6440422728192,,,,,,,,,,,,,547,2023-05-15_10h48.42.920,eb_02psyexp,2022.2.4,99.94111459593861,
184,0,184,0,,,,,,,,,,,,,,,,,,,,,,,,,,,,,,,,,,,,,,,,,,,,,,,,,,,,,,,,,,410.6440422728192,410.6440422728192,410.6440422728192,410.6440422728192,410.6440422728192,410.6440422728192,l,1,0.6711428592680022,411.3344717923319,412.35508116916753,,,,,,,,,,,,,547,2023-05-15_10h48.42.920,eb_02psyexp,2022.2.4,99.94111459593861,
185,0,185,0,,,,,,,,,,,,,,,,,,,,,,,,,,,,,,,,,,,,,,,,,,,,,,,,,,,,,,,,,,412.35508116916753,412.35508116916753,412.35508116916753,412.35508116916753,412.35508116916753,412.35508116916753,l,1,0.8321053587133065,413.2055682565551,414.236144557246,,,,,,,,,,,,,547,2023-05-15_10h48.42.920,eb_02psyexp,2022.2.4,99.94111459593861,
186,0,186,0,,,,,,,,,,,,,,,,,,,,,,,,,,,,,,,,,,,,,,,,,,,,,,,,,,,,,,,,,,414.236144557246,414.236144557246,414.236144557246,414.236144557246,414.236144557246,414.236144557246,s,1,0.5110656715696678,414.76647666527424,415.7970888855634,,,,,,,,,,,,,547,2023-05-15_10h48.42.920,eb_02psyexp,2022.2.4,99.94111459593861,
187,0,187,0,,,,,,,,,,,,,,,,,,,,,,,,,,,,,,,,,,,,,,,,,,,,,,,,,,,,,,,,,,415.7970888855634,415.7970888855634,415.7970888855634,415.7970888855634,415.7970888855634,415.7970888855634,l,1,0.7101385241840035,416.5175263314741,417.54810051922686,,,,,,,,,,,,,547,2023-05-15_10h48.42.920,eb_02psyexp,2022.2.4,99.94111459593861,
188,0,188,0,,,,,,,,,,,,,,,,,,,,,,,,,,,,,,,,,,,,,,,,,,,,,,,,,,,,,,,,,,417.54810051922686,417.54810051922686,417.54810051922686,417.54810051922686,417.54810051922686,417.54810051922686,s,1,0.5741066156188026,418.1384647798259,419.1590970969992,,,,,,,,,,,,,547,2023-05-15_10h48.42.920,eb_02psyexp,2022.2.4,99.94111459593861,
189,0,189,0,,,,,,,,,,,,,,,,,,,,,,,,,,,,,,,,,,,,,,,,,,,,,,,,,,,,,,,,,,419.1590970969992,419.1590970969992,419.1590970969992,419.1590970969992,419.1590970969992,419.1590970969992,s,1,0.7710961337434128,419.9495318081463,420.98013919894584,,,,,,,,,,,,,547,2023-05-15_10h48.42.920,eb_02psyexp,2022.2.4,99.94111459593861,
190,0,190,0,,,,,,,,,,,,,,,,,,,,,,,,,,,,,,,,,,,,,,,,,,,,,,,,,,,,,,,,,,420.98013919894584,420.98013919894584,420.98013919894584,420.98013919894584,420.98013919894584,420.98013919894584,l,1,0.9100885386578739,421.9006618858548,422.931303686928,,,,,,,,,,,,,547,2023-05-15_10h48.42.920,eb_02psyexp,2022.2.4,99.94111459593861,
191,0,191,0,,,,,,,,,,,,,,,,,,,,,,,,,,,,,,,,,,,,,,,,,,,,,,,,,,,,,,,,,,422.931303686928,422.931303686928,422.931303686928,422.931303686928,422.931303686928,422.931303686928,s,1,0.5428976475959644,423.4916120277485,,,,,,,,,,,,,,547,2023-05-15_10h48.42.920,eb_02psyexp,2022.2.4,99.94111459593861,
192,0,192,0,,,,,,,,,,,,,,,,,,,,,,,,,,,,,,,,,,,,,,,,,,,,,,,,,,,,,,,,,,424.5125377381919,424.5125377381919,424.5125377381919,424.5125377381919,424.5125377381919,424.5125377381919,s,1,0.5776955533074215,425.102880265913,426.12313648406416,,,,,,,,,,,,,547,2023-05-15_10h48.42.920,eb_02psyexp,2022.2.4,99.94111459593861,
193,0,193,0,,,,,,,,,,,,,,,,,,,,,,,,,,,,,,,,,,,,,,,,,,,,,,,,,,,,,,,,,,426.12313648406416,426.12313648406416,426.12313648406416,426.12313648406416,426.12313648406416,426.12313648406416,l,1,0.5750688976841047,426.7135067816125,427.73410800867714,,,,,,,,,,,,,547,2023-05-15_10h48.42.920,eb_02psyexp,2022.2.4,99.94111459593861,
194,0,194,0,,,,,,,,,,,,,,,,,,,,,,,,,,,,,,,,,,,,,,,,,,,,,,,,,,,,,,,,,,427.73410800867714,427.73410800867714,427.73410800867714,427.73410800867714,427.73410800867714,427.73410800867714,s,1,0.5321438137907535,428.28446149942465,429.305080233491,,,,,,,,,,,,,547,2023-05-15_10h48.42.920,eb_02psyexp,2022.2.4,99.94111459593861,
195,0,195,0,,,,,,,,,,,,,,,,,,,,,,,,,,,,,,,,,,,,,,,,,,,,,,,,,,,,,,,,,,429.305080233491,429.305080233491,429.305080233491,429.305080233491,429.305080233491,429.305080233491,l,1,0.5451642021071166,429.8653928000713,430.88601968390867,,,,,,,,,,,,,547,2023-05-15_10h48.42.920,eb_02psyexp,2022.2.4,99.94111459593861,
196,0,196,0,,,,,,,,,,,,,,,,,,,,,,,,,,,,,,,,,,,,,,,,,,,,,,,,,,,,,,,,,,430.88601968390867,430.88601968390867,430.88601968390867,430.88601968390867,430.88601968390867,430.88601968390867,l,1,0.612233872176148,431.51632438448723,432.53723802114837,,,,,,,,,,,,,547,2023-05-15_10h48.42.920,eb_02psyexp,2022.2.4,99.94111459593861,
197,0,197,0,,,,,,,,,,,,,,,,,,,,,,,,,,,,,,,,,,,,,,,,,,,,,,,,,,,,,,,,,,432.53723802114837,432.53723802114837,432.53723802114837,432.53723802114837,432.53723802114837,432.53723802114837,l,1,0.5760873227845877,433.12759715039283,434.14793426299,,,,,,,,,,,,,547,2023-05-15_10h48.42.920,eb_02psyexp,2022.2.4,99.94111459593861,
198,0,198,0,,,,,,,,,,,,,,,,,,,,,,,,,,,,,,,,,,,,,,,,,,,,,,,,,,,,,,,,,,434.14793426299,434.14793426299,434.14793426299,434.14793426299,434.14793426299,434.14793426299,l,1,0.605341240298003,434.7682457792107,435.78886662621517,,,,,,,,,,,,,547,2023-05-15_10h48.42.920,eb_02psyexp,2022.2.4,99.94111459593861,
199,0,199,0,,,,,0,0,0,0,,,,,,,,,,,,,,,,,,,,,,,,,,,,,,,,,,,,,,,,,,,,,,,,,,435.78886662621517,435.78886662621517,435.78886662621517,435.78886662621517,435.78886662621517,435.78886662621517,l,1,0.5164279489545152,436.3191462132381,437.3197345092194,437.3197345092194,437.3197345092194,space,55.49487138225231,,,,,,,,,547,2023-05-15_10h48.42.920,eb_02psyexp,2022.2.4,99.94111459593861,
199,0,199,0,,,,,,,,,,,,,,,,,,,,,,,,,,,,,,,,,,,,,,,,,,,,,,,,,,,,,,,,,,,,,,,,,,,,,,,,,,,,,,,,,547,2023-05-15_10h48.42.920,eb_02psyexp,2022.2.4,99.94111459593861,
200,0,200,0,,,,,,,,,,,,,,,,,,,,,,,,,,,,,,,,,,,,,,,,,,,,,,,,,,,,,,,,,,492.86261552374344,492.86261552374344,492.86261552374344,492.86261552374344,492.86261552374344,492.86261552374344,s,1,1.8870822101598606,494.7634038826218,495.7940106696915,,,,,,,,,,,,,547,2023-05-15_10h48.42.920,eb_02psyexp,2022.2.4,99.94111459593861,
201,0,201,0,,,,,,,,,,,,,,,,,,,,,,,,,,,,,,,,,,,,,,,,,,,,,,,,,,,,,,,,,,495.7940106696915,495.7940106696915,495.7940106696915,495.7940106696915,495.7940106696915,495.7940106696915,s,1,0.5876153892604634,496.394359662896,497.41498805605806,,,,,,,,,,,,,547,2023-05-15_10h48.42.920,eb_02psyexp,2022.2.4,99.94111459593861,
202,0,202,0,,,,,,,,,,,,,,,,,,,,,,,,,,,,,,,,,,,,,,,,,,,,,,,,,,,,,,,,,,497.41498805605806,497.41498805605806,497.41498805605806,497.41498805605806,497.41498805605806,497.41498805605806,l,1,1.2146399396006018,498.645677971188,499.6762636291096,,,,,,,,,,,,,547,2023-05-15_10h48.42.920,eb_02psyexp,2022.2.4,99.94111459593861,
203,0,203,0,,,,,,,,,,,,,,,,,,,,,,,,,,,,,,,,,,,,,,,,,,,,,,,,,,,,,,,,,,499.6762636291096,499.6762636291096,499.6762636291096,499.6762636291096,499.6762636291096,499.6762636291096,s,1,0.6253659432986751,500.31665508588776,501.3373206059914,,,,,,,,,,,,,547,2023-05-15_10h48.42.920,eb_02psyexp,2022.2.4,99.94111459593861,
204,0,204,0,,,,,,,,,,,,,,,,,,,,,,,,,,,,,,,,,,,,,,,,,,,,,,,,,,,,,,,,,,501.3373206059914,501.3373206059914,501.3373206059914,501.3373206059914,501.3373206059914,501.3373206059914,l,1,0.5803554119775072,501.92759763333015,502.94817742938176,,,,,,,,,,,,,547,2023-05-15_10h48.42.920,eb_02psyexp,2022.2.4,99.94111459593861,
205,0,205,0,,,,,,,,,,,,,,,,,,,,,,,,,,,,,,,,,,,,,,,,,,,,,,,,,,,,,,,,,,502.94817742938176,502.94817742938176,502.94817742938176,502.94817742938176,502.94817742938176,502.94817742938176,s,1,0.593467561295256,503.55855311173946,504.5791646016296,,,,,,,,,,,,,547,2023-05-15_10h48.42.920,eb_02psyexp,2022.2.4,99.94111459593861,
206,0,206,0,,,,,,,,,,,,,,,,,,,,,,,,,,,,,,,,,,,,,,,,,,,,,,,,,,,,,,,,,,504.5791646016296,504.5791646016296,504.5791646016296,504.5791646016296,504.5791646016296,504.5791646016296,l,1,0.6825043072458357,505.2795607430162,506.30020302103367,,,,,,,,,,,,,547,2023-05-15_10h48.42.920,eb_02psyexp,2022.2.4,99.94111459593861,
207,0,207,0,,,,,,,,,,,,,,,,,,,,,,,,,,,,,,,,,,,,,,,,,,,,,,,,,,,,,,,,,,506.30020302103367,506.30020302103367,506.30020302103367,506.30020302103367,506.30020302103367,506.30020302103367,s,1,0.6814804488094524,507.0005668650847,508.0311724446947,,,,,,,,,,,,,547,2023-05-15_10h48.42.920,eb_02psyexp,2022.2.4,99.94111459593861,
208,0,208,0,,,,,,,,,,,,,,,,,,,,,,,,,,,,,,,,,,,,,,,,,,,,,,,,,,,,,,,,,,508.0311724446947,508.0311724446947,508.0311724446947,508.0311724446947,508.0311724446947,508.0311724446947,s,1,0.5825311111984774,508.63152053242084,509.6521480199881,,,,,,,,,,,,,547,2023-05-15_10h48.42.920,eb_02psyexp,2022.2.4,99.94111459593861,
209,0,209,0,,,,,,,,,,,,,,,,,,,,,,,,,,,,,,,,,,,,,,,,,,,,,,,,,,,,,,,,,,509.6521480199881,509.6521480199881,509.6521480199881,509.6521480199881,509.6521480199881,509.6521480199881,l,1,0.5206468373071402,510.19241535814945,511.2130808782531,,,,,,,,,,,,,547,2023-05-15_10h48.42.920,eb_02psyexp,2022.2.4,99.94111459593861,
210,0,210,0,,,,,,,,,,,,,,,,,,,,,,,,,,,,,,,,,,,,,,,,,,,,,,,,,,,,,,,,,,511.2130808782531,511.2130808782531,511.2130808782531,511.2130808782531,511.2130808782531,511.2130808782531,l,1,0.543664334109053,511.7733557141619,512.8039431831567,,,,,,,,,,,,,547,2023-05-15_10h48.42.920,eb_02psyexp,2022.2.4,99.94111459593861,
211,0,211,0,,,,,,,,,,,,,,,,,,,,,,,,,,,,,,,,,,,,,,,,,,,,,,,,,,,,,,,,,,512.8039431831567,512.8039431831567,512.8039431831567,512.8039431831567,512.8039431831567,512.8039431831567,s,1,0.5767725111218169,513.3943261581007,,,,,,,,,,,,,,547,2023-05-15_10h48.42.920,eb_02psyexp,2022.2.4,99.94111459593861,
212,0,212,0,,,,,,,,,,,,,,,,,,,,,,,,,,,,,,,,,,,,,,,,,,,,,,,,,,,,,,,,,,514.4152156471973,514.4152156471973,514.4152156471973,514.4152156471973,514.4152156471973,514.4152156471973,l,1,0.589536934858188,515.0155727902893,516.0359455206199,,,,,,,,,,,,,547,2023-05-15_10h48.42.920,eb_02psyexp,2022.2.4,99.94111459593861,
213,0,213,0,,,,,,,,,,,,,,,,,,,,,,,,,,,,,,,,,,,,,,,,,,,,,,,,,,,,,,,,,,516.0359455206199,516.0359455206199,516.0359455206199,516.0359455206199,516.0359455206199,516.0359455206199,l,1,0.8167915515368804,516.8663418008946,517.886911636102,,,,,,,,,,,,,547,2023-05-15_10h48.42.920,eb_02psyexp,2022.2.4,99.94111459593861,
214,0,214,0,,,,,,,,,,,,,,,,,,,,,,,,,,,,,,,,,,,,,,,,,,,,,,,,,,,,,,,,,,517.886911636102,517.886911636102,517.886911636102,517.886911636102,517.886911636102,517.886911636102,l,1,0.6058299274882302,518.507297104341,,,,,,,,,,,,,,547,2023-05-15_10h48.42.920,eb_02psyexp,2022.2.4,99.94111459593861,
215,0,215,0,,,,,,,,,,,,,,,,,,,,,,,,,,,,,,,,,,,,,,,,,,,,,,,,,,,,,,,,,,519.5282282480039,519.5282282480039,519.5282282480039,519.5282282480039,519.5282282480039,519.5282282480039,l,1,1.4845736362040043,521.0287800207734,522.0494180729147,,,,,,,,,,,,,547,2023-05-15_10h48.42.920,eb_02psyexp,2022.2.4,99.94111459593861,
216,0,216,0,,,,,,,,,,,,,,,,,,,,,,,,,,,,,,,,,,,,,,,,,,,,,,,,,,,,,,,,,,522.0494180729147,522.0494180729147,522.0494180729147,522.0494180729147,522.0494180729147,522.0494180729147,l,1,0.7553455566521734,522.8198241571663,523.8404634167673,,,,,,,,,,,,,547,2023-05-15_10h48.42.920,eb_02psyexp,2022.2.4,99.94111459593861,
217,0,217,0,,,,,,,,,,,,,,,,,,,,,,,,,,,,,,,,,,,,,,,,,,,,,,,,,,,,,,,,,,523.8404634167673,523.8404634167673,523.8404634167673,523.8404634167673,523.8404634167673,523.8404634167673,l,1,0.6043282483005896,524.4607879122486,525.4813586529344,,,,,,,,,,,,,547,2023-05-15_10h48.42.920,eb_02psyexp,2022.2.4,99.94111459593861,
218,0,218,0,,,,,,,,,,,,,,,,,,,,,,,,,,,,,,,,,,,,,,,,,,,,,,,,,,,,,,,,,,525.4813586529344,525.4813586529344,525.4813586529344,525.4813586529344,525.4813586529344,525.4813586529344,l,1,0.6745186945190653,526.172096054419,527.1924253189936,,,,,,,,,,,,,547,2023-05-15_10h48.42.920,eb_02psyexp,2022.2.4,99.94111459593861,
219,0,219,0,,,,,,,,,,,,,,,,,,,,,,,,,,,,,,,,,,,,,,,,,,,,,,,,,,,,,,,,,,527.1924253189936,527.1924253189936,527.1924253189936,527.1924253189936,527.1924253189936,527.1924253189936,l,1,0.6113799526356161,527.8227423952194,528.8434009727789,,,,,,,,,,,,,547,2023-05-15_10h48.42.920,eb_02psyexp,2022.2.4,99.94111459593861,
220,0,220,0,,,,,,,,,,,,,,,,,,,,,,,,,,,,,,,,,,,,,,,,,,,,,,,,,,,,,,,,,,528.8434009727789,528.8434009727789,528.8434009727789,528.8434009727789,528.8434009727789,528.8434009727789,l,1,0.5204666358185932,529.3836450688541,,,,,,,,,,,,,,547,2023-05-15_10h48.42.920,eb_02psyexp,2022.2.4,99.94111459593861,
221,0,221,0,,,,,,,,,,,,,,,,,,,,,,,,,,,,,,,,,,,,,,,,,,,,,,,,,,,,,,,,,,530.4145609452389,530.4145609452389,530.4145609452389,530.4145609452389,530.4145609452389,530.4145609452389,s,1,0.5812690969323739,531.0149286529049,532.0452106547309,,,,,,,,,,,,,547,2023-05-15_10h48.42.920,eb_02psyexp,2022.2.4,99.94111459593861,
222,0,222,0,,,,,,,,,,,,,,,,,,,,,,,,,,,,,,,,,,,,,,,,,,,,,,,,,,,,,,,,,,532.0452106547309,532.0452106547309,532.0452106547309,532.0452106547309,532.0452106547309,532.0452106547309,s,1,0.5186253810534254,532.5755216336111,533.6061066878028,,,,,,,,,,,,,547,2023-05-15_10h48.42.920,eb_02psyexp,2022.2.4,99.94111459593861,
223,0,223,0,,,,,,,,,,,,,,,,,,,,,,,,,,,,,,,,,,,,,,,,,,,,,,,,,,,,,,,,,,533.6061066878028,533.6061066878028,533.6061066878028,533.6061066878028,533.6061066878028,533.6061066878028,s,1,0.5577390672406182,534.1764559043804,535.197087014094,,,,,,,,,,,,,547,2023-05-15_10h48.42.920,eb_02psyexp,2022.2.4,99.94111459593861,
224,0,224,0,,,,,,,,,,,,,,,,,,,,,,,,,,,,,,,,,,,,,,,,,,,,,,,,,,,,,,,,,,535.197087014094,535.197087014094,535.197087014094,535.197087014094,535.197087014094,535.197087014094,l,1,0.48675627796910703,535.6973511285614,536.7180217800196,,,,,,,,,,,,,547,2023-05-15_10h48.42.920,eb_02psyexp,2022.2.4,99.94111459593861,
225,0,225,0,,,,,,,,,,,,,,,,,,,,,,,,,,,,,,,,,,,,,,,,,,,,,,,,,,,,,,,,,,536.7180217800196,536.7180217800196,536.7180217800196,536.7180217800196,536.7180217800196,536.7180217800196,l,1,0.581875805510208,537.3182916898513,538.3389197811484,,,,,,,,,,,,,547,2023-05-15_10h48.42.920,eb_02psyexp,2022.2.4,99.94111459593861,
226,0,226,0,,,,,,,,,,,,,,,,,,,,,,,,,,,,,,,,,,,,,,,,,,,,,,,,,,,,,,,,,,538.3389197811484,538.3389197811484,538.3389197811484,538.3389197811484,538.3389197811484,538.3389197811484,l,1,0.46493952081073076,538.8191757940222,539.8497702054447,,,,,,,,,,,,,547,2023-05-15_10h48.42.920,eb_02psyexp,2022.2.4,99.94111459593861,
227,0,227,0,,,,,,,,,,,,,,,,,,,,,,,,,,,,,,,,,,,,,,,,,,,,,,,,,,,,,,,,,,539.8497702054447,539.8497702054447,539.8497702054447,539.8497702054447,539.8497702054447,539.8497702054447,s,1,1.234113775426522,541.1004993121605,542.1310879884986,,,,,,,,,,,,,547,2023-05-15_10h48.42.920,eb_02psyexp,2022.2.4,99.94111459593861,
228,0,228,0,,,,,,,,,,,,,,,,,,,,,,,,,,,,,,,,,,,,,,,,,,,,,,,,,,,,,,,,,,542.1310879884986,542.1310879884986,542.1310879884986,542.1310879884986,542.1310879884986,542.1310879884986,s,1,0.5998401142423972,542.741462765378,543.7620519185439,,,,,,,,,,,,,547,2023-05-15_10h48.42.920,eb_02psyexp,2022.2.4,99.94111459593861,
229,0,229,0,,,,,,,,,,,,,,,,,,,,,,,,,,,,,,,,,,,,,,,,,,,,,,,,,,,,,,,,,,543.7620519185439,543.7620519185439,543.7620519185439,543.7620519185439,543.7620519185439,543.7620519185439,s,1,0.6008691039169207,544.3824271240737,545.4030232197838,,,,,,,,,,,,,547,2023-05-15_10h48.42.920,eb_02psyexp,2022.2.4,99.94111459593861,
230,0,230,0,,,,,,,,,,,,,,,,,,,,,,,,,,,,,,,,,,,,,,,,,,,,,,,,,,,,,,,,,,545.4030232197838,545.4030232197838,545.4030232197838,545.4030232197838,545.4030232197838,545.4030232197838,l,1,1.031876077177003,546.4536287511,547.4742728401907,,,,,,,,,,,,,547,2023-05-15_10h48.42.920,eb_02psyexp,2022.2.4,99.94111459593861,
231,0,231,0,,,,,,,,,,,,,,,,,,,,,,,,,,,,,,,,,,,,,,,,,,,,,,,,,,,,,,,,,,547.4742728401907,547.4742728401907,547.4742728401907,547.4742728401907,547.4742728401907,547.4742728401907,s,1,0.6086506695719436,548.0945876766928,549.1152139569167,,,,,,,,,,,,,547,2023-05-15_10h48.42.920,eb_02psyexp,2022.2.4,99.94111459593861,
232,0,232,0,,,,,,,,,,,,,,,,,,,,,,,,,,,,,,,,,,,,,,,,,,,,,,,,,,,,,,,,,,549.1152139569167,549.1152139569167,549.1152139569167,549.1152139569167,549.1152139569167,549.1152139569167,l,1,0.6477178717032075,549.7755622015102,550.7961969333701,,,,,,,,,,,,,547,2023-05-15_10h48.42.920,eb_02psyexp,2022.2.4,99.94111459593861,
233,0,233,0,,,,,,,,,,,,,,,,,,,,,,,,,,,,,,,,,,,,,,,,,,,,,,,,,,,,,,,,,,550.7961969333701,550.7961969333701,550.7961969333701,550.7961969333701,550.7961969333701,550.7961969333701,l,1,0.5827297252835706,551.3965365694603,552.4171553035267,,,,,,,,,,,,,547,2023-05-15_10h48.42.920,eb_02psyexp,2022.2.4,99.94111459593861,
234,0,234,0,,,,,,,,,,,,,,,,,,,,,,,,,,,,,,,,,,,,,,,,,,,,,,,,,,,,,,,,,,552.4171553035267,552.4171553035267,552.4171553035267,552.4171553035267,552.4171553035267,552.4171553035267,l,1,0.6097991899587214,553.0374885526253,554.0580991368042,,,,,,,,,,,,,547,2023-05-15_10h48.42.920,eb_02psyexp,2022.2.4,99.94111459593861,
235,0,235,0,,,,,,,,,,,,,,,,,,,,,,,,,,,,,,,,,,,,,,,,,,,,,,,,,,,,,,,,,,554.0580991368042,554.0580991368042,554.0580991368042,554.0580991368042,554.0580991368042,554.0580991368042,l,1,0.5528407257515937,554.6284036803991,555.6490507879062,,,,,,,,,,,,,547,2023-05-15_10h48.42.920,eb_02psyexp,2022.2.4,99.94111459593861,
236,0,236,0,,,,,,,,,,,,,,,,,,,,,,,,,,,,,,,,,,,,,,,,,,,,,,,,,,,,,,,,,,555.6490507879062,555.6490507879062,555.6490507879062,555.6490507879062,555.6490507879062,555.6490507879062,l,1,0.53791810979601,556.1993224786129,557.2199203853961,,,,,,,,,,,,,547,2023-05-15_10h48.42.920,eb_02psyexp,2022.2.4,99.94111459593861,
237,0,237,0,,,,,,,,,,,,,,,,,,,,,,,,,,,,,,,,,,,,,,,,,,,,,,,,,,,,,,,,,,557.2199203853961,557.2199203853961,557.2199203853961,557.2199203853961,557.2199203853961,557.2199203853961,l,1,0.5101691917516291,557.7402155415621,558.7607995634899,,,,,,,,,,,,,547,2023-05-15_10h48.42.920,eb_02psyexp,2022.2.4,99.94111459593861,
238,0,238,0,,,,,,,,,,,,,,,,,,,,,,,,,,,,,,,,,,,,,,,,,,,,,,,,,,,,,,,,,,558.7607995634899,558.7607995634899,558.7607995634899,558.7607995634899,558.7607995634899,558.7607995634899,s,1,0.43319839995820075,559.211118583451,560.2416662089527,,,,,,,,,,,,,547,2023-05-15_10h48.42.920,eb_02psyexp,2022.2.4,99.94111459593861,
239,0,239,0,,,,,,,,,,,,,,,,,,,,,,,,,,,,,,,,,,,,,,,,,,,,,,,,,,,,,,,,,,560.2416662089527,560.2416662089527,560.2416662089527,560.2416662089527,560.2416662089527,560.2416662089527,s,1,0.5603844374418259,560.8120133125922,561.8326426112326,,,,,,,,,,,,,547,2023-05-15_10h48.42.920,eb_02psyexp,2022.2.4,99.94111459593861,
240,0,240,0,,,,,,,,,,,,,,,,,,,,,,,,,,,,,,,,,,,,,,,,,,,,,,,,,,,,,,,,,,561.8326426112326,561.8326426112326,561.8326426112326,561.8326426112326,561.8326426112326,561.8326426112326,l,1,0.5773940101498738,562.4229570673779,563.4435368634295,,,,,,,,,,,,,547,2023-05-15_10h48.42.920,eb_02psyexp,2022.2.4,99.94111459593861,
241,0,241,0,,,,,,,,,,,,,,,,,,,,,,,,,,,,,,,,,,,,,,,,,,,,,,,,,,,,,,,,,,563.4435368634295,563.4435368634295,563.4435368634295,563.4435368634295,563.4435368634295,563.4435368634295,l,1,0.5504784863442183,564.0042001740076,565.0245040836744,,,,,,,,,,,,,547,2023-05-15_10h48.42.920,eb_02psyexp,2022.2.4,99.94111459593861,
242,0,242,0,,,,,,,,,,,,,,,,,,,,,,,,,,,,,,,,,,,,,,,,,,,,,,,,,,,,,,,,,,565.0245040836744,565.0245040836744,565.0245040836744,565.0245040836744,565.0245040836744,565.0245040836744,l,1,0.5934962366009131,565.6348305653082,566.655476465472,,,,,,,,,,,,,547,2023-05-15_10h48.42.920,eb_02psyexp,2022.2.4,99.94111459593861,
243,0,243,0,,,,,,,,,,,,,,,,,,,,,,,,,,,,,,,,,,,,,,,,,,,,,,,,,,,,,,,,,,566.655476465472,566.655476465472,566.655476465472,566.655476465472,566.655476465472,566.655476465472,l,1,0.5225599312689155,567.1957519534044,568.226326744887,,,,,,,,,,,,,547,2023-05-15_10h48.42.920,eb_02psyexp,2022.2.4,99.94111459593861,
244,0,244,0,,,,,,,,,,,,,,,,,,,,,,,,,,,,,,,,,,,,,,,,,,,,,,,,,,,,,,,,,,568.226326744887,568.226326744887,568.226326744887,568.226326744887,568.226326744887,568.226326744887,s,1,0.5357046799035743,568.7766672562575,569.797311949078,,,,,,,,,,,,,547,2023-05-15_10h48.42.920,eb_02psyexp,2022.2.4,99.94111459593861,
245,0,245,0,,,,,,,,,,,,,,,,,,,,,,,,,,,,,,,,,,,,,,,,,,,,,,,,,,,,,,,,,,569.797311949078,569.797311949078,569.797311949078,569.797311949078,569.797311949078,569.797311949078,l,1,0.5007492110598832,570.3175841650227,571.3382361020194,,,,,,,,,,,,,547,2023-05-15_10h48.42.920,eb_02psyexp,2022.2.4,99.94111459593861,
246,0,246,0,,,,,,,,,,,,,,,,,,,,,,,,,,,,,,,,,,,,,,,,,,,,,,,,,,,,,,,,,,571.3382361020194,571.3382361020194,571.3382361020194,571.3382361020194,571.3382361020194,571.3382361020194,l,1,0.4638069982174784,571.8184401976177,572.8390876069898,,,,,,,,,,,,,547,2023-05-15_10h48.42.920,eb_02psyexp,2022.2.4,99.94111459593861,
247,0,247,0,,,,,,,,,,,,,,,,,,,,,,,,,,,,,,,,,,,,,,,,,,,,,,,,,,,,,,,,,,572.8390876069898,572.8390876069898,572.8390876069898,572.8390876069898,572.8390876069898,572.8390876069898,l,1,0.4340378310298547,573.2892991701374,,,,,,,,,,,,,,547,2023-05-15_10h48.42.920,eb_02psyexp,2022.2.4,99.94111459593861,
248,0,248,0,,,,,,,,,,,,,,,,,,,,,,,,,,,,,,,,,,,,,,,,,,,,,,,,,,,,,,,,,,574.3202147446573,574.3202147446573,574.3202147446573,574.3202147446573,574.3202147446573,574.3202147446573,s,1,1.4888655712129548,575.8207840244286,576.8414030603599,,,,,,,,,,,,,547,2023-05-15_10h48.42.920,eb_02psyexp,2022.2.4,99.94111459593861,
249,0,249,0,,,,,,,,,,,,,,,,,,,,,,,,,,,,,,,,,,,,,,,,,,,,,,,,,,,,,,,,,,576.8414030603599,576.8414030603599,576.8414030603599,576.8414030603599,576.8414030603599,576.8414030603599,l,1,1.1276877355994657,577.9820670832414,579.0026652918896,,,,,,,,,,,,,547,2023-05-15_10h48.42.920,eb_02psyexp,2022.2.4,99.94111459593861,
250,0,250,0,,,,,,,,,,,,,,,,,,,,,,,,,,,,,,,,,,,,,,,,,,,,,,,,,,,,,,,,,,579.0026652918896,579.0026652918896,579.0026652918896,579.0026652918896,579.0026652918896,579.0026652918896,s,1,1.382456132909283,580.4034439917887,581.424071177491,,,,,,,,,,,,,547,2023-05-15_10h48.42.920,eb_02psyexp,2022.2.4,99.94111459593861,
251,0,251,0,,,,,,,,,,,,,,,,,,,,,,,,,,,,,,,,,,,,,,,,,,,,,,,,,,,,,,,,,,581.424071177491,581.424071177491,581.424071177491,581.424071177491,581.424071177491,581.424071177491,l,1,0.5850155978696421,582.0244056822266,583.0449764229124,,,,,,,,,,,,,547,2023-05-15_10h48.42.920,eb_02psyexp,2022.2.4,99.94111459593861,
252,0,252,0,,,,,,,,,,,,,,,,,,,,,,,,,,,,,,,,,,,,,,,,,,,,,,,,,,,,,,,,,,583.0449764229124,583.0449764229124,583.0449764229124,583.0449764229124,583.0449764229124,583.0449764229124,s,1,0.8521635665092617,583.9154990797397,584.9360731407069,,,,,,,,,,,,,547,2023-05-15_10h48.42.920,eb_02psyexp,2022.2.4,99.94111459593861,
253,0,253,0,,,,,,,,,,,,,,,,,,,,,,,,,,,,,,,,,,,,,,,,,,,,,,,,,,,,,,,,,,584.9360731407069,584.9360731407069,584.9360731407069,584.9360731407069,584.9360731407069,584.9360731407069,l,1,0.5850240495055914,585.536461675656,586.5573490518145,,,,,,,,,,,,,547,2023-05-15_10h48.42.920,eb_02psyexp,2022.2.4,99.94111459593861,
254,0,254,0,,,,,,,,,,,,,,,,,,,,,,,,,,,,,,,,,,,,,,,,,,,,,,,,,,,,,,,,,,586.5573490518145,586.5573490518145,586.5573490518145,586.5573490518145,586.5573490518145,586.5573490518145,s,1,0.5957990124588832,587.1677123586414,588.1979774570791,,,,,,,,,,,,,547,2023-05-15_10h48.42.920,eb_02psyexp,2022.2.4,99.94111459593861,
255,0,255,0,,,,,,,,,,,,,,,,,,,,,,,,,,,,,,,,,,,,,,,,,,,,,,,,,,,,,,,,,,588.1979774570791,588.1979774570791,588.1979774570791,588.1979774570791,588.1979774570791,588.1979774570791,l,1,1.002281678491272,589.2186082649278,590.2391750816023,,,,,,,,,,,,,547,2023-05-15_10h48.42.920,eb_02psyexp,2022.2.4,99.94111459593861,
256,0,256,0,,,,,,,,,,,,,,,,,,,,,,,,,,,,,,,,,,,,,,,,,,,,,,,,,,,,,,,,,,590.2391750816023,590.2391750816023,590.2391750816023,590.2391750816023,590.2391750816023,590.2391750816023,l,1,0.5929616689682007,590.8495305404067,591.8801705304068,,,,,,,,,,,,,547,2023-05-15_10h48.42.920,eb_02psyexp,2022.2.4,99.94111459593861,
257,0,257,0,,,,,,,,,,,,,,,,,,,,,,,,,,,,,,,,,,,,,,,,,,,,,,,,,,,,,,,,,,591.8801705304068,591.8801705304068,591.8801705304068,591.8801705304068,591.8801705304068,591.8801705304068,s,1,0.576002806192264,592.4704931364395,,,,,,,,,,,,,,547,2023-05-15_10h48.42.920,eb_02psyexp,2022.2.4,99.94111459593861,
258,0,258,0,,,,,,,,,,,,,,,,,,,,,,,,,,,,,,,,,,,,,,,,,,,,,,,,,,,,,,,,,,593.491081384127,593.491081384127,593.491081384127,593.491081384127,593.491081384127,593.491081384127,l,1,0.5811302482616156,594.0917732733069,595.1220419938909,,,,,,,,,,,,,547,2023-05-15_10h48.42.920,eb_02psyexp,2022.2.4,99.94111459593861,
259,0,259,0,,,,,,,,,,,,,,,,,,,,,,,,,,,,,,,,,,,,,,,,,,,,,,,,,,,,,,,,,,595.1220419938909,595.1220419938909,595.1220419938909,595.1220419938909,595.1220419938909,595.1220419938909,l,1,0.6061507888371125,595.7424018053571,596.7730034609558,,,,,,,,,,,,,547,2023-05-15_10h48.42.920,eb_02psyexp,2022.2.4,99.94111459593861,
260,0,260,0,,,,,,,,,,,,,,,,,,,,,,,,,,,,,,,,,,,,,,,,,,,,,,,,,,,,,,,,,,596.7730034609558,596.7730034609558,596.7730034609558,596.7730034609558,596.7730034609558,596.7730034609558,s,1,0.563200349919498,597.353336202912,598.3739223377779,,,,,,,,,,,,,547,2023-05-15_10h48.42.920,eb_02psyexp,2022.2.4,99.94111459593861,
261,0,261,0,,,,,,,,,,,,,,,,,,,,,,,,,,,,,,,,,,,,,,,,,,,,,,,,,,,,,,,,,,598.3739223377779,598.3739223377779,598.3739223377779,598.3739223377779,598.3739223377779,598.3739223377779,l,1,0.5463042709743604,598.9342780681327,599.9648507466773,,,,,,,,,,,,,547,2023-05-15_10h48.42.920,eb_02psyexp,2022.2.4,99.94111459593861,
262,0,262,0,,,,,,,,,,,,,,,,,,,,,,,,,,,,,,,,,,,,,,,,,,,,,,,,,,,,,,,,,,599.9648507466773,599.9648507466773,599.9648507466773,599.9648507466773,599.9648507466773,599.9648507466773,l,1,0.5793792450567707,600.5552198367659,601.5857964393217,,,,,,,,,,,,,547,2023-05-15_10h48.42.920,eb_02psyexp,2022.2.4,99.94111459593861,
263,0,263,0,,,,,,,,,,,,,,,,,,,,,,,,,,,,,,,,,,,,,,,,,,,,,,,,,,,,,,,,,,601.5857964393217,601.5857964393217,601.5857964393217,601.5857964393217,601.5857964393217,601.5857964393217,s,1,0.5824260690715164,602.1861448289128,603.2067877106601,,,,,,,,,,,,,547,2023-05-15_10h48.42.920,eb_02psyexp,2022.2.4,99.94111459593861,
264,0,264,0,,,,,,,,,,,,,,,,,,,,,,,,,,,,,,,,,,,,,,,,,,,,,,,,,,,,,,,,,,603.2067877106601,603.2067877106601,603.2067877106601,603.2067877106601,603.2067877106601,603.2067877106601,s,1,0.6734450315125287,603.897175877355,604.9177647287725,,,,,,,,,,,,,547,2023-05-15_10h48.42.920,eb_02psyexp,2022.2.4,99.94111459593861,
265,0,265,0,,,,,,,,,,,,,,,,,,,,,,,,,,,,,,,,,,,,,,,,,,,,,,,,,,,,,,,,,,604.9177647287725,604.9177647287725,604.9177647287725,604.9177647287725,604.9177647287725,604.9177647287725,l,1,0.5134650378022343,605.4480648412136,606.4689833073644,,,,,,,,,,,,,547,2023-05-15_10h48.42.920,eb_02psyexp,2022.2.4,99.94111459593861,
266,0,266,0,,,,,,,,,,,,,,,,,,,,,,,,,,,,,,,,,,,,,,,,,,,,,,,,,,,,,,,,,,606.4689833073644,606.4689833073644,606.4689833073644,606.4689833073644,606.4689833073644,606.4689833073644,s,1,0.5942451141308993,607.0793194480939,608.0996616920456,,,,,,,,,,,,,547,2023-05-15_10h48.42.920,eb_02psyexp,2022.2.4,99.94111459593861,
267,0,267,0,,,,,,,,,,,,,,,,,,,,,,,,,,,,,,,,,,,,,,,,,,,,,,,,,,,,,,,,,,608.0996616920456,608.0996616920456,608.0996616920456,608.0996616920456,608.0996616920456,608.0996616920456,l,1,0.48355551285203546,608.5998889814364,609.6205279391725,,,,,,,,,,,,,547,2023-05-15_10h48.42.920,eb_02psyexp,2022.2.4,99.94111459593861,
268,0,268,0,,,,,,,,,,,,,,,,,,,,,,,,,,,,,,,,,,,,,,,,,,,,,,,,,,,,,,,,,,609.6205279391725,609.6205279391725,609.6205279391725,609.6205279391725,609.6205279391725,609.6205279391725,l,1,0.5787538221338764,610.2108423953177,611.231424606056,,,,,,,,,,,,,547,2023-05-15_10h48.42.920,eb_02psyexp,2022.2.4,99.94111459593861,
269,0,269,0,,,,,,,,,,,,,,,,,,,,,,,,,,,,,,,,,,,,,,,,,,,,,,,,,,,,,,,,,,611.231424606056,611.231424606056,611.231424606056,611.231424606056,611.231424606056,611.231424606056,l,1,0.4958623396232724,611.7417332185432,612.7623223718256,,,,,,,,,,,,,547,2023-05-15_10h48.42.920,eb_02psyexp,2022.2.4,99.94111459593861,
270,0,270,0,,,,,,,,,,,,,,,,,,,,,,,,,,,,,,,,,,,,,,,,,,,,,,,,,,,,,,,,,,612.7623223718256,612.7623223718256,612.7623223718256,612.7623223718256,612.7623223718256,612.7623223718256,s,1,0.5489674499258399,613.3226596897002,614.343236467219,,,,,,,,,,,,,547,2023-05-15_10h48.42.920,eb_02psyexp,2022.2.4,99.94111459593861,
271,0,271,0,,,,,,,,,,,,,,,,,,,,,,,,,,,,,,,,,,,,,,,,,,,,,,,,,,,,,,,,,,614.343236467219,614.343236467219,614.343236467219,614.343236467219,614.343236467219,614.343236467219,l,1,0.5120708155445755,614.8735595199978,615.894155011978,,,,,,,,,,,,,547,2023-05-15_10h48.42.920,eb_02psyexp,2022.2.4,99.94111459593861,
272,0,272,0,,,,,,,,,,,,,,,,,,,,,,,,,,,,,,,,,,,,,,,,,,,,,,,,,,,,,,,,,,615.894155011978,615.894155011978,615.894155011978,615.894155011978,615.894155011978,615.894155011978,s,1,0.489172849454917,616.3944523293758,617.4253956736065,,,,,,,,,,,,,547,2023-05-15_10h48.42.920,eb_02psyexp,2022.2.4,99.94111459593861,
273,0,273,0,,,,,,,,,,,,,,,,,,,,,,,,,,,,,,,,,,,,,,,,,,,,,,,,,,,,,,,,,,617.4253956736065,617.4253956736065,617.4253956736065,617.4253956736065,617.4253956736065,617.4253956736065,s,1,0.9259583444800228,618.3655696812784,619.3861757378327,,,,,,,,,,,,,547,2023-05-15_10h48.42.920,eb_02psyexp,2022.2.4,99.94111459593861,
274,0,274,0,,,,,,,,,,,,,,,,,,,,,,,,,,,,,,,,,,,,,,,,,,,,,,,,,,,,,,,,,,619.3861757378327,619.3861757378327,619.3861757378327,619.3861757378327,619.3861757378327,619.3861757378327,s,1,0.5331263194093481,619.9365050810156,620.957093932433,,,,,,,,,,,,,547,2023-05-15_10h48.42.920,eb_02psyexp,2022.2.4,99.94111459593861,
275,0,275,0,,,,,,,,,,,,,,,,,,,,,,,,,,,,,,,,,,,,,,,,,,,,,,,,,,,,,,,,,,620.957093932433,620.957093932433,620.957093932433,620.957093932433,620.957093932433,620.957093932433,l,1,0.529272059793584,621.4974611812504,622.5183479537955,,,,,,,,,,,,,547,2023-05-15_10h48.42.920,eb_02psyexp,2022.2.4,99.94111459593861,
276,0,276,0,,,,,,,,,,,,,,,,,,,,,,,,,,,,,,,,,,,,,,,,,,,,,,,,,,,,,,,,,,622.5183479537955,622.5183479537955,622.5183479537955,622.5183479537955,622.5183479537955,622.5183479537955,s,1,0.5040009878575802,623.0386431099614,624.0689088120125,,,,,,,,,,,,,547,2023-05-15_10h48.42.920,eb_02psyexp,2022.2.4,99.94111459593861,
277,0,277,0,,,,,,,,,,,,,,,,,,,,,,,,,,,,,,,,,,,,,,,,,,,,,,,,,,,,,,,,,,624.0689088120125,624.0689088120125,624.0689088120125,624.0689088120125,624.0689088120125,624.0689088120125,l,1,0.48944450996350497,624.5692299752263,625.599799635238,,,,,,,,,,,,,547,2023-05-15_10h48.42.920,eb_02psyexp,2022.2.4,99.94111459593861,
278,0,278,0,,,,,,,,,,,,,,,,,,,,,,,,,,,,,,,,,,,,,,,,,,,,,,,,,,,,,,,,,,625.599799635238,625.599799635238,625.599799635238,625.599799635238,625.599799635238,625.599799635238,s,1,0.502554546459578,626.1201219575014,627.1407177513465,,,,,,,,,,,,,547,2023-05-15_10h48.42.920,eb_02psyexp,2022.2.4,99.94111459593861,
279,0,279,0,,,,,,,,,,,,,,,,,,,,,,,,,,,,,,,,,,,,,,,,,,,,,,,,,,,,,,,,,,627.1407177513465,627.1407177513465,627.1407177513465,627.1407177513465,627.1407177513465,627.1407177513465,l,1,0.5456208937102929,627.7010137165198,628.7316440474242,,,,,,,,,,,,,547,2023-05-15_10h48.42.920,eb_02psyexp,2022.2.4,99.94111459593861,
280,0,280,0,,,,,,,,,,,,,,,,,,,,,,,,,,,,,,,,,,,,,,,,,,,,,,,,,,,,,,,,,,628.7316440474242,628.7316440474242,628.7316440474242,628.7316440474242,628.7316440474242,628.7316440474242,s,1,0.5467253448441625,629.2919608398806,630.3225558549166,,,,,,,,,,,,,547,2023-05-15_10h48.42.920,eb_02psyexp,2022.2.4,99.94111459593861,
281,0,281,0,,,,,,,,,,,,,,,,,,,,,,,,,,,,,,,,,,,,,,,,,,,,,,,,,,,,,,,,,,630.3225558549166,630.3225558549166,630.3225558549166,630.3225558549166,630.3225558549166,630.3225558549166,l,1,0.6038220542250201,630.9429316641763,631.9635021029972,,,,,,,,,,,,,547,2023-05-15_10h48.42.920,eb_02psyexp,2022.2.4,99.94111459593861,
282,0,282,0,,,,,,,,,,,,,,,,,,,,,,,,,,,,,,,,,,,,,,,,,,,,,,,,,,,,,,,,,,631.9635021029972,631.9635021029972,631.9635021029972,631.9635021029972,631.9635021029972,631.9635021029972,l,1,0.5468844171846285,632.5238680961775,,,,,,,,,,,,,,547,2023-05-15_10h48.42.920,eb_02psyexp,2022.2.4,99.94111459593861,
283,0,283,0,,,,,,,,,,,,,,,,,,,,,,,,,,,,,,,,,,,,,,,,,,,,,,,,,,,,,,,,,,633.5544549614424,633.5544549614424,633.5544549614424,633.5544549614424,633.5544549614424,633.5544549614424,s,1,0.5399597897194326,634.1050967142219,635.2054242765298,,,,,,,,,,,,,547,2023-05-15_10h48.42.920,eb_02psyexp,2022.2.4,99.94111459593861,
284,0,284,0,,,,,,,,,,,,,,,,,,,,,,,,,,,,,,,,,,,,,,,,,,,,,,,,,,,,,,,,,,635.2054242765298,635.2054242765298,635.2054242765298,635.2054242765298,635.2054242765298,635.2054242765298,l,1,0.592022025375627,635.8157854703022,636.8463750522351,,,,,,,,,,,,,547,2023-05-15_10h48.42.920,eb_02psyexp,2022.2.4,99.94111459593861,
285,0,285,0,,,,,,,,,,,,,,,,,,,,,,,,,,,,,,,,,,,,,,,,,,,,,,,,,,,,,,,,,,636.8463750522351,636.8463750522351,636.8463750522351,636.8463750522351,636.8463750522351,636.8463750522351,s,1,0.7510711288778111,637.6168369777733,638.63743548817,,,,,,,,,,,,,547,2023-05-15_10h48.42.920,eb_02psyexp,2022.2.4,99.94111459593861,
286,0,286,0,,,,,,,,,,,,,,,,,,,,,,,,,,,,,,,,,,,,,,,,,,,,,,,,,,,,,,,,,,638.63743548817,638.63743548817,638.63743548817,638.63743548817,638.63743548817,638.63743548817,l,1,0.5600019997218624,639.207749992609,640.2383353486657,,,,,,,,,,,,,547,2023-05-15_10h48.42.920,eb_02psyexp,2022.2.4,99.94111459593861,
287,0,287,0,,,,,,,,,,,,,,,,,,,,,,,,,,,,,,,,,,,,,,,,,,,,,,,,,,,,,,,,,,640.2383353486657,640.2383353486657,640.2383353486657,640.2383353486657,640.2383353486657,640.2383353486657,l,0,0.2711287329439074,640.5285282820696,,,,,,,,,,,,,,547,2023-05-15_10h48.42.920,eb_02psyexp,2022.2.4,99.94111459593861,
288,0,288,0,,,,,,,,,,,,,,,,,,,,,,,,,,,,,,,,,,,,,,,,,,,,,,,,,,,,,,,,,,641.5490978152957,641.5490978152957,641.5490978152957,641.5490978152957,641.5490978152957,641.5490978152957,l,1,0.7923469312954694,642.3595798679162,643.3901730719954,,,,,,,,,,,,,547,2023-05-15_10h48.42.920,eb_02psyexp,2022.2.4,99.94111459593861,
289,0,289,0,,,,,,,,,,,,,,,,,,,,,,,,,,,,,,,,,,,,,,,,,,,,,,,,,,,,,,,,,,643.3901730719954,643.3901730719954,643.3901730719954,643.3901730719954,643.3901730719954,643.3901730719954,s,1,0.44730935455299914,643.8504638453014,644.8710345861036,,,,,,,,,,,,,547,2023-05-15_10h48.42.920,eb_02psyexp,2022.2.4,99.94111459593861,
290,0,290,0,,,,,,,,,,,,,,,,,,,,,,,,,,,,,,,,,,,,,,,,,,,,,,,,,,,,,,,,,,644.8710345861036,644.8710345861036,644.8710345861036,644.8710345861036,644.8710345861036,644.8710345861036,l,1,0.5424430689308792,645.4313797518844,646.4622892895713,,,,,,,,,,,,,547,2023-05-15_10h48.42.920,eb_02psyexp,2022.2.4,99.94111459593861,
291,0,291,0,,,,,,,,,,,,,,,,,,,,,,,,,,,,,,,,,,,,,,,,,,,,,,,,,,,,,,,,,,646.4622892895713,646.4622892895713,646.4622892895713,646.4622892895713,646.4622892895713,646.4622892895713,l,1,0.6711851175641641,647.1526907373918,648.1829775687074,,,,,,,,,,,,,547,2023-05-15_10h48.42.920,eb_02psyexp,2022.2.4,99.94111459593861,
292,0,292,0,,,,,,,,,,,,,,,,,,,,,,,,,,,,,,,,,,,,,,,,,,,,,,,,,,,,,,,,,,648.1829775687074,648.1829775687074,648.1829775687074,648.1829775687074,648.1829775687074,648.1829775687074,s,1,0.534501223708503,648.7333156653913,649.7539452658966,,,,,,,,,,,,,547,2023-05-15_10h48.42.920,eb_02psyexp,2022.2.4,99.94111459593861,
293,0,293,0,,,,,,,,,,,,,,,,,,,,,,,,,,,,,,,,,,,,,,,,,,,,,,,,,,,,,,,,,,649.7539452658966,649.7539452658966,649.7539452658966,649.7539452658966,649.7539452658966,649.7539452658966,s,1,0.5395610523410141,650.3042190695414,651.3348198196618,,,,,,,,,,,,,547,2023-05-15_10h48.42.920,eb_02psyexp,2022.2.4,99.94111459593861,
294,0,294,0,,,,,,,,,,,,,,,,,,,,,,,,,,,,,,,,,,,,,,,,,,,,,,,,,,,,,,,,,,651.3348198196618,651.3348198196618,651.3348198196618,651.3348198196618,651.3348198196618,651.3348198196618,l,1,0.47772386635188013,651.8251037291484,652.8556890850887,,,,,,,,,,,,,547,2023-05-15_10h48.42.920,eb_02psyexp,2022.2.4,99.94111459593861,
295,0,295,0,,,,,,,,,,,,,,,,,,,,,,,,,,,,,,,,,,,,,,,,,,,,,,,,,,,,,,,,,,652.8556890850887,652.8556890850887,652.8556890850887,652.8556890850887,652.8556890850887,652.8556890850887,s,1,0.48482205474283546,653.3559996837284,,,,,,,,,,,,,,547,2023-05-15_10h48.42.920,eb_02psyexp,2022.2.4,99.94111459593861,
296,0,296,0,,,,,,,,,,,,,,,,,,,,,,,,,,,,,,,,,,,,,,,,,,,,,,,,,,,,,,,,,,654.3869575165445,654.3869575165445,654.3869575165445,654.3869575165445,654.3869575165445,654.3869575165445,l,1,0.5135631375014782,654.9172229168471,655.94754053629,,,,,,,,,,,,,547,2023-05-15_10h48.42.920,eb_02psyexp,2022.2.4,99.94111459593861,
297,0,297,0,,,,,,,,,,,,,,,,,,,,,,,,,,,,,,,,,,,,,,,,,,,,,,,,,,,,,,,,,,655.94754053629,655.94754053629,655.94754053629,655.94754053629,655.94754053629,655.94754053629,s,1,0.45699314773082733,656.4177831412526,657.4486866419902,,,,,,,,,,,,,547,2023-05-15_10h48.42.920,eb_02psyexp,2022.2.4,99.94111459593861,
298,0,298,0,,,,,,,,,,,,,,,,,,,,,,,,,,,,,,,,,,,,,,,,,,,,,,,,,,,,,,,,,,657.4486866419902,657.4486866419902,657.4486866419902,657.4486866419902,657.4486866419902,657.4486866419902,l,1,0.5799050591886044,658.0390587506117,659.0693295840174,,,,,,,,,,,,,547,2023-05-15_10h48.42.920,eb_02psyexp,2022.2.4,99.94111459593861,
299,0,299,0,,,,,,,,,,,,,,,,,,,,,,,,,,,,,,,,,,,,,,,,,,,,,,,,,,,,,,,,,,659.0693295840174,659.0693295840174,659.0693295840174,659.0693295840174,659.0693295840174,659.0693295840174,s,1,0.5272249466506764,659.6096699687187,660.6302216931945,,,,,,,,,,,,,547,2023-05-15_10h48.42.920,eb_02psyexp,2022.2.4,99.94111459593861,
300,0,300,0,,,,,,,,,,,,,,,,,,,,,,,,,,,,,,,,,,,,,,,,,,,,,,,,,,,,,,,,,,660.6302216931945,660.6302216931945,660.6302216931945,660.6302216931945,660.6302216931945,660.6302216931945,l,1,0.5343014021636918,661.1805631101597,662.2111412219238,,,,,,,,,,,,,547,2023-05-15_10h48.42.920,eb_02psyexp,2022.2.4,99.94111459593861,
301,0,301,0,,,,,,,,,,,,,,,,,,,,,,,,,,,,,,,,,,,,,,,,,,,,,,,,,,,,,,,,,,662.2111412219238,662.2111412219238,662.2111412219238,662.2111412219238,662.2111412219238,662.2111412219238,s,1,0.4494403807912022,662.6714389376575,663.6920030377805,,,,,,,,,,,,,547,2023-05-15_10h48.42.920,eb_02psyexp,2022.2.4,99.94111459593861,
302,0,302,0,,,,,,,,,,,,,,,,,,,,,,,,,,,,,,,,,,,,,,,,,,,,,,,,,,,,,,,,,,663.6920030377805,663.6920030377805,663.6920030377805,663.6920030377805,663.6920030377805,663.6920030377805,l,1,0.560598143725656,664.2723581162281,665.3029428686714,,,,,,,,,,,,,547,2023-05-15_10h48.42.920,eb_02psyexp,2022.2.4,99.94111459593861,
