trials.thisRepN,trials.thisTrialN,trials.thisN,trials.thisIndex,image_loop.thisRepN,image_loop.thisTrialN,image_loop.thisN,image_loop.thisIndex,break_loop.thisRepN,break_loop.thisTrialN,break_loop.thisN,break_loop.thisIndex,tool,correct_answer,tools,welcome_text.started,instructions_0_keypress.started,instructions_0_keypress.keys,instructions_0_keypress.rt,consent_image_0.started,consent0_key_resp.started,consent0_text.started,consent0_key_resp.keys,consent0_key_resp.rt,consent_image_1.started,consent1_key_resp.started,consent1_text.started,consent1_key_resp.keys,consent1_key_resp.rt,consent2_text.started,consent_image_2.started,consent2_key_resp.started,consent2_key_resp.keys,consent2_key_resp.rt,agree_button.started,disagree_button.started,consent_image_3.started,agree_button.numClicks,agree_button.timesOn,agree_button.timesOff,disagree_button.numClicks,disagree_button.timesOn,disagree_button.timesOff,instructions_text1.started,instructions1_key_resp.started,instr1_cnt_text.started,instructions1_key_resp.keys,instructions1_key_resp.rt,instructions_text2.started,instr2_cnt_text.started,instructions2_key_resp.started,instructions2_key_resp.keys,instructions2_key_resp.rt,instructions_text3.started,instructions3_key_resp.started,instr3_cnt_text.started,instructions3_key_resp.keys,instructions3_key_resp.rt,text_countdown.started,image.started,small_large_keyresp.started,task_question_text.started,smalleroption_text.started,largeroption_text.started,accuracy_score_text.started,small_large_keyresp.keys,small_large_keyresp.corr,small_large_keyresp.rt,fb_2.started,fb_2.stopped,break_text.started,break_key_resp.started,break_key_resp.keys,break_key_resp.rt,participant,date,expName,psychopyVersion,frameRate,
,,,,,,,,,,,,,,[ 4  7 11  5  3  8  9  0  1  2 10  6],13.69424342957791,13.69424342957791,return,7.475062774145044,,,,,,,,,,,,,,,,,,,,,,,,,,,,,,,,,,,,,,,,,,,,,,,,,,,,,,,,548,2023-05-15_10h32.40.081,eb_02psyexp,2022.2.4,119.99818897745351,
,,,,,,,,,,,,,,,,,,,21.177853910950944,21.177853910950944,21.177853910950944,space,40.230228776228614,,,,,,,,,,,,,,,,,,,,,,,,,,,,,,,,,,,,,,,,,,,,,,,,,,,548,2023-05-15_10h32.40.081,eb_02psyexp,2022.2.4,119.99818897745351,
,,,,,,,,,,,,,,,,,,,,,,,,61.422786613577046,61.422786613577046,61.422786613577046,space,10.320496245054528,,,,,,,,,,,,,,,,,,,,,,,,,,,,,,,,,,,,,,,,,,,,,,548,2023-05-15_10h32.40.081,eb_02psyexp,2022.2.4,119.99818897745351,
,,,,,,,,,,,,,,,,,,,,,,,,,,,,,71.75696864689235,71.75696864689235,71.75696864689235,space,8.521480274270289,,,,,,,,,,,,,,,,,,,,,,,,,,,,,,,,,,,,,,,,,548,2023-05-15_10h32.40.081,eb_02psyexp,2022.2.4,119.99818897745351,
,,,,,,,,,,,,,,,,,,,,,,,,,,,,,,,,,,80.29932838503737,80.29932838503737,80.29932838503737,1,[3.291709101642482],[3.2917139312485233],0,,,83.58294158312492,85.57476538757328,85.57476538757328,space,1.2398019309621304,,,,,,,,,,,,,,,,,,,,,,,,,,,548,2023-05-15_10h32.40.081,eb_02psyexp,2022.2.4,119.99818897745351,
,,,,,,,,,,,,,,,,,,,,,,,,,,,,,,,,,,,,,,,,,,,,,,,,86.82486877101474,89.81678705429658,89.81678705429658,space,15.48516990058124,,,,,,,,,,,,,,,,,,,,,,548,2023-05-15_10h32.40.081,eb_02psyexp,2022.2.4,119.99818897745351,
,,,,,,,,,,,,,,,,,,,,,,,,,,,,,,,,,,,,,,,,,,,,,,,,,,,,,105.31807202729397,108.3100340787787,108.3100340787787,space,8.327155647217296,,,,,,,,,,,,,,,,,548,2023-05-15_10h32.40.081,eb_02psyexp,2022.2.4,119.99818897745351,
0,0,0,0,,,,,,,,,,,,,,,,,,,,,,,,,,,,,,,,,,,,,,,,,,,,,,,,,,,,,,,116.66070101514924,121.70279331470374,121.70279331470374,121.70279331470374,121.70279331470374,121.70279331470374,121.70279331470374,l,0,4.189591994741932,125.90314013964962,126.93656090868171,,,,,548,2023-05-15_10h32.40.081,eb_02psyexp,2022.2.4,119.99818897745351,
1,0,1,0,,,,,,,,,,,,,,,,,,,,,,,,,,,,,,,,,,,,,,,,,,,,,,,,,,,,,,,,126.93656090868171,126.93656090868171,126.93656090868171,126.93656090868171,126.93656090868171,126.93656090868171,l,1,1.2598728052107617,128.21166829171125,129.2451150197303,,,,,548,2023-05-15_10h32.40.081,eb_02psyexp,2022.2.4,119.99818897745351,
2,0,2,0,,,,,,,,,,,,,,,,,,,,,,,,,,,,,,,,,,,,,,,,,,,,,,,,,,,,,,,,129.2451150197303,129.2451150197303,129.2451150197303,129.2451150197303,129.2451150197303,129.2451150197303,s,1,1.23137912445236,130.48688222747296,131.52029092248995,,,,,548,2023-05-15_10h32.40.081,eb_02psyexp,2022.2.4,119.99818897745351,
3,0,3,0,,,,,,,,,,,,,,,,,,,,,,,,,,,,,,,,,,,,,,,,,,,,,,,,,,,,,,,,131.52029092248995,131.52029092248995,131.52029092248995,131.52029092248995,131.52029092248995,131.52029092248995,l,1,0.6842359784059227,132.22033982211724,133.2371009173803,,,,,548,2023-05-15_10h32.40.081,eb_02psyexp,2022.2.4,119.99818897745351,
4,0,4,0,,,,,,,,,,,,,,,,,,,,,,,,,,,,,,,,,,,,,,,,,,,,,,,,,,,,,,,,133.2371009173803,133.2371009173803,133.2371009173803,133.2371009173803,133.2371009173803,133.2371009173803,s,1,1.0874419212341309,134.33718452963512,135.3706270318944,,,,,548,2023-05-15_10h32.40.081,eb_02psyexp,2022.2.4,119.99818897745351,
5,0,5,0,,,,,,,,,,,,,,,,,,,,,,,,,,,,,,,,,,,,,,,,,,,,,,,,,,,,,,,,135.3706270318944,135.3706270318944,135.3706270318944,135.3706270318944,135.3706270318944,135.3706270318944,s,1,0.8740117345005274,136.25402802973986,137.2874460822204,,,,,548,2023-05-15_10h32.40.081,eb_02psyexp,2022.2.4,119.99818897745351,
6,0,6,0,,,,,,,,,,,,,,,,,,,,,,,,,,,,,,,,,,,,,,,,,,,,,,,,,,,,,,,,137.2874460822204,137.2874460822204,137.2874460822204,137.2874460822204,137.2874460822204,137.2874460822204,l,1,0.5891823850106448,137.88748441706412,138.92091635451652,,,,,548,2023-05-15_10h32.40.081,eb_02psyexp,2022.2.4,119.99818897745351,
7,0,7,0,,,,,,,,,,,,,,,,,,,,,,,,,,,,,,,,,,,,,,,,,,,,,,,,,,,,,,,,138.92091635451652,138.92091635451652,138.92091635451652,138.92091635451652,138.92091635451652,138.92091635451652,s,1,0.4997290042228997,139.42928241332993,140.46271404903382,,,,,548,2023-05-15_10h32.40.081,eb_02psyexp,2022.2.4,119.99818897745351,
8,0,8,0,,,,,,,,,,,,,,,,,,,,,,,,,,,,,,,,,,,,,,,,,,,,,,,,,,,,,,,,140.46271404903382,140.46271404903382,140.46271404903382,140.46271404903382,140.46271404903382,140.46271404903382,l,1,0.44496446184348315,140.92107361811213,141.93782988376915,,,,,548,2023-05-15_10h32.40.081,eb_02psyexp,2022.2.4,119.99818897745351,
9,0,9,0,,,,,,,,,,,,,,,,,,,,,,,,,,,,,,,,,,,,,,,,,,,,,,,,,,,,,,,,141.93782988376915,141.93782988376915,141.93782988376915,141.93782988376915,141.93782988376915,141.93782988376915,s,1,0.6498888335190713,142.59622869326267,143.6213135883445,,,,,548,2023-05-15_10h32.40.081,eb_02psyexp,2022.2.4,119.99818897745351,
10,0,10,0,,,,,,,,,,,,,,,,,,,,,,,,,,,,,,,,,,,,,,,,,,,,,,,,,,,,,,,,143.6213135883445,143.6213135883445,143.6213135883445,143.6213135883445,143.6213135883445,143.6213135883445,l,0,1.1584661868400872,144.7880715142237,145.80482989281882,,,,,548,2023-05-15_10h32.40.081,eb_02psyexp,2022.2.4,119.99818897745351,
11,0,11,0,,,,,,,,,,,,,,,,,,,,,,,,,,,,,,,,,,,,,,,,,,,,,,,,,,,,,,,,145.80482989281882,145.80482989281882,145.80482989281882,145.80482989281882,145.80482989281882,145.80482989281882,l,0,1.4389854283072054,147.25492723926436,148.28004171559587,,,,,548,2023-05-15_10h32.40.081,eb_02psyexp,2022.2.4,119.99818897745351,
12,0,12,0,,,,,,,,,,,,,,,,,,,,,,,,,,,,,,,,,,,,,,,,,,,,,,,,,,,,,,,,148.28004171559587,148.28004171559587,148.28004171559587,148.28004171559587,148.28004171559587,148.28004171559587,s,1,0.9237999870674685,149.21344497741666,150.23020909109619,,,,,548,2023-05-15_10h32.40.081,eb_02psyexp,2022.2.4,119.99818897745351,
13,0,13,0,,,,,,,,,,,,,,,,,,,,,,,,,,,,,,,,,,,,,,,,,,,,,,,,,,,,,,,,150.23020909109619,150.23020909109619,150.23020909109619,150.23020909109619,150.23020909109619,150.23020909109619,s,1,0.48568606306798756,150.73024138901383,151.76367151539307,,,,,548,2023-05-15_10h32.40.081,eb_02psyexp,2022.2.4,119.99818897745351,
14,0,14,0,,,,,,,,,,,,,,,,,,,,,,,,,,,,,,,,,,,,,,,,,,,,,,,,,,,,,,,,151.76367151539307,151.76367151539307,151.76367151539307,151.76367151539307,151.76367151539307,151.76367151539307,s,1,0.5282483422197402,152.30538318282925,153.32214820210356,,,,,548,2023-05-15_10h32.40.081,eb_02psyexp,2022.2.4,119.99818897745351,
15,0,15,0,,,,,,,,,,,,,,,,,,,,,,,,,,,,,,,,,,,,,,,,,,,,,,,,,,,,,,,,153.32214820210356,153.32214820210356,153.32214820210356,153.32214820210356,153.32214820210356,153.32214820210356,l,1,1.0817958276020363,154.41388779052068,155.4306506968569,,,,,548,2023-05-15_10h32.40.081,eb_02psyexp,2022.2.4,119.99818897745351,
16,0,16,0,,,,,,,,,,,,,,,,,,,,,,,,,,,,,,,,,,,,,,,,,,,,,,,,,,,,,,,,155.4306506968569,155.4306506968569,155.4306506968569,155.4306506968569,155.4306506968569,155.4306506968569,s,1,0.7483255553524941,156.18904618604574,157.22246967174578,,,,,548,2023-05-15_10h32.40.081,eb_02psyexp,2022.2.4,119.99818897745351,
17,0,17,0,,,,,,,,,,,,,,,,,,,,,,,,,,,,,,,,,,,,,,,,,,,,,,,,,,,,,,,,157.22246967174578,157.22246967174578,157.22246967174578,157.22246967174578,157.22246967174578,157.22246967174578,l,1,0.6205240151612088,157.85583912639413,158.88929008040577,,,,,548,2023-05-15_10h32.40.081,eb_02psyexp,2022.2.4,119.99818897745351,
18,0,18,0,,,,,,,,,,,,,,,,,,,,,,,,,,,,,,,,,,,,,,,,,,,,,,,,,,,,,,,,158.88929008040577,158.88929008040577,158.88929008040577,158.88929008040577,158.88929008040577,158.88929008040577,s,1,0.4817722833249718,159.3809762414312,160.40609343454707,,,,,548,2023-05-15_10h32.40.081,eb_02psyexp,2022.2.4,119.99818897745351,
19,0,19,0,,,,,,,,,,,,,,,,,,,,,,,,,,,,,,,,,,,,,,,,,,,,,,,,,,,,,,,,160.40609343454707,160.40609343454707,160.40609343454707,160.40609343454707,160.40609343454707,160.40609343454707,s,1,0.6609917611349374,161.08112052548677,162.09788524289615,,,,,548,2023-05-15_10h32.40.081,eb_02psyexp,2022.2.4,119.99818897745351,
20,0,20,0,,,,,,,,,,,,,,,,,,,,,,,,,,,,,,,,,,,,,,,,,,,,,,,,,,,,,,,,162.09788524289615,162.09788524289615,162.09788524289615,162.09788524289615,162.09788524289615,162.09788524289615,s,1,0.513231031014584,162.62292154028546,163.65634925186168,,,,,548,2023-05-15_10h32.40.081,eb_02psyexp,2022.2.4,119.99818897745351,
21,0,21,0,,,,,,,,,,,,,,,,,,,,,,,,,,,,,,,,,,,,,,,,,,,,,,,,,,,,,,,,163.65634925186168,163.65634925186168,163.65634925186168,163.65634925186168,163.65634925186168,163.65634925186168,l,1,0.4268052000552416,164.09804582677316,165.12314641813282,,,,,548,2023-05-15_10h32.40.081,eb_02psyexp,2022.2.4,119.99818897745351,
22,0,22,0,,,,,,,,,,,,,,,,,,,,,,,,,,,,,,,,,,,,,,,,,,,,,,,,,,,,,,,,165.12314641813282,165.12314641813282,165.12314641813282,165.12314641813282,165.12314641813282,165.12314641813282,l,1,0.8880253961542621,166.02320588252041,167.05663812183775,,,,,548,2023-05-15_10h32.40.081,eb_02psyexp,2022.2.4,119.99818897745351,
23,0,23,0,,,,,,,,,,,,,,,,,,,,,,,,,,,,,,,,,,,,,,,,,,,,,,,,,,,,,,,,167.05663812183775,167.05663812183775,167.05663812183775,167.05663812183775,167.05663812183775,167.05663812183775,s,1,0.7225729691563174,167.79002870596014,168.8151151103666,,,,,548,2023-05-15_10h32.40.081,eb_02psyexp,2022.2.4,119.99818897745351,
24,0,24,0,,,,,,,,,,,,,,,,,,,,,,,,,,,,,,,,,,,,,,,,,,,,,,,,,,,,,,,,168.8151151103666,168.8151151103666,168.8151151103666,168.8151151103666,168.8151151103666,168.8151151103666,l,1,0.6441416202578694,169.47349912917707,170.50693317956757,,,,,548,2023-05-15_10h32.40.081,eb_02psyexp,2022.2.4,119.99818897745351,
25,0,25,0,,,,,,,,,,,,,,,,,,,,,,,,,,,,,,,,,,,,,,,,,,,,,,,,,,,,,,,,170.50693317956757,170.50693317956757,170.50693317956757,170.50693317956757,170.50693317956757,170.50693317956757,s,1,0.7033593473024666,171.22364869562443,172.24041190370917,,,,,548,2023-05-15_10h32.40.081,eb_02psyexp,2022.2.4,119.99818897745351,
26,0,26,0,,,,,,,,,,,,,,,,,,,,,,,,,,,,,,,,,,,,,,,,,,,,,,,,,,,,,,,,172.24041190370917,172.24041190370917,172.24041190370917,172.24041190370917,172.24041190370917,172.24041190370917,l,1,0.7619552644900978,173.01547340559773,174.04889990983065,,,,,548,2023-05-15_10h32.40.081,eb_02psyexp,2022.2.4,119.99818897745351,
27,0,27,0,,,,,,,,,,,,,,,,,,,,,,,,,,,,,,,,,,,,,,,,,,,,,,,,,,,,,,,,174.04889990983065,174.04889990983065,174.04889990983065,174.04889990983065,174.04889990983065,174.04889990983065,s,1,0.6014749013120309,174.6655924852239,175.68238768936135,,,,,548,2023-05-15_10h32.40.081,eb_02psyexp,2022.2.4,119.99818897745351,
28,0,28,0,,,,,,,,,,,,,,,,,,,,,,,,,,,,,,,,,,,,,,,,,,,,,,,,,,,,,,,,175.68238768936135,175.68238768936135,175.68238768936135,175.68238768936135,175.68238768936135,175.68238768936135,l,1,0.6400150366825983,176.33241923269816,177.3658493590774,,,,,548,2023-05-15_10h32.40.081,eb_02psyexp,2022.2.4,119.99818897745351,
29,0,29,0,,,,,,,,,,,,,,,,,,,,,,,,,,,,,,,,,,,,,,,,,,,,,,,,,,,,,,,,177.3658493590774,177.3658493590774,177.3658493590774,177.3658493590774,177.3658493590774,177.3658493590774,s,1,0.49256038200110197,177.8742154178908,178.89931329258252,,,,,548,2023-05-15_10h32.40.081,eb_02psyexp,2022.2.4,119.99818897745351,
30,0,30,0,,,,,,,,,,,,,,,,,,,,,,,,,,,,,,,,,,,,,,,,,,,,,,,,,,,,,,,,178.89931329258252,178.89931329258252,178.89931329258252,178.89931329258252,178.89931329258252,178.89931329258252,l,1,0.7591571202501655,179.67437147407327,180.6994817245286,,,,,548,2023-05-15_10h32.40.081,eb_02psyexp,2022.2.4,119.99818897745351,
31,0,31,0,,,,,,,,,,,,,,,,,,,,,,,,,,,,,,,,,,,,,,,,,,,,,,,,,,,,,,,,180.6994817245286,180.6994817245286,180.6994817245286,180.6994817245286,180.6994817245286,180.6994817245286,s,1,0.5590442285174504,181.27450670255348,182.29960427538026,,,,,548,2023-05-15_10h32.40.081,eb_02psyexp,2022.2.4,119.99818897745351,
32,0,32,0,,,,,,,,,,,,,,,,,,,,,,,,,,,,,,,,,,,,,,,,,,,,,,,,,,,,,,,,182.29960427538026,182.29960427538026,182.29960427538026,182.29960427538026,182.29960427538026,182.29960427538026,l,1,0.7509299120865762,183.06634982535616,184.0997567094164,,,,,548,2023-05-15_10h32.40.081,eb_02psyexp,2022.2.4,119.99818897745351,
33,0,33,0,,,,,,,,,,,,,,,,,,,,,,,,,,,,,,,,,,,,,,,,,,,,,,,,,,,,,,,,184.0997567094164,184.0997567094164,184.0997567094164,184.0997567094164,184.0997567094164,184.0997567094164,s,1,0.5427962773246691,184.65813167276792,185.67489457910415,,,,,548,2023-05-15_10h32.40.081,eb_02psyexp,2022.2.4,119.99818897745351,
34,0,34,0,,,,,,,,,,,,,,,,,,,,,,,,,,,,,,,,,,,,,,,,,,,,,,,,,,,,,,,,185.67489457910415,185.67489457910415,185.67489457910415,185.67489457910415,185.67489457910415,185.67489457910415,l,1,0.5427277574781328,186.23327889980283,187.25836258765776,,,,,548,2023-05-15_10h32.40.081,eb_02psyexp,2022.2.4,119.99818897745351,
35,0,35,0,,,,,,,,,,,,,,,,,,,,,,,,,,,,,,,,,,,,,,,,,,,,,,,,,,,,,,,,187.25836258765776,187.25836258765776,187.25836258765776,187.25836258765776,187.25836258765776,187.25836258765776,s,1,0.5833274116739631,187.85009070578963,188.8751695639221,,,,,548,2023-05-15_10h32.40.081,eb_02psyexp,2022.2.4,119.99818897745351,
36,0,36,0,,,,,,,,,,,,,,,,,,,,,,,,,,,,,,,,,,,,,,,,,,,,,,,,,,,,,,,,188.8751695639221,188.8751695639221,188.8751695639221,188.8751695639221,188.8751695639221,188.8751695639221,l,1,0.4625112711219117,189.35021084186155,190.375294831465,,,,,548,2023-05-15_10h32.40.081,eb_02psyexp,2022.2.4,119.99818897745351,
37,0,37,0,,,,,,,,,,,,,,,,,,,,,,,,,,,,,,,,,,,,,,,,,,,,,,,,,,,,,,,,190.375294831465,190.375294831465,190.375294831465,190.375294831465,190.375294831465,190.375294831465,l,0,0.6663981863530353,191.05034184455872,192.0670999212889,,,,,548,2023-05-15_10h32.40.081,eb_02psyexp,2022.2.4,119.99818897745351,
38,0,38,0,,,,,,,,,,,,,,,,,,,,,,,,,,,,,,,,,,,,,,,,,,,,,,,,,,,,,,,,192.0670999212889,192.0670999212889,192.0670999212889,192.0670999212889,192.0670999212889,192.0670999212889,l,1,0.5186124027241021,192.60047420545015,193.63389708753675,,,,,548,2023-05-15_10h32.40.081,eb_02psyexp,2022.2.4,119.99818897745351,
39,0,39,0,,,,,,,,,,,,,,,,,,,,,,,,,,,,,,,,,,,,,,,,,,,,,,,,,,,,,,,,193.63389708753675,193.63389708753675,193.63389708753675,193.63389708753675,193.63389708753675,193.63389708753675,s,1,0.5518665509298444,194.20061154698487,195.225674407091,,,,,548,2023-05-15_10h32.40.081,eb_02psyexp,2022.2.4,119.99818897745351,
40,0,40,0,,,,,,,,,,,,,,,,,,,,,,,,,,,,,,,,,,,,,,,,,,,,,,,,,,,,,,,,195.225674407091,195.225674407091,195.225674407091,195.225674407091,195.225674407091,195.225674407091,l,1,0.6641044324496761,195.90076247171964,196.92584797053132,,,,,548,2023-05-15_10h32.40.081,eb_02psyexp,2022.2.4,119.99818897745351,
41,0,41,0,,,,,,,,,,,,,,,,,,,,,,,,,,,,,,,,,,,,,,,,,,,,,,,,,,,,,,,,196.92584797053132,196.92584797053132,196.92584797053132,196.92584797053132,196.92584797053132,196.92584797053132,s,1,0.9159826905233786,197.85091837693471,198.87601323309354,,,,,548,2023-05-15_10h32.40.081,eb_02psyexp,2022.2.4,119.99818897745351,
42,0,42,0,,,,,,,,,,,,,,,,,,,,,,,,,,,,,,,,,,,,,,,,,,,,,,,,,,,,,,,,198.87601323309354,198.87601323309354,198.87601323309354,198.87601323309354,198.87601323309354,198.87601323309354,l,1,0.8138498223852366,199.70109631714877,200.73455360997468,,,,,548,2023-05-15_10h32.40.081,eb_02psyexp,2022.2.4,119.99818897745351,
43,0,43,0,,,,,,,,,,,,,,,,,,,,,,,,,,,,,,,,,,,,,,,,,,,,,,,,,,,,,,,,200.73455360997468,200.73455360997468,200.73455360997468,200.73455360997468,200.73455360997468,200.73455360997468,l,1,0.6033321808790788,201.35122233931907,202.3763337972341,,,,,548,2023-05-15_10h32.40.081,eb_02psyexp,2022.2.4,119.99818897745351,
44,0,44,0,,,,,,,,,,,,,,,,,,,,,,,,,,,,,,,,,,,,,,,,,,,,,,,,,,,,,,,,202.3763337972341,202.3763337972341,202.3763337972341,202.3763337972341,202.3763337972341,202.3763337972341,l,1,0.5285824895836413,202.91801799624227,203.95145868742839,,,,,548,2023-05-15_10h32.40.081,eb_02psyexp,2022.2.4,119.99818897745351,
45,0,45,0,,,,,,,,,,,,,,,,,,,,,,,,,,,,,,,,,,,,,,,,,,,,,,,,,,,,,,,,203.95145868742839,203.95145868742839,203.95145868742839,203.95145868742839,203.95145868742839,203.95145868742839,s,1,0.4895110990619287,204.45149098534603,205.46825358981732,,,,,548,2023-05-15_10h32.40.081,eb_02psyexp,2022.2.4,119.99818897745351,
46,0,46,0,,,,,,,,,,,,,,,,,,,,,,,,,,,,,,,,,,,,,,,,,,,,,,,,,,,,,,,,205.46825358981732,205.46825358981732,205.46825358981732,205.46825358981732,205.46825358981732,205.46825358981732,l,1,0.5087265319889411,205.99328143533785,207.02672001358587,,,,,548,2023-05-15_10h32.40.081,eb_02psyexp,2022.2.4,119.99818897745351,
47,0,47,0,,,,,,,,,,,,,,,,,,,,,,,,,,,,,,,,,,,,,,,,,,,,,,,,,,,,,,,,207.02672001358587,207.02672001358587,207.02672001358587,207.02672001358587,207.02672001358587,207.02672001358587,s,1,0.44631312508136034,207.48510463617276,208.50185365742072,,,,,548,2023-05-15_10h32.40.081,eb_02psyexp,2022.2.4,119.99818897745351,
48,0,48,0,,,,,,,,,,,,,,,,,,,,,,,,,,,,,,,,,,,,,,,,,,,,,,,,,,,,,,,,208.50185365742072,208.50185365742072,208.50185365742072,208.50185365742072,208.50185365742072,208.50185365742072,l,1,0.48322538658976555,208.99354374257382,210.0186404098058,,,,,548,2023-05-15_10h32.40.081,eb_02psyexp,2022.2.4,119.99818897745351,
49,0,49,0,,,,,,,,,,,,,,,,,,,,,,,,,,,,,,,,,,,,,,,,,,,,,,,,,,,,,,,,210.0186404098058,210.0186404098058,210.0186404098058,210.0186404098058,210.0186404098058,210.0186404098058,s,1,0.9264453954529017,210.96038045105524,211.9854701757431,,,,,548,2023-05-15_10h32.40.081,eb_02psyexp,2022.2.4,119.99818897745351,
50,0,50,0,,,,,,,,,,,,,,,,,,,,,,,,,,,,,,,,,,,,,,,,,,,,,,,,,,,,,,,,211.9854701757431,211.9854701757431,211.9854701757431,211.9854701757431,211.9854701757431,211.9854701757431,l,1,0.5356566327391192,212.5355150004616,213.56894633418415,,,,,548,2023-05-15_10h32.40.081,eb_02psyexp,2022.2.4,119.99818897745351,
51,0,51,0,,,,,,,,,,,,,,,,,,,,,,,,,,,,,,,,,,,,,,,,,,,,,,,,,,,,,,,,213.56894633418415,213.56894633418415,213.56894633418415,213.56894633418415,213.56894633418415,213.56894633418415,s,1,0.4642179277725518,214.04397674556822,215.06907250732183,,,,,548,2023-05-15_10h32.40.081,eb_02psyexp,2022.2.4,119.99818897745351,
52,0,52,0,,,,,,,,,,,,,,,,,,,,,,,,,,,,,,,,,,,,,,,,,,,,,,,,,,,,,,,,215.06907250732183,215.06907250732183,215.06907250732183,215.06907250732183,215.06907250732183,215.06907250732183,l,1,0.5960760223679245,215.6774784103036,216.70256300352048,,,,,548,2023-05-15_10h32.40.081,eb_02psyexp,2022.2.4,119.99818897745351,
53,0,53,0,,,,,,,,,,,,,,,,,,,,,,,,,,,,,,,,,,,,,,,,,,,,,,,,,,,,,,,,216.70256300352048,216.70256300352048,216.70256300352048,216.70256300352048,216.70256300352048,216.70256300352048,s,1,0.6026560381287709,217.31925829558168,218.34435647213832,,,,,548,2023-05-15_10h32.40.081,eb_02psyexp,2022.2.4,119.99818897745351,
54,0,54,0,,,,,,,,,,,,,,,,,,,,,,,,,,,,,,,,,,,,,,,,,,,,,,,,,,,,,,,,218.34435647213832,218.34435647213832,218.34435647213832,218.34435647213832,218.34435647213832,218.34435647213832,l,1,0.43988011009059846,218.79438318579923,219.82781421777327,,,,,548,2023-05-15_10h32.40.081,eb_02psyexp,2022.2.4,119.99818897745351,
55,0,55,0,,,,,,,,,,,,,,,,,,,,,,,,,,,,,,,,,,,,,,,,,,,,,,,,,,,,,,,,219.82781421777327,219.82781421777327,219.82781421777327,219.82781421777327,219.82781421777327,219.82781421777327,s,1,0.4444618825800717,220.28617982380092,221.31129762053024,,,,,548,2023-05-15_10h32.40.081,eb_02psyexp,2022.2.4,119.99818897745351,
56,0,56,0,,,,,,,,,,,,,,,,,,,,,,,,,,,,,,,,,,,,,,,,,,,,,,,,,,,,,,,,221.31129762053024,221.31129762053024,221.31129762053024,221.31129762053024,221.31129762053024,221.31129762053024,s,1,0.552998184459284,221.87799638381694,222.90306799765676,,,,,548,2023-05-15_10h32.40.081,eb_02psyexp,2022.2.4,119.99818897745351,
57,0,57,0,,,,,,,,,,,,,,,,,,,,,,,,,,,,,,,,,,,,,,,,,,,,,,,,,,,,,,,,222.90306799765676,222.90306799765676,222.90306799765676,222.90306799765676,222.90306799765676,222.90306799765676,l,1,0.5212867887457833,223.4364398671314,224.46154679730535,,,,,548,2023-05-15_10h32.40.081,eb_02psyexp,2022.2.4,119.99818897745351,
58,0,58,0,,,,,,,,,,,,,,,,,,,,,,,,,,,,,,,,,,,,,,,,,,,,,,,,,,,,,,,,224.46154679730535,224.46154679730535,224.46154679730535,224.46154679730535,224.46154679730535,224.46154679730535,s,1,0.45885225234087557,224.9365781141678,225.9616738759214,,,,,548,2023-05-15_10h32.40.081,eb_02psyexp,2022.2.4,119.99818897745351,
59,0,59,0,,,,,,,,,,,,,,,,,,,,,,,,,,,,,,,,,,,,,,,,,,,,,,,,,,,,,,,,225.9616738759214,225.9616738759214,225.9616738759214,225.9616738759214,225.9616738759214,225.9616738759214,l,1,0.46272709348704666,226.43670489091892,227.47013622464146,,,,,548,2023-05-15_10h32.40.081,eb_02psyexp,2022.2.4,119.99818897745351,
60,0,60,0,,,,,,,,,,,,,,,,,,,,,,,,,,,,,,,,,,,,,,,,,,,,,,,,,,,,,,,,227.47013622464146,227.47013622464146,227.47013622464146,227.47013622464146,227.47013622464146,227.47013622464146,l,1,0.610332069103606,228.09519033122342,229.12859540409409,,,,,548,2023-05-15_10h32.40.081,eb_02psyexp,2022.2.4,119.99818897745351,
61,0,61,0,,,,,,,,,,,,,,,,,,,,,,,,,,,,,,,,,,,,,,,,,,,,,,,,,,,,,,,,229.12859540409409,229.12859540409409,229.12859540409409,229.12859540409409,229.12859540409409,229.12859540409409,s,1,0.511885688174516,229.65365735872183,230.67042207613122,,,,,548,2023-05-15_10h32.40.081,eb_02psyexp,2022.2.4,119.99818897745351,
62,0,62,0,,,,,,,,,,,,,,,,,,,,,,,,,,,,,,,,,,,,,,,,,,,,,,,,,,,,,,,,230.67042207613122,230.67042207613122,230.67042207613122,230.67042207613122,230.67042207613122,230.67042207613122,l,1,0.6900894425343722,231.3704667497659,232.3872423338471,,,,,548,2023-05-15_10h32.40.081,eb_02psyexp,2022.2.4,119.99818897745351,
63,0,63,0,,,,,,,,,,,,,,,,,,,,,,,,,,,,,,,,,,,,,,,,,,,,,,,,,,,,,,,,232.3872423338471,232.3872423338471,232.3872423338471,232.3872423338471,232.3872423338471,232.3872423338471,s,1,0.6603325220057741,233.062276065466,234.09570106037427,,,,,548,2023-05-15_10h32.40.081,eb_02psyexp,2022.2.4,119.99818897745351,
64,0,64,0,,,,,,,,,,,,,,,,,,,,,,,,,,,,,,,,,,,,,,,,,,,,,,,,,,,,,,,,234.09570106037427,234.09570106037427,234.09570106037427,234.09570106037427,234.09570106037427,234.09570106037427,l,1,0.5278625786304474,234.63741031300742,235.65417321934365,,,,,548,2023-05-15_10h32.40.081,eb_02psyexp,2022.2.4,119.99818897745351,
65,0,65,0,,,,,,,,,,,,,,,,,,,,,,,,,,,,,,,,,,,,,,,,,,,,,,,,,,,,,,,,235.65417321934365,235.65417321934365,235.65417321934365,235.65417321934365,235.65417321934365,235.65417321934365,s,1,0.8014244924997911,236.47090080927592,237.50434693368152,,,,,548,2023-05-15_10h32.40.081,eb_02psyexp,2022.2.4,119.99818897745351,
66,0,66,0,,,,,,,,,,,,,,,,,,,,,,,,,,,,,,,,,,,,,,,,,,,,,,,,,,,,,,,,237.50434693368152,237.50434693368152,237.50434693368152,237.50434693368152,237.50434693368152,237.50434693368152,l,1,0.6232949929544702,238.13772272714414,239.154467220651,,,,,548,2023-05-15_10h32.40.081,eb_02psyexp,2022.2.4,119.99818897745351,
67,0,67,0,,,,,,,,,,,,,,,,,,,,,,,,,,,,,,,,,,,,,,,,,,,,,,,,,,,,,,,,239.154467220651,239.154467220651,239.154467220651,239.154467220651,239.154467220651,239.154467220651,s,1,0.4691960286581889,239.63784588174894,240.66296065994538,,,,,548,2023-05-15_10h32.40.081,eb_02psyexp,2022.2.4,119.99818897745351,
68,0,68,0,,,,,,,,,,,,,,,,,,,,,,,,,,,,,,,,,,,,,,,,,,,,,,,,,,,,,,,,240.66296065994538,240.66296065994538,240.66296065994538,240.66296065994538,240.66296065994538,240.66296065994538,s,1,0.9047460436122492,241.57967044087127,242.59642278240062,,,,,548,2023-05-15_10h32.40.081,eb_02psyexp,2022.2.4,119.99818897745351,
69,0,69,0,,,,,,,,,,,,,,,,,,,,,,,,,,,,,,,,,,,,,,,,,,,,,,,,,,,,,,,,242.59642278240062,242.59642278240062,242.59642278240062,242.59642278240062,242.59642278240062,242.59642278240062,s,1,0.659330080030486,243.27150088595226,244.28824990720022,,,,,548,2023-05-15_10h32.40.081,eb_02psyexp,2022.2.4,119.99818897745351,
70,0,70,0,,,,,,,,,,,,,,,,,,,,,,,,,,,,,,,,,,,,,,,,,,,,,,,,,,,,,,,,244.28824990720022,244.28824990720022,244.28824990720022,244.28824990720022,244.28824990720022,244.28824990720022,l,1,0.6155335385119542,244.91330190072767,245.93839192739688,,,,,548,2023-05-15_10h32.40.081,eb_02psyexp,2022.2.4,119.99818897745351,
71,0,71,0,,,,,,,,,,,,,,,,,,,,,,,,,,,,,,,,,,,,,,,,,,,,,,,,,,,,,,,,245.93839192739688,245.93839192739688,245.93839192739688,245.93839192739688,245.93839192739688,245.93839192739688,l,1,0.6614161614561453,246.61344709037803,247.63853621145245,,,,,548,2023-05-15_10h32.40.081,eb_02psyexp,2022.2.4,119.99818897745351,
72,0,72,0,,,,,,,,,,,,,,,,,,,,,,,,,,,,,,,,,,,,,,,,,,,,,,,,,,,,,,,,247.63853621145245,247.63853621145245,247.63853621145245,247.63853621145245,247.63853621145245,247.63853621145245,s,1,1.2243354680249467,248.87198082660325,249.88873075332958,,,,,548,2023-05-15_10h32.40.081,eb_02psyexp,2022.2.4,119.99818897745351,
73,0,73,0,,,,,,,,,,,,,,,,,,,,,,,,,,,,,,,,,,,,,,,,,,,,,,,,,,,,,,,,249.88873075332958,249.88873075332958,249.88873075332958,249.88873075332958,249.88873075332958,249.88873075332958,s,1,0.6381553423125297,250.53877437056508,251.5638843192719,,,,,548,2023-05-15_10h32.40.081,eb_02psyexp,2022.2.4,119.99818897745351,
74,0,74,0,,,,,,,,,,,,,,,,,,,,,,,,,,,,,,,,,,,,,,,,,,,,,,,,,,,,,,,,251.5638843192719,251.5638843192719,251.5638843192719,251.5638843192719,251.5638843192719,251.5638843192719,s,1,0.4350807040464133,252.01391586253885,253.03902098163962,,,,,548,2023-05-15_10h32.40.081,eb_02psyexp,2022.2.4,119.99818897745351,
75,0,75,0,,,,,,,,,,,,,,,,,,,,,,,,,,,,,,,,,,,,,,,,,,,,,,,,,,,,,,,,253.03902098163962,253.03902098163962,253.03902098163962,253.03902098163962,253.03902098163962,253.03902098163962,l,1,0.6239385360386223,253.67237836227287,254.68914187233895,,,,,548,2023-05-15_10h32.40.081,eb_02psyexp,2022.2.4,119.99818897745351,
76,0,76,0,,,,,,,,,,,,,,,,,,,,,,,,,,,,,,,,,,,,,,,,,,,,,,,,,,,,,,,,254.68914187233895,254.68914187233895,254.68914187233895,254.68914187233895,254.68914187233895,254.68914187233895,l,1,0.8617983028525487,255.5641909983242,256.5893078894587,,,,,548,2023-05-15_10h32.40.081,eb_02psyexp,2022.2.4,119.99818897745351,
77,0,77,0,,,,,,,,,,,,,,,,,,,,,,,,,,,,,,,,,,,,,,,,,,,,,,,,,,,,,,,,256.5893078894587,256.5893078894587,256.5893078894587,256.5893078894587,256.5893078894587,256.5893078894587,l,1,0.5377128310501575,257.1393448660383,258.1644638701109,,,,,548,2023-05-15_10h32.40.081,eb_02psyexp,2022.2.4,119.99818897745351,
78,0,78,0,,,,,,,,,,,,,,,,,,,,,,,,,,,,,,,,,,,,,,,,,,,,,,,,,,,,,,,,258.1644638701109,258.1644638701109,258.1644638701109,258.1644638701109,258.1644638701109,258.1644638701109,l,1,0.5385887981392443,258.7144963189494,259.7479128621053,,,,,548,2023-05-15_10h32.40.081,eb_02psyexp,2022.2.4,119.99818897745351,
79,0,79,0,,,,,,,,,,,,,,,,,,,,,,,,,,,,,,,,,,,,,,,,,,,,,,,,,,,,,,,,259.7479128621053,259.7479128621053,259.7479128621053,259.7479128621053,259.7479128621053,259.7479128621053,s,1,0.48318825906608254,260.23960566392634,261.2647071607644,,,,,548,2023-05-15_10h32.40.081,eb_02psyexp,2022.2.4,119.99818897745351,
80,0,80,0,,,,,,,,,,,,,,,,,,,,,,,,,,,,,,,,,,,,,,,,,,,,,,,,,,,,,,,,261.2647071607644,261.2647071607644,261.2647071607644,261.2647071607644,261.2647071607644,261.2647071607644,s,1,0.6784066621912643,261.9564265253721,262.9732172017684,,,,,548,2023-05-15_10h32.40.081,eb_02psyexp,2022.2.4,119.99818897745351,
81,0,81,0,,,,,,,,,,,,,,,,,,,,,,,,,,,,,,,,,,,,,,,,,,,,,,,,,,,,,,,,262.9732172017684,262.9732172017684,262.9732172017684,262.9732172017684,262.9732172017684,262.9732172017684,s,1,0.6259274219628423,263.6149086452788,264.64833333843853,,,,,548,2023-05-15_10h32.40.081,eb_02psyexp,2022.2.4,119.99818897745351,
82,0,82,0,,,,,,,,,,,,,,,,,,,,,,,,,,,,,,,,,,,,,,,,,,,,,,,,,,,,,,,,264.64833333843853,264.64833333843853,264.64833333843853,264.64833333843853,264.64833333843853,264.64833333843853,s,1,0.6458506917115301,265.30671252764296,266.32347845251206,,,,,548,2023-05-15_10h32.40.081,eb_02psyexp,2022.2.4,119.99818897745351,
83,0,83,0,,,,,,,,,,,,,,,,,,,,,,,,,,,,,,,,,,,,,,,,,,,,,,,,,,,,,,,,266.32347845251206,266.32347845251206,266.32347845251206,266.32347845251206,266.32347845251206,266.32347845251206,s,1,0.5227347604231909,266.85686269775033,267.8819445744157,,,,,548,2023-05-15_10h32.40.081,eb_02psyexp,2022.2.4,119.99818897745351,
84,0,84,0,,,,,,,,,,,,,,,,,,,,,,,,,,,,,,,,,,,,,,,,,,,,,,,,,,,,,,,,267.8819445744157,267.8819445744157,267.8819445744157,267.8819445744157,267.8819445744157,267.8819445744157,s,1,0.6842933298321441,268.58199528511614,269.607094970881,,,,,548,2023-05-15_10h32.40.081,eb_02psyexp,2022.2.4,119.99818897745351,
85,0,85,0,,,,,,,,,,,,,,,,,,,,,,,,,,,,,,,,,,,,,,,,,,,,,,,,,,,,,,,,269.607094970881,269.607094970881,269.607094970881,269.607094970881,269.607094970881,269.607094970881,l,1,0.5671998983016238,270.1904669912765,271.20723261428066,,,,,548,2023-05-15_10h32.40.081,eb_02psyexp,2022.2.4,119.99818897745351,
86,0,86,0,,,,,,,,,,,,,,,,,,,,,,,,,,,,,,,,,,,,,,,,,,,,,,,,,,,,,,,,271.20723261428066,271.20723261428066,271.20723261428066,271.20723261428066,271.20723261428066,271.20723261428066,l,1,0.5751065424410626,271.7905892402632,272.81570462230593,,,,,548,2023-05-15_10h32.40.081,eb_02psyexp,2022.2.4,119.99818897745351,
87,0,87,0,,,,,,,,,,,,,,,,,,,,,,,,,,,,,,,,,,,,,,,,,,,,,,,,,,,,,,,,272.81570462230593,272.81570462230593,272.81570462230593,272.81570462230593,272.81570462230593,272.81570462230593,l,1,0.5826391949085519,273.40742881642655,274.4241896098247,,,,,548,2023-05-15_10h32.40.081,eb_02psyexp,2022.2.4,119.99818897745351,
88,0,88,0,,,,,,,,,,,,,,,,,,,,,,,,,,,,,,,,,,,,,,,,,,,,,,,,,,,,,,,,274.4241896098247,274.4241896098247,274.4241896098247,274.4241896098247,274.4241896098247,274.4241896098247,l,1,0.5822153983172029,275.0158987113973,276.04095976043027,,,,,548,2023-05-15_10h32.40.081,eb_02psyexp,2022.2.4,119.99818897745351,
89,0,89,0,,,,,,,,,,,,,,,,,,,,,,,,,,,,,,,,,,,,,,,,,,,,,,,,,,,,,,,,276.04095976043027,276.04095976043027,276.04095976043027,276.04095976043027,276.04095976043027,276.04095976043027,l,1,0.6454549671616405,276.69936370139476,277.7244606706081,,,,,548,2023-05-15_10h32.40.081,eb_02psyexp,2022.2.4,119.99818897745351,
90,0,90,0,,,,,,,,,,,,,,,,,,,,,,,,,,,,,,,,,,,,,,,,,,,,,,,,,,,,,,,,277.7244606706081,277.7244606706081,277.7244606706081,277.7244606706081,277.7244606706081,277.7244606706081,l,1,0.6980449862312526,278.432843934861,279.46627858898137,,,,,548,2023-05-15_10h32.40.081,eb_02psyexp,2022.2.4,119.99818897745351,
91,0,91,0,,,,,,,,,,,,,,,,,,,,,,,,,,,,,,,,,,,,,,,,,,,,,,,,,,,,,,,,279.46627858898137,279.46627858898137,279.46627858898137,279.46627858898137,279.46627858898137,279.46627858898137,s,1,0.547209617914632,280.0246481191134,281.04142672161106,,,,,548,2023-05-15_10h32.40.081,eb_02psyexp,2022.2.4,119.99818897745351,
92,0,92,0,,,,,,,,,,,,,,,,,,,,,,,,,,,,,,,,,,,,,,,,,,,,,,,,,,,,,,,,281.04142672161106,281.04142672161106,281.04142672161106,281.04142672161106,281.04142672161106,281.04142672161106,s,0,0.7960914167342708,281.849806061713,282.88324011221994,,,,,548,2023-05-15_10h32.40.081,eb_02psyexp,2022.2.4,119.99818897745351,
93,0,93,0,,,,,,,,,,,,,,,,,,,,,,,,,,,,,,,,,,,,,,,,,,,,,,,,,,,,,,,,282.88324011221994,282.88324011221994,282.88324011221994,282.88324011221994,282.88324011221994,282.88324011221994,s,1,0.5623198986286297,283.4582780697383,284.48337624629494,,,,,548,2023-05-15_10h32.40.081,eb_02psyexp,2022.2.4,119.99818897745351,
94,0,94,0,,,,,,,,,,,,,,,,,,,,,,,,,,,,,,,,,,,,,,,,,,,,,,,,,,,,,,,,284.48337624629494,284.48337624629494,284.48337624629494,284.48337624629494,284.48337624629494,284.48337624629494,s,1,0.4502051715971902,284.95007108559366,285.9751668473473,,,,,548,2023-05-15_10h32.40.081,eb_02psyexp,2022.2.4,119.99818897745351,
95,0,95,0,,,,,,,,,,,,,,,,,,,,,,,,,,,,,,,,,,,,,,,,,,,,,,,,,,,,,,,,285.9751668473473,285.9751668473473,285.9751668473473,285.9751668473473,285.9751668473473,285.9751668473473,l,1,0.454444345086813,286.4418671198655,287.4669680130901,,,,,548,2023-05-15_10h32.40.081,eb_02psyexp,2022.2.4,119.99818897745351,
96,0,96,0,,,,,,,,,,,,,,,,,,,,,,,,,,,,,,,,,,,,,,,,,,,,,,,,,,,,,,,,287.4669680130901,287.4669680130901,287.4669680130901,287.4669680130901,287.4669680130901,287.4669680130901,s,1,0.4106725553283468,287.8919913308928,288.92542507953476,,,,,548,2023-05-15_10h32.40.081,eb_02psyexp,2022.2.4,119.99818897745351,
97,0,97,0,,,,,,,,,,,,,,,,,,,,,,,,,,,,,,,,,,,,,,,,,,,,,,,,,,,,,,,,288.92542507953476,288.92542507953476,288.92542507953476,288.92542507953476,288.92542507953476,288.92542507953476,s,1,0.3842649559956044,289.32545707549434,290.3505709482124,,,,,548,2023-05-15_10h32.40.081,eb_02psyexp,2022.2.4,119.99818897745351,
98,0,98,0,,,,,,,,,,,,,,,,,,,,,,,,,,,,,,,,,,,,,,,,,,,,,,,,,,,,,,,,290.3505709482124,290.3505709482124,290.3505709482124,290.3505709482124,290.3505709482124,290.3505709482124,l,1,0.5591293501202017,290.9255892855581,291.94234615494497,,,,,548,2023-05-15_10h32.40.081,eb_02psyexp,2022.2.4,119.99818897745351,
99,0,99,0,,,,,,,,,,,,,,,,,,,,,,,,,,,,,,,,,,,,,,,,,,,,,,,,,,,,,,,,291.94234615494497,291.94234615494497,291.94234615494497,291.94234615494497,291.94234615494497,291.94234615494497,s,1,0.511383410776034,292.4673872819403,293.4841529048281,,,,,548,2023-05-15_10h32.40.081,eb_02psyexp,2022.2.4,119.99818897745351,
100,0,100,0,,,,,,,,,,,,,,,,,,,,,,,,,,,,,,,,,,,,,,,,,,,,,,,,,,,,,,,,293.4841529048281,293.4841529048281,293.4841529048281,293.4841529048281,293.4841529048281,293.4841529048281,l,1,0.545611325185746,294.04253933858126,295.07595014653634,,,,,548,2023-05-15_10h32.40.081,eb_02psyexp,2022.2.4,119.99818897745351,
101,0,101,0,,,,,,,,,,,,,,,,,,,,,,,,,,,,,,,,,,,,,,,,,,,,,,,,,,,,,,,,295.07595014653634,295.07595014653634,295.07595014653634,295.07595014653634,295.07595014653634,295.07595014653634,s,1,0.49689343059435487,295.584340051515,296.61776866868604,,,,,548,2023-05-15_10h32.40.081,eb_02psyexp,2022.2.4,119.99818897745351,
102,0,102,0,,,,,,,,,,,,,,,,,,,,,,,,,,,,,,,,,,,,,,,,,,,,,,,,,,,,,,,,296.61776866868604,296.61776866868604,296.61776866868604,296.61776866868604,296.61776866868604,296.61776866868604,l,1,0.43507828924339265,297.06779870262835,298.0845495350659,,,,,548,2023-05-15_10h32.40.081,eb_02psyexp,2022.2.4,119.99818897745351,
103,0,103,0,,,,,,,,,,,,,,,,,,,,,,,,,,,,,,,,,,,,,,,,,,,,,,,,,,,,,,,,298.0845495350659,298.0845495350659,298.0845495350659,298.0845495350659,298.0845495350659,298.0845495350659,s,1,0.3363044016296044,298.4345916430466,299.4596662753029,,,,,548,2023-05-15_10h32.40.081,eb_02psyexp,2022.2.4,119.99818897745351,
104,0,104,0,,,,,,,,,,,,,,,,,,,,,,,,,,,,,,,,,,,,,,,,,,,,,,,,,,,,,,,,299.4596662753029,299.4596662753029,299.4596662753029,299.4596662753029,299.4596662753029,299.4596662753029,l,0,0.3932449765270576,299.8680371637456,300.8931229644222,,,,,548,2023-05-15_10h32.40.081,eb_02psyexp,2022.2.4,119.99818897745351,
105,0,105,0,,,,,,,,,,,,,,,,,,,,,,,,,,,,,,,,,,,,,,,,,,,,,,,,,,,,,,,,300.8931229644222,300.8931229644222,300.8931229644222,300.8931229644222,300.8931229644222,300.8931229644222,s,0,0.3437863434664905,301.2514937019441,302.2765788988909,,,,,548,2023-05-15_10h32.40.081,eb_02psyexp,2022.2.4,119.99818897745351,
106,0,106,0,,,,,,,,,,,,,,,,,,,,,,,,,,,,,,,,,,,,,,,,,,,,,,,,,,,,,,,,302.2765788988909,302.2765788988909,302.2765788988909,302.2765788988909,302.2765788988909,302.2765788988909,l,1,0.6003734527621418,302.8932874724269,303.91838685632683,,,,,548,2023-05-15_10h32.40.081,eb_02psyexp,2022.2.4,119.99818897745351,
107,0,107,0,,,,,,,,,,,,,,,,,,,,,,,,,,,,,,,,,,,,,,,,,,,,,,,,,,,,,,,,303.91838685632683,303.91838685632683,303.91838685632683,303.91838685632683,303.91838685632683,303.91838685632683,l,1,0.5346203837543726,304.4684235310415,305.4852105852915,,,,,548,2023-05-15_10h32.40.081,eb_02psyexp,2022.2.4,119.99818897745351,
108,0,108,0,,,,,,,,,,,,,,,,,,,,,,,,,,,,,,,,,,,,,,,,,,,,,,,,,,,,,,,,305.4852105852915,305.4852105852915,305.4852105852915,305.4852105852915,305.4852105852915,305.4852105852915,l,1,0.4157982605975121,305.91021458478644,306.93531366682146,,,,,548,2023-05-15_10h32.40.081,eb_02psyexp,2022.2.4,119.99818897745351,
109,0,109,0,,,,,,,,,,,,,,,,,,,,,,,,,,,,,,,,,,,,,,,,,,,,,,,,,,,,,,,,306.93531366682146,306.93531366682146,306.93531366682146,306.93531366682146,306.93531366682146,306.93531366682146,l,1,0.3817218744661659,307.327013109345,308.35209196747746,,,,,548,2023-05-15_10h32.40.081,eb_02psyexp,2022.2.4,119.99818897745351,
110,0,110,0,,,,,,,,,,,,,,,,,,,,,,,,,,,,,,,,,,,,,,,,,,,,,,,,,,,,,,,,308.35209196747746,308.35209196747746,308.35209196747746,308.35209196747746,308.35209196747746,308.35209196747746,s,1,0.5489642686443403,308.9104732697597,309.9355714463163,,,,,548,2023-05-15_10h32.40.081,eb_02psyexp,2022.2.4,119.99818897745351,
111,0,111,0,,,,,,,,,,,,,,,,,,,,,,,,,,,,,,,,,,,,,,,,,,,,,,,,,,,,,,,,309.9355714463163,309.9355714463163,309.9355714463163,309.9355714463163,309.9355714463163,309.9355714463163,l,1,0.5085713814478368,310.4606074418407,311.48569837398827,,,,,548,2023-05-15_10h32.40.081,eb_02psyexp,2022.2.4,119.99818897745351,
112,0,112,0,,,,,,,,,,,,,,,,,,,,,,,,,,,,,,,,,,,,,,,,,,,,,,,,,,,,,,,,311.48569837398827,311.48569837398827,311.48569837398827,311.48569837398827,311.48569837398827,311.48569837398827,s,1,0.5184255579952151,312.0190844302997,313.0358425070299,,,,,548,2023-05-15_10h32.40.081,eb_02psyexp,2022.2.4,119.99818897745351,
113,0,113,0,,,,,,,,,,,,,,,,,,,,,,,,,,,,,,,,,,,,,,,,,,,,,,,,,,,,,,,,313.0358425070299,313.0358425070299,313.0358425070299,313.0358425070299,313.0358425070299,313.0358425070299,s,1,0.5683164393994957,313.6192293181084,314.652660349966,,,,,548,2023-05-15_10h32.40.081,eb_02psyexp,2022.2.4,119.99818897745351,
114,0,114,0,,,,,,,,,,,,,,,,,,,,,,,,,,,,,,,,,,,,,,,,,,,,,,,,,,,,,,,,314.652660349966,314.652660349966,314.652660349966,314.652660349966,314.652660349966,314.652660349966,l,1,0.4635396720841527,315.12768381880596,316.15277716575656,,,,,548,2023-05-15_10h32.40.081,eb_02psyexp,2022.2.4,119.99818897745351,
115,0,115,0,,,,,,,,,,,,,,,,,,,,,,,,,,,,,,,,,,,,,,,,,,,,,,,,,,,,,,,,316.15277716575656,316.15277716575656,316.15277716575656,316.15277716575656,316.15277716575656,316.15277716575656,l,1,0.47543344530276954,316.6444744953187,317.67792122333776,,,,,548,2023-05-15_10h32.40.081,eb_02psyexp,2022.2.4,119.99818897745351,
116,0,116,0,,,,,,,,,,,,,,,,,,,,,,,,,,,,,,,,,,,,,,,,,,,,,,,,,,,,,,,,317.67792122333776,317.67792122333776,317.67792122333776,317.67792122333776,317.67792122333776,317.67792122333776,l,1,0.5183476808015257,318.21131784445606,319.2280553954188,,,,,548,2023-05-15_10h32.40.081,eb_02psyexp,2022.2.4,119.99818897745351,
117,0,117,0,,,,,,,,,,,,,,,,,,,,,,,,,,,,,,,,,,,,,,,,,,,,,,,,,,,,,,,,319.2280553954188,319.2280553954188,319.2280553954188,319.2280553954188,319.2280553954188,319.2280553954188,s,1,0.5442427397938445,319.78640983311925,320.81984750565607,,,,,548,2023-05-15_10h32.40.081,eb_02psyexp,2022.2.4,119.99818897745351,
118,0,118,0,,,,,,,,,,,,,,,,,,,,,,,,,,,,,,,,,,,,,,,,,,,,,,,,,,,,,,,,320.81984750565607,320.81984750565607,320.81984750565607,320.81984750565607,320.81984750565607,320.81984750565607,l,1,0.4564613029360771,321.2865423449548,322.31998122495133,,,,,548,2023-05-15_10h32.40.081,eb_02psyexp,2022.2.4,119.99818897745351,
119,0,119,0,,,,,,,,,,,,,,,,,,,,,,,,,,,,,,,,,,,,,,,,,,,,,,,,,,,,,,,,322.31998122495133,322.31998122495133,322.31998122495133,322.31998122495133,322.31998122495133,322.31998122495133,s,1,0.3723591088782996,322.7033303048229,323.72843964979984,,,,,548,2023-05-15_10h32.40.081,eb_02psyexp,2022.2.4,119.99818897745351,
120,0,120,0,,,,,,,,,,,,,,,,,,,,,,,,,,,,,,,,,,,,,,,,,,,,,,,,,,,,,,,,323.72843964979984,323.72843964979984,323.72843964979984,323.72843964979984,323.72843964979984,323.72843964979984,l,1,0.4039470481220633,324.14513252698816,325.1618957351893,,,,,548,2023-05-15_10h32.40.081,eb_02psyexp,2022.2.4,119.99818897745351,
121,0,121,0,,,,,,,,,,,,,,,,,,,,,,,,,,,,,,,,,,,,,,,,,,,,,,,,,,,,,,,,325.1618957351893,325.1618957351893,325.1618957351893,325.1618957351893,325.1618957351893,325.1618957351893,s,1,0.4265281022526324,325.6035735954065,326.6286814311752,,,,,548,2023-05-15_10h32.40.081,eb_02psyexp,2022.2.4,119.99818897745351,
122,0,122,0,,,,,,,,,,,,,,,,,,,,,,,,,,,,,,,,,,,,,,,,,,,,,,,,,,,,,,,,326.6286814311752,326.6286814311752,326.6286814311752,326.6286814311752,326.6286814311752,326.6286814311752,l,1,0.478728735470213,327.12037845887244,328.15380405751057,,,,,548,2023-05-15_10h32.40.081,eb_02psyexp,2022.2.4,119.99818897745351,
123,0,123,0,,,,,,,,,,,,,,,,,,,,,,,,,,,,,,,,,,,,,,,,,,,,,,,,,,,,,,,,328.15380405751057,328.15380405751057,328.15380405751057,328.15380405751057,328.15380405751057,328.15380405751057,s,1,0.3936563973547891,328.5621704182122,329.59557881136425,,,,,548,2023-05-15_10h32.40.081,eb_02psyexp,2022.2.4,119.99818897745351,
124,0,124,0,,,,,,,,,,,,,,,,,,,,,,,,,,,,,,,,,,,,,,,,,,,,,,,,,,,,,,,,329.59557881136425,329.59557881136425,329.59557881136425,329.59557881136425,329.59557881136425,329.59557881136425,l,1,0.43190675729420036,330.0373088916531,331.0540784386685,,,,,548,2023-05-15_10h32.40.081,eb_02psyexp,2022.2.4,119.99818897745351,
125,0,125,0,,,,,,,,,,,,,,,,,,,,,,,,,,,,,,,,,,,,,,,,,,,,,,,,,,,,,,,,331.0540784386685,331.0540784386685,331.0540784386685,331.0540784386685,331.0540784386685,331.0540784386685,s,1,0.5494756016414613,331.61243589478545,332.64586783223785,,,,,548,2023-05-15_10h32.40.081,eb_02psyexp,2022.2.4,119.99818897745351,
126,0,126,0,,,,,,,,,,,,,,,,,,,,,,,,,,,,,,,,,,,,,,,,,,,,,,,,,,,,,,,,332.64586783223785,332.64586783223785,332.64586783223785,332.64586783223785,332.64586783223785,332.64586783223785,s,1,0.45368428819347173,333.1125629734015,334.12930837238673,,,,,548,2023-05-15_10h32.40.081,eb_02psyexp,2022.2.4,119.99818897745351,
127,0,127,0,,,,,,,,,,,,,,,,,,,,,,,,,,,,,,,,,,,,,,,,,,,,,,,,,,,,,,,,334.12930837238673,334.12930837238673,334.12930837238673,334.12930837238673,334.12930837238673,334.12930837238673,s,1,0.44228464260231704,334.5877038616454,335.6127905678004,,,,,548,2023-05-15_10h32.40.081,eb_02psyexp,2022.2.4,119.99818897745351,
128,0,128,0,,,,,,,,,,,,,,,,,,,,,,,,,,,,,,,,,,,,,,,,,,,,,,,,,,,,,,,,335.6127905678004,335.6127905678004,335.6127905678004,335.6127905678004,335.6127905678004,335.6127905678004,s,1,0.5028196405619383,336.1295078948606,337.16292624920607,,,,,548,2023-05-15_10h32.40.081,eb_02psyexp,2022.2.4,119.99818897745351,
129,0,129,0,,,,,,,,,,,,,,,,,,,,,,,,,,,,,,,,,,,,,,,,,,,,,,,,,,,,,,,,337.16292624920607,337.16292624920607,337.16292624920607,337.16292624920607,337.16292624920607,337.16292624920607,s,1,0.45672662858851254,337.62964161415584,338.64640301128384,,,,,548,2023-05-15_10h32.40.081,eb_02psyexp,2022.2.4,119.99818897745351,
130,0,130,0,,,,,,,,,,,,,,,,,,,,,,,,,,,,,,,,,,,,,,,,,,,,,,,,,,,,,,,,338.64640301128384,338.64640301128384,338.64640301128384,338.64640301128384,338.64640301128384,338.64640301128384,s,1,0.4292658765334636,339.08808358816896,340.121514620143,,,,,548,2023-05-15_10h32.40.081,eb_02psyexp,2022.2.4,119.99818897745351,
131,0,131,0,,,,,,,,,,,,,,,,,,,,,,,,,,,,,,,,,,,,,,,,,,,,,,,,,,,,,,,,340.121514620143,340.121514620143,340.121514620143,340.121514620143,340.121514620143,340.121514620143,l,1,0.49019629729446024,340.6215798195917,341.6466456982307,,,,,548,2023-05-15_10h32.40.081,eb_02psyexp,2022.2.4,119.99818897745351,
132,0,132,0,,,,,,,,,,,,,,,,,,,,,,,,,,,,,,,,,,,,,,,,,,,,,,,,,,,,,,,,341.6466456982307,341.6466456982307,341.6466456982307,341.6466456982307,341.6466456982307,341.6466456982307,l,1,0.532115938840434,342.18836581741925,343.2217893031193,,,,,548,2023-05-15_10h32.40.081,eb_02psyexp,2022.2.4,119.99818897745351,
133,0,133,0,,,,,,,,,,,,,,,,,,,,,,,,,,,,,,,,,,,,,,,,,,,,,,,,,,,,,,,,343.2217893031193,343.2217893031193,343.2217893031193,343.2217893031193,343.2217893031193,343.2217893031193,s,1,0.5089725393336266,343.74683043011464,344.7718957050238,,,,,548,2023-05-15_10h32.40.081,eb_02psyexp,2022.2.4,119.99818897745351,
134,0,134,0,,,,,,,,,,,,,,,,,,,,,,,,,,,,,,,,,,,,,,,,,,,,,,,,,,,,,,,,344.7718957050238,344.7718957050238,344.7718957050238,344.7718957050238,344.7718957050238,344.7718957050238,l,1,0.5109082998242229,345.29695916885976,346.3220528176753,,,,,548,2023-05-15_10h32.40.081,eb_02psyexp,2022.2.4,119.99818897745351,
135,0,135,0,,,,,,,,,,,,,,,,,,,,,,,,,,,,,,,,,,,,,,,,,,,,,,,,,,,,,,,,346.3220528176753,346.3220528176753,346.3220528176753,346.3220528176753,346.3220528176753,346.3220528176753,s,1,0.6007773273158818,346.9387758797966,347.96385866205674,,,,,548,2023-05-15_10h32.40.081,eb_02psyexp,2022.2.4,119.99818897745351,
136,0,136,0,,,,,,,,,,,,,,,,,,,,,,,,,,,,,,,,,,,,,,,,,,,,,,,,,,,,,,,,347.96385866205674,347.96385866205674,347.96385866205674,347.96385866205674,347.96385866205674,347.96385866205674,l,1,0.5750362114049494,348.54723430459853,349.5806656384375,,,,,548,2023-05-15_10h32.40.081,eb_02psyexp,2022.2.4,119.99818897745351,
137,0,137,0,,,,,,,,,,,,,,,,,,,,,,,,,,,,,,,,,,,,,,,,,,,,,,,,,,,,,,,,349.5806656384375,349.5806656384375,349.5806656384375,349.5806656384375,349.5806656384375,349.5806656384375,s,1,0.566226132097654,350.15570359595586,351.1808050927939,,,,,548,2023-05-15_10h32.40.081,eb_02psyexp,2022.2.4,119.99818897745351,
138,0,138,0,,,,,,,,,,,,,,,,,,,,,,,,,,,,,,,,,,,,,,,,,,,,,,,,,,,,,,,,351.1808050927939,351.1808050927939,351.1808050927939,351.1808050927939,351.1808050927939,351.1808050927939,s,1,0.6141326553188264,351.8058501438936,352.8309465092607,,,,,548,2023-05-15_10h32.40.081,eb_02psyexp,2022.2.4,119.99818897745351,
139,0,139,0,,,,,,,,,,,,,,,,,,,,,,,,,,,,,,,,,,,,,,,,,,,,,,,,,,,,,,,,352.8309465092607,352.8309465092607,352.8309465092607,352.8309465092607,352.8309465092607,352.8309465092607,l,1,0.5160059329355136,353.3559819011716,354.3893948220648,,,,,548,2023-05-15_10h32.40.081,eb_02psyexp,2022.2.4,119.99818897745351,
140,0,140,0,,,,,,,,,,,,,,,,,,,,,,,,,,,,,,,,,,,,,,,,,,,,,,,,,,,,,,,,354.3893948220648,354.3893948220648,354.3893948220648,354.3893948220648,354.3893948220648,354.3893948220648,s,1,0.4695947717409581,354.872794914525,355.8978653209051,,,,,548,2023-05-15_10h32.40.081,eb_02psyexp,2022.2.4,119.99818897745351,
141,0,141,0,,,,,,,,,,,,,,,,,,,,,,,,,,,,,,,,,,,,,,,,,,,,,,,,,,,,,,,,355.8978653209051,355.8978653209051,355.8978653209051,355.8978653209051,355.8978653209051,355.8978653209051,l,1,0.5611315174028277,356.4729232004611,357.5063530249754,,,,,548,2023-05-15_10h32.40.081,eb_02psyexp,2022.2.4,119.99818897745351,
142,0,142,0,,,,,,,,,,,,,,,,,,,,,,,,,,,,,,,,,,,,,,,,,,,,,,,,,,,,,,,,357.5063530249754,357.5063530249754,357.5063530249754,357.5063530249754,357.5063530249754,357.5063530249754,s,1,0.4556955109583214,357.9730638623005,358.99814272043295,,,,,548,2023-05-15_10h32.40.081,eb_02psyexp,2022.2.4,119.99818897745351,
143,0,143,0,,,,,,,,,,,,,,,,,,,,,,,,,,,,,,,,,,,,,,,,,,,,,,,,,,,,,,,,358.99814272043295,358.99814272043295,358.99814272043295,358.99814272043295,358.99814272043295,358.99814272043295,l,1,0.467930675833486,359.48152832407504,360.51495150791015,,,,,548,2023-05-15_10h32.40.081,eb_02psyexp,2022.2.4,119.99818897745351,
144,0,144,0,,,,,,,,,,,,,,,,,,,,,,,,,,,,,,,,,,,,,,,,,,,,,,,,,,,,,,,,360.51495150791015,360.51495150791015,360.51495150791015,360.51495150791015,360.51495150791015,360.51495150791015,s,1,0.44716886815149337,360.97330111591145,361.9984068387421,,,,,548,2023-05-15_10h32.40.081,eb_02psyexp,2022.2.4,119.99818897745351,
145,0,145,0,,,,,,,,,,,,,,,,,,,,,,,,,,,,,,,,,,,,,,,,,,,,,,,,,,,,,,,,361.9984068387421,361.9984068387421,361.9984068387421,361.9984068387421,361.9984068387421,361.9984068387421,s,0,0.7957512324210256,362.80679795111064,363.8402425661916,,,,,548,2023-05-15_10h32.40.081,eb_02psyexp,2022.2.4,119.99818897745351,
146,0,146,0,,,,,,,,,,,,,,,,,,,,,,,,,,,,,,,,,,,,,,,,,,,,,,,,,,,,,,,,363.8402425661916,363.8402425661916,363.8402425661916,363.8402425661916,363.8402425661916,363.8402425661916,s,1,0.43394816503860056,364.2902704873122,365.3153523639776,,,,,548,2023-05-15_10h32.40.081,eb_02psyexp,2022.2.4,119.99818897745351,
147,0,147,0,,,,,,,,,,,,,,,,,,,,,,,,,,,,,,,,,,,,,,,,,,,,,,,,,,,,,,,,365.3153523639776,365.3153523639776,365.3153523639776,365.3153523639776,365.3153523639776,365.3153523639776,s,1,0.7428678157739341,366.0737475513015,367.0905155889923,,,,,548,2023-05-15_10h32.40.081,eb_02psyexp,2022.2.4,119.99818897745351,
148,0,148,0,,,,,,,,,,,,,,,,,,,,,,,,,,,,,,,,,,,,,,,,,,,,,,,,,,,,,,,,367.0905155889923,367.0905155889923,367.0905155889923,367.0905155889923,367.0905155889923,367.0905155889923,l,1,0.5277294629486278,367.63222393603064,368.6656441014493,,,,,548,2023-05-15_10h32.40.081,eb_02psyexp,2022.2.4,119.99818897745351,
149,0,149,0,,,,,,,,,,,,,,,,,,,,,,,,,,,,,,,,,,,,,,,,,,,,,,,,,,,,,,,,368.6656441014493,368.6656441014493,368.6656441014493,368.6656441014493,368.6656441014493,368.6656441014493,s,1,0.8566303385887295,369.53239236806985,370.5575026185252,,,,,548,2023-05-15_10h32.40.081,eb_02psyexp,2022.2.4,119.99818897745351,
150,0,150,0,,,,,,,,,,,,,,,,,,,,,,,,,,,,,,,,,,,,,,,,,,,,,,,,,,,,,,,,370.5575026185252,370.5575026185252,370.5575026185252,370.5575026185252,370.5575026185252,370.5575026185252,l,1,0.5168019098928198,371.08253076602705,372.1159485166427,,,,,548,2023-05-15_10h32.40.081,eb_02psyexp,2022.2.4,119.99818897745351,
151,0,151,0,,,,,,,,,,,,,,,,,,,,,,,,,,,,,,,,,,,,,,,,,,,,,,,,,,,,,,,,372.1159485166427,372.1159485166427,372.1159485166427,372.1159485166427,372.1159485166427,372.1159485166427,s,1,0.43042045063339174,372.5576577691827,373.5744291272713,,,,,548,2023-05-15_10h32.40.081,eb_02psyexp,2022.2.4,119.99818897745351,
152,0,152,0,,,,,,,,,,,,,,,,,,,,,,,,,,,,,,,,,,,,,,,,,,,,,,,,,,,,,,,,373.5744291272713,373.5744291272713,373.5744291272713,373.5744291272713,373.5744291272713,373.5744291272713,l,1,0.4829769644420594,374.06610683666077,375.09953696304,,,,,548,2023-05-15_10h32.40.081,eb_02psyexp,2022.2.4,119.99818897745351,
153,0,153,0,,,,,,,,,,,,,,,,,,,,,,,,,,,,,,,,,,,,,,,,,,,,,,,,,,,,,,,,375.09953696304,375.09953696304,375.09953696304,375.09953696304,375.09953696304,375.09953696304,s,1,0.5338817581068724,375.6495980875334,376.67467362538446,,,,,548,2023-05-15_10h32.40.081,eb_02psyexp,2022.2.4,119.99818897745351,
154,0,154,0,,,,,,,,,,,,,,,,,,,,,,,,,,,,,,,,,,,,,,,,,,,,,,,,,,,,,,,,376.67467362538446,376.67467362538446,376.67467362538446,376.67467362538446,376.67467362538446,376.67467362538446,l,1,0.6227782267378643,377.3080554557964,378.33315363235306,,,,,548,2023-05-15_10h32.40.081,eb_02psyexp,2022.2.4,119.99818897745351,
155,0,155,0,,,,,,,,,,,,,,,,,,,,,,,,,,,,,,,,,,,,,,,,,,,,,,,,,,,,,,,,378.33315363235306,378.33315363235306,378.33315363235306,378.33315363235306,378.33315363235306,378.33315363235306,s,1,0.5643398748943582,378.90819068439305,379.9415936443256,,,,,548,2023-05-15_10h32.40.081,eb_02psyexp,2022.2.4,119.99818897745351,
156,0,156,0,,,,,,,,,,,,,,,,,,,,,,,,,,,,,,,,,,,,,,,,,,,,,,,,,,,,,,,,379.9415936443256,379.9415936443256,379.9415936443256,379.9415936443256,379.9415936443256,379.9415936443256,s,1,0.6599023864837363,380.61667295522057,381.6334536706563,,,,,548,2023-05-15_10h32.40.081,eb_02psyexp,2022.2.4,119.99818897745351,
157,0,157,0,,,,,,,,,,,,,,,,,,,,,,,,,,,,,,,,,,,,,,,,,,,,,,,,,,,,,,,,381.6334536706563,381.6334536706563,381.6334536706563,381.6334536706563,381.6334536706563,381.6334536706563,l,1,0.5841170497005805,382.2334953258978,383.2669127746485,,,,,548,2023-05-15_10h32.40.081,eb_02psyexp,2022.2.4,119.99818897745351,
158,0,158,0,,,,,,,,,,,,,,,,,,,,,,,,,,,,,,,,,,,,,,,,,,,,,,,,,,,,,,,,383.2669127746485,383.2669127746485,383.2669127746485,383.2669127746485,383.2669127746485,383.2669127746485,s,1,0.5346692833118141,383.8169651455246,384.84204943687655,,,,,548,2023-05-15_10h32.40.081,eb_02psyexp,2022.2.4,119.99818897745351,
159,0,159,0,,,,,,,,,,,,,,,,,,,,,,,,,,,,,,,,,,,,,,,,,,,,,,,,,,,,,,,,384.84204943687655,384.84204943687655,384.84204943687655,384.84204943687655,384.84204943687655,384.84204943687655,s,1,0.5995494037633762,385.45042606047355,386.48385135724675,,,,,548,2023-05-15_10h32.40.081,eb_02psyexp,2022.2.4,119.99818897745351,
160,0,160,0,,,,,,,,,,,,,,,,,,,,,,,,,,,,,,,,,,,,,,,,,,,,,,,,,,,,,,,,386.48385135724675,386.48385135724675,386.48385135724675,386.48385135724675,386.48385135724675,386.48385135724675,s,1,0.4138051486806944,386.90888342878316,387.93397888867185,,,,,548,2023-05-15_10h32.40.081,eb_02psyexp,2022.2.4,119.99818897745351,
161,0,161,0,,,,,,,,,,,,,,,,,,,,,,,,,,,,,,,,,,,,,,,,,,,,,,,,,,,,,,,,387.93397888867185,387.93397888867185,387.93397888867185,387.93397888867185,387.93397888867185,387.93397888867185,l,1,0.4676756130065769,388.4173484942876,389.44245029299054,,,,,548,2023-05-15_10h32.40.081,eb_02psyexp,2022.2.4,119.99818897745351,
162,0,162,0,,,,,,,,,,,,,,,,,,,,,,,,,,,,,,,,,,,,,,,,,,,,,,,,,,,,,,,,389.44245029299054,389.44245029299054,389.44245029299054,389.44245029299054,389.44245029299054,389.44245029299054,s,1,0.5902584783034399,390.04250070184935,391.06758982292376,,,,,548,2023-05-15_10h32.40.081,eb_02psyexp,2022.2.4,119.99818897745351,
163,0,163,0,,,,,,,,,,,,,,,,,,,,,,,,,,,,,,,,,,,,,,,,,,,,,,,,,,,,,,,,391.06758982292376,391.06758982292376,391.06758982292376,391.06758982292376,391.06758982292376,391.06758982292376,l,1,0.4451368178706616,391.5259518068051,392.5593912904151,,,,,548,2023-05-15_10h32.40.081,eb_02psyexp,2022.2.4,119.99818897745351,
164,0,164,0,,,,,,,,,,,,,,,,,,,,,,,,,,,,,,,,,,,,,,,,,,,,,,,,,,,,,,,,392.5593912904151,392.5593912904151,392.5593912904151,392.5593912904151,392.5593912904151,392.5593912904151,s,1,0.46539936657063663,393.0344165703282,394.05951504874974,,,,,548,2023-05-15_10h32.40.081,eb_02psyexp,2022.2.4,119.99818897745351,
165,0,165,0,,,,,,,,,,,,,,,,,,,,,,,,,,,,,,,,,,,,,,,,,,,,,,,,,,,,,,,,394.05951504874974,394.05951504874974,394.05951504874974,394.05951504874974,394.05951504874974,394.05951504874974,l,1,0.5652891914360225,394.63456870242953,395.65965359762777,,,,,548,2023-05-15_10h32.40.081,eb_02psyexp,2022.2.4,119.99818897745351,
166,0,166,0,,,,,,,,,,,,,,,,,,,,,,,,,,,,,,,,,,,,,,,,,,,,,,,,,,,,,,,,395.65965359762777,395.65965359762777,395.65965359762777,395.65965359762777,395.65965359762777,395.65965359762777,s,1,0.5252256219973788,396.20135681319516,397.23479056183714,,,,,548,2023-05-15_10h32.40.081,eb_02psyexp,2022.2.4,119.99818897745351,
167,0,167,0,,,,,,,,,,,,,,,,,,,,,,,,,,,,,,,,,,,,,,,,,,,,,,,,,,,,,,,,397.23479056183714,397.23479056183714,397.23479056183714,397.23479056183714,397.23479056183714,397.23479056183714,s,1,0.6460647030035034,397.8931664307602,398.9182709461311,,,,,548,2023-05-15_10h32.40.081,eb_02psyexp,2022.2.4,119.99818897745351,
168,0,168,0,,,,,,,,,,,,,,,,,,,,,,,,,,,,,,,,,,,,,,,,,,,,,,,,,,,,,,,,398.9182709461311,398.9182709461311,398.9182709461311,398.9182709461311,398.9182709461311,398.9182709461311,s,1,0.4426269398536533,399.37665285205003,400.40172989910934,,,,,548,2023-05-15_10h32.40.081,eb_02psyexp,2022.2.4,119.99818897745351,
169,0,169,0,,,,,,,,,,,,,,,,,,,,,,,,,,,,,,,,,,,,,,,,,,,,,,,,,,,,,,,,400.40172989910934,400.40172989910934,400.40172989910934,400.40172989910934,400.40172989910934,400.40172989910934,l,1,0.43919823213946074,400.851760235033,401.88520605757367,,,,,548,2023-05-15_10h32.40.081,eb_02psyexp,2022.2.4,119.99818897745351,
170,0,170,0,,,,,,,,,,,,,,,,,,,,,,,,,,,,,,,,,,,,,,,,,,,,,,,,,,,,,,,,401.88520605757367,401.88520605757367,401.88520605757367,401.88520605757367,401.88520605757367,401.88520605757367,s,1,0.4917592736892402,402.3852253758814,403.402014241321,,,,,548,2023-05-15_10h32.40.081,eb_02psyexp,2022.2.4,119.99818897745351,
171,0,171,0,,,,,,,,,,,,,,,,,,,,,,,,,,,,,,,,,,,,,,,,,,,,,,,,,,,,,,,,403.402014241321,403.402014241321,403.402014241321,403.402014241321,403.402014241321,403.402014241321,l,1,0.8940038259606808,404.3103902611183,405.3354911543429,,,,,548,2023-05-15_10h32.40.081,eb_02psyexp,2022.2.4,119.99818897745351,
172,0,172,0,,,,,,,,,,,,,,,,,,,,,,,,,,,,,,,,,,,,,,,,,,,,,,,,,,,,,,,,405.3354911543429,405.3354911543429,405.3354911543429,405.3354911543429,405.3354911543429,405.3354911543429,s,1,0.3845363185973838,405.7355156041449,406.7689267139649,,,,,548,2023-05-15_10h32.40.081,eb_02psyexp,2022.2.4,119.99818897745351,
173,0,173,0,,,,,,,,,,,,,,,,,,,,,,,,,,,,,,,,,,,,,,,,,,,,,,,,,,,,,,,,406.7689267139649,406.7689267139649,406.7689267139649,406.7689267139649,406.7689267139649,406.7689267139649,s,1,0.47911540465429425,407.26064788969234,408.28574697172735,,,,,548,2023-05-15_10h32.40.081,eb_02psyexp,2022.2.4,119.99818897745351,
174,0,174,0,,,,,,,,,,,,,,,,,,,,,,,,,,,,,,,,,,,,,,,,,,,,,,,,,,,,,,,,408.28574697172735,408.28574697172735,408.28574697172735,408.28574697172735,408.28574697172735,408.28574697172735,s,1,0.43434811546467245,408.7357770057861,409.7692122635199,,,,,548,2023-05-15_10h32.40.081,eb_02psyexp,2022.2.4,119.99818897745351,
175,0,175,0,,,,,,,,,,,,,,,,,,,,,,,,,,,,,,,,,,,,,,,,,,,,,,,,,,,,,,,,409.7692122635199,409.7692122635199,409.7692122635199,409.7692122635199,409.7692122635199,409.7692122635199,s,1,0.40691785025410354,410.1859081593575,411.2026816303842,,,,,548,2023-05-15_10h32.40.081,eb_02psyexp,2022.2.4,119.99818897745351,
176,0,176,0,,,,,,,,,,,,,,,,,,,,,,,,,,,,,,,,,,,,,,,,,,,,,,,,,,,,,,,,411.2026816303842,411.2026816303842,411.2026816303842,411.2026816303842,411.2026816303842,411.2026816303842,l,1,0.3014350571902469,411.51935096341185,412.5444382732967,,,,,548,2023-05-15_10h32.40.081,eb_02psyexp,2022.2.4,119.99818897745351,
177,0,177,0,,,,,,,,,,,,,,,,,,,,,,,,,,,,,,,,,,,,,,,,,,,,,,,,,,,,,,,,412.5444382732967,412.5444382732967,412.5444382732967,412.5444382732967,412.5444382732967,412.5444382732967,s,1,0.5197213975479826,413.0778182926588,414.1029152618721,,,,,548,2023-05-15_10h32.40.081,eb_02psyexp,2022.2.4,119.99818897745351,
178,0,178,0,,,,,,,,,,,,,,,,,,,,,,,,,,,,,,,,,,,,,,,,,,,,,,,,,,,,,,,,414.1029152618721,414.1029152618721,414.1029152618721,414.1029152618721,414.1029152618721,414.1029152618721,l,1,0.4492878512246534,414.5612736234907,415.59471340908203,,,,,548,2023-05-15_10h32.40.081,eb_02psyexp,2022.2.4,119.99818897745351,
179,0,179,0,,,,,,,,,,,,,,,,,,,,,,,,,,,,,,,,,,,,,,,,,,,,,,,,,,,,,,,,415.59471340908203,415.59471340908203,415.59471340908203,415.59471340908203,415.59471340908203,415.59471340908203,s,1,0.3255410547135398,415.9363988155965,416.95315659046173,,,,,548,2023-05-15_10h32.40.081,eb_02psyexp,2022.2.4,119.99818897745351,
180,0,180,0,,,,,,,,,,,,,,,,,,,,,,,,,,,,,,,,,,,,,,,,,,,,,,,,,,,,,,,,416.95315659046173,416.95315659046173,416.95315659046173,416.95315659046173,416.95315659046173,416.95315659046173,l,1,0.36712715262547135,417.33653494971804,418.36161078931764,,,,,548,2023-05-15_10h32.40.081,eb_02psyexp,2022.2.4,119.99818897745351,
181,0,181,0,,,,,,,,,,,,,,,,,,,,,,,,,,,,,,,,,,,,,,,,,,,,,,,,,,,,,,,,418.36161078931764,418.36161078931764,418.36161078931764,418.36161078931764,418.36161078931764,418.36161078931764,s,1,0.44664365018252283,418.8199830361409,419.8450821181759,,,,,548,2023-05-15_10h32.40.081,eb_02psyexp,2022.2.4,119.99818897745351,
182,0,182,0,,,,,,,,,,,,,,,,,,,,,,,,,,,,,,,,,,,,,,,,,,,,,,,,,,,,,,,,419.8450821181759,419.8450821181759,419.8450821181759,419.8450821181759,419.8450821181759,419.8450821181759,l,1,0.3782379283802584,420.2367809569696,421.27021229069214,,,,,548,2023-05-15_10h32.40.081,eb_02psyexp,2022.2.4,119.99818897745351,
183,0,183,0,,,,,,,,,,,,,,,,,,,,,,,,,,,,,,,,,,,,,,,,,,,,,,,,,,,,,,,,421.27021229069214,421.27021229069214,421.27021229069214,421.27021229069214,421.27021229069214,421.27021229069214,l,1,0.46513615373987705,421.7452294207178,422.7703393693082,,,,,548,2023-05-15_10h32.40.081,eb_02psyexp,2022.2.4,119.99818897745351,
184,0,184,0,,,,,,,,,,,,,,,,,,,,,,,,,,,,,,,,,,,,,,,,,,,,,,,,,,,,,,,,422.7703393693082,422.7703393693082,422.7703393693082,422.7703393693082,422.7703393693082,422.7703393693082,l,1,0.4050385357113555,423.18702802073676,424.2204578452511,,,,,548,2023-05-15_10h32.40.081,eb_02psyexp,2022.2.4,119.99818897745351,
185,0,185,0,,,,,,,,,,,,,,,,,,,,,,,,,,,,,,,,,,,,,,,,,,,,,,,,,,,,,,,,424.2204578452511,424.2204578452511,424.2204578452511,424.2204578452511,424.2204578452511,424.2204578452511,l,1,0.36293446412310004,424.5955211581895,425.6289186847862,,,,,548,2023-05-15_10h32.40.081,eb_02psyexp,2022.2.4,119.99818897745351,
186,0,186,0,,,,,,,,,,,,,,,,,,,,,,,,,,,,,,,,,,,,,,,,,,,,,,,,,,,,,,,,425.6289186847862,425.6289186847862,425.6289186847862,425.6289186847862,425.6289186847862,425.6289186847862,s,1,0.4265127079561353,426.07061073195655,427.08739114552736,,,,,548,2023-05-15_10h32.40.081,eb_02psyexp,2022.2.4,119.99818897745351,
187,0,187,0,,,,,,,,,,,,,,,,,,,,,,,,,,,,,,,,,,,,,,,,,,,,,,,,,,,,,,,,427.08739114552736,427.08739114552736,427.08739114552736,427.08739114552736,427.08739114552736,427.08739114552736,s,1,0.472077181446366,427.5707550160587,428.60417337028775,,,,,548,2023-05-15_10h32.40.081,eb_02psyexp,2022.2.4,119.99818897745351,
188,0,188,0,,,,,,,,,,,,,,,,,,,,,,,,,,,,,,,,,,,,,,,,,,,,,,,,,,,,,,,,428.60417337028775,428.60417337028775,428.60417337028775,428.60417337028775,428.60417337028775,428.60417337028775,l,1,0.47534319234546274,429.09587311465293,430.11263813392725,,,,,548,2023-05-15_10h32.40.081,eb_02psyexp,2022.2.4,119.99818897745351,
189,0,189,0,,,,,,,,,,,,,,,,,,,,,,,,,,,,,,,,,,,,,,,,,,,,,,,,,,,,,,,,430.11263813392725,430.11263813392725,430.11263813392725,430.11263813392725,430.11263813392725,430.11263813392725,s,1,0.406888872734271,430.5293288981775,431.54608697490767,,,,,548,2023-05-15_10h32.40.081,eb_02psyexp,2022.2.4,119.99818897745351,
190,0,190,0,,,,,,,,,,,,,,,,,,,,,,,,,,,,,,,,,,,,,,,,,,,,,,,,,,,,,,,,431.54608697490767,431.54608697490767,431.54608697490767,431.54608697490767,431.54608697490767,431.54608697490767,l,1,0.36546909366734326,431.92111678258516,432.94622974970844,,,,,548,2023-05-15_10h32.40.081,eb_02psyexp,2022.2.4,119.99818897745351,
191,0,191,0,,,,,,,,,,,,,,,,,,,,,,,,,,,,,,,,,,,,,,,,,,,,,,,,,,,,,,,,432.94622974970844,432.94622974970844,432.94622974970844,432.94622974970844,432.94622974970844,432.94622974970844,l,1,0.46134069899562746,433.4212492944207,434.4380272933049,,,,,548,2023-05-15_10h32.40.081,eb_02psyexp,2022.2.4,119.99818897745351,
192,0,192,0,,,,,,,,,,,,,,,,,,,,,,,,,,,,,,,,,,,,,,,,,,,,,,,,,,,,,,,,434.4380272933049,434.4380272933049,434.4380272933049,434.4380272933049,434.4380272933049,434.4380272933049,l,1,0.5615930452477187,435.0130625341553,436.0381501460215,,,,,548,2023-05-15_10h32.40.081,eb_02psyexp,2022.2.4,119.99818897745351,
193,0,193,0,,,,,,,,,,,,,,,,,,,,,,,,,,,,,,,,,,,,,,,,,,,,,,,,,,,,,,,,436.0381501460215,436.0381501460215,436.0381501460215,436.0381501460215,436.0381501460215,436.0381501460215,l,1,0.5924939751857892,436.64652858069167,437.6633083905326,,,,,548,2023-05-15_10h32.40.081,eb_02psyexp,2022.2.4,119.99818897745351,
194,0,194,0,,,,,,,,,,,,,,,,,,,,,,,,,,,,,,,,,,,,,,,,,,,,,,,,,,,,,,,,437.6633083905326,437.6633083905326,437.6633083905326,437.6633083905326,437.6633083905326,437.6633083905326,l,1,0.4473635610193014,438.12168667430524,439.1384347899584,,,,,548,2023-05-15_10h32.40.081,eb_02psyexp,2022.2.4,119.99818897745351,
195,0,195,0,,,,,,,,,,,,,,,,,,,,,,,,,,,,,,,,,,,,,,,,,,,,,,,,,,,,,,,,439.1384347899584,439.1384347899584,439.1384347899584,439.1384347899584,439.1384347899584,439.1384347899584,s,1,0.5482558279763907,439.69680341449566,440.7302226743195,,,,,548,2023-05-15_10h32.40.081,eb_02psyexp,2022.2.4,119.99818897745351,
196,0,196,0,,,,,,,,,,,,,,,,,,,,,,,,,,,,,,,,,,,,,,,,,,,,,,,,,,,,,,,,440.7302226743195,440.7302226743195,440.7302226743195,440.7302226743195,440.7302226743195,440.7302226743195,l,1,0.468505397089757,441.2135880540591,442.24703508394305,,,,,548,2023-05-15_10h32.40.081,eb_02psyexp,2022.2.4,119.99818897745351,
197,0,197,0,,,,,,,,,,,,,,,,,,,,,,,,,,,,,,,,,,,,,,,,,,,,,,,,,,,,,,,,442.24703508394305,442.24703508394305,442.24703508394305,442.24703508394305,442.24703508394305,442.24703508394305,s,1,0.4717213009716943,442.7303874841891,443.7638336085947,,,,,548,2023-05-15_10h32.40.081,eb_02psyexp,2022.2.4,119.99818897745351,
198,0,198,0,,,,,,,,,,,,,,,,,,,,,,,,,,,,,,,,,,,,,,,,,,,,,,,,,,,,,,,,443.7638336085947,443.7638336085947,443.7638336085947,443.7638336085947,443.7638336085947,443.7638336085947,l,1,0.45896001264918596,444.2388564735884,445.2556320576696,,,,,548,2023-05-15_10h32.40.081,eb_02psyexp,2022.2.4,119.99818897745351,
199,0,199,0,,,,,0,0,0,0,,,,,,,,,,,,,,,,,,,,,,,,,,,,,,,,,,,,,,,,,,,,,,,,445.2556320576696,445.2556320576696,445.2556320576696,445.2556320576696,445.2556320576696,445.2556320576696,s,1,0.5111920381896198,445.7806577903684,446.78074049705174,446.78074049705174,446.78074049705174,space,2.026163770002313,548,2023-05-15_10h32.40.081,eb_02psyexp,2022.2.4,119.99818897745351,
199,0,199,0,,,,,,,,,,,,,,,,,,,,,,,,,,,,,,,,,,,,,,,,,,,,,,,,,,,,,,,,,,,,,,,,,,,,,,,548,2023-05-15_10h32.40.081,eb_02psyexp,2022.2.4,119.99818897745351,
200,0,200,0,,,,,,,,,,,,,,,,,,,,,,,,,,,,,,,,,,,,,,,,,,,,,,,,,,,,,,,,448.8475913924631,448.8475913924631,448.8475913924631,448.8475913924631,448.8475913924631,448.8475913924631,s,1,3.006330753210932,451.8645115623949,452.8979664404178,,,,,548,2023-05-15_10h32.40.081,eb_02psyexp,2022.2.4,119.99818897745351,
201,0,201,0,,,,,,,,,,,,,,,,,,,,,,,,,,,,,,,,,,,,,,,,,,,,,,,,,,,,,,,,452.8979664404178,452.8979664404178,452.8979664404178,452.8979664404178,452.8979664404178,452.8979664404178,s,1,0.5000480590388179,453.4063122753287,454.4230655224528,,,,,548,2023-05-15_10h32.40.081,eb_02psyexp,2022.2.4,119.99818897745351,
202,0,202,0,,,,,,,,,,,,,,,,,,,,,,,,,,,,,,,,,,,,,,,,,,,,,,,,,,,,,,,,454.4230655224528,454.4230655224528,454.4230655224528,454.4230655224528,454.4230655224528,454.4230655224528,s,1,1.3670109405647963,455.8065326254582,456.8399675814435,,,,,548,2023-05-15_10h32.40.081,eb_02psyexp,2022.2.4,119.99818897745351,
203,0,203,0,,,,,,,,,,,,,,,,,,,,,,,,,,,,,,,,,,,,,,,,,,,,,,,,,,,,,,,,456.8399675814435,456.8399675814435,456.8399675814435,456.8399675814435,456.8399675814435,456.8399675814435,s,1,0.6060941031901166,457.45666468457785,458.4900969238952,,,,,548,2023-05-15_10h32.40.081,eb_02psyexp,2022.2.4,119.99818897745351,
204,0,204,0,,,,,,,,,,,,,,,,,,,,,,,,,,,,,,,,,,,,,,,,,,,,,,,,,,,,,,,,458.4900969238952,458.4900969238952,458.4900969238952,458.4900969238952,458.4900969238952,458.4900969238952,l,1,0.5480034819338471,459.04846796323545,460.08191499323584,,,,,548,2023-05-15_10h32.40.081,eb_02psyexp,2022.2.4,119.99818897745351,
205,0,205,0,,,,,,,,,,,,,,,,,,,,,,,,,,,,,,,,,,,,,,,,,,,,,,,,,,,,,,,,460.08191499323584,460.08191499323584,460.08191499323584,460.08191499323584,460.08191499323584,460.08191499323584,s,1,0.4762194611830637,460.57360990787856,461.59869842533953,,,,,548,2023-05-15_10h32.40.081,eb_02psyexp,2022.2.4,119.99818897745351,
206,0,206,0,,,,,,,,,,,,,,,,,,,,,,,,,,,,,,,,,,,,,,,,,,,,,,,,,,,,,,,,461.59869842533953,461.59869842533953,461.59869842533953,461.59869842533953,461.59869842533953,461.59869842533953,l,1,0.5354891063179821,462.14873691112734,463.1738495763857,,,,,548,2023-05-15_10h32.40.081,eb_02psyexp,2022.2.4,119.99818897745351,
207,0,207,0,,,,,,,,,,,,,,,,,,,,,,,,,,,,,,,,,,,,,,,,,,,,,,,,,,,,,,,,463.1738495763857,463.1738495763857,463.1738495763857,463.1738495763857,463.1738495763857,463.1738495763857,l,1,0.7923179969657212,463.9822322370019,465.0073289042339,,,,,548,2023-05-15_10h32.40.081,eb_02psyexp,2022.2.4,119.99818897745351,
208,0,208,0,,,,,,,,,,,,,,,,,,,,,,,,,,,,,,,,,,,,,,,,,,,,,,,,,,,,,,,,465.0073289042339,465.0073289042339,465.0073289042339,465.0073289042339,465.0073289042339,465.0073289042339,s,1,1.2949256740976125,466.3157658977434,467.34922017203644,,,,,548,2023-05-15_10h32.40.081,eb_02psyexp,2022.2.4,119.99818897745351,
209,0,209,0,,,,,,,,,,,,,,,,,,,,,,,,,,,,,,,,,,,,,,,,,,,,,,,,,,,,,,,,467.34922017203644,467.34922017203644,467.34922017203644,467.34922017203644,467.34922017203644,467.34922017203644,s,1,1.1680604710709304,468.53264079010114,469.5660666906042,,,,,548,2023-05-15_10h32.40.081,eb_02psyexp,2022.2.4,119.99818897745351,
210,0,210,0,,,,,,,,,,,,,,,,,,,,,,,,,,,,,,,,,,,,,,,,,,,,,,,,,,,,,,,,469.5660666906042,469.5660666906042,469.5660666906042,469.5660666906042,469.5660666906042,469.5660666906042,l,1,1.4232539414661005,470.99954450922087,472.0162711936282,,,,,548,2023-05-15_10h32.40.081,eb_02psyexp,2022.2.4,119.99818897745351,
211,0,211,0,,,,,,,,,,,,,,,,,,,,,,,,,,,,,,,,,,,,,,,,,,,,,,,,,,,,,,,,472.0162711936282,472.0162711936282,472.0162711936282,472.0162711936282,472.0162711936282,472.0162711936282,s,1,1.0770875801099464,473.10802315792535,474.14146505645476,,,,,548,2023-05-15_10h32.40.081,eb_02psyexp,2022.2.4,119.99818897745351,
212,0,212,0,,,,,,,,,,,,,,,,,,,,,,,,,,,,,,,,,,,,,,,,,,,,,,,,,,,,,,,,474.14146505645476,474.14146505645476,474.14146505645476,474.14146505645476,474.14146505645476,474.14146505645476,s,1,0.4319212461123243,474.5831471425481,475.5999142747605,,,,,548,2023-05-15_10h32.40.081,eb_02psyexp,2022.2.4,119.99818897745351,
213,0,213,0,,,,,,,,,,,,,,,,,,,,,,,,,,,,,,,,,,,,,,,,,,,,,,,,,,,,,,,,475.5999142747605,475.5999142747605,475.5999142747605,475.5999142747605,475.5999142747605,475.5999142747605,s,0,0.4855034442152828,476.099947176408,477.12506074726116,,,,,548,2023-05-15_10h32.40.081,eb_02psyexp,2022.2.4,119.99818897745351,
214,0,214,0,,,,,,,,,,,,,,,,,,,,,,,,,,,,,,,,,,,,,,,,,,,,,,,,,,,,,,,,477.12506074726116,477.12506074726116,477.12506074726116,477.12506074726116,477.12506074726116,477.12506074726116,l,1,0.4804015851113945,477.6167450972134,478.6335526772309,,,,,548,2023-05-15_10h32.40.081,eb_02psyexp,2022.2.4,119.99818897745351,
215,0,215,0,,,,,,,,,,,,,,,,,,,,,,,,,,,,,,,,,,,,,,,,,,,,,,,,,,,,,,,,478.6335526772309,478.6335526772309,478.6335526772309,478.6335526772309,478.6335526772309,478.6335526772309,l,1,0.8439484366681427,479.4919240184827,480.51700408407487,,,,,548,2023-05-15_10h32.40.081,eb_02psyexp,2022.2.4,119.99818897745351,
216,0,216,0,,,,,,,,,,,,,,,,,,,,,,,,,,,,,,,,,,,,,,,,,,,,,,,,,,,,,,,,480.51700408407487,480.51700408407487,480.51700408407487,480.51700408407487,480.51700408407487,480.51700408407487,l,1,0.480525343446061,481.0087077524513,482.03380713635124,,,,,548,2023-05-15_10h32.40.081,eb_02psyexp,2022.2.4,119.99818897745351,
217,0,217,0,,,,,,,,,,,,,,,,,,,,,,,,,,,,,,,,,,,,,,,,,,,,,,,,,,,,,,,,482.03380713635124,482.03380713635124,482.03380713635124,482.03380713635124,482.03380713635124,482.03380713635124,s,1,0.6667410872178152,482.70885203650687,483.74228608689737,,,,,548,2023-05-15_10h32.40.081,eb_02psyexp,2022.2.4,119.99818897745351,
218,0,218,0,,,,,,,,,,,,,,,,,,,,,,,,,,,,,,,,,,,,,,,,,,,,,,,,,,,,,,,,483.74228608689737,483.74228608689737,483.74228608689737,483.74228608689737,483.74228608689737,483.74228608689737,s,1,0.4143708145711571,484.1673232897883,485.2007325886516,,,,,548,2023-05-15_10h32.40.081,eb_02psyexp,2022.2.4,119.99818897745351,
219,0,219,0,,,,,,,,,,,,,,,,,,,,,,,,,,,,,,,,,,,,,,,,,,,,,,,,,,,,,,,,485.2007325886516,485.2007325886516,485.2007325886516,485.2007325886516,485.2007325886516,485.2007325886516,l,1,0.5399045598460361,485.7508118241094,486.7675523934886,,,,,548,2023-05-15_10h32.40.081,eb_02psyexp,2022.2.4,119.99818897745351,
220,0,220,0,,,,,,,,,,,,,,,,,,,,,,,,,,,,,,,,,,,,,,,,,,,,,,,,,,,,,,,,486.7675523934886,486.7675523934886,486.7675523934886,486.7675523934886,486.7675523934886,486.7675523934886,s,1,0.5010912506841123,487.28425191144925,488.3176877730293,,,,,548,2023-05-15_10h32.40.081,eb_02psyexp,2022.2.4,119.99818897745351,
221,0,221,0,,,,,,,,,,,,,,,,,,,,,,,,,,,,,,,,,,,,,,,,,,,,,,,,,,,,,,,,488.3176877730293,488.3176877730293,488.3176877730293,488.3176877730293,488.3176877730293,488.3176877730293,l,1,0.4790061351377517,488.80938178219367,489.8345004845178,,,,,548,2023-05-15_10h32.40.081,eb_02psyexp,2022.2.4,119.99818897745351,
222,0,222,0,,,,,,,,,,,,,,,,,,,,,,,,,,,,,,,,,,,,,,,,,,,,,,,,,,,,,,,,489.8345004845178,489.8345004845178,489.8345004845178,489.8345004845178,489.8345004845178,489.8345004845178,s,1,0.5222463679965585,490.36785635596607,491.38461775297765,,,,,548,2023-05-15_10h32.40.081,eb_02psyexp,2022.2.4,119.99818897745351,
223,0,223,0,,,,,,,,,,,,,,,,,,,,,,,,,,,,,,,,,,,,,,,,,,,,,,,,,,,,,,,,491.38461775297765,491.38461775297765,491.38461775297765,491.38461775297765,491.38461775297765,491.38461775297765,l,1,0.604135402245447,492.0013290430652,493.01809345860966,,,,,548,2023-05-15_10h32.40.081,eb_02psyexp,2022.2.4,119.99818897745351,
224,0,224,0,,,,,,,,,,,,,,,,,,,,,,,,,,,,,,,,,,,,,,,,,,,,,,,,,,,,,,,,493.01809345860966,493.01809345860966,493.01809345860966,493.01809345860966,493.01809345860966,493.01809345860966,s,1,0.5386929361848161,493.56812862411607,494.5848915304523,,,,,548,2023-05-15_10h32.40.081,eb_02psyexp,2022.2.4,119.99818897745351,
225,0,225,0,,,,,,,,,,,,,,,,,,,,,,,,,,,,,,,,,,,,,,,,,,,,,,,,,,,,,,,,494.5848915304523,494.5848915304523,494.5848915304523,494.5848915304523,494.5848915304523,494.5848915304523,s,0,0.4039099207147956,495.0015883317683,496.0183687453391,,,,,548,2023-05-15_10h32.40.081,eb_02psyexp,2022.2.4,119.99818897745351,
226,0,226,0,,,,,,,,,,,,,,,,,,,,,,,,,,,,,,,,,,,,,,,,,,,,,,,,,,,,,,,,496.0183687453391,496.0183687453391,496.0183687453391,496.0183687453391,496.0183687453391,496.0183687453391,s,1,0.3784718615934253,496.4100591323804,497.44347597740125,,,,,548,2023-05-15_10h32.40.081,eb_02psyexp,2022.2.4,119.99818897745351,
227,0,227,0,,,,,,,,,,,,,,,,,,,,,,,,,,,,,,,,,,,,,,,,,,,,,,,,,,,,,,,,497.44347597740125,497.44347597740125,497.44347597740125,497.44347597740125,497.44347597740125,497.44347597740125,l,1,0.4963817958487198,497.95184958237223,498.9769423257094,,,,,548,2023-05-15_10h32.40.081,eb_02psyexp,2022.2.4,119.99818897745351,
228,0,228,0,,,,,,,,,,,,,,,,,,,,,,,,,,,,,,,,,,,,,,,,,,,,,,,,,,,,,,,,498.9769423257094,498.9769423257094,498.9769423257094,498.9769423257094,498.9769423257094,498.9769423257094,l,1,0.482950703590177,499.4686390515417,500.49374205758795,,,,,548,2023-05-15_10h32.40.081,eb_02psyexp,2022.2.4,119.99818897745351,
229,0,229,0,,,,,,,,,,,,,,,,,,,,,,,,,,,,,,,,,,,,,,,,,,,,,,,,,,,,,,,,500.49374205758795,500.49374205758795,500.49374205758795,500.49374205758795,500.49374205758795,500.49374205758795,s,1,0.5822033243020996,501.08544844260905,502.10223096923437,,,,,548,2023-05-15_10h32.40.081,eb_02psyexp,2022.2.4,119.99818897745351,
230,0,230,0,,,,,,,,,,,,,,,,,,,,,,,,,,,,,,,,,,,,,,,,,,,,,,,,,,,,,,,,502.10223096923437,502.10223096923437,502.10223096923437,502.10223096923437,502.10223096923437,502.10223096923437,s,0,0.46173551806714386,502.57724296767265,503.6023565385258,,,,,548,2023-05-15_10h32.40.081,eb_02psyexp,2022.2.4,119.99818897745351,
231,0,231,0,,,,,,,,,,,,,,,,,,,,,,,,,,,,,,,,,,,,,,,,,,,,,,,,,,,,,,,,503.6023565385258,503.6023565385258,503.6023565385258,503.6023565385258,503.6023565385258,503.6023565385258,s,1,0.6656381293432787,504.27740657003596,505.30248995602597,,,,,548,2023-05-15_10h32.40.081,eb_02psyexp,2022.2.4,119.99818897745351,
232,0,232,0,,,,,,,,,,,,,,,,,,,,,,,,,,,,,,,,,,,,,,,,,,,,,,,,,,,,,,,,505.30248995602597,505.30248995602597,505.30248995602597,505.30248995602597,505.30248995602597,505.30248995602597,l,1,0.4695135742658749,505.78585473191924,506.81927459547296,,,,,548,2023-05-15_10h32.40.081,eb_02psyexp,2022.2.4,119.99818897745351,
233,0,233,0,,,,,,,,,,,,,,,,,,,,,,,,,,,,,,,,,,,,,,,,,,,,,,,,,,,,,,,,506.81927459547296,506.81927459547296,506.81927459547296,506.81927459547296,506.81927459547296,506.81927459547296,s,1,0.5607892200350761,507.3943297584774,508.4194418200059,,,,,548,2023-05-15_10h32.40.081,eb_02psyexp,2022.2.4,119.99818897745351,
234,0,234,0,,,,,,,,,,,,,,,,,,,,,,,,,,,,,,,,,,,,,,,,,,,,,,,,,,,,,,,,508.4194418200059,508.4194418200059,508.4194418200059,508.4194418200059,508.4194418200059,508.4194418200059,l,1,0.5126544986851513,508.9444778156467,509.9695636163233,,,,,548,2023-05-15_10h32.40.081,eb_02psyexp,2022.2.4,119.99818897745351,
235,0,235,0,,,,,,,,,,,,,,,,,,,,,,,,,,,,,,,,,,,,,,,,,,,,,,,,,,,,,,,,509.9695636163233,509.9695636163233,509.9695636163233,509.9695636163233,509.9695636163233,509.9695636163233,s,1,0.530578016070649,510.5112789059058,511.52804573625326,,,,,548,2023-05-15_10h32.40.081,eb_02psyexp,2022.2.4,119.99818897745351,
236,0,236,0,,,,,,,,,,,,,,,,,,,,,,,,,,,,,,,,,,,,,,,,,,,,,,,,,,,,,,,,511.52804573625326,511.52804573625326,511.52804573625326,511.52804573625326,511.52804573625326,511.52804573625326,l,1,0.5081219276180491,512.0447331801988,513.0781826250022,,,,,548,2023-05-15_10h32.40.081,eb_02psyexp,2022.2.4,119.99818897745351,
237,0,237,0,,,,,,,,,,,,,,,,,,,,,,,,,,,,,,,,,,,,,,,,,,,,,,,,,,,,,,,,513.0781826250022,513.0781826250022,513.0781826250022,513.0781826250022,513.0781826250022,513.0781826250022,s,1,0.5250212699174881,513.6115342704579,514.6282872158336,,,,,548,2023-05-15_10h32.40.081,eb_02psyexp,2022.2.4,119.99818897745351,
238,0,238,0,,,,,,,,,,,,,,,,,,,,,,,,,,,,,,,,,,,,,,,,,,,,,,,,,,,,,,,,514.6282872158336,514.6282872158336,514.6282872158336,514.6282872158336,514.6282872158336,514.6282872158336,l,1,0.4149557987693697,515.0533144577639,516.0867605821695,,,,,548,2023-05-15_10h32.40.081,eb_02psyexp,2022.2.4,119.99818897745351,
239,0,239,0,,,,,,,,,,,,,,,,,,,,,,,,,,,,,,,,,,,,,,,,,,,,,,,,,,,,,,,,516.0867605821695,516.0867605821695,516.0867605821695,516.0867605821695,516.0867605821695,516.0867605821695,s,1,0.4444827100960538,516.5451216604561,517.5702219499508,,,,,548,2023-05-15_10h32.40.081,eb_02psyexp,2022.2.4,119.99818897745351,
240,0,240,0,,,,,,,,,,,,,,,,,,,,,,,,,,,,,,,,,,,,,,,,,,,,,,,,,,,,,,,,517.5702219499508,517.5702219499508,517.5702219499508,517.5702219499508,517.5702219499508,517.5702219499508,s,1,0.5930665836203843,518.1785982716829,519.2120305110002,,,,,548,2023-05-15_10h32.40.081,eb_02psyexp,2022.2.4,119.99818897745351,
241,0,241,0,,,,,,,,,,,,,,,,,,,,,,,,,,,,,,,,,,,,,,,,,,,,,,,,,,,,,,,,519.2120305110002,519.2120305110002,519.2120305110002,519.2120305110002,519.2120305110002,519.2120305110002,s,1,0.5912799367215484,519.812073373585,520.8288392984541,,,,,548,2023-05-15_10h32.40.081,eb_02psyexp,2022.2.4,119.99818897745351,
242,0,242,0,,,,,,,,,,,,,,,,,,,,,,,,,,,,,,,,,,,,,,,,,,,,,,,,,,,,,,,,520.8288392984541,520.8288392984541,520.8288392984541,520.8288392984541,520.8288392984541,520.8288392984541,l,1,0.44652713637333363,521.2871982638026,522.3206347289961,,,,,548,2023-05-15_10h32.40.081,eb_02psyexp,2022.2.4,119.99818897745351,
243,0,243,0,,,,,,,,,,,,,,,,,,,,,,,,,,,,,,,,,,,,,,,,,,,,,,,,,,,,,,,,522.3206347289961,522.3206347289961,522.3206347289961,522.3206347289961,522.3206347289961,522.3206347289961,s,1,0.4027357263257727,522.7373517542146,523.7541074161418,,,,,548,2023-05-15_10h32.40.081,eb_02psyexp,2022.2.4,119.99818897745351,
244,0,244,0,,,,,,,,,,,,,,,,,,,,,,,,,,,,,,,,,,,,,,,,,,,,,,,,,,,,,,,,523.7541074161418,523.7541074161418,523.7541074161418,523.7541074161418,523.7541074161418,523.7541074161418,l,1,0.4813285646960139,524.2458065567771,525.2792375887511,,,,,548,2023-05-15_10h32.40.081,eb_02psyexp,2022.2.4,119.99818897745351,
245,0,245,0,,,,,,,,,,,,,,,,,,,,,,,,,,,,,,,,,,,,,,,,,,,,,,,,,,,,,,,,525.2792375887511,525.2792375887511,525.2792375887511,525.2792375887511,525.2792375887511,525.2792375887511,s,1,0.4441989716142416,525.7375899134204,526.7626766196918,,,,,548,2023-05-15_10h32.40.081,eb_02psyexp,2022.2.4,119.99818897745351,
246,0,246,0,,,,,,,,,,,,,,,,,,,,,,,,,,,,,,,,,,,,,,,,,,,,,,,,,,,,,,,,526.7626766196918,526.7626766196918,526.7626766196918,526.7626766196918,526.7626766196918,526.7626766196918,l,1,0.43281290936283767,527.204394927714,528.2378178098006,,,,,548,2023-05-15_10h32.40.081,eb_02psyexp,2022.2.4,119.99818897745351,
247,0,247,0,,,,,,,,,,,,,,,,,,,,,,,,,,,,,,,,,,,,,,,,,,,,,,,,,,,,,,,,528.2378178098006,528.2378178098006,528.2378178098006,528.2378178098006,528.2378178098006,528.2378178098006,s,1,0.4367079744115472,528.6878445234615,529.7129414925585,,,,,548,2023-05-15_10h32.40.081,eb_02psyexp,2022.2.4,119.99818897745351,
248,0,248,0,,,,,,,,,,,,,,,,,,,,,,,,,,,,,,,,,,,,,,,,,,,,,,,,,,,,,,,,529.7129414925585,529.7129414925585,529.7129414925585,529.7129414925585,529.7129414925585,529.7129414925585,l,1,0.45757874951232225,530.1796185227577,531.2130730989156,,,,,548,2023-05-15_10h32.40.081,eb_02psyexp,2022.2.4,119.99818897745351,
249,0,249,0,,,,,,,,,,,,,,,,,,,,,,,,,,,,,,,,,,,,,,,,,,,,,,,,,,,,,,,,531.2130730989156,531.2130730989156,531.2130730989156,531.2130730989156,531.2130730989156,531.2130730989156,l,0,0.38146500068251044,531.604760769289,532.6215538604883,,,,,548,2023-05-15_10h32.40.081,eb_02psyexp,2022.2.4,119.99818897745351,
250,0,250,0,,,,,,,,,,,,,,,,,,,,,,,,,,,,,,,,,,,,,,,,,,,,,,,,,,,,,,,,532.6215538604883,532.6215538604883,532.6215538604883,532.6215538604883,532.6215538604883,532.6215538604883,l,1,0.4370258217677474,533.0715651798528,534.1049889674177,,,,,548,2023-05-15_10h32.40.081,eb_02psyexp,2022.2.4,119.99818897745351,
251,0,251,0,,,,,,,,,,,,,,,,,,,,,,,,,,,,,,,,,,,,,,,,,,,,,,,,,,,,,,,,534.1049889674177,534.1049889674177,534.1049889674177,534.1049889674177,534.1049889674177,534.1049889674177,s,1,0.43363876931834966,534.5550183977466,535.5801177816465,,,,,548,2023-05-15_10h32.40.081,eb_02psyexp,2022.2.4,119.99818897745351,
252,0,252,0,,,,,,,,,,,,,,,,,,,,,,,,,,,,,,,,,,,,,,,,,,,,,,,,,,,,,,,,535.5801177816465,535.5801177816465,535.5801177816465,535.5801177816465,535.5801177816465,535.5801177816465,l,1,0.510525252786465,536.1051558902254,537.1386367272353,,,,,548,2023-05-15_10h32.40.081,eb_02psyexp,2022.2.4,119.99818897745351,
253,0,253,0,,,,,,,,,,,,,,,,,,,,,,,,,,,,,,,,,,,,,,,,,,,,,,,,,,,,,,,,537.1386367272353,537.1386367272353,537.1386367272353,537.1386367272353,537.1386367272353,537.1386367272353,s,1,0.43203564698342234,537.5802819877863,538.6053786550183,,,,,548,2023-05-15_10h32.40.081,eb_02psyexp,2022.2.4,119.99818897745351,
254,0,254,0,,,,,,,,,,,,,,,,,,,,,,,,,,,,,,,,,,,,,,,,,,,,,,,,,,,,,,,,538.6053786550183,538.6053786550183,538.6053786550183,538.6053786550183,538.6053786550183,538.6053786550183,l,1,0.5733168770093471,539.1887482606107,540.2221995164873,,,,,548,2023-05-15_10h32.40.081,eb_02psyexp,2022.2.4,119.99818897745351,
255,0,255,0,,,,,,,,,,,,,,,,,,,,,,,,,,,,,,,,,,,,,,,,,,,,,,,,,,,,,,,,540.2221995164873,540.2221995164873,540.2221995164873,540.2221995164873,540.2221995164873,540.2221995164873,s,1,0.6045350509230047,540.8389065806987,541.8639941924484,,,,,548,2023-05-15_10h32.40.081,eb_02psyexp,2022.2.4,119.99818897745351,
256,0,256,0,,,,,,,,,,,,,,,,,,,,,,,,,,,,,,,,,,,,,,,,,,,,,,,,,,,,,,,,541.8639941924484,541.8639941924484,541.8639941924484,541.8639941924484,541.8639941924484,541.8639941924484,l,0,0.7067747735418379,542.5807163490681,543.6141470791772,,,,,548,2023-05-15_10h32.40.081,eb_02psyexp,2022.2.4,119.99818897745351,
257,0,257,0,,,,,,,,,,,,,,,,,,,,,,,,,,,,,,,,,,,,,,,,,,,,,,,,,,,,,,,,543.6141470791772,543.6141470791772,543.6141470791772,543.6141470791772,543.6141470791772,543.6141470791772,s,1,2.067710929433815,545.6976528188679,546.7227506935596,,,,,548,2023-05-15_10h32.40.081,eb_02psyexp,2022.2.4,119.99818897745351,
258,0,258,0,,,,,,,,,,,,,,,,,,,,,,,,,,,,,,,,,,,,,,,,,,,,,,,,,,,,,,,,546.7227506935596,546.7227506935596,546.7227506935596,546.7227506935596,546.7227506935596,546.7227506935596,l,1,0.5671295674983412,547.3061257323716,548.3395715549123,,,,,548,2023-05-15_10h32.40.081,eb_02psyexp,2022.2.4,119.99818897745351,
259,0,259,0,,,,,,,,,,,,,,,,,,,,,,,,,,,,,,,,,,,,,,,,,,,,,,,,,,,,,,,,548.3395715549123,548.3395715549123,548.3395715549123,548.3395715549123,548.3395715549123,548.3395715549123,s,1,0.47032615286298096,548.8229158051545,549.8396762966877,,,,,548,2023-05-15_10h32.40.081,eb_02psyexp,2022.2.4,119.99818897745351,
260,0,260,0,,,,,,,,,,,,,,,,,,,,,,,,,,,,,,,,,,,,,,,,,,,,,,,,,,,,,,,,549.8396762966877,549.8396762966877,549.8396762966877,549.8396762966877,549.8396762966877,549.8396762966877,l,1,0.4583053011447191,550.306385926553,551.3398166566622,,,,,548,2023-05-15_10h32.40.081,eb_02psyexp,2022.2.4,119.99818897745351,
261,0,261,0,,,,,,,,,,,,,,,,,,,,,,,,,,,,,,,,,,,,,,,,,,,,,,,,,,,,,,,,551.3398166566622,551.3398166566622,551.3398166566622,551.3398166566622,551.3398166566622,551.3398166566622,s,1,0.43813874071929604,551.7898481999291,552.8149659966584,,,,,548,2023-05-15_10h32.40.081,eb_02psyexp,2022.2.4,119.99818897745351,
262,0,262,0,,,,,,,,,,,,,,,,,,,,,,,,,,,,,,,,,,,,,,,,,,,,,,,,,,,,,,,,552.8149659966584,552.8149659966584,552.8149659966584,552.8149659966584,552.8149659966584,552.8149659966584,l,1,0.45103978540282696,553.2816451397957,554.3150867364602,,,,,548,2023-05-15_10h32.40.081,eb_02psyexp,2022.2.4,119.99818897745351,
263,0,263,0,,,,,,,,,,,,,,,,,,,,,,,,,,,,,,,,,,,,,,,,,,,,,,,,,,,,,,,,554.3150867364602,554.3150867364602,554.3150867364602,554.3150867364602,554.3150867364602,554.3150867364602,l,1,0.6229300571139902,554.9484589077765,555.981885713758,,,,,548,2023-05-15_10h32.40.081,eb_02psyexp,2022.2.4,119.99818897745351,
264,0,264,0,,,,,,,,,,,,,,,,,,,,,,,,,,,,,,,,,,,,,,,,,,,,,,,,,,,,,,,,555.981885713758,555.981885713758,555.981885713758,555.981885713758,555.981885713758,555.981885713758,s,1,0.5401581133482978,556.531940801302,557.55704229814,,,,,548,2023-05-15_10h32.40.081,eb_02psyexp,2022.2.4,119.99818897745351,
265,0,265,0,,,,,,,,,,,,,,,,,,,,,,,,,,,,,,,,,,,,,,,,,,,,,,,,,,,,,,,,557.55704229814,557.55704229814,557.55704229814,557.55704229814,557.55704229814,557.55704229814,l,1,0.6210444036405534,558.190400886233,559.2155020813225,,,,,548,2023-05-15_10h32.40.081,eb_02psyexp,2022.2.4,119.99818897745351,
266,0,266,0,,,,,,,,,,,,,,,,,,,,,,,,,,,,,,,,,,,,,,,,,,,,,,,,,,,,,,,,559.2155020813225,559.2155020813225,559.2155020813225,559.2155020813225,559.2155020813225,559.2155020813225,l,1,0.5066253581317142,559.7321976751555,560.7489835220622,,,,,548,2023-05-15_10h32.40.081,eb_02psyexp,2022.2.4,119.99818897745351,
267,0,267,0,,,,,,,,,,,,,,,,,,,,,,,,,,,,,,,,,,,,,,,,,,,,,,,,,,,,,,,,560.7489835220622,560.7489835220622,560.7489835220622,560.7489835220622,560.7489835220622,560.7489835220622,l,1,0.5721764898626134,561.3323425629642,562.3491066766437,,,,,548,2023-05-15_10h32.40.081,eb_02psyexp,2022.2.4,119.99818897745351,
268,0,268,0,,,,,,,,,,,,,,,,,,,,,,,,,,,,,,,,,,,,,,,,,,,,,,,,,,,,,,,,562.3491066766437,562.3491066766437,562.3491066766437,562.3491066766437,562.3491066766437,562.3491066766437,s,1,0.5160641898401082,562.8741879495792,563.907574307872,,,,,548,2023-05-15_10h32.40.081,eb_02psyexp,2022.2.4,119.99818897745351,
269,0,269,0,,,,,,,,,,,,,,,,,,,,,,,,,,,,,,,,,,,,,,,,,,,,,,,,,,,,,,,,563.907574307872,563.907574307872,563.907574307872,563.907574307872,563.907574307872,563.907574307872,l,1,0.5016261278651655,564.4242819757201,565.4577090835664,,,,,548,2023-05-15_10h32.40.081,eb_02psyexp,2022.2.4,119.99818897745351,
270,0,270,0,,,,,,,,,,,,,,,,,,,,,,,,,,,,,,,,,,,,,,,,,,,,,,,,,,,,,,,,565.4577090835664,565.4577090835664,565.4577090835664,565.4577090835664,565.4577090835664,565.4577090835664,s,1,0.6235497539164498,566.091102686245,567.1078553296393,,,,,548,2023-05-15_10h32.40.081,eb_02psyexp,2022.2.4,119.99818897745351,
271,0,271,0,,,,,,,,,,,,,,,,,,,,,,,,,,,,,,,,,,,,,,,,,,,,,,,,,,,,,,,,567.1078553296393,567.1078553296393,567.1078553296393,567.1078553296393,567.1078553296393,567.1078553296393,s,1,0.5335331220412627,567.6495540174656,568.6746573254932,,,,,548,2023-05-15_10h32.40.081,eb_02psyexp,2022.2.4,119.99818897745351,
272,0,272,0,,,,,,,,,,,,,,,,,,,,,,,,,,,,,,,,,,,,,,,,,,,,,,,,,,,,,,,,568.6746573254932,568.6746573254932,568.6746573254932,568.6746573254932,568.6746573254932,568.6746573254932,s,1,0.5826865852577612,569.2663754826644,570.2997983646346,,,,,548,2023-05-15_10h32.40.081,eb_02psyexp,2022.2.4,119.99818897745351,
273,0,273,0,,,,,,,,,,,,,,,,,,,,,,,,,,,,,,,,,,,,,,,,,,,,,,,,,,,,,,,,570.2997983646346,570.2997983646346,570.2997983646346,570.2997983646346,570.2997983646346,570.2997983646346,s,1,0.5095366958994418,570.824831945356,571.8416081330506,,,,,548,2023-05-15_10h32.40.081,eb_02psyexp,2022.2.4,119.99818897745351,
274,0,274,0,,,,,,,,,,,,,,,,,,,,,,,,,,,,,,,,,,,,,,,,,,,,,,,,,,,,,,,,571.8416081330506,571.8416081330506,571.8416081330506,571.8416081330506,571.8416081330506,571.8416081330506,s,1,0.45578757498878986,572.308291803929,573.333426806028,,,,,548,2023-05-15_10h32.40.081,eb_02psyexp,2022.2.4,119.99818897745351,
275,0,275,0,,,,,,,,,,,,,,,,,,,,,,,,,,,,,,,,,,,,,,,,,,,,,,,,,,,,,,,,573.333426806028,573.333426806028,573.333426806028,573.333426806028,573.333426806028,573.333426806028,s,1,0.5319807103369385,573.8751125143608,574.8918778355,,,,,548,2023-05-15_10h32.40.081,eb_02psyexp,2022.2.4,119.99818897745351,
276,0,276,0,,,,,,,,,,,,,,,,,,,,,,,,,,,,,,,,,,,,,,,,,,,,,,,,,,,,,,,,574.8918778355,574.8918778355,574.8918778355,574.8918778355,574.8918778355,574.8918778355,s,1,0.3975786288501695,575.3002303111134,576.3336531932,,,,,548,2023-05-15_10h32.40.081,eb_02psyexp,2022.2.4,119.99818897745351,
277,0,277,0,,,,,,,,,,,,,,,,,,,,,,,,,,,,,,,,,,,,,,,,,,,,,,,,,,,,,,,,576.3336531932,576.3336531932,576.3336531932,576.3336531932,576.3336531932,576.3336531932,s,0,0.3868001892697066,576.7336643615272,577.7587912138551,,,,,548,2023-05-15_10h32.40.081,eb_02psyexp,2022.2.4,119.99818897745351,
278,0,278,0,,,,,,,,,,,,,,,,,,,,,,,,,,,,,,,,,,,,,,,,,,,,,,,,,,,,,,,,577.7587912138551,577.7587912138551,577.7587912138551,577.7587912138551,577.7587912138551,577.7587912138551,l,1,0.48171251721214503,578.2504924674286,579.2839105197927,,,,,548,2023-05-15_10h32.40.081,eb_02psyexp,2022.2.4,119.99818897745351,
279,0,279,0,,,,,,,,,,,,,,,,,,,,,,,,,,,,,,,,,,,,,,,,,,,,,,,,,,,,,,,,579.2839105197927,579.2839105197927,579.2839105197927,579.2839105197927,579.2839105197927,579.2839105197927,s,1,0.5085991516243666,579.8089480245253,580.8340395604027,,,,,548,2023-05-15_10h32.40.081,eb_02psyexp,2022.2.4,119.99818897745351,
280,0,280,0,,,,,,,,,,,,,,,,,,,,,,,,,,,,,,,,,,,,,,,,,,,,,,,,,,,,,,,,580.8340395604027,580.8340395604027,580.8340395604027,580.8340395604027,580.8340395604027,580.8340395604027,l,1,0.5105143862310797,581.3590797818033,582.3841788639547,,,,,548,2023-05-15_10h32.40.081,eb_02psyexp,2022.2.4,119.99818897745351,
281,0,281,0,,,,,,,,,,,,,,,,,,,,,,,,,,,,,,,,,,,,,,,,,,,,,,,,,,,,,,,,582.3841788639547,582.3841788639547,582.3841788639547,582.3841788639547,582.3841788639547,582.3841788639547,s,1,0.5444271698361263,582.9425613735802,583.967649287195,,,,,548,2023-05-15_10h32.40.081,eb_02psyexp,2022.2.4,119.99818897745351,
282,0,282,0,,,,,,,,,,,,,,,,,,,,,,,,,,,,,,,,,,,,,,,,,,,,,,,,,,,,,,,,583.967649287195,583.967649287195,583.967649287195,583.967649287195,583.967649287195,583.967649287195,l,1,0.5369681685697287,584.5177270134445,585.6261256720172,,,,,548,2023-05-15_10h32.40.081,eb_02psyexp,2022.2.4,119.99818897745351,
283,0,283,0,,,,,,,,,,,,,,,,,,,,,,,,,,,,,,,,,,,,,,,,,,,,,,,,,,,,,,,,585.6261256720172,585.6261256720172,585.6261256720172,585.6261256720172,585.6261256720172,585.6261256720172,s,1,0.6545240334235132,586.2928401315585,587.3179407228017,,,,,548,2023-05-15_10h32.40.081,eb_02psyexp,2022.2.4,119.99818897745351,
284,0,284,0,,,,,,,,,,,,,,,,,,,,,,,,,,,,,,,,,,,,,,,,,,,,,,,,,,,,,,,,587.3179407228017,587.3179407228017,587.3179407228017,587.3179407228017,587.3179407228017,587.3179407228017,s,1,0.5067690385039896,587.8346589554567,588.8597405302571,,,,,548,2023-05-15_10h32.40.081,eb_02psyexp,2022.2.4,119.99818897745351,
285,0,285,0,,,,,,,,,,,,,,,,,,,,,,,,,,,,,,,,,,,,,,,,,,,,,,,,,,,,,,,,588.8597405302571,588.8597405302571,588.8597405302571,588.8597405302571,588.8597405302571,588.8597405302571,l,1,0.5009856033138931,589.3764421611559,590.4098584024468,,,,,548,2023-05-15_10h32.40.081,eb_02psyexp,2022.2.4,119.99818897745351,
286,0,286,0,,,,,,,,,,,,,,,,,,,,,,,,,,,,,,,,,,,,,,,,,,,,,,,,,,,,,,,,590.4098584024468,590.4098584024468,590.4098584024468,590.4098584024468,590.4098584024468,590.4098584024468,s,1,0.7179190545575693,591.1432634753874,592.1683619536925,,,,,548,2023-05-15_10h32.40.081,eb_02psyexp,2022.2.4,119.99818897745351,
287,0,287,0,,,,,,,,,,,,,,,,,,,,,,,,,,,,,,,,,,,,,,,,,,,,,,,,,,,,,,,,592.1683619536925,592.1683619536925,592.1683619536925,592.1683619536925,592.1683619536925,592.1683619536925,l,1,0.503419415326789,592.6850614716532,593.7184958239086,,,,,548,2023-05-15_10h32.40.081,eb_02psyexp,2022.2.4,119.99818897745351,
288,0,288,0,,,,,,,,,,,,,,,,,,,,,,,,,,,,,,,,,,,,,,,,,,,,,,,,,,,,,,,,593.7184958239086,593.7184958239086,593.7184958239086,593.7184958239086,593.7184958239086,593.7184958239086,s,1,0.5293162853922695,594.2602014543954,595.2852972160326,,,,,548,2023-05-15_10h32.40.081,eb_02psyexp,2022.2.4,119.99818897745351,
289,0,289,0,,,,,,,,,,,,,,,,,,,,,,,,,,,,,,,,,,,,,,,,,,,,,,,,,,,,,,,,595.2852972160326,595.2852972160326,595.2852972160326,595.2852972160326,595.2852972160326,595.2852972160326,l,1,0.5305363608058542,595.8269959039753,596.8604480653303,,,,,548,2023-05-15_10h32.40.081,eb_02psyexp,2022.2.4,119.99818897745351,
290,0,290,0,,,,,,,,,,,,,,,,,,,,,,,,,,,,,,,,,,,,,,,,,,,,,,,,,,,,,,,,596.8604480653303,596.8604480653303,596.8604480653303,596.8604480653303,596.8604480653303,596.8604480653303,l,1,0.5474332883022726,597.4188218213385,598.4522419866407,,,,,548,2023-05-15_10h32.40.081,eb_02psyexp,2022.2.4,119.99818897745351,
291,0,291,0,,,,,,,,,,,,,,,,,,,,,,,,,,,,,,,,,,,,,,,,,,,,,,,,,,,,,,,,598.4522419866407,598.4522419866407,598.4522419866407,598.4522419866407,598.4522419866407,598.4522419866407,s,1,0.5316770498175174,598.9939442967298,600.0190470010275,,,,,548,2023-05-15_10h32.40.081,eb_02psyexp,2022.2.4,119.99818897745351,
292,0,292,0,,,,,,,,,,,,,,,,,,,,,,,,,,,,,,,,,,,,,,,,,,,,,,,,,,,,,,,,600.0190470010275,600.0190470010275,600.0190470010275,600.0190470010275,600.0190470010275,600.0190470010275,s,1,0.5089100565528497,600.544077563216,601.5691796637839,,,,,548,2023-05-15_10h32.40.081,eb_02psyexp,2022.2.4,119.99818897745351,
293,0,293,0,,,,,,,,,,,,,,,,,,,,,,,,,,,,,,,,,,,,,,,,,,,,,,,,,,,,,,,,601.5691796637839,601.5691796637839,601.5691796637839,601.5691796637839,601.5691796637839,601.5691796637839,l,1,0.5907806777395308,602.1692201116821,603.1860086751403,,,,,548,2023-05-15_10h32.40.081,eb_02psyexp,2022.2.4,119.99818897745351,
294,0,294,0,,,,,,,,,,,,,,,,,,,,,,,,,,,,,,,,,,,,,,,,,,,,,,,,,,,,,,,,603.1860086751403,603.1860086751403,603.1860086751403,603.1860086751403,603.1860086751403,603.1860086751403,l,1,0.4540045504691079,603.6526820831932,604.6777829763014,,,,,548,2023-05-15_10h32.40.081,eb_02psyexp,2022.2.4,119.99818897745351,
295,0,295,0,,,,,,,,,,,,,,,,,,,,,,,,,,,,,,,,,,,,,,,,,,,,,,,,,,,,,,,,604.6777829763014,604.6777829763014,604.6777829763014,604.6777829763014,604.6777829763014,604.6777829763014,l,1,0.41825229639653116,605.111130999634,606.1362391372677,,,,,548,2023-05-15_10h32.40.081,eb_02psyexp,2022.2.4,119.99818897745351,
296,0,296,0,,,,,,,,,,,,,,,,,,,,,,,,,,,,,,,,,,,,,,,,,,,,,,,,,,,,,,,,606.1362391372677,606.1362391372677,606.1362391372677,606.1362391372677,606.1362391372677,606.1362391372677,s,1,0.574844537070021,606.7196129687363,607.7530482264701,,,,,548,2023-05-15_10h32.40.081,eb_02psyexp,2022.2.4,119.99818897745351,
297,0,297,0,,,,,,,,,,,,,,,,,,,,,,,,,,,,,,,,,,,,,,,,,,,,,,,,,,,,,,,,607.7530482264701,607.7530482264701,607.7530482264701,607.7530482264701,607.7530482264701,607.7530482264701,s,1,0.598035327042453,608.3614393388852,609.3865224228939,,,,,548,2023-05-15_10h32.40.081,eb_02psyexp,2022.2.4,119.99818897745351,
298,0,298,0,,,,,,,,,,,,,,,,,,,,,,,,,,,,,,,,,,,,,,,,,,,,,,,,,,,,,,,,609.3865224228939,609.3865224228939,609.3865224228939,609.3865224228939,609.3865224228939,609.3865224228939,s,1,0.5086057923035696,609.9115735109663,610.9366608208511,,,,,548,2023-05-15_10h32.40.081,eb_02psyexp,2022.2.4,119.99818897745351,
299,0,299,0,,,,,,,,,,,,,,,,,,,,,,,,,,,,,,,,,,,,,,,,,,,,,,,,,,,,,,,,610.9366608208511,610.9366608208511,610.9366608208511,610.9366608208511,610.9366608208511,610.9366608208511,l,1,0.5344942105002701,611.4866941752844,612.5117962758522,,,,,548,2023-05-15_10h32.40.081,eb_02psyexp,2022.2.4,119.99818897745351,
300,0,300,0,,,,,,,,,,,,,,,,,,,,,,,,,,,,,,,,,,,,,,,,,,,,,,,,,,,,,,,,612.5117962758522,612.5117962758522,612.5117962758522,612.5117962758522,612.5117962758522,612.5117962758522,s,1,0.4713943980168551,612.9951565240044,614.0285908763763,,,,,548,2023-05-15_10h32.40.081,eb_02psyexp,2022.2.4,119.99818897745351,
301,0,301,0,,,,,,,,,,,,,,,,,,,,,,,,,,,,,,,,,,,,,,,,,,,,,,,,,,,,,,,,614.0285908763763,614.0285908763763,614.0285908763763,614.0285908763763,614.0285908763763,614.0285908763763,s,1,0.6026285698171705,614.6453586122952,615.6620692986762,,,,,548,2023-05-15_10h32.40.081,eb_02psyexp,2022.2.4,119.99818897745351,
302,0,302,0,,,,,,,,,,,,,,,,,,,,,,,,,,,,,,,,,,,,,,,,,,,,,,,,,,,,,,,,615.6620692986762,615.6620692986762,615.6620692986762,615.6620692986762,615.6620692986762,615.6620692986762,s,1,0.4252063035964966,616.10376194946,617.1371959999669,,,,,548,2023-05-15_10h32.40.081,eb_02psyexp,2022.2.4,119.99818897745351,
303,0,303,0,,,,,,,,,,,,,,,,,,,,,,,,,,,,,,,,,,,,,,,,,,,,,,,,,,,,,,,,617.1371959999669,617.1371959999669,617.1371959999669,617.1371959999669,617.1371959999669,617.1371959999669,l,0,0.3660758110927418,617.5122173557756,618.5289983730763,,,,,548,2023-05-15_10h32.40.081,eb_02psyexp,2022.2.4,119.99818897745351,
304,0,304,0,,,,,,,,,,,,,,,,,,,,,,,,,,,,,,,,,,,,,,,,,,,,,,,,,,,,,,,,618.5289983730763,618.5289983730763,618.5289983730763,618.5289983730763,618.5289983730763,618.5289983730763,s,1,0.6623126541962847,619.2040308973519,620.237454081187,,,,,548,2023-05-15_10h32.40.081,eb_02psyexp,2022.2.4,119.99818897745351,
305,0,305,0,,,,,,,,,,,,,,,,,,,,,,,,,,,,,,,,,,,,,,,,,,,,,,,,,,,,,,,,620.237454081187,620.237454081187,620.237454081187,620.237454081187,620.237454081187,620.237454081187,s,1,0.4019162051845342,620.6541674842592,621.6709225424565,,,,,548,2023-05-15_10h32.40.081,eb_02psyexp,2022.2.4,119.99818897745351,
306,0,306,0,,,,,,,,,,,,,,,,,,,,,,,,,,,,,,,,,,,,,,,,,,,,,,,,,,,,,,,,621.6709225424565,621.6709225424565,621.6709225424565,621.6709225424565,621.6709225424565,621.6709225424565,s,1,0.3994920523837209,622.0792810550192,623.1127135962015,,,,,548,2023-05-15_10h32.40.081,eb_02psyexp,2022.2.4,119.99818897745351,
307,0,307,0,,,,,,,,,,,,,,,,,,,,,,,,,,,,,,,,,,,,,,,,,,,,,,,,,,,,,,,,623.1127135962015,623.1127135962015,623.1127135962015,623.1127135962015,623.1127135962015,623.1127135962015,s,0,0.38168172852601856,623.5044103220571,624.537839241093,,,,,548,2023-05-15_10h32.40.081,eb_02psyexp,2022.2.4,119.99818897745351,
308,0,308,0,,,,,,,,,,,,,,,,,,,,,,,,,,,,,,,,,,,,,,,,,,,,,,,,,,,,,,,,624.537839241093,624.537839241093,624.537839241093,624.537839241093,624.537839241093,624.537839241093,s,1,0.36460037098731846,624.9128642190481,625.9296201828402,,,,,548,2023-05-15_10h32.40.081,eb_02psyexp,2022.2.4,119.99818897745351,
309,0,309,0,,,,,,,,,,,,,,,,,,,,,,,,,,,,,,,,,,,,,,,,,,,,,,,,,,,,,,,,625.9296201828402,625.9296201828402,625.9296201828402,625.9296201828402,625.9296201828402,625.9296201828402,s,1,0.3488447362324223,626.2879812612664,627.3047441676026,,,,,548,2023-05-15_10h32.40.081,eb_02psyexp,2022.2.4,119.99818897745351,
310,0,310,0,,,,,,,,,,,,,,,,,,,,,,,,,,,,,,,,,,,,,,,,,,,,,,,,,,,,,,,,627.3047441676026,627.3047441676026,627.3047441676026,627.3047441676026,627.3047441676026,627.3047441676026,l,1,0.49374031147453934,627.8131292428588,628.8298764530336,,,,,548,2023-05-15_10h32.40.081,eb_02psyexp,2022.2.4,119.99818897745351,
