trials.thisRepN,trials.thisTrialN,trials.thisN,trials.thisIndex,image_loop.thisRepN,image_loop.thisTrialN,image_loop.thisN,image_loop.thisIndex,break_loop.thisRepN,break_loop.thisTrialN,break_loop.thisN,break_loop.thisIndex,test_trials.thisRepN,test_trials.thisTrialN,test_trials.thisN,test_trials.thisIndex,tools,welcome_text.started,instructions_0_keypress.started,instructions_0_keypress.keys,instructions_0_keypress.rt,consent_image_0.started,consent0_key_resp.started,consent0_text.started,consent0_key_resp.keys,consent0_key_resp.rt,consent_image_1.started,consent1_key_resp.started,consent1_text.started,consent1_key_resp.keys,consent1_key_resp.rt,consent2_text.started,consent_image_2.started,consent2_key_resp.started,consent2_key_resp.keys,consent2_key_resp.rt,agree_button.started,disagree_button.started,consent_image_3.started,agree_button.numClicks,agree_button.timesOn,agree_button.timesOff,disagree_button.numClicks,disagree_button.timesOn,disagree_button.timesOff,instructions_text1.started,instructions1_key_resp.started,instr1_cnt_text.started,instructions1_key_resp.keys,instructions1_key_resp.rt,instructions_text2.started,instr2_cnt_text.started,instructions2_key_resp.started,instructions2_key_resp.keys,instructions2_key_resp.rt,instructions_text3.started,instructions3_key_resp.started,instr3_cnt_text.started,instructions3_key_resp.keys,instructions3_key_resp.rt,text_countdown.started,image.started,small_large_keyresp.started,task_question_text.started,smalleroption_text.started,largeroption_text.started,accuracy_score_text.started,small_large_keyresp.keys,small_large_keyresp.corr,small_large_keyresp.rt,fb_2.started,fb_2.stopped,break_text.started,break_key_resp.started,break_key_resp.keys,break_key_resp.rt,graph.started,debrief_text.started,debriefing_title.started,demo_scr_adv.started,demo_scr_adv_keypress.started,demo_scr_adv_keypress.keys,demo_scr_adv_keypress.rt,text_countdown_2.started,participant,date,expName,psychopyVersion,frameRate,
,,,,,,,,,,,,,,,,[ 0 10  6  2  3 11  7  9  4  1  5  8],11.313293135608546,11.313293135608546,return,21.992750033386983,,,,,,,,,,,,,,,,,,,,,,,,,,,,,,,,,,,,,,,,,,,,,,,,,,,,,,,,,,,,,,,,549,2023-05-15_10h34.49.861,eb_02psyexp,2022.2.4,99.93207071004257,
,,,,,,,,,,,,,,,,,,,,,33.317383437999524,33.317383437999524,33.317383437999524,space,18.26774567179382,,,,,,,,,,,,,,,,,,,,,,,,,,,,,,,,,,,,,,,,,,,,,,,,,,,,,,,,,,,549,2023-05-15_10h34.49.861,eb_02psyexp,2022.2.4,99.93207071004257,
,,,,,,,,,,,,,,,,,,,,,,,,,,51.59881833696272,51.59881833696272,51.59881833696272,space,4.1613582680001855,,,,,,,,,,,,,,,,,,,,,,,,,,,,,,,,,,,,,,,,,,,,,,,,,,,,,,549,2023-05-15_10h34.49.861,eb_02psyexp,2022.2.4,99.93207071004257,
,,,,,,,,,,,,,,,,,,,,,,,,,,,,,,,55.77150691312272,55.77150691312272,55.77150691312272,space,0.8206346608931199,,,,,,,,,,,,,,,,,,,,,,,,,,,,,,,,,,,,,,,,,,,,,,,,,549,2023-05-15_10h34.49.861,eb_02psyexp,2022.2.4,99.93207071004257,
,,,,,,,,,,,,,,,,,,,,,,,,,,,,,,,,,,,,56.61205363902263,56.61205363902263,56.61205363902263,1,[5.923480466706678],[5.923485598061234],0,,,62.525846388656646,64.51714962883852,64.51714962883852,space,1.8910735255340114,,,,,,,,,,,,,,,,,,,,,,,,,,,,,,,,,,,549,2023-05-15_10h34.49.861,eb_02psyexp,2022.2.4,99.93207071004257,
,,,,,,,,,,,,,,,,,,,,,,,,,,,,,,,,,,,,,,,,,,,,,,,,,,66.41867901734076,69.41061824501958,69.41061824501958,space,10.580666028778069,,,,,,,,,,,,,,,,,,,,,,,,,,,,,,549,2023-05-15_10h34.49.861,eb_02psyexp,2022.2.4,99.93207071004257,
,,,,,,,,,,,,,,,,,,,,,,,,,,,,,,,,,,,,,,,,,,,,,,,,,,,,,,,80.0074154274771,82.99935767368879,82.99935767368879,space,14.623010966344737,,,,,,,,,,,,,,,,,,,,,,,,,549,2023-05-15_10h34.49.861,eb_02psyexp,2022.2.4,99.93207071004257,
0,0,0,0,,,,,,,,,,,,,,,,,,,,,,,,,,,,,,,,,,,,,,,,,,,,,,,,,,,,,,,,,97.64878757891711,102.69171145546716,102.69171145546716,102.69171145546716,102.69171145546716,102.69171145546716,102.69171145546716,s,1,3.665706949774176,106.37407808972057,107.39473757287487,,,,,,,,,,,,,549,2023-05-15_10h34.49.861,eb_02psyexp,2022.2.4,99.93207071004257,
1,0,1,0,,,,,,,,,,,,,,,,,,,,,,,,,,,,,,,,,,,,,,,,,,,,,,,,,,,,,,,,,,107.39473757287487,107.39473757287487,107.39473757287487,107.39473757287487,107.39473757287487,107.39473757287487,l,1,2.258720504469238,109.6661961908685,110.68691483559087,,,,,,,,,,,,,549,2023-05-15_10h34.49.861,eb_02psyexp,2022.2.4,99.93207071004257,
2,0,2,0,,,,,,,,,,,,,,,,,,,,,,,,,,,,,,,,,,,,,,,,,,,,,,,,,,,,,,,,,,110.68691483559087,110.68691483559087,110.68691483559087,110.68691483559087,110.68691483559087,110.68691483559087,l,1,1.5905502469977364,112.28789951454382,113.30857318441849,,,,,,,,,,,,,549,2023-05-15_10h34.49.861,eb_02psyexp,2022.2.4,99.93207071004257,
3,0,3,0,,,,,,,,,,,,,,,,,,,,,,,,,,,,,,,,,,,,,,,,,,,,,,,,,,,,,,,,,,113.30857318441849,113.30857318441849,113.30857318441849,113.30857318441849,113.30857318441849,113.30857318441849,l,1,1.976891094003804,115.29983929765876,116.33049045596272,,,,,,,,,,,,,549,2023-05-15_10h34.49.861,eb_02psyexp,2022.2.4,99.93207071004257,
4,0,4,0,,,,,,,,,,,,,,,,,,,,,,,,,,,,,,,,,,,,,,,,,,,,,,,,,,,,,,,,,,116.33049045596272,116.33049045596272,116.33049045596272,116.33049045596272,116.33049045596272,116.33049045596272,s,1,1.1860546270618215,117.53126450744458,118.55198405776173,,,,,,,,,,,,,549,2023-05-15_10h34.49.861,eb_02psyexp,2022.2.4,99.93207071004257,
5,0,5,0,,,,,,,,,,,,,,,,,,,,,,,,,,,,,,,,,,,,,,,,,,,,,,,,,,,,,,,,,,118.55198405776173,118.55198405776173,118.55198405776173,118.55198405776173,118.55198405776173,118.55198405776173,l,1,1.2365566255757585,119.8027433489915,120.83339299808722,,,,,,,,,,,,,549,2023-05-15_10h34.49.861,eb_02psyexp,2022.2.4,99.93207071004257,
6,0,6,0,,,,,,,,,,,,,,,,,,,,,,,,,,,,,,,,,,,,,,,,,,,,,,,,,,,,,,,,,,120.83339299808722,120.83339299808722,120.83339299808722,120.83339299808722,120.83339299808722,120.83339299808722,s,1,0.6351240085205063,121.48382351966575,122.50447213638108,,,,,,,,,,,,,549,2023-05-15_10h34.49.861,eb_02psyexp,2022.2.4,99.93207071004257,
7,0,7,0,,,,,,,,,,,,,,,,,,,,,,,,,,,,,,,,,,,,,,,,,,,,,,,,,,,,,,,,,,122.50447213638108,122.50447213638108,122.50447213638108,122.50447213638108,122.50447213638108,122.50447213638108,s,1,0.7640356941847131,123.28497101378161,124.31565477140248,,,,,,,,,,,,,549,2023-05-15_10h34.49.861,eb_02psyexp,2022.2.4,99.93207071004257,
8,0,8,0,,,,,,,,,,,,,,,,,,,,,,,,,,,,,,,,,,,,,,,,,,,,,,,,,,,,,,,,,,124.31565477140248,124.31565477140248,124.31565477140248,124.31565477140248,124.31565477140248,124.31565477140248,l,1,0.7128632976673543,125.04611981194466,126.06676842866,,,,,,,,,,,,,549,2023-05-15_10h34.49.861,eb_02psyexp,2022.2.4,99.93207071004257,
9,0,9,0,,,,,,,,,,,,,,,,,,,,,,,,,,,,,,,,,,,,,,,,,,,,,,,,,,,,,,,,,,126.06676842866,126.06676842866,126.06676842866,126.06676842866,126.06676842866,126.06676842866,s,1,1.3857661838410422,127.46769956033677,128.48838681320194,,,,,,,,,,,,,549,2023-05-15_10h34.49.861,eb_02psyexp,2022.2.4,99.93207071004257,
10,0,10,0,,,,,,,,,,,,,,,,,,,,,,,,,,,,,,,,,,,,,,,,,,,,,,,,,,,,,,,,,,128.48838681320194,128.48838681320194,128.48838681320194,128.48838681320194,128.48838681320194,128.48838681320194,l,1,1.036157465656288,129.53900260734372,130.55970404692926,,,,,,,,,,,,,549,2023-05-15_10h34.49.861,eb_02psyexp,2022.2.4,99.93207071004257,
11,0,11,0,,,,,,,,,,,,,,,,,,,,,,,,,,,,,,,,,,,,,,,,,,,,,,,,,,,,,,,,,,130.55970404692926,130.55970404692926,130.55970404692926,130.55970404692926,130.55970404692926,130.55970404692926,s,1,0.7728586251614615,131.3501828275621,132.37086796748918,,,,,,,,,,,,,549,2023-05-15_10h34.49.861,eb_02psyexp,2022.2.4,99.93207071004257,
12,0,12,0,,,,,,,,,,,,,,,,,,,,,,,,,,,,,,,,,,,,,,,,,,,,,,,,,,,,,,,,,,132.37086796748918,132.37086796748918,132.37086796748918,132.37086796748918,132.37086796748918,132.37086796748918,l,1,0.7697366416687146,133.15132820885628,134.18199506297242,,,,,,,,,,,,,549,2023-05-15_10h34.49.861,eb_02psyexp,2022.2.4,99.93207071004257,
13,0,13,0,,,,,,,,,,,,,,,,,,,,,,,,,,,,,,,,,,,,,,,,,,,,,,,,,,,,,,,,,,134.18199506297242,134.18199506297242,134.18199506297242,134.18199506297242,134.18199506297242,134.18199506297242,s,1,0.573607080266811,134.77238830074202,135.79307464812882,,,,,,,,,,,,,549,2023-05-15_10h34.49.861,eb_02psyexp,2022.2.4,99.93207071004257,
14,0,14,0,,,,,,,,,,,,,,,,,,,,,,,,,,,,,,,,,,,,,,,,,,,,,,,,,,,,,,,,,,135.79307464812882,135.79307464812882,135.79307464812882,135.79307464812882,135.79307464812882,135.79307464812882,l,1,0.7065236459020525,136.51349941652734,137.53417097346392,,,,,,,,,,,,,549,2023-05-15_10h34.49.861,eb_02psyexp,2022.2.4,99.93207071004257,
15,0,15,0,,,,,,,,,,,,,,,,,,,,,,,,,,,,,,,,,,,,,,,,,,,,,,,,,,,,,,,,,,137.53417097346392,137.53417097346392,137.53417097346392,137.53417097346392,137.53417097346392,137.53417097346392,s,1,0.5494766806950793,138.09449440648314,139.11518618708942,,,,,,,,,,,,,549,2023-05-15_10h34.49.861,eb_02psyexp,2022.2.4,99.93207071004257,
16,0,16,0,,,,,,,,,,,,,,,,,,,,,,,,,,,,,,,,,,,,,,,,,,,,,,,,,,,,,,,,,,139.11518618708942,139.11518618708942,139.11518618708942,139.11518618708942,139.11518618708942,139.11518618708942,l,1,0.6564363825600594,139.7856229991885,140.81627506297082,,,,,,,,,,,,,549,2023-05-15_10h34.49.861,eb_02psyexp,2022.2.4,99.93207071004257,
17,0,17,0,,,,,,,,,,,,,,,,,,,,,,,,,,,,,,,,,,,,,,,,,,,,,,,,,,,,,,,,,,140.81627506297082,140.81627506297082,140.81627506297082,140.81627506297082,140.81627506297082,140.81627506297082,s,1,0.6193661872530356,141.4466790704755,142.46733342227526,,,,,,,,,,,,,549,2023-05-15_10h34.49.861,eb_02psyexp,2022.2.4,99.93207071004257,
18,0,18,0,,,,,,,,,,,,,,,,,,,,,,,,,,,,,,,,,,,,,,,,,,,,,,,,,,,,,,,,,,142.46733342227526,142.46733342227526,142.46733342227526,142.46733342227526,142.46733342227526,142.46733342227526,s,1,0.6563425087369978,143.1377732527908,144.15842186950613,,,,,,,,,,,,,549,2023-05-15_10h34.49.861,eb_02psyexp,2022.2.4,99.93207071004257,
19,0,19,0,,,,,,,,,,,,,,,,,,,,,,,,,,,,,,,,,,,,,,,,,,,,,,,,,,,,,,,,,,144.15842186950613,144.15842186950613,144.15842186950613,144.15842186950613,144.15842186950613,144.15842186950613,l,1,0.6052371220430359,144.77880794135854,145.79948523337953,,,,,,,,,,,,,549,2023-05-15_10h34.49.861,eb_02psyexp,2022.2.4,99.93207071004257,
20,0,20,0,,,,,,,,,,,,,,,,,,,,,,,,,,,,,,,,,,,,,,,,,,,,,,,,,,,,,,,,,,145.79948523337953,145.79948523337953,145.79948523337953,145.79948523337953,145.79948523337953,145.79948523337953,s,1,0.8121694163419306,146.63002036244143,147.65068829723168,,,,,,,,,,,,,549,2023-05-15_10h34.49.861,eb_02psyexp,2022.2.4,99.93207071004257,
21,0,21,0,,,,,,,,,,,,,,,,,,,,,,,,,,,,,,,,,,,,,,,,,,,,,,,,,,,,,,,,,,147.65068829723168,147.65068829723168,147.65068829723168,147.65068829723168,147.65068829723168,147.65068829723168,l,1,1.1449523854535073,148.81142803502735,149.8421072649071,,,,,,,,,,,,,549,2023-05-15_10h34.49.861,eb_02psyexp,2022.2.4,99.93207071004257,
22,0,22,0,,,,,,,,,,,,,,,,,,,,,,,,,,,,,,,,,,,,,,,,,,,,,,,,,,,,,,,,,,149.8421072649071,149.8421072649071,149.8421072649071,149.8421072649071,149.8421072649071,149.8421072649071,s,1,0.6085791504010558,150.46250541054178,151.49315898364875,,,,,,,,,,,,,549,2023-05-15_10h34.49.861,eb_02psyexp,2022.2.4,99.93207071004257,
23,0,23,0,,,,,,,,,,,,,,,,,,,,,,,,,,,,,,,,,,,,,,,,,,,,,,,,,,,,,,,,,,151.49315898364875,151.49315898364875,151.49315898364875,151.49315898364875,151.49315898364875,151.49315898364875,l,1,0.8455263137584552,152.35373916605022,153.3743660498876,,,,,,,,,,,,,549,2023-05-15_10h34.49.861,eb_02psyexp,2022.2.4,99.93207071004257,
24,0,24,0,,,,,,,,,,,,,,,,,,,,,,,,,,,,,,,,,,,,,,,,,,,,,,,,,,,,,,,,,,153.3743660498876,153.3743660498876,153.3743660498876,153.3743660498876,153.3743660498876,153.3743660498876,s,1,0.7323338132118806,154.12488688353915,155.14551376749296,,,,,,,,,,,,,549,2023-05-15_10h34.49.861,eb_02psyexp,2022.2.4,99.93207071004257,
25,0,25,0,,,,,,,,,,,,,,,,,,,,,,,,,,,,,,,,,,,,,,,,,,,,,,,,,,,,,,,,,,155.14551376749296,155.14551376749296,155.14551376749296,155.14551376749296,155.14551376749296,155.14551376749296,l,1,0.641204979037866,155.80595196189824,156.8266603440279,,,,,,,,,,,,,549,2023-05-15_10h34.49.861,eb_02psyexp,2022.2.4,99.93207071004257,
26,0,26,0,,,,,,,,,,,,,,,,,,,,,,,,,,,,,,,,,,,,,,,,,,,,,,,,,,,,,,,,,,156.8266603440279,156.8266603440279,156.8266603440279,156.8266603440279,156.8266603440279,156.8266603440279,l,1,1.112052179640159,157.95733842684422,158.98797902057413,,,,,,,,,,,,,549,2023-05-15_10h34.49.861,eb_02psyexp,2022.2.4,99.93207071004257,
27,0,27,0,,,,,,,,,,,,,,,,,,,,,,,,,,,,,,,,,,,,,,,,,,,,,,,,,,,,,,,,,,158.98797902057413,158.98797902057413,158.98797902057413,158.98797902057413,158.98797902057413,158.98797902057413,l,1,0.5427277269773185,159.54836402996443,160.56901143933646,,,,,,,,,,,,,549,2023-05-15_10h34.49.861,eb_02psyexp,2022.2.4,99.93207071004257,
28,0,28,0,,,,,,,,,,,,,,,,,,,,,,,,,,,,,,,,,,,,,,,,,,,,,,,,,,,,,,,,,,160.56901143933646,160.56901143933646,160.56901143933646,160.56901143933646,160.56901143933646,160.56901143933646,s,1,0.6097466871142387,161.189410188701,162.21008506591897,,,,,,,,,,,,,549,2023-05-15_10h34.49.861,eb_02psyexp,2022.2.4,99.93207071004257,
29,0,29,0,,,,,,,,,,,,,,,,,,,,,,,,,,,,,,,,,,,,,,,,,,,,,,,,,,,,,,,,,,162.21008506591897,162.21008506591897,162.21008506591897,162.21008506591897,162.21008506591897,162.21008506591897,l,1,0.783777266391553,163.01058208406903,164.03125122620258,,,,,,,,,,,,,549,2023-05-15_10h34.49.861,eb_02psyexp,2022.2.4,99.93207071004257,
30,0,30,0,,,,,,,,,,,,,,,,,,,,,,,,,,,,,,,,,,,,,,,,,,,,,,,,,,,,,,,,,,164.03125122620258,164.03125122620258,164.03125122620258,164.03125122620258,164.03125122620258,164.03125122620258,s,1,0.5705327881732956,164.61161505815107,165.63227091915905,,,,,,,,,,,,,549,2023-05-15_10h34.49.861,eb_02psyexp,2022.2.4,99.93207071004257,
31,0,31,0,,,,,,,,,,,,,,,,,,,,,,,,,,,,,,,,,,,,,,,,,,,,,,,,,,,,,,,,,,165.63227091915905,165.63227091915905,165.63227091915905,165.63227091915905,165.63227091915905,165.63227091915905,l,1,0.6015117502538487,166.2526898921933,167.28332112869248,,,,,,,,,,,,,549,2023-05-15_10h34.49.861,eb_02psyexp,2022.2.4,99.93207071004257,
32,0,32,0,,,,,,,,,,,,,,,,,,,,,,,,,,,,,,,,,,,,,,,,,,,,,,,,,,,,,,,,,,167.28332112869248,167.28332112869248,167.28332112869248,167.28332112869248,167.28332112869248,167.28332112869248,s,1,0.9504977621836588,168.24394151684828,169.26461367751472,,,,,,,,,,,,,549,2023-05-15_10h34.49.861,eb_02psyexp,2022.2.4,99.93207071004257,
33,0,33,0,,,,,,,,,,,,,,,,,,,,,,,,,,,,,,,,,,,,,,,,,,,,,,,,,,,,,,,,,,169.26461367751472,169.26461367751472,169.26461367751472,169.26461367751472,169.26461367751472,169.26461367751472,s,1,1.3531732563860714,170.6355039816117,171.65616316290107,,,,,,,,,,,,,549,2023-05-15_10h34.49.861,eb_02psyexp,2022.2.4,99.93207071004257,
34,0,34,0,,,,,,,,,,,,,,,,,,,,,,,,,,,,,,,,,,,,,,,,,,,,,,,,,,,,,,,,,,171.65616316290107,171.65616316290107,171.65616316290107,171.65616316290107,171.65616316290107,171.65616316290107,l,1,0.609640437643975,172.27656191238202,173.30720612814184,,,,,,,,,,,,,549,2023-05-15_10h34.49.861,eb_02psyexp,2022.2.4,99.93207071004257,
35,0,35,0,,,,,,,,,,,,,,,,,,,,,,,,,,,,,,,,,,,,,,,,,,,,,,,,,,,,,,,,,,173.30720612814184,173.30720612814184,173.30720612814184,173.30720612814184,173.30720612814184,173.30720612814184,s,1,0.6066388903418556,173.9276263085194,174.94861721759662,,,,,,,,,,,,,549,2023-05-15_10h34.49.861,eb_02psyexp,2022.2.4,99.93207071004257,
36,0,36,0,,,,,,,,,,,,,,,,,,,,,,,,,,,,,,,,,,,,,,,,,,,,,,,,,,,,,,,,,,174.94861721759662,174.94861721759662,174.94861721759662,174.94861721759662,174.94861721759662,174.94861721759662,l,1,0.7252380395075306,175.6887748048175,176.7194365276955,,,,,,,,,,,,,549,2023-05-15_10h34.49.861,eb_02psyexp,2022.2.4,99.93207071004257,
37,0,37,0,,,,,,,,,,,,,,,,,,,,,,,,,,,,,,,,,,,,,,,,,,,,,,,,,,,,,,,,,,176.7194365276955,176.7194365276955,176.7194365276955,176.7194365276955,176.7194365276955,176.7194365276955,s,1,0.5783922298578545,177.30982161557768,178.33048411714844,,,,,,,,,,,,,549,2023-05-15_10h34.49.861,eb_02psyexp,2022.2.4,99.93207071004257,
38,0,38,0,,,,,,,,,,,,,,,,,,,,,,,,,,,,,,,,,,,,,,,,,,,,,,,,,,,,,,,,,,178.33048411714844,178.33048411714844,178.33048411714844,178.33048411714844,178.33048411714844,178.33048411714844,l,1,1.0624421333195642,179.4111627736129,180.44182902411558,,,,,,,,,,,,,549,2023-05-15_10h34.49.861,eb_02psyexp,2022.2.4,99.93207071004257,
39,0,39,0,,,,,,,,,,,,,,,,,,,,,,,,,,,,,,,,,,,,,,,,,,,,,,,,,,,,,,,,,,180.44182902411558,180.44182902411558,180.44182902411558,180.44182902411558,180.44182902411558,180.44182902411558,s,1,0.8150188336148858,181.27237833978143,182.2930284658214,,,,,,,,,,,,,549,2023-05-15_10h34.49.861,eb_02psyexp,2022.2.4,99.93207071004257,
40,0,40,0,,,,,,,,,,,,,,,,,,,,,,,,,,,,,,,,,,,,,,,,,,,,,,,,,,,,,,,,,,182.2930284658214,182.2930284658214,182.2930284658214,182.2930284658214,182.2930284658214,182.2930284658214,l,1,0.6038190538529307,182.91342600784265,,,,,,,,,,,,,,549,2023-05-15_10h34.49.861,eb_02psyexp,2022.2.4,99.93207071004257,
41,0,41,0,,,,,,,,,,,,,,,,,,,,,,,,,,,,,,,,,,,,,,,,,,,,,,,,,,,,,,,,,,183.94406539411284,183.94406539411284,183.94406539411284,183.94406539411284,183.94406539411284,183.94406539411284,s,1,0.4648076326120645,184.42473342549056,185.44509649684187,,,,,,,,,,,,,549,2023-05-15_10h34.49.861,eb_02psyexp,2022.2.4,99.93207071004257,
42,0,42,0,,,,,,,,,,,,,,,,,,,,,,,,,,,,,,,,,,,,,,,,,,,,,,,,,,,,,,,,,,185.44509649684187,185.44509649684187,185.44509649684187,185.44509649684187,185.44509649684187,185.44509649684187,l,1,0.4837861406849697,185.94537842017598,,,,,,,,,,,,,,549,2023-05-15_10h34.49.861,eb_02psyexp,2022.2.4,99.93207071004257,
43,0,43,0,,,,,,,,,,,,,,,,,,,,,,,,,,,,,,,,,,,,,,,,,,,,,,,,,,,,,,,,,,186.9760280691553,186.9760280691553,186.9760280691553,186.9760280691553,186.9760280691553,186.9760280691553,s,1,0.5128553289687261,187.50671212852467,188.52706946479157,,,,,,,,,,,,,549,2023-05-15_10h34.49.861,eb_02psyexp,2022.2.4,99.93207071004257,
44,0,44,0,,,,,,,,,,,,,,,,,,,,,,,,,,,,,,,,,,,,,,,,,,,,,,,,,,,,,,,,,,188.52706946479157,188.52706946479157,188.52706946479157,188.52706946479157,188.52706946479157,188.52706946479157,l,1,0.5218252586200833,189.06740713282488,190.09808002389036,,,,,,,,,,,,,549,2023-05-15_10h34.49.861,eb_02psyexp,2022.2.4,99.93207071004257,
45,0,45,0,,,,,,,,,,,,,,,,,,,,,,,,,,,,,,,,,,,,,,,,,,,,,,,,,,,,,,,,,,190.09808002389036,190.09808002389036,190.09808002389036,190.09808002389036,190.09808002389036,190.09808002389036,s,1,0.446809517336078,190.55836958996952,191.57908551814035,,,,,,,,,,,,,549,2023-05-15_10h34.49.861,eb_02psyexp,2022.2.4,99.93207071004257,
46,0,46,0,,,,,,,,,,,,,,,,,,,,,,,,,,,,,,,,,,,,,,,,,,,,,,,,,,,,,,,,,,191.57908551814035,191.57908551814035,191.57908551814035,191.57908551814035,191.57908551814035,191.57908551814035,l,1,0.4778316431911662,192.06933954486158,193.0999904013006,,,,,,,,,,,,,549,2023-05-15_10h34.49.861,eb_02psyexp,2022.2.4,99.93207071004257,
47,0,47,0,,,,,,,,,,,,,,,,,,,,,,,,,,,,,,,,,,,,,,,,,,,,,,,,,,,,,,,,,,193.0999904013006,193.0999904013006,193.0999904013006,193.0999904013006,193.0999904013006,193.0999904013006,s,1,0.9809937721583992,194.10063997190446,195.1213088122895,,,,,,,,,,,,,549,2023-05-15_10h34.49.861,eb_02psyexp,2022.2.4,99.93207071004257,
48,0,48,0,,,,,,,,,,,,,,,,,,,,,,,,,,,,,,,,,,,,,,,,,,,,,,,,,,,,,,,,,,195.1213088122895,195.1213088122895,195.1213088122895,195.1213088122895,195.1213088122895,195.1213088122895,l,1,0.43963767879176885,195.57158919610083,196.6022563521983,,,,,,,,,,,,,549,2023-05-15_10h34.49.861,eb_02psyexp,2022.2.4,99.93207071004257,
49,0,49,0,,,,,,,,,,,,,,,,,,,,,,,,,,,,,,,,,,,,,,,,,,,,,,,,,,,,,,,,,,196.6022563521983,196.6022563521983,196.6022563521983,196.6022563521983,196.6022563521983,196.6022563521983,s,1,0.48567116307094693,197.10259230574593,198.133259461727,,,,,,,,,,,,,549,2023-05-15_10h34.49.861,eb_02psyexp,2022.2.4,99.93207071004257,
50,0,50,0,,,,,,,,,,,,,,,,,,,,,,,,,,,,,,,,,,,,,,,,,,,,,,,,,,,,,,,,,,198.133259461727,198.133259461727,198.133259461727,198.133259461727,198.133259461727,198.133259461727,l,1,0.8266788063338026,198.97379894345067,200.00446700502653,,,,,,,,,,,,,549,2023-05-15_10h34.49.861,eb_02psyexp,2022.2.4,99.93207071004257,
51,0,51,0,,,,,,,,,,,,,,,,,,,,,,,,,,,,,,,,,,,,,,,,,,,,,,,,,,,,,,,,,,200.00446700502653,200.00446700502653,200.00446700502653,200.00446700502653,200.00446700502653,200.00446700502653,s,1,0.5875176095869392,200.6048522196943,201.6254938939819,,,,,,,,,,,,,549,2023-05-15_10h34.49.861,eb_02psyexp,2022.2.4,99.93207071004257,
52,0,52,0,,,,,,,,,,,,,,,,,,,,,,,,,,,,,,,,,,,,,,,,,,,,,,,,,,,,,,,,,,201.6254938939819,201.6254938939819,201.6254938939819,201.6254938939819,201.6254938939819,201.6254938939819,l,1,0.5424790066899732,202.18587226280943,203.2065809466876,,,,,,,,,,,,,549,2023-05-15_10h34.49.861,eb_02psyexp,2022.2.4,99.93207071004257,
53,0,53,0,,,,,,,,,,,,,,,,,,,,,,,,,,,,,,,,,,,,,,,,,,,,,,,,,,,,,,,,,,203.2065809466876,203.2065809466876,203.2065809466876,203.2065809466876,203.2065809466876,203.2065809466876,l,1,0.6333880976308137,203.85694657161366,204.8876167461276,,,,,,,,,,,,,549,2023-05-15_10h34.49.861,eb_02psyexp,2022.2.4,99.93207071004257,
54,0,54,0,,,,,,,,,,,,,,,,,,,,,,,,,,,,,,,,,,,,,,,,,,,,,,,,,,,,,,,,,,204.8876167461276,204.8876167461276,204.8876167461276,204.8876167461276,204.8876167461276,204.8876167461276,l,1,1.0083949646214023,205.90826324990485,206.92897736700252,,,,,,,,,,,,,549,2023-05-15_10h34.49.861,eb_02psyexp,2022.2.4,99.93207071004257,
55,0,55,0,,,,,,,,,,,,,,,,,,,,,,,,,,,,,,,,,,,,,,,,,,,,,,,,,,,,,,,,,,206.92897736700252,206.92897736700252,206.92897736700252,206.92897736700252,206.92897736700252,206.92897736700252,s,1,0.7670115845976397,207.70942855300382,208.74011200864334,,,,,,,,,,,,,549,2023-05-15_10h34.49.861,eb_02psyexp,2022.2.4,99.93207071004257,
56,0,56,0,,,,,,,,,,,,,,,,,,,,,,,,,,,,,,,,,,,,,,,,,,,,,,,,,,,,,,,,,,208.74011200864334,208.74011200864334,208.74011200864334,208.74011200864334,208.74011200864334,208.74011200864334,l,1,0.46788645221386105,209.22037647326943,210.24104772834107,,,,,,,,,,,,,549,2023-05-15_10h34.49.861,eb_02psyexp,2022.2.4,99.93207071004257,
57,0,57,0,,,,,,,,,,,,,,,,,,,,,,,,,,,,,,,,,,,,,,,,,,,,,,,,,,,,,,,,,,210.24104772834107,210.24104772834107,210.24104772834107,210.24104772834107,210.24104772834107,210.24104772834107,l,1,0.5589781594462693,210.81143075157888,,,,,,,,,,,,,,549,2023-05-15_10h34.49.861,eb_02psyexp,2022.2.4,99.93207071004257,
58,0,58,0,,,,,,,,,,,,,,,,,,,,,,,,,,,,,,,,,,,,,,,,,,,,,,,,,,,,,,,,,,211.84240971365944,211.84240971365944,211.84240971365944,211.84240971365944,211.84240971365944,211.84240971365944,l,1,1.1726104482077062,213.03287243598606,214.0535814218456,,,,,,,,,,,,,549,2023-05-15_10h34.49.861,eb_02psyexp,2022.2.4,99.93207071004257,
59,0,59,0,,,,,,,,,,,,,,,,,,,,,,,,,,,,,,,,,,,,,,,,,,,,,,,,,,,,,,,,,,214.0535814218456,214.0535814218456,214.0535814218456,214.0535814218456,214.0535814218456,214.0535814218456,l,1,0.6334327707299963,214.70393618033268,215.73458552744705,,,,,,,,,,,,,549,2023-05-15_10h34.49.861,eb_02psyexp,2022.2.4,99.93207071004257,
60,0,60,0,,,,,,,,,,,,,,,,,,,,,,,,,,,,,,,,,,,,,,,,,,,,,,,,,,,,,,,,,,215.73458552744705,215.73458552744705,215.73458552744705,215.73458552744705,215.73458552744705,215.73458552744705,l,1,0.7204667747719213,216.46509584481828,217.4857891346328,,,,,,,,,,,,,549,2023-05-15_10h34.49.861,eb_02psyexp,2022.2.4,99.93207071004257,
61,0,61,0,,,,,,,,,,,,,,,,,,,,,,,,,,,,,,,,,,,,,,,,,,,,,,,,,,,,,,,,,,217.4857891346328,217.4857891346328,217.4857891346328,217.4857891346328,217.4857891346328,217.4857891346328,l,1,0.7212594198063016,218.22626365919132,219.25687346467748,,,,,,,,,,,,,549,2023-05-15_10h34.49.861,eb_02psyexp,2022.2.4,99.93207071004257,
62,0,62,0,,,,,,,,,,,,,,,,,,,,,,,,,,,,,,,,,,,,,,,,,,,,,,,,,,,,,,,,,,219.25687346467748,219.25687346467748,219.25687346467748,219.25687346467748,219.25687346467748,219.25687346467748,s,1,1.0142060855869204,220.28754424292129,221.31819208094385,,,,,,,,,,,,,549,2023-05-15_10h34.49.861,eb_02psyexp,2022.2.4,99.93207071004257,
63,0,63,0,,,,,,,,,,,,,,,,,,,,,,,,,,,,,,,,,,,,,,,,,,,,,,,,,,,,,,,,,,221.31819208094385,221.31819208094385,221.31819208094385,221.31819208094385,221.31819208094385,221.31819208094385,l,1,0.9048962180968374,222.23881377303042,223.26946704427246,,,,,,,,,,,,,549,2023-05-15_10h34.49.861,eb_02psyexp,2022.2.4,99.93207071004257,
64,0,64,0,,,,,,,,,,,,,,,,,,,,,,,,,,,,,,,,,,,,,,,,,,,,,,,,,,,,,,,,,,223.26946704427246,223.26946704427246,223.26946704427246,223.26946704427246,223.26946704427246,223.26946704427246,s,1,0.7936162078985944,224.0799889403861,225.10064208484255,,,,,,,,,,,,,549,2023-05-15_10h34.49.861,eb_02psyexp,2022.2.4,99.93207071004257,
65,0,65,0,,,,,,,,,,,,,,,,,,,,,,,,,,,,,,,,,,,,,,,,,,,,,,,,,,,,,,,,,,225.10064208484255,225.10064208484255,225.10064208484255,225.10064208484255,225.10064208484255,225.10064208484255,l,1,0.9624719556886703,226.0812790261116,227.11195704864804,,,,,,,,,,,,,549,2023-05-15_10h34.49.861,eb_02psyexp,2022.2.4,99.93207071004257,
66,0,66,0,,,,,,,,,,,,,,,,,,,,,,,,,,,,,,,,,,,,,,,,,,,,,,,,,,,,,,,,,,227.11195704864804,227.11195704864804,227.11195704864804,227.11195704864804,227.11195704864804,227.11195704864804,s,1,0.8941336307907477,228.0225357520394,229.05322977225296,,,,,,,,,,,,,549,2023-05-15_10h34.49.861,eb_02psyexp,2022.2.4,99.93207071004257,
67,0,67,0,,,,,,,,,,,,,,,,,,,,,,,,,,,,,,,,,,,,,,,,,,,,,,,,,,,,,,,,,,229.05322977225296,229.05322977225296,229.05322977225296,229.05322977225296,229.05322977225296,229.05322977225296,l,1,0.6648826109012589,229.7336428653216,230.7543415883556,,,,,,,,,,,,,549,2023-05-15_10h34.49.861,eb_02psyexp,2022.2.4,99.93207071004257,
68,0,68,0,,,,,,,,,,,,,,,,,,,,,,,,,,,,,,,,,,,,,,,,,,,,,,,,,,,,,,,,,,230.7543415883556,230.7543415883556,230.7543415883556,230.7543415883556,230.7543415883556,230.7543415883556,s,1,0.7157975335139781,231.48478278319817,232.51543514884543,,,,,,,,,,,,,549,2023-05-15_10h34.49.861,eb_02psyexp,2022.2.4,99.93207071004257,
69,0,69,0,,,,,,,,,,,,,,,,,,,,,,,,,,,,,,,,,,,,,,,,,,,,,,,,,,,,,,,,,,232.51543514884543,232.51543514884543,232.51543514884543,232.51543514884543,232.51543514884543,232.51543514884543,s,1,0.8587166408542544,233.38601304334588,234.40669908886775,,,,,,,,,,,,,549,2023-05-15_10h34.49.861,eb_02psyexp,2022.2.4,99.93207071004257,
70,0,70,0,,,,,,,,,,,,,,,,,,,,,,,,,,,,,,,,,,,,,,,,,,,,,,,,,,,,,,,,,,234.40669908886775,234.40669908886775,234.40669908886775,234.40669908886775,234.40669908886775,234.40669908886775,s,1,0.5914539711084217,235.01706269744318,236.04771295015235,,,,,,,,,,,,,549,2023-05-15_10h34.49.861,eb_02psyexp,2022.2.4,99.93207071004257,
71,0,71,0,,,,,,,,,,,,,,,,,,,,,,,,,,,,,,,,,,,,,,,,,,,,,,,,,,,,,,,,,,236.04771295015235,236.04771295015235,236.04771295015235,236.04771295015235,236.04771295015235,236.04771295015235,l,1,0.6944567860336974,236.75819132023025,237.77889426914044,,,,,,,,,,,,,549,2023-05-15_10h34.49.861,eb_02psyexp,2022.2.4,99.93207071004257,
72,0,72,0,,,,,,,,,,,,,,,,,,,,,,,,,,,,,,,,,,,,,,,,,,,,,,,,,,,,,,,,,,237.77889426914044,237.77889426914044,237.77889426914044,237.77889426914044,237.77889426914044,237.77889426914044,s,1,0.5472855874104425,238.33919415820856,239.36985950323287,,,,,,,,,,,,,549,2023-05-15_10h34.49.861,eb_02psyexp,2022.2.4,99.93207071004257,
73,0,73,0,,,,,,,,,,,,,,,,,,,,,,,,,,,,,,,,,,,,,,,,,,,,,,,,,,,,,,,,,,239.36985950323287,239.36985950323287,239.36985950323287,239.36985950323287,239.36985950323287,239.36985950323287,l,1,0.5083294642390683,239.89020748226903,,,,,,,,,,,,,,549,2023-05-15_10h34.49.861,eb_02psyexp,2022.2.4,99.93207071004257,
74,0,74,0,,,,,,,,,,,,,,,,,,,,,,,,,,,,,,,,,,,,,,,,,,,,,,,,,,,,,,,,,,240.91118843038566,240.91118843038566,240.91118843038566,240.91118843038566,240.91118843038566,240.91118843038566,s,1,0.5190241364762187,241.44153321592603,242.4718644184759,,,,,,,,,,,,,549,2023-05-15_10h34.49.861,eb_02psyexp,2022.2.4,99.93207071004257,
75,0,75,0,,,,,,,,,,,,,,,,,,,,,,,,,,,,,,,,,,,,,,,,,,,,,,,,,,,,,,,,,,242.4718644184759,242.4718644184759,242.4718644184759,242.4718644184759,242.4718644184759,242.4718644184759,l,1,0.677321947645396,243.16232985747047,244.18300926242955,,,,,,,,,,,,,549,2023-05-15_10h34.49.861,eb_02psyexp,2022.2.4,99.93207071004257,
76,0,76,0,,,,,,,,,,,,,,,,,,,,,,,,,,,,,,,,,,,,,,,,,,,,,,,,,,,,,,,,,,244.18300926242955,244.18300926242955,244.18300926242955,244.18300926242955,244.18300926242955,244.18300926242955,l,1,0.5982059432426468,244.7933607972227,245.8240179923596,,,,,,,,,,,,,549,2023-05-15_10h34.49.861,eb_02psyexp,2022.2.4,99.93207071004257,
77,0,77,0,,,,,,,,,,,,,,,,,,,,,,,,,,,,,,,,,,,,,,,,,,,,,,,,,,,,,,,,,,245.8240179923596,245.8240179923596,245.8240179923596,245.8240179923596,245.8240179923596,245.8240179923596,s,0,0.7731855233432725,246.61453933315352,247.6452191666467,,,,,,,,,,,,,549,2023-05-15_10h34.49.861,eb_02psyexp,2022.2.4,99.93207071004257,
78,0,78,0,,,,,,,,,,,,,,,,,,,,,,,,,,,,,,,,,,,,,,,,,,,,,,,,,,,,,,,,,,247.6452191666467,247.6452191666467,247.6452191666467,247.6452191666467,247.6452191666467,247.6452191666467,s,1,0.5280148932943121,248.18556709738914,249.20628272381146,,,,,,,,,,,,,549,2023-05-15_10h34.49.861,eb_02psyexp,2022.2.4,99.93207071004257,
79,0,79,0,,,,,,,,,,,,,,,,,,,,,,,,,,,,,,,,,,,,,,,,,,,,,,,,,,,,,,,,,,249.20628272381146,249.20628272381146,249.20628272381146,249.20628272381146,249.20628272381146,249.20628272381146,l,1,0.5429411315126345,249.76658472581767,250.79725158005022,,,,,,,,,,,,,549,2023-05-15_10h34.49.861,eb_02psyexp,2022.2.4,99.93207071004257,
80,0,80,0,,,,,,,,,,,,,,,,,,,,,,,,,,,,,,,,,,,,,,,,,,,,,,,,,,,,,,,,,,250.79725158005022,250.79725158005022,250.79725158005022,250.79725158005022,250.79725158005022,250.79725158005022,s,1,0.6800110852345824,251.48768713639583,252.518358820118,,,,,,,,,,,,,549,2023-05-15_10h34.49.861,eb_02psyexp,2022.2.4,99.93207071004257,
81,0,81,0,,,,,,,,,,,,,,,,,,,,,,,,,,,,,,,,,,,,,,,,,,,,,,,,,,,,,,,,,,252.518358820118,252.518358820118,252.518358820118,252.518358820118,252.518358820118,252.518358820118,l,1,0.9989176334347576,253.52901425247546,254.54971629579086,,,,,,,,,,,,,549,2023-05-15_10h34.49.861,eb_02psyexp,2022.2.4,99.93207071004257,
82,0,82,0,,,,,,,,,,,,,,,,,,,,,,,,,,,,,,,,,,,,,,,,,,,,,,,,,,,,,,,,,,254.54971629579086,254.54971629579086,254.54971629579086,254.54971629579086,254.54971629579086,254.54971629579086,l,1,0.5755476420745254,255.14005459775217,256.17069066374097,,,,,,,,,,,,,549,2023-05-15_10h34.49.861,eb_02psyexp,2022.2.4,99.93207071004257,
83,0,83,0,,,,,,,,,,,,,,,,,,,,,,,,,,,,,,,,,,,,,,,,,,,,,,,,,,,,,,,,,,256.17069066374097,256.17069066374097,256.17069066374097,256.17069066374097,256.17069066374097,256.17069066374097,l,1,0.5546056319726631,256.7410748944385,257.771739333868,,,,,,,,,,,,,549,2023-05-15_10h34.49.861,eb_02psyexp,2022.2.4,99.93207071004257,
84,0,84,0,,,,,,,,,,,,,,,,,,,,,,,,,,,,,,,,,,,,,,,,,,,,,,,,,,,,,,,,,,257.771739333868,257.771739333868,257.771739333868,257.771739333868,257.771739333868,257.771739333868,s,1,0.5285669679287821,258.31209058489185,259.3427529113833,,,,,,,,,,,,,549,2023-05-15_10h34.49.861,eb_02psyexp,2022.2.4,99.93207071004257,
85,0,85,0,,,,,,,,,,,,,,,,,,,,,,,,,,,,,,,,,,,,,,,,,,,,,,,,,,,,,,,,,,259.3427529113833,259.3427529113833,259.3427529113833,259.3427529113833,259.3427529113833,259.3427529113833,l,1,0.8055496523156762,260.1633011949016,261.184008973185,,,,,,,,,,,,,549,2023-05-15_10h34.49.861,eb_02psyexp,2022.2.4,99.93207071004257,
86,0,86,0,,,,,,,,,,,,,,,,,,,,,,,,,,,,,,,,,,,,,,,,,,,,,,,,,,,,,,,,,,261.184008973185,261.184008973185,261.184008973185,261.184008973185,261.184008973185,261.184008973185,l,1,0.5723025057232007,261.7743237311952,262.8050059794914,,,,,,,,,,,,,549,2023-05-15_10h34.49.861,eb_02psyexp,2022.2.4,99.93207071004257,
87,0,87,0,,,,,,,,,,,,,,,,,,,,,,,,,,,,,,,,,,,,,,,,,,,,,,,,,,,,,,,,,,262.8050059794914,262.8050059794914,262.8050059794914,262.8050059794914,262.8050059794914,262.8050059794914,s,1,0.5113171265693381,263.3353317488218,264.3660007159924,,,,,,,,,,,,,549,2023-05-15_10h34.49.861,eb_02psyexp,2022.2.4,99.93207071004257,
88,0,88,0,,,,,,,,,,,,,,,,,,,,,,,,,,,,,,,,,,,,,,,,,,,,,,,,,,,,,,,,,,264.3660007159924,264.3660007159924,264.3660007159924,264.3660007159924,264.3660007159924,264.3660007159924,s,1,0.622329400270246,265.00645254179835,266.03710188902915,,,,,,,,,,,,,549,2023-05-15_10h34.49.861,eb_02psyexp,2022.2.4,99.93207071004257,
89,0,89,0,,,,,,,,,,,,,,,,,,,,,,,,,,,,,,,,,,,,,,,,,,,,,,,,,,,,,,,,,,266.03710188902915,266.03710188902915,266.03710188902915,266.03710188902915,266.03710188902915,266.03710188902915,l,1,0.9352322502527386,266.9876826086547,268.0084012534935,,,,,,,,,,,,,549,2023-05-15_10h34.49.861,eb_02psyexp,2022.2.4,99.93207071004257,
90,0,90,0,,,,,,,,,,,,,,,,,,,,,,,,,,,,,,,,,,,,,,,,,,,,,,,,,,,,,,,,,,268.0084012534935,268.0084012534935,268.0084012534935,268.0084012534935,268.0084012534935,268.0084012534935,l,1,0.6119459302863106,268.63875545654446,269.65943365416024,,,,,,,,,,,,,549,2023-05-15_10h34.49.861,eb_02psyexp,2022.2.4,99.93207071004257,
91,0,91,0,,,,,,,,,,,,,,,,,,,,,,,,,,,,,,,,,,,,,,,,,,,,,,,,,,,,,,,,,,269.65943365416024,269.65943365416024,269.65943365416024,269.65943365416024,269.65943365416024,269.65943365416024,l,1,0.6089338182937354,270.27982998872176,271.30050939368084,,,,,,,,,,,,,549,2023-05-15_10h34.49.861,eb_02psyexp,2022.2.4,99.93207071004257,
92,0,92,0,,,,,,,,,,,,,,,,,,,,,,,,,,,,,,,,,,,,,,,,,,,,,,,,,,,,,,,,,,271.30050939368084,271.30050939368084,271.30050939368084,271.30050939368084,271.30050939368084,271.30050939368084,s,1,0.5358686000108719,271.85084356635343,,,,,,,,,,,,,,549,2023-05-15_10h34.49.861,eb_02psyexp,2022.2.4,99.93207071004257,
93,0,93,0,,,,,,,,,,,,,,,,,,,,,,,,,,,,,,,,,,,,,,,,,,,,,,,,,,,,,,,,,,272.8715181418229,272.8715181418229,272.8715181418229,272.8715181418229,272.8715181418229,272.8715181418229,l,1,0.6438923055538908,273.5322394669056,274.5525575634092,,,,,,,,,,,,,549,2023-05-15_10h34.49.861,eb_02psyexp,2022.2.4,99.93207071004257,
94,0,94,0,,,,,,,,,,,,,,,,,,,,,,,,,,,,,,,,,,,,,,,,,,,,,,,,,,,,,,,,,,274.5525575634092,274.5525575634092,274.5525575634092,274.5525575634092,274.5525575634092,274.5525575634092,s,1,0.8588328511686996,275.4231502482435,276.4438091276679,,,,,,,,,,,,,549,2023-05-15_10h34.49.861,eb_02psyexp,2022.2.4,99.93207071004257,
95,0,95,0,,,,,,,,,,,,,,,,,,,,,,,,,,,,,,,,,,,,,,,,,,,,,,,,,,,,,,,,,,276.4438091276679,276.4438091276679,276.4438091276679,276.4438091276679,276.4438091276679,276.4438091276679,l,1,0.7275743203936145,277.184288783581,278.2049491723301,,,,,,,,,,,,,549,2023-05-15_10h34.49.861,eb_02psyexp,2022.2.4,99.93207071004257,
96,0,96,0,,,,,,,,,,,,,,,,,,,,,,,,,,,,,,,,,,,,,,,,,,,,,,,,,,,,,,,,,,278.2049491723301,278.2049491723301,278.2049491723301,278.2049491723301,278.2049491723301,278.2049491723301,s,1,0.5504622048465535,278.765309430426,279.795976888272,,,,,,,,,,,,,549,2023-05-15_10h34.49.861,eb_02psyexp,2022.2.4,99.93207071004257,
97,0,97,0,,,,,,,,,,,,,,,,,,,,,,,,,,,,,,,,,,,,,,,,,,,,,,,,,,,,,,,,,,279.795976888272,279.795976888272,279.795976888272,279.795976888272,279.795976888272,279.795976888272,s,1,0.5274549707537517,280.33632391353603,281.36699257884175,,,,,,,,,,,,,549,2023-05-15_10h34.49.861,eb_02psyexp,2022.2.4,99.93207071004257,
98,0,98,0,,,,,,,,,,,,,,,,,,,,,,,,,,,,,,,,,,,,,,,,,,,,,,,,,,,,,,,,,,281.36699257884175,281.36699257884175,281.36699257884175,281.36699257884175,281.36699257884175,281.36699257884175,l,1,0.5164152896031737,281.8973192536505,,,,,,,,,,,,,,549,2023-05-15_10h34.49.861,eb_02psyexp,2022.2.4,99.93207071004257,
99,0,99,0,,,,,,,,,,,,,,,,,,,,,,,,,,,,,,,,,,,,,,,,,,,,,,,,,,,,,,,,,,282.9279876170913,282.9279876170913,282.9279876170913,282.9279876170913,282.9279876170913,282.9279876170913,s,1,0.587451203726232,283.5286945985863,284.5490745732095,,,,,,,,,,,,,549,2023-05-15_10h34.49.861,eb_02psyexp,2022.2.4,99.93207071004257,
100,0,100,0,,,,,,,,,,,,,,,,,,,,,,,,,,,,,,,,,,,,,,,,,,,,,,,,,,,,,,,,,,284.5490745732095,284.5490745732095,284.5490745732095,284.5490745732095,284.5490745732095,284.5490745732095,l,1,0.8863737980136648,285.44960545829963,286.4702957296977,,,,,,,,,,,,,549,2023-05-15_10h34.49.861,eb_02psyexp,2022.2.4,99.93207071004257,
101,0,101,0,,,,,,,,,,,,,,,,,,,,,,,,,,,,,,,,,,,,,,,,,,,,,,,,,,,,,,,,,,286.4702957296977,286.4702957296977,286.4702957296977,286.4702957296977,286.4702957296977,286.4702957296977,s,1,0.5491407270310447,287.0306339530507,288.0513009823626,,,,,,,,,,,,,549,2023-05-15_10h34.49.861,eb_02psyexp,2022.2.4,99.93207071004257,
102,0,102,0,,,,,,,,,,,,,,,,,,,,,,,,,,,,,,,,,,,,,,,,,,,,,,,,,,,,,,,,,,288.0513009823626,288.0513009823626,288.0513009823626,288.0513009823626,288.0513009823626,288.0513009823626,l,1,1.10320510098245,289.17201425437815,290.20266360149253,,,,,,,,,,,,,549,2023-05-15_10h34.49.861,eb_02psyexp,2022.2.4,99.93207071004257,
103,0,103,0,,,,,,,,,,,,,,,,,,,,,,,,,,,,,,,,,,,,,,,,,,,,,,,,,,,,,,,,,,290.20266360149253,290.20266360149253,290.20266360149253,290.20266360149253,290.20266360149253,290.20266360149253,s,1,0.5678122587269172,290.7830699936021,291.8037593594054,,,,,,,,,,,,,549,2023-05-15_10h34.49.861,eb_02psyexp,2022.2.4,99.93207071004257,
104,0,104,0,,,,,,,,,,,,,,,,,,,,,,,,,,,,,,,,,,,,,,,,,,,,,,,,,,,,,,,,,,291.8037593594054,291.8037593594054,291.8037593594054,291.8037593594054,291.8037593594054,291.8037593594054,l,1,1.5827662666561082,293.4047639601631,294.4254107658053,,,,,,,,,,,,,549,2023-05-15_10h34.49.861,eb_02psyexp,2022.2.4,99.93207071004257,
105,0,105,0,,,,,,,,,,,,,,,,,,,,,,,,,,,,,,,,,,,,,,,,,,,,,,,,,,,,,,,,,,294.4254107658053,294.4254107658053,294.4254107658053,294.4254107658053,294.4254107658053,294.4254107658053,s,1,0.513088655192405,294.9557558532106,,,,,,,,,,,,,,549,2023-05-15_10h34.49.861,eb_02psyexp,2022.2.4,99.93207071004257,
106,0,106,0,,,,,,,,,,,,,,,,,,,,,,,,,,,,,,,,,,,,,,,,,,,,,,,,,,,,,,,,,,295.98674175760243,295.98674175760243,295.98674175760243,295.98674175760243,295.98674175760243,295.98674175760243,l,1,0.519776334404014,296.51709378743544,297.54740748298354,,,,,,,,,,,,,549,2023-05-15_10h34.49.861,eb_02psyexp,2022.2.4,99.93207071004257,
107,0,107,0,,,,,,,,,,,,,,,,,,,,,,,,,,,,,,,,,,,,,,,,,,,,,,,,,,,,,,,,,,297.54740748298354,297.54740748298354,297.54740748298354,297.54740748298354,297.54740748298354,297.54740748298354,s,1,0.4391366160707548,297.99770567566156,299.0183576127747,,,,,,,,,,,,,549,2023-05-15_10h34.49.861,eb_02psyexp,2022.2.4,99.93207071004257,
108,0,108,0,,,,,,,,,,,,,,,,,,,,,,,,,,,,,,,,,,,,,,,,,,,,,,,,,,,,,,,,,,299.0183576127747,299.0183576127747,299.0183576127747,299.0183576127747,299.0183576127747,299.0183576127747,s,1,0.568164210068062,299.5987643066328,300.62942995352205,,,,,,,,,,,,,549,2023-05-15_10h34.49.861,eb_02psyexp,2022.2.4,99.93207071004257,
109,0,109,0,,,,,,,,,,,,,,,,,,,,,,,,,,,,,,,,,,,,,,,,,,,,,,,,,,,,,,,,,,300.62942995352205,300.62942995352205,300.62942995352205,300.62942995352205,300.62942995352205,300.62942995352205,l,1,0.5971220175269991,301.23981016362086,302.2704555868404,,,,,,,,,,,,,549,2023-05-15_10h34.49.861,eb_02psyexp,2022.2.4,99.93207071004257,
110,0,110,0,,,,,,,,,,,,,,,,,,,,,,,,,,,,,,,,,,,,,,,,,,,,,,,,,,,,,,,,,,302.2704555868404,302.2704555868404,302.2704555868404,302.2704555868404,302.2704555868404,302.2704555868404,s,1,1.275165023165755,303.56132223829627,304.58197115687653,,,,,,,,,,,,,549,2023-05-15_10h34.49.861,eb_02psyexp,2022.2.4,99.93207071004257,
111,0,111,0,,,,,,,,,,,,,,,,,,,,,,,,,,,,,,,,,,,,,,,,,,,,,,,,,,,,,,,,,,304.58197115687653,304.58197115687653,304.58197115687653,304.58197115687653,304.58197115687653,304.58197115687653,l,1,0.5875846191775054,305.1823696527863,306.2130147741409,,,,,,,,,,,,,549,2023-05-15_10h34.49.861,eb_02psyexp,2022.2.4,99.93207071004257,
112,0,112,0,,,,,,,,,,,,,,,,,,,,,,,,,,,,,,,,,,,,,,,,,,,,,,,,,,,,,,,,,,306.2130147741409,306.2130147741409,306.2130147741409,306.2130147741409,306.2130147741409,306.2130147741409,s,1,0.7405835405224934,306.9635283634998,307.9842195403762,,,,,,,,,,,,,549,2023-05-15_10h34.49.861,eb_02psyexp,2022.2.4,99.93207071004257,
113,0,113,0,,,,,,,,,,,,,,,,,,,,,,,,,,,,,,,,,,,,,,,,,,,,,,,,,,,,,,,,,,307.9842195403762,307.9842195403762,307.9842195403762,307.9842195403762,307.9842195403762,307.9842195403762,l,1,0.5533559933537617,308.554559701588,309.5851957676932,,,,,,,,,,,,,549,2023-05-15_10h34.49.861,eb_02psyexp,2022.2.4,99.93207071004257,
114,0,114,0,,,,,,,,,,,,,,,,,,,,,,,,,,,,,,,,,,,,,,,,,,,,,,,,,,,,,,,,,,309.5851957676932,309.5851957676932,309.5851957676932,309.5851957676932,309.5851957676932,309.5851957676932,s,1,0.5043982341885567,310.1055540094385,311.13619973452296,,,,,,,,,,,,,549,2023-05-15_10h34.49.861,eb_02psyexp,2022.2.4,99.93207071004257,
115,0,115,0,,,,,,,,,,,,,,,,,,,,,,,,,,,,,,,,,,,,,,,,,,,,,,,,,,,,,,,,,,311.13619973452296,311.13619973452296,311.13619973452296,311.13619973452296,311.13619973452296,311.13619973452296,l,1,0.6013985583558679,311.75661387795117,312.78726986574475,,,,,,,,,,,,,549,2023-05-15_10h34.49.861,eb_02psyexp,2022.2.4,99.93207071004257,
116,0,116,0,,,,,,,,,,,,,,,,,,,,,,,,,,,,,,,,,,,,,,,,,,,,,,,,,,,,,,,,,,312.78726986574475,312.78726986574475,312.78726986574475,312.78726986574475,312.78726986574475,312.78726986574475,s,1,0.8703346571419388,313.6678499998525,314.69850236549973,,,,,,,,,,,,,549,2023-05-15_10h34.49.861,eb_02psyexp,2022.2.4,99.93207071004257,
117,0,117,0,,,,,,,,,,,,,,,,,,,,,,,,,,,,,,,,,,,,,,,,,,,,,,,,,,,,,,,,,,314.69850236549973,314.69850236549973,314.69850236549973,314.69850236549973,314.69850236549973,314.69850236549973,l,1,1.3350679860450327,316.0493743054103,317.0700570306508,,,,,,,,,,,,,549,2023-05-15_10h34.49.861,eb_02psyexp,2022.2.4,99.93207071004257,
118,0,118,0,,,,,,,,,,,,,,,,,,,,,,,,,,,,,,,,,,,,,,,,,,,,,,,,,,,,,,,,,,317.0700570306508,317.0700570306508,317.0700570306508,317.0700570306508,317.0700570306508,317.0700570306508,s,1,0.5315706281689927,317.6204005604377,318.65105503902305,,,,,,,,,,,,,549,2023-05-15_10h34.49.861,eb_02psyexp,2022.2.4,99.93207071004257,
119,0,119,0,,,,,,,,,,,,,,,,,,,,,,,,,,,,,,,,,,,,,,,,,,,,,,,,,,,,,,,,,,318.65105503902305,318.65105503902305,318.65105503902305,318.65105503902305,318.65105503902305,318.65105503902305,s,1,0.5416815320495516,319.21142103220336,320.23213665850926,,,,,,,,,,,,,549,2023-05-15_10h34.49.861,eb_02psyexp,2022.2.4,99.93207071004257,
120,0,120,0,,,,,,,,,,,,,,,,,,,,,,,,,,,,,,,,,,,,,,,,,,,,,,,,,,,,,,,,,,320.23213665850926,320.23213665850926,320.23213665850926,320.23213665850926,320.23213665850926,320.23213665850926,l,1,0.4645368775818497,320.71238452161197,,,,,,,,,,,,,,549,2023-05-15_10h34.49.861,eb_02psyexp,2022.2.4,99.93207071004257,
121,0,121,0,,,,,,,,,,,,,,,,,,,,,,,,,,,,,,,,,,,,,,,,,,,,,,,,,,,,,,,,,,321.74304956477135,321.74304956477135,321.74304956477135,321.74304956477135,321.74304956477135,321.74304956477135,s,1,0.5376051145140082,322.2937393109314,323.32407353189774,,,,,,,,,,,,,549,2023-05-15_10h34.49.861,eb_02psyexp,2022.2.4,99.93207071004257,
122,0,122,0,,,,,,,,,,,,,,,,,,,,,,,,,,,,,,,,,,,,,,,,,,,,,,,,,,,,,,,,,,323.32407353189774,323.32407353189774,323.32407353189774,323.32407353189774,323.32407353189774,323.32407353189774,l,1,0.48461923305876553,323.8243965060683,,,,,,,,,,,,,,549,2023-05-15_10h34.49.861,eb_02psyexp,2022.2.4,99.93207071004257,
123,0,123,0,,,,,,,,,,,,,,,,,,,,,,,,,,,,,,,,,,,,,,,,,,,,,,,,,,,,,,,,,,324.8453774541849,324.8453774541849,324.8453774541849,324.8453774541849,324.8453774541849,324.8453774541849,s,1,0.49929161951877177,325.35570598836057,326.3760581932729,,,,,,,,,,,,,549,2023-05-15_10h34.49.861,eb_02psyexp,2022.2.4,99.93207071004257,
124,0,124,0,,,,,,,,,,,,,,,,,,,,,,,,,,,,,,,,,,,,,,,,,,,,,,,,,,,,,,,,,,326.3760581932729,326.3760581932729,326.3760581932729,326.3760581932729,326.3760581932729,326.3760581932729,l,1,0.5605966525617987,326.95643923047464,,,,,,,,,,,,,,549,2023-05-15_10h34.49.861,eb_02psyexp,2022.2.4,99.93207071004257,
125,0,125,0,,,,,,,,,,,,,,,,,,,,,,,,,,,,,,,,,,,,,,,,,,,,,,,,,,,,,,,,,,327.98708646476734,327.98708646476734,327.98708646476734,327.98708646476734,327.98708646476734,327.98708646476734,s,1,0.5096029485575855,328.50770670804195,329.53808680945076,,,,,,,,,,,,,549,2023-05-15_10h34.49.861,eb_02psyexp,2022.2.4,99.93207071004257,
126,0,126,0,,,,,,,,,,,,,,,,,,,,,,,,,,,,,,,,,,,,,,,,,,,,,,,,,,,,,,,,,,329.53808680945076,329.53808680945076,329.53808680945076,329.53808680945076,329.53808680945076,329.53808680945076,l,1,0.5666112172184512,330.11845969676506,331.1491319841007,,,,,,,,,,,,,549,2023-05-15_10h34.49.861,eb_02psyexp,2022.2.4,99.93207071004257,
127,0,127,0,,,,,,,,,,,,,,,,,,,,,,,,,,,,,,,,,,,,,,,,,,,,,,,,,,,,,,,,,,331.1491319841007,331.1491319841007,331.1491319841007,331.1491319841007,331.1491319841007,331.1491319841007,s,1,0.6515839213971049,331.81957211648114,332.8402961945394,,,,,,,,,,,,,549,2023-05-15_10h34.49.861,eb_02psyexp,2022.2.4,99.93207071004257,
128,0,128,0,,,,,,,,,,,,,,,,,,,,,,,,,,,,,,,,,,,,,,,,,,,,,,,,,,,,,,,,,,332.8402961945394,332.8402961945394,332.8402961945394,332.8402961945394,332.8402961945394,332.8402961945394,l,1,0.6644425209378824,333.52065767208114,334.5513215077808,,,,,,,,,,,,,549,2023-05-15_10h34.49.861,eb_02psyexp,2022.2.4,99.93207071004257,
129,0,129,0,,,,,,,,,,,,,,,,,,,,,,,,,,,,,,,,,,,,,,,,,,,,,,,,,,,,,,,,,,334.5513215077808,334.5513215077808,334.5513215077808,334.5513215077808,334.5513215077808,334.5513215077808,s,1,0.6244655576301739,335.1917546192417,336.2224018535344,,,,,,,,,,,,,549,2023-05-15_10h34.49.861,eb_02psyexp,2022.2.4,99.93207071004257,
130,0,130,0,,,,,,,,,,,,,,,,,,,,,,,,,,,,,,,,,,,,,,,,,,,,,,,,,,,,,,,,,,336.2224018535344,336.2224018535344,336.2224018535344,336.2224018535344,336.2224018535344,336.2224018535344,l,1,0.5933121291454881,336.8328031927813,,,,,,,,,,,,,,549,2023-05-15_10h34.49.861,eb_02psyexp,2022.2.4,99.93207071004257,
131,0,131,0,,,,,,,,,,,,,,,,,,,,,,,,,,,,,,,,,,,,,,,,,,,,,,,,,,,,,,,,,,337.85376995417755,337.85376995417755,337.85376995417755,337.85376995417755,337.85376995417755,337.85376995417755,s,1,0.5540103934472427,338.4241810491076,339.4445284244139,,,,,,,,,,,,,549,2023-05-15_10h34.49.861,eb_02psyexp,2022.2.4,99.93207071004257,
132,0,132,0,,,,,,,,,,,,,,,,,,,,,,,,,,,,,,,,,,,,,,,,,,,,,,,,,,,,,,,,,,339.4445284244139,339.4445284244139,339.4445284244139,339.4445284244139,339.4445284244139,339.4445284244139,l,1,0.6192342808935791,340.0749236784177,341.1055697053671,,,,,,,,,,,,,549,2023-05-15_10h34.49.861,eb_02psyexp,2022.2.4,99.93207071004257,
133,0,133,0,,,,,,,,,,,,,,,,,,,,,,,,,,,,,,,,,,,,,,,,,,,,,,,,,,,,,,,,,,341.1055697053671,341.1055697053671,341.1055697053671,341.1055697053671,341.1055697053671,341.1055697053671,s,1,0.4942049265373498,341.61589371191803,342.636549572926,,,,,,,,,,,,,549,2023-05-15_10h34.49.861,eb_02psyexp,2022.2.4,99.93207071004257,
134,0,134,0,,,,,,,,,,,,,,,,,,,,,,,,,,,,,,,,,,,,,,,,,,,,,,,,,,,,,,,,,,342.636549572926,342.636549572926,342.636549572926,342.636549572926,342.636549572926,342.636549572926,s,1,0.5552216976648197,343.2069289740175,344.2275839295471,,,,,,,,,,,,,549,2023-05-15_10h34.49.861,eb_02psyexp,2022.2.4,99.93207071004257,
135,0,135,0,,,,,,,,,,,,,,,,,,,,,,,,,,,,,,,,,,,,,,,,,,,,,,,,,,,,,,,,,,344.2275839295471,344.2275839295471,344.2275839295471,344.2275839295471,344.2275839295471,344.2275839295471,l,1,0.6042045099893585,344.847956418409,,,,,,,,,,,,,,549,2023-05-15_10h34.49.861,eb_02psyexp,2022.2.4,99.93207071004257,
136,0,136,0,,,,,,,,,,,,,,,,,,,,,,,,,,,,,,,,,,,,,,,,,,,,,,,,,,,,,,,,,,345.8689062765334,345.8689062765334,345.8689062765334,345.8689062765334,345.8689062765334,345.8689062765334,s,1,0.45891078759450465,346.339291352313,347.3596517069964,,,,,,,,,,,,,549,2023-05-15_10h34.49.861,eb_02psyexp,2022.2.4,99.93207071004257,
137,0,137,0,,,,,,,,,,,,,,,,,,,,,,,,,,,,,,,,,,,,,,,,,,,,,,,,,,,,,,,,,,347.3596517069964,347.3596517069964,347.3596517069964,347.3596517069964,347.3596517069964,347.3596517069964,l,1,0.6641479200916365,348.0400478967931,349.06070436141454,,,,,,,,,,,,,549,2023-05-15_10h34.49.861,eb_02psyexp,2022.2.4,99.93207071004257,
138,0,138,0,,,,,,,,,,,,,,,,,,,,,,,,,,,,,,,,,,,,,,,,,,,,,,,,,,,,,,,,,,349.06070436141454,349.06070436141454,349.06070436141454,349.06070436141454,349.06070436141454,349.06070436141454,s,1,0.5471114228712395,349.6210718639195,350.64173104520887,,,,,,,,,,,,,549,2023-05-15_10h34.49.861,eb_02psyexp,2022.2.4,99.93207071004257,
139,0,139,0,,,,,,,,,,,,,,,,,,,,,,,,,,,,,,,,,,,,,,,,,,,,,,,,,,,,,,,,,,350.64173104520887,350.64173104520887,350.64173104520887,350.64173104520887,350.64173104520887,350.64173104520887,l,1,0.5171379067469388,351.1720710011432,352.19273229537066,,,,,,,,,,,,,549,2023-05-15_10h34.49.861,eb_02psyexp,2022.2.4,99.93207071004257,
140,0,140,0,,,,,,,,,,,,,,,,,,,,,,,,,,,,,,,,,,,,,,,,,,,,,,,,,,,,,,,,,,352.19273229537066,352.19273229537066,352.19273229537066,352.19273229537066,352.19273229537066,352.19273229537066,s,1,0.43809675984084606,352.64298943721224,353.6736756095197,,,,,,,,,,,,,549,2023-05-15_10h34.49.861,eb_02psyexp,2022.2.4,99.93207071004257,
141,0,141,0,,,,,,,,,,,,,,,,,,,,,,,,,,,,,,,,,,,,,,,,,,,,,,,,,,,,,,,,,,353.6736756095197,353.6736756095197,353.6736756095197,353.6736756095197,353.6736756095197,353.6736756095197,s,1,0.34115710644982755,354.0339204421034,,,,,,,,,,,,,,549,2023-05-15_10h34.49.861,eb_02psyexp,2022.2.4,99.93207071004257,
142,0,142,0,,,,,,,,,,,,,,,,,,,,,,,,,,,,,,,,,,,,,,,,,,,,,,,,,,,,,,,,,,355.05488810909446,355.05488810909446,355.05488810909446,355.05488810909446,355.05488810909446,355.05488810909446,s,1,0.439955823472701,355.505199884763,356.5255113405874,,,,,,,,,,,,,549,2023-05-15_10h34.49.861,eb_02psyexp,2022.2.4,99.93207071004257,
143,0,143,0,,,,,,,,,,,,,,,,,,,,,,,,,,,,,,,,,,,,,,,,,,,,,,,,,,,,,,,,,,356.5255113405874,356.5255113405874,356.5255113405874,356.5255113405874,356.5255113405874,356.5255113405874,l,1,0.4253380710724741,356.9658199711703,357.98645319382194,,,,,,,,,,,,,549,2023-05-15_10h34.49.861,eb_02psyexp,2022.2.4,99.93207071004257,
144,0,144,0,,,,,,,,,,,,,,,,,,,,,,,,,,,,,,,,,,,,,,,,,,,,,,,,,,,,,,,,,,357.98645319382194,357.98645319382194,357.98645319382194,357.98645319382194,357.98645319382194,357.98645319382194,s,1,0.4684053239179775,358.4667825549841,359.48747282638215,,,,,,,,,,,,,549,2023-05-15_10h34.49.861,eb_02psyexp,2022.2.4,99.93207071004257,
145,0,145,0,,,,,,,,,,,,,,,,,,,,,,,,,,,,,,,,,,,,,,,,,,,,,,,,,,,,,,,,,,359.48747282638215,359.48747282638215,359.48747282638215,359.48747282638215,359.48747282638215,359.48747282638215,l,1,0.9673781450837851,360.46804396552034,361.4987265156815,,,,,,,,,,,,,549,2023-05-15_10h34.49.861,eb_02psyexp,2022.2.4,99.93207071004257,
146,0,146,0,,,,,,,,,,,,,,,,,,,,,,,,,,,,,,,,,,,,,,,,,,,,,,,,,,,,,,,,,,361.4987265156815,361.4987265156815,361.4987265156815,361.4987265156815,361.4987265156815,361.4987265156815,s,1,0.5881261293543503,362.09910599526484,363.1198225271655,,,,,,,,,,,,,549,2023-05-15_10h34.49.861,eb_02psyexp,2022.2.4,99.93207071004257,
147,0,147,0,,,,,,,,,,,,,,,,,,,,,,,,,,,,,,,,,,,,,,,,,,,,,,,,,,,,,,,,,,363.1198225271655,363.1198225271655,363.1198225271655,363.1198225271655,363.1198225271655,363.1198225271655,l,1,0.8230467048706487,363.9603194486117,364.99098177521955,,,,,,,,,,,,,549,2023-05-15_10h34.49.861,eb_02psyexp,2022.2.4,99.93207071004257,
148,0,148,0,,,,,,,,,,,,,,,,,,,,,,,,,,,,,,,,,,,,,,,,,,,,,,,,,,,,,,,,,,364.99098177521955,364.99098177521955,364.99098177521955,364.99098177521955,364.99098177521955,364.99098177521955,s,1,0.519911560928449,365.52132686262485,366.5420590903377,,,,,,,,,,,,,549,2023-05-15_10h34.49.861,eb_02psyexp,2022.2.4,99.93207071004257,
149,0,149,0,,,,,,,,,,,,,,,,,,,,,,,,,,,,,,,,,,,,,,,,,,,,,,,,,,,,,,,,,,366.5420590903377,366.5420590903377,366.5420590903377,366.5420590903377,366.5420590903377,366.5420590903377,l,1,0.5198979779379442,367.07232841465157,368.10299225046765,,,,,,,,,,,,,549,2023-05-15_10h34.49.861,eb_02psyexp,2022.2.4,99.93207071004257,
150,0,150,0,,,,,,,,,,,,,,,,,,,,,,,,,,,,,,,,,,,,,,,,,,,,,,,,,,,,,,,,,,368.10299225046765,368.10299225046765,368.10299225046765,368.10299225046765,368.10299225046765,368.10299225046765,s,1,0.5429049100494012,368.663368808222,369.6840261784382,,,,,,,,,,,,,549,2023-05-15_10h34.49.861,eb_02psyexp,2022.2.4,99.93207071004257,
151,0,151,0,,,,,,,,,,,,,,,,,,,,,,,,,,,,,,,,,,,,,,,,,,,,,,,,,,,,,,,,,,369.6840261784382,369.6840261784382,369.6840261784382,369.6840261784382,369.6840261784382,369.6840261784382,l,1,1.105902086594142,370.80473824299406,371.83542018942535,,,,,,,,,,,,,549,2023-05-15_10h34.49.861,eb_02psyexp,2022.2.4,99.93207071004257,
152,0,152,0,,,,,,,,,,,,,,,,,,,,,,,,,,,,,,,,,,,,,,,,,,,,,,,,,,,,,,,,,,371.83542018942535,371.83542018942535,371.83542018942535,371.83542018942535,371.83542018942535,371.83542018942535,s,1,0.5705294678919017,372.4157936804695,373.4365026662126,,,,,,,,,,,,,549,2023-05-15_10h34.49.861,eb_02psyexp,2022.2.4,99.93207071004257,
153,0,153,0,,,,,,,,,,,,,,,,,,,,,,,,,,,,,,,,,,,,,,,,,,,,,,,,,,,,,,,,,,373.4365026662126,373.4365026662126,373.4365026662126,373.4365026662126,373.4365026662126,373.4365026662126,l,1,0.5294525813078508,373.9767872095108,374.9974500129465,,,,,,,,,,,,,549,2023-05-15_10h34.49.861,eb_02psyexp,2022.2.4,99.93207071004257,
154,0,154,0,,,,,,,,,,,,,,,,,,,,,,,,,,,,,,,,,,,,,,,,,,,,,,,,,,,,,,,,,,374.9974500129465,374.9974500129465,374.9974500129465,374.9974500129465,374.9974500129465,374.9974500129465,s,1,0.4885232971282676,375.4977835516911,376.51848136924673,,,,,,,,,,,,,549,2023-05-15_10h34.49.861,eb_02psyexp,2022.2.4,99.93207071004257,
155,0,155,0,,,,,,,,,,,,,,,,,,,,,,,,,,,,,,,,,,,,,,,,,,,,,,,,,,,,,,,,,,376.51848136924673,376.51848136924673,376.51848136924673,376.51848136924673,376.51848136924673,376.51848136924673,l,1,0.8954662766773254,377.4290407545632,378.44969208783004,,,,,,,,,,,,,549,2023-05-15_10h34.49.861,eb_02psyexp,2022.2.4,99.93207071004257,
156,0,156,0,,,,,,,,,,,,,,,,,,,,,,,,,,,,,,,,,,,,,,,,,,,,,,,,,,,,,,,,,,378.44969208783004,378.44969208783004,378.44969208783004,378.44969208783004,378.44969208783004,378.44969208783004,s,1,0.5802772522438318,379.0400545373559,380.0607342441799,,,,,,,,,,,,,549,2023-05-15_10h34.49.861,eb_02psyexp,2022.2.4,99.93207071004257,
157,0,157,0,,,,,,,,,,,,,,,,,,,,,,,,,,,,,,,,,,,,,,,,,,,,,,,,,,,,,,,,,,380.0607342441799,380.0607342441799,380.0607342441799,380.0607342441799,380.0607342441799,380.0607342441799,l,1,0.5532216723076999,380.63109070505016,381.66175363527145,,,,,,,,,,,,,549,2023-05-15_10h34.49.861,eb_02psyexp,2022.2.4,99.93207071004257,
158,0,158,0,,,,,,,,,,,,,,,,,,,,,,,,,,,,,,,,,,,,,,,,,,,,,,,,,,,,,,,,,,381.66175363527145,381.66175363527145,381.66175363527145,381.66175363527145,381.66175363527145,381.66175363527145,s,1,0.56027398025617,382.23212971608154,383.2527831624029,,,,,,,,,,,,,549,2023-05-15_10h34.49.861,eb_02psyexp,2022.2.4,99.93207071004257,
159,0,159,0,,,,,,,,,,,,,,,,,,,,,,,,,,,,,,,,,,,,,,,,,,,,,,,,,,,,,,,,,,383.2527831624029,383.2527831624029,383.2527831624029,383.2527831624029,383.2527831624029,383.2527831624029,l,1,0.8482223937753588,384.1133488562191,385.13399686920457,,,,,,,,,,,,,549,2023-05-15_10h34.49.861,eb_02psyexp,2022.2.4,99.93207071004257,
160,0,160,0,,,,,,,,,,,,,,,,,,,,,,,,,,,,,,,,,,,,,,,,,,,,,,,,,,,,,,,,,,385.13399686920457,385.13399686920457,385.13399686920457,385.13399686920457,385.13399686920457,385.13399686920457,s,1,0.495014474960044,385.64433687354904,386.67497052485123,,,,,,,,,,,,,549,2023-05-15_10h34.49.861,eb_02psyexp,2022.2.4,99.93207071004257,
161,0,161,0,,,,,,,,,,,,,,,,,,,,,,,,,,,,,,,,,,,,,,,,,,,,,,,,,,,,,,,,,,386.67497052485123,386.67497052485123,386.67497052485123,386.67497052485123,386.67497052485123,386.67497052485123,s,1,1.2340253528673202,387.92581131425686,388.9464635531185,,,,,,,,,,,,,549,2023-05-15_10h34.49.861,eb_02psyexp,2022.2.4,99.93207071004257,
162,0,162,0,,,,,,,,,,,,,,,,,,,,,,,,,,,,,,,,,,,,,,,,,,,,,,,,,,,,,,,,,,388.9464635531185,388.9464635531185,388.9464635531185,388.9464635531185,388.9464635531185,388.9464635531185,l,1,0.5065685000736266,389.4668064008001,390.497474462376,,,,,,,,,,,,,549,2023-05-15_10h34.49.861,eb_02psyexp,2022.2.4,99.93207071004257,
163,0,163,0,,,,,,,,,,,,,,,,,,,,,,,,,,,,,,,,,,,,,,,,,,,,,,,,,,,,,,,,,,390.497474462376,390.497474462376,390.497474462376,390.497474462376,390.497474462376,390.497474462376,s,1,0.36355883930809796,390.8777053618105,,,,,,,,,,,,,,549,2023-05-15_10h34.49.861,eb_02psyexp,2022.2.4,99.93207071004257,
164,0,164,0,,,,,,,,,,,,,,,,,,,,,,,,,,,,,,,,,,,,,,,,,,,,,,,,,,,,,,,,,,391.89836846711114,391.89836846711114,391.89836846711114,391.89836846711114,391.89836846711114,391.89836846711114,l,1,0.4346629703650251,392.3489781639073,393.3693342928309,,,,,,,,,,,,,549,2023-05-15_10h34.49.861,eb_02psyexp,2022.2.4,99.93207071004257,
165,0,165,0,,,,,,,,,,,,,,,,,,,,,,,,,,,,,,,,,,,,,,,,,,,,,,,,,,,,,,,,,,393.3693342928309,393.3693342928309,393.3693342928309,393.3693342928309,393.3693342928309,393.3693342928309,s,1,0.49977547710295767,393.879657695652,,,,,,,,,,,,,,549,2023-05-15_10h34.49.861,eb_02psyexp,2022.2.4,99.93207071004257,
166,0,166,0,,,,,,,,,,,,,,,,,,,,,,,,,,,,,,,,,,,,,,,,,,,,,,,,,,,,,,,,,,394.90031204745173,394.90031204745173,394.90031204745173,394.90031204745173,394.90031204745173,394.90031204745173,l,1,0.47276577760931104,395.39090957387816,396.42128484568093,,,,,,,,,,,,,549,2023-05-15_10h34.49.861,eb_02psyexp,2022.2.4,99.93207071004257,
167,0,167,0,,,,,,,,,,,,,,,,,,,,,,,,,,,,,,,,,,,,,,,,,,,,,,,,,,,,,,,,,,396.42128484568093,396.42128484568093,396.42128484568093,396.42128484568093,396.42128484568093,396.42128484568093,s,1,0.494835480931215,396.9316145873163,,,,,,,,,,,,,,549,2023-05-15_10h34.49.861,eb_02psyexp,2022.2.4,99.93207071004257,
168,0,168,0,,,,,,,,,,,,,,,,,,,,,,,,,,,,,,,,,,,,,,,,,,,,,,,,,,,,,,,,,,397.95258798927534,397.95258798927534,397.95258798927534,397.95258798927534,397.95258798927534,397.95258798927534,l,1,0.6434884369373322,398.61270170041826,399.643391796737,,,,,,,,,,,,,549,2023-05-15_10h34.49.861,eb_02psyexp,2022.2.4,99.93207071004257,
169,0,169,0,,,,,,,,,,,,,,,,,,,,,,,,,,,,,,,,,,,,,,,,,,,,,,,,,,,,,,,,,,399.643391796737,399.643391796737,399.643391796737,399.643391796737,399.643391796737,399.643391796737,s,1,0.5287103443406522,400.18373006838374,401.2044272822095,,,,,,,,,,,,,549,2023-05-15_10h34.49.861,eb_02psyexp,2022.2.4,99.93207071004257,
170,0,170,0,,,,,,,,,,,,,,,,,,,,,,,,,,,,,,,,,,,,,,,,,,,,,,,,,,,,,,,,,,401.2044272822095,401.2044272822095,401.2044272822095,401.2044272822095,401.2044272822095,401.2044272822095,s,0,0.3356565838912502,401.5546037709573,402.5752795537701,,,,,,,,,,,,,549,2023-05-15_10h34.49.861,eb_02psyexp,2022.2.4,99.93207071004257,
171,0,171,0,,,,,,,,,,,,,,,,,,,,,,,,,,,,,,,,,,,,,,,,,,,,,,,,,,,,,,,,,,402.5752795537701,402.5752795537701,402.5752795537701,402.5752795537701,402.5752795537701,402.5752795537701,s,1,0.5648596104001626,403.15563614142593,404.1763457308989,,,,,,,,,,,,,549,2023-05-15_10h34.49.861,eb_02psyexp,2022.2.4,99.93207071004257,
172,0,172,0,,,,,,,,,,,,,,,,,,,,,,,,,,,,,,,,,,,,,,,,,,,,,,,,,,,,,,,,,,404.1763457308989,404.1763457308989,404.1763457308989,404.1763457308989,404.1763457308989,404.1763457308989,l,1,0.6117931966437027,404.80671562999487,405.8373858045088,,,,,,,,,,,,,549,2023-05-15_10h34.49.861,eb_02psyexp,2022.2.4,99.93207071004257,
173,0,173,0,,,,,,,,,,,,,,,,,,,,,,,,,,,,,,,,,,,,,,,,,,,,,,,,,,,,,,,,,,405.8373858045088,405.8373858045088,405.8373858045088,405.8373858045088,405.8373858045088,405.8373858045088,s,1,0.47875106323044747,406.3277002002578,407.3483367431909,,,,,,,,,,,,,549,2023-05-15_10h34.49.861,eb_02psyexp,2022.2.4,99.93207071004257,
174,0,174,0,,,,,,,,,,,,,,,,,,,,,,,,,,,,,,,,,,,,,,,,,,,,,,,,,,,,,,,,,,407.3483367431909,407.3483367431909,407.3483367431909,407.3483367431909,407.3483367431909,407.3483367431909,l,1,0.6158044156618416,407.9787648982601,409.00943235622253,,,,,,,,,,,,,549,2023-05-15_10h34.49.861,eb_02psyexp,2022.2.4,99.93207071004257,
175,0,175,0,,,,,,,,,,,,,,,,,,,,,,,,,,,,,,,,,,,,,,,,,,,,,,,,,,,,,,,,,,409.00943235622253,409.00943235622253,409.00943235622253,409.00943235622253,409.00943235622253,409.00943235622253,s,1,0.3787147814873606,409.39967002300546,410.42035184265114,,,,,,,,,,,,,549,2023-05-15_10h34.49.861,eb_02psyexp,2022.2.4,99.93207071004257,
176,0,176,0,,,,,,,,,,,,,,,,,,,,,,,,,,,,,,,,,,,,,,,,,,,,,,,,,,,,,,,,,,410.42035184265114,410.42035184265114,410.42035184265114,410.42035184265114,410.42035184265114,410.42035184265114,l,1,0.7517955751391128,411.19115545682143,412.2115070580039,,,,,,,,,,,,,549,2023-05-15_10h34.49.861,eb_02psyexp,2022.2.4,99.93207071004257,
177,0,177,0,,,,,,,,,,,,,,,,,,,,,,,,,,,,,,,,,,,,,,,,,,,,,,,,,,,,,,,,,,412.2115070580039,412.2115070580039,412.2115070580039,412.2115070580039,412.2115070580039,412.2115070580039,s,1,0.5036985573824495,412.73183451162186,413.75248493941035,,,,,,,,,,,,,549,2023-05-15_10h34.49.861,eb_02psyexp,2022.2.4,99.93207071004257,
178,0,178,0,,,,,,,,,,,,,,,,,,,,,,,,,,,,,,,,,,,,,,,,,,,,,,,,,,,,,,,,,,413.75248493941035,413.75248493941035,413.75248493941035,413.75248493941035,413.75248493941035,413.75248493941035,l,1,0.5386842106236145,414.3028499003267,415.3235465104226,,,,,,,,,,,,,549,2023-05-15_10h34.49.861,eb_02psyexp,2022.2.4,99.93207071004257,
179,0,179,0,,,,,,,,,,,,,,,,,,,,,,,,,,,,,,,,,,,,,,,,,,,,,,,,,,,,,,,,,,415.3235465104226,415.3235465104226,415.3235465104226,415.3235465104226,415.3235465104226,415.3235465104226,l,1,0.5196785365696996,415.853839982301,,,,,,,,,,,,,,549,2023-05-15_10h34.49.861,eb_02psyexp,2022.2.4,99.93207071004257,
180,0,180,0,,,,,,,,,,,,,,,,,,,,,,,,,,,,,,,,,,,,,,,,,,,,,,,,,,,,,,,,,,416.88482920697425,416.88482920697425,416.88482920697425,416.88482920697425,416.88482920697425,416.88482920697425,l,1,0.7183647257043049,417.6149896859424,418.63569897355046,,,,,,,,,,,,,549,2023-05-15_10h34.49.861,eb_02psyexp,2022.2.4,99.93207071004257,
181,0,181,0,,,,,,,,,,,,,,,,,,,,,,,,,,,,,,,,,,,,,,,,,,,,,,,,,,,,,,,,,,418.63569897355046,418.63569897355046,418.63569897355046,418.63569897355046,418.63569897355046,418.63569897355046,s,1,0.7995055068749934,419.4461692541372,420.4668193801772,,,,,,,,,,,,,549,2023-05-15_10h34.49.861,eb_02psyexp,2022.2.4,99.93207071004257,
182,0,182,0,,,,,,,,,,,,,,,,,,,,,,,,,,,,,,,,,,,,,,,,,,,,,,,,,,,,,,,,,,420.4668193801772,420.4668193801772,420.4668193801772,420.4668193801772,420.4668193801772,420.4668193801772,l,1,0.8004152679350227,421.2773080733605,422.3080217135139,,,,,,,,,,,,,549,2023-05-15_10h34.49.861,eb_02psyexp,2022.2.4,99.93207071004257,
183,0,183,0,,,,,,,,,,,,,,,,,,,,,,,,,,,,,,,,,,,,,,,,,,,,,,,,,,,,,,,,,,422.3080217135139,422.3080217135139,422.3080217135139,422.3080217135139,422.3080217135139,422.3080217135139,s,1,0.8712326461682096,423.1985974467825,424.2292522271164,,,,,,,,,,,,,549,2023-05-15_10h34.49.861,eb_02psyexp,2022.2.4,99.93207071004257,
184,0,184,0,,,,,,,,,,,,,,,,,,,,,,,,,,,,,,,,,,,,,,,,,,,,,,,,,,,,,,,,,,424.2292522271164,424.2292522271164,424.2292522271164,424.2292522271164,424.2292522271164,424.2292522271164,l,1,0.5099724067840725,424.7495884342352,,,,,,,,,,,,,,549,2023-05-15_10h34.49.861,eb_02psyexp,2022.2.4,99.93207071004257,
185,0,185,0,,,,,,,,,,,,,,,,,,,,,,,,,,,,,,,,,,,,,,,,,,,,,,,,,,,,,,,,,,425.7805818847846,425.7805818847846,425.7805818847846,425.7805818847846,425.7805818847846,425.7805818847846,s,1,0.5906414041528478,426.39098050748,427.421338272281,,,,,,,,,,,,,549,2023-05-15_10h34.49.861,eb_02psyexp,2022.2.4,99.93207071004257,
186,0,186,0,,,,,,,,,,,,,,,,,,,,,,,,,,,,,,,,,,,,,,,,,,,,,,,,,,,,,,,,,,427.421338272281,427.421338272281,427.421338272281,427.421338272281,427.421338272281,427.421338272281,s,1,0.45389683928806335,427.8916273614159,,,,,,,,,,,,,,549,2023-05-15_10h34.49.861,eb_02psyexp,2022.2.4,99.93207071004257,
187,0,187,0,,,,,,,,,,,,,,,,,,,,,,,,,,,,,,,,,,,,,,,,,,,,,,,,,,,,,,,,,,428.9226407337701,428.9226407337701,428.9226407337701,428.9226407337701,428.9226407337701,428.9226407337701,s,1,0.4796348655363545,429.41291981365066,430.4432802951196,,,,,,,,,,,,,549,2023-05-15_10h34.49.861,eb_02psyexp,2022.2.4,99.93207071004257,
188,0,188,0,,,,,,,,,,,,,,,,,,,,,,,,,,,,,,,,,,,,,,,,,,,,,,,,,,,,,,,,,,430.4432802951196,430.4432802951196,430.4432802951196,430.4432802951196,430.4432802951196,430.4432802951196,l,1,0.5989886274328455,431.0536701641977,432.0843457719311,,,,,,,,,,,,,549,2023-05-15_10h34.49.861,eb_02psyexp,2022.2.4,99.93207071004257,
189,0,189,0,,,,,,,,,,,,,,,,,,,,,,,,,,,,,,,,,,,,,,,,,,,,,,,,,,,,,,,,,,432.0843457719311,432.0843457719311,432.0843457719311,432.0843457719311,432.0843457719311,432.0843457719311,s,1,0.5739439391763881,432.67470701411366,433.6954081518343,,,,,,,,,,,,,549,2023-05-15_10h34.49.861,eb_02psyexp,2022.2.4,99.93207071004257,
190,0,190,0,,,,,,,,,,,,,,,,,,,,,,,,,,,,,,,,,,,,,,,,,,,,,,,,,,,,,,,,,,433.6954081518343,433.6954081518343,433.6954081518343,433.6954081518343,433.6954081518343,433.6954081518343,l,1,0.6268628110410646,434.3357811961323,435.3664441263536,,,,,,,,,,,,,549,2023-05-15_10h34.49.861,eb_02psyexp,2022.2.4,99.93207071004257,
191,0,191,0,,,,,,,,,,,,,,,,,,,,,,,,,,,,,,,,,,,,,,,,,,,,,,,,,,,,,,,,,,435.3664441263536,435.3664441263536,435.3664441263536,435.3664441263536,435.3664441263536,435.3664441263536,l,1,0.5238530536880717,435.90679235896096,,,,,,,,,,,,,,549,2023-05-15_10h34.49.861,eb_02psyexp,2022.2.4,99.93207071004257,
192,0,192,0,,,,,,,,,,,,,,,,,,,,,,,,,,,,,,,,,,,,,,,,,,,,,,,,,,,,,,,,,,436.9377782633528,436.9377782633528,436.9377782633528,436.9377782633528,436.9377782633528,436.9377782633528,s,1,0.6645557128358632,437.61791154614184,438.6386099673109,,,,,,,,,,,,,549,2023-05-15_10h34.49.861,eb_02psyexp,2022.2.4,99.93207071004257,
193,0,193,0,,,,,,,,,,,,,,,,,,,,,,,,,,,,,,,,,,,,,,,,,,,,,,,,,,,,,,,,,,438.6386099673109,438.6386099673109,438.6386099673109,438.6386099673109,438.6386099673109,438.6386099673109,s,1,0.5957054587779567,439.24896572786383,440.27962111204397,,,,,,,,,,,,,549,2023-05-15_10h34.49.861,eb_02psyexp,2022.2.4,99.93207071004257,
194,0,194,0,,,,,,,,,,,,,,,,,,,,,,,,,,,,,,,,,,,,,,,,,,,,,,,,,,,,,,,,,,440.27962111204397,440.27962111204397,440.27962111204397,440.27962111204397,440.27962111204397,440.27962111204397,s,1,0.4587209270102903,440.74993495235685,,,,,,,,,,,,,,549,2023-05-15_10h34.49.861,eb_02psyexp,2022.2.4,99.93207071004257,
195,0,195,0,,,,,,,,,,,,,,,,,,,,,,,,,,,,,,,,,,,,,,,,,,,,,,,,,,,,,,,,,,441.7809259882197,441.7809259882197,441.7809259882197,441.7809259882197,441.7809259882197,441.7809259882197,l,1,0.469415599363856,442.2612348239636,443.2815876326058,,,,,,,,,,,,,549,2023-05-15_10h34.49.861,eb_02psyexp,2022.2.4,99.93207071004257,
196,0,196,0,,,,,,,,,,,,,,,,,,,,,,,,,,,,,,,,,,,,,,,,,,,,,,,,,,,,,,,,,,443.2815876326058,443.2815876326058,443.2815876326058,443.2815876326058,443.2815876326058,443.2815876326058,l,1,0.583810348645784,443.8819459830411,,,,,,,,,,,,,,549,2023-05-15_10h34.49.861,eb_02psyexp,2022.2.4,99.93207071004257,
197,0,197,0,,,,,,,,,,,,,,,,,,,,,,,,,,,,,,,,,,,,,,,,,,,,,,,,,,,,,,,,,,444.9129237376619,444.9129237376619,444.9129237376619,444.9129237376619,444.9129237376619,444.9129237376619,s,1,0.5524287252919748,445.48332698456943,446.5036897539394,,,,,,,,,,,,,549,2023-05-15_10h34.49.861,eb_02psyexp,2022.2.4,99.93207071004257,
198,0,198,0,,,,,,,,,,,,,,,,,,,,,,,,,,,,,,,,,,,,,,,,,,,,,,,,,,,,,,,,,,446.5036897539394,446.5036897539394,446.5036897539394,446.5036897539394,446.5036897539394,446.5036897539394,s,1,0.6416658965172246,447.1640784458723,448.19474650744814,,,,,,,,,,,,,549,2023-05-15_10h34.49.861,eb_02psyexp,2022.2.4,99.93207071004257,
199,0,199,0,,,,,0,0,0,0,,,,,,,,,,,,,,,,,,,,,,,,,,,,,,,,,,,,,,,,,,,,,,,,,,448.19474650744814,448.19474650744814,448.19474650744814,448.19474650744814,448.19474650744814,448.19474650744814,l,1,0.48663495434448123,448.69506676506717,449.6957136190031,449.6957136190031,449.6957136190031,space,12.808731099241413,,,,,,,,,549,2023-05-15_10h34.49.861,eb_02psyexp,2022.2.4,99.93207071004257,
199,0,199,0,,,,,,,,,,,,,,,,,,,,,,,,,,,,,,,,,,,,,,,,,,,,,,,,,,,,,,,,,,,,,,,,,,,,,,,,,,,,,,,,,549,2023-05-15_10h34.49.861,eb_02psyexp,2022.2.4,99.93207071004257,
200,0,200,0,,,,,,,,,,,,,,,,,,,,,,,,,,,,,,,,,,,,,,,,,,,,,,,,,,,,,,,,,,462.54433771874756,462.54433771874756,462.54433771874756,462.54433771874756,462.54433771874756,462.54433771874756,s,1,1.5921249726088718,464.15504663810134,465.1857077572495,,,,,,,,,,,,,549,2023-05-15_10h34.49.861,eb_02psyexp,2022.2.4,99.93207071004257,
201,0,201,0,,,,,,,,,,,,,,,,,,,,,,,,,,,,,,,,,,,,,,,,,,,,,,,,,,,,,,,,,,465.1857077572495,465.1857077572495,465.1857077572495,465.1857077572495,465.1857077572495,465.1857077572495,l,1,0.6308157740859315,465.83614220283926,466.8568348889239,,,,,,,,,,,,,549,2023-05-15_10h34.49.861,eb_02psyexp,2022.2.4,99.93207071004257,
202,0,202,0,,,,,,,,,,,,,,,,,,,,,,,,,,,,,,,,,,,,,,,,,,,,,,,,,,,,,,,,,,466.8568348889239,466.8568348889239,466.8568348889239,466.8568348889239,466.8568348889239,466.8568348889239,l,1,0.599620992783457,467.4671942717396,468.4978632387938,,,,,,,,,,,,,549,2023-05-15_10h34.49.861,eb_02psyexp,2022.2.4,99.93207071004257,
203,0,203,0,,,,,,,,,,,,,,,,,,,,,,,,,,,,,,,,,,,,,,,,,,,,,,,,,,,,,,,,,,468.4978632387938,468.4978632387938,468.4978632387938,468.4978632387938,468.4978632387938,468.4978632387938,l,1,0.542618157225661,469.05822168581653,470.0789185977774,,,,,,,,,,,,,549,2023-05-15_10h34.49.861,eb_02psyexp,2022.2.4,99.93207071004257,
204,0,204,0,,,,,,,,,,,,,,,,,,,,,,,,,,,,,,,,,,,,,,,,,,,,,,,,,,,,,,,,,,470.0789185977774,470.0789185977774,470.0789185977774,470.0789185977774,470.0789185977774,470.0789185977774,s,1,0.6255428426666185,470.7192913402105,471.7499509501504,,,,,,,,,,,,,549,2023-05-15_10h34.49.861,eb_02psyexp,2022.2.4,99.93207071004257,
205,0,205,0,,,,,,,,,,,,,,,,,,,,,,,,,,,,,,,,,,,,,,,,,,,,,,,,,,,,,,,,,,471.7499509501504,471.7499509501504,471.7499509501504,471.7499509501504,471.7499509501504,471.7499509501504,l,1,0.6265555329155177,472.3903623287333,473.4210258626845,,,,,,,,,,,,,549,2023-05-15_10h34.49.861,eb_02psyexp,2022.2.4,99.93207071004257,
206,0,206,0,,,,,,,,,,,,,,,,,,,,,,,,,,,,,,,,,,,,,,,,,,,,,,,,,,,,,,,,,,473.4210258626845,473.4210258626845,473.4210258626845,473.4210258626845,473.4210258626845,473.4210258626845,s,1,1.291549474815838,474.7318752607098,475.76254090759903,,,,,,,,,,,,,549,2023-05-15_10h34.49.861,eb_02psyexp,2022.2.4,99.93207071004257,
207,0,207,0,,,,,,,,,,,,,,,,,,,,,,,,,,,,,,,,,,,,,,,,,,,,,,,,,,,,,,,,,,475.76254090759903,475.76254090759903,475.76254090759903,475.76254090759903,475.76254090759903,475.76254090759903,s,1,0.916969416779466,476.69314310653135,477.7138626568485,,,,,,,,,,,,,549,2023-05-15_10h34.49.861,eb_02psyexp,2022.2.4,99.93207071004257,
208,0,208,0,,,,,,,,,,,,,,,,,,,,,,,,,,,,,,,,,,,,,,,,,,,,,,,,,,,,,,,,,,477.7138626568485,477.7138626568485,477.7138626568485,477.7138626568485,477.7138626568485,477.7138626568485,s,1,0.5496755965286866,478.27416375337634,479.2948362157913,,,,,,,,,,,,,549,2023-05-15_10h34.49.861,eb_02psyexp,2022.2.4,99.93207071004257,
209,0,209,0,,,,,,,,,,,,,,,,,,,,,,,,,,,,,,,,,,,,,,,,,,,,,,,,,,,,,,,,,,479.2948362157913,479.2948362157913,479.2948362157913,479.2948362157913,479.2948362157913,479.2948362157913,l,1,0.6327222274849191,479.9452404769836,,,,,,,,,,,,,,549,2023-05-15_10h34.49.861,eb_02psyexp,2022.2.4,99.93207071004257,
210,0,210,0,,,,,,,,,,,,,,,,,,,,,,,,,,,,,,,,,,,,,,,,,,,,,,,,,,,,,,,,,,480.96622957487125,480.96622957487125,480.96622957487125,480.96622957487125,480.96622957487125,480.96622957487125,s,1,0.497307893820107,481.4765650514746,482.50691194995306,,,,,,,,,,,,,549,2023-05-15_10h34.49.861,eb_02psyexp,2022.2.4,99.93207071004257,
211,0,211,0,,,,,,,,,,,,,,,,,,,,,,,,,,,,,,,,,,,,,,,,,,,,,,,,,,,,,,,,,,482.50691194995306,482.50691194995306,482.50691194995306,482.50691194995306,482.50691194995306,482.50691194995306,l,1,0.516651634243317,483.03725371707696,484.0679205713095,,,,,,,,,,,,,549,2023-05-15_10h34.49.861,eb_02psyexp,2022.2.4,99.93207071004257,
212,0,212,0,,,,,,,,,,,,,,,,,,,,,,,,,,,,,,,,,,,,,,,,,,,,,,,,,,,,,,,,,,484.0679205713095,484.0679205713095,484.0679205713095,484.0679205713095,484.0679205713095,484.0679205713095,s,1,0.4996477966196835,484.5782485017553,485.59891070157755,,,,,,,,,,,,,549,2023-05-15_10h34.49.861,eb_02psyexp,2022.2.4,99.93207071004257,
213,0,213,0,,,,,,,,,,,,,,,,,,,,,,,,,,,,,,,,,,,,,,,,,,,,,,,,,,,,,,,,,,485.59891070157755,485.59891070157755,485.59891070157755,485.59891070157755,485.59891070157755,485.59891070157755,l,1,1.1366395725635812,486.7496611789102,487.78030599839985,,,,,,,,,,,,,549,2023-05-15_10h34.49.861,eb_02psyexp,2022.2.4,99.93207071004257,
214,0,214,0,,,,,,,,,,,,,,,,,,,,,,,,,,,,,,,,,,,,,,,,,,,,,,,,,,,,,,,,,,487.78030599839985,487.78030599839985,487.78030599839985,487.78030599839985,487.78030599839985,487.78030599839985,s,1,0.8113109689438716,488.61084233480506,489.6415212628199,,,,,,,,,,,,,549,2023-05-15_10h34.49.861,eb_02psyexp,2022.2.4,99.93207071004257,
215,0,215,0,,,,,,,,,,,,,,,,,,,,,,,,,,,,,,,,,,,,,,,,,,,,,,,,,,,,,,,,,,489.6415212628199,489.6415212628199,489.6415212628199,489.6415212628199,489.6415212628199,489.6415212628199,s,1,0.6211392250843346,490.2819347543409,491.3126142860856,,,,,,,,,,,,,549,2023-05-15_10h34.49.861,eb_02psyexp,2022.2.4,99.93207071004257,
216,0,216,0,,,,,,,,,,,,,,,,,,,,,,,,,,,,,,,,,,,,,,,,,,,,,,,,,,,,,,,,,,491.3126142860856,491.3126142860856,491.3126142860856,491.3126142860856,491.3126142860856,491.3126142860856,l,1,0.5580013887956738,491.88296742667444,,,,,,,,,,,,,,549,2023-05-15_10h34.49.861,eb_02psyexp,2022.2.4,99.93207071004257,
217,0,217,0,,,,,,,,,,,,,,,,,,,,,,,,,,,,,,,,,,,,,,,,,,,,,,,,,,,,,,,,,,492.903948676656,492.903948676656,492.903948676656,492.903948676656,492.903948676656,492.903948676656,s,1,0.47869612753856927,493.3942503950093,494.42462838348,,,,,,,,,,,,,549,2023-05-15_10h34.49.861,eb_02psyexp,2022.2.4,99.93207071004257,
218,0,218,0,,,,,,,,,,,,,,,,,,,,,,,,,,,,,,,,,,,,,,,,,,,,,,,,,,,,,,,,,,494.42462838348,494.42462838348,494.42462838348,494.42462838348,494.42462838348,494.42462838348,l,1,0.6139882139395922,495.0550076396903,496.0856916990597,,,,,,,,,,,,,549,2023-05-15_10h34.49.861,eb_02psyexp,2022.2.4,99.93207071004257,
219,0,219,0,,,,,,,,,,,,,,,,,,,,,,,,,,,,,,,,,,,,,,,,,,,,,,,,,,,,,,,,,,496.0856916990597,496.0856916990597,496.0856916990597,496.0856916990597,496.0856916990597,496.0856916990597,s,1,0.4649476888589561,496.5659769909689,497.5966510894941,,,,,,,,,,,,,549,2023-05-15_10h34.49.861,eb_02psyexp,2022.2.4,99.93207071004257,
220,0,220,0,,,,,,,,,,,,,,,,,,,,,,,,,,,,,,,,,,,,,,,,,,,,,,,,,,,,,,,,,,497.5966510894941,497.5966510894941,497.5966510894941,497.5966510894941,497.5966510894941,497.5966510894941,s,1,0.5620252853259444,498.17703363578767,499.2076902273111,,,,,,,,,,,,,549,2023-05-15_10h34.49.861,eb_02psyexp,2022.2.4,99.93207071004257,
221,0,221,0,,,,,,,,,,,,,,,,,,,,,,,,,,,,,,,,,,,,,,,,,,,,,,,,,,,,,,,,,,499.2076902273111,499.2076902273111,499.2076902273111,499.2076902273111,499.2076902273111,499.2076902273111,l,1,0.5189900279510766,499.73804255889263,500.7686958301347,,,,,,,,,,,,,549,2023-05-15_10h34.49.861,eb_02psyexp,2022.2.4,99.93207071004257,
222,0,222,0,,,,,,,,,,,,,,,,,,,,,,,,,,,,,,,,,,,,,,,,,,,,,,,,,,,,,,,,,,500.7686958301347,500.7686958301347,500.7686958301347,500.7686958301347,500.7686958301347,500.7686958301347,s,1,0.501946346834302,501.2890435073059,502.3196994950995,,,,,,,,,,,,,549,2023-05-15_10h34.49.861,eb_02psyexp,2022.2.4,99.93207071004257,
223,0,223,0,,,,,,,,,,,,,,,,,,,,,,,,,,,,,,,,,,,,,,,,,,,,,,,,,,,,,,,,,,502.3196994950995,502.3196994950995,502.3196994950995,502.3196994950995,502.3196994950995,502.3196994950995,s,1,0.6789763603592291,503.01015587884467,504.03087452356704,,,,,,,,,,,,,549,2023-05-15_10h34.49.861,eb_02psyexp,2022.2.4,99.93207071004257,
224,0,224,0,,,,,,,,,,,,,,,,,,,,,,,,,,,,,,,,,,,,,,,,,,,,,,,,,,,,,,,,,,504.03087452356704,504.03087452356704,504.03087452356704,504.03087452356704,504.03087452356704,504.03087452356704,s,1,0.6158186022657901,504.66122299165,505.6818601383129,,,,,,,,,,,,,549,2023-05-15_10h34.49.861,eb_02psyexp,2022.2.4,99.93207071004257,
225,0,225,0,,,,,,,,,,,,,,,,,,,,,,,,,,,,,,,,,,,,,,,,,,,,,,,,,,,,,,,,,,505.6818601383129,505.6818601383129,505.6818601383129,505.6818601383129,505.6818601383129,505.6818601383129,l,1,0.6278902917401865,506.32228057226166,507.34298020077404,,,,,,,,,,,,,549,2023-05-15_10h34.49.861,eb_02psyexp,2022.2.4,99.93207071004257,
226,0,226,0,,,,,,,,,,,,,,,,,,,,,,,,,,,,,,,,,,,,,,,,,,,,,,,,,,,,,,,,,,507.34298020077404,507.34298020077404,507.34298020077404,507.34298020077404,507.34298020077404,507.34298020077404,s,1,0.5266958305146545,507.8833048894303,,,,,,,,,,,,,,549,2023-05-15_10h34.49.861,eb_02psyexp,2022.2.4,99.93207071004257,
227,0,227,0,,,,,,,,,,,,,,,,,,,,,,,,,,,,,,,,,,,,,,,,,,,,,,,,,,,,,,,,,,508.9142944160849,508.9142944160849,508.9142944160849,508.9142944160849,508.9142944160849,508.9142944160849,s,1,0.47541416622698307,509.404610924772,510.425018970971,,,,,,,,,,,,,549,2023-05-15_10h34.49.861,eb_02psyexp,2022.2.4,99.93207071004257,
228,0,228,0,,,,,,,,,,,,,,,,,,,,,,,,,,,,,,,,,,,,,,,,,,,,,,,,,,,,,,,,,,510.425018970971,510.425018970971,510.425018970971,510.425018970971,510.425018970971,510.425018970971,l,1,0.5726967154769227,511.0153147126548,512.0359757051338,,,,,,,,,,,,,549,2023-05-15_10h34.49.861,eb_02psyexp,2022.2.4,99.93207071004257,
229,0,229,0,,,,,,,,,,,,,,,,,,,,,,,,,,,,,,,,,,,,,,,,,,,,,,,,,,,,,,,,,,512.0359757051338,512.0359757051338,512.0359757051338,512.0359757051338,512.0359757051338,512.0359757051338,l,1,0.6497553440276533,512.6964145032689,513.717110509635,,,,,,,,,,,,,549,2023-05-15_10h34.49.861,eb_02psyexp,2022.2.4,99.93207071004257,
230,0,230,0,,,,,,,,,,,,,,,,,,,,,,,,,,,,,,,,,,,,,,,,,,,,,,,,,,,,,,,,,,513.717110509635,513.717110509635,513.717110509635,513.717110509635,513.717110509635,513.717110509635,l,1,1.320724007091485,515.0479009996634,516.0685976097593,,,,,,,,,,,,,549,2023-05-15_10h34.49.861,eb_02psyexp,2022.2.4,99.93207071004257,
231,0,231,0,,,,,,,,,,,,,,,,,,,,,,,,,,,,,,,,,,,,,,,,,,,,,,,,,,,,,,,,,,516.0685976097593,516.0685976097593,516.0685976097593,516.0685976097593,516.0685976097593,516.0685976097593,l,1,0.5051446970319375,516.5889000102179,517.6095776041038,,,,,,,,,,,,,549,2023-05-15_10h34.49.861,eb_02psyexp,2022.2.4,99.93207071004257,
232,0,232,0,,,,,,,,,,,,,,,,,,,,,,,,,,,,,,,,,,,,,,,,,,,,,,,,,,,,,,,,,,517.6095776041038,517.6095776041038,517.6095776041038,517.6095776041038,517.6095776041038,517.6095776041038,s,1,0.5561876018764451,518.1799250096083,519.2006192049012,,,,,,,,,,,,,549,2023-05-15_10h34.49.861,eb_02psyexp,2022.2.4,99.93207071004257,
233,0,233,0,,,,,,,,,,,,,,,,,,,,,,,,,,,,,,,,,,,,,,,,,,,,,,,,,,,,,,,,,,519.2006192049012,519.2006192049012,519.2006192049012,519.2006192049012,519.2006192049012,519.2006192049012,l,1,0.7571608710568398,519.9711152389646,521.0017721323529,,,,,,,,,,,,,549,2023-05-15_10h34.49.861,eb_02psyexp,2022.2.4,99.93207071004257,
234,0,234,0,,,,,,,,,,,,,,,,,,,,,,,,,,,,,,,,,,,,,,,,,,,,,,,,,,,,,,,,,,521.0017721323529,521.0017721323529,521.0017721323529,521.0017721323529,521.0017721323529,521.0017721323529,s,1,0.604008914437145,521.6221802389482,522.6428312704666,,,,,,,,,,,,,549,2023-05-15_10h34.49.861,eb_02psyexp,2022.2.4,99.93207071004257,
235,0,235,0,,,,,,,,,,,,,,,,,,,,,,,,,,,,,,,,,,,,,,,,,,,,,,,,,,,,,,,,,,522.6428312704666,522.6428312704666,522.6428312704666,522.6428312704666,522.6428312704666,522.6428312704666,l,1,1.737953866366297,524.393945229589,525.424639249919,,,,,,,,,,,,,549,2023-05-15_10h34.49.861,eb_02psyexp,2022.2.4,99.93207071004257,
236,0,236,0,,,,,,,,,,,,,,,,,,,,,,,,,,,,,,,,,,,,,,,,,,,,,,,,,,,,,,,,,,525.424639249919,525.424639249919,525.424639249919,525.424639249919,525.424639249919,525.424639249919,s,1,0.5961684890789911,526.0350318355486,527.0556949408492,,,,,,,,,,,,,549,2023-05-15_10h34.49.861,eb_02psyexp,2022.2.4,99.93207071004257,
237,0,237,0,,,,,,,,,,,,,,,,,,,,,,,,,,,,,,,,,,,,,,,,,,,,,,,,,,,,,,,,,,527.0556949408492,527.0556949408492,527.0556949408492,527.0556949408492,527.0556949408492,527.0556949408492,l,1,0.6691156860906631,527.7361182967434,528.7667972247582,,,,,,,,,,,,,549,2023-05-15_10h34.49.861,eb_02psyexp,2022.2.4,99.93207071004257,
238,0,238,0,,,,,,,,,,,,,,,,,,,,,,,,,,,,,,,,,,,,,,,,,,,,,,,,,,,,,,,,,,528.7667972247582,528.7667972247582,528.7667972247582,528.7667972247582,528.7667972247582,528.7667972247582,s,1,1.150039078318514,529.9275457159383,530.948208519374,,,,,,,,,,,,,549,2023-05-15_10h34.49.861,eb_02psyexp,2022.2.4,99.93207071004257,
239,0,239,0,,,,,,,,,,,,,,,,,,,,,,,,,,,,,,,,,,,,,,,,,,,,,,,,,,,,,,,,,,530.948208519374,530.948208519374,530.948208519374,530.948208519374,530.948208519374,530.948208519374,l,1,0.5046110348775983,531.4685417080764,532.4991955829319,,,,,,,,,,,,,549,2023-05-15_10h34.49.861,eb_02psyexp,2022.2.4,99.93207071004257,
240,0,240,0,,,,,,,,,,,,,,,,,,,,,,,,,,,,,,,,,,,,,,,,,,,,,,,,,,,,,,,,,,532.4991955829319,532.4991955829319,532.4991955829319,532.4991955829319,532.4991955829319,532.4991955829319,s,1,0.5376760481158271,533.0495505828876,534.0702574556926,,,,,,,,,,,,,549,2023-05-15_10h34.49.861,eb_02psyexp,2022.2.4,99.93207071004257,
241,0,241,0,,,,,,,,,,,,,,,,,,,,,,,,,,,,,,,,,,,,,,,,,,,,,,,,,,,,,,,,,,534.0702574556926,534.0702574556926,534.0702574556926,534.0702574556926,534.0702574556926,534.0702574556926,l,1,0.5745817378628999,534.6605996815488,535.6912562730722,,,,,,,,,,,,,549,2023-05-15_10h34.49.861,eb_02psyexp,2022.2.4,99.93207071004257,
242,0,242,0,,,,,,,,,,,,,,,,,,,,,,,,,,,,,,,,,,,,,,,,,,,,,,,,,,,,,,,,,,535.6912562730722,535.6912562730722,535.6912562730722,535.6912562730722,535.6912562730722,535.6912562730722,s,1,0.521620305837132,536.2316066186177,537.2523264707997,,,,,,,,,,,,,549,2023-05-15_10h34.49.861,eb_02psyexp,2022.2.4,99.93207071004257,
243,0,243,0,,,,,,,,,,,,,,,,,,,,,,,,,,,,,,,,,,,,,,,,,,,,,,,,,,,,,,,,,,537.2523264707997,537.2523264707997,537.2523264707997,537.2523264707997,537.2523264707997,537.2523264707997,l,1,0.4556179599603638,537.7225829606177,,,,,,,,,,,,,,549,2023-05-15_10h34.49.861,eb_02psyexp,2022.2.4,99.93207071004257,
244,0,244,0,,,,,,,,,,,,,,,,,,,,,,,,,,,,,,,,,,,,,,,,,,,,,,,,,,,,,,,,,,538.7532371373381,538.7532371373381,538.7532371373381,538.7532371373381,538.7532371373381,538.7532371373381,s,1,0.5706508096773177,539.3339323950931,540.3542849018704,,,,,,,,,,,,,549,2023-05-15_10h34.49.861,eb_02psyexp,2022.2.4,99.93207071004257,
245,0,245,0,,,,,,,,,,,,,,,,,,,,,,,,,,,,,,,,,,,,,,,,,,,,,,,,,,,,,,,,,,540.3542849018704,540.3542849018704,540.3542849018704,540.3542849018704,540.3542849018704,540.3542849018704,s,1,0.5216043080436066,540.8946165329544,,,,,,,,,,,,,,549,2023-05-15_10h34.49.861,eb_02psyexp,2022.2.4,99.93207071004257,
246,0,246,0,,,,,,,,,,,,,,,,,,,,,,,,,,,,,,,,,,,,,,,,,,,,,,,,,,,,,,,,,,541.91527994012,541.91527994012,541.91527994012,541.91527994012,541.91527994012,541.91527994012,l,1,0.5526034936774522,542.4859808062902,543.5163274029037,,,,,,,,,,,,,549,2023-05-15_10h34.49.861,eb_02psyexp,2022.2.4,99.93207071004257,
247,0,247,0,,,,,,,,,,,,,,,,,,,,,,,,,,,,,,,,,,,,,,,,,,,,,,,,,,,,,,,,,,543.5163274029037,543.5163274029037,543.5163274029037,543.5163274029037,543.5163274029037,543.5163274029037,s,1,0.5915997622068971,544.1267196867848,545.1474265595898,,,,,,,,,,,,,549,2023-05-15_10h34.49.861,eb_02psyexp,2022.2.4,99.93207071004257,
248,0,248,0,,,,,,,,,,,,,,,,,,,,,,,,,,,,,,,,,,,,,,,,,,,,,,,,,,,,,,,,,,545.1474265595898,545.1474265595898,545.1474265595898,545.1474265595898,545.1474265595898,545.1474265595898,l,1,0.6324756200192496,545.7977991269436,546.8184634395875,,,,,,,,,,,,,549,2023-05-15_10h34.49.861,eb_02psyexp,2022.2.4,99.93207071004257,
249,0,249,0,,,,,,,,,,,,,,,,,,,,,,,,,,,,,,,,,,,,,,,,,,,,,,,,,,,,,,,,,,546.8184634395875,546.8184634395875,546.8184634395875,546.8184634395875,546.8184634395875,546.8184634395875,s,1,0.4734666618751362,547.3087606301997,548.3294243392302,,,,,,,,,,,,,549,2023-05-15_10h34.49.861,eb_02psyexp,2022.2.4,99.93207071004257,
250,0,250,0,,,,,,,,,,,,,,,,,,,,,,,,,,,,,,,,,,,,,,,,,,,,,,,,,,,,,,,,,,548.3294243392302,548.3294243392302,548.3294243392302,548.3294243392302,548.3294243392302,548.3294243392302,l,1,0.6024845968931913,548.9498212775216,,,,,,,,,,,,,,549,2023-05-15_10h34.49.861,eb_02psyexp,2022.2.4,99.93207071004257,
251,0,251,0,,,,,,,,,,,,,,,,,,,,,,,,,,,,,,,,,,,,,,,,,,,,,,,,,,,,,,,,,,549.9805035258178,549.9805035258178,549.9805035258178,549.9805035258178,549.9805035258178,549.9805035258178,s,1,0.5034226709976792,550.5011611978989,551.5215007252991,,,,,,,,,,,,,549,2023-05-15_10h34.49.861,eb_02psyexp,2022.2.4,99.93207071004257,
252,0,252,0,,,,,,,,,,,,,,,,,,,,,,,,,,,,,,,,,,,,,,,,,,,,,,,,,,,,,,,,,,551.5215007252991,551.5215007252991,551.5215007252991,551.5215007252991,551.5215007252991,551.5215007252991,l,1,0.5615607457002625,552.1018708960619,553.1325286949286,,,,,,,,,,,,,549,2023-05-15_10h34.49.861,eb_02psyexp,2022.2.4,99.93207071004257,
253,0,253,0,,,,,,,,,,,,,,,,,,,,,,,,,,,,,,,,,,,,,,,,,,,,,,,,,,,,,,,,,,553.1325286949286,553.1325286949286,553.1325286949286,553.1325286949286,553.1325286949286,553.1325286949286,s,1,0.5024655202869326,553.6528772776946,554.6735370625975,,,,,,,,,,,,,549,2023-05-15_10h34.49.861,eb_02psyexp,2022.2.4,99.93207071004257,
254,0,254,0,,,,,,,,,,,,,,,,,,,,,,,,,,,,,,,,,,,,,,,,,,,,,,,,,,,,,,,,,,554.6735370625975,554.6735370625975,554.6735370625975,554.6735370625975,554.6735370625975,554.6735370625975,s,1,0.49741655797697604,555.1838474861579,556.2845752949361,,,,,,,,,,,,,549,2023-05-15_10h34.49.861,eb_02psyexp,2022.2.4,99.93207071004257,
255,0,255,0,,,,,,,,,,,,,,,,,,,,,,,,,,,,,,,,,,,,,,,,,,,,,,,,,,,,,,,,,,556.2845752949361,556.2845752949361,556.2845752949361,556.2845752949361,556.2845752949361,556.2845752949361,l,1,0.49439357966184616,556.7949029236333,,,,,,,,,,,,,,549,2023-05-15_10h34.49.861,eb_02psyexp,2022.2.4,99.93207071004257,
256,0,256,0,,,,,,,,,,,,,,,,,,,,,,,,,,,,,,,,,,,,,,,,,,,,,,,,,,,,,,,,,,557.8158398023807,557.8158398023807,557.8158398023807,557.8158398023807,557.8158398023807,557.8158398023807,s,1,0.5071821510791779,558.3362064957619,559.3565460231621,,,,,,,,,,,,,549,2023-05-15_10h34.49.861,eb_02psyexp,2022.2.4,99.93207071004257,
257,0,257,0,,,,,,,,,,,,,,,,,,,,,,,,,,,,,,,,,,,,,,,,,,,,,,,,,,,,,,,,,,559.3565460231621,559.3565460231621,559.3565460231621,559.3565460231621,559.3565460231621,559.3565460231621,l,1,0.6544426959007978,560.0269774020417,561.0576436525444,,,,,,,,,,,,,549,2023-05-15_10h34.49.861,eb_02psyexp,2022.2.4,99.93207071004257,
258,0,258,0,,,,,,,,,,,,,,,,,,,,,,,,,,,,,,,,,,,,,,,,,,,,,,,,,,,,,,,,,,561.0576436525444,561.0576436525444,561.0576436525444,561.0576436525444,561.0576436525444,561.0576436525444,s,1,0.5213625300675631,561.5980057700071,562.6187150576152,,,,,,,,,,,,,549,2023-05-15_10h34.49.861,eb_02psyexp,2022.2.4,99.93207071004257,
259,0,259,0,,,,,,,,,,,,,,,,,,,,,,,,,,,,,,,,,,,,,,,,,,,,,,,,,,,,,,,,,,562.6187150576152,562.6187150576152,562.6187150576152,562.6187150576152,562.6187150576152,562.6187150576152,l,1,0.48831049632281065,563.1189999993658,564.1496427060338,,,,,,,,,,,,,549,2023-05-15_10h34.49.861,eb_02psyexp,2022.2.4,99.93207071004257,
260,0,260,0,,,,,,,,,,,,,,,,,,,,,,,,,,,,,,,,,,,,,,,,,,,,,,,,,,,,,,,,,,564.1496427060338,564.1496427060338,564.1496427060338,564.1496427060338,564.1496427060338,564.1496427060338,s,1,0.40536075772251934,564.5699115413008,565.5905767595395,,,,,,,,,,,,,549,2023-05-15_10h34.49.861,eb_02psyexp,2022.2.4,99.93207071004257,
261,0,261,0,,,,,,,,,,,,,,,,,,,,,,,,,,,,,,,,,,,,,,,,,,,,,,,,,,,,,,,,,,565.5905767595395,565.5905767595395,565.5905767595395,565.5905767595395,565.5905767595395,565.5905767595395,l,1,0.3724961696425453,565.9808379701572,567.0014923219569,,,,,,,,,,,,,549,2023-05-15_10h34.49.861,eb_02psyexp,2022.2.4,99.93207071004257,
262,0,262,0,,,,,,,,,,,,,,,,,,,,,,,,,,,,,,,,,,,,,,,,,,,,,,,,,,,,,,,,,,567.0014923219569,567.0014923219569,567.0014923219569,567.0014923219569,567.0014923219569,567.0014923219569,s,1,0.44157884432934225,567.46179607464,568.48250324931,,,,,,,,,,,,,549,2023-05-15_10h34.49.861,eb_02psyexp,2022.2.4,99.93207071004257,
263,0,263,0,,,,,,,,,,,,,,,,,,,,,,,,,,,,,,,,,,,,,,,,,,,,,,,,,,,,,,,,,,568.48250324931,568.48250324931,568.48250324931,568.48250324931,568.48250324931,568.48250324931,l,1,0.487605084432289,568.9827767210081,570.0134330106666,,,,,,,,,,,,,549,2023-05-15_10h34.49.861,eb_02psyexp,2022.2.4,99.93207071004257,
264,0,264,0,,,,,,,,,,,,,,,,,,,,,,,,,,,,,,,,,,,,,,,,,,,,,,,,,,,,,,,,,,570.0134330106666,570.0134330106666,570.0134330106666,570.0134330106666,570.0134330106666,570.0134330106666,s,1,0.4526043387595564,570.4837483601877,571.5044165968429,,,,,,,,,,,,,549,2023-05-15_10h34.49.861,eb_02psyexp,2022.2.4,99.93207071004257,
265,0,265,0,,,,,,,,,,,,,,,,,,,,,,,,,,,,,,,,,,,,,,,,,,,,,,,,,,,,,,,,,,571.5044165968429,571.5044165968429,571.5044165968429,571.5044165968429,571.5044165968429,571.5044165968429,l,1,0.5376494857482612,572.0547625415493,573.0854303012602,,,,,,,,,,,,,549,2023-05-15_10h34.49.861,eb_02psyexp,2022.2.4,99.93207071004257,
266,0,266,0,,,,,,,,,,,,,,,,,,,,,,,,,,,,,,,,,,,,,,,,,,,,,,,,,,,,,,,,,,573.0854303012602,573.0854303012602,573.0854303012602,573.0854303012602,573.0854303012602,573.0854303012602,s,1,0.3646264652488753,573.4656738780905,574.4963280548109,,,,,,,,,,,,,549,2023-05-15_10h34.49.861,eb_02psyexp,2022.2.4,99.93207071004257,
267,0,267,0,,,,,,,,,,,,,,,,,,,,,,,,,,,,,,,,,,,,,,,,,,,,,,,,,,,,,,,,,,574.4963280548109,574.4963280548109,574.4963280548109,574.4963280548109,574.4963280548109,574.4963280548109,l,1,0.6897715470986441,575.1971039173659,576.227447193698,,,,,,,,,,,,,549,2023-05-15_10h34.49.861,eb_02psyexp,2022.2.4,99.93207071004257,
268,0,268,0,,,,,,,,,,,,,,,,,,,,,,,,,,,,,,,,,,,,,,,,,,,,,,,,,,,,,,,,,,576.227447193698,576.227447193698,576.227447193698,576.227447193698,576.227447193698,576.227447193698,s,1,0.45462790806777775,576.6977471492719,,,,,,,,,,,,,,549,2023-05-15_10h34.49.861,eb_02psyexp,2022.2.4,99.93207071004257,
269,0,269,0,,,,,,,,,,,,,,,,,,,,,,,,,,,,,,,,,,,,,,,,,,,,,,,,,,,,,,,,,,577.7184120655293,577.7184120655293,577.7184120655293,577.7184120655293,577.7184120655293,577.7184120655293,l,1,0.4517033313168213,578.1890449562343,579.2193806864088,,,,,,,,,,,,,549,2023-05-15_10h34.49.861,eb_02psyexp,2022.2.4,99.93207071004257,
270,0,270,0,,,,,,,,,,,,,,,,,,,,,,,,,,,,,,,,,,,,,,,,,,,,,,,,,,,,,,,,,,579.2193806864088,579.2193806864088,579.2193806864088,579.2193806864088,579.2193806864088,579.2193806864088,s,1,0.4387360676191747,579.6696828030981,580.6903939017793,,,,,,,,,,,,,549,2023-05-15_10h34.49.861,eb_02psyexp,2022.2.4,99.93207071004257,
271,0,271,0,,,,,,,,,,,,,,,,,,,,,,,,,,,,,,,,,,,,,,,,,,,,,,,,,,,,,,,,,,580.6903939017793,580.6903939017793,580.6903939017793,580.6903939017793,580.6903939017793,580.6903939017793,l,1,0.48772370954975486,581.1906655622879,582.2213010246633,,,,,,,,,,,,,549,2023-05-15_10h34.49.861,eb_02psyexp,2022.2.4,99.93207071004257,
272,0,272,0,,,,,,,,,,,,,,,,,,,,,,,,,,,,,,,,,,,,,,,,,,,,,,,,,,,,,,,,,,582.2213010246633,582.2213010246633,582.2213010246633,582.2213010246633,582.2213010246633,582.2213010246633,s,1,0.42082548746839166,582.6616141828708,,,,,,,,,,,,,,549,2023-05-15_10h34.49.861,eb_02psyexp,2022.2.4,99.93207071004257,
273,0,273,0,,,,,,,,,,,,,,,,,,,,,,,,,,,,,,,,,,,,,,,,,,,,,,,,,,,,,,,,,,583.6825670594117,583.6825670594117,583.6825670594117,583.6825670594117,583.6825670594117,583.6825670594117,l,1,0.4155576874036342,584.1128634893103,585.133219014504,,,,,,,,,,,,,549,2023-05-15_10h34.49.861,eb_02psyexp,2022.2.4,99.93207071004257,
274,0,274,0,,,,,,,,,,,,,,,,,,,,,,,,,,,,,,,,,,,,,,,,,,,,,,,,,,,,,,,,,,585.133219014504,585.133219014504,585.133219014504,585.133219014504,585.133219014504,585.133219014504,s,1,0.5158943050773814,585.6635408598231,586.6842247924069,,,,,,,,,,,,,549,2023-05-15_10h34.49.861,eb_02psyexp,2022.2.4,99.93207071004257,
275,0,275,0,,,,,,,,,,,,,,,,,,,,,,,,,,,,,,,,,,,,,,,,,,,,,,,,,,,,,,,,,,586.6842247924069,586.6842247924069,586.6842247924069,586.6842247924069,586.6842247924069,586.6842247924069,l,1,0.908969315350987,587.6047957746778,588.625504156691,,,,,,,,,,,,,549,2023-05-15_10h34.49.861,eb_02psyexp,2022.2.4,99.93207071004257,
276,0,276,0,,,,,,,,,,,,,,,,,,,,,,,,,,,,,,,,,,,,,,,,,,,,,,,,,,,,,,,,,,588.625504156691,588.625504156691,588.625504156691,588.625504156691,588.625504156691,588.625504156691,s,0,0.40765870409086347,589.0457406945061,590.066386292805,,,,,,,,,,,,,549,2023-05-15_10h34.49.861,eb_02psyexp,2022.2.4,99.93207071004257,
277,0,277,0,,,,,,,,,,,,,,,,,,,,,,,,,,,,,,,,,,,,,,,,,,,,,,,,,,,,,,,,,,590.066386292805,590.066386292805,590.066386292805,590.066386292805,590.066386292805,590.066386292805,l,1,0.8068038185592741,590.8869309541769,591.9075753450161,,,,,,,,,,,,,549,2023-05-15_10h34.49.861,eb_02psyexp,2022.2.4,99.93207071004257,
278,0,278,0,,,,,,,,,,,,,,,,,,,,,,,,,,,,,,,,,,,,,,,,,,,,,,,,,,,,,,,,,,591.9075753450161,591.9075753450161,591.9075753450161,591.9075753450161,591.9075753450161,591.9075753450161,s,1,0.4696160244056955,592.38790017867,593.4185546571389,,,,,,,,,,,,,549,2023-05-15_10h34.49.861,eb_02psyexp,2022.2.4,99.93207071004257,
279,0,279,0,,,,,,,,,,,,,,,,,,,,,,,,,,,,,,,,,,,,,,,,,,,,,,,,,,,,,,,,,,593.4185546571389,593.4185546571389,593.4185546571389,593.4185546571389,593.4185546571389,593.4185546571389,l,1,0.47065286221913993,593.9088811267866,,,,,,,,,,,,,,549,2023-05-15_10h34.49.861,eb_02psyexp,2022.2.4,99.93207071004257,
280,0,280,0,,,,,,,,,,,,,,,,,,,,,,,,,,,,,,,,,,,,,,,,,,,,,,,,,,,,,,,,,,594.9395346997771,594.9395346997771,594.9395346997771,594.9395346997771,594.9395346997771,594.9395346997771,s,1,0.44566612830385566,595.4001792356139,596.4204918987816,,,,,,,,,,,,,549,2023-05-15_10h34.49.861,eb_02psyexp,2022.2.4,99.93207071004257,
281,0,281,0,,,,,,,,,,,,,,,,,,,,,,,,,,,,,,,,,,,,,,,,,,,,,,,,,,,,,,,,,,596.4204918987816,596.4204918987816,596.4204918987816,596.4204918987816,596.4204918987816,596.4204918987816,l,1,0.46072578185703605,596.9008007345255,,,,,,,,,,,,,,549,2023-05-15_10h34.49.861,eb_02psyexp,2022.2.4,99.93207071004257,
282,0,282,0,,,,,,,,,,,,,,,,,,,,,,,,,,,,,,,,,,,,,,,,,,,,,,,,,,,,,,,,,,597.921801302582,597.921801302582,597.921801302582,597.921801302582,597.921801302582,597.921801302582,l,1,0.52741542912554,598.4621477241162,599.4824688390363,,,,,,,,,,,,,549,2023-05-15_10h34.49.861,eb_02psyexp,2022.2.4,99.93207071004257,
283,0,283,0,,,,,,,,,,,,,,,,,,,,,,,,,,,,,,,,,,,,,,,,,,,,,,,,,,,,,,,,,,599.4824688390363,599.4824688390363,599.4824688390363,599.4824688390363,599.4824688390363,599.4824688390363,l,1,0.7018190888920799,600.2029479395133,601.2236080263974,,,,,,,,,,,,,549,2023-05-15_10h34.49.861,eb_02psyexp,2022.2.4,99.93207071004257,
284,0,284,0,,,,,,,,,,,,,,,,,,,,,,,,,,,,,,,,,,,,,,,,,,,,,,,,,,,,,,,,,,601.2236080263974,601.2236080263974,601.2236080263974,601.2236080263974,601.2236080263974,601.2236080263974,s,1,0.520610935986042,601.7639571645996,602.7846039702417,,,,,,,,,,,,,549,2023-05-15_10h34.49.861,eb_02psyexp,2022.2.4,99.93207071004257,
285,0,285,0,,,,,,,,,,,,,,,,,,,,,,,,,,,,,,,,,,,,,,,,,,,,,,,,,,,,,,,,,,602.7846039702417,602.7846039702417,602.7846039702417,602.7846039702417,602.7846039702417,602.7846039702417,l,1,0.5836491633672267,603.3850045789732,604.4057132628514,,,,,,,,,,,,,549,2023-05-15_10h34.49.861,eb_02psyexp,2022.2.4,99.93207071004257,
286,0,286,0,,,,,,,,,,,,,,,,,,,,,,,,,,,,,,,,,,,,,,,,,,,,,,,,,,,,,,,,,,604.4057132628514,604.4057132628514,604.4057132628514,604.4057132628514,604.4057132628514,604.4057132628514,l,1,0.8585799051215872,605.2762482953258,606.3068937185453,,,,,,,,,,,,,549,2023-05-15_10h34.49.861,eb_02psyexp,2022.2.4,99.93207071004257,
287,0,287,0,,,,,,,,,,,,,,,,,,,,,,,,,,,,,,,,,,,,,,,,,,,,,,,,,,,,,,,,,,606.3068937185453,606.3068937185453,606.3068937185453,606.3068937185453,606.3068937185453,606.3068937185453,l,1,0.7973699531285092,607.1174059556797,608.1381049804622,,,,,,,,,,,,,549,2023-05-15_10h34.49.861,eb_02psyexp,2022.2.4,99.93207071004257,
288,0,288,0,,,,,,,,,,,,,,,,,,,,,,,,,,,,,,,,,,,,,,,,,,,,,,,,,,,,,,,,,,608.1381049804622,608.1381049804622,608.1381049804622,608.1381049804622,608.1381049804622,608.1381049804622,l,1,0.822181013179943,608.9786124665989,609.999265309074,,,,,,,,,,,,,549,2023-05-15_10h34.49.861,eb_02psyexp,2022.2.4,99.93207071004257,
289,0,289,0,,,,,,,,,,,,,,,,,,,,,,,,,,,,,,,,,,,,,,,,,,,,,,,,,,,,,,,,,,609.999265309074,609.999265309074,609.999265309074,609.999265309074,609.999265309074,609.999265309074,l,1,0.6090231644921005,610.6196788488887,611.6404050398851,,,,,,,,,,,,,549,2023-05-15_10h34.49.861,eb_02psyexp,2022.2.4,99.93207071004257,
290,0,290,0,,,,,,,,,,,,,,,,,,,,,,,,,,,,,,,,,,,,,,,,,,,,,,,,,,,,,,,,,,611.6404050398851,611.6404050398851,611.6404050398851,611.6404050398851,611.6404050398851,611.6404050398851,l,1,0.41589182999450713,612.0706042756792,613.1012880331837,,,,,,,,,,,,,549,2023-05-15_10h34.49.861,eb_02psyexp,2022.2.4,99.93207071004257,
291,0,291,0,,,,,,,,,,,,,,,,,,,,,,,,,,,,,,,,,,,,,,,,,,,,,,,,,,,,,,,,,,613.1012880331837,613.1012880331837,613.1012880331837,613.1012880331837,613.1012880331837,613.1012880331837,l,1,0.3790317188249901,613.4915178520605,614.5122425337322,,,,,,,,,,,,,549,2023-05-15_10h34.49.861,eb_02psyexp,2022.2.4,99.93207071004257,
292,0,292,0,,,,,,,,,,,,,,,,,,,,,,,,,,,,,,,,,,,,,,,,,,,,,,,,,,,,,,,,,,614.5122425337322,614.5122425337322,614.5122425337322,614.5122425337322,614.5122425337322,614.5122425337322,l,1,0.439132088329643,614.9624661706621,,,,,,,,,,,,,,549,2023-05-15_10h34.49.861,eb_02psyexp,2022.2.4,99.93207071004257,
293,0,293,0,,,,,,,,,,,,,,,,,,,,,,,,,,,,,,,,,,,,,,,,,,,,,,,,,,,,,,,,,,615.993470185902,615.993470185902,615.993470185902,615.993470185902,615.993470185902,615.993470185902,l,1,0.7018565176986158,616.7136024663923,617.7343395237112,,,,,,,,,,,,,549,2023-05-15_10h34.49.861,eb_02psyexp,2022.2.4,99.93207071004257,
294,0,294,0,,,,,,,,,,,,,,,,,,,,,,,,,,,,,,,,,,,,,,,,,,,,,,,,,,,,,,,,,,617.7343395237112,617.7343395237112,617.7343395237112,617.7343395237112,617.7343395237112,617.7343395237112,s,1,0.6649964065290987,618.4146982847014,619.4453998510726,,,,,,,,,,,,,549,2023-05-15_10h34.49.861,eb_02psyexp,2022.2.4,99.93207071004257,
295,0,295,0,,,,,,,,,,,,,,,,,,,,,,,,,,,,,,,,,,,,,,,,,,,,,,,,,,,,,,,,,,619.4453998510726,619.4453998510726,619.4453998510726,619.4453998510726,619.4453998510726,619.4453998510726,l,1,0.4739502175943926,619.9356855716323,620.9666841535363,,,,,,,,,,,,,549,2023-05-15_10h34.49.861,eb_02psyexp,2022.2.4,99.93207071004257,
296,0,296,0,,,,,,,,,,,,,,,,,,,,,,,,,,,,,,,,,,,,,,,,,,,,,,,,,,,,,,,,,,620.9666841535363,620.9666841535363,620.9666841535363,620.9666841535363,620.9666841535363,620.9666841535363,s,1,0.4646627469919622,621.4469944986049,622.4773344545392,,,,,,,,,,,,,549,2023-05-15_10h34.49.861,eb_02psyexp,2022.2.4,99.93207071004257,
297,0,297,0,,,,,,,,,,,,,,,,,,,,,,,,,,,,,,,,,,,,,,,,,,,,,,,,,,,,,,,,,,622.4773344545392,622.4773344545392,622.4773344545392,622.4773344545392,622.4773344545392,622.4773344545392,s,1,0.5700474213808775,623.0577010031557,624.0783716546139,,,,,,,,,,,,,549,2023-05-15_10h34.49.861,eb_02psyexp,2022.2.4,99.93207071004257,
298,0,298,0,,,,,,,,,,,,,,,,,,,,,,,,,,,,,,,,,,,,,,,,,,,,,,,,,,,,,,,,,,624.0783716546139,624.0783716546139,624.0783716546139,624.0783716546139,624.0783716546139,624.0783716546139,l,1,0.7290120082907379,624.8188522160053,625.8395608999999,,,,,,,,,,,,,549,2023-05-15_10h34.49.861,eb_02psyexp,2022.2.4,99.93207071004257,
299,0,299,0,,,,,,,,,,,,,,,,,,,,,,,,,,,,,,,,,,,,,,,,,,,,,,,,,,,,,,,,,,625.8395608999999,625.8395608999999,625.8395608999999,625.8395608999999,625.8395608999999,625.8395608999999,s,1,0.607823028578423,626.4599125614623,627.4805584616261,,,,,,,,,,,,,549,2023-05-15_10h34.49.861,eb_02psyexp,2022.2.4,99.93207071004257,
300,0,300,0,,,,,,,,,,,,,,,,,,,,,,,,,,,,,,,,,,,,,,,,,,,,,,,,,,,,,,,,,,627.4805584616261,627.4805584616261,627.4805584616261,627.4805584616261,627.4805584616261,627.4805584616261,l,1,0.5588350847829133,628.0509405793855,629.0815935487626,,,,,,,,,,,,,549,2023-05-15_10h34.49.861,eb_02psyexp,2022.2.4,99.93207071004257,
301,0,301,0,,,,,,,,,,,,,,,,,,,,,,,,,,,,,,,,,,,,,,,,,,,,,,,,,,,,,,,,,,629.0815935487626,629.0815935487626,629.0815935487626,629.0815935487626,629.0815935487626,629.0815935487626,s,1,0.5097976385150105,629.6019412259338,630.622590748244,,,,,,,,,,,,,549,2023-05-15_10h34.49.861,eb_02psyexp,2022.2.4,99.93207071004257,
302,0,302,0,,,,,,,,,,,,,,,,,,,,,,,,,,,,,,,,,,,,,,,,,,,,,,,,,,,,,,,,,,630.622590748244,630.622590748244,630.622590748244,630.622590748244,630.622590748244,630.622590748244,l,1,0.44081578007899225,631.082884238218,632.1036122401711,,,,,,,,,,,,,549,2023-05-15_10h34.49.861,eb_02psyexp,2022.2.4,99.93207071004257,
303,0,303,0,,,,,,,,,,,,,,,,,,,,,,,,,,,,,,,,,,,,,,,,,,,,,,,,,,,,,,,,,,632.1036122401711,632.1036122401711,632.1036122401711,632.1036122401711,632.1036122401711,632.1036122401711,s,1,0.5187992618884891,632.6338885069126,633.6545576490462,,,,,,,,,,,,,549,2023-05-15_10h34.49.861,eb_02psyexp,2022.2.4,99.93207071004257,
