trials.thisRepN,trials.thisTrialN,trials.thisN,trials.thisIndex,image_loop.thisRepN,image_loop.thisTrialN,image_loop.thisN,image_loop.thisIndex,break_loop.thisRepN,break_loop.thisTrialN,break_loop.thisN,break_loop.thisIndex,test_trials.thisRepN,test_trials.thisTrialN,test_trials.thisN,test_trials.thisIndex,tools,welcome_text.started,instructions_0_keypress.started,instructions_0_keypress.keys,instructions_0_keypress.rt,consent_image_0.started,consent0_key_resp.started,consent0_text.started,consent0_key_resp.keys,consent0_key_resp.rt,consent_image_1.started,consent1_key_resp.started,consent1_text.started,consent1_key_resp.keys,consent1_key_resp.rt,consent2_text.started,consent_image_2.started,consent2_key_resp.started,consent2_key_resp.keys,consent2_key_resp.rt,agree_button.started,disagree_button.started,consent_image_3.started,agree_button.numClicks,agree_button.timesOn,agree_button.timesOff,disagree_button.numClicks,disagree_button.timesOn,disagree_button.timesOff,instructions_text1.started,instructions1_key_resp.started,instr1_cnt_text.started,instructions1_key_resp.keys,instructions1_key_resp.rt,instructions_text2.started,instr2_cnt_text.started,instructions2_key_resp.started,instructions2_key_resp.keys,instructions2_key_resp.rt,instructions_text3.started,instructions3_key_resp.started,instr3_cnt_text.started,instructions3_key_resp.keys,instructions3_key_resp.rt,text_countdown.started,image.started,small_large_keyresp.started,task_question_text.started,smalleroption_text.started,largeroption_text.started,accuracy_score_text.started,small_large_keyresp.keys,small_large_keyresp.corr,small_large_keyresp.rt,fb_2.started,fb_2.stopped,break_text.started,break_key_resp.started,break_key_resp.keys,break_key_resp.rt,graph.started,debrief_text.started,debriefing_title.started,demo_scr_adv.started,demo_scr_adv_keypress.started,demo_scr_adv_keypress.keys,demo_scr_adv_keypress.rt,text_countdown_2.started,participant,date,expName,psychopyVersion,frameRate,
,,,,,,,,,,,,,,,,[11  9  4  7  2  3 10  6  5  1  0  8],12.379228773803334,12.379228773803334,return,6.657738095529567,,,,,,,,,,,,,,,,,,,,,,,,,,,,,,,,,,,,,,,,,,,,,,,,,,,,,,,,,,,,,,,,550,2023-05-15_10h45.52.565,eb_02psyexp,2022.2.4,60.003767262769315,
,,,,,,,,,,,,,,,,,,,,,19.06206326793199,19.06206326793199,19.06206326793199,space,9.110941245102367,,,,,,,,,,,,,,,,,,,,,,,,,,,,,,,,,,,,,,,,,,,,,,,,,,,,,,,,,,,550,2023-05-15_10h45.52.565,eb_02psyexp,2022.2.4,60.003767262769315,
,,,,,,,,,,,,,,,,,,,,,,,,,,28.194673159152444,28.194673159152444,28.194673159152444,space,3.041341207914229,,,,,,,,,,,,,,,,,,,,,,,,,,,,,,,,,,,,,,,,,,,,,,,,,,,,,,550,2023-05-15_10h45.52.565,eb_02psyexp,2022.2.4,60.003767262769315,
,,,,,,,,,,,,,,,,,,,,,,,,,,,,,,,31.261158155340127,31.261158155340127,31.261158155340127,space,1.2308685125171905,,,,,,,,,,,,,,,,,,,,,,,,,,,,,,,,,,,,,,,,,,,,,,,,,550,2023-05-15_10h45.52.565,eb_02psyexp,2022.2.4,60.003767262769315,
,,,,,,,,,,,,,,,,,,,,,,,,,,,,,,,,,,,,32.51106956381591,32.51106956381591,32.51106956381591,1,[2.2492053928845053],[2.2492096187161223],0,,,34.76058072574415,36.7440867043897,36.7440867043897,space,2.211979954315211,,,,,,,,,,,,,,,,,,,,,,,,,,,,,,,,,,,550,2023-05-15_10h45.52.565,eb_02psyexp,2022.2.4,60.003767262769315,
,,,,,,,,,,,,,,,,,,,,,,,,,,,,,,,,,,,,,,,,,,,,,,,,,,38.977250239816385,41.96035868851959,41.96035868851959,space,7.082764914463951,,,,,,,,,,,,,,,,,,,,,,,,,,,,,,550,2023-05-15_10h45.52.565,eb_02psyexp,2022.2.4,60.003767262769315,
,,,,,,,,,,,,,,,,,,,,,,,,,,,,,,,,,,,,,,,,,,,,,,,,,,,,,,,49.059836255092705,52.04294862778261,52.04294862778261,space,26.23034118920077,,,,,,,,,,,,,,,,,,,,,,,,,550,2023-05-15_10h45.52.565,eb_02psyexp,2022.2.4,60.003767262769315,
0,0,0,0,,,,,,,,,,,,,,,,,,,,,,,,,,,,,,,,,,,,,,,,,,,,,,,,,,,,,,,,,78.3077162463278,83.37401621149456,83.37401621149456,83.37401621149456,83.37401621149456,83.37401621149456,83.37401621149456,s,1,1.4753358435236805,84.873904528823,85.90716513762072,,,,,,,,,,,,,550,2023-05-15_10h45.52.565,eb_02psyexp,2022.2.4,60.003767262769315,
1,0,1,0,,,,,,,,,,,,,,,,,,,,,,,,,,,,,,,,,,,,,,,,,,,,,,,,,,,,,,,,,,85.90716513762072,85.90716513762072,85.90716513762072,85.90716513762072,85.90716513762072,85.90716513762072,l,1,1.246169944047324,87.17373658223278,88.22366356591283,,,,,,,,,,,,,550,2023-05-15_10h45.52.565,eb_02psyexp,2022.2.4,60.003767262769315,
2,0,2,0,,,,,,,,,,,,,,,,,,,,,,,,,,,,,,,,,,,,,,,,,,,,,,,,,,,,,,,,,,88.22366356591283,88.22366356591283,88.22366356591283,88.22366356591283,88.22366356591283,88.22366356591283,s,1,0.7857068171379069,89.04026492337107,90.07353458752004,,,,,,,,,,,,,550,2023-05-15_10h45.52.565,eb_02psyexp,2022.2.4,60.003767262769315,
3,0,3,0,,,,,,,,,,,,,,,,,,,,,,,,,,,,,,,,,,,,,,,,,,,,,,,,,,,,,,,,,,90.07353458752004,90.07353458752004,90.07353458752004,90.07353458752004,90.07353458752004,90.07353458752004,l,1,0.6158350590294503,90.70682634672721,91.7567660079003,,,,,,,,,,,,,550,2023-05-15_10h45.52.565,eb_02psyexp,2022.2.4,60.003767262769315,
4,0,4,0,,,,,,,,,,,,,,,,,,,,,,,,,,,,,,,,,,,,,,,,,,,,,,,,,,,,,,,,,,91.7567660079003,91.7567660079003,91.7567660079003,91.7567660079003,91.7567660079003,91.7567660079003,l,1,1.1316037467086062,92.90664988810659,93.9399449072398,,,,,,,,,,,,,550,2023-05-15_10h45.52.565,eb_02psyexp,2022.2.4,60.003767262769315,
5,0,5,0,,,,,,,,,,,,,,,,,,,,,,,,,,,,,,,,,,,,,,,,,,,,,,,,,,,,,,,,,,93.9399449072398,93.9399449072398,93.9399449072398,93.9399449072398,93.9399449072398,93.9399449072398,s,1,0.6044286361284321,94.57320104873088,95.60646739258391,,,,,,,,,,,,,550,2023-05-15_10h45.52.565,eb_02psyexp,2022.2.4,60.003767262769315,
6,0,6,0,,,,,,,,,,,,,,,,,,,,,,,,,,,,,,,,,,,,,,,,,,,,,,,,,,,,,,,,,,95.60646739258391,95.60646739258391,95.60646739258391,95.60646739258391,95.60646739258391,95.60646739258391,s,1,0.5139019829075551,96.13976693939367,97.15638230246259,,,,,,,,,,,,,550,2023-05-15_10h45.52.565,eb_02psyexp,2022.2.4,60.003767262769315,
7,0,7,0,,,,,,,,,,,,,,,,,,,,,,,,,,,,,,,,,,,,,,,,,,,,,,,,,,,,,,,,,,97.15638230246259,97.15638230246259,97.15638230246259,97.15638230246259,97.15638230246259,97.15638230246259,s,1,0.8200124135264559,98.00629014916558,99.02288559046065,,,,,,,,,,,,,550,2023-05-15_10h45.52.565,eb_02psyexp,2022.2.4,60.003767262769315,
8,0,8,0,,,,,,,,,,,,,,,,,,,,,,,,,,,,,,,,,,,,,,,,,,,,,,,,,,,,,,,,,,99.02288559046065,99.02288559046065,99.02288559046065,99.02288559046065,99.02288559046065,99.02288559046065,l,1,0.5775254879454224,99.62283946853586,100.65610098286834,,,,,,,,,,,,,550,2023-05-15_10h45.52.565,eb_02psyexp,2022.2.4,60.003767262769315,
9,0,9,0,,,,,,,,,,,,,,,,,,,,,,,,,,,,,,,,,,,,,,,,,,,,,,,,,,,,,,,,,,100.65610098286834,100.65610098286834,100.65610098286834,100.65610098286834,100.65610098286834,100.65610098286834,s,1,0.54430200609022,101.22270460416348,102.23932902258366,,,,,,,,,,,,,550,2023-05-15_10h45.52.565,eb_02psyexp,2022.2.4,60.003767262769315,
10,0,10,0,,,,,,,,,,,,,,,,,,,,,,,,,,,,,,,,,,,,,,,,,,,,,,,,,,,,,,,,,,102.23932902258366,102.23932902258366,102.23932902258366,102.23932902258366,102.23932902258366,102.23932902258366,l,1,0.8330937746541167,103.0892564892165,104.12252011646433,,,,,,,,,,,,,550,2023-05-15_10h45.52.565,eb_02psyexp,2022.2.4,60.003767262769315,
11,0,11,0,,,,,,,,,,,,,,,,,,,,,,,,,,,,,,,,,,,,,,,,,,,,,,,,,,,,,,,,,,104.12252011646433,104.12252011646433,104.12252011646433,104.12252011646433,104.12252011646433,104.12252011646433,s,1,0.4779443885163346,104.62248540428209,105.63908718432322,,,,,,,,,,,,,550,2023-05-15_10h45.52.565,eb_02psyexp,2022.2.4,60.003767262769315,
12,0,12,0,,,,,,,,,,,,,,,,,,,,,,,,,,,,,,,,,,,,,,,,,,,,,,,,,,,,,,,,,,105.63908718432322,105.63908718432322,105.63908718432322,105.63908718432322,105.63908718432322,105.63908718432322,l,1,0.5213804960676498,106.18903318424236,107.22230164101074,,,,,,,,,,,,,550,2023-05-15_10h45.52.565,eb_02psyexp,2022.2.4,60.003767262769315,
13,0,13,0,,,,,,,,,,,,,,,,,,,,,,,,,,,,,,,,,,,,,,,,,,,,,,,,,,,,,,,,,,107.22230164101074,107.22230164101074,107.22230164101074,107.22230164101074,107.22230164101074,107.22230164101074,s,1,0.5451435501117885,107.7889245803899,108.80551971984005,,,,,,,,,,,,,550,2023-05-15_10h45.52.565,eb_02psyexp,2022.2.4,60.003767262769315,
14,0,14,0,,,,,,,,,,,,,,,,,,,,,,,,,,,,,,,,,,,,,,,,,,,,,,,,,,,,,,,,,,108.80551971984005,108.80551971984005,108.80551971984005,108.80551971984005,108.80551971984005,108.80551971984005,l,1,0.5299417274500229,109.35547356773077,110.38874142080931,,,,,,,,,,,,,550,2023-05-15_10h45.52.565,eb_02psyexp,2022.2.4,60.003767262769315,
15,0,15,0,,,,,,,,,,,,,,,,,,,,,,,,,,,,,,,,,,,,,,,,,,,,,,,,,,,,,,,,,,110.38874142080931,110.38874142080931,110.38874142080931,110.38874142080931,110.38874142080931,110.38874142080931,s,1,0.5707234095598324,110.98868775275787,112.00528621250305,,,,,,,,,,,,,550,2023-05-15_10h45.52.565,eb_02psyexp,2022.2.4,60.003767262769315,
16,0,16,0,,,,,,,,,,,,,,,,,,,,,,,,,,,,,,,,,,,,,,,,,,,,,,,,,,,,,,,,,,112.00528621250305,112.00528621250305,112.00528621250305,112.00528621250305,112.00528621250305,112.00528621250305,s,1,0.9061958182055605,112.93855098676158,113.9718197453758,,,,,,,,,,,,,550,2023-05-15_10h45.52.565,eb_02psyexp,2022.2.4,60.003767262769315,
17,0,17,0,,,,,,,,,,,,,,,,,,,,,,,,,,,,,,,,,,,,,,,,,,,,,,,,,,,,,,,,,,113.9718197453758,113.9718197453758,113.9718197453758,113.9718197453758,113.9718197453758,113.9718197453758,s,1,0.71566970830645,114.70509134133317,115.72169825273977,,,,,,,,,,,,,550,2023-05-15_10h45.52.565,eb_02psyexp,2022.2.4,60.003767262769315,
18,0,18,0,,,,,,,,,,,,,,,,,,,,,,,,,,,,,,,,,,,,,,,,,,,,,,,,,,,,,,,,,,115.72169825273977,115.72169825273977,115.72169825273977,115.72169825273977,115.72169825273977,115.72169825273977,s,1,0.5418066529937278,116.28830911831665,117.32157878246562,,,,,,,,,,,,,550,2023-05-15_10h45.52.565,eb_02psyexp,2022.2.4,60.003767262769315,
19,0,19,0,,,,,,,,,,,,,,,,,,,,,,,,,,,,,,,,,,,,,,,,,,,,,,,,,,,,,,,,,,117.32157878246562,117.32157878246562,117.32157878246562,117.32157878246562,117.32157878246562,117.32157878246562,s,1,0.6059342392782128,117.95485726049083,118.97149194164285,,,,,,,,,,,,,550,2023-05-15_10h45.52.565,eb_02psyexp,2022.2.4,60.003767262769315,
20,0,20,0,,,,,,,,,,,,,,,,,,,,,,,,,,,,,,,,,,,,,,,,,,,,,,,,,,,,,,,,,,118.97149194164285,118.97149194164285,118.97149194164285,118.97149194164285,118.97149194164285,118.97149194164285,l,1,0.6440316132857333,119.63807057016766,120.67132242545813,,,,,,,,,,,,,550,2023-05-15_10h45.52.565,eb_02psyexp,2022.2.4,60.003767262769315,
21,0,21,0,,,,,,,,,,,,,,,,,,,,,,,,,,,,,,,,,,,,,,,,,,,,,,,,,,,,,,,,,,120.67132242545813,120.67132242545813,120.67132242545813,120.67132242545813,120.67132242545813,120.67132242545813,s,1,0.6642002963790219,121.35461059270892,122.37121871149611,,,,,,,,,,,,,550,2023-05-15_10h45.52.565,eb_02psyexp,2022.2.4,60.003767262769315,
22,0,22,0,,,,,,,,,,,,,,,,,,,,,,,,,,,,,,,,,,,,,,,,,,,,,,,,,,,,,,,,,,122.37121871149611,122.37121871149611,122.37121871149611,122.37121871149611,122.37121871149611,122.37121871149611,l,1,0.5473322286279654,122.9378365195098,123.97109471354634,,,,,,,,,,,,,550,2023-05-15_10h45.52.565,eb_02psyexp,2022.2.4,60.003767262769315,
23,0,23,0,,,,,,,,,,,,,,,,,,,,,,,,,,,,,,,,,,,,,,,,,,,,,,,,,,,,,,,,,,123.97109471354634,123.97109471354634,123.97109471354634,123.97109471354634,123.97109471354634,123.97109471354634,s,1,0.5314530656560237,124.52105671125355,125.53767026325113,,,,,,,,,,,,,550,2023-05-15_10h45.52.565,eb_02psyexp,2022.2.4,60.003767262769315,
24,0,24,0,,,,,,,,,,,,,,,,,,,,,,,,,,,,,,,,,,,,,,,,,,,,,,,,,,,,,,,,,,125.53767026325113,125.53767026325113,125.53767026325113,125.53767026325113,125.53767026325113,125.53767026325113,s,1,0.636870641128553,126.20426307849357,127.23756051238797,,,,,,,,,,,,,550,2023-05-15_10h45.52.565,eb_02psyexp,2022.2.4,60.003767262769315,
25,0,25,0,,,,,,,,,,,,,,,,,,,,,,,,,,,,,,,,,,,,,,,,,,,,,,,,,,,,,,,,,,127.23756051238797,127.23756051238797,127.23756051238797,127.23756051238797,127.23756051238797,127.23756051238797,s,1,0.5530289504085886,127.82082537720089,128.8374268553962,,,,,,,,,,,,,550,2023-05-15_10h45.52.565,eb_02psyexp,2022.2.4,60.003767262769315,
26,0,26,0,,,,,,,,,,,,,,,,,,,,,,,,,,,,,,,,,,,,,,,,,,,,,,,,,,,,,,,,,,128.8374268553962,128.8374268553962,128.8374268553962,128.8374268553962,128.8374268553962,128.8374268553962,l,1,0.3691627498719754,129.23738514040906,130.25399295735133,,,,,,,,,,,,,550,2023-05-15_10h45.52.565,eb_02psyexp,2022.2.4,60.003767262769315,
27,0,27,0,,,,,,,,,,,,,,,,,,,,,,,,,,,,,,,,,,,,,,,,,,,,,,,,,,,,,,,,,,130.25399295735133,130.25399295735133,130.25399295735133,130.25399295735133,130.25399295735133,130.25399295735133,s,1,0.656619759590285,130.9372669378845,131.953874151136,,,,,,,,,,,,,550,2023-05-15_10h45.52.565,eb_02psyexp,2022.2.4,60.003767262769315,
28,0,28,0,,,,,,,,,,,,,,,,,,,,,,,,,,,,,,,,,,,,,,,,,,,,,,,,,,,,,,,,,,131.953874151136,131.953874151136,131.953874151136,131.953874151136,131.953874151136,131.953874151136,l,1,0.49271336536457966,132.4704904197397,133.48709552007585,,,,,,,,,,,,,550,2023-05-15_10h45.52.565,eb_02psyexp,2022.2.4,60.003767262769315,
29,0,29,0,,,,,,,,,,,,,,,,,,,,,,,,,,,,,,,,,,,,,,,,,,,,,,,,,,,,,,,,,,133.48709552007585,133.48709552007585,133.48709552007585,133.48709552007585,133.48709552007585,133.48709552007585,s,1,0.4874817868176251,134.00371601451025,135.03699443216647,,,,,,,,,,,,,550,2023-05-15_10h45.52.565,eb_02psyexp,2022.2.4,60.003767262769315,
30,0,30,0,,,,,,,,,,,,,,,,,,,,,,,,,,,,,,,,,,,,,,,,,,,,,,,,,,,,,,,,,,135.03699443216647,135.03699443216647,135.03699443216647,135.03699443216647,135.03699443216647,135.03699443216647,s,0,0.5216168407478108,135.58693982839486,136.60353526968993,,,,,,,,,,,,,550,2023-05-15_10h45.52.565,eb_02psyexp,2022.2.4,60.003767262769315,
31,0,31,0,,,,,,,,,,,,,,,,,,,,,,,,,,,,,,,,,,,,,,,,,,,,,,,,,,,,,,,,,,136.60353526968993,136.60353526968993,136.60353526968993,136.60353526968993,136.60353526968993,136.60353526968993,l,1,0.6670765779381327,137.3034807564718,138.3367480058605,,,,,,,,,,,,,550,2023-05-15_10h45.52.565,eb_02psyexp,2022.2.4,60.003767262769315,
32,0,32,0,,,,,,,,,,,,,,,,,,,,,,,,,,,,,,,,,,,,,,,,,,,,,,,,,,,,,,,,,,138.3367480058605,138.3367480058605,138.3367480058605,138.3367480058605,138.3367480058605,138.3367480058605,l,1,0.412868405059271,138.77007677127222,139.78665802584874,,,,,,,,,,,,,550,2023-05-15_10h45.52.565,eb_02psyexp,2022.2.4,60.003767262769315,
33,0,33,0,,,,,,,,,,,,,,,,,,,,,,,,,,,,,,,,,,,,,,,,,,,,,,,,,,,,,,,,,,139.78665802584874,139.78665802584874,139.78665802584874,139.78665802584874,139.78665802584874,139.78665802584874,s,1,0.49897936692559597,140.30326674832577,141.33651709439164,,,,,,,,,,,,,550,2023-05-15_10h45.52.565,eb_02psyexp,2022.2.4,60.003767262769315,
34,0,34,0,,,,,,,,,,,,,,,,,,,,,,,,,,,,,,,,,,,,,,,,,,,,,,,,,,,,,,,,,,141.33651709439164,141.33651709439164,141.33651709439164,141.33651709439164,141.33651709439164,141.33651709439164,s,1,0.5651284095629308,141.91982059537168,142.93642297910264,,,,,,,,,,,,,550,2023-05-15_10h45.52.565,eb_02psyexp,2022.2.4,60.003767262769315,
35,0,35,0,,,,,,,,,,,,,,,,,,,,,,,,,,,,,,,,,,,,,,,,,,,,,,,,,,,,,,,,,,142.93642297910264,142.93642297910264,142.93642297910264,142.93642297910264,142.93642297910264,142.93642297910264,s,1,0.50123384766448,143.46970773550402,144.50297498489272,,,,,,,,,,,,,550,2023-05-15_10h45.52.565,eb_02psyexp,2022.2.4,60.003767262769315,
36,0,36,0,,,,,,,,,,,,,,,,,,,,,,,,,,,,,,,,,,,,,,,,,,,,,,,,,,,,,,,,,,144.50297498489272,144.50297498489272,144.50297498489272,144.50297498489272,144.50297498489272,144.50297498489272,l,1,0.6387173291932413,145.16957413888122,146.18586833880818,,,,,,,,,,,,,550,2023-05-15_10h45.52.565,eb_02psyexp,2022.2.4,60.003767262769315,
37,0,37,0,,,,,,,,,,,,,,,,,,,,,,,,,,,,,,,,,,,,,,,,,,,,,,,,,,,,,,,,,,146.18586833880818,146.18586833880818,146.18586833880818,146.18586833880818,146.18586833880818,146.18586833880818,l,1,0.5798059273593026,146.78615002061633,147.81940942203346,,,,,,,,,,,,,550,2023-05-15_10h45.52.565,eb_02psyexp,2022.2.4,60.003767262769315,
38,0,38,0,,,,,,,,,,,,,,,,,,,,,,,,,,,,,,,,,,,,,,,,,,,,,,,,,,,,,,,,,,147.81940942203346,147.81940942203346,147.81940942203346,147.81940942203346,147.81940942203346,147.81940942203346,s,1,0.5942775868243189,148.43602243071018,149.4526269273565,,,,,,,,,,,,,550,2023-05-15_10h45.52.565,eb_02psyexp,2022.2.4,60.003767262769315,
39,0,39,0,,,,,,,,,,,,,,,,,,,,,,,,,,,,,,,,,,,,,,,,,,,,,,,,,,,,,,,,,,149.4526269273565,149.4526269273565,149.4526269273565,149.4526269273565,149.4526269273565,149.4526269273565,s,1,1.8491030328459601,151.3191594943255,152.3523733171387,,,,,,,,,,,,,550,2023-05-15_10h45.52.565,eb_02psyexp,2022.2.4,60.003767262769315,
40,0,40,0,,,,,,,,,,,,,,,,,,,,,,,,,,,,,,,,,,,,,,,,,,,,,,,,,,,,,,,,,,152.3523733171387,152.3523733171387,152.3523733171387,152.3523733171387,152.3523733171387,152.3523733171387,s,1,0.509367666444632,152.88571572594628,153.90232746687434,,,,,,,,,,,,,550,2023-05-15_10h45.52.565,eb_02psyexp,2022.2.4,60.003767262769315,
41,0,41,0,,,,,,,,,,,,,,,,,,,,,,,,,,,,,,,,,,,,,,,,,,,,,,,,,,,,,,,,,,153.90232746687434,153.90232746687434,153.90232746687434,153.90232746687434,153.90232746687434,153.90232746687434,l,1,0.5263844834398697,154.45226380775148,155.4855313589851,,,,,,,,,,,,,550,2023-05-15_10h45.52.565,eb_02psyexp,2022.2.4,60.003767262769315,
42,0,42,0,,,,,,,,,,,,,,,,,,,,,,,,,,,,,,,,,,,,,,,,,,,,,,,,,,,,,,,,,,155.4855313589851,155.4855313589851,155.4855313589851,155.4855313589851,155.4855313589851,155.4855313589851,l,1,0.7111951571650934,156.21879842726685,157.23540564051837,,,,,,,,,,,,,550,2023-05-15_10h45.52.565,eb_02psyexp,2022.2.4,60.003767262769315,
43,0,43,0,,,,,,,,,,,,,,,,,,,,,,,,,,,,,,,,,,,,,,,,,,,,,,,,,,,,,,,,,,157.23540564051837,157.23540564051837,157.23540564051837,157.23540564051837,157.23540564051837,157.23540564051837,l,1,0.649330201435987,157.9020201886051,158.93528049555698,,,,,,,,,,,,,550,2023-05-15_10h45.52.565,eb_02psyexp,2022.2.4,60.003767262769315,
44,0,44,0,,,,,,,,,,,,,,,,,,,,,,,,,,,,,,,,,,,,,,,,,,,,,,,,,,,,,,,,,,158.93528049555698,158.93528049555698,158.93528049555698,158.93528049555698,158.93528049555698,158.93528049555698,l,1,0.5414649643889788,159.50190524600657,160.5185055168222,,,,,,,,,,,,,550,2023-05-15_10h45.52.565,eb_02psyexp,2022.2.4,60.003767262769315,
45,0,45,0,,,,,,,,,,,,,,,,,,,,,,,,,,,,,,,,,,,,,,,,,,,,,,,,,,,,,,,,,,160.5185055168222,160.5185055168222,160.5185055168222,160.5185055168222,160.5185055168222,160.5185055168222,l,1,0.5342532822596695,161.08512875804627,162.1183854428582,,,,,,,,,,,,,550,2023-05-15_10h45.52.565,eb_02psyexp,2022.2.4,60.003767262769315,
46,0,46,0,,,,,,,,,,,,,,,,,,,,,,,,,,,,,,,,,,,,,,,,,,,,,,,,,,,,,,,,,,162.1183854428582,162.1183854428582,162.1183854428582,162.1183854428582,162.1183854428582,162.1183854428582,l,1,0.6703742351974142,162.8183408905279,163.8349520277652,,,,,,,,,,,,,550,2023-05-15_10h45.52.565,eb_02psyexp,2022.2.4,60.003767262769315,
47,0,47,0,,,,,,,,,,,,,,,,,,,,,,,,,,,,,,,,,,,,,,,,,,,,,,,,,,,,,,,,,,163.8349520277652,163.8349520277652,163.8349520277652,163.8349520277652,163.8349520277652,163.8349520277652,l,1,0.6098250220766204,164.4682166209168,165.48483138029496,,,,,,,,,,,,,550,2023-05-15_10h45.52.565,eb_02psyexp,2022.2.4,60.003767262769315,
48,0,48,0,,,,,,,,,,,,,,,,,,,,,,,,,,,,,,,,,,,,,,,,,,,,,,,,,,,,,,,,,,165.48483138029496,165.48483138029496,165.48483138029496,165.48483138029496,165.48483138029496,165.48483138029496,s,1,0.4959337502896233,166.00144734705373,167.03471459644243,,,,,,,,,,,,,550,2023-05-15_10h45.52.565,eb_02psyexp,2022.2.4,60.003767262769315,
49,0,49,0,,,,,,,,,,,,,,,,,,,,,,,,,,,,,,,,,,,,,,,,,,,,,,,,,,,,,,,,,,167.03471459644243,167.03471459644243,167.03471459644243,167.03471459644243,167.03471459644243,167.03471459644243,l,1,0.5460614609337426,167.60133421552564,168.61793841032704,,,,,,,,,,,,,550,2023-05-15_10h45.52.565,eb_02psyexp,2022.2.4,60.003767262769315,
50,0,50,0,,,,,,,,,,,,,,,,,,,,,,,,,,,,,,,,,,,,,,,,,,,,,,,,,,,,,,,,,,168.61793841032704,168.61793841032704,168.61793841032704,168.61793841032704,168.61793841032704,168.61793841032704,s,1,0.506863257997793,169.1512352405316,170.18448951058235,,,,,,,,,,,,,550,2023-05-15_10h45.52.565,eb_02psyexp,2022.2.4,60.003767262769315,
51,0,51,0,,,,,,,,,,,,,,,,,,,,,,,,,,,,,,,,,,,,,,,,,,,,,,,,,,,,,,,,,,170.18448951058235,170.18448951058235,170.18448951058235,170.18448951058235,170.18448951058235,170.18448951058235,l,1,0.46730193545772636,170.6844490633448,171.7010517489207,,,,,,,,,,,,,550,2023-05-15_10h45.52.565,eb_02psyexp,2022.2.4,60.003767262769315,
52,0,52,0,,,,,,,,,,,,,,,,,,,,,,,,,,,,,,,,,,,,,,,,,,,,,,,,,,,,,,,,,,171.7010517489207,171.7010517489207,171.7010517489207,171.7010517489207,171.7010517489207,171.7010517489207,l,1,0.48674468118588265,172.21767345073476,173.2343066226622,,,,,,,,,,,,,550,2023-05-15_10h45.52.565,eb_02psyexp,2022.2.4,60.003767262769315,
53,0,53,0,,,,,,,,,,,,,,,,,,,,,,,,,,,,,,,,,,,,,,,,,,,,,,,,,,,,,,,,,,173.2343066226622,173.2343066226622,173.2343066226622,173.2343066226622,173.2343066226622,173.2343066226622,s,1,0.44952356338035315,173.70089931716666,174.71750471934774,,,,,,,,,,,,,550,2023-05-15_10h45.52.565,eb_02psyexp,2022.2.4,60.003767262769315,
54,0,54,0,,,,,,,,,,,,,,,,,,,,,,,,,,,,,,,,,,,,,,,,,,,,,,,,,,,,,,,,,,174.71750471934774,174.71750471934774,174.71750471934774,174.71750471934774,174.71750471934774,174.71750471934774,l,1,0.6143315687950235,175.35079376194972,176.3840540689016,,,,,,,,,,,,,550,2023-05-15_10h45.52.565,eb_02psyexp,2022.2.4,60.003767262769315,
55,0,55,0,,,,,,,,,,,,,,,,,,,,,,,,,,,,,,,,,,,,,,,,,,,,,,,,,,,,,,,,,,176.3840540689016,176.3840540689016,176.3840540689016,176.3840540689016,176.3840540689016,176.3840540689016,s,1,0.5557899271561837,176.96732738537594,177.98393580600805,,,,,,,,,,,,,550,2023-05-15_10h45.52.565,eb_02psyexp,2022.2.4,60.003767262769315,
56,0,56,0,,,,,,,,,,,,,,,,,,,,,,,,,,,,,,,,,,,,,,,,,,,,,,,,,,,,,,,,,,177.98393580600805,177.98393580600805,177.98393580600805,177.98393580600805,177.98393580600805,177.98393580600805,l,1,0.4839203169767643,178.50056203549866,179.53384981035106,,,,,,,,,,,,,550,2023-05-15_10h45.52.565,eb_02psyexp,2022.2.4,60.003767262769315,
57,0,57,0,,,,,,,,,,,,,,,,,,,,,,,,,,,,,,,,,,,,,,,,,,,,,,,,,,,,,,,,,,179.53384981035106,179.53384981035106,179.53384981035106,179.53384981035106,179.53384981035106,179.53384981035106,l,1,0.6380067859263363,180.20043749422712,181.21704893331025,,,,,,,,,,,,,550,2023-05-15_10h45.52.565,eb_02psyexp,2022.2.4,60.003767262769315,
58,0,58,0,,,,,,,,,,,,,,,,,,,,,,,,,,,,,,,,,,,,,,,,,,,,,,,,,,,,,,,,,,181.21704893331025,181.21704893331025,181.21704893331025,181.21704893331025,181.21704893331025,181.21704893331025,l,1,0.44282139571078005,181.68366637910913,182.7168892572745,,,,,,,,,,,,,550,2023-05-15_10h45.52.565,eb_02psyexp,2022.2.4,60.003767262769315,
59,0,59,0,,,,,,,,,,,,,,,,,,,,,,,,,,,,,,,,,,,,,,,,,,,,,,,,,,,,,,,,,,182.7168892572745,182.7168892572745,182.7168892572745,182.7168892572745,182.7168892572745,182.7168892572745,s,1,0.39098886417832546,183.13357066404114,184.15018029205385,,,,,,,,,,,,,550,2023-05-15_10h45.52.565,eb_02psyexp,2022.2.4,60.003767262769315,
60,0,60,0,,,,,,,,,,,,,,,,,,,,,,,,,,,,,,,,,,,,,,,,,,,,,,,,,,,,,,,,,,184.15018029205385,184.15018029205385,184.15018029205385,184.15018029205385,184.15018029205385,184.15018029205385,l,1,0.5007406328395518,184.68345720048364,185.71672143142223,,,,,,,,,,,,,550,2023-05-15_10h45.52.565,eb_02psyexp,2022.2.4,60.003767262769315,
61,0,61,0,,,,,,,,,,,,,,,,,,,,,,,,,,,,,,,,,,,,,,,,,,,,,,,,,,,,,,,,,,185.71672143142223,185.71672143142223,185.71672143142223,185.71672143142223,185.71672143142223,185.71672143142223,s,1,0.5502417131428956,186.30001346228983,187.3166309382732,,,,,,,,,,,,,550,2023-05-15_10h45.52.565,eb_02psyexp,2022.2.4,60.003767262769315,
62,0,62,0,,,,,,,,,,,,,,,,,,,,,,,,,,,,,,,,,,,,,,,,,,,,,,,,,,,,,,,,,,187.3166309382732,187.3166309382732,187.3166309382732,187.3166309382732,187.3166309382732,187.3166309382732,s,1,0.5263060037259493,187.86656848653092,188.89983090639907,,,,,,,,,,,,,550,2023-05-15_10h45.52.565,eb_02psyexp,2022.2.4,60.003767262769315,
63,0,63,0,,,,,,,,,,,,,,,,,,,,,,,,,,,,,,,,,,,,,,,,,,,,,,,,,,,,,,,,,,188.89983090639907,188.89983090639907,188.89983090639907,188.89983090639907,188.89983090639907,188.89983090639907,s,1,0.47106051012087846,189.39978925178093,190.4164341956648,,,,,,,,,,,,,550,2023-05-15_10h45.52.565,eb_02psyexp,2022.2.4,60.003767262769315,
64,0,64,0,,,,,,,,,,,,,,,,,,,,,,,,,,,,,,,,,,,,,,,,,,,,,,,,,,,,,,,,,,190.4164341956648,190.4164341956648,190.4164341956648,190.4164341956648,190.4164341956648,190.4164341956648,l,1,0.4984713616931913,190.93302148714247,191.96628119040452,,,,,,,,,,,,,550,2023-05-15_10h45.52.565,eb_02psyexp,2022.2.4,60.003767262769315,
65,0,65,0,,,,,,,,,,,,,,,,,,,,,,,,,,,,,,,,,,,,,,,,,,,,,,,,,,,,,,,,,,191.96628119040452,191.96628119040452,191.96628119040452,191.96628119040452,191.96628119040452,191.96628119040452,l,1,0.5326426370302215,192.51623775490043,193.53286126778585,,,,,,,,,,,,,550,2023-05-15_10h45.52.565,eb_02psyexp,2022.2.4,60.003767262769315,
66,0,66,0,,,,,,,,,,,,,,,,,,,,,,,,,,,,,,,,,,,,,,,,,,,,,,,,,,,,,,,,,,193.53286126778585,193.53286126778585,193.53286126778585,193.53286126778585,193.53286126778585,193.53286126778585,l,1,0.6060688621737427,194.1661119760647,195.1994091081142,,,,,,,,,,,,,550,2023-05-15_10h45.52.565,eb_02psyexp,2022.2.4,60.003767262769315,
67,0,67,0,,,,,,,,,,,,,,,,,,,,,,,,,,,,,,,,,,,,,,,,,,,,,,,,,,,,,,,,,,195.1994091081142,195.1994091081142,195.1994091081142,195.1994091081142,195.1994091081142,195.1994091081142,s,1,0.41154089049450704,195.63268384326057,196.64928954728657,,,,,,,,,,,,,550,2023-05-15_10h45.52.565,eb_02psyexp,2022.2.4,60.003767262769315,
68,0,68,0,,,,,,,,,,,,,,,,,,,,,,,,,,,,,,,,,,,,,,,,,,,,,,,,,,,,,,,,,,196.64928954728657,196.64928954728657,196.64928954728657,196.64928954728657,196.64928954728657,196.64928954728657,l,1,0.4576525526399564,197.13258634730664,198.16585088009015,,,,,,,,,,,,,550,2023-05-15_10h45.52.565,eb_02psyexp,2022.2.4,60.003767262769315,
69,0,69,0,,,,,,,,,,,,,,,,,,,,,,,,,,,,,,,,,,,,,,,,,,,,,,,,,,,,,,,,,,198.16585088009015,198.16585088009015,198.16585088009015,198.16585088009015,198.16585088009015,198.16585088009015,l,1,0.4611159228370525,198.6491407376734,199.66575519520666,,,,,,,,,,,,,550,2023-05-15_10h45.52.565,eb_02psyexp,2022.2.4,60.003767262769315,
70,0,70,0,,,,,,,,,,,,,,,,,,,,,,,,,,,,,,,,,,,,,,,,,,,,,,,,,,,,,,,,,,199.66575519520666,199.66575519520666,199.66575519520666,199.66575519520666,199.66575519520666,199.66575519520666,l,1,0.4652062252198448,200.14904384540932,201.18230173760185,,,,,,,,,,,,,550,2023-05-15_10h45.52.565,eb_02psyexp,2022.2.4,60.003767262769315,
71,0,71,0,,,,,,,,,,,,,,,,,,,,,,,,,,,,,,,,,,,,,,,,,,,,,,,,,,,,,,,,,,201.18230173760185,201.18230173760185,201.18230173760185,201.18230173760185,201.18230173760185,201.18230173760185,l,1,0.4917118434614167,201.69893732428864,202.71553759510425,,,,,,,,,,,,,550,2023-05-15_10h45.52.565,eb_02psyexp,2022.2.4,60.003767262769315,
72,0,72,0,,,,,,,,,,,,,,,,,,,,,,,,,,,,,,,,,,,,,,,,,,,,,,,,,,,,,,,,,,202.71553759510425,202.71553759510425,202.71553759510425,202.71553759510425,202.71553759510425,202.71553759510425,s,1,0.3664392019127263,203.09883071261447,204.13209464170723,,,,,,,,,,,,,550,2023-05-15_10h45.52.565,eb_02psyexp,2022.2.4,60.003767262769315,
73,0,73,0,,,,,,,,,,,,,,,,,,,,,,,,,,,,,,,,,,,,,,,,,,,,,,,,,,,,,,,,,,204.13209464170723,204.13209464170723,204.13209464170723,204.13209464170723,204.13209464170723,204.13209464170723,s,1,0.333910567381281,204.49873617474168,205.51533855847265,,,,,,,,,,,,,550,2023-05-15_10h45.52.565,eb_02psyexp,2022.2.4,60.003767262769315,
74,0,74,0,,,,,,,,,,,,,,,,,,,,,,,,,,,,,,,,,,,,,,,,,,,,,,,,,,,,,,,,,,205.51533855847265,205.51533855847265,205.51533855847265,205.51533855847265,205.51533855847265,205.51533855847265,s,1,0.7906537557946649,206.33193991592998,207.36520656162884,,,,,,,,,,,,,550,2023-05-15_10h45.52.565,eb_02psyexp,2022.2.4,60.003767262769315,
75,0,75,0,,,,,,,,,,,,,,,,,,,,,,,,,,,,,,,,,,,,,,,,,,,,,,,,,,,,,,,,,,207.36520656162884,207.36520656162884,207.36520656162884,207.36520656162884,207.36520656162884,207.36520656162884,s,1,0.45280884499334206,207.84849068415588,208.86511872471692,,,,,,,,,,,,,550,2023-05-15_10h45.52.565,eb_02psyexp,2022.2.4,60.003767262769315,
76,0,76,0,,,,,,,,,,,,,,,,,,,,,,,,,,,,,,,,,,,,,,,,,,,,,,,,,,,,,,,,,,208.86511872471692,208.86511872471692,208.86511872471692,208.86511872471692,208.86511872471692,208.86511872471692,l,1,0.24091150128970185,209.13173816269318,210.1650002807164,,,,,,,,,,,,,550,2023-05-15_10h45.52.565,eb_02psyexp,2022.2.4,60.003767262769315,
77,0,77,0,,,,,,,,,,,,,,,,,,,,,,,,,,,,,,,,,,,,,,,,,,,,,,,,,,,,,,,,,,210.1650002807164,210.1650002807164,210.1650002807164,210.1650002807164,210.1650002807164,210.1650002807164,s,1,0.4370283853550063,210.63163312061351,211.64825602980818,,,,,,,,,,,,,550,2023-05-15_10h45.52.565,eb_02psyexp,2022.2.4,60.003767262769315,
78,0,78,0,,,,,,,,,,,,,,,,,,,,,,,,,,,,,,,,,,,,,,,,,,,,,,,,,,,,,,,,,,211.64825602980818,211.64825602980818,211.64825602980818,211.64825602980818,211.64825602980818,211.64825602980818,l,1,0.3697637233826754,212.04820224101877,213.08150359889896,,,,,,,,,,,,,550,2023-05-15_10h45.52.565,eb_02psyexp,2022.2.4,60.003767262769315,
79,0,79,0,,,,,,,,,,,,,,,,,,,,,,,,,,,,,,,,,,,,,,,,,,,,,,,,,,,,,,,,,,213.08150359889896,213.08150359889896,213.08150359889896,213.08150359889896,213.08150359889896,213.08150359889896,s,1,0.5045327123043535,213.61476239662625,214.6313714209482,,,,,,,,,,,,,550,2023-05-15_10h45.52.565,eb_02psyexp,2022.2.4,60.003767262769315,
80,0,80,0,,,,,,,,,,,,,,,,,,,,,,,,,,,,,,,,,,,,,,,,,,,,,,,,,,,,,,,,,,214.6313714209482,214.6313714209482,214.6313714209482,214.6313714209482,214.6313714209482,214.6313714209482,l,1,0.6666841793621643,215.31463755350978,216.34790601027908,,,,,,,,,,,,,550,2023-05-15_10h45.52.565,eb_02psyexp,2022.2.4,60.003767262769315,
81,0,81,0,,,,,,,,,,,,,,,,,,,,,,,,,,,,,,,,,,,,,,,,,,,,,,,,,,,,,,,,,,216.34790601027908,216.34790601027908,216.34790601027908,216.34790601027908,216.34790601027908,216.34790601027908,l,0,1.0771665941711035,217.4477835215539,218.48109423663118,,,,,,,,,,,,,550,2023-05-15_10h45.52.565,eb_02psyexp,2022.2.4,60.003767262769315,
82,0,82,0,,,,,,,,,,,,,,,,,,,,,,,,,,,,,,,,,,,,,,,,,,,,,,,,,,,,,,,,,,218.48109423663118,218.48109423663118,218.48109423663118,218.48109423663118,218.48109423663118,218.48109423663118,s,1,1.103966511344879,219.61434253014977,220.647604648173,,,,,,,,,,,,,550,2023-05-15_10h45.52.565,eb_02psyexp,2022.2.4,60.003767262769315,
83,0,83,0,,,,,,,,,,,,,,,,,,,,,,,,,,,,,,,,,,,,,,,,,,,,,,,,,,,,,,,,,,220.647604648173,220.647604648173,220.647604648173,220.647604648173,220.647604648173,220.647604648173,l,1,0.6175036585100315,221.29755553798168,222.31415490326162,,,,,,,,,,,,,550,2023-05-15_10h45.52.565,eb_02psyexp,2022.2.4,60.003767262769315,
84,0,84,0,,,,,,,,,,,,,,,,,,,,,,,,,,,,,,,,,,,,,,,,,,,,,,,,,,,,,,,,,,222.31415490326162,222.31415490326162,222.31415490326162,222.31415490326162,222.31415490326162,222.31415490326162,s,0,0.8949529953260935,223.23074907680711,224.24704599333927,,,,,,,,,,,,,550,2023-05-15_10h45.52.565,eb_02psyexp,2022.2.4,60.003767262769315,
85,0,85,0,,,,,,,,,,,,,,,,,,,,,,,,,,,,,,,,,,,,,,,,,,,,,,,,,,,,,,,,,,224.24704599333927,224.24704599333927,224.24704599333927,224.24704599333927,224.24704599333927,224.24704599333927,s,1,1.7380614802514174,226.01388608005345,227.04716178110357,,,,,,,,,,,,,550,2023-05-15_10h45.52.565,eb_02psyexp,2022.2.4,60.003767262769315,
86,0,86,0,,,,,,,,,,,,,,,,,,,,,,,,,,,,,,,,,,,,,,,,,,,,,,,,,,,,,,,,,,227.04716178110357,227.04716178110357,227.04716178110357,227.04716178110357,227.04716178110357,227.04716178110357,s,1,0.8819772799679413,227.9470865613148,228.98035592361884,,,,,,,,,,,,,550,2023-05-15_10h45.52.565,eb_02psyexp,2022.2.4,60.003767262769315,
87,0,87,0,,,,,,,,,,,,,,,,,,,,,,,,,,,,,,,,,,,,,,,,,,,,,,,,,,,,,,,,,,228.98035592361884,228.98035592361884,228.98035592361884,228.98035592361884,228.98035592361884,228.98035592361884,l,1,0.69278170308462,229.69696355945416,230.73023201622254,,,,,,,,,,,,,550,2023-05-15_10h45.52.565,eb_02psyexp,2022.2.4,60.003767262769315,
88,0,88,0,,,,,,,,,,,,,,,,,,,,,,,,,,,,,,,,,,,,,,,,,,,,,,,,,,,,,,,,,,230.73023201622254,230.73023201622254,230.73023201622254,230.73023201622254,230.73023201622254,230.73023201622254,s,1,0.6469124225204723,231.39684354585825,232.41346705874366,,,,,,,,,,,,,550,2023-05-15_10h45.52.565,eb_02psyexp,2022.2.4,60.003767262769315,
89,0,89,0,,,,,,,,,,,,,,,,,,,,,,,,,,,,,,,,,,,,,,,,,,,,,,,,,,,,,,,,,,232.41346705874366,232.41346705874366,232.41346705874366,232.41346705874366,232.41346705874366,232.41346705874366,l,1,0.6666905181082257,233.09672624886934,234.12999349825805,,,,,,,,,,,,,550,2023-05-15_10h45.52.565,eb_02psyexp,2022.2.4,60.003767262769315,
90,0,90,0,,,,,,,,,,,,,,,,,,,,,,,,,,,,,,,,,,,,,,,,,,,,,,,,,,,,,,,,,,234.12999349825805,234.12999349825805,234.12999349825805,234.12999349825805,234.12999349825805,234.12999349825805,s,1,0.8701751381968279,235.02988235890734,236.0465517522407,,,,,,,,,,,,,550,2023-05-15_10h45.52.565,eb_02psyexp,2022.2.4,60.003767262769315,
91,0,91,0,,,,,,,,,,,,,,,,,,,,,,,,,,,,,,,,,,,,,,,,,,,,,,,,,,,,,,,,,,236.0465517522407,236.0465517522407,236.0465517522407,236.0465517522407,236.0465517522407,236.0465517522407,l,1,0.5616303271854122,236.6298123912229,237.64639153288408,,,,,,,,,,,,,550,2023-05-15_10h45.52.565,eb_02psyexp,2022.2.4,60.003767262769315,
92,0,92,0,,,,,,,,,,,,,,,,,,,,,,,,,,,,,,,,,,,,,,,,,,,,,,,,,,,,,,,,,,237.64639153288408,237.64639153288408,237.64639153288408,237.64639153288408,237.64639153288408,237.64639153288408,s,1,0.8498018041545947,238.513011936765,239.5462861285896,,,,,,,,,,,,,550,2023-05-15_10h45.52.565,eb_02psyexp,2022.2.4,60.003767262769315,
93,0,93,0,,,,,,,,,,,,,,,,,,,,,,,,,,,,,,,,,,,,,,,,,,,,,,,,,,,,,,,,,,239.5462861285896,239.5462861285896,239.5462861285896,239.5462861285896,239.5462861285896,239.5462861285896,s,1,0.7018989330654222,240.2795468581253,241.2961661451791,,,,,,,,,,,,,550,2023-05-15_10h45.52.565,eb_02psyexp,2022.2.4,60.003767262769315,
94,0,94,0,,,,,,,,,,,,,,,,,,,,,,,,,,,,,,,,,,,,,,,,,,,,,,,,,,,,,,,,,,241.2961661451791,241.2961661451791,241.2961661451791,241.2961661451791,241.2961661451791,241.2961661451791,l,1,0.8240477801082307,242.1460972339528,243.16273402802017,,,,,,,,,,,,,550,2023-05-15_10h45.52.565,eb_02psyexp,2022.2.4,60.003767262769315,
95,0,95,0,,,,,,,,,,,,,,,,,,,,,,,,,,,,,,,,,,,,,,,,,,,,,,,,,,,,,,,,,,243.16273402802017,243.16273402802017,243.16273402802017,243.16273402802017,243.16273402802017,243.16273402802017,s,1,0.6934892279014093,243.8793063479825,244.89559209624804,,,,,,,,,,,,,550,2023-05-15_10h45.52.565,eb_02psyexp,2022.2.4,60.003767262769315,
96,0,96,0,,,,,,,,,,,,,,,,,,,,,,,,,,,,,,,,,,,,,,,,,,,,,,,,,,,,,,,,,,244.89559209624804,244.89559209624804,244.89559209624804,244.89559209624804,244.89559209624804,244.89559209624804,l,1,0.5366351416141697,245.46251869175558,246.47914401571052,,,,,,,,,,,,,550,2023-05-15_10h45.52.565,eb_02psyexp,2022.2.4,60.003767262769315,
97,0,97,0,,,,,,,,,,,,,,,,,,,,,,,,,,,,,,,,,,,,,,,,,,,,,,,,,,,,,,,,,,246.47914401571052,246.47914401571052,246.47914401571052,246.47914401571052,246.47914401571052,246.47914401571052,l,1,1.1520984224644053,247.66237543609077,248.6956553629716,,,,,,,,,,,,,550,2023-05-15_10h45.52.565,eb_02psyexp,2022.2.4,60.003767262769315,
98,0,98,0,,,,,,,,,,,,,,,,,,,,,,,,,,,,,,,,,,,,,,,,,,,,,,,,,,,,,,,,,,248.6956553629716,248.6956553629716,248.6956553629716,248.6956553629716,248.6956553629716,248.6956553629716,s,1,0.4635838080321264,249.17893103383722,250.19554609506122,,,,,,,,,,,,,550,2023-05-15_10h45.52.565,eb_02psyexp,2022.2.4,60.003767262769315,
99,0,99,0,,,,,,,,,,,,,,,,,,,,,,,,,,,,,,,,,,,,,,,,,,,,,,,,,,,,,,,,,,250.19554609506122,250.19554609506122,250.19554609506122,250.19554609506122,250.19554609506122,250.19554609506122,l,1,0.6676935492359917,250.89548192280108,251.92877150872482,,,,,,,,,,,,,550,2023-05-15_10h45.52.565,eb_02psyexp,2022.2.4,60.003767262769315,
100,0,100,0,,,,,,,,,,,,,,,,,,,,,,,,,,,,,,,,,,,,,,,,,,,,,,,,,,,,,,,,,,251.92877150872482,251.92877150872482,251.92877150872482,251.92877150872482,251.92877150872482,251.92877150872482,s,1,0.5185005923676727,252.47872173447468,253.49530238536136,,,,,,,,,,,,,550,2023-05-15_10h45.52.565,eb_02psyexp,2022.2.4,60.003767262769315,
101,0,101,0,,,,,,,,,,,,,,,,,,,,,,,,,,,,,,,,,,,,,,,,,,,,,,,,,,,,,,,,,,253.49530238536136,253.49530238536136,253.49530238536136,253.49530238536136,253.49530238536136,253.49530238536136,s,1,0.511977116972048,254.02858744360765,255.06186284281284,,,,,,,,,,,,,550,2023-05-15_10h45.52.565,eb_02psyexp,2022.2.4,60.003767262769315,
102,0,102,0,,,,,,,,,,,,,,,,,,,,,,,,,,,,,,,,,,,,,,,,,,,,,,,,,,,,,,,,,,255.06186284281284,255.06186284281284,255.06186284281284,255.06186284281284,255.06186284281284,255.06186284281284,s,1,0.4974266759463717,255.5784869593881,256.59509055049875,,,,,,,,,,,,,550,2023-05-15_10h45.52.565,eb_02psyexp,2022.2.4,60.003767262769315,
103,0,103,0,,,,,,,,,,,,,,,,,,,,,,,,,,,,,,,,,,,,,,,,,,,,,,,,,,,,,,,,,,256.59509055049875,256.59509055049875,256.59509055049875,256.59509055049875,256.59509055049875,256.59509055049875,s,1,0.45220304196118377,257.0783813136177,258.11164645009103,,,,,,,,,,,,,550,2023-05-15_10h45.52.565,eb_02psyexp,2022.2.4,60.003767262769315,
104,0,104,0,,,,,,,,,,,,,,,,,,,,,,,,,,,,,,,,,,,,,,,,,,,,,,,,,,,,,,,,,,258.11164645009103,258.11164645009103,258.11164645009103,258.11164645009103,258.11164645009103,258.11164645009103,l,1,0.6236422814572506,258.7615985472803,259.77820455315214,,,,,,,,,,,,,550,2023-05-15_10h45.52.565,eb_02psyexp,2022.2.4,60.003767262769315,
105,0,105,0,,,,,,,,,,,,,,,,,,,,,,,,,,,,,,,,,,,,,,,,,,,,,,,,,,,,,,,,,,259.77820455315214,259.77820455315214,259.77820455315214,259.77820455315214,259.77820455315214,259.77820455315214,s,1,0.5491119070902641,260.3448265869956,261.36142987626226,,,,,,,,,,,,,550,2023-05-15_10h45.52.565,eb_02psyexp,2022.2.4,60.003767262769315,
106,0,106,0,,,,,,,,,,,,,,,,,,,,,,,,,,,,,,,,,,,,,,,,,,,,,,,,,,,,,,,,,,261.36142987626226,261.36142987626226,261.36142987626226,261.36142987626226,261.36142987626226,261.36142987626226,l,1,0.50189096435588,261.8947357618181,262.91132426067634,,,,,,,,,,,,,550,2023-05-15_10h45.52.565,eb_02psyexp,2022.2.4,60.003767262769315,
107,0,107,0,,,,,,,,,,,,,,,,,,,,,,,,,,,,,,,,,,,,,,,,,,,,,,,,,,,,,,,,,,262.91132426067634,262.91132426067634,262.91132426067634,262.91132426067634,262.91132426067634,262.91132426067634,s,1,0.9510074336867547,263.89457246364145,264.91117635659793,,,,,,,,,,,,,550,2023-05-15_10h45.52.565,eb_02psyexp,2022.2.4,60.003767262769315,
108,0,108,0,,,,,,,,,,,,,,,,,,,,,,,,,,,,,,,,,,,,,,,,,,,,,,,,,,,,,,,,,,264.91117635659793,264.91117635659793,264.91117635659793,264.91117635659793,264.91117635659793,264.91117635659793,l,1,0.5191474463272243,265.46112748788255,266.4943992649469,,,,,,,,,,,,,550,2023-05-15_10h45.52.565,eb_02psyexp,2022.2.4,60.003767262769315,
109,0,109,0,,,,,,,,,,,,,,,,,,,,,,,,,,,,,,,,,,,,,,,,,,,,,,,,,,,,,,,,,,266.4943992649469,266.4943992649469,266.4943992649469,266.4943992649469,266.4943992649469,266.4943992649469,l,1,0.5039510568776677,267.02767556968774,268.0442957622763,,,,,,,,,,,,,550,2023-05-15_10h45.52.565,eb_02psyexp,2022.2.4,60.003767262769315,
110,0,110,0,,,,,,,,,,,,,,,,,,,,,,,,,,,,,,,,,,,,,,,,,,,,,,,,,,,,,,,,,,268.0442957622763,268.0442957622763,268.0442957622763,268.0442957622763,268.0442957622763,268.0442957622763,l,1,3.3060762271934436,271.37738510418785,272.4106514480418,,,,,,,,,,,,,550,2023-05-15_10h45.52.565,eb_02psyexp,2022.2.4,60.003767262769315,
111,0,111,0,,,,,,,,,,,,,,,,,,,,,,,,,,,,,,,,,,,,,,,,,,,,,,,,,,,,,,,,,,272.4106514480418,272.4106514480418,272.4106514480418,272.4106514480418,272.4106514480418,272.4106514480418,s,1,0.8117385386385649,273.24391344532614,274.26052156411333,,,,,,,,,,,,,550,2023-05-15_10h45.52.565,eb_02psyexp,2022.2.4,60.003767262769315,
112,0,112,0,,,,,,,,,,,,,,,,,,,,,,,,,,,,,,,,,,,,,,,,,,,,,,,,,,,,,,,,,,274.26052156411333,274.26052156411333,274.26052156411333,274.26052156411333,274.26052156411333,274.26052156411333,s,1,0.6898785573166606,274.9771270870324,276.0104082212938,,,,,,,,,,,,,550,2023-05-15_10h45.52.565,eb_02psyexp,2022.2.4,60.003767262769315,
113,0,113,0,,,,,,,,,,,,,,,,,,,,,,,,,,,,,,,,,,,,,,,,,,,,,,,,,,,,,,,,,,276.0104082212938,276.0104082212938,276.0104082212938,276.0104082212938,276.0104082212938,276.0104082212938,s,1,0.8039959110528798,276.84366478536685,277.8602753189143,,,,,,,,,,,,,550,2023-05-15_10h45.52.565,eb_02psyexp,2022.2.4,60.003767262769315,
114,0,114,0,,,,,,,,,,,,,,,,,,,,,,,,,,,,,,,,,,,,,,,,,,,,,,,,,,,,,,,,,,277.8602753189143,277.8602753189143,277.8602753189143,277.8602753189143,277.8602753189143,277.8602753189143,l,1,0.4971767482384166,278.37690154840493,279.3934981970797,,,,,,,,,,,,,550,2023-05-15_10h45.52.565,eb_02psyexp,2022.2.4,60.003767262769315,
115,0,115,0,,,,,,,,,,,,,,,,,,,,,,,,,,,,,,,,,,,,,,,,,,,,,,,,,,,,,,,,,,279.3934981970797,279.3934981970797,279.3934981970797,279.3934981970797,279.3934981970797,279.3934981970797,l,1,0.547922939406817,279.9601084589667,280.9767147666835,,,,,,,,,,,,,550,2023-05-15_10h45.52.565,eb_02psyexp,2022.2.4,60.003767262769315,
116,0,116,0,,,,,,,,,,,,,,,,,,,,,,,,,,,,,,,,,,,,,,,,,,,,,,,,,,,,,,,,,,280.9767147666835,280.9767147666835,280.9767147666835,280.9767147666835,280.9767147666835,280.9767147666835,l,1,0.6047214258342137,281.60999686684863,282.62661253176157,,,,,,,,,,,,,550,2023-05-15_10h45.52.565,eb_02psyexp,2022.2.4,60.003767262769315,
117,0,117,0,,,,,,,,,,,,,,,,,,,,,,,,,,,,,,,,,,,,,,,,,,,,,,,,,,,,,,,,,,282.62661253176157,282.62661253176157,282.62661253176157,282.62661253176157,282.62661253176157,282.62661253176157,l,1,0.5308282463856813,283.1765597390613,284.1928602777343,,,,,,,,,,,,,550,2023-05-15_10h45.52.565,eb_02psyexp,2022.2.4,60.003767262769315,
118,0,118,0,,,,,,,,,,,,,,,,,,,,,,,,,,,,,,,,,,,,,,,,,,,,,,,,,,,,,,,,,,284.1928602777343,284.1928602777343,284.1928602777343,284.1928602777343,284.1928602777343,284.1928602777343,s,1,0.6845917411237679,284.9097658346409,285.9263811977089,,,,,,,,,,,,,550,2023-05-15_10h45.52.565,eb_02psyexp,2022.2.4,60.003767262769315,
119,0,119,0,,,,,,,,,,,,,,,,,,,,,,,,,,,,,,,,,,,,,,,,,,,,,,,,,,,,,,,,,,285.9263811977089,285.9263811977089,285.9263811977089,285.9263811977089,285.9263811977089,285.9263811977089,l,1,0.639103690868069,286.5929869922893,287.60958092435885,,,,,,,,,,,,,550,2023-05-15_10h45.52.565,eb_02psyexp,2022.2.4,60.003767262769315,
120,0,120,0,,,,,,,,,,,,,,,,,,,,,,,,,,,,,,,,,,,,,,,,,,,,,,,,,,,,,,,,,,287.60958092435885,287.60958092435885,287.60958092435885,287.60958092435885,287.60958092435885,287.60958092435885,s,1,0.6359340159124258,288.2762015093458,289.2928108355136,,,,,,,,,,,,,550,2023-05-15_10h45.52.565,eb_02psyexp,2022.2.4,60.003767262769315,
121,0,121,0,,,,,,,,,,,,,,,,,,,,,,,,,,,,,,,,,,,,,,,,,,,,,,,,,,,,,,,,,,289.2928108355136,289.2928108355136,289.2928108355136,289.2928108355136,289.2928108355136,289.2928108355136,s,1,0.6727020642847492,289.9927530020004,291.00935236728037,,,,,,,,,,,,,550,2023-05-15_10h45.52.565,eb_02psyexp,2022.2.4,60.003767262769315,
122,0,122,0,,,,,,,,,,,,,,,,,,,,,,,,,,,,,,,,,,,,,,,,,,,,,,,,,,,,,,,,,,291.00935236728037,291.00935236728037,291.00935236728037,291.00935236728037,291.00935236728037,291.00935236728037,l,1,0.5881329269768685,291.6259650741122,292.642571079984,,,,,,,,,,,,,550,2023-05-15_10h45.52.565,eb_02psyexp,2022.2.4,60.003767262769315,
123,0,123,0,,,,,,,,,,,,,,,,,,,,,,,,,,,,,,,,,,,,,,,,,,,,,,,,,,,,,,,,,,292.642571079984,292.642571079984,292.642571079984,292.642571079984,292.642571079984,292.642571079984,s,1,0.5789260490146262,293.2425204303827,294.2591415285069,,,,,,,,,,,,,550,2023-05-15_10h45.52.565,eb_02psyexp,2022.2.4,60.003767262769315,
124,0,124,0,,,,,,,,,,,,,,,,,,,,,,,,,,,,,,,,,,,,,,,,,,,,,,,,,,,,,,,,,,294.2591415285069,294.2591415285069,294.2591415285069,294.2591415285069,294.2591415285069,294.2591415285069,l,1,0.5373487033311903,294.82574092397226,295.84234330770323,,,,,,,,,,,,,550,2023-05-15_10h45.52.565,eb_02psyexp,2022.2.4,60.003767262769315,
125,0,125,0,,,,,,,,,,,,,,,,,,,,,,,,,,,,,,,,,,,,,,,,,,,,,,,,,,,,,,,,,,295.84234330770323,295.84234330770323,295.84234330770323,295.84234330770323,295.84234330770323,295.84234330770323,s,1,0.5781777751153641,296.4422980913132,297.45891254884646,,,,,,,,,,,,,550,2023-05-15_10h45.52.565,eb_02psyexp,2022.2.4,60.003767262769315,
126,0,126,0,,,,,,,,,,,,,,,,,,,,,,,,,,,,,,,,,,,,,,,,,,,,,,,,,,,,,,,,,,297.45891254884646,297.45891254884646,297.45891254884646,297.45891254884646,297.45891254884646,297.45891254884646,l,1,0.7296194776663469,298.2088429735604,299.22513656979663,,,,,,,,,,,,,550,2023-05-15_10h45.52.565,eb_02psyexp,2022.2.4,60.003767262769315,
127,0,127,0,,,,,,,,,,,,,,,,,,,,,,,,,,,,,,,,,,,,,,,,,,,,,,,,,,,,,,,,,,299.22513656979663,299.22513656979663,299.22513656979663,299.22513656979663,299.22513656979663,299.22513656979663,s,1,0.555403565481356,299.8087268235822,300.82531894458043,,,,,,,,,,,,,550,2023-05-15_10h45.52.565,eb_02psyexp,2022.2.4,60.003767262769315,
128,0,128,0,,,,,,,,,,,,,,,,,,,,,,,,,,,,,,,,,,,,,,,,,,,,,,,,,,,,,,,,,,300.82531894458043,300.82531894458043,300.82531894458043,300.82531894458043,300.82531894458043,300.82531894458043,s,1,0.571219340990865,301.42527584110667,302.4419364809337,,,,,,,,,,,,,550,2023-05-15_10h45.52.565,eb_02psyexp,2022.2.4,60.003767262769315,
129,0,129,0,,,,,,,,,,,,,,,,,,,,,,,,,,,,,,,,,,,,,,,,,,,,,,,,,,,,,,,,,,302.4419364809337,302.4419364809337,302.4419364809337,302.4419364809337,302.4419364809337,302.4419364809337,s,1,0.6666443358135439,303.12516397732816,304.1584330377873,,,,,,,,,,,,,550,2023-05-15_10h45.52.565,eb_02psyexp,2022.2.4,60.003767262769315,
130,0,130,0,,,,,,,,,,,,,,,,,,,,,,,,,,,,,,,,,,,,,,,,,,,,,,,,,,,,,,,,,,304.1584330377873,304.1584330377873,304.1584330377873,304.1584330377873,304.1584330377873,304.1584330377873,s,1,0.6541310470856843,304.84171365891143,305.858333549656,,,,,,,,,,,,,550,2023-05-15_10h45.52.565,eb_02psyexp,2022.2.4,60.003767262769315,
131,0,131,0,,,,,,,,,,,,,,,,,,,,,,,,,,,,,,,,,,,,,,,,,,,,,,,,,,,,,,,,,,305.858333549656,305.858333549656,305.858333549656,305.858333549656,305.858333549656,305.858333549656,l,1,0.5302438743538005,306.4082653628575,307.4248885738971,,,,,,,,,,,,,550,2023-05-15_10h45.52.565,eb_02psyexp,2022.2.4,60.003767262769315,
132,0,132,0,,,,,,,,,,,,,,,,,,,,,,,,,,,,,,,,,,,,,,,,,,,,,,,,,,,,,,,,,,307.4248885738971,307.4248885738971,307.4248885738971,307.4248885738971,307.4248885738971,307.4248885738971,s,1,0.5236974587332952,307.97481585942296,308.99112032208086,,,,,,,,,,,,,550,2023-05-15_10h45.52.565,eb_02psyexp,2022.2.4,60.003767262769315,
133,0,133,0,,,,,,,,,,,,,,,,,,,,,,,,,,,,,,,,,,,,,,,,,,,,,,,,,,,,,,,,,,308.99112032208086,308.99112032208086,308.99112032208086,308.99112032208086,308.99112032208086,308.99112032208086,l,1,0.6444940399151164,309.6580460724226,310.67433302806785,,,,,,,,,,,,,550,2023-05-15_10h45.52.565,eb_02psyexp,2022.2.4,60.003767262769315,
134,0,134,0,,,,,,,,,,,,,,,,,,,,,,,,,,,,,,,,,,,,,,,,,,,,,,,,,,,,,,,,,,310.67433302806785,310.67433302806785,310.67433302806785,310.67433302806785,310.67433302806785,310.67433302806785,s,1,0.6732701366845504,311.3745960558508,312.3912056838635,,,,,,,,,,,,,550,2023-05-15_10h45.52.565,eb_02psyexp,2022.2.4,60.003767262769315,
135,0,135,0,,,,,,,,,,,,,,,,,,,,,,,,,,,,,,,,,,,,,,,,,,,,,,,,,,,,,,,,,,312.3912056838635,312.3912056838635,312.3912056838635,312.3912056838635,312.3912056838635,312.3912056838635,l,1,0.9324053264454051,313.3411193259926,314.3743917067468,,,,,,,,,,,,,550,2023-05-15_10h45.52.565,eb_02psyexp,2022.2.4,60.003767262769315,
136,0,136,0,,,,,,,,,,,,,,,,,,,,,,,,,,,,,,,,,,,,,,,,,,,,,,,,,,,,,,,,,,314.3743917067468,314.3743917067468,314.3743917067468,314.3743917067468,314.3743917067468,314.3743917067468,s,1,0.5572294262374271,314.9576767951785,315.9742918564016,,,,,,,,,,,,,550,2023-05-15_10h45.52.565,eb_02psyexp,2022.2.4,60.003767262769315,
137,0,137,0,,,,,,,,,,,,,,,,,,,,,,,,,,,,,,,,,,,,,,,,,,,,,,,,,,,,,,,,,,315.9742918564016,315.9742918564016,315.9742918564016,315.9742918564016,315.9742918564016,315.9742918564016,s,1,0.5653366826536512,316.5575606452003,317.5908269890533,,,,,,,,,,,,,550,2023-05-15_10h45.52.565,eb_02psyexp,2022.2.4,60.003767262769315,
138,0,138,0,,,,,,,,,,,,,,,,,,,,,,,,,,,,,,,,,,,,,,,,,,,,,,,,,,,,,,,,,,317.5908269890533,317.5908269890533,317.5908269890533,317.5908269890533,317.5908269890533,317.5908269890533,s,1,0.4047910313047396,318.02411651460716,319.04073157583025,,,,,,,,,,,,,550,2023-05-15_10h45.52.565,eb_02psyexp,2022.2.4,60.003767262769315,
139,0,139,0,,,,,,,,,,,,,,,,,,,,,,,,,,,,,,,,,,,,,,,,,,,,,,,,,,,,,,,,,,319.04073157583025,319.04073157583025,319.04073157583025,319.04073157583025,319.04073157583025,319.04073157583025,s,1,0.47491658073886356,319.54068629907215,320.57395626506604,,,,,,,,,,,,,550,2023-05-15_10h45.52.565,eb_02psyexp,2022.2.4,60.003767262769315,
140,0,140,0,,,,,,,,,,,,,,,,,,,,,,,,,,,,,,,,,,,,,,,,,,,,,,,,,,,,,,,,,,320.57395626506604,320.57395626506604,320.57395626506604,320.57395626506604,320.57395626506604,320.57395626506604,s,1,0.4376806725258575,321.04058759573763,322.0571833388776,,,,,,,,,,,,,550,2023-05-15_10h45.52.565,eb_02psyexp,2022.2.4,60.003767262769315,
141,0,141,0,,,,,,,,,,,,,,,,,,,,,,,,,,,,,,,,,,,,,,,,,,,,,,,,,,,,,,,,,,322.0571833388776,322.0571833388776,322.0571833388776,322.0571833388776,322.0571833388776,322.0571833388776,l,1,0.42648010795528535,322.5071461817506,323.5403998481115,,,,,,,,,,,,,550,2023-05-15_10h45.52.565,eb_02psyexp,2022.2.4,60.003767262769315,
142,0,142,0,,,,,,,,,,,,,,,,,,,,,,,,,,,,,,,,,,,,,,,,,,,,,,,,,,,,,,,,,,323.5403998481115,323.5403998481115,323.5403998481115,323.5403998481115,323.5403998481115,323.5403998481115,s,1,0.45525560103396856,324.02369574259683,325.0403150296506,,,,,,,,,,,,,550,2023-05-15_10h45.52.565,eb_02psyexp,2022.2.4,60.003767262769315,
143,0,143,0,,,,,,,,,,,,,,,,,,,,,,,,,,,,,,,,,,,,,,,,,,,,,,,,,,,,,,,,,,325.0403150296506,325.0403150296506,325.0403150296506,325.0403150296506,325.0403150296506,325.0403150296506,s,1,0.4903631997422053,325.55693039271864,326.5901967365726,,,,,,,,,,,,,550,2023-05-15_10h45.52.565,eb_02psyexp,2022.2.4,60.003767262769315,
144,0,144,0,,,,,,,,,,,,,,,,,,,,,,,,,,,,,,,,,,,,,,,,,,,,,,,,,,,,,,,,,,326.5901967365726,326.5901967365726,326.5901967365726,326.5901967365726,326.5901967365726,326.5901967365726,s,1,0.32450024584977655,326.94017008365336,327.9567736747649,,,,,,,,,,,,,550,2023-05-15_10h45.52.565,eb_02psyexp,2022.2.4,60.003767262769315,
145,0,145,0,,,,,,,,,,,,,,,,,,,,,,,,,,,,,,,,,,,,,,,,,,,,,,,,,,,,,,,,,,327.9567736747649,327.9567736747649,327.9567736747649,327.9567736747649,327.9567736747649,327.9567736747649,s,1,0.46995092768793256,328.45672326663953,329.4733513072006,,,,,,,,,,,,,550,2023-05-15_10h45.52.565,eb_02psyexp,2022.2.4,60.003767262769315,
146,0,146,0,,,,,,,,,,,,,,,,,,,,,,,,,,,,,,,,,,,,,,,,,,,,,,,,,,,,,,,,,,329.4733513072006,329.4733513072006,329.4733513072006,329.4733513072006,329.4733513072006,329.4733513072006,l,1,0.6413599826773861,330.13994170768274,331.1565416766525,,,,,,,,,,,,,550,2023-05-15_10h45.52.565,eb_02psyexp,2022.2.4,60.003767262769315,
147,0,147,0,,,,,,,,,,,,,,,,,,,,,,,,,,,,,,,,,,,,,,,,,,,,,,,,,,,,,,,,,,331.1565416766525,331.1565416766525,331.1565416766525,331.1565416766525,331.1565416766525,331.1565416766525,s,1,0.5181785236909491,331.7065018632893,332.7231226595695,,,,,,,,,,,,,550,2023-05-15_10h45.52.565,eb_02psyexp,2022.2.4,60.003767262769315,
148,0,148,0,,,,,,,,,,,,,,,,,,,,,,,,,,,,,,,,,,,,,,,,,,,,,,,,,,,,,,,,,,332.7231226595695,332.7231226595695,332.7231226595695,332.7231226595695,332.7231226595695,332.7231226595695,l,1,0.4956068520905319,333.23973802263754,334.272996518519,,,,,,,,,,,,,550,2023-05-15_10h45.52.565,eb_02psyexp,2022.2.4,60.003767262769315,
149,0,149,0,,,,,,,,,,,,,,,,,,,,,,,,,,,,,,,,,,,,,,,,,,,,,,,,,,,,,,,,,,334.272996518519,334.272996518519,334.272996518519,334.272996518519,334.272996518519,334.272996518519,s,1,0.5377323483999135,334.8396119117724,335.8562366320375,,,,,,,,,,,,,550,2023-05-15_10h45.52.565,eb_02psyexp,2022.2.4,60.003767262769315,
150,0,150,0,,,,,,,,,,,,,,,,,,,,,,,,,,,,,,,,,,,,,,,,,,,,,,,,,,,,,,,,,,335.8562366320375,335.8562366320375,335.8562366320375,335.8562366320375,335.8562366320375,335.8562366320375,l,1,0.6025019591224918,336.489501527034,337.5227687764227,,,,,,,,,,,,,550,2023-05-15_10h45.52.565,eb_02psyexp,2022.2.4,60.003767262769315,
151,0,151,0,,,,,,,,,,,,,,,,,,,,,,,,,,,,,,,,,,,,,,,,,,,,,,,,,,,,,,,,,,337.5227687764227,337.5227687764227,337.5227687764227,337.5227687764227,337.5227687764227,337.5227687764227,s,1,0.6001581322461789,338.13938721831073,339.1559962426327,,,,,,,,,,,,,550,2023-05-15_10h45.52.565,eb_02psyexp,2022.2.4,60.003767262769315,
152,0,152,0,,,,,,,,,,,,,,,,,,,,,,,,,,,,,,,,,,,,,,,,,,,,,,,,,,,,,,,,,,339.1559962426327,339.1559962426327,339.1559962426327,339.1559962426327,339.1559962426327,339.1559962426327,s,1,0.35077072679177945,339.53928845460814,340.572555402151,,,,,,,,,,,,,550,2023-05-15_10h45.52.565,eb_02psyexp,2022.2.4,60.003767262769315,
153,0,153,0,,,,,,,,,,,,,,,,,,,,,,,,,,,,,,,,,,,,,,,,,,,,,,,,,,,,,,,,,,340.572555402151,340.572555402151,340.572555402151,340.572555402151,340.572555402151,340.572555402151,s,1,0.44526784990648594,341.03919246787973,342.05580511434255,,,,,,,,,,,,,550,2023-05-15_10h45.52.565,eb_02psyexp,2022.2.4,60.003767262769315,
154,0,154,0,,,,,,,,,,,,,,,,,,,,,,,,,,,,,,,,,,,,,,,,,,,,,,,,,,,,,,,,,,342.05580511434255,342.05580511434255,342.05580511434255,342.05580511434255,342.05580511434255,342.05580511434255,s,1,0.40997189988229366,342.4890864900799,343.52235343762277,,,,,,,,,,,,,550,2023-05-15_10h45.52.565,eb_02psyexp,2022.2.4,60.003767262769315,
155,0,155,0,,,,,,,,,,,,,,,,,,,,,,,,,,,,,,,,,,,,,,,,,,,,,,,,,,,,,,,,,,343.52235343762277,343.52235343762277,343.52235343762277,343.52235343762277,343.52235343762277,343.52235343762277,s,1,0.4474353992691249,343.9889808443095,345.0055980184479,,,,,,,,,,,,,550,2023-05-15_10h45.52.565,eb_02psyexp,2022.2.4,60.003767262769315,
156,0,156,0,,,,,,,,,,,,,,,,,,,,,,,,,,,,,,,,,,,,,,,,,,,,,,,,,,,,,,,,,,345.0055980184479,345.0055980184479,345.0055980184479,345.0055980184479,345.0055980184479,345.0055980184479,l,1,0.6281968215380402,345.65552868463783,346.6721488772273,,,,,,,,,,,,,550,2023-05-15_10h45.52.565,eb_02psyexp,2022.2.4,60.003767262769315,
157,0,157,0,,,,,,,,,,,,,,,,,,,,,,,,,,,,,,,,,,,,,,,,,,,,,,,,,,,,,,,,,,346.6721488772273,346.6721488772273,346.6721488772273,346.6721488772273,346.6721488772273,346.6721488772273,l,1,0.5616535692543039,347.2554203826312,348.2720230682071,,,,,,,,,,,,,550,2023-05-15_10h45.52.565,eb_02psyexp,2022.2.4,60.003767262769315,
158,0,158,0,,,,,,,,,,,,,,,,,,,,,,,,,,,,,,,,,,,,,,,,,,,,,,,,,,,,,,,,,,348.2720230682071,348.2720230682071,348.2720230682071,348.2720230682071,348.2720230682071,348.2720230682071,s,1,1.5458211922668852,349.8385246658727,350.8718444363012,,,,,,,,,,,,,550,2023-05-15_10h45.52.565,eb_02psyexp,2022.2.4,60.003767262769315,
159,0,159,0,,,,,,,,,,,,,,,,,,,,,,,,,,,,,,,,,,,,,,,,,,,,,,,,,,,,,,,,,,350.8718444363012,350.8718444363012,350.8718444363012,350.8718444363012,350.8718444363012,350.8718444363012,s,1,0.6660095556571832,351.55511509653934,352.5717268374665,,,,,,,,,,,,,550,2023-05-15_10h45.52.565,eb_02psyexp,2022.2.4,60.003767262769315,
160,0,160,0,,,,,,,,,,,,,,,,,,,,,,,,,,,,,,,,,,,,,,,,,,,,,,,,,,,,,,,,,,352.5717268374665,352.5717268374665,352.5717268374665,352.5717268374665,352.5717268374665,352.5717268374665,s,1,0.6621163580975917,353.25500051615563,354.28829553528885,,,,,,,,,,,,,550,2023-05-15_10h45.52.565,eb_02psyexp,2022.2.4,60.003767262769315,
161,0,161,0,,,,,,,,,,,,,,,,,,,,,,,,,,,,,,,,,,,,,,,,,,,,,,,,,,,,,,,,,,354.28829553528885,354.28829553528885,354.28829553528885,354.28829553528885,354.28829553528885,354.28829553528885,s,1,0.5375524487453731,354.8548882901623,355.8714961071046,,,,,,,,,,,,,550,2023-05-15_10h45.52.565,eb_02psyexp,2022.2.4,60.003767262769315,
162,0,162,0,,,,,,,,,,,,,,,,,,,,,,,,,,,,,,,,,,,,,,,,,,,,,,,,,,,,,,,,,,355.8714961071046,355.8714961071046,355.8714961071046,355.8714961071046,355.8714961071046,355.8714961071046,l,1,0.4653828045784394,356.3547826443919,357.3713605786734,,,,,,,,,,,,,550,2023-05-15_10h45.52.565,eb_02psyexp,2022.2.4,60.003767262769315,
163,0,163,0,,,,,,,,,,,,,,,,,,,,,,,,,,,,,,,,,,,,,,,,,,,,,,,,,,,,,,,,,,357.3713605786734,357.3713605786734,357.3713605786734,357.3713605786734,357.3713605786734,357.3713605786734,l,1,0.5975082344812108,357.98800709215175,359.0046176256992,,,,,,,,,,,,,550,2023-05-15_10h45.52.565,eb_02psyexp,2022.2.4,60.003767262769315,
164,0,164,0,,,,,,,,,,,,,,,,,,,,,,,,,,,,,,,,,,,,,,,,,,,,,,,,,,,,,,,,,,359.0046176256992,359.0046176256992,359.0046176256992,359.0046176256992,359.0046176256992,359.0046176256992,l,1,0.4282594845726635,359.4545668855444,360.4711858707542,,,,,,,,,,,,,550,2023-05-15_10h45.52.565,eb_02psyexp,2022.2.4,60.003767262769315,
165,0,165,0,,,,,,,,,,,,,,,,,,,,,,,,,,,,,,,,,,,,,,,,,,,,,,,,,,,,,,,,,,360.4711858707542,360.4711858707542,360.4711858707542,360.4711858707542,360.4711858707542,360.4711858707542,s,1,0.5617000533929968,361.05446341305924,362.07106519309946,,,,,,,,,,,,,550,2023-05-15_10h45.52.565,eb_02psyexp,2022.2.4,60.003767262769315,
166,0,166,0,,,,,,,,,,,,,,,,,,,,,,,,,,,,,,,,,,,,,,,,,,,,,,,,,,,,,,,,,,362.07106519309946,362.07106519309946,362.07106519309946,362.07106519309946,362.07106519309946,362.07106519309946,l,1,0.5938827734889855,362.6876715611852,363.720886591379,,,,,,,,,,,,,550,2023-05-15_10h45.52.565,eb_02psyexp,2022.2.4,60.003767262769315,
167,0,167,0,,,,,,,,,,,,,,,,,,,,,,,,,,,,,,,,,,,,,,,,,,,,,,,,,,,,,,,,,,363.720886591379,363.720886591379,363.720886591379,363.720886591379,363.720886591379,363.720886591379,s,1,0.5440161588194314,364.28755601489684,365.3041635299933,,,,,,,,,,,,,550,2023-05-15_10h45.52.565,eb_02psyexp,2022.2.4,60.003767262769315,
168,0,168,0,,,,,,,,,,,,,,,,,,,,,,,,,,,,,,,,,,,,,,,,,,,,,,,,,,,,,,,,,,365.3041635299933,365.3041635299933,365.3041635299933,365.3041635299933,365.3041635299933,365.3041635299933,s,1,0.6887276221095817,366.02076663815296,367.03740614882554,,,,,,,,,,,,,550,2023-05-15_10h45.52.565,eb_02psyexp,2022.2.4,60.003767262769315,
169,0,169,0,,,,,,,,,,,,,,,,,,,,,,,,,,,,,,,,,,,,,,,,,,,,,,,,,,,,,,,,,,367.03740614882554,367.03740614882554,367.03740614882554,367.03740614882554,367.03740614882554,367.03740614882554,s,1,0.6195145502870218,367.68733138180505,368.70393557660555,,,,,,,,,,,,,550,2023-05-15_10h45.52.565,eb_02psyexp,2022.2.4,60.003767262769315,
170,0,170,0,,,,,,,,,,,,,,,,,,,,,,,,,,,,,,,,,,,,,,,,,,,,,,,,,,,,,,,,,,368.70393557660555,368.70393557660555,368.70393557660555,368.70393557660555,368.70393557660555,368.70393557660555,l,1,0.6250328816395267,369.35388525903454,370.3871491881273,,,,,,,,,,,,,550,2023-05-15_10h45.52.565,eb_02psyexp,2022.2.4,60.003767262769315,
171,0,171,0,,,,,,,,,,,,,,,,,,,,,,,,,,,,,,,,,,,,,,,,,,,,,,,,,,,,,,,,,,370.3871491881273,370.3871491881273,370.3871491881273,370.3871491881273,370.3871491881273,370.3871491881273,s,1,0.5977880448499491,371.00376280049477,372.02040925360416,,,,,,,,,,,,,550,2023-05-15_10h45.52.565,eb_02psyexp,2022.2.4,60.003767262769315,
172,0,172,0,,,,,,,,,,,,,,,,,,,,,,,,,,,,,,,,,,,,,,,,,,,,,,,,,,,,,,,,,,372.02040925360416,372.02040925360416,372.02040925360416,372.02040925360416,372.02040925360416,372.02040925360416,l,1,0.6515442349373188,372.70364157951917,373.72025090568604,,,,,,,,,,,,,550,2023-05-15_10h45.52.565,eb_02psyexp,2022.2.4,60.003767262769315,
173,0,173,0,,,,,,,,,,,,,,,,,,,,,,,,,,,,,,,,,,,,,,,,,,,,,,,,,,,,,,,,,,373.72025090568604,373.72025090568604,373.72025090568604,373.72025090568604,373.72025090568604,373.72025090568604,l,1,0.5997077794190773,374.3368633106729,375.3534723349949,,,,,,,,,,,,,550,2023-05-15_10h45.52.565,eb_02psyexp,2022.2.4,60.003767262769315,
174,0,174,0,,,,,,,,,,,,,,,,,,,,,,,,,,,,,,,,,,,,,,,,,,,,,,,,,,,,,,,,,,375.3534723349949,375.3534723349949,375.3534723349949,375.3534723349949,375.3534723349949,375.3534723349949,l,1,0.5344959656868014,375.9200850116422,376.9367070153021,,,,,,,,,,,,,550,2023-05-15_10h45.52.565,eb_02psyexp,2022.2.4,60.003767262769315,
175,0,175,0,,,,,,,,,,,,,,,,,,,,,,,,,,,,,,,,,,,,,,,,,,,,,,,,,,,,,,,,,,376.9367070153021,376.9367070153021,376.9367070153021,376.9367070153021,376.9367070153021,376.9367070153021,s,1,0.6312662839345649,377.586637681492,378.6199088548665,,,,,,,,,,,,,550,2023-05-15_10h45.52.565,eb_02psyexp,2022.2.4,60.003767262769315,
176,0,176,0,,,,,,,,,,,,,,,,,,,,,,,,,,,,,,,,,,,,,,,,,,,,,,,,,,,,,,,,,,378.6199088548665,378.6199088548665,378.6199088548665,378.6199088548665,378.6199088548665,378.6199088548665,s,1,0.5560763781159039,379.20319635805845,380.21984462223827,,,,,,,,,,,,,550,2023-05-15_10h45.52.565,eb_02psyexp,2022.2.4,60.003767262769315,
177,0,177,0,,,,,,,,,,,,,,,,,,,,,,,,,,,,,,,,,,,,,,,,,,,,,,,,,,,,,,,,,,380.21984462223827,380.21984462223827,380.21984462223827,380.21984462223827,380.21984462223827,380.21984462223827,s,1,0.6521530564205023,380.90307362785825,381.9196826521802,,,,,,,,,,,,,550,2023-05-15_10h45.52.565,eb_02psyexp,2022.2.4,60.003767262769315,
178,0,178,0,,,,,,,,,,,,,,,,,,,,,,,,,,,,,,,,,,,,,,,,,,,,,,,,,,,,,,,,,,381.9196826521802,381.9196826521802,381.9196826521802,381.9196826521802,381.9196826521802,381.9196826521802,s,1,0.32031969179479347,382.269642718079,383.2862686457238,,,,,,,,,,,,,550,2023-05-15_10h45.52.565,eb_02psyexp,2022.2.4,60.003767262769315,
179,0,179,0,,,,,,,,,,,,,,,,,,,,,,,,,,,,,,,,,,,,,,,,,,,,,,,,,,,,,,,,,,383.2862686457238,383.2862686457238,383.2862686457238,383.2862686457238,383.2862686457238,383.2862686457238,l,1,0.5137453253228159,383.8195398190983,384.8528088795574,,,,,,,,,,,,,550,2023-05-15_10h45.52.565,eb_02psyexp,2022.2.4,60.003767262769315,
180,0,180,0,,,,,,,,,,,,,,,,,,,,,,,,,,,,,,,,,,,,,,,,,,,,,,,,,,,,,,,,,,384.8528088795574,384.8528088795574,384.8528088795574,384.8528088795574,384.8528088795574,384.8528088795574,s,1,0.45921369528059586,385.33609270023953,386.3523612433364,,,,,,,,,,,,,550,2023-05-15_10h45.52.565,eb_02psyexp,2022.2.4,60.003767262769315,
181,0,181,0,,,,,,,,,,,,,,,,,,,,,,,,,,,,,,,,,,,,,,,,,,,,,,,,,,,,,,,,,,386.3523612433364,386.3523612433364,386.3523612433364,386.3523612433364,386.3523612433364,386.3523612433364,s,1,0.5916630049314335,386.96931684615356,388.00259345273935,,,,,,,,,,,,,550,2023-05-15_10h45.52.565,eb_02psyexp,2022.2.4,60.003767262769315,
182,0,182,0,,,,,,,,,,,,,,,,,,,,,,,,,,,,,,,,,,,,,,,,,,,,,,,,,,,,,,,,,,388.00259345273935,388.00259345273935,388.00259345273935,388.00259345273935,388.00259345273935,388.00259345273935,s,1,0.476471082788521,388.5025448556853,389.519099547897,,,,,,,,,,,,,550,2023-05-15_10h45.52.565,eb_02psyexp,2022.2.4,60.003767262769315,
183,0,183,0,,,,,,,,,,,,,,,,,,,,,,,,,,,,,,,,,,,,,,,,,,,,,,,,,,,,,,,,,,389.519099547897,389.519099547897,389.519099547897,389.519099547897,389.519099547897,389.519099547897,s,1,0.6319466426957661,390.1690908849432,391.20236658599333,,,,,,,,,,,,,550,2023-05-15_10h45.52.565,eb_02psyexp,2022.2.4,60.003767262769315,
184,0,184,0,,,,,,,,,,,,,,,,,,,,,,,,,,,,,,,,,,,,,,,,,,,,,,,,,,,,,,,,,,391.20236658599333,391.20236658599333,391.20236658599333,391.20236658599333,391.20236658599333,391.20236658599333,s,1,0.41269031647607335,391.63565279125214,392.652271776461,,,,,,,,,,,,,550,2023-05-15_10h45.52.565,eb_02psyexp,2022.2.4,60.003767262769315,
185,0,185,0,,,,,,,,,,,,,,,,,,,,,,,,,,,,,,,,,,,,,,,,,,,,,,,,,,,,,,,,,,392.652271776461,392.652271776461,392.652271776461,392.652271776461,392.652271776461,392.652271776461,l,1,0.37077248956666153,393.05221828951653,394.0688439153173,,,,,,,,,,,,,550,2023-05-15_10h45.52.565,eb_02psyexp,2022.2.4,60.003767262769315,
186,0,186,0,,,,,,,,,,,,,,,,,,,,,,,,,,,,,,,,,,,,,,,,,,,,,,,,,,,,,,,,,,394.0688439153173,394.0688439153173,394.0688439153173,394.0688439153173,394.0688439153173,394.0688439153173,s,1,0.4502558394915468,394.55212562308407,395.568731628955,,,,,,,,,,,,,550,2023-05-15_10h45.52.565,eb_02psyexp,2022.2.4,60.003767262769315,
187,0,187,0,,,,,,,,,,,,,,,,,,,,,,,,,,,,,,,,,,,,,,,,,,,,,,,,,,,,,,,,,,395.568731628955,395.568731628955,395.568731628955,395.568731628955,395.568731628955,395.568731628955,s,1,0.5103755270938564,396.1020124613715,397.1186193727781,,,,,,,,,,,,,550,2023-05-15_10h45.52.565,eb_02psyexp,2022.2.4,60.003767262769315,
188,0,188,0,,,,,,,,,,,,,,,,,,,,,,,,,,,,,,,,,,,,,,,,,,,,,,,,,,,,,,,,,,397.1186193727781,397.1186193727781,397.1186193727781,397.1186193727781,397.1186193727781,397.1186193727781,s,1,0.4084684096478668,397.55191070940236,398.56857497137025,,,,,,,,,,,,,550,2023-05-15_10h45.52.565,eb_02psyexp,2022.2.4,60.003767262769315,
189,0,189,0,,,,,,,,,,,,,,,,,,,,,,,,,,,,,,,,,,,,,,,,,,,,,,,,,,,,,,,,,,398.56857497137025,398.56857497137025,398.56857497137025,398.56857497137025,398.56857497137025,398.56857497137025,l,1,0.502516085471143,399.1018029809011,400.118424984561,,,,,,,,,,,,,550,2023-05-15_10h45.52.565,eb_02psyexp,2022.2.4,60.003767262769315,
190,0,190,0,,,,,,,,,,,,,,,,,,,,,,,,,,,,,,,,,,,,,,,,,,,,,,,,,,,,,,,,,,400.118424984561,400.118424984561,400.118424984561,400.118424984561,400.118424984561,400.118424984561,s,1,0.640697130929766,400.7850147813524,401.8016437274482,,,,,,,,,,,,,550,2023-05-15_10h45.52.565,eb_02psyexp,2022.2.4,60.003767262769315,
191,0,191,0,,,,,,,,,,,,,,,,,,,,,,,,,,,,,,,,,,,,,,,,,,,,,,,,,,,,,,,,,,401.8016437274482,401.8016437274482,401.8016437274482,401.8016437274482,401.8016437274482,401.8016437274482,l,1,0.5094766325109958,402.33490856207663,403.36818275390215,,,,,,,,,,,,,550,2023-05-15_10h45.52.565,eb_02psyexp,2022.2.4,60.003767262769315,
192,0,192,0,,,,,,,,,,,,,,,,,,,,,,,,,,,,,,,,,,,,,,,,,,,,,,,,,,,,,,,,,,403.36818275390215,403.36818275390215,403.36818275390215,403.36818275390215,403.36818275390215,403.36818275390215,s,1,0.5419412758901672,403.9347770180002,404.951114079925,,,,,,,,,,,,,550,2023-05-15_10h45.52.565,eb_02psyexp,2022.2.4,60.003767262769315,
193,0,193,0,,,,,,,,,,,,,,,,,,,,,,,,,,,,,,,,,,,,,,,,,,,,,,,,,,,,,,,,,,404.951114079925,404.951114079925,404.951114079925,404.951114079925,404.951114079925,404.951114079925,s,1,0.6390067986039867,405.61802202140825,406.63462621620965,,,,,,,,,,,,,550,2023-05-15_10h45.52.565,eb_02psyexp,2022.2.4,60.003767262769315,
194,0,194,0,,,,,,,,,,,,,,,,,,,,,,,,,,,,,,,,,,,,,,,,,,,,,,,,,,,,,,,,,,406.63462621620965,406.63462621620965,406.63462621620965,406.63462621620965,406.63462621620965,406.63462621620965,l,1,0.6755170712967811,407.3345795509631,408.3511768033286,,,,,,,,,,,,,550,2023-05-15_10h45.52.565,eb_02psyexp,2022.2.4,60.003767262769315,
195,0,195,0,,,,,,,,,,,,,,,,,,,,,,,,,,,,,,,,,,,,,,,,,,,,,,,,,,,,,,,,,,408.3511768033286,408.3511768033286,408.3511768033286,408.3511768033286,408.3511768033286,408.3511768033286,l,1,1.0550024133990519,409.43438190281904,410.45102745039367,,,,,,,,,,,,,550,2023-05-15_10h45.52.565,eb_02psyexp,2022.2.4,60.003767262769315,
196,0,196,0,,,,,,,,,,,,,,,,,,,,,,,,,,,,,,,,,,,,,,,,,,,,,,,,,,,,,,,,,,410.45102745039367,410.45102745039367,410.45102745039367,410.45102745039367,410.45102745039367,410.45102745039367,l,1,0.8591430031683558,411.3342931000034,412.36758479884156,,,,,,,,,,,,,550,2023-05-15_10h45.52.565,eb_02psyexp,2022.2.4,60.003767262769315,
197,0,197,0,,,,,,,,,,,,,,,,,,,,,,,,,,,,,,,,,,,,,,,,,,,,,,,,,,,,,,,,,,412.36758479884156,412.36758479884156,412.36758479884156,412.36758479884156,412.36758479884156,412.36758479884156,s,1,0.5185947680256504,412.91750544377555,413.93381413226507,,,,,,,,,,,,,550,2023-05-15_10h45.52.565,eb_02psyexp,2022.2.4,60.003767262769315,
198,0,198,0,,,,,,,,,,,,,,,,,,,,,,,,,,,,,,,,,,,,,,,,,,,,,,,,,,,,,,,,,,413.93381413226507,413.93381413226507,413.93381413226507,413.93381413226507,413.93381413226507,413.93381413226507,s,1,0.5683780734589163,414.5340656295675,415.56733046419595,,,,,,,,,,,,,550,2023-05-15_10h45.52.565,eb_02psyexp,2022.2.4,60.003767262769315,
199,0,199,0,,,,,0,0,0,0,,,,,,,,,,,,,,,,,,,,,,,,,,,,,,,,,,,,,,,,,,,,,,,,,,415.56733046419595,415.56733046419595,415.56733046419595,415.56733046419595,415.56733046419595,415.56733046419595,s,1,0.46286511494872684,416.0505994944697,417.05055663247185,417.05055663247185,417.05055663247185,space,38.2888595887689,,,,,,,,,550,2023-05-15_10h45.52.565,eb_02psyexp,2022.2.4,60.003767262769315,
199,0,199,0,,,,,,,,,,,,,,,,,,,,,,,,,,,,,,,,,,,,,,,,,,,,,,,,,,,,,,,,,,,,,,,,,,,,,,,,,,,,,,,,,550,2023-05-15_10h45.52.565,eb_02psyexp,2022.2.4,60.003767262769315,
200,0,200,0,,,,,,,,,,,,,,,,,,,,,,,,,,,,,,,,,,,,,,,,,,,,,,,,,,,,,,,,,,455.38091669136793,455.38091669136793,455.38091669136793,455.38091669136793,455.38091669136793,455.38091669136793,s,1,1.0065004402376871,456.4144830692094,457.4310905843058,,,,,,,,,,,,,550,2023-05-15_10h45.52.565,eb_02psyexp,2022.2.4,60.003767262769315,
201,0,201,0,,,,,,,,,,,,,,,,,,,,,,,,,,,,,,,,,,,,,,,,,,,,,,,,,,,,,,,,,,457.4310905843058,457.4310905843058,457.4310905843058,457.4310905843058,457.4310905843058,457.4310905843058,l,1,0.5563269095137002,458.0143696358364,459.030976547243,,,,,,,,,,,,,550,2023-05-15_10h45.52.565,eb_02psyexp,2022.2.4,60.003767262769315,
202,0,202,0,,,,,,,,,,,,,,,,,,,,,,,,,,,,,,,,,,,,,,,,,,,,,,,,,,,,,,,,,,459.030976547243,459.030976547243,459.030976547243,459.030976547243,459.030976547243,459.030976547243,s,1,0.5244671636310159,459.5809267729928,460.5975466637374,,,,,,,,,,,,,550,2023-05-15_10h45.52.565,eb_02psyexp,2022.2.4,60.003767262769315,
203,0,203,0,,,,,,,,,,,,,,,,,,,,,,,,,,,,,,,,,,,,,,,,,,,,,,,,,,,,,,,,,,460.5975466637374,460.5975466637374,460.5975466637374,460.5975466637374,460.5975466637374,460.5975466637374,s,1,0.6218852413730929,461.2474791409977,462.26408695793907,,,,,,,,,,,,,550,2023-05-15_10h45.52.565,eb_02psyexp,2022.2.4,60.003767262769315,
204,0,204,0,,,,,,,,,,,,,,,,,,,,,,,,,,,,,,,,,,,,,,,,,,,,,,,,,,,,,,,,,,462.26408695793907,462.26408695793907,462.26408695793907,462.26408695793907,462.26408695793907,462.26408695793907,l,1,0.4833637146894034,462.76402779630826,463.7973083268789,,,,,,,,,,,,,550,2023-05-15_10h45.52.565,eb_02psyexp,2022.2.4,60.003767262769315,
205,0,205,0,,,,,,,,,,,,,,,,,,,,,,,,,,,,,,,,,,,,,,,,,,,,,,,,,,,,,,,,,,463.7973083268789,463.7973083268789,463.7973083268789,463.7973083268789,463.7973083268789,463.7973083268789,s,1,0.40616170971316023,464.23059905981336,465.24722498745814,,,,,,,,,,,,,550,2023-05-15_10h45.52.565,eb_02psyexp,2022.2.4,60.003767262769315,
206,0,206,0,,,,,,,,,,,,,,,,,,,,,,,,,,,,,,,,,,,,,,,,,,,,,,,,,,,,,,,,,,465.24722498745814,465.24722498745814,465.24722498745814,465.24722498745814,465.24722498745814,465.24722498745814,l,1,0.5872488228014845,465.86382562048766,466.88044219093626,,,,,,,,,,,,,550,2023-05-15_10h45.52.565,eb_02psyexp,2022.2.4,60.003767262769315,
207,0,207,0,,,,,,,,,,,,,,,,,,,,,,,,,,,,,,,,,,,,,,,,,,,,,,,,,,,,,,,,,,466.88044219093626,466.88044219093626,466.88044219093626,466.88044219093626,466.88044219093626,466.88044219093626,l,1,0.6501086598409529,467.5470407412349,468.58031100907465,,,,,,,,,,,,,550,2023-05-15_10h45.52.565,eb_02psyexp,2022.2.4,60.003767262769315,
208,0,208,0,,,,,,,,,,,,,,,,,,,,,,,,,,,,,,,,,,,,,,,,,,,,,,,,,,,,,,,,,,468.58031100907465,468.58031100907465,468.58031100907465,468.58031100907465,468.58031100907465,468.58031100907465,s,1,0.5102173602836046,469.11359636916677,470.1301776237433,,,,,,,,,,,,,550,2023-05-15_10h45.52.565,eb_02psyexp,2022.2.4,60.003767262769315,
209,0,209,0,,,,,,,,,,,,,,,,,,,,,,,,,,,,,,,,,,,,,,,,,,,,,,,,,,,,,,,,,,470.1301776237433,470.1301776237433,470.1301776237433,470.1301776237433,470.1301776237433,470.1301776237433,s,1,0.6323197231877202,470.7801436058053,471.8134153828696,,,,,,,,,,,,,550,2023-05-15_10h45.52.565,eb_02psyexp,2022.2.4,60.003767262769315,
210,0,210,0,,,,,,,,,,,,,,,,,,,,,,,,,,,,,,,,,,,,,,,,,,,,,,,,,,,,,,,,,,471.8134153828696,471.8134153828696,471.8134153828696,471.8134153828696,471.8134153828696,471.8134153828696,s,1,0.4450933834632451,472.2800388655696,473.2966641895255,,,,,,,,,,,,,550,2023-05-15_10h45.52.565,eb_02psyexp,2022.2.4,60.003767262769315,
211,0,211,0,,,,,,,,,,,,,,,,,,,,,,,,,,,,,,,,,,,,,,,,,,,,,,,,,,,,,,,,,,473.2966641895255,473.2966641895255,473.2966641895255,473.2966641895255,473.2966641895255,473.2966641895255,l,1,0.6098651674692519,473.92992214208607,474.9631939191504,,,,,,,,,,,,,550,2023-05-15_10h45.52.565,eb_02psyexp,2022.2.4,60.003767262769315,
212,0,212,0,,,,,,,,,,,,,,,,,,,,,,,,,,,,,,,,,,,,,,,,,,,,,,,,,,,,,,,,,,474.9631939191504,474.9631939191504,474.9631939191504,474.9631939191504,474.9631939191504,474.9631939191504,s,1,0.48733901410469116,475.4798213560207,476.4964267582027,,,,,,,,,,,,,550,2023-05-15_10h45.52.565,eb_02psyexp,2022.2.4,60.003767262769315,
213,0,213,0,,,,,,,,,,,,,,,,,,,,,,,,,,,,,,,,,,,,,,,,,,,,,,,,,,,,,,,,,,476.4964267582027,476.4964267582027,476.4964267582027,476.4964267582027,476.4964267582027,476.4964267582027,l,1,0.4180978706917813,476.94637843280816,477.9796514172531,,,,,,,,,,,,,550,2023-05-15_10h45.52.565,eb_02psyexp,2022.2.4,60.003767262769315,
214,0,214,0,,,,,,,,,,,,,,,,,,,,,,,,,,,,,,,,,,,,,,,,,,,,,,,,,,,,,,,,,,477.9796514172531,477.9796514172531,477.9796514172531,477.9796514172531,477.9796514172531,477.9796514172531,l,1,0.526891583138422,478.5296094909745,479.54622515588835,,,,,,,,,,,,,550,2023-05-15_10h45.52.565,eb_02psyexp,2022.2.4,60.003767262769315,
215,0,215,0,,,,,,,,,,,,,,,,,,,,,,,,,,,,,,,,,,,,,,,,,,,,,,,,,,,,,,,,,,479.54622515588835,479.54622515588835,479.54622515588835,479.54622515588835,479.54622515588835,479.54622515588835,s,1,0.4643341948467423,480.02949931752846,481.0627674724519,,,,,,,,,,,,,550,2023-05-15_10h45.52.565,eb_02psyexp,2022.2.4,60.003767262769315,
216,0,216,0,,,,,,,,,,,,,,,,,,,,,,,,,,,,,,,,,,,,,,,,,,,,,,,,,,,,,,,,,,481.0627674724519,481.0627674724519,481.0627674724519,481.0627674724519,481.0627674724519,481.0627674724519,s,1,0.46680962616756005,481.5460618577117,482.56268265399103,,,,,,,,,,,,,550,2023-05-15_10h45.52.565,eb_02psyexp,2022.2.4,60.003767262769315,
217,0,217,0,,,,,,,,,,,,,,,,,,,,,,,,,,,,,,,,,,,,,,,,,,,,,,,,,,,,,,,,,,482.56268265399103,482.56268265399103,482.56268265399103,482.56268265399103,482.56268265399103,482.56268265399103,l,1,0.4548731633458374,483.0459685875885,484.0792276871607,,,,,,,,,,,,,550,2023-05-15_10h45.52.565,eb_02psyexp,2022.2.4,60.003767262769315,
218,0,218,0,,,,,,,,,,,,,,,,,,,,,,,,,,,,,,,,,,,,,,,,,,,,,,,,,,,,,,,,,,484.0792276871607,484.0792276871607,484.0792276871607,484.0792276871607,484.0792276871607,484.0792276871607,s,1,0.458354040555605,484.56252810932165,485.57914347238966,,,,,,,,,,,,,550,2023-05-15_10h45.52.565,eb_02psyexp,2022.2.4,60.003767262769315,
219,0,219,0,,,,,,,,,,,,,,,,,,,,,,,,,,,,,,,,,,,,,,,,,,,,,,,,,,,,,,,,,,485.57914347238966,485.57914347238966,485.57914347238966,485.57914347238966,485.57914347238966,485.57914347238966,l,1,0.45444786365806067,486.0624164266501,487.0956815631225,,,,,,,,,,,,,550,2023-05-15_10h45.52.565,eb_02psyexp,2022.2.4,60.003767262769315,
220,0,220,0,,,,,,,,,,,,,,,,,,,,,,,,,,,,,,,,,,,,,,,,,,,,,,,,,,,,,,,,,,487.0956815631225,487.0956815631225,487.0956815631225,487.0956815631225,487.0956815631225,487.0956815631225,s,1,0.4739189828214876,487.595641115885,488.6122483291365,,,,,,,,,,,,,550,2023-05-15_10h45.52.565,eb_02psyexp,2022.2.4,60.003767262769315,
221,0,221,0,,,,,,,,,,,,,,,,,,,,,,,,,,,,,,,,,,,,,,,,,,,,,,,,,,,,,,,,,,488.6122483291365,488.6122483291365,488.6122483291365,488.6122483291365,488.6122483291365,488.6122483291365,l,1,0.5013627355037897,489.14553700952456,490.17880395706834,,,,,,,,,,,,,550,2023-05-15_10h45.52.565,eb_02psyexp,2022.2.4,60.003767262769315,
222,0,222,0,,,,,,,,,,,,,,,,,,,,,,,,,,,,,,,,,,,,,,,,,,,,,,,,,,,,,,,,,,490.17880395706834,490.17880395706834,490.17880395706834,490.17880395706834,490.17880395706834,490.17880395706834,s,1,0.5188220573554645,490.72871947063686,491.74536713112593,,,,,,,,,,,,,550,2023-05-15_10h45.52.565,eb_02psyexp,2022.2.4,60.003767262769315,
223,0,223,0,,,,,,,,,,,,,,,,,,,,,,,,,,,,,,,,,,,,,,,,,,,,,,,,,,,,,,,,,,491.74536713112593,491.74536713112593,491.74536713112593,491.74536713112593,491.74536713112593,491.74536713112593,l,1,0.5842641788676701,492.36197863057714,493.3952410504453,,,,,,,,,,,,,550,2023-05-15_10h45.52.565,eb_02psyexp,2022.2.4,60.003767262769315,
224,0,224,0,,,,,,,,,,,,,,,,,,,,,,,,,,,,,,,,,,,,,,,,,,,,,,,,,,,,,,,,,,493.3952410504453,493.3952410504453,493.3952410504453,493.3952410504453,493.3952410504453,493.3952410504453,s,1,0.7023924497352709,494.12852502204987,495.14512619840025,,,,,,,,,,,,,550,2023-05-15_10h45.52.565,eb_02psyexp,2022.2.4,60.003767262769315,
225,0,225,0,,,,,,,,,,,,,,,,,,,,,,,,,,,,,,,,,,,,,,,,,,,,,,,,,,,,,,,,,,495.14512619840025,495.14512619840025,495.14512619840025,495.14512619840025,495.14512619840025,495.14512619840025,s,1,0.5285161132405847,495.6950930256289,496.7283478993695,,,,,,,,,,,,,550,2023-05-15_10h45.52.565,eb_02psyexp,2022.2.4,60.003767262769315,
226,0,226,0,,,,,,,,,,,,,,,,,,,,,,,,,,,,,,,,,,,,,,,,,,,,,,,,,,,,,,,,,,496.7283478993695,496.7283478993695,496.7283478993695,496.7283478993695,496.7283478993695,496.7283478993695,s,1,0.680303730228843,497.428290971392,498.44489546803834,,,,,,,,,,,,,550,2023-05-15_10h45.52.565,eb_02psyexp,2022.2.4,60.003767262769315,
227,0,227,0,,,,,,,,,,,,,,,,,,,,,,,,,,,,,,,,,,,,,,,,,,,,,,,,,,,,,,,,,,498.44489546803834,498.44489546803834,498.44489546803834,498.44489546803834,498.44489546803834,498.44489546803834,s,1,0.4357564102811011,498.9115210636537,499.94478891673225,,,,,,,,,,,,,550,2023-05-15_10h45.52.565,eb_02psyexp,2022.2.4,60.003767262769315,
228,0,228,0,,,,,,,,,,,,,,,,,,,,,,,,,,,,,,,,,,,,,,,,,,,,,,,,,,,,,,,,,,499.94478891673225,499.94478891673225,499.94478891673225,499.94478891673225,499.94478891673225,499.94478891673225,s,1,0.3118719541544124,500.27810766088805,501.29470762985875,,,,,,,,,,,,,550,2023-05-15_10h45.52.565,eb_02psyexp,2022.2.4,60.003767262769315,
229,0,229,0,,,,,,,,,,,,,,,,,,,,,,,,,,,,,,,,,,,,,,,,,,,,,,,,,,,,,,,,,,501.29470762985875,501.29470762985875,501.29470762985875,501.29470762985875,501.29470762985875,501.29470762985875,s,0,0.4579706973318025,501.77798299887945,502.81125447409886,,,,,,,,,,,,,550,2023-05-15_10h45.52.565,eb_02psyexp,2022.2.4,60.003767262769315,
230,0,230,0,,,,,,,,,,,,,,,,,,,,,,,,,,,,,,,,,,,,,,,,,,,,,,,,,,,,,,,,,,502.81125447409886,502.81125447409886,502.81125447409886,502.81125447409886,502.81125447409886,502.81125447409886,s,1,0.4854313533378445,503.3278728556179,504.3444933500514,,,,,,,,,,,,,550,2023-05-15_10h45.52.565,eb_02psyexp,2022.2.4,60.003767262769315,
231,0,231,0,,,,,,,,,,,,,,,,,,,,,,,,,,,,,,,,,,,,,,,,,,,,,,,,,,,,,,,,,,504.3444933500514,504.3444933500514,504.3444933500514,504.3444933500514,504.3444933500514,504.3444933500514,l,1,0.37621445411878085,504.74444046679764,505.7777197899886,,,,,,,,,,,,,550,2023-05-15_10h45.52.565,eb_02psyexp,2022.2.4,60.003767262769315,
232,0,232,0,,,,,,,,,,,,,,,,,,,,,,,,,,,,,,,,,,,,,,,,,,,,,,,,,,,,,,,,,,505.7777197899886,505.7777197899886,505.7777197899886,505.7777197899886,505.7777197899886,505.7777197899886,l,1,0.5670662548363907,506.3776730643731,507.39427816471016,,,,,,,,,,,,,550,2023-05-15_10h45.52.565,eb_02psyexp,2022.2.4,60.003767262769315,
233,0,233,0,,,,,,,,,,,,,,,,,,,,,,,,,,,,,,,,,,,,,,,,,,,,,,,,,,,,,,,,,,507.39427816471016,507.39427816471016,507.39427816471016,507.39427816471016,507.39427816471016,507.39427816471016,l,1,1.934459382066052,509.3607969071754,510.3940554030569,,,,,,,,,,,,,550,2023-05-15_10h45.52.565,eb_02psyexp,2022.2.4,60.003767262769315,
234,0,234,0,,,,,,,,,,,,,,,,,,,,,,,,,,,,,,,,,,,,,,,,,,,,,,,,,,,,,,,,,,510.3940554030569,510.3940554030569,510.3940554030569,510.3940554030569,510.3940554030569,510.3940554030569,s,1,0.526672443626012,510.9439995919056,511.96062642508605,,,,,,,,,,,,,550,2023-05-15_10h45.52.565,eb_02psyexp,2022.2.4,60.003767262769315,
235,0,235,0,,,,,,,,,,,,,,,,,,,,,,,,,,,,,,,,,,,,,,,,,,,,,,,,,,,,,,,,,,511.96062642508605,511.96062642508605,511.96062642508605,511.96062642508605,511.96062642508605,511.96062642508605,l,1,0.5430952295473617,512.5272421201844,513.5605084640374,,,,,,,,,,,,,550,2023-05-15_10h45.52.565,eb_02psyexp,2022.2.4,60.003767262769315,
236,0,236,0,,,,,,,,,,,,,,,,,,,,,,,,,,,,,,,,,,,,,,,,,,,,,,,,,,,,,,,,,,513.5605084640374,513.5605084640374,513.5605084640374,513.5605084640374,513.5605084640374,513.5605084640374,s,1,0.39924372282712284,513.9771527438625,514.9937505999169,,,,,,,,,,,,,550,2023-05-15_10h45.52.565,eb_02psyexp,2022.2.4,60.003767262769315,
237,0,237,0,,,,,,,,,,,,,,,,,,,,,,,,,,,,,,,,,,,,,,,,,,,,,,,,,,,,,,,,,,514.9937505999169,514.9937505999169,514.9937505999169,514.9937505999169,514.9937505999169,514.9937505999169,s,1,1.0380266473312076,516.0603297717635,517.0935985303768,,,,,,,,,,,,,550,2023-05-15_10h45.52.565,eb_02psyexp,2022.2.4,60.003767262769315,
238,0,238,0,,,,,,,,,,,,,,,,,,,,,,,,,,,,,,,,,,,,,,,,,,,,,,,,,,,,,,,,,,517.0935985303768,517.0935985303768,517.0935985303768,517.0935985303768,517.0935985303768,517.0935985303768,s,1,0.4582031180261765,517.5768901990305,518.593500430733,,,,,,,,,,,,,550,2023-05-15_10h45.52.565,eb_02psyexp,2022.2.4,60.003767262769315,
239,0,239,0,,,,,,,,,,,,,,,,,,,,,,,,,,,,,,,,,,,,,,,,,,,,,,,,,,,,,,,,,,518.593500430733,518.593500430733,518.593500430733,518.593500430733,518.593500430733,518.593500430733,s,1,0.406265242569134,519.0268029356248,520.0433956603138,,,,,,,,,,,,,550,2023-05-15_10h45.52.565,eb_02psyexp,2022.2.4,60.003767262769315,
240,0,240,0,,,,,,,,,,,,,,,,,,,,,,,,,,,,,,,,,,,,,,,,,,,,,,,,,,,,,,,,,,520.0433956603138,520.0433956603138,520.0433956603138,520.0433956603138,520.0433956603138,520.0433956603138,l,1,0.5243944189724061,520.5933410565422,521.6265841583263,,,,,,,,,,,,,550,2023-05-15_10h45.52.565,eb_02psyexp,2022.2.4,60.003767262769315,
241,0,241,0,,,,,,,,,,,,,,,,,,,,,,,,,,,,,,,,,,,,,,,,,,,,,,,,,,,,,,,,,,521.6265841583263,521.6265841583263,521.6265841583263,521.6265841583263,521.6265841583263,521.6265841583263,l,1,0.5572134284493586,522.2099105995312,523.2265172090929,,,,,,,,,,,,,550,2023-05-15_10h45.52.565,eb_02psyexp,2022.2.4,60.003767262769315,
242,0,242,0,,,,,,,,,,,,,,,,,,,,,,,,,,,,,,,,,,,,,,,,,,,,,,,,,,,,,,,,,,523.2265172090929,523.2265172090929,523.2265172090929,523.2265172090929,523.2265172090929,523.2265172090929,l,1,0.5732842630332016,523.8264025683393,524.8597208295432,,,,,,,,,,,,,550,2023-05-15_10h45.52.565,eb_02psyexp,2022.2.4,60.003767262769315,
243,0,243,0,,,,,,,,,,,,,,,,,,,,,,,,,,,,,,,,,,,,,,,,,,,,,,,,,,,,,,,,,,524.8597208295432,524.8597208295432,524.8597208295432,524.8597208295432,524.8597208295432,524.8597208295432,s,1,0.5480780877669531,525.426341957852,526.4429624522863,,,,,,,,,,,,,550,2023-05-15_10h45.52.565,eb_02psyexp,2022.2.4,60.003767262769315,
244,0,244,0,,,,,,,,,,,,,,,,,,,,,,,,,,,,,,,,,,,,,,,,,,,,,,,,,,,,,,,,,,526.4429624522863,526.4429624522863,526.4429624522863,526.4429624522863,526.4429624522863,526.4429624522863,s,1,0.6598854212734295,527.126224962707,528.1594894954906,,,,,,,,,,,,,550,2023-05-15_10h45.52.565,eb_02psyexp,2022.2.4,60.003767262769315,
245,0,245,0,,,,,,,,,,,,,,,,,,,,,,,,,,,,,,,,,,,,,,,,,,,,,,,,,,,,,,,,,,528.1594894954906,528.1594894954906,528.1594894954906,528.1594894954906,528.1594894954906,528.1594894954906,s,1,0.4153447419157601,528.5927883782415,529.6093964970278,,,,,,,,,,,,,550,2023-05-15_10h45.52.565,eb_02psyexp,2022.2.4,60.003767262769315,
246,0,246,0,,,,,,,,,,,,,,,,,,,,,,,,,,,,,,,,,,,,,,,,,,,,,,,,,,,,,,,,,,529.6093964970278,529.6093964970278,529.6093964970278,529.6093964970278,529.6093964970278,529.6093964970278,l,1,0.4774403072688074,530.1093451833676,531.1426124327563,,,,,,,,,,,,,550,2023-05-15_10h45.52.565,eb_02psyexp,2022.2.4,60.003767262769315,
247,0,247,0,,,,,,,,,,,,,,,,,,,,,,,,,,,,,,,,,,,,,,,,,,,,,,,,,,,,,,,,,,531.1426124327563,531.1426124327563,531.1426124327563,531.1426124327563,531.1426124327563,531.1426124327563,s,1,0.4242316641175421,531.5925798033059,532.6091888276278,,,,,,,,,,,,,550,2023-05-15_10h45.52.565,eb_02psyexp,2022.2.4,60.003767262769315,
248,0,248,0,,,,,,,,,,,,,,,,,,,,,,,,,,,,,,,,,,,,,,,,,,,,,,,,,,,,,,,,,,532.6091888276278,532.6091888276278,532.6091888276278,532.6091888276278,532.6091888276278,532.6091888276278,l,1,0.39766960084853054,533.0258174115097,534.0590786239973,,,,,,,,,,,,,550,2023-05-15_10h45.52.565,eb_02psyexp,2022.2.4,60.003767262769315,
249,0,249,0,,,,,,,,,,,,,,,,,,,,,,,,,,,,,,,,,,,,,,,,,,,,,,,,,,,,,,,,,,534.0590786239973,534.0590786239973,534.0590786239973,534.0590786239973,534.0590786239973,534.0590786239973,s,1,0.3557816566008114,534.4423756654933,535.4589958580827,,,,,,,,,,,,,550,2023-05-15_10h45.52.565,eb_02psyexp,2022.2.4,60.003767262769315,
250,0,250,0,,,,,,,,,,,,,,,,,,,,,,,,,,,,,,,,,,,,,,,,,,,,,,,,,,,,,,,,,,535.4589958580827,535.4589958580827,535.4589958580827,535.4589958580827,535.4589958580827,535.4589958580827,l,1,0.5718658931054961,536.0589340402148,537.0922049117435,,,,,,,,,,,,,550,2023-05-15_10h45.52.565,eb_02psyexp,2022.2.4,60.003767262769315,
251,0,251,0,,,,,,,,,,,,,,,,,,,,,,,,,,,,,,,,,,,,,,,,,,,,,,,,,,,,,,,,,,537.0922049117435,537.0922049117435,537.0922049117435,537.0922049117435,537.0922049117435,537.0922049117435,s,1,0.5146731970316978,537.625485442315,538.6421095588903,,,,,,,,,,,,,550,2023-05-15_10h45.52.565,eb_02psyexp,2022.2.4,60.003767262769315,
252,0,252,0,,,,,,,,,,,,,,,,,,,,,,,,,,,,,,,,,,,,,,,,,,,,,,,,,,,,,,,,,,538.6421095588903,538.6421095588903,538.6421095588903,538.6421095588903,538.6421095588903,538.6421095588903,l,1,1.0127851561928765,539.6753617160257,540.6916435403045,,,,,,,,,,,,,550,2023-05-15_10h45.52.565,eb_02psyexp,2022.2.4,60.003767262769315,
253,0,253,0,,,,,,,,,,,,,,,,,,,,,,,,,,,,,,,,,,,,,,,,,,,,,,,,,,,,,,,,,,540.6916435403045,540.6916435403045,540.6916435403045,540.6916435403045,540.6916435403045,540.6916435403045,l,1,0.5232567649482007,541.2419119107462,542.2585191239978,,,,,,,,,,,,,550,2023-05-15_10h45.52.565,eb_02psyexp,2022.2.4,60.003767262769315,
254,0,254,0,,,,,,,,,,,,,,,,,,,,,,,,,,,,,,,,,,,,,,,,,,,,,,,,,,,,,,,,,,542.2585191239978,542.2585191239978,542.2585191239978,542.2585191239978,542.2585191239978,542.2585191239978,s,0,0.37137889628866105,542.6584758997851,543.6750951868389,,,,,,,,,,,,,550,2023-05-15_10h45.52.565,eb_02psyexp,2022.2.4,60.003767262769315,
255,0,255,0,,,,,,,,,,,,,,,,,,,,,,,,,,,,,,,,,,,,,,,,,,,,,,,,,,,,,,,,,,543.6750951868389,543.6750951868389,543.6750951868389,543.6750951868389,543.6750951868389,543.6750951868389,l,1,0.6428320810255173,544.3416970574335,545.358320570318,,,,,,,,,,,,,550,2023-05-15_10h45.52.565,eb_02psyexp,2022.2.4,60.003767262769315,
256,0,256,0,,,,,,,,,,,,,,,,,,,,,,,,,,,,,,,,,,,,,,,,,,,,,,,,,,,,,,,,,,545.358320570318,545.358320570318,545.358320570318,545.358320570318,545.358320570318,545.358320570318,s,1,0.7116086848936902,546.0915659057555,547.1081740245427,,,,,,,,,,,,,550,2023-05-15_10h45.52.565,eb_02psyexp,2022.2.4,60.003767262769315,
257,0,257,0,,,,,,,,,,,,,,,,,,,,,,,,,,,,,,,,,,,,,,,,,,,,,,,,,,,,,,,,,,547.1081740245427,547.1081740245427,547.1081740245427,547.1081740245427,547.1081740245427,547.1081740245427,l,1,0.6097610309252559,547.7414512951873,548.7580995593671,,,,,,,,,,,,,550,2023-05-15_10h45.52.565,eb_02psyexp,2022.2.4,60.003767262769315,
258,0,258,0,,,,,,,,,,,,,,,,,,,,,,,,,,,,,,,,,,,,,,,,,,,,,,,,,,,,,,,,,,548.7580995593671,548.7580995593671,548.7580995593671,548.7580995593671,548.7580995593671,548.7580995593671,s,1,0.5598512524129546,549.3413608020392,550.3579689208254,,,,,,,,,,,,,550,2023-05-15_10h45.52.565,eb_02psyexp,2022.2.4,60.003767262769315,
259,0,259,0,,,,,,,,,,,,,,,,,,,,,,,,,,,,,,,,,,,,,,,,,,,,,,,,,,,,,,,,,,550.3579689208254,550.3579689208254,550.3579689208254,550.3579689208254,550.3579689208254,550.3579689208254,s,1,0.631991919453867,551.0076095139148,552.0241889574218,,,,,,,,,,,,,550,2023-05-15_10h45.52.565,eb_02psyexp,2022.2.4,60.003767262769315,
260,0,260,0,,,,,,,,,,,,,,,,,,,,,,,,,,,,,,,,,,,,,,,,,,,,,,,,,,,,,,,,,,552.0241889574218,552.0241889574218,552.0241889574218,552.0241889574218,552.0241889574218,552.0241889574218,s,1,0.6297742638116688,552.6744438052037,553.6910534332164,,,,,,,,,,,,,550,2023-05-15_10h45.52.565,eb_02psyexp,2022.2.4,60.003767262769315,
261,0,261,0,,,,,,,,,,,,,,,,,,,,,,,,,,,,,,,,,,,,,,,,,,,,,,,,,,,,,,,,,,553.6910534332164,553.6910534332164,553.6910534332164,553.6910534332164,553.6910534332164,553.6910534332164,l,1,0.5309233275793304,554.2410003386703,555.2576096648372,,,,,,,,,,,,,550,2023-05-15_10h45.52.565,eb_02psyexp,2022.2.4,60.003767262769315,
262,0,262,0,,,,,,,,,,,,,,,,,,,,,,,,,,,,,,,,,,,,,,,,,,,,,,,,,,,,,,,,,,555.2576096648372,555.2576096648372,555.2576096648372,555.2576096648372,555.2576096648372,555.2576096648372,s,1,0.6043649468210788,555.8908890483972,556.9074878099873,,,,,,,,,,,,,550,2023-05-15_10h45.52.565,eb_02psyexp,2022.2.4,60.003767262769315,
263,0,263,0,,,,,,,,,,,,,,,,,,,,,,,,,,,,,,,,,,,,,,,,,,,,,,,,,,,,,,,,,,556.9074878099873,556.9074878099873,556.9074878099873,556.9074878099873,556.9074878099873,556.9074878099873,l,1,0.7624876878880968,557.6907615490445,558.7070687283085,,,,,,,,,,,,,550,2023-05-15_10h45.52.565,eb_02psyexp,2022.2.4,60.003767262769315,
264,0,264,0,,,,,,,,,,,,,,,,,,,,,,,,,,,,,,,,,,,,,,,,,,,,,,,,,,,,,,,,,,558.7070687283085,558.7070687283085,558.7070687283085,558.7070687283085,558.7070687283085,558.7070687283085,l,1,0.6579382188037926,559.3906385169994,560.4072538800674,,,,,,,,,,,,,550,2023-05-15_10h45.52.565,eb_02psyexp,2022.2.4,60.003767262769315,
265,0,265,0,,,,,,,,,,,,,,,,,,,,,,,,,,,,,,,,,,,,,,,,,,,,,,,,,,,,,,,,,,560.4072538800674,560.4072538800674,560.4072538800674,560.4072538800674,560.4072538800674,560.4072538800674,l,1,0.46175824912097596,560.8905259287922,561.9071488379877,,,,,,,,,,,,,550,2023-05-15_10h45.52.565,eb_02psyexp,2022.2.4,60.003767262769315,
266,0,266,0,,,,,,,,,,,,,,,,,,,,,,,,,,,,,,,,,,,,,,,,,,,,,,,,,,,,,,,,,,561.9071488379877,561.9071488379877,561.9071488379877,561.9071488379877,561.9071488379877,561.9071488379877,l,1,0.5538723055014998,562.4904242673774,563.5070375175301,,,,,,,,,,,,,550,2023-05-15_10h45.52.565,eb_02psyexp,2022.2.4,60.003767262769315,
267,0,267,0,,,,,,,,,,,,,,,,,,,,,,,,,,,,,,,,,,,,,,,,,,,,,,,,,,,,,,,,,,563.5070375175301,563.5070375175301,563.5070375175301,563.5070375175301,563.5070375175301,563.5070375175301,s,1,0.5779903293341704,564.1069932066757,565.1236127955744,,,,,,,,,,,,,550,2023-05-15_10h45.52.565,eb_02psyexp,2022.2.4,60.003767262769315,
268,0,268,0,,,,,,,,,,,,,,,,,,,,,,,,,,,,,,,,,,,,,,,,,,,,,,,,,,,,,,,,,,565.1236127955744,565.1236127955744,565.1236127955744,565.1236127955744,565.1236127955744,565.1236127955744,s,1,0.5454339250572957,565.690201928307,566.7068142729249,,,,,,,,,,,,,550,2023-05-15_10h45.52.565,eb_02psyexp,2022.2.4,60.003767262769315,
269,0,269,0,,,,,,,,,,,,,,,,,,,,,,,,,,,,,,,,,,,,,,,,,,,,,,,,,,,,,,,,,,566.7068142729249,566.7068142729249,566.7068142729249,566.7068142729249,566.7068142729249,566.7068142729249,l,1,0.5942383469673587,567.3234161133341,568.3400435502053,,,,,,,,,,,,,550,2023-05-15_10h45.52.565,eb_02psyexp,2022.2.4,60.003767262769315,
270,0,270,0,,,,,,,,,,,,,,,,,,,,,,,,,,,,,,,,,,,,,,,,,,,,,,,,,,,,,,,,,,568.3400435502053,568.3400435502053,568.3400435502053,568.3400435502053,568.3400435502053,568.3400435502053,s,1,2.249030529663287,570.6065322892719,571.6231428228193,,,,,,,,,,,,,550,2023-05-15_10h45.52.565,eb_02psyexp,2022.2.4,60.003767262769315,
271,0,271,0,,,,,,,,,,,,,,,,,,,,,,,,,,,,,,,,,,,,,,,,,,,,,,,,,,,,,,,,,,571.6231428228193,571.6231428228193,571.6231428228193,571.6231428228193,571.6231428228193,571.6231428228193,l,1,0.5339333264982997,572.1897482551849,573.2063587887324,,,,,,,,,,,,,550,2023-05-15_10h45.52.565,eb_02psyexp,2022.2.4,60.003767262769315,
272,0,272,0,,,,,,,,,,,,,,,,,,,,,,,,,,,,,,,,,,,,,,,,,,,,,,,,,,,,,,,,,,573.2063587887324,573.2063587887324,573.2063587887324,573.2063587887324,573.2063587887324,573.2063587887324,l,1,1.093743622916918,574.3229382926074,575.3562100696718,,,,,,,,,,,,,550,2023-05-15_10h45.52.565,eb_02psyexp,2022.2.4,60.003767262769315,
273,0,273,0,,,,,,,,,,,,,,,,,,,,,,,,,,,,,,,,,,,,,,,,,,,,,,,,,,,,,,,,,,575.3562100696718,575.3562100696718,575.3562100696718,575.3562100696718,575.3562100696718,575.3562100696718,s,1,0.6318950271906942,576.0061500930587,577.0227736059442,,,,,,,,,,,,,550,2023-05-15_10h45.52.565,eb_02psyexp,2022.2.4,60.003767262769315,
274,0,274,0,,,,,,,,,,,,,,,,,,,,,,,,,,,,,,,,,,,,,,,,,,,,,,,,,,,,,,,,,,577.0227736059442,577.0227736059442,577.0227736059442,577.0227736059442,577.0227736059442,577.0227736059442,l,1,0.5653357771179799,577.6060402818266,578.6226514190648,,,,,,,,,,,,,550,2023-05-15_10h45.52.565,eb_02psyexp,2022.2.4,60.003767262769315,
275,0,275,0,,,,,,,,,,,,,,,,,,,,,,,,,,,,,,,,,,,,,,,,,,,,,,,,,,,,,,,,,,578.6226514190648,578.6226514190648,578.6226514190648,578.6226514190648,578.6226514190648,578.6226514190648,s,1,0.5094630494832018,579.1559343643958,580.1891783717156,,,,,,,,,,,,,550,2023-05-15_10h45.52.565,eb_02psyexp,2022.2.4,60.003767262769315,
276,0,276,0,,,,,,,,,,,,,,,,,,,,,,,,,,,,,,,,,,,,,,,,,,,,,,,,,,,,,,,,,,580.1891783717156,580.1891783717156,580.1891783717156,580.1891783717156,580.1891783717156,580.1891783717156,s,1,0.5269486318538839,580.739159385661,581.7557309811955,,,,,,,,,,,,,550,2023-05-15_10h45.52.565,eb_02psyexp,2022.2.4,60.003767262769315,
277,0,277,0,,,,,,,,,,,,,,,,,,,,,,,,,,,,,,,,,,,,,,,,,,,,,,,,,,,,,,,,,,581.7557309811955,581.7557309811955,581.7557309811955,581.7557309811955,581.7557309811955,581.7557309811955,l,1,0.4883915478221752,582.27237713246,583.3056534372008,,,,,,,,,,,,,550,2023-05-15_10h45.52.565,eb_02psyexp,2022.2.4,60.003767262769315,
278,0,278,0,,,,,,,,,,,,,,,,,,,,,,,,,,,,,,,,,,,,,,,,,,,,,,,,,,,,,,,,,,583.3056534372008,583.3056534372008,583.3056534372008,583.3056534372008,583.3056534372008,583.3056534372008,s,1,0.4744746795731771,583.8056129899624,584.8221761338355,,,,,,,,,,,,,550,2023-05-15_10h45.52.565,eb_02psyexp,2022.2.4,60.003767262769315,
279,0,279,0,,,,,,,,,,,,,,,,,,,,,,,,,,,,,,,,,,,,,,,,,,,,,,,,,,,,,,,,,,584.8221761338355,584.8221761338355,584.8221761338355,584.8221761338355,584.8221761338355,584.8221761338355,s,1,0.5099752805472235,585.3554986208701,586.3720898363335,,,,,,,,,,,,,550,2023-05-15_10h45.52.565,eb_02psyexp,2022.2.4,60.003767262769315,
280,0,280,0,,,,,,,,,,,,,,,,,,,,,,,,,,,,,,,,,,,,,,,,,,,,,,,,,,,,,,,,,,586.3720898363335,586.3720898363335,586.3720898363335,586.3720898363335,586.3720898363335,586.3720898363335,l,1,0.44805870931395475,586.838731127893,587.855028648115,,,,,,,,,,,,,550,2023-05-15_10h45.52.565,eb_02psyexp,2022.2.4,60.003767262769315,
281,0,281,0,,,,,,,,,,,,,,,,,,,,,,,,,,,,,,,,,,,,,,,,,,,,,,,,,,,,,,,,,,587.855028648115,587.855028648115,587.855028648115,587.855028648115,587.855028648115,587.855028648115,s,1,0.4771363492964156,588.3552930643855,589.3719008813277,,,,,,,,,,,,,550,2023-05-15_10h45.52.565,eb_02psyexp,2022.2.4,60.003767262769315,
282,0,282,0,,,,,,,,,,,,,,,,,,,,,,,,,,,,,,,,,,,,,,,,,,,,,,,,,,,,,,,,,,589.3719008813277,589.3719008813277,589.3719008813277,589.3719008813277,589.3719008813277,589.3719008813277,l,1,0.6073034084620303,590.0051853962532,591.038449023501,,,,,,,,,,,,,550,2023-05-15_10h45.52.565,eb_02psyexp,2022.2.4,60.003767262769315,
283,0,283,0,,,,,,,,,,,,,,,,,,,,,,,,,,,,,,,,,,,,,,,,,,,,,,,,,,,,,,,,,,591.038449023501,591.038449023501,591.038449023501,591.038449023501,591.038449023501,591.038449023501,s,1,0.6207376264619597,591.688389046888,592.7049675848593,,,,,,,,,,,,,550,2023-05-15_10h45.52.565,eb_02psyexp,2022.2.4,60.003767262769315,
284,0,284,0,,,,,,,,,,,,,,,,,,,,,,,,,,,,,,,,,,,,,,,,,,,,,,,,,,,,,,,,,,592.7049675848593,592.7049675848593,592.7049675848593,592.7049675848593,592.7049675848593,592.7049675848593,l,1,0.5942069550801534,593.3216086651264,594.3548783292754,,,,,,,,,,,,,550,2023-05-15_10h45.52.565,eb_02psyexp,2022.2.4,60.003767262769315,
285,0,285,0,,,,,,,,,,,,,,,,,,,,,,,,,,,,,,,,,,,,,,,,,,,,,,,,,,,,,,,,,,594.3548783292754,594.3548783292754,594.3548783292754,594.3548783292754,594.3548783292754,594.3548783292754,s,1,0.5923303843546819,594.971494658248,595.9881076065558,,,,,,,,,,,,,550,2023-05-15_10h45.52.565,eb_02psyexp,2022.2.4,60.003767262769315,
286,0,286,0,,,,,,,,,,,,,,,,,,,,,,,,,,,,,,,,,,,,,,,,,,,,,,,,,,,,,,,,,,595.9881076065558,595.9881076065558,595.9881076065558,595.9881076065558,595.9881076065558,595.9881076065558,l,1,0.5031064944041646,596.5213857223671,597.5546822507258,,,,,,,,,,,,,550,2023-05-15_10h45.52.565,eb_02psyexp,2022.2.4,60.003767262769315,
287,0,287,0,,,,,,,,,,,,,,,,,,,,,,,,,,,,,,,,,,,,,,,,,,,,,,,,,,,,,,,,,,597.5546822507258,597.5546822507258,597.5546822507258,597.5546822507258,597.5546822507258,597.5546822507258,s,1,0.5685471066908576,598.1546237531538,599.1712327774758,,,,,,,,,,,,,550,2023-05-15_10h45.52.565,eb_02psyexp,2022.2.4,60.003767262769315,
288,0,288,0,,,,,,,,,,,,,,,,,,,,,,,,,,,,,,,,,,,,,,,,,,,,,,,,,,,,,,,,,,599.1712327774758,599.1712327774758,599.1712327774758,599.1712327774758,599.1712327774758,599.1712327774758,l,1,0.4640000523677372,599.6544619642027,600.6711165671286,,,,,,,,,,,,,550,2023-05-15_10h45.52.565,eb_02psyexp,2022.2.4,60.003767262769315,
289,0,289,0,,,,,,,,,,,,,,,,,,,,,,,,,,,,,,,,,,,,,,,,,,,,,,,,,,,,,,,,,,600.6711165671286,600.6711165671286,600.6711165671286,600.6711165671286,600.6711165671286,600.6711165671286,s,1,0.5321298022763585,601.2210634725825,602.3209488318298,,,,,,,,,,,,,550,2023-05-15_10h45.52.565,eb_02psyexp,2022.2.4,60.003767262769315,
290,0,290,0,,,,,,,,,,,,,,,,,,,,,,,,,,,,,,,,,,,,,,,,,,,,,,,,,,,,,,,,,,602.3209488318298,602.3209488318298,602.3209488318298,602.3209488318298,602.3209488318298,602.3209488318298,l,1,0.586299218248314,602.9376128523209,603.9542230840234,,,,,,,,,,,,,550,2023-05-15_10h45.52.565,eb_02psyexp,2022.2.4,60.003767262769315,
291,0,291,0,,,,,,,,,,,,,,,,,,,,,,,,,,,,,,,,,,,,,,,,,,,,,,,,,,,,,,,,,,603.9542230840234,603.9542230840234,603.9542230840234,603.9542230840234,603.9542230840234,603.9542230840234,s,1,0.5850326763847988,604.5708291502642,605.5874439096424,,,,,,,,,,,,,550,2023-05-15_10h45.52.565,eb_02psyexp,2022.2.4,60.003767262769315,
292,0,292,0,,,,,,,,,,,,,,,,,,,,,,,,,,,,,,,,,,,,,,,,,,,,,,,,,,,,,,,,,,605.5874439096424,605.5874439096424,605.5874439096424,605.5874439096424,605.5874439096424,605.5874439096424,l,1,1.1188308712307844,606.7373452968623,607.753954924874,,,,,,,,,,,,,550,2023-05-15_10h45.52.565,eb_02psyexp,2022.2.4,60.003767262769315,
293,0,293,0,,,,,,,,,,,,,,,,,,,,,,,,,,,,,,,,,,,,,,,,,,,,,,,,,,,,,,,,,,607.753954924874,607.753954924874,607.753954924874,607.753954924874,607.753954924874,607.753954924874,s,1,0.5763295778242536,608.3538988420623,609.3705090737649,,,,,,,,,,,,,550,2023-05-15_10h45.52.565,eb_02psyexp,2022.2.4,60.003767262769315,
294,0,294,0,,,,,,,,,,,,,,,,,,,,,,,,,,,,,,,,,,,,,,,,,,,,,,,,,,,,,,,,,,609.3705090737649,609.3705090737649,609.3705090737649,609.3705090737649,609.3705090737649,609.3705090737649,s,1,0.551785348769954,609.9537784662534,610.9704089215738,,,,,,,,,,,,,550,2023-05-15_10h45.52.565,eb_02psyexp,2022.2.4,60.003767262769315,
295,0,295,0,,,,,,,,,,,,,,,,,,,,,,,,,,,,,,,,,,,,,,,,,,,,,,,,,,,,,,,,,,610.9704089215738,610.9704089215738,610.9704089215738,610.9704089215738,610.9704089215738,610.9704089215738,l,1,0.4878953145471314,611.4870110034599,612.5036236499227,,,,,,,,,,,,,550,2023-05-15_10h45.52.565,eb_02psyexp,2022.2.4,60.003767262769315,
296,0,296,0,,,,,,,,,,,,,,,,,,,,,,,,,,,,,,,,,,,,,,,,,,,,,,,,,,,,,,,,,,612.5036236499227,612.5036236499227,612.5036236499227,612.5036236499227,612.5036236499227,612.5036236499227,l,1,0.5386852732490297,613.07023632657,614.1035035759587,,,,,,,,,,,,,550,2023-05-15_10h45.52.565,eb_02psyexp,2022.2.4,60.003767262769315,
297,0,297,0,,,,,,,,,,,,,,,,,,,,,,,,,,,,,,,,,,,,,,,,,,,,,,,,,,,,,,,,,,614.1035035759587,614.1035035759587,614.1035035759587,614.1035035759587,614.1035035759587,614.1035035759587,s,1,0.5868096382409931,614.7201253381418,615.7367295329432,,,,,,,,,,,,,550,2023-05-15_10h45.52.565,eb_02psyexp,2022.2.4,60.003767262769315,
298,0,298,0,,,,,,,,,,,,,,,,,,,,,,,,,,,,,,,,,,,,,,,,,,,,,,,,,,,,,,,,,,615.7367295329432,615.7367295329432,615.7367295329432,615.7367295329432,615.7367295329432,615.7367295329432,l,1,0.5375956125881203,616.3033204767462,617.3366148921905,,,,,,,,,,,,,550,2023-05-15_10h45.52.565,eb_02psyexp,2022.2.4,60.003767262769315,
299,0,299,0,,,,,,,,,,,,,,,,,,,,,,,,,,,,,,,,,,,,,,,,,,,,,,,,,,,,,,,,,,617.3366148921905,617.3366148921905,617.3366148921905,617.3366148921905,617.3366148921905,617.3366148921905,s,1,0.4977079955406225,617.8532737209471,618.8698489386225,,,,,,,,,,,,,550,2023-05-15_10h45.52.565,eb_02psyexp,2022.2.4,60.003767262769315,
300,0,300,0,,,,,,,,,,,,,,,,,,,,,,,,,,,,,,,,,,,,,,,,,,,,,,,,,,,,,,,,,,618.8698489386225,618.8698489386225,618.8698489386225,618.8698489386225,618.8698489386225,618.8698489386225,s,1,0.5805016802178216,619.4698013074722,620.5030561812137,,,,,,,,,,,,,550,2023-05-15_10h45.52.565,eb_02psyexp,2022.2.4,60.003767262769315,
