trials.thisRepN,trials.thisTrialN,trials.thisN,trials.thisIndex,image_loop.thisRepN,image_loop.thisTrialN,image_loop.thisN,image_loop.thisIndex,break_loop.thisRepN,break_loop.thisTrialN,break_loop.thisN,break_loop.thisIndex,test_trials.thisRepN,test_trials.thisTrialN,test_trials.thisN,test_trials.thisIndex,distance matrix,tools,welcome_text.started,instructions_0_keypress.started,instructions_0_keypress.keys,instructions_0_keypress.rt,consent_image_0.started,consent0_key_resp.started,consent0_text.started,consent0_key_resp.keys,consent0_key_resp.rt,consent_image_1.started,consent1_key_resp.started,consent1_text.started,consent1_key_resp.keys,consent1_key_resp.rt,consent2_text.started,consent_image_2.started,consent2_key_resp.started,consent2_key_resp.keys,consent2_key_resp.rt,agree_button.started,disagree_button.started,consent_image_3.started,agree_button.numClicks,agree_button.timesOn,agree_button.timesOff,disagree_button.numClicks,disagree_button.timesOn,disagree_button.timesOff,instructions_text1.started,instructions1_key_resp.started,instr1_cnt_text.started,instructions1_key_resp.keys,instructions1_key_resp.rt,instructions_text2.started,instr2_cnt_text.started,instructions2_key_resp.started,instructions2_key_resp.keys,instructions2_key_resp.rt,instructions_text3.started,instructions3_key_resp.started,instr3_cnt_text.started,instructions3_key_resp.keys,instructions3_key_resp.rt,text_countdown.started,image.started,small_large_keyresp.started,task_question_text.started,smalleroption_text.started,largeroption_text.started,accuracy_score_text.started,small_large_keyresp.keys,small_large_keyresp.corr,small_large_keyresp.rt,fb_2.started,fb_2.stopped,break_text.started,break_key_resp.started,break_key_resp.keys,break_key_resp.rt,reveal_seq_text.started,start_test_text.started,continue_to_test.started,continue_to_test.keys,continue_to_test.rt,test_structure_info.started,start_test_text_2.started,continue_to_test_2.started,continue_to_test_2.keys,continue_to_test_2.rt,test_cntdown_text.started,test_cntdown_text.stopped,parent index,left child index,right child index,left distance,right distance,parent_image.started,top_image_text.started,left_child_image.started,right_child_image.started,path_resp.started,child_choice_text.started,left_choice_text.started,right_choice_text.started,path_resp.keys,path_resp.rt,graph.started,debrief_text.started,debriefing_title.started,demo_scr_adv.started,demo_scr_adv_keypress.started,demo_scr_adv_keypress.keys,demo_scr_adv_keypress.rt,text_countdown_2.started,participant,date,expName,psychopyVersion,frameRate,
,,,,,,,,,,,,,,,,"[[0. 1. 1. 2. 2. 3. 4. 5. 5. 6. 6. 7.]
 [1. 0. 2. 1. 1. 2. 3. 4. 4. 5. 5. 6.]
 [1. 2. 0. 1. 1. 2. 3. 4. 4. 5. 5. 6.]
 [2. 1. 1. 0. 1. 1. 2. 3. 3. 4. 4. 5.]
 [2. 1. 1. 1. 0. 1. 2. 3. 3. 4. 4. 5.]
 [3. 2. 2. 1. 1. 0. 1. 2. 2. 3. 3. 4.]
 [4. 3. 3. 2. 2. 1. 0. 1. 1. 2. 2. 3.]
 [5. 4. 4. 3. 3. 2. 1. 0. 1. 1. 1. 2.]
 [5. 4. 4. 3. 3. 2. 1. 1. 0. 1. 1. 2.]
 [6. 5. 5. 4. 4. 3. 2. 1. 1. 0. 2. 1.]
 [6. 5. 5. 4. 4. 3. 2. 1. 1. 2. 0. 1.]
 [7. 6. 6. 5. 5. 4. 3. 2. 2. 1. 1. 0.]]",[11  5  0  9 10  3  7  2  1  4  6  8],11.786595845755073,11.786595845755073,return,435.9337256633007,,,,,,,,,,,,,,,,,,,,,,,,,,,,,,,,,,,,,,,,,,,,,,,,,,,,,,,,,,,,,,,,,,,,,,,,,,,,,,,,,,,,,,,,,,,564,2023-05-16_15h53.27.863,eb_02psyexp,2022.2.4,59.98518910235028,
,,,,,,,,,,,,,,,,,,,,,,447.7390217443026,447.7390217443026,447.7390217443026,space,14.468357554185786,,,,,,,,,,,,,,,,,,,,,,,,,,,,,,,,,,,,,,,,,,,,,,,,,,,,,,,,,,,,,,,,,,,,,,,,,,,,,,,,,,,,,,564,2023-05-16_15h53.27.863,eb_02psyexp,2022.2.4,59.98518910235028,
,,,,,,,,,,,,,,,,,,,,,,,,,,,462.2380328998988,462.2380328998988,462.2380328998988,space,12.768450401723385,,,,,,,,,,,,,,,,,,,,,,,,,,,,,,,,,,,,,,,,,,,,,,,,,,,,,,,,,,,,,,,,,,,,,,,,,,,,,,,,,564,2023-05-16_15h53.27.863,eb_02psyexp,2022.2.4,59.98518910235028,
,,,,,,,,,,,,,,,,,,,,,,,,,,,,,,,,475.0371278476814,475.0371278476814,475.0371278476814,space,3.473378444876289,,,,,,,,,,,,,,,,,,,,,,,,,,,,,,,,,,,,,,,,,,,,,,,,,,,,,,,,,,,,,,,,,,,,,,,,,,,,564,2023-05-16_15h53.27.863,eb_02psyexp,2022.2.4,59.98518910235028,
,,,,,,,,,,,,,,,,,,,,,,,,,,,,,,,,,,,,,478.5369108210725,478.5369108210725,478.5369108210725,1,[7.215511636430165],[7.215515560412314],0,,,485.7527360745298,487.7362580509507,487.7362580509507,space,2.5573460049927235,,,,,,,,,,,,,,,,,,,,,,,,,,,,,,,,,,,,,,,,,,,,,,,,,,,,,,,,,,,,,,564,2023-05-16_15h53.27.863,eb_02psyexp,2022.2.4,59.98518910235028,
,,,,,,,,,,,,,,,,,,,,,,,,,,,,,,,,,,,,,,,,,,,,,,,,,,,490.31940278143156,493.3025251150102,493.3025251150102,space,13.966113939866773,,,,,,,,,,,,,,,,,,,,,,,,,,,,,,,,,,,,,,,,,,,,,,,,,,,,,,,,,564,2023-05-16_15h53.27.863,eb_02psyexp,2022.2.4,59.98518910235028,
,,,,,,,,,,,,,,,,,,,,,,,,,,,,,,,,,,,,,,,,,,,,,,,,,,,,,,,,507.3015586071415,510.2846948255901,510.2846948255901,space,18.382310281624086,,,,,,,,,,,,,,,,,,,,,,,,,,,,,,,,,,,,,,,,,,,,,,,,,,,,564,2023-05-16_15h53.27.863,eb_02psyexp,2022.2.4,59.98518910235028,
0,0,0,0,,,,,,,,,,,,,,,,,,,,,,,,,,,,,,,,,,,,,,,,,,,,,,,,,,,,,,,,,,528.7000695450988,533.7330449103174,533.7330449103174,533.7330449103174,533.7330449103174,533.7330449103174,533.7330449103174,l,1,1.23776875709882,534.9996175623091,536.0328724360443,,,,,,,,,,,,,,,,,,,,,,,,,,,,,,,,,,,,,,,,564,2023-05-16_15h53.27.863,eb_02psyexp,2022.2.4,59.98518910235028,
1,0,1,0,,,,,,,,,,,,,,,,,,,,,,,,,,,,,,,,,,,,,,,,,,,,,,,,,,,,,,,,,,,536.0328724360443,536.0328724360443,536.0328724360443,536.0328724360443,536.0328724360443,536.0328724360443,s,1,0.7699511753598927,536.8328237182577,537.8491164089501,,,,,,,,,,,,,,,,,,,,,,,,,,,,,,,,,,,,,,,,564,2023-05-16_15h53.27.863,eb_02psyexp,2022.2.4,59.98518910235028,
2,0,2,0,,,,,,,,,,,,,,,,,,,,,,,,,,,,,,,,,,,,,,,,,,,,,,,,,,,,,,,,,,,537.8491164089501,537.8491164089501,537.8491164089501,537.8491164089501,537.8491164089501,537.8491164089501,l,1,0.7617086923564784,538.6326941059815,539.6492850196082,,,,,,,,,,,,,,,,,,,,,,,,,,,,,,,,,,,,,,,,564,2023-05-16_15h53.27.863,eb_02psyexp,2022.2.4,59.98518910235028,
3,0,3,0,,,,,,,,,,,,,,,,,,,,,,,,,,,,,,,,,,,,,,,,,,,,,,,,,,,,,,,,,,,539.6492850196082,539.6492850196082,539.6492850196082,539.6492850196082,539.6492850196082,539.6492850196082,s,1,0.6246544345049188,540.2992473795312,541.3158398023661,,,,,,,,,,,,,,,,,,,,,,,,,,,,,,,,,,,,,,,,564,2023-05-16_15h53.27.863,eb_02psyexp,2022.2.4,59.98518910235028,
4,0,4,0,,,,,,,,,,,,,,,,,,,,,,,,,,,,,,,,,,,,,,,,,,,,,,,,,,,,,,,,,,,541.3158398023661,541.3158398023661,541.3158398023661,541.3158398023661,541.3158398023661,541.3158398023661,l,1,0.5900122808670858,541.932480882635,542.9490811534488,,,,,,,,,,,,,,,,,,,,,,,,,,,,,,,,,,,,,,,,564,2023-05-16_15h53.27.863,eb_02psyexp,2022.2.4,59.98518910235028,
5,0,5,0,,,,,,,,,,,,,,,,,,,,,,,,,,,,,,,,,,,,,,,,,,,,,,,,,,,,,,,,,,,542.9490811534488,542.9490811534488,542.9490811534488,542.9490811534488,542.9490811534488,542.9490811534488,s,1,0.9168932736210991,543.8989700442908,544.9322415195056,,,,,,,,,,,,,,,,,,,,,,,,,,,,,,,,,,,,,,,,564,2023-05-16_15h53.27.863,eb_02psyexp,2022.2.4,59.98518910235028,
6,0,6,0,,,,,,,,,,,,,,,,,,,,,,,,,,,,,,,,,,,,,,,,,,,,,,,,,,,,,,,,,,,544.9322415195056,544.9322415195056,544.9322415195056,544.9322415195056,544.9322415195056,544.9322415195056,l,1,1.2296358438616153,546.1821912622981,547.2154494563438,,,,,,,,,,,,,,,,,,,,,,,,,,,,,,,,,,,,,,,,564,2023-05-16_15h53.27.863,eb_02psyexp,2022.2.4,59.98518910235028,
7,0,7,0,,,,,,,,,,,,,,,,,,,,,,,,,,,,,,,,,,,,,,,,,,,,,,,,,,,,,,,,,,,547.2154494563438,547.2154494563438,547.2154494563438,547.2154494563438,547.2154494563438,547.2154494563438,s,1,0.5944355183601147,547.8320633705589,548.8486343623954,,,,,,,,,,,,,,,,,,,,,,,,,,,,,,,,,,,,,,,,564,2023-05-16_15h53.27.863,eb_02psyexp,2022.2.4,59.98518910235028,
8,0,8,0,,,,,,,,,,,,,,,,,,,,,,,,,,,,,,,,,,,,,,,,,,,,,,,,,,,,,,,,,,,548.8486343623954,548.8486343623954,548.8486343623954,548.8486343623954,548.8486343623954,548.8486343623954,l,1,0.521264352282742,549.3986217150959,550.431877796218,,,,,,,,,,,,,,,,,,,,,,,,,,,,,,,,,,,,,,,,564,2023-05-16_15h53.27.863,eb_02psyexp,2022.2.4,59.98518910235028,
9,0,9,0,,,,,,,,,,,,,,,,,,,,,,,,,,,,,,,,,,,,,,,,,,,,,,,,,,,,,,,,,,,550.431877796218,550.431877796218,550.431877796218,550.431877796218,550.431877796218,550.431877796218,s,1,0.5300269143190235,550.9818539806292,551.998415917129,,,,,,,,,,,,,,,,,,,,,,,,,,,,,,,,,,,,,,,,564,2023-05-16_15h53.27.863,eb_02psyexp,2022.2.4,59.98518910235028,
10,0,10,0,,,,,,,,,,,,,,,,,,,,,,,,,,,,,,,,,,,,,,,,,,,,,,,,,,,,,,,,,,,551.998415917129,551.998415917129,551.998415917129,551.998415917129,551.998415917129,551.998415917129,l,1,0.5314821093343198,552.5483803295938,553.5649649044644,,,,,,,,,,,,,,,,,,,,,,,,,,,,,,,,,,,,,,,,564,2023-05-16_15h53.27.863,eb_02psyexp,2022.2.4,59.98518910235028,
11,0,11,0,,,,,,,,,,,,,,,,,,,,,,,,,,,,,,,,,,,,,,,,,,,,,,,,,,,,,,,,,,,553.5649649044644,553.5649649044644,553.5649649044644,553.5649649044644,553.5649649044644,553.5649649044644,s,1,0.5969562264363049,554.1816159456212,555.1982098776934,,,,,,,,,,,,,,,,,,,,,,,,,,,,,,,,,,,,,,,,564,2023-05-16_15h53.27.863,eb_02psyexp,2022.2.4,59.98518910235028,
12,0,12,0,,,,,,,,,,,,,,,,,,,,,,,,,,,,,,,,,,,,,,,,,,,,,,,,,,,,,,,,,,,555.1982098776934,555.1982098776934,555.1982098776934,555.1982098776934,555.1982098776934,555.1982098776934,s,1,0.5877279174746946,555.8148566930176,556.8314279867045,,,,,,,,,,,,,,,,,,,,,,,,,,,,,,,,,,,,,,,,564,2023-05-16_15h53.27.863,eb_02psyexp,2022.2.4,59.98518910235028,
13,0,13,0,,,,,,,,,,,,,,,,,,,,,,,,,,,,,,,,,,,,,,,,,,,,,,,,,,,,,,,,,,,556.8314279867045,556.8314279867045,556.8314279867045,556.8314279867045,556.8314279867045,556.8314279867045,l,1,0.4255190998519538,557.2814116568916,558.3146650214039,,,,,,,,,,,,,,,,,,,,,,,,,,,,,,,,,,,,,,,,564,2023-05-16_15h53.27.863,eb_02psyexp,2022.2.4,59.98518910235028,
14,0,14,0,,,,,,,,,,,,,,,,,,,,,,,,,,,,,,,,,,,,,,,,,,,,,,,,,,,,,,,,,,,558.3146650214039,558.3146650214039,558.3146650214039,558.3146650214039,558.3146650214039,558.3146650214039,s,1,0.43824398196011316,558.7812785432179,559.7978966228984,,,,,,,,,,,,,,,,,,,,,,,,,,,,,,,,,,,,,,,,564,2023-05-16_15h53.27.863,eb_02psyexp,2022.2.4,59.98518910235028,
15,0,15,0,,,,,,,,,,,,,,,,,,,,,,,,,,,,,,,,,,,,,,,,,,,,,,,,,,,,,,,,,,,559.7978966228984,559.7978966228984,559.7978966228984,559.7978966228984,559.7978966228984,559.7978966228984,l,1,0.4350537815480493,560.2645306701743,561.2977915808151,,,,,,,,,,,,,,,,,,,,,,,,,,,,,,,,,,,,,,,,564,2023-05-16_15h53.27.863,eb_02psyexp,2022.2.4,59.98518910235028,
16,0,16,0,,,,,,,,,,,,,,,,,,,,,,,,,,,,,,,,,,,,,,,,,,,,,,,,,,,,,,,,,,,561.2977915808151,561.2977915808151,561.2977915808151,561.2977915808151,561.2977915808151,561.2977915808151,s,1,0.543159589113202,561.8644105962012,562.8810072448832,,,,,,,,,,,,,,,,,,,,,,,,,,,,,,,,,,,,,,,,564,2023-05-16_15h53.27.863,eb_02psyexp,2022.2.4,59.98518910235028,
17,0,17,0,,,,,,,,,,,,,,,,,,,,,,,,,,,,,,,,,,,,,,,,,,,,,,,,,,,,,,,,,,,562.8810072448832,562.8810072448832,562.8810072448832,562.8810072448832,562.8810072448832,562.8810072448832,l,1,0.47198150595068,563.3809634773497,564.4142470263614,,,,,,,,,,,,,,,,,,,,,,,,,,,,,,,,,,,,,,,,564,2023-05-16_15h53.27.863,eb_02psyexp,2022.2.4,59.98518910235028,
18,0,18,0,,,,,,,,,,,,,,,,,,,,,,,,,,,,,,,,,,,,,,,,,,,,,,,,,,,,,,,,,,,564.4142470263614,564.4142470263614,564.4142470263614,564.4142470263614,564.4142470263614,564.4142470263614,s,1,0.49873312792624347,564.9308611820597,565.9474608491873,,,,,,,,,,,,,,,,,,,,,,,,,,,,,,,,,,,,,,,,564,2023-05-16_15h53.27.863,eb_02psyexp,2022.2.4,59.98518910235028,
19,0,19,0,,,,,,,,,,,,,,,,,,,,,,,,,,,,,,,,,,,,,,,,,,,,,,,,,,,,,,,,,,,565.9474608491873,565.9474608491873,565.9474608491873,565.9474608491873,565.9474608491873,565.9474608491873,l,1,0.45353032124694437,566.4307564418268,567.4473603347724,,,,,,,,,,,,,,,,,,,,,,,,,,,,,,,,,,,,,,,,564,2023-05-16_15h53.27.863,eb_02psyexp,2022.2.4,59.98518910235028,
20,0,20,0,,,,,,,,,,,,,,,,,,,,,,,,,,,,,,,,,,,,,,,,,,,,,,,,,,,,,,,,,,,567.4473603347724,567.4473603347724,567.4473603347724,567.4473603347724,567.4473603347724,567.4473603347724,s,1,0.6736526409367798,568.1473127639911,569.1639133366552,,,,,,,,,,,,,,,,,,,,,,,,,,,,,,,,,,,,,,,,564,2023-05-16_15h53.27.863,eb_02psyexp,2022.2.4,59.98518910235028,
21,0,21,0,,,,,,,,,,,,,,,,,,,,,,,,,,,,,,,,,,,,,,,,,,,,,,,,,,,,,,,,,,,569.1639133366552,569.1639133366552,569.1639133366552,569.1639133366552,569.1639133366552,569.1639133366552,l,1,0.4610897288803244,569.6471914222784,570.6638019558304,,,,,,,,,,,,,,,,,,,,,,,,,,,,,,,,,,,,,,,,564,2023-05-16_15h53.27.863,eb_02psyexp,2022.2.4,59.98518910235028,
22,0,22,0,,,,,,,,,,,,,,,,,,,,,,,,,,,,,,,,,,,,,,,,,,,,,,,,,,,,,,,,,,,570.6638019558304,570.6638019558304,570.6638019558304,570.6638019558304,570.6638019558304,570.6638019558304,s,1,0.4892096144903917,571.1804152059776,572.1969883107377,,,,,,,,,,,,,,,,,,,,,,,,,,,,,,,,,,,,,,,,564,2023-05-16_15h53.27.863,eb_02psyexp,2022.2.4,59.98518910235028,
23,0,23,0,,,,,,,,,,,,,,,,,,,,,,,,,,,,,,,,,,,,,,,,,,,,,,,,,,,,,,,,,,,572.1969883107377,572.1969883107377,572.1969883107377,572.1969883107377,572.1969883107377,572.1969883107377,s,1,0.5630680817703251,572.7803259202192,573.8135943769885,,,,,,,,,,,,,,,,,,,,,,,,,,,,,,,,,,,,,,,,564,2023-05-16_15h53.27.863,eb_02psyexp,2022.2.4,59.98518910235028,
24,0,24,0,,,,,,,,,,,,,,,,,,,,,,,,,,,,,,,,,,,,,,,,,,,,,,,,,,,,,,,,,,,573.8135943769885,573.8135943769885,573.8135943769885,573.8135943769885,573.8135943769885,573.8135943769885,s,1,0.794441072299378,574.6301803403476,575.6467311085726,,,,,,,,,,,,,,,,,,,,,,,,,,,,,,,,,,,,,,,,564,2023-05-16_15h53.27.863,eb_02psyexp,2022.2.4,59.98518910235028,
25,0,25,0,,,,,,,,,,,,,,,,,,,,,,,,,,,,,,,,,,,,,,,,,,,,,,,,,,,,,,,,,,,575.6467311085726,575.6467311085726,575.6467311085726,575.6467311085726,575.6467311085726,575.6467311085726,s,1,0.4732709880336188,576.1467332214816,577.1800164686574,,,,,,,,,,,,,,,,,,,,,,,,,,,,,,,,,,,,,,,,564,2023-05-16_15h53.27.863,eb_02psyexp,2022.2.4,59.98518910235028,
26,0,26,0,,,,,,,,,,,,,,,,,,,,,,,,,,,,,,,,,,,,,,,,,,,,,,,,,,,,,,,,,,,577.1800164686574,577.1800164686574,577.1800164686574,577.1800164686574,577.1800164686574,577.1800164686574,s,1,0.4280268285947386,577.6299865558103,578.6465750546777,,,,,,,,,,,,,,,,,,,,,,,,,,,,,,,,,,,,,,,,564,2023-05-16_15h53.27.863,eb_02psyexp,2022.2.4,59.98518910235028,
27,0,27,0,,,,,,,,,,,,,,,,,,,,,,,,,,,,,,,,,,,,,,,,,,,,,,,,,,,,,,,,,,,578.6465750546777,578.6465750546777,578.6465750546777,578.6465750546777,578.6465750546777,578.6465750546777,l,1,0.5935112687875517,579.263191685488,580.2964577274979,,,,,,,,,,,,,,,,,,,,,,,,,,,,,,,,,,,,,,,,564,2023-05-16_15h53.27.863,eb_02psyexp,2022.2.4,59.98518910235028,
28,0,28,0,,,,,,,,,,,,,,,,,,,,,,,,,,,,,,,,,,,,,,,,,,,,,,,,,,,,,,,,,,,580.2964577274979,580.2964577274979,580.2964577274979,580.2964577274979,580.2964577274979,580.2964577274979,s,1,0.42362985163345,580.7464196648361,581.763038951889,,,,,,,,,,,,,,,,,,,,,,,,,,,,,,,,,,,,,,,,564,2023-05-16_15h53.27.863,eb_02psyexp,2022.2.4,59.98518910235028,
29,0,29,0,,,,,,,,,,,,,,,,,,,,,,,,,,,,,,,,,,,,,,,,,,,,,,,,,,,,,,,,,,,581.763038951889,581.763038951889,581.763038951889,581.763038951889,581.763038951889,581.763038951889,l,1,0.48502060877217446,582.2796627666248,583.2962117237767,,,,,,,,,,,,,,,,,,,,,,,,,,,,,,,,,,,,,,,,564,2023-05-16_15h53.27.863,eb_02psyexp,2022.2.4,59.98518910235028,
30,0,30,0,,,,,,,,,,,,,,,,,,,,,,,,,,,,,,,,,,,,,,,,,,,,,,,,,,,,,,,,,,,583.2962117237767,583.2962117237767,583.2962117237767,583.2962117237767,583.2962117237767,583.2962117237767,l,1,0.4798656988714356,583.796236475071,584.8128213517921,,,,,,,,,,,,,,,,,,,,,,,,,,,,,,,,,,,,,,,,564,2023-05-16_15h53.27.863,eb_02psyexp,2022.2.4,59.98518910235028,
31,0,31,0,,,,,,,,,,,,,,,,,,,,,,,,,,,,,,,,,,,,,,,,,,,,,,,,,,,,,,,,,,,584.8128213517921,584.8128213517921,584.8128213517921,584.8128213517921,584.8128213517921,584.8128213517921,s,1,0.49929305049590766,585.3294599569199,586.3460327598441,,,,,,,,,,,,,,,,,,,,,,,,,,,,,,,,,,,,,,,,564,2023-05-16_15h53.27.863,eb_02psyexp,2022.2.4,59.98518910235028,
32,0,32,0,,,,,,,,,,,,,,,,,,,,,,,,,,,,,,,,,,,,,,,,,,,,,,,,,,,,,,,,,,,586.3460327598441,586.3460327598441,586.3460327598441,586.3460327598441,586.3460327598441,586.3460327598441,l,1,0.3900423446466448,586.7626619474177,587.7792643311404,,,,,,,,,,,,,,,,,,,,,,,,,,,,,,,,,,,,,,,,564,2023-05-16_15h53.27.863,eb_02psyexp,2022.2.4,59.98518910235028,
33,0,33,0,,,,,,,,,,,,,,,,,,,,,,,,,,,,,,,,,,,,,,,,,,,,,,,,,,,,,,,,,,,587.7792643311404,587.7792643311404,587.7792643311404,587.7792643311404,587.7792643311404,587.7792643311404,s,1,0.4118998508347431,588.2125058633392,589.2458455555316,,,,,,,,,,,,,,,,,,,,,,,,,,,,,,,,,,,,,,,,564,2023-05-16_15h53.27.863,eb_02psyexp,2022.2.4,59.98518910235028,
34,0,34,0,,,,,,,,,,,,,,,,,,,,,,,,,,,,,,,,,,,,,,,,,,,,,,,,,,,,,,,,,,,589.2458455555316,589.2458455555316,589.2458455555316,589.2458455555316,589.2458455555316,589.2458455555316,s,1,0.4252525706688175,589.6957893821673,590.7124128950527,,,,,,,,,,,,,,,,,,,,,,,,,,,,,,,,,,,,,,,,564,2023-05-16_15h53.27.863,eb_02psyexp,2022.2.4,59.98518910235028,
35,0,35,0,,,,,,,,,,,,,,,,,,,,,,,,,,,,,,,,,,,,,,,,,,,,,,,,,,,,,,,,,,,590.7124128950527,590.7124128950527,590.7124128950527,590.7124128950527,590.7124128950527,590.7124128950527,s,1,0.41470459511037916,591.1456939689524,592.1622755253775,,,,,,,,,,,,,,,,,,,,,,,,,,,,,,,,,,,,,,,,564,2023-05-16_15h53.27.863,eb_02psyexp,2022.2.4,59.98518910235028,
36,0,36,0,,,,,,,,,,,,,,,,,,,,,,,,,,,,,,,,,,,,,,,,,,,,,,,,,,,,,,,,,,,592.1622755253775,592.1622755253775,592.1622755253775,592.1622755253775,592.1622755253775,592.1622755253775,s,1,0.428834565973375,592.612248630976,593.6455143711355,,,,,,,,,,,,,,,,,,,,,,,,,,,,,,,,,,,,,,,,564,2023-05-16_15h53.27.863,eb_02psyexp,2022.2.4,59.98518910235028,
37,0,37,0,,,,,,,,,,,,,,,,,,,,,,,,,,,,,,,,,,,,,,,,,,,,,,,,,,,,,,,,,,,593.6455143711355,593.6455143711355,593.6455143711355,593.6455143711355,593.6455143711355,593.6455143711355,s,1,0.38563299202360213,594.0621797801141,595.0787272280431,,,,,,,,,,,,,,,,,,,,,,,,,,,,,,,,,,,,,,,,564,2023-05-16_15h53.27.863,eb_02psyexp,2022.2.4,59.98518910235028,
38,0,38,0,,,,,,,,,,,,,,,,,,,,,,,,,,,,,,,,,,,,,,,,,,,,,,,,,,,,,,,,,,,595.0787272280431,595.0787272280431,595.0787272280431,595.0787272280431,595.0787272280431,595.0787272280431,s,1,0.4084425175387878,595.5120544842357,596.5286405683291,,,,,,,,,,,,,,,,,,,,,,,,,,,,,,,,,,,,,,,,564,2023-05-16_15h53.27.863,eb_02psyexp,2022.2.4,59.98518910235028,
39,0,39,0,,,,,,,,,,,,,,,,,,,,,,,,,,,,,,,,,,,,,,,,,,,,,,,,,,,,,,,,,,,596.5286405683291,596.5286405683291,596.5286405683291,596.5286405683291,596.5286405683291,596.5286405683291,l,1,0.45454150218574796,597.0119322369865,598.0285651070735,,,,,,,,,,,,,,,,,,,,,,,,,,,,,,,,,,,,,,,,564,2023-05-16_15h53.27.863,eb_02psyexp,2022.2.4,59.98518910235028,
40,0,40,0,,,,,,,,,,,,,,,,,,,,,,,,,,,,,,,,,,,,,,,,,,,,,,,,,,,,,,,,,,,598.0285651070735,598.0285651070735,598.0285651070735,598.0285651070735,598.0285651070735,598.0285651070735,s,1,0.4345934678276535,598.4951789307233,599.5284422561235,,,,,,,,,,,,,,,,,,,,,,,,,,,,,,,,,,,,,,,,564,2023-05-16_15h53.27.863,eb_02psyexp,2022.2.4,59.98518910235028,
41,0,41,0,,,,,,,,,,,,,,,,,,,,,,,,,,,,,,,,,,,,,,,,,,,,,,,,,,,,,,,,,,,599.5284422561235,599.5284422561235,599.5284422561235,599.5284422561235,599.5284422561235,599.5284422561235,s,1,0.47073548955086153,600.0284057328827,601.0450334715861,,,,,,,,,,,,,,,,,,,,,,,,,,,,,,,,,,,,,,,,564,2023-05-16_15h53.27.863,eb_02psyexp,2022.2.4,59.98518910235028,
42,0,42,0,,,,,,,,,,,,,,,,,,,,,,,,,,,,,,,,,,,,,,,,,,,,,,,,,,,,,,,,,,,601.0450334715861,601.0450334715861,601.0450334715861,601.0450334715861,601.0450334715861,601.0450334715861,s,1,0.4181697763851844,601.4949812222185,602.5282083262136,,,,,,,,,,,,,,,,,,,,,,,,,,,,,,,,,,,,,,,,564,2023-05-16_15h53.27.863,eb_02psyexp,2022.2.4,59.98518910235028,
43,0,43,0,,,,,,,,,,,,,,,,,,,,,,,,,,,,,,,,,,,,,,,,,,,,,,,,,,,,,,,,,,,602.5282083262136,602.5282083262136,602.5282083262136,602.5282083262136,602.5282083262136,602.5282083262136,s,1,0.46204023897007573,603.0115057299263,604.0281570125517,,,,,,,,,,,,,,,,,,,,,,,,,,,,,,,,,,,,,,,,564,2023-05-16_15h53.27.863,eb_02psyexp,2022.2.4,59.98518910235028,
44,0,44,0,,,,,,,,,,,,,,,,,,,,,,,,,,,,,,,,,,,,,,,,,,,,,,,,,,,,,,,,,,,604.0281570125517,604.0281570125517,604.0281570125517,604.0281570125517,604.0281570125517,604.0281570125517,s,1,0.49805820237088483,604.5447708663851,605.5780305696535,,,,,,,,,,,,,,,,,,,,,,,,,,,,,,,,,,,,,,,,564,2023-05-16_15h53.27.863,eb_02psyexp,2022.2.4,59.98518910235028,
45,0,45,0,,,,,,,,,,,,,,,,,,,,,,,,,,,,,,,,,,,,,,,,,,,,,,,,,,,,,,,,,,,605.5780305696535,605.5780305696535,605.5780305696535,605.5780305696535,605.5780305696535,605.5780305696535,s,1,0.4041877096024109,606.0113191896671,607.0279230826272,,,,,,,,,,,,,,,,,,,,,,,,,,,,,,,,,,,,,,,,564,2023-05-16_15h53.27.863,eb_02psyexp,2022.2.4,59.98518910235028,
46,0,46,0,,,,,,,,,,,,,,,,,,,,,,,,,,,,,,,,,,,,,,,,,,,,,,,,,,,,,,,,,,,607.0279230826272,607.0279230826272,607.0279230826272,607.0279230826272,607.0279230826272,607.0279230826272,s,1,0.4342744176101405,607.4945435468835,608.5278298125049,,,,,,,,,,,,,,,,,,,,,,,,,,,,,,,,,,,,,,,,564,2023-05-16_15h53.27.863,eb_02psyexp,2022.2.4,59.98518910235028,
47,0,47,0,,,,,,,,,,,,,,,,,,,,,,,,,,,,,,,,,,,,,,,,,,,,,,,,,,,,,,,,,,,608.5278298125049,608.5278298125049,608.5278298125049,608.5278298125049,608.5278298125049,608.5278298125049,s,1,0.4464082870981656,608.9944472583011,610.0110517549474,,,,,,,,,,,,,,,,,,,,,,,,,,,,,,,,,,,,,,,,564,2023-05-16_15h53.27.863,eb_02psyexp,2022.2.4,59.98518910235028,
48,0,48,0,,,,,,,,,,,,,,,,,,,,,,,,,,,,,,,,,,,,,,,,,,,,,,,,,,,,,,,,,,,610.0110517549474,610.0110517549474,610.0110517549474,610.0110517549474,610.0110517549474,610.0110517549474,s,1,0.45917814412678126,610.494340706995,611.5109077748639,,,,,,,,,,,,,,,,,,,,,,,,,,,,,,,,,,,,,,,,564,2023-05-16_15h53.27.863,eb_02psyexp,2022.2.4,59.98518910235028,
49,0,49,0,,,,,,,,,,,,,,,,,,,,,,,,,,,,,,,,,,,,,,,,,,,,,,,,,,,,,,,,,,,611.5109077748639,611.5109077748639,611.5109077748639,611.5109077748639,611.5109077748639,611.5109077748639,l,1,0.4953850625315681,612.0275717349869,613.044128540103,,,,,,,,,,,,,,,,,,,,,,,,,,,,,,,,,,,,,,,,564,2023-05-16_15h53.27.863,eb_02psyexp,2022.2.4,59.98518910235028,
50,0,50,0,,,,,,,,,,,,,,,,,,,,,,,,,,,,,,,,,,,,,,,,,,,,,,,,,,,,,,,,,,,613.044128540103,613.044128540103,613.044128540103,613.044128540103,613.044128540103,613.044128540103,l,1,0.3941160455433419,613.4608063247288,614.4773806368758,,,,,,,,,,,,,,,,,,,,,,,,,,,,,,,,,,,,,,,,564,2023-05-16_15h53.27.863,eb_02psyexp,2022.2.4,59.98518910235028,
51,0,51,0,,,,,,,,,,,,,,,,,,,,,,,,,,,,,,,,,,,,,,,,,,,,,,,,,,,,,,,,,,,614.4773806368758,614.4773806368758,614.4773806368758,614.4773806368758,614.4773806368758,614.4773806368758,l,1,0.5208849330374505,615.0273556139146,616.04396524193,,,,,,,,,,,,,,,,,,,,,,,,,,,,,,,,,,,,,,,,564,2023-05-16_15h53.27.863,eb_02psyexp,2022.2.4,59.98518910235028,
52,0,52,0,,,,,,,,,,,,,,,,,,,,,,,,,,,,,,,,,,,,,,,,,,,,,,,,,,,,,,,,,,,616.04396524193,616.04396524193,616.04396524193,616.04396524193,616.04396524193,616.04396524193,l,0,0.41832492472894955,616.4939229534357,617.5272022766294,,,,,,,,,,,,,,,,,,,,,,,,,,,,,,,,,,,,,,,,564,2023-05-16_15h53.27.863,eb_02psyexp,2022.2.4,59.98518910235028,
53,0,53,0,,,,,,,,,,,,,,,,,,,,,,,,,,,,,,,,,,,,,,,,,,,,,,,,,,,,,,,,,,,617.5272022766294,617.5272022766294,617.5272022766294,617.5272022766294,617.5272022766294,617.5272022766294,s,1,0.5750966073246673,618.1271546454809,619.1437461627938,,,,,,,,,,,,,,,,,,,,,,,,,,,,,,,,,,,,,,,,564,2023-05-16_15h53.27.863,eb_02psyexp,2022.2.4,59.98518910235028,
54,0,54,0,,,,,,,,,,,,,,,,,,,,,,,,,,,,,,,,,,,,,,,,,,,,,,,,,,,,,,,,,,,619.1437461627938,619.1437461627938,619.1437461627938,619.1437461627938,619.1437461627938,619.1437461627938,s,1,0.4295366575825028,619.5937422086135,620.6103207465931,,,,,,,,,,,,,,,,,,,,,,,,,,,,,,,,,,,,,,,,564,2023-05-16_15h53.27.863,eb_02psyexp,2022.2.4,59.98518910235028,
55,0,55,0,,,,,,,,,,,,,,,,,,,,,,,,,,,,,,,,,,,,,,,,,,,,,,,,,,,,,,,,,,,620.6103207465931,620.6103207465931,620.6103207465931,620.6103207465931,620.6103207465931,620.6103207465931,s,1,0.38697982467419934,621.0269396714284,622.0435221333901,,,,,,,,,,,,,,,,,,,,,,,,,,,,,,,,,,,,,,,,564,2023-05-16_15h53.27.863,eb_02psyexp,2022.2.4,59.98518910235028,
56,0,56,0,,,,,,,,,,,,,,,,,,,,,,,,,,,,,,,,,,,,,,,,,,,,,,,,,,,,,,,,,,,622.0435221333901,622.0435221333901,622.0435221333901,622.0435221333901,622.0435221333901,622.0435221333901,l,1,0.5137828206788981,622.5768364706018,623.5934319118969,,,,,,,,,,,,,,,,,,,,,,,,,,,,,,,,,,,,,,,,564,2023-05-16_15h53.27.863,eb_02psyexp,2022.2.4,59.98518910235028,
57,0,57,0,,,,,,,,,,,,,,,,,,,,,,,,,,,,,,,,,,,,,,,,,,,,,,,,,,,,,,,,,,,623.5934319118969,623.5934319118969,623.5934319118969,623.5934319118969,623.5934319118969,623.5934319118969,s,1,0.4358470303559443,624.0600315488409,625.093328379051,,,,,,,,,,,,,,,,,,,,,,,,,,,,,,,,,,,,,,,,564,2023-05-16_15h53.27.863,eb_02psyexp,2022.2.4,59.98518910235028,
58,0,58,0,,,,,,,,,,,,,,,,,,,,,,,,,,,,,,,,,,,,,,,,,,,,,,,,,,,,,,,,,,,625.093328379051,625.093328379051,625.093328379051,625.093328379051,625.093328379051,625.093328379051,s,1,0.4720008240401512,625.5932936668687,626.6098712992971,,,,,,,,,,,,,,,,,,,,,,,,,,,,,,,,,,,,,,,,564,2023-05-16_15h53.27.863,eb_02psyexp,2022.2.4,59.98518910235028,
59,0,59,0,,,,,,,,,,,,,,,,,,,,,,,,,,,,,,,,,,,,,,,,,,,,,,,,,,,,,,,,,,,626.6098712992971,626.6098712992971,626.6098712992971,626.6098712992971,626.6098712992971,626.6098712992971,s,1,0.5154610791942105,627.1431889568048,628.1597940571519,,,,,,,,,,,,,,,,,,,,,,,,,,,,,,,,,,,,,,,,564,2023-05-16_15h53.27.863,eb_02psyexp,2022.2.4,59.98518910235028,
60,0,60,0,,,,,,,,,,,,,,,,,,,,,,,,,,,,,,,,,,,,,,,,,,,,,,,,,,,,,,,,,,,628.1597940571519,628.1597940571519,628.1597940571519,628.1597940571519,628.1597940571519,628.1597940571519,l,1,0.48555517637578305,628.6763955353381,629.7096419574227,,,,,,,,,,,,,,,,,,,,,,,,,,,,,,,,,,,,,,,,564,2023-05-16_15h53.27.863,eb_02psyexp,2022.2.4,59.98518910235028,
61,0,61,0,,,,,,,,,,,,,,,,,,,,,,,,,,,,,,,,,,,,,,,,,,,,,,,,,,,,,,,,,,,629.7096419574227,629.7096419574227,629.7096419574227,629.7096419574227,629.7096419574227,629.7096419574227,s,1,0.48771849990589544,630.2262992769538,631.2595610931312,,,,,,,,,,,,,,,,,,,,,,,,,,,,,,,,,,,,,,,,564,2023-05-16_15h53.27.863,eb_02psyexp,2022.2.4,59.98518910235028,
62,0,62,0,,,,,,,,,,,,,,,,,,,,,,,,,,,,,,,,,,,,,,,,,,,,,,,,,,,,,,,,,,,631.2595610931312,631.2595610931312,631.2595610931312,631.2595610931312,631.2595610931312,631.2595610931312,l,1,0.5537996274069883,631.8428570479882,632.859395440566,,,,,,,,,,,,,,,,,,,,,,,,,,,,,,,,,,,,,,,,564,2023-05-16_15h53.27.863,eb_02psyexp,2022.2.4,59.98518910235028,
63,0,63,0,,,,,,,,,,,,,,,,,,,,,,,,,,,,,,,,,,,,,,,,,,,,,,,,,,,,,,,,,,,632.859395440566,632.859395440566,632.859395440566,632.859395440566,632.859395440566,632.859395440566,l,1,0.5539753012271831,633.4427354647923,634.4760184101324,,,,,,,,,,,,,,,,,,,,,,,,,,,,,,,,,,,,,,,,564,2023-05-16_15h53.27.863,eb_02psyexp,2022.2.4,59.98518910235028,
64,0,64,0,,,,,,,,,,,,,,,,,,,,,,,,,,,,,,,,,,,,,,,,,,,,,,,,,,,,,,,,,,,634.4760184101324,634.4760184101324,634.4760184101324,634.4760184101324,634.4760184101324,634.4760184101324,l,1,0.5443947390740504,635.042642858738,636.0592328668135,,,,,,,,,,,,,,,,,,,,,,,,,,,,,,,,,,,,,,,,564,2023-05-16_15h53.27.863,eb_02psyexp,2022.2.4,59.98518910235028,
65,0,65,0,,,,,,,,,,,,,,,,,,,,,,,,,,,,,,,,,,,,,,,,,,,,,,,,,,,,,,,,,,,636.0592328668135,636.0592328668135,636.0592328668135,636.0592328668135,636.0592328668135,636.0592328668135,l,1,0.4651534688891843,636.5425354018953,637.5757978217589,,,,,,,,,,,,,,,,,,,,,,,,,,,,,,,,,,,,,,,,564,2023-05-16_15h53.27.863,eb_02psyexp,2022.2.4,59.98518910235028,
66,0,66,0,,,,,,,,,,,,,,,,,,,,,,,,,,,,,,,,,,,,,,,,,,,,,,,,,,,,,,,,,,,637.5757978217589,637.5757978217589,637.5757978217589,637.5757978217589,637.5757978217589,637.5757978217589,s,1,0.48459651647135615,638.0924243530899,639.1089890061994,,,,,,,,,,,,,,,,,,,,,,,,,,,,,,,,,,,,,,,,564,2023-05-16_15h53.27.863,eb_02psyexp,2022.2.4,59.98518910235028,
67,0,67,0,,,,,,,,,,,,,,,,,,,,,,,,,,,,,,,,,,,,,,,,,,,,,,,,,,,,,,,,,,,639.1089890061994,639.1089890061994,639.1089890061994,639.1089890061994,639.1089890061994,639.1089890061994,l,1,0.439410914957989,639.575656860121,640.6089093190967,,,,,,,,,,,,,,,,,,,,,,,,,,,,,,,,,,,,,,,,564,2023-05-16_15h53.27.863,eb_02psyexp,2022.2.4,59.98518910235028,
68,0,68,0,,,,,,,,,,,,,,,,,,,,,,,,,,,,,,,,,,,,,,,,,,,,,,,,,,,,,,,,,,,640.6089093190967,640.6089093190967,640.6089093190967,640.6089093190967,640.6089093190967,640.6089093190967,s,1,0.48350202629808336,641.1255174378894,642.1421635891456,,,,,,,,,,,,,,,,,,,,,,,,,,,,,,,,,,,,,,,,564,2023-05-16_15h53.27.863,eb_02psyexp,2022.2.4,59.98518910235028,
69,0,69,0,,,,,,,,,,,,,,,,,,,,,,,,,,,,,,,,,,,,,,,,,,,,,,,,,,,,,,,,,,,642.1421635891456,642.1421635891456,642.1421635891456,642.1421635891456,642.1421635891456,642.1421635891456,l,1,0.5662588858685922,642.7254287558026,643.7420293284667,,,,,,,,,,,,,,,,,,,,,,,,,,,,,,,,,,,,,,,,564,2023-05-16_15h53.27.863,eb_02psyexp,2022.2.4,59.98518910235028,
70,0,70,0,,,,,,,,,,,,,,,,,,,,,,,,,,,,,,,,,,,,,,,,,,,,,,,,,,,,,,,,,,,643.7420293284667,643.7420293284667,643.7420293284667,643.7420293284667,643.7420293284667,643.7420293284667,s,1,0.6143826471816283,644.3753050898813,645.3919219621748,,,,,,,,,,,,,,,,,,,,,,,,,,,,,,,,,,,,,,,,564,2023-05-16_15h53.27.863,eb_02psyexp,2022.2.4,59.98518910235028,
71,0,71,0,,,,,,,,,,,,,,,,,,,,,,,,,,,,,,,,,,,,,,,,,,,,,,,,,,,,,,,,,,,645.3919219621748,645.3919219621748,645.3919219621748,645.3919219621748,645.3919219621748,645.3919219621748,l,1,0.5645190509530948,645.9752085598302,646.991792832865,,,,,,,,,,,,,,,,,,,,,,,,,,,,,,,,,,,,,,,,564,2023-05-16_15h53.27.863,eb_02psyexp,2022.2.4,59.98518910235028,
72,0,72,0,,,,,,,,,,,,,,,,,,,,,,,,,,,,,,,,,,,,,,,,,,,,,,,,,,,,,,,,,,,646.991792832865,646.991792832865,646.991792832865,646.991792832865,646.991792832865,646.991792832865,s,1,0.4926790215977235,647.5084169494367,648.5250289922114,,,,,,,,,,,,,,,,,,,,,,,,,,,,,,,,,,,,,,,,564,2023-05-16_15h53.27.863,eb_02psyexp,2022.2.4,59.98518910235028,
73,0,73,0,,,,,,,,,,,,,,,,,,,,,,,,,,,,,,,,,,,,,,,,,,,,,,,,,,,,,,,,,,,648.5250289922114,648.5250289922114,648.5250289922114,648.5250289922114,648.5250289922114,648.5250289922114,l,1,0.5273957309545949,649.0749891788437,650.1082546171674,,,,,,,,,,,,,,,,,,,,,,,,,,,,,,,,,,,,,,,,564,2023-05-16_15h53.27.863,eb_02psyexp,2022.2.4,59.98518910235028,
74,0,74,0,,,,,,,,,,,,,,,,,,,,,,,,,,,,,,,,,,,,,,,,,,,,,,,,,,,,,,,,,,,650.1082546171674,650.1082546171674,650.1082546171674,650.1082546171674,650.1082546171674,650.1082546171674,s,1,0.4952302160090767,650.6248877890903,651.6581559440237,,,,,,,,,,,,,,,,,,,,,,,,,,,,,,,,,,,,,,,,564,2023-05-16_15h53.27.863,eb_02psyexp,2022.2.4,59.98518910235028,
75,0,75,0,,,,,,,,,,,,,,,,,,,,,,,,,,,,,,,,,,,,,,,,,,,,,,,,,,,,,,,,,,,651.6581559440237,651.6581559440237,651.6581559440237,651.6581559440237,651.6581559440237,651.6581559440237,l,1,0.5773218090907903,652.2580304368457,653.2913462832803,,,,,,,,,,,,,,,,,,,,,,,,,,,,,,,,,,,,,,,,564,2023-05-16_15h53.27.863,eb_02psyexp,2022.2.4,59.98518910235028,
76,0,76,0,,,,,,,,,,,,,,,,,,,,,,,,,,,,,,,,,,,,,,,,,,,,,,,,,,,,,,,,,,,653.2913462832803,653.2913462832803,653.2913462832803,653.2913462832803,653.2913462832803,653.2913462832803,s,1,0.4481345389795024,653.7579697659821,654.7745938825537,,,,,,,,,,,,,,,,,,,,,,,,,,,,,,,,,,,,,,,,564,2023-05-16_15h53.27.863,eb_02psyexp,2022.2.4,59.98518910235028,
77,0,77,0,,,,,,,,,,,,,,,,,,,,,,,,,,,,,,,,,,,,,,,,,,,,,,,,,,,,,,,,,,,654.7745938825537,654.7745938825537,654.7745938825537,654.7745938825537,654.7745938825537,654.7745938825537,l,1,0.48490047444647644,655.2912119622342,656.3244979260198,,,,,,,,,,,,,,,,,,,,,,,,,,,,,,,,,,,,,,,,564,2023-05-16_15h53.27.863,eb_02psyexp,2022.2.4,59.98518910235028,
78,0,78,0,,,,,,,,,,,,,,,,,,,,,,,,,,,,,,,,,,,,,,,,,,,,,,,,,,,,,,,,,,,656.3244979260198,656.3244979260198,656.3244979260198,656.3244979260198,656.3244979260198,656.3244979260198,s,1,0.5670660195464734,656.9244388247607,657.95770728153,,,,,,,,,,,,,,,,,,,,,,,,,,,,,,,,,,,,,,,,564,2023-05-16_15h53.27.863,eb_02psyexp,2022.2.4,59.98518910235028,
79,0,79,0,,,,,,,,,,,,,,,,,,,,,,,,,,,,,,,,,,,,,,,,,,,,,,,,,,,,,,,,,,,657.95770728153,657.95770728153,657.95770728153,657.95770728153,657.95770728153,657.95770728153,l,1,0.5178163761884207,658.5076614312566,659.5409492061153,,,,,,,,,,,,,,,,,,,,,,,,,,,,,,,,,,,,,,,,564,2023-05-16_15h53.27.863,eb_02psyexp,2022.2.4,59.98518910235028,
80,0,80,0,,,,,,,,,,,,,,,,,,,,,,,,,,,,,,,,,,,,,,,,,,,,,,,,,,,,,,,,,,,659.5409492061153,659.5409492061153,659.5409492061153,659.5409492061153,659.5409492061153,659.5409492061153,s,1,0.5745813578105299,660.1408735033765,661.1574659262114,,,,,,,,,,,,,,,,,,,,,,,,,,,,,,,,,,,,,,,,564,2023-05-16_15h53.27.863,eb_02psyexp,2022.2.4,59.98518910235028,
81,0,81,0,,,,,,,,,,,,,,,,,,,,,,,,,,,,,,,,,,,,,,,,,,,,,,,,,,,,,,,,,,,661.1574659262114,661.1574659262114,661.1574659262114,661.1574659262114,661.1574659262114,661.1574659262114,l,1,0.5900913642690284,661.7741142507584,662.8073552396381,,,,,,,,,,,,,,,,,,,,,,,,,,,,,,,,,,,,,,,,564,2023-05-16_15h53.27.863,eb_02psyexp,2022.2.4,59.98518910235028,
82,0,82,0,,,,,,,,,,,,,,,,,,,,,,,,,,,,,,,,,,,,,,,,,,,,,,,,,,,,,,,,,,,662.8073552396381,662.8073552396381,662.8073552396381,662.8073552396381,662.8073552396381,662.8073552396381,s,1,0.5402298809785862,663.3739802919299,664.3905935420771,,,,,,,,,,,,,,,,,,,,,,,,,,,,,,,,,,,,,,,,564,2023-05-16_15h53.27.863,eb_02psyexp,2022.2.4,59.98518910235028,
83,0,83,0,,,,,,,,,,,,,,,,,,,,,,,,,,,,,,,,,,,,,,,,,,,,,,,,,,,,,,,,,,,664.3905935420771,664.3905935420771,664.3905935420771,664.3905935420771,664.3905935420771,664.3905935420771,l,1,0.5480205019121058,664.9571923338517,665.973800150794,,,,,,,,,,,,,,,,,,,,,,,,,,,,,,,,,,,,,,,,564,2023-05-16_15h53.27.863,eb_02psyexp,2022.2.4,59.98518910235028,
84,0,84,0,,,,,,,,,,,,,,,,,,,,,,,,,,,,,,,,,,,,,,,,,,,,,,,,,,,,,,,,,,,665.973800150794,665.973800150794,665.973800150794,665.973800150794,665.973800150794,665.973800150794,s,1,0.4287678582040826,666.4237660121144,667.457020885864,,,,,,,,,,,,,,,,,,,,,,,,,,,,,,,,,,,,,,,,564,2023-05-16_15h53.27.863,eb_02psyexp,2022.2.4,59.98518910235028,
85,0,85,0,,,,,,,,,,,,,,,,,,,,,,,,,,,,,,,,,,,,,,,,,,,,,,,,,,,,,,,,,,,667.457020885864,667.457020885864,667.457020885864,667.457020885864,667.457020885864,667.457020885864,l,1,0.5055475819535786,667.9903153013001,669.0236021706223,,,,,,,,,,,,,,,,,,,,,,,,,,,,,,,,,,,,,,,,564,2023-05-16_15h53.27.863,eb_02psyexp,2022.2.4,59.98518910235028,
86,0,86,0,,,,,,,,,,,,,,,,,,,,,,,,,,,,,,,,,,,,,,,,,,,,,,,,,,,,,,,,,,,669.0236021706223,669.0236021706223,669.0236021706223,669.0236021706223,669.0236021706223,669.0236021706223,s,1,0.442990193652804,669.4902202201047,670.5068289425835,,,,,,,,,,,,,,,,,,,,,,,,,,,,,,,,,,,,,,,,564,2023-05-16_15h53.27.863,eb_02psyexp,2022.2.4,59.98518910235028,
87,0,87,0,,,,,,,,,,,,,,,,,,,,,,,,,,,,,,,,,,,,,,,,,,,,,,,,,,,,,,,,,,,670.5068289425835,670.5068289425835,670.5068289425835,670.5068289425835,670.5068289425835,670.5068289425835,l,1,0.43179657153086737,670.9567842393299,671.9733814916981,,,,,,,,,,,,,,,,,,,,,,,,,,,,,,,,,,,,,,,,564,2023-05-16_15h53.27.863,eb_02psyexp,2022.2.4,59.98518910235028,
88,0,88,0,,,,,,,,,,,,,,,,,,,,,,,,,,,,,,,,,,,,,,,,,,,,,,,,,,,,,,,,,,,671.9733814916981,671.9733814916981,671.9733814916981,671.9733814916981,671.9733814916981,671.9733814916981,s,1,0.4691619712684769,672.4733600606996,673.4899485595524,,,,,,,,,,,,,,,,,,,,,,,,,,,,,,,,,,,,,,,,564,2023-05-16_15h53.27.863,eb_02psyexp,2022.2.4,59.98518910235028,
89,0,89,0,,,,,,,,,,,,,,,,,,,,,,,,,,,,,,,,,,,,,,,,,,,,,,,,,,,,,,,,,,,673.4899485595524,673.4899485595524,673.4899485595524,673.4899485595524,673.4899485595524,673.4899485595524,s,1,0.6006505081022624,674.1232460538158,675.1565057570842,,,,,,,,,,,,,,,,,,,,,,,,,,,,,,,,,,,,,,,,564,2023-05-16_15h53.27.863,eb_02psyexp,2022.2.4,59.98518910235028,
90,0,90,0,,,,,,,,,,,,,,,,,,,,,,,,,,,,,,,,,,,,,,,,,,,,,,,,,,,,,,,,,,,675.1565057570842,675.1565057570842,675.1565057570842,675.1565057570842,675.1565057570842,675.1565057570842,s,1,0.48609306426078547,675.6731126684899,676.6897244094143,,,,,,,,,,,,,,,,,,,,,,,,,,,,,,,,,,,,,,,,564,2023-05-16_15h53.27.863,eb_02psyexp,2022.2.4,59.98518910235028,
91,0,91,0,,,,,,,,,,,,,,,,,,,,,,,,,,,,,,,,,,,,,,,,,,,,,,,,,,,,,,,,,,,676.6897244094143,676.6897244094143,676.6897244094143,676.6897244094143,676.6897244094143,676.6897244094143,s,1,0.47285866769379936,677.1896776234353,678.2062640093791,,,,,,,,,,,,,,,,,,,,,,,,,,,,,,,,,,,,,,,,564,2023-05-16_15h53.27.863,eb_02psyexp,2022.2.4,59.98518910235028,
92,0,92,0,,,,,,,,,,,,,,,,,,,,,,,,,,,,,,,,,,,,,,,,,,,,,,,,,,,,,,,,,,,678.2062640093791,678.2062640093791,678.2062640093791,678.2062640093791,678.2062640093791,678.2062640093791,l,1,0.5324160179588944,678.7562392882683,679.7728513310431,,,,,,,,,,,,,,,,,,,,,,,,,,,,,,,,,,,,,,,,564,2023-05-16_15h53.27.863,eb_02psyexp,2022.2.4,59.98518910235028,
93,0,93,0,,,,,,,,,,,,,,,,,,,,,,,,,,,,,,,,,,,,,,,,,,,,,,,,,,,,,,,,,,,679.7728513310431,679.7728513310431,679.7728513310431,679.7728513310431,679.7728513310431,679.7728513310431,s,1,0.38888295777724124,680.1894768964703,681.2060967872094,,,,,,,,,,,,,,,,,,,,,,,,,,,,,,,,,,,,,,,,564,2023-05-16_15h53.27.863,eb_02psyexp,2022.2.4,59.98518910235028,
94,0,94,0,,,,,,,,,,,,,,,,,,,,,,,,,,,,,,,,,,,,,,,,,,,,,,,,,,,,,,,,,,,681.2060967872094,681.2060967872094,681.2060967872094,681.2060967872094,681.2060967872094,681.2060967872094,s,1,0.45156953574041836,681.6893784949789,682.7226466499123,,,,,,,,,,,,,,,,,,,,,,,,,,,,,,,,,,,,,,,,564,2023-05-16_15h53.27.863,eb_02psyexp,2022.2.4,59.98518910235028,
95,0,95,0,,,,,,,,,,,,,,,,,,,,,,,,,,,,,,,,,,,,,,,,,,,,,,,,,,,,,,,,,,,682.7226466499123,682.7226466499123,682.7226466499123,682.7226466499123,682.7226466499123,682.7226466499123,s,1,0.4390505119517911,683.1892272706027,684.2058758366329,,,,,,,,,,,,,,,,,,,,,,,,,,,,,,,,,,,,,,,,564,2023-05-16_15h53.27.863,eb_02psyexp,2022.2.4,59.98518910235028,
96,0,96,0,,,,,,,,,,,,,,,,,,,,,,,,,,,,,,,,,,,,,,,,,,,,,,,,,,,,,,,,,,,684.2058758366329,684.2058758366329,684.2058758366329,684.2058758366329,684.2058758366329,684.2058758366329,s,1,0.4518007490551099,684.6891717311228,685.7224383768189,,,,,,,,,,,,,,,,,,,,,,,,,,,,,,,,,,,,,,,,564,2023-05-16_15h53.27.863,eb_02psyexp,2022.2.4,59.98518910235028,
97,0,97,0,,,,,,,,,,,,,,,,,,,,,,,,,,,,,,,,,,,,,,,,,,,,,,,,,,,,,,,,,,,685.7224383768189,685.7224383768189,685.7224383768189,685.7224383768189,685.7224383768189,685.7224383768189,s,1,0.3912219551275484,686.1390530758217,687.1556578743184,,,,,,,,,,,,,,,,,,,,,,,,,,,,,,,,,,,,,,,,564,2023-05-16_15h53.27.863,eb_02psyexp,2022.2.4,59.98518910235028,
98,0,98,0,,,,,,,,,,,,,,,,,,,,,,,,,,,,,,,,,,,,,,,,,,,,,,,,,,,,,,,,,,,687.1556578743184,687.1556578743184,687.1556578743184,687.1556578743184,687.1556578743184,687.1556578743184,l,1,0.43802363506983966,687.6222825643927,688.6388991348504,,,,,,,,,,,,,,,,,,,,,,,,,,,,,,,,,,,,,,,,564,2023-05-16_15h53.27.863,eb_02psyexp,2022.2.4,59.98518910235028,
99,0,99,0,,,,,,,,,,,,,,,,,,,,,,,,,,,,,,,,,,,,,,,,,,,,,,,,,,,,,,,,,,,688.6388991348504,688.6388991348504,688.6388991348504,688.6388991348504,688.6388991348504,688.6388991348504,l,1,0.5387767988577252,689.2055087930494,690.222096688216,,,,,,,,,,,,,,,,,,,,,,,,,,,,,,,,,,,,,,,,564,2023-05-16_15h53.27.863,eb_02psyexp,2022.2.4,59.98518910235028,
100,0,100,0,,,,,,,,,,,,,,,,,,,,,,,,,,,,,,,,,,,,,,,,,,,,,,,,,,,,,,,,,,,690.222096688216,690.222096688216,690.222096688216,690.222096688216,690.222096688216,690.222096688216,l,1,0.5635685408633435,690.8054077353154,691.8220131374983,,,,,,,,,,,,,,,,,,,,,,,,,,,,,,,,,,,,,,,,564,2023-05-16_15h53.27.863,eb_02psyexp,2022.2.4,59.98518910235028,
101,0,101,0,,,,,,,,,,,,,,,,,,,,,,,,,,,,,,,,,,,,,,,,,,,,,,,,,,,,,,,,,,,691.8220131374983,691.8220131374983,691.8220131374983,691.8220131374983,691.8220131374983,691.8220131374983,l,1,0.5237080898805289,692.3719485728361,693.3885554842418,,,,,,,,,,,,,,,,,,,,,,,,,,,,,,,,,,,,,,,,564,2023-05-16_15h53.27.863,eb_02psyexp,2022.2.4,59.98518910235028,
102,0,102,0,,,,,,,,,,,,,,,,,,,,,,,,,,,,,,,,,,,,,,,,,,,,,,,,,,,,,,,,,,,693.3885554842418,693.3885554842418,693.3885554842418,693.3885554842418,693.3885554842418,693.3885554842418,s,1,0.5251798863755539,693.938518085648,694.9717626966594,,,,,,,,,,,,,,,,,,,,,,,,,,,,,,,,,,,,,,,,564,2023-05-16_15h53.27.863,eb_02psyexp,2022.2.4,59.98518910235028,
103,0,103,0,,,,,,,,,,,,,,,,,,,,,,,,,,,,,,,,,,,,,,,,,,,,,,,,,,,,,,,,,,,694.9717626966594,694.9717626966594,694.9717626966594,694.9717626966594,694.9717626966594,694.9717626966594,s,1,0.44591295934515074,695.4383961402345,696.455014219915,,,,,,,,,,,,,,,,,,,,,,,,,,,,,,,,,,,,,,,,564,2023-05-16_15h53.27.863,eb_02psyexp,2022.2.4,59.98518910235028,
104,0,104,0,,,,,,,,,,,,,,,,,,,,,,,,,,,,,,,,,,,,,,,,,,,,,,,,,,,,,,,,,,,696.455014219915,696.455014219915,696.455014219915,696.455014219915,696.455014219915,696.455014219915,s,1,0.5297507260838756,697.0049523718626,698.0215885622456,,,,,,,,,,,,,,,,,,,,,,,,,,,,,,,,,,,,,,,,564,2023-05-16_15h53.27.863,eb_02psyexp,2022.2.4,59.98518910235028,
105,0,105,0,,,,,,,,,,,,,,,,,,,,,,,,,,,,,,,,,,,,,,,,,,,,,,,,,,,,,,,,,,,698.0215885622456,698.0215885622456,698.0215885622456,698.0215885622456,698.0215885622456,698.0215885622456,l,1,0.42716385357198305,698.4715094486455,699.4881172655878,,,,,,,,,,,,,,,,,,,,,,,,,,,,,,,,,,,,,,,,564,2023-05-16_15h53.27.863,eb_02psyexp,2022.2.4,59.98518910235028,
106,0,106,0,,,,,,,,,,,,,,,,,,,,,,,,,,,,,,,,,,,,,,,,,,,,,,,,,,,,,,,,,,,699.4881172655878,699.4881172655878,699.4881172655878,699.4881172655878,699.4881172655878,699.4881172655878,s,1,0.6166102637071162,700.1214008749812,701.1546635966952,,,,,,,,,,,,,,,,,,,,,,,,,,,,,,,,,,,,,,,,564,2023-05-16_15h53.27.863,eb_02psyexp,2022.2.4,59.98518910235028,
107,0,107,0,,,,,,,,,,,,,,,,,,,,,,,,,,,,,,,,,,,,,,,,,,,,,,,,,,,,,,,,,,,701.1546635966952,701.1546635966952,701.1546635966952,701.1546635966952,701.1546635966952,701.1546635966952,s,1,0.38209597163950093,701.554643312702,702.5712556573271,,,,,,,,,,,,,,,,,,,,,,,,,,,,,,,,,,,,,,,,564,2023-05-16_15h53.27.863,eb_02psyexp,2022.2.4,59.98518910235028,
108,0,108,0,,,,,,,,,,,,,,,,,,,,,,,,,,,,,,,,,,,,,,,,,,,,,,,,,,,,,,,,,,,702.5712556573271,702.5712556573271,702.5712556573271,702.5712556573271,702.5712556573271,702.5712556573271,l,1,1.3495099865394877,703.9378021091688,704.9541032515262,,,,,,,,,,,,,,,,,,,,,,,,,,,,,,,,,,,,,,,,564,2023-05-16_15h53.27.863,eb_02psyexp,2022.2.4,59.98518910235028,
109,0,109,0,,,,,,,,,,,,,,,,,,,,,,,,,,,,,,,,,,,,,,,,,,,,,,,,,,,,,,,,,,,704.9541032515262,704.9541032515262,704.9541032515262,704.9541032515262,704.9541032515262,704.9541032515262,l,1,0.6946909396356205,705.6710232969926,706.6876299065625,,,,,,,,,,,,,,,,,,,,,,,,,,,,,,,,,,,,,,,,564,2023-05-16_15h53.27.863,eb_02psyexp,2022.2.4,59.98518910235028,
110,0,110,0,,,,,,,,,,,,,,,,,,,,,,,,,,,,,,,,,,,,,,,,,,,,,,,,,,,,,,,,,,,706.6876299065625,706.6876299065625,706.6876299065625,706.6876299065625,706.6876299065625,706.6876299065625,l,1,1.4811539735819679,708.187513696219,709.2041184947011,,,,,,,,,,,,,,,,,,,,,,,,,,,,,,,,,,,,,,,,564,2023-05-16_15h53.27.863,eb_02psyexp,2022.2.4,59.98518910235028,
111,0,111,0,,,,,,,,,,,,,,,,,,,,,,,,,,,,,,,,,,,,,,,,,,,,,,,,,,,,,,,,,,,709.2041184947011,709.2041184947011,709.2041184947011,709.2041184947011,709.2041184947011,709.2041184947011,l,1,1.2526907693973044,710.4873526920564,711.503966244054,,,,,,,,,,,,,,,,,,,,,,,,,,,,,,,,,,,,,,,,564,2023-05-16_15h53.27.863,eb_02psyexp,2022.2.4,59.98518910235028,
112,0,112,0,,,,,,,,,,,,,,,,,,,,,,,,,,,,,,,,,,,,,,,,,,,,,,,,,,,,,,,,,,,711.503966244054,711.503966244054,711.503966244054,711.503966244054,711.503966244054,711.503966244054,s,1,0.6488343365781475,712.1705819995259,713.1871698946925,,,,,,,,,,,,,,,,,,,,,,,,,,,,,,,,,,,,,,,,564,2023-05-16_15h53.27.863,eb_02psyexp,2022.2.4,59.98518910235028,
113,0,113,0,,,,,,,,,,,,,,,,,,,,,,,,,,,,,,,,,,,,,,,,,,,,,,,,,,,,,,,,,,,713.1871698946925,713.1871698946925,713.1871698946925,713.1871698946925,713.1871698946925,713.1871698946925,s,1,0.5006456182163674,713.7204443883675,714.7370618643472,,,,,,,,,,,,,,,,,,,,,,,,,,,,,,,,,,,,,,,,564,2023-05-16_15h53.27.863,eb_02psyexp,2022.2.4,59.98518910235028,
114,0,114,0,,,,,,,,,,,,,,,,,,,,,,,,,,,,,,,,,,,,,,,,,,,,,,,,,,,,,,,,,,,714.7370618643472,714.7370618643472,714.7370618643472,714.7370618643472,714.7370618643472,714.7370618643472,s,1,0.5587625638436293,715.3203466509294,716.3535979025328,,,,,,,,,,,,,,,,,,,,,,,,,,,,,,,,,,,,,,,,564,2023-05-16_15h53.27.863,eb_02psyexp,2022.2.4,59.98518910235028,
115,0,115,0,,,,,,,,,,,,,,,,,,,,,,,,,,,,,,,,,,,,,,,,,,,,,,,,,,,,,,,,,,,716.3535979025328,716.3535979025328,716.3535979025328,716.3535979025328,716.3535979025328,716.3535979025328,s,1,0.5502604940993479,716.9368875186337,717.9535089186102,,,,,,,,,,,,,,,,,,,,,,,,,,,,,,,,,,,,,,,,564,2023-05-16_15h53.27.863,eb_02psyexp,2022.2.4,59.98518910235028,
116,0,116,0,,,,,,,,,,,,,,,,,,,,,,,,,,,,,,,,,,,,,,,,,,,,,,,,,,,,,,,,,,,717.9535089186102,717.9535089186102,717.9535089186102,717.9535089186102,717.9535089186102,717.9535089186102,s,1,0.46236562792910263,718.4368268477847,719.4533736920275,,,,,,,,,,,,,,,,,,,,,,,,,,,,,,,,,,,,,,,,564,2023-05-16_15h53.27.863,eb_02psyexp,2022.2.4,59.98518910235028,
117,0,117,0,,,,,,,,,,,,,,,,,,,,,,,,,,,,,,,,,,,,,,,,,,,,,,,,,,,,,,,,,,,719.4533736920275,719.4533736920275,719.4533736920275,719.4533736920275,719.4533736920275,719.4533736920275,l,1,1.2104786435666028,720.6866259699018,721.7032570289157,,,,,,,,,,,,,,,,,,,,,,,,,,,,,,,,,,,,,,,,564,2023-05-16_15h53.27.863,eb_02psyexp,2022.2.4,59.98518910235028,
118,0,118,0,,,,,,,,,,,,,,,,,,,,,,,,,,,,,,,,,,,,,,,,,,,,,,,,,,,,,,,,,,,721.7032570289157,721.7032570289157,721.7032570289157,721.7032570289157,721.7032570289157,721.7032570289157,s,1,1.4806314797897357,723.2031290466111,724.2197262989648,,,,,,,,,,,,,,,,,,,,,,,,,,,,,,,,,,,,,,,,564,2023-05-16_15h53.27.863,eb_02psyexp,2022.2.4,59.98518910235028,
119,0,119,0,,,,,,,,,,,,,,,,,,,,,,,,,,,,,,,,,,,,,,,,,,,,,,,,,,,,,,,,,,,724.2197262989648,724.2197262989648,724.2197262989648,724.2197262989648,724.2197262989648,724.2197262989648,l,1,0.6841707338317065,724.9363535547309,725.9529209244356,,,,,,,,,,,,,,,,,,,,,,,,,,,,,,,,,,,,,,,,564,2023-05-16_15h53.27.863,eb_02psyexp,2022.2.4,59.98518910235028,
120,0,120,0,,,,,,,,,,,,,,,,,,,,,,,,,,,,,,,,,,,,,,,,,,,,,,,,,,,,,,,,,,,725.9529209244356,725.9529209244356,725.9529209244356,725.9529209244356,725.9529209244356,725.9529209244356,s,1,0.6629742683144286,726.6362287116208,727.6694715115591,,,,,,,,,,,,,,,,,,,,,,,,,,,,,,,,,,,,,,,,564,2023-05-16_15h53.27.863,eb_02psyexp,2022.2.4,59.98518910235028,
121,0,121,0,,,,,,,,,,,,,,,,,,,,,,,,,,,,,,,,,,,,,,,,,,,,,,,,,,,,,,,,,,,727.6694715115591,727.6694715115591,727.6694715115591,727.6694715115591,727.6694715115591,727.6694715115591,s,1,1.29741575535445,728.9860604933638,730.0026625752507,,,,,,,,,,,,,,,,,,,,,,,,,,,,,,,,,,,,,,,,564,2023-05-16_15h53.27.863,eb_02psyexp,2022.2.4,59.98518910235028,
122,0,122,0,,,,,,,,,,,,,,,,,,,,,,,,,,,,,,,,,,,,,,,,,,,,,,,,,,,,,,,,,,,730.0026625752507,730.0026625752507,730.0026625752507,730.0026625752507,730.0026625752507,730.0026625752507,l,1,0.43623882524843793,730.469246818102,731.5025508925755,,,,,,,,,,,,,,,,,,,,,,,,,,,,,,,,,,,,,,,,564,2023-05-16_15h53.27.863,eb_02psyexp,2022.2.4,59.98518910235028,
123,0,123,0,,,,,,,,,,,,,,,,,,,,,,,,,,,,,,,,,,,,,,,,,,,,,,,,,,,,,,,,,,,731.5025508925755,731.5025508925755,731.5025508925755,731.5025508925755,731.5025508925755,731.5025508925755,s,1,0.4803643469058443,732.0025315745006,733.0190705707646,,,,,,,,,,,,,,,,,,,,,,,,,,,,,,,,,,,,,,,,564,2023-05-16_15h53.27.863,eb_02psyexp,2022.2.4,59.98518910235028,
124,0,124,0,,,,,,,,,,,,,,,,,,,,,,,,,,,,,,,,,,,,,,,,,,,,,,,,,,,,,,,,,,,733.0190705707646,733.0190705707646,733.0190705707646,733.0190705707646,733.0190705707646,733.0190705707646,s,1,0.5319083145586774,733.5690642622067,734.5856551758188,,,,,,,,,,,,,,,,,,,,,,,,,,,,,,,,,,,,,,,,564,2023-05-16_15h53.27.863,eb_02psyexp,2022.2.4,59.98518910235028,
125,0,125,0,,,,,,,,,,,,,,,,,,,,,,,,,,,,,,,,,,,,,,,,,,,,,,,,,,,,,,,,,,,734.5856551758188,734.5856551758188,734.5856551758188,734.5856551758188,734.5856551758188,734.5856551758188,s,1,0.42126217899203766,735.0356409589149,736.0522520961531,,,,,,,,,,,,,,,,,,,,,,,,,,,,,,,,,,,,,,,,564,2023-05-16_15h53.27.863,eb_02psyexp,2022.2.4,59.98518910235028,
126,0,126,0,,,,,,,,,,,,,,,,,,,,,,,,,,,,,,,,,,,,,,,,,,,,,,,,,,,,,,,,,,,736.0522520961531,736.0522520961531,736.0522520961531,736.0522520961531,736.0522520961531,736.0522520961531,l,1,0.4187284915824421,736.5021947154164,737.518772046009,,,,,,,,,,,,,,,,,,,,,,,,,,,,,,,,,,,,,,,,564,2023-05-16_15h53.27.863,eb_02psyexp,2022.2.4,59.98518910235028,
127,0,127,0,,,,,,,,,,,,,,,,,,,,,,,,,,,,,,,,,,,,,,,,,,,,,,,,,,,,,,,,,,,737.518772046009,737.518772046009,737.518772046009,737.518772046009,737.518772046009,737.518772046009,s,1,0.6321893926942721,738.1687250487303,739.1853364878043,,,,,,,,,,,,,,,,,,,,,,,,,,,,,,,,,,,,,,,,564,2023-05-16_15h53.27.863,eb_02psyexp,2022.2.4,59.98518910235028,
128,0,128,0,,,,,,,,,,,,,,,,,,,,,,,,,,,,,,,,,,,,,,,,,,,,,,,,,,,,,,,,,,,739.1853364878043,739.1853364878043,739.1853364878043,739.1853364878043,739.1853364878043,739.1853364878043,l,1,0.6216347765439423,739.8352846610069,740.851903646224,,,,,,,,,,,,,,,,,,,,,,,,,,,,,,,,,,,,,,,,564,2023-05-16_15h53.27.863,eb_02psyexp,2022.2.4,59.98518910235028,
129,0,129,0,,,,,,,,,,,,,,,,,,,,,,,,,,,,,,,,,,,,,,,,,,,,,,,,,,,,,,,,,,,740.851903646224,740.851903646224,740.851903646224,740.851903646224,740.851903646224,740.851903646224,l,1,0.5150904134643497,741.3851929303055,742.4017883716006,,,,,,,,,,,,,,,,,,,,,,,,,,,,,,,,,,,,,,,,564,2023-05-16_15h53.27.863,eb_02psyexp,2022.2.4,59.98518910235028,
130,0,130,0,,,,,,,,,,,,,,,,,,,,,,,,,,,,,,,,,,,,,,,,,,,,,,,,,,,,,,,,,,,742.4017883716006,742.4017883716006,742.4017883716006,742.4017883716006,742.4017883716006,742.4017883716006,l,1,0.4442473783274181,742.8684323797643,743.885051968653,,,,,,,,,,,,,,,,,,,,,,,,,,,,,,,,,,,,,,,,564,2023-05-16_15h53.27.863,eb_02psyexp,2022.2.4,59.98518910235028,
131,0,131,0,,,,,,,,,,,,,,,,,,,,,,,,,,,,,,,,,,,,,,,,,,,,,,,,,,,,,,,,,,,743.885051968653,743.885051968653,743.885051968653,743.885051968653,743.885051968653,743.885051968653,l,1,0.5449525487638311,744.4516139353364,745.4848950696032,,,,,,,,,,,,,,,,,,,,,,,,,,,,,,,,,,,,,,,,564,2023-05-16_15h53.27.863,eb_02psyexp,2022.2.4,59.98518910235028,
132,0,132,0,,,,,,,,,,,,,,,,,,,,,,,,,,,,,,,,,,,,,,,,,,,,,,,,,,,,,,,,,,,745.4848950696032,745.4848950696032,745.4848950696032,745.4848950696032,745.4848950696032,745.4848950696032,s,1,0.39311210888263304,745.9015287848451,746.918122415067,,,,,,,,,,,,,,,,,,,,,,,,,,,,,,,,,,,,,,,,564,2023-05-16_15h53.27.863,eb_02psyexp,2022.2.4,59.98518910235028,
133,0,133,0,,,,,,,,,,,,,,,,,,,,,,,,,,,,,,,,,,,,,,,,,,,,,,,,,,,,,,,,,,,746.918122415067,746.918122415067,746.918122415067,746.918122415067,746.918122415067,746.918122415067,l,1,0.5598968975828029,747.5014307455713,748.534683204547,,,,,,,,,,,,,,,,,,,,,,,,,,,,,,,,,,,,,,,,564,2023-05-16_15h53.27.863,eb_02psyexp,2022.2.4,59.98518910235028,
134,0,134,0,,,,,,,,,,,,,,,,,,,,,,,,,,,,,,,,,,,,,,,,,,,,,,,,,,,,,,,,,,,748.534683204547,748.534683204547,748.534683204547,748.534683204547,748.534683204547,748.534683204547,s,1,0.5353345578187145,749.1013145955949,750.1179178848543,,,,,,,,,,,,,,,,,,,,,,,,,,,,,,,,,,,,,,,,564,2023-05-16_15h53.27.863,eb_02psyexp,2022.2.4,59.98518910235028,
135,0,135,0,,,,,,,,,,,,,,,,,,,,,,,,,,,,,,,,,,,,,,,,,,,,,,,,,,,,,,,,,,,750.1179178848543,750.1179178848543,750.1179178848543,750.1179178848543,750.1179178848543,750.1179178848543,s,1,0.4801168339618016,750.6178698914882,751.6345196648908,,,,,,,,,,,,,,,,,,,,,,,,,,,,,,,,,,,,,,,,564,2023-05-16_15h53.27.863,eb_02psyexp,2022.2.4,59.98518910235028,
136,0,136,0,,,,,,,,,,,,,,,,,,,,,,,,,,,,,,,,,,,,,,,,,,,,,,,,,,,,,,,,,,,751.6345196648908,751.6345196648908,751.6345196648908,751.6345196648908,751.6345196648908,751.6345196648908,l,1,0.555529803285026,752.2177597784175,753.2343890263583,,,,,,,,,,,,,,,,,,,,,,,,,,,,,,,,,,,,,,,,564,2023-05-16_15h53.27.863,eb_02psyexp,2022.2.4,59.98518910235028,
137,0,137,0,,,,,,,,,,,,,,,,,,,,,,,,,,,,,,,,,,,,,,,,,,,,,,,,,,,,,,,,,,,753.2343890263583,753.2343890263583,753.2343890263583,753.2343890263583,753.2343890263583,753.2343890263583,l,1,0.4596375523105962,753.7176716396643,754.7508921030676,,,,,,,,,,,,,,,,,,,,,,,,,,,,,,,,,,,,,,,,564,2023-05-16_15h53.27.863,eb_02psyexp,2022.2.4,59.98518910235028,
138,0,138,0,,,,,,,,,,,,,,,,,,,,,,,,,,,,,,,,,,,,,,,,,,,,,,,,,,,,,,,,,,,754.7508921030676,754.7508921030676,754.7508921030676,754.7508921030676,754.7508921030676,754.7508921030676,s,1,0.5991823337244568,755.3675319759495,756.3841548851487,,,,,,,,,,,,,,,,,,,,,,,,,,,,,,,,,,,,,,,,564,2023-05-16_15h53.27.863,eb_02psyexp,2022.2.4,59.98518910235028,
139,0,139,0,,,,,,,,,,,,,,,,,,,,,,,,,,,,,,,,,,,,,,,,,,,,,,,,,,,,,,,,,,,756.3841548851487,756.3841548851487,756.3841548851487,756.3841548851487,756.3841548851487,756.3841548851487,s,1,0.5019269504846307,756.9174583559361,757.93406164521,,,,,,,,,,,,,,,,,,,,,,,,,,,,,,,,,,,,,,,,564,2023-05-16_15h53.27.863,eb_02psyexp,2022.2.4,59.98518910235028,
140,0,140,0,,,,,,,,,,,,,,,,,,,,,,,,,,,,,,,,,,,,,,,,,,,,,,,,,,,,,,,,,,,757.93406164521,757.93406164521,757.93406164521,757.93406164521,757.93406164521,757.93406164521,s,1,0.5440020386595279,758.5006507779326,759.517258293039,,,,,,,,,,,,,,,,,,,,,,,,,,,,,,,,,,,,,,,,564,2023-05-16_15h53.27.863,eb_02psyexp,2022.2.4,59.98518910235028,
141,0,141,0,,,,,,,,,,,,,,,,,,,,,,,,,,,,,,,,,,,,,,,,,,,,,,,,,,,,,,,,,,,759.517258293039,759.517258293039,759.517258293039,759.517258293039,759.517258293039,759.517258293039,l,1,0.463809050997952,760.0005526782916,761.0171629099932,,,,,,,,,,,,,,,,,,,,,,,,,,,,,,,,,,,,,,,,564,2023-05-16_15h53.27.863,eb_02psyexp,2022.2.4,59.98518910235028,
142,0,142,0,,,,,,,,,,,,,,,,,,,,,,,,,,,,,,,,,,,,,,,,,,,,,,,,,,,,,,,,,,,761.0171629099932,761.0171629099932,761.0171629099932,761.0171629099932,761.0171629099932,761.0171629099932,s,1,0.49195368791697547,761.5337752546184,762.5670111121144,,,,,,,,,,,,,,,,,,,,,,,,,,,,,,,,,,,,,,,,564,2023-05-16_15h53.27.863,eb_02psyexp,2022.2.4,59.98518910235028,
143,0,143,0,,,,,,,,,,,,,,,,,,,,,,,,,,,,,,,,,,,,,,,,,,,,,,,,,,,,,,,,,,,762.5670111121144,762.5670111121144,762.5670111121144,762.5670111121144,762.5670111121144,762.5670111121144,s,1,0.43008329898293596,763.0170204391325,764.0336276523885,,,,,,,,,,,,,,,,,,,,,,,,,,,,,,,,,,,,,,,,564,2023-05-16_15h53.27.863,eb_02psyexp,2022.2.4,59.98518910235028,
144,0,144,0,,,,,,,,,,,,,,,,,,,,,,,,,,,,,,,,,,,,,,,,,,,,,,,,,,,,,,,,,,,764.0336276523885,764.0336276523885,764.0336276523885,764.0336276523885,764.0336276523885,764.0336276523885,l,1,0.5474811048043193,764.6002191998705,765.6334991267504,,,,,,,,,,,,,,,,,,,,,,,,,,,,,,,,,,,,,,,,564,2023-05-16_15h53.27.863,eb_02psyexp,2022.2.4,59.98518910235028,
145,0,145,0,,,,,,,,,,,,,,,,,,,,,,,,,,,,,,,,,,,,,,,,,,,,,,,,,,,,,,,,,,,765.6334991267504,765.6334991267504,765.6334991267504,765.6334991267504,765.6334991267504,765.6334991267504,s,1,0.5236845459585311,766.1834605207696,767.2000472085638,,,,,,,,,,,,,,,,,,,,,,,,,,,,,,,,,,,,,,,,564,2023-05-16_15h53.27.863,eb_02psyexp,2022.2.4,59.98518910235028,
146,0,146,0,,,,,,,,,,,,,,,,,,,,,,,,,,,,,,,,,,,,,,,,,,,,,,,,,,,,,,,,,,,767.2000472085638,767.2000472085638,767.2000472085638,767.2000472085638,767.2000472085638,767.2000472085638,s,1,0.5330468741158256,767.7500010564545,768.7666203435074,,,,,,,,,,,,,,,,,,,,,,,,,,,,,,,,,,,,,,,,564,2023-05-16_15h53.27.863,eb_02psyexp,2022.2.4,59.98518910235028,
147,0,147,0,,,,,,,,,,,,,,,,,,,,,,,,,,,,,,,,,,,,,,,,,,,,,,,,,,,,,,,,,,,768.7666203435074,768.7666203435074,768.7666203435074,768.7666203435074,768.7666203435074,768.7666203435074,s,1,0.4624996471538907,769.2499168416834,770.2665261678485,,,,,,,,,,,,,,,,,,,,,,,,,,,,,,,,,,,,,,,,564,2023-05-16_15h53.27.863,eb_02psyexp,2022.2.4,59.98518910235028,
148,0,148,0,,,,,,,,,,,,,,,,,,,,,,,,,,,,,,,,,,,,,,,,,,,,,,,,,,,,,,,,,,,770.2665261678485,770.2665261678485,770.2665261678485,770.2665261678485,770.2665261678485,770.2665261678485,l,1,0.41061912225268316,770.6997945642506,771.7164057014888,,,,,,,,,,,,,,,,,,,,,,,,,,,,,,,,,,,,,,,,564,2023-05-16_15h53.27.863,eb_02psyexp,2022.2.4,59.98518910235028,
149,0,149,0,,,,,,,,,,,,,,,,,,,,,,,,,,,,,,,,,,,,,,,,,,,,,,,,,,,,,,,,,,,771.7164057014888,771.7164057014888,771.7164057014888,771.7164057014888,771.7164057014888,771.7164057014888,s,1,0.45674466926720925,772.1996874092583,773.232974278566,,,,,,,,,,,,,,,,,,,,,,,,,,,,,,,,,,,,,,,,564,2023-05-16_15h53.27.863,eb_02psyexp,2022.2.4,59.98518910235028,
150,0,150,0,,,,,,,,,,,,,,,,,,,,,,,,,,,,,,,,,,,,,,,,,,,,,,,,,,,,,,,,,,,773.232974278566,773.232974278566,773.232974278566,773.232974278566,773.232974278566,773.232974278566,s,1,0.4681616567540914,773.7329329257918,774.7495377242885,,,,,,,,,,,,,,,,,,,,,,,,,,,,,,,,,,,,,,,,564,2023-05-16_15h53.27.863,eb_02psyexp,2022.2.4,59.98518910235028,
151,0,151,0,,,,,,,,,,,,,,,,,,,,,,,,,,,,,,,,,,,,,,,,,,,,,,,,,,,,,,,,,,,774.7495377242885,774.7495377242885,774.7495377242885,774.7495377242885,774.7495377242885,774.7495377242885,l,1,0.43865147279575467,775.2161648291221,776.2327684202464,,,,,,,,,,,,,,,,,,,,,,,,,,,,,,,,,,,,,,,,564,2023-05-16_15h53.27.863,eb_02psyexp,2022.2.4,59.98518910235028,
152,0,152,0,,,,,,,,,,,,,,,,,,,,,,,,,,,,,,,,,,,,,,,,,,,,,,,,,,,,,,,,,,,776.2327684202464,776.2327684202464,776.2327684202464,776.2327684202464,776.2327684202464,776.2327684202464,l,1,0.45943078843993135,776.7160437892599,777.7326428527012,,,,,,,,,,,,,,,,,,,,,,,,,,,,,,,,,,,,,,,,564,2023-05-16_15h53.27.863,eb_02psyexp,2022.2.4,59.98518910235028,
153,0,153,0,,,,,,,,,,,,,,,,,,,,,,,,,,,,,,,,,,,,,,,,,,,,,,,,,,,,,,,,,,,777.7326428527012,777.7326428527012,777.7326428527012,777.7326428527012,777.7326428527012,777.7326428527012,l,1,0.5115376971371006,778.2659200629714,779.2992238356092,,,,,,,,,,,,,,,,,,,,,,,,,,,,,,,,,,,,,,,,564,2023-05-16_15h53.27.863,eb_02psyexp,2022.2.4,59.98518910235028,
154,0,154,0,,,,,,,,,,,,,,,,,,,,,,,,,,,,,,,,,,,,,,,,,,,,,,,,,,,,,,,,,,,779.2992238356092,779.2992238356092,779.2992238356092,779.2992238356092,779.2992238356092,779.2992238356092,s,1,0.5769680466910359,779.8991577919078,780.9157752679021,,,,,,,,,,,,,,,,,,,,,,,,,,,,,,,,,,,,,,,,564,2023-05-16_15h53.27.863,eb_02psyexp,2022.2.4,59.98518910235028,
155,0,155,0,,,,,,,,,,,,,,,,,,,,,,,,,,,,,,,,,,,,,,,,,,,,,,,,,,,,,,,,,,,780.9157752679021,780.9157752679021,780.9157752679021,780.9157752679021,780.9157752679021,780.9157752679021,s,1,0.5444475619733566,781.4823734559759,782.5156588160753,,,,,,,,,,,,,,,,,,,,,,,,,,,,,,,,,,,,,,,,564,2023-05-16_15h53.27.863,eb_02psyexp,2022.2.4,59.98518910235028,
156,0,156,0,,,,,,,,,,,,,,,,,,,,,,,,,,,,,,,,,,,,,,,,,,,,,,,,,,,,,,,,,,,782.5156588160753,782.5156588160753,782.5156588160753,782.5156588160753,782.5156588160753,782.5156588160753,s,1,0.42455078091006726,782.9656014353241,783.9822294758924,,,,,,,,,,,,,,,,,,,,,,,,,,,,,,,,,,,,,,,,564,2023-05-16_15h53.27.863,eb_02psyexp,2022.2.4,59.98518910235028,
157,0,157,0,,,,,,,,,,,,,,,,,,,,,,,,,,,,,,,,,,,,,,,,,,,,,,,,,,,,,,,,,,,783.9822294758924,783.9822294758924,783.9822294758924,783.9822294758924,783.9822294758924,783.9822294758924,s,1,0.9420013492490398,784.9487934951176,785.9654164043022,,,,,,,,,,,,,,,,,,,,,,,,,,,,,,,,,,,,,,,,564,2023-05-16_15h53.27.863,eb_02psyexp,2022.2.4,59.98518910235028,
158,0,158,0,,,,,,,,,,,,,,,,,,,,,,,,,,,,,,,,,,,,,,,,,,,,,,,,,,,,,,,,,,,785.9654164043022,785.9654164043022,785.9654164043022,785.9654164043022,785.9654164043022,785.9654164043022,l,1,0.5508240388153354,786.5486764396046,787.5653002543258,,,,,,,,,,,,,,,,,,,,,,,,,,,,,,,,,,,,,,,,564,2023-05-16_15h53.27.863,eb_02psyexp,2022.2.4,59.98518910235028,
159,0,159,0,,,,,,,,,,,,,,,,,,,,,,,,,,,,,,,,,,,,,,,,,,,,,,,,,,,,,,,,,,,787.5653002543258,787.5653002543258,787.5653002543258,787.5653002543258,787.5653002543258,787.5653002543258,s,1,0.5349361223488813,788.1319231937086,789.1484929781727,,,,,,,,,,,,,,,,,,,,,,,,,,,,,,,,,,,,,,,,564,2023-05-16_15h53.27.863,eb_02psyexp,2022.2.4,59.98518910235028,
160,0,160,0,,,,,,,,,,,,,,,,,,,,,,,,,,,,,,,,,,,,,,,,,,,,,,,,,,,,,,,,,,,789.1484929781727,789.1484929781727,789.1484929781727,789.1484929781727,789.1484929781727,789.1484929781727,l,1,0.5357625741162337,789.715136141167,790.7317620688118,,,,,,,,,,,,,,,,,,,,,,,,,,,,,,,,,,,,,,,,564,2023-05-16_15h53.27.863,eb_02psyexp,2022.2.4,59.98518910235028,
161,0,161,0,,,,,,,,,,,,,,,,,,,,,,,,,,,,,,,,,,,,,,,,,,,,,,,,,,,,,,,,,,,790.7317620688118,790.7317620688118,790.7317620688118,790.7317620688118,790.7317620688118,790.7317620688118,l,1,0.5115111347549828,791.2650235831534,792.2982947565179,,,,,,,,,,,,,,,,,,,,,,,,,,,,,,,,,,,,,,,,564,2023-05-16_15h53.27.863,eb_02psyexp,2022.2.4,59.98518910235028,
162,0,162,0,,,,,,,,,,,,,,,,,,,,,,,,,,,,,,,,,,,,,,,,,,,,,,,,,,,,,,,,,,,792.2982947565179,792.2982947565179,792.2982947565179,792.2982947565179,792.2982947565179,792.2982947565179,s,1,0.46502065706590656,792.7815882362484,793.7981948458037,,,,,,,,,,,,,,,,,,,,,,,,,,,,,,,,,,,,,,,,564,2023-05-16_15h53.27.863,eb_02psyexp,2022.2.4,59.98518910235028,
163,0,163,0,,,,,,,,,,,,,,,,,,,,,,,,,,,,,,,,,,,,,,,,,,,,,,,,,,,,,,,,,,,793.7981948458037,793.7981948458037,793.7981948458037,793.7981948458037,793.7981948458037,793.7981948458037,l,1,0.5730286668404005,794.3980699423264,795.4314084271464,,,,,,,,,,,,,,,,,,,,,,,,,,,,,,,,,,,,,,,,564,2023-05-16_15h53.27.863,eb_02psyexp,2022.2.4,59.98518910235028,
164,0,164,0,,,,,,,,,,,,,,,,,,,,,,,,,,,,,,,,,,,,,,,,,,,,,,,,,,,,,,,,,,,795.4314084271464,795.4314084271464,795.4314084271464,795.4314084271464,795.4314084271464,795.4314084271464,s,1,0.4519229963043472,795.9147354116722,796.931323910525,,,,,,,,,,,,,,,,,,,,,,,,,,,,,,,,,,,,,,,,564,2023-05-16_15h53.27.863,eb_02psyexp,2022.2.4,59.98518910235028,
165,0,165,0,,,,,,,,,,,,,,,,,,,,,,,,,,,,,,,,,,,,,,,,,,,,,,,,,,,,,,,,,,,796.931323910525,796.931323910525,796.931323910525,796.931323910525,796.931323910525,796.931323910525,s,1,0.6159676355746342,797.5645749206597,798.5811679471954,,,,,,,,,,,,,,,,,,,,,,,,,,,,,,,,,,,,,,,,564,2023-05-16_15h53.27.863,eb_02psyexp,2022.2.4,59.98518910235028,
166,0,166,0,,,,,,,,,,,,,,,,,,,,,,,,,,,,,,,,,,,,,,,,,,,,,,,,,,,,,,,,,,,798.5811679471954,798.5811679471954,798.5811679471954,798.5811679471954,798.5811679471954,798.5811679471954,l,1,0.4621612788323546,799.0644701804122,800.0810903730016,,,,,,,,,,,,,,,,,,,,,,,,,,,,,,,,,,,,,,,,564,2023-05-16_15h53.27.863,eb_02psyexp,2022.2.4,59.98518910235028,
167,0,167,0,,,,,,,,,,,,,,,,,,,,,,,,,,,,,,,,,,,,,,,,,,,,,,,,,,,,,,,,,,,800.0810903730016,800.0810903730016,800.0810903730016,800.0810903730016,800.0810903730016,800.0810903730016,s,1,0.45820046798326075,800.5643600069743,801.5809856327687,,,,,,,,,,,,,,,,,,,,,,,,,,,,,,,,,,,,,,,,564,2023-05-16_15h53.27.863,eb_02psyexp,2022.2.4,59.98518910235028,
168,0,168,0,,,,,,,,,,,,,,,,,,,,,,,,,,,,,,,,,,,,,,,,,,,,,,,,,,,,,,,,,,,801.5809856327687,801.5809856327687,801.5809856327687,801.5809856327687,801.5809856327687,801.5809856327687,l,1,0.462384040481993,802.0642622091691,803.080881496222,,,,,,,,,,,,,,,,,,,,,,,,,,,,,,,,,,,,,,,,564,2023-05-16_15h53.27.863,eb_02psyexp,2022.2.4,59.98518910235028,
169,0,169,0,,,,,,,,,,,,,,,,,,,,,,,,,,,,,,,,,,,,,,,,,,,,,,,,,,,,,,,,,,,803.080881496222,803.080881496222,803.080881496222,803.080881496222,803.080881496222,803.080881496222,s,1,1.3864570290315896,804.4974364299123,805.5140436431684,,,,,,,,,,,,,,,,,,,,,,,,,,,,,,,,,,,,,,,,564,2023-05-16_15h53.27.863,eb_02psyexp,2022.2.4,59.98518910235028,
170,0,170,0,,,,,,,,,,,,,,,,,,,,,,,,,,,,,,,,,,,,,,,,,,,,,,,,,,,,,,,,,,,805.5140436431684,805.5140436431684,805.5140436431684,805.5140436431684,805.5140436431684,805.5140436431684,l,1,0.5123559990897775,806.0473407752143,807.0639365183597,,,,,,,,,,,,,,,,,,,,,,,,,,,,,,,,,,,,,,,,564,2023-05-16_15h53.27.863,eb_02psyexp,2022.2.4,59.98518910235028,
171,0,171,0,,,,,,,,,,,,,,,,,,,,,,,,,,,,,,,,,,,,,,,,,,,,,,,,,,,,,,,,,,,807.0639365183597,807.0639365183597,807.0639365183597,807.0639365183597,807.0639365183597,807.0639365183597,s,1,0.45843349235656206,807.5472299980756,808.5638372113317,,,,,,,,,,,,,,,,,,,,,,,,,,,,,,,,,,,,,,,,564,2023-05-16_15h53.27.863,eb_02psyexp,2022.2.4,59.98518910235028,
172,0,172,0,,,,,,,,,,,,,,,,,,,,,,,,,,,,,,,,,,,,,,,,,,,,,,,,,,,,,,,,,,,808.5638372113317,808.5638372113317,808.5638372113317,808.5638372113317,808.5638372113317,808.5638372113317,s,1,0.43049199717643205,809.0137822453544,810.0470428541448,,,,,,,,,,,,,,,,,,,,,,,,,,,,,,,,,,,,,,,,564,2023-05-16_15h53.27.863,eb_02psyexp,2022.2.4,59.98518910235028,
173,0,173,0,,,,,,,,,,,,,,,,,,,,,,,,,,,,,,,,,,,,,,,,,,,,,,,,,,,,,,,,,,,810.0470428541448,810.0470428541448,810.0470428541448,810.0470428541448,810.0470428541448,810.0470428541448,s,1,0.5153216267790413,810.5803405898769,811.5969526326517,,,,,,,,,,,,,,,,,,,,,,,,,,,,,,,,,,,,,,,,564,2023-05-16_15h53.27.863,eb_02psyexp,2022.2.4,59.98518910235028,
174,0,174,0,,,,,,,,,,,,,,,,,,,,,,,,,,,,,,,,,,,,,,,,,,,,,,,,,,,,,,,,,,,811.5969526326517,811.5969526326517,811.5969526326517,811.5969526326517,811.5969526326517,811.5969526326517,l,1,0.44544027000665665,812.0635631360201,813.0968388370675,,,,,,,,,,,,,,,,,,,,,,,,,,,,,,,,,,,,,,,,564,2023-05-16_15h53.27.863,eb_02psyexp,2022.2.4,59.98518910235028,
175,0,175,0,,,,,,,,,,,,,,,,,,,,,,,,,,,,,,,,,,,,,,,,,,,,,,,,,,,,,,,,,,,813.0968388370675,813.0968388370675,813.0968388370675,813.0968388370675,813.0968388370675,813.0968388370675,s,1,0.3055550073477207,813.4301304151741,814.4467415524123,,,,,,,,,,,,,,,,,,,,,,,,,,,,,,,,,,,,,,,,564,2023-05-16_15h53.27.863,eb_02psyexp,2022.2.4,59.98518910235028,
176,0,176,0,,,,,,,,,,,,,,,,,,,,,,,,,,,,,,,,,,,,,,,,,,,,,,,,,,,,,,,,,,,814.4467415524123,814.4467415524123,814.4467415524123,814.4467415524123,814.4467415524123,814.4467415524123,s,1,0.5476495343464194,815.0133946762944,816.0299753271829,,,,,,,,,,,,,,,,,,,,,,,,,,,,,,,,,,,,,,,,564,2023-05-16_15h53.27.863,eb_02psyexp,2022.2.4,59.98518910235028,
177,0,177,0,,,,,,,,,,,,,,,,,,,,,,,,,,,,,,,,,,,,,,,,,,,,,,,,,,,,,,,,,,,816.0299753271829,816.0299753271829,816.0299753271829,816.0299753271829,816.0299753271829,816.0299753271829,l,1,0.46040454060130287,816.5132636755443,817.5465393765917,,,,,,,,,,,,,,,,,,,,,,,,,,,,,,,,,,,,,,,,564,2023-05-16_15h53.27.863,eb_02psyexp,2022.2.4,59.98518910235028,
178,0,178,0,,,,,,,,,,,,,,,,,,,,,,,,,,,,,,,,,,,,,,,,,,,,,,,,,,,,,,,,,,,817.5465393765917,817.5465393765917,817.5465393765917,817.5465393765917,817.5465393765917,817.5465393765917,l,0,0.46388813441444654,818.0298585131386,819.0464337308222,,,,,,,,,,,,,,,,,,,,,,,,,,,,,,,,,,,,,,,,564,2023-05-16_15h53.27.863,eb_02psyexp,2022.2.4,59.98518910235028,
179,0,179,0,,,,,,,,,,,,,,,,,,,,,,,,,,,,,,,,,,,,,,,,,,,,,,,,,,,,,,,,,,,819.0464337308222,819.0464337308222,819.0464337308222,819.0464337308222,819.0464337308222,819.0464337308222,l,1,0.5080341815482825,819.5797021875915,820.5962940067402,,,,,,,,,,,,,,,,,,,,,,,,,,,,,,,,,,,,,,,,564,2023-05-16_15h53.27.863,eb_02psyexp,2022.2.4,59.98518910235028,
180,0,180,0,,,,,,,,,,,,,,,,,,,,,,,,,,,,,,,,,,,,,,,,,,,,,,,,,,,,,,,,,,,820.5962940067402,820.5962940067402,820.5962940067402,820.5962940067402,820.5962940067402,820.5962940067402,s,1,0.42118460482743103,821.0462677160394,822.0628957565932,,,,,,,,,,,,,,,,,,,,,,,,,,,,,,,,,,,,,,,,564,2023-05-16_15h53.27.863,eb_02psyexp,2022.2.4,59.98518910235028,
181,0,181,0,,,,,,,,,,,,,,,,,,,,,,,,,,,,,,,,,,,,,,,,,,,,,,,,,,,,,,,,,,,822.0628957565932,822.0628957565932,822.0628957565932,822.0628957565932,822.0628957565932,822.0628957565932,l,1,0.4985583596280776,822.5795002532395,823.5961020332761,,,,,,,,,,,,,,,,,,,,,,,,,,,,,,,,,,,,,,,,564,2023-05-16_15h53.27.863,eb_02psyexp,2022.2.4,59.98518910235028,
182,0,182,0,,,,,,,,,,,,,,,,,,,,,,,,,,,,,,,,,,,,,,,,,,,,,,,,,,,,,,,,,,,823.5961020332761,823.5961020332761,823.5961020332761,823.5961020332761,823.5961020332761,823.5961020332761,s,1,0.357335923370556,823.97942080762,825.0126820201112,,,,,,,,,,,,,,,,,,,,,,,,,,,,,,,,,,,,,,,,564,2023-05-16_15h53.27.863,eb_02psyexp,2022.2.4,59.98518910235028,
183,0,183,0,,,,,,,,,,,,,,,,,,,,,,,,,,,,,,,,,,,,,,,,,,,,,,,,,,,,,,,,,,,825.0126820201112,825.0126820201112,825.0126820201112,825.0126820201112,825.0126820201112,825.0126820201112,s,1,0.4287895910529187,825.4626276578201,826.479236380299,,,,,,,,,,,,,,,,,,,,,,,,,,,,,,,,,,,,,,,,564,2023-05-16_15h53.27.863,eb_02psyexp,2022.2.4,59.98518910235028,
184,0,184,0,,,,,,,,,,,,,,,,,,,,,,,,,,,,,,,,,,,,,,,,,,,,,,,,,,,,,,,,,,,826.479236380299,826.479236380299,826.479236380299,826.479236380299,826.479236380299,826.479236380299,l,1,0.5462405216094339,827.0458741100738,828.079133209656,,,,,,,,,,,,,,,,,,,,,,,,,,,,,,,,,,,,,,,,564,2023-05-16_15h53.27.863,eb_02psyexp,2022.2.4,59.98518910235028,
185,0,185,0,,,,,,,,,,,,,,,,,,,,,,,,,,,,,,,,,,,,,,,,,,,,,,,,,,,,,,,,,,,828.079133209656,828.079133209656,828.079133209656,828.079133209656,828.079133209656,828.079133209656,s,1,0.3863444408343639,828.4957512289548,829.5123684030987,,,,,,,,,,,,,,,,,,,,,,,,,,,,,,,,,,,,,,,,564,2023-05-16_15h53.27.863,eb_02psyexp,2022.2.4,59.98518910235028,
186,0,186,0,,,,,,,,,,,,,,,,,,,,,,,,,,,,,,,,,,,,,,,,,,,,,,,,,,,,,,,,,,,829.5123684030987,829.5123684030987,829.5123684030987,829.5123684030987,829.5123684030987,829.5123684030987,s,1,0.545122789364541,830.0789732317644,831.095583463466,,,,,,,,,,,,,,,,,,,,,,,,,,,,,,,,,,,,,,,,564,2023-05-16_15h53.27.863,eb_02psyexp,2022.2.4,59.98518910235028,
187,0,187,0,,,,,,,,,,,,,,,,,,,,,,,,,,,,,,,,,,,,,,,,,,,,,,,,,,,,,,,,,,,831.095583463466,831.095583463466,831.095583463466,831.095583463466,831.095583463466,831.095583463466,s,1,0.45791069672850426,831.5788769431965,832.5954615180672,,,,,,,,,,,,,,,,,,,,,,,,,,,,,,,,,,,,,,,,564,2023-05-16_15h53.27.863,eb_02psyexp,2022.2.4,59.98518910235028,
188,0,188,0,,,,,,,,,,,,,,,,,,,,,,,,,,,,,,,,,,,,,,,,,,,,,,,,,,,,,,,,,,,832.5954615180672,832.5954615180672,832.5954615180672,832.5954615180672,832.5954615180672,832.5954615180672,l,1,0.5259954717184883,833.1454150641221,834.1620092980302,,,,,,,,,,,,,,,,,,,,,,,,,,,,,,,,,,,,,,,,564,2023-05-16_15h53.27.863,eb_02psyexp,2022.2.4,59.98518910235028,
189,0,189,0,,,,,,,,,,,,,,,,,,,,,,,,,,,,,,,,,,,,,,,,,,,,,,,,,,,,,,,,,,,834.1620092980302,834.1620092980302,834.1620092980302,834.1620092980302,834.1620092980302,834.1620092980302,s,1,0.5034956392482854,834.6953085429996,835.7119510721241,,,,,,,,,,,,,,,,,,,,,,,,,,,,,,,,,,,,,,,,564,2023-05-16_15h53.27.863,eb_02psyexp,2022.2.4,59.98518910235028,
190,0,190,0,,,,,,,,,,,,,,,,,,,,,,,,,,,,,,,,,,,,,,,,,,,,,,,,,,,,,,,,,,,835.7119510721241,835.7119510721241,835.7119510721241,835.7119510721241,835.7119510721241,835.7119510721241,l,1,0.48952413703955244,836.228529610089,837.2618152720243,,,,,,,,,,,,,,,,,,,,,,,,,,,,,,,,,,,,,,,,564,2023-05-16_15h53.27.863,eb_02psyexp,2022.2.4,59.98518910235028,
191,0,191,0,,,,,,,,,,,,,,,,,,,,,,,,,,,,,,,,,,,,,,,,,,,,,,,,,,,,,,,,,,,837.2618152720243,837.2618152720243,837.2618152720243,837.2618152720243,837.2618152720243,837.2618152720243,s,1,0.6666890754422639,837.9451040429703,838.9616825809353,,,,,,,,,,,,,,,,,,,,,,,,,,,,,,,,,,,,,,,,564,2023-05-16_15h53.27.863,eb_02psyexp,2022.2.4,59.98518910235028,
192,0,192,0,,,,,,,,,,,,,,,,,,,,,,,,,,,,,,,,,,,,,,,,,,,,,,,,,,,,,,,,,,,838.9616825809353,838.9616825809353,838.9616825809353,838.9616825809353,838.9616825809353,838.9616825809353,l,1,0.5988708296354162,839.5783097763342,840.6115755164938,,,,,,,,,,,,,,,,,,,,,,,,,,,,,,,,,,,,,,,,564,2023-05-16_15h53.27.863,eb_02psyexp,2022.2.4,59.98518910235028,
193,0,193,0,,,,,,,,,,,,,,,,,,,,,,,,,,,,,,,,,,,,,,,,,,,,,,,,,,,,,,,,,,,840.6115755164938,840.6115755164938,840.6115755164938,840.6115755164938,840.6115755164938,840.6115755164938,l,1,0.5809626641857903,841.21153603516,842.2281323819916,,,,,,,,,,,,,,,,,,,,,,,,,,,,,,,,,,,,,,,,564,2023-05-16_15h53.27.863,eb_02psyexp,2022.2.4,59.98518910235028,
194,0,194,0,,,,,,,,,,,,,,,,,,,,,,,,,,,,,,,,,,,,,,,,,,,,,,,,,,,,,,,,,,,842.2281323819916,842.2281323819916,842.2281323819916,842.2281323819916,842.2281323819916,842.2281323819916,s,1,0.5884257832367439,842.8447290910408,843.8613725257019,,,,,,,,,,,,,,,,,,,,,,,,,,,,,,,,,,,,,,,,564,2023-05-16_15h53.27.863,eb_02psyexp,2022.2.4,59.98518910235028,
195,0,195,0,,,,,,,,,,,,,,,,,,,,,,,,,,,,,,,,,,,,,,,,,,,,,,,,,,,,,,,,,,,843.8613725257019,843.8613725257019,843.8613725257019,843.8613725257019,843.8613725257019,843.8613725257019,l,1,0.539162254994153,844.4279966724571,845.444591510066,,,,,,,,,,,,,,,,,,,,,,,,,,,,,,,,,,,,,,,,564,2023-05-16_15h53.27.863,eb_02psyexp,2022.2.4,59.98518910235028,
196,0,196,0,,,,,,,,,,,,,,,,,,,,,,,,,,,,,,,,,,,,,,,,,,,,,,,,,,,,,,,,,,,845.444591510066,845.444591510066,845.444591510066,845.444591510066,845.444591510066,845.444591510066,s,1,0.44398054729390424,845.9112095595483,846.9278050008434,,,,,,,,,,,,,,,,,,,,,,,,,,,,,,,,,,,,,,,,564,2023-05-16_15h53.27.863,eb_02psyexp,2022.2.4,59.98518910235028,
197,0,197,0,,,,,,,,,,,,,,,,,,,,,,,,,,,,,,,,,,,,,,,,,,,,,,,,,,,,,,,,,,,846.9278050008434,846.9278050008434,846.9278050008434,846.9278050008434,846.9278050008434,846.9278050008434,l,1,0.5607692297926405,847.5110650361312,848.5443353039736,,,,,,,,,,,,,,,,,,,,,,,,,,,,,,,,,,,,,,,,564,2023-05-16_15h53.27.863,eb_02psyexp,2022.2.4,59.98518910235028,
198,0,198,0,,,,,,,,,,,,,,,,,,,,,,,,,,,,,,,,,,,,,,,,,,,,,,,,,,,,,,,,,,,848.5443353039736,848.5443353039736,848.5443353039736,848.5443353039736,848.5443353039736,848.5443353039736,l,1,0.528265346569242,849.0942897555506,850.1109365105076,,,,,,,,,,,,,,,,,,,,,,,,,,,,,,,,,,,,,,,,564,2023-05-16_15h53.27.863,eb_02psyexp,2022.2.4,59.98518910235028,
199,0,199,0,,,,,0,0,0,0,,,,,,,,,,,,,,,,,,,,,,,,,,,,,,,,,,,,,,,,,,,,,,,,,,,850.1109365105076,850.1109365105076,850.1109365105076,850.1109365105076,850.1109365105076,850.1109365105076,l,1,0.6736846365238307,850.8108641884319,851.8107995935861,851.8107995935861,851.8107995935861,space,41.43504231143743,,,,,,,,,,,,,,,,,,,,,,,,,,,,,,,,,,,,564,2023-05-16_15h53.27.863,eb_02psyexp,2022.2.4,59.98518910235028,
199,0,199,0,,,,,,,,,,,,,,,,,,,,,,,,,,,,,,,,,,,,,,,,,,,,,,,,,,,,,,,,,,,,,,,,,,,,,,,,,,,,,,,,,,,,,,,,,,,,,,,,,,,,,,,,,,,,,564,2023-05-16_15h53.27.863,eb_02psyexp,2022.2.4,59.98518910235028,
200,0,200,0,,,,,,,,,,,,,,,,,,,,,,,,,,,,,,,,,,,,,,,,,,,,,,,,,,,,,,,,,,,893.3078777334304,893.3078777334304,893.3078777334304,893.3078777334304,893.3078777334304,893.3078777334304,l,1,1.177993776553194,894.5078368032409,895.5410768865695,,,,,,,,,,,,,,,,,,,,,,,,,,,,,,,,,,,,,,,,564,2023-05-16_15h53.27.863,eb_02psyexp,2022.2.4,59.98518910235028,
201,0,201,0,,,,,,,,,,,,,,,,,,,,,,,,,,,,,,,,,,,,,,,,,,,,,,,,,,,,,,,,,,,895.5410768865695,895.5410768865695,895.5410768865695,895.5410768865695,895.5410768865695,895.5410768865695,s,1,0.656736640186864,896.2243342656293,897.2575969873433,,,,,,,,,,,,,,,,,,,,,,,,,,,,,,,,,,,,,,,,564,2023-05-16_15h53.27.863,eb_02psyexp,2022.2.4,59.98518910235028,
202,0,202,0,,,,,,,,,,,,,,,,,,,,,,,,,,,,,,,,,,,,,,,,,,,,,,,,,,,,,,,,,,,897.2575969873433,897.2575969873433,897.2575969873433,897.2575969873433,897.2575969873433,897.2575969873433,l,1,0.5642902523977682,897.8408947532589,898.8574440122611,,,,,,,,,,,,,,,,,,,,,,,,,,,,,,,,,,,,,,,,564,2023-05-16_15h53.27.863,eb_02psyexp,2022.2.4,59.98518910235028,
203,0,203,0,,,,,,,,,,,,,,,,,,,,,,,,,,,,,,,,,,,,,,,,,,,,,,,,,,,,,,,,,,,898.8574440122611,898.8574440122611,898.8574440122611,898.8574440122611,898.8574440122611,898.8574440122611,s,1,0.45148713204253,899.3407869945804,900.3740702417563,,,,,,,,,,,,,,,,,,,,,,,,,,,,,,,,,,,,,,,,564,2023-05-16_15h53.27.863,eb_02psyexp,2022.2.4,59.98518910235028,
204,0,204,0,,,,,,,,,,,,,,,,,,,,,,,,,,,,,,,,,,,,,,,,,,,,,,,,,,,,,,,,,,,900.3740702417563,900.3740702417563,900.3740702417563,900.3740702417563,900.3740702417563,900.3740702417563,l,1,0.47880893931142054,900.8740340203512,901.8902926025621,,,,,,,,,,,,,,,,,,,,,,,,,,,,,,,,,,,,,,,,564,2023-05-16_15h53.27.863,eb_02psyexp,2022.2.4,59.98518910235028,
205,0,205,0,,,,,,,,,,,,,,,,,,,,,,,,,,,,,,,,,,,,,,,,,,,,,,,,,,,,,,,,,,,901.8902926025621,901.8902926025621,901.8902926025621,901.8902926025621,901.8902926025621,901.8902926025621,s,1,0.45063804190431256,902.3739199229167,903.4071880778356,,,,,,,,,,,,,,,,,,,,,,,,,,,,,,,,,,,,,,,,564,2023-05-16_15h53.27.863,eb_02psyexp,2022.2.4,59.98518910235028,
206,0,206,0,,,,,,,,,,,,,,,,,,,,,,,,,,,,,,,,,,,,,,,,,,,,,,,,,,,,,,,,,,,903.4071880778356,903.4071880778356,903.4071880778356,903.4071880778356,903.4071880778356,903.4071880778356,l,1,0.4457046862662537,903.8738245398708,904.8904121332016,,,,,,,,,,,,,,,,,,,,,,,,,,,,,,,,,,,,,,,,564,2023-05-16_15h53.27.863,eb_02psyexp,2022.2.4,59.98518910235028,
207,0,207,0,,,,,,,,,,,,,,,,,,,,,,,,,,,,,,,,,,,,,,,,,,,,,,,,,,,,,,,,,,,904.8904121332016,904.8904121332016,904.8904121332016,904.8904121332016,904.8904121332016,904.8904121332016,l,1,0.6424983069446171,905.5570143056393,906.5736405351345,,,,,,,,,,,,,,,,,,,,,,,,,,,,,,,,,,,,,,,,564,2023-05-16_15h53.27.863,eb_02psyexp,2022.2.4,59.98518910235028,
208,0,208,0,,,,,,,,,,,,,,,,,,,,,,,,,,,,,,,,,,,,,,,,,,,,,,,,,,,,,,,,,,,906.5736405351345,906.5736405351345,906.5736405351345,906.5736405351345,906.5736405351345,906.5736405351345,s,1,0.4632569763925858,907.0569119801658,908.0901910015091,,,,,,,,,,,,,,,,,,,,,,,,,,,,,,,,,,,,,,,,564,2023-05-16_15h53.27.863,eb_02psyexp,2022.2.4,59.98518910235028,
209,0,209,0,,,,,,,,,,,,,,,,,,,,,,,,,,,,,,,,,,,,,,,,,,,,,,,,,,,,,,,,,,,908.0901910015091,908.0901910015091,908.0901910015091,908.0901910015091,908.0901910015091,908.0901910015091,l,1,0.5067262869124534,908.6234778708313,909.6567517608055,,,,,,,,,,,,,,,,,,,,,,,,,,,,,,,,,,,,,,,,564,2023-05-16_15h53.27.863,eb_02psyexp,2022.2.4,59.98518910235028,
210,0,210,0,,,,,,,,,,,,,,,,,,,,,,,,,,,,,,,,,,,,,,,,,,,,,,,,,,,,,,,,,,,909.6567517608055,909.6567517608055,909.6567517608055,909.6567517608055,909.6567517608055,909.6567517608055,s,1,0.6441856208402896,910.3233823066839,911.3566338601231,,,,,,,,,,,,,,,,,,,,,,,,,,,,,,,,,,,,,,,,564,2023-05-16_15h53.27.863,eb_02psyexp,2022.2.4,59.98518910235028,
211,0,211,0,,,,,,,,,,,,,,,,,,,,,,,,,,,,,,,,,,,,,,,,,,,,,,,,,,,,,,,,,,,911.3566338601231,911.3566338601231,911.3566338601231,911.3566338601231,911.3566338601231,911.3566338601231,l,1,0.6323369949241169,912.0065639226232,913.0398381144478,,,,,,,,,,,,,,,,,,,,,,,,,,,,,,,,,,,,,,,,564,2023-05-16_15h53.27.863,eb_02psyexp,2022.2.4,59.98518910235028,
212,0,212,0,,,,,,,,,,,,,,,,,,,,,,,,,,,,,,,,,,,,,,,,,,,,,,,,,,,,,,,,,,,913.0398381144478,913.0398381144478,913.0398381144478,913.0398381144478,913.0398381144478,913.0398381144478,s,1,0.5171351118769962,913.5897928678751,914.6064064198727,,,,,,,,,,,,,,,,,,,,,,,,,,,,,,,,,,,,,,,,564,2023-05-16_15h53.27.863,eb_02psyexp,2022.2.4,59.98518910235028,
213,0,213,0,,,,,,,,,,,,,,,,,,,,,,,,,,,,,,,,,,,,,,,,,,,,,,,,,,,,,,,,,,,914.6064064198727,914.6064064198727,914.6064064198727,914.6064064198727,914.6064064198727,914.6064064198727,l,1,0.5345627399947261,915.1730118522391,916.2062920809694,,,,,,,,,,,,,,,,,,,,,,,,,,,,,,,,,,,,,,,,564,2023-05-16_15h53.27.863,eb_02psyexp,2022.2.4,59.98518910235028,
214,0,214,0,,,,,,,,,,,,,,,,,,,,,,,,,,,,,,,,,,,,,,,,,,,,,,,,,,,,,,,,,,,916.2062920809694,916.2062920809694,916.2062920809694,916.2062920809694,916.2062920809694,916.2062920809694,s,1,0.4856750088656554,916.7229243473557,917.7395237126475,,,,,,,,,,,,,,,,,,,,,,,,,,,,,,,,,,,,,,,,564,2023-05-16_15h53.27.863,eb_02psyexp,2022.2.4,59.98518910235028,
215,0,215,0,,,,,,,,,,,,,,,,,,,,,,,,,,,,,,,,,,,,,,,,,,,,,,,,,,,,,,,,,,,917.7395237126475,917.7395237126475,917.7395237126475,917.7395237126475,917.7395237126475,917.7395237126475,l,1,0.5684466588427313,918.3394513301901,919.3560784652218,,,,,,,,,,,,,,,,,,,,,,,,,,,,,,,,,,,,,,,,564,2023-05-16_15h53.27.863,eb_02psyexp,2022.2.4,59.98518910235028,
216,0,216,0,,,,,,,,,,,,,,,,,,,,,,,,,,,,,,,,,,,,,,,,,,,,,,,,,,,,,,,,,,,919.3560784652218,919.3560784652218,919.3560784652218,919.3560784652218,919.3560784652218,919.3560784652218,s,1,0.47991489960986655,919.8560268497095,920.8726250076143,,,,,,,,,,,,,,,,,,,,,,,,,,,,,,,,,,,,,,,,564,2023-05-16_15h53.27.863,eb_02psyexp,2022.2.4,59.98518910235028,
217,0,217,0,,,,,,,,,,,,,,,,,,,,,,,,,,,,,,,,,,,,,,,,,,,,,,,,,,,,,,,,,,,920.8726250076143,920.8726250076143,920.8726250076143,920.8726250076143,920.8726250076143,920.8726250076143,l,1,0.5073652928840602,921.4059197249007,922.4391863705969,,,,,,,,,,,,,,,,,,,,,,,,,,,,,,,,,,,,,,,,564,2023-05-16_15h53.27.863,eb_02psyexp,2022.2.4,59.98518910235028,
218,0,218,0,,,,,,,,,,,,,,,,,,,,,,,,,,,,,,,,,,,,,,,,,,,,,,,,,,,,,,,,,,,922.4391863705969,922.4391863705969,922.4391863705969,922.4391863705969,922.4391863705969,922.4391863705969,s,1,0.5568742211617064,923.0224608944554,924.0557172774279,,,,,,,,,,,,,,,,,,,,,,,,,,,,,,,,,,,,,,,,564,2023-05-16_15h53.27.863,eb_02psyexp,2022.2.4,59.98518910235028,
219,0,219,0,,,,,,,,,,,,,,,,,,,,,,,,,,,,,,,,,,,,,,,,,,,,,,,,,,,,,,,,,,,924.0557172774279,924.0557172774279,924.0557172774279,924.0557172774279,924.0557172774279,924.0557172774279,l,1,0.4203047264745692,924.5056961180817,925.5222502066026,,,,,,,,,,,,,,,,,,,,,,,,,,,,,,,,,,,,,,,,564,2023-05-16_15h53.27.863,eb_02psyexp,2022.2.4,59.98518910235028,
220,0,220,0,,,,,,,,,,,,,,,,,,,,,,,,,,,,,,,,,,,,,,,,,,,,,,,,,,,,,,,,,,,925.5222502066026,925.5222502066026,925.5222502066026,925.5222502066026,925.5222502066026,925.5222502066026,s,1,0.44179639645153657,925.988914136542,927.0055138036696,,,,,,,,,,,,,,,,,,,,,,,,,,,,,,,,,,,,,,,,564,2023-05-16_15h53.27.863,eb_02psyexp,2022.2.4,59.98518910235028,
221,0,221,0,,,,,,,,,,,,,,,,,,,,,,,,,,,,,,,,,,,,,,,,,,,,,,,,,,,,,,,,,,,927.0055138036696,927.0055138036696,927.0055138036696,927.0055138036696,927.0055138036696,927.0055138036696,l,1,0.6945203971845331,927.7221314003982,928.7553823501512,,,,,,,,,,,,,,,,,,,,,,,,,,,,,,,,,,,,,,,,564,2023-05-16_15h53.27.863,eb_02psyexp,2022.2.4,59.98518910235028,
222,0,222,0,,,,,,,,,,,,,,,,,,,,,,,,,,,,,,,,,,,,,,,,,,,,,,,,,,,,,,,,,,,928.7553823501512,928.7553823501512,928.7553823501512,928.7553823501512,928.7553823501512,928.7553823501512,s,1,0.4566513991449028,929.2386888092151,930.2553035685851,,,,,,,,,,,,,,,,,,,,,,,,,,,,,,,,,,,,,,,,564,2023-05-16_15h53.27.863,eb_02psyexp,2022.2.4,59.98518910235028,
223,0,223,0,,,,,,,,,,,,,,,,,,,,,,,,,,,,,,,,,,,,,,,,,,,,,,,,,,,,,,,,,,,930.2553035685851,930.2553035685851,930.2553035685851,930.2553035685851,930.2553035685851,930.2553035685851,l,1,0.48373384329897817,930.7718984061939,931.7885116563411,,,,,,,,,,,,,,,,,,,,,,,,,,,,,,,,,,,,,,,,564,2023-05-16_15h53.27.863,eb_02psyexp,2022.2.4,59.98518910235028,
224,0,224,0,,,,,,,,,,,,,,,,,,,,,,,,,,,,,,,,,,,,,,,,,,,,,,,,,,,,,,,,,,,931.7885116563411,931.7885116563411,931.7885116563411,931.7885116563411,931.7885116563411,931.7885116563411,s,1,0.4705534769746009,932.2885116563411,933.3050892887841,,,,,,,,,,,,,,,,,,,,,,,,,,,,,,,,,,,,,,,,564,2023-05-16_15h53.27.863,eb_02psyexp,2022.2.4,59.98518910235028,
225,0,225,0,,,,,,,,,,,,,,,,,,,,,,,,,,,,,,,,,,,,,,,,,,,,,,,,,,,,,,,,,,,933.3050892887841,933.3050892887841,933.3050892887841,933.3050892887841,933.3050892887841,933.3050892887841,l,1,1.7620316665706923,935.0882969237718,936.1215170853247,,,,,,,,,,,,,,,,,,,,,,,,,,,,,,,,,,,,,,,,564,2023-05-16_15h53.27.863,eb_02psyexp,2022.2.4,59.98518910235028,
226,0,226,0,,,,,,,,,,,,,,,,,,,,,,,,,,,,,,,,,,,,,,,,,,,,,,,,,,,,,,,,,,,936.1215170853247,936.1215170853247,936.1215170853247,936.1215170853247,936.1215170853247,936.1215170853247,s,1,2.6015768705838127,938.7546902194299,939.7712926031672,,,,,,,,,,,,,,,,,,,,,,,,,,,,,,,,,,,,,,,,564,2023-05-16_15h53.27.863,eb_02psyexp,2022.2.4,59.98518910235028,
227,0,227,0,,,,,,,,,,,,,,,,,,,,,,,,,,,,,,,,,,,,,,,,,,,,,,,,,,,,,,,,,,,939.7712926031672,939.7712926031672,939.7712926031672,939.7712926031672,939.7712926031672,939.7712926031672,l,1,0.5118063392292242,940.3045734355837,941.32114714403,,,,,,,,,,,,,,,,,,,,,,,,,,,,,,,,,,,,,,,,564,2023-05-16_15h53.27.863,eb_02psyexp,2022.2.4,59.98518910235028,
228,0,228,0,,,,,,,,,,,,,,,,,,,,,,,,,,,,,,,,,,,,,,,,,,,,,,,,,,,,,,,,,,,941.32114714403,941.32114714403,941.32114714403,941.32114714403,941.32114714403,941.32114714403,s,1,0.4899693585030036,941.8377896731545,942.8544110731164,,,,,,,,,,,,,,,,,,,,,,,,,,,,,,,,,,,,,,,,564,2023-05-16_15h53.27.863,eb_02psyexp,2022.2.4,59.98518910235028,
229,0,229,0,,,,,,,,,,,,,,,,,,,,,,,,,,,,,,,,,,,,,,,,,,,,,,,,,,,,,,,,,,,942.8544110731164,942.8544110731164,942.8544110731164,942.8544110731164,942.8544110731164,942.8544110731164,l,1,0.46872097563755233,943.3543588539178,944.3876608154969,,,,,,,,,,,,,,,,,,,,,,,,,,,,,,,,,,,,,,,,564,2023-05-16_15h53.27.863,eb_02psyexp,2022.2.4,59.98518910235028,
230,0,230,0,,,,,,,,,,,,,,,,,,,,,,,,,,,,,,,,,,,,,,,,,,,,,,,,,,,,,,,,,,,944.3876608154969,944.3876608154969,944.3876608154969,944.3876608154969,944.3876608154969,944.3876608154969,s,1,0.4954671643936308,944.9042420700716,945.9375292412296,,,,,,,,,,,,,,,,,,,,,,,,,,,,,,,,,,,,,,,,564,2023-05-16_15h53.27.863,eb_02psyexp,2022.2.4,59.98518910235028,
231,0,231,0,,,,,,,,,,,,,,,,,,,,,,,,,,,,,,,,,,,,,,,,,,,,,,,,,,,,,,,,,,,945.9375292412296,945.9375292412296,945.9375292412296,945.9375292412296,945.9375292412296,945.9375292412296,s,0,0.48860411329951603,946.454153961502,947.4874290588632,,,,,,,,,,,,,,,,,,,,,,,,,,,,,,,,,,,,,,,,564,2023-05-16_15h53.27.863,eb_02psyexp,2022.2.4,59.98518910235028,
232,0,232,0,,,,,,,,,,,,,,,,,,,,,,,,,,,,,,,,,,,,,,,,,,,,,,,,,,,,,,,,,,,947.4874290588632,947.4874290588632,947.4874290588632,947.4874290588632,947.4874290588632,947.4874290588632,s,1,0.674695213776431,948.1873660939746,949.2206448134821,,,,,,,,,,,,,,,,,,,,,,,,,,,,,,,,,,,,,,,,564,2023-05-16_15h53.27.863,eb_02psyexp,2022.2.4,59.98518910235028,
233,0,233,0,,,,,,,,,,,,,,,,,,,,,,,,,,,,,,,,,,,,,,,,,,,,,,,,,,,,,,,,,,,949.2206448134821,949.2206448134821,949.2206448134821,949.2206448134821,949.2206448134821,949.2206448134821,l,1,0.4295049638458295,949.6705536260852,950.6871889109316,,,,,,,,,,,,,,,,,,,,,,,,,,,,,,,,,,,,,,,,564,2023-05-16_15h53.27.863,eb_02psyexp,2022.2.4,59.98518910235028,
234,0,234,0,,,,,,,,,,,,,,,,,,,,,,,,,,,,,,,,,,,,,,,,,,,,,,,,,,,,,,,,,,,950.6871889109316,950.6871889109316,950.6871889109316,950.6871889109316,950.6871889109316,950.6871889109316,l,1,1.1869549526454648,951.9037660604081,952.9370468928246,,,,,,,,,,,,,,,,,,,,,,,,,,,,,,,,,,,,,,,,564,2023-05-16_15h53.27.863,eb_02psyexp,2022.2.4,59.98518910235028,
235,0,235,0,,,,,,,,,,,,,,,,,,,,,,,,,,,,,,,,,,,,,,,,,,,,,,,,,,,,,,,,,,,952.9370468928246,952.9370468928246,952.9370468928246,952.9370468928246,952.9370468928246,952.9370468928246,s,1,0.5291231902228901,953.4869922890648,954.503605539212,,,,,,,,,,,,,,,,,,,,,,,,,,,,,,,,,,,,,,,,564,2023-05-16_15h53.27.863,eb_02psyexp,2022.2.4,59.98518910235028,
236,0,236,0,,,,,,,,,,,,,,,,,,,,,,,,,,,,,,,,,,,,,,,,,,,,,,,,,,,,,,,,,,,954.503605539212,954.503605539212,954.503605539212,954.503605539212,954.503605539212,954.503605539212,l,1,0.6106098857853794,955.1368870356819,956.1701708865585,,,,,,,,,,,,,,,,,,,,,,,,,,,,,,,,,,,,,,,,564,2023-05-16_15h53.27.863,eb_02psyexp,2022.2.4,59.98518910235028,
237,0,237,0,,,,,,,,,,,,,,,,,,,,,,,,,,,,,,,,,,,,,,,,,,,,,,,,,,,,,,,,,,,956.1701708865585,956.1701708865585,956.1701708865585,956.1701708865585,956.1701708865585,956.1701708865585,l,1,0.5280293037212687,956.7200538008619,957.7533762878884,,,,,,,,,,,,,,,,,,,,,,,,,,,,,,,,,,,,,,,,564,2023-05-16_15h53.27.863,eb_02psyexp,2022.2.4,59.98518910235028,
238,0,238,0,,,,,,,,,,,,,,,,,,,,,,,,,,,,,,,,,,,,,,,,,,,,,,,,,,,,,,,,,,,957.7533762878884,957.7533762878884,957.7533762878884,957.7533762878884,957.7533762878884,957.7533762878884,s,1,0.4808050406863913,958.2533285963727,959.26992796165,,,,,,,,,,,,,,,,,,,,,,,,,,,,,,,,,,,,,,,,564,2023-05-16_15h53.27.863,eb_02psyexp,2022.2.4,59.98518910235028,
239,0,239,0,,,,,,,,,,,,,,,,,,,,,,,,,,,,,,,,,,,,,,,,,,,,,,,,,,,,,,,,,,,959.26992796165,959.26992796165,959.26992796165,959.26992796165,959.26992796165,959.26992796165,l,1,0.5713848186424002,959.8698948190722,960.9031339968642,,,,,,,,,,,,,,,,,,,,,,,,,,,,,,,,,,,,,,,,564,2023-05-16_15h53.27.863,eb_02psyexp,2022.2.4,59.98518910235028,
240,0,240,0,,,,,,,,,,,,,,,,,,,,,,,,,,,,,,,,,,,,,,,,,,,,,,,,,,,,,,,,,,,960.9031339968642,960.9031339968642,960.9031339968642,960.9031339968642,960.9031339968642,960.9031339968642,s,1,0.443087689607637,961.3697798161011,962.386401216063,,,,,,,,,,,,,,,,,,,,,,,,,,,,,,,,,,,,,,,,564,2023-05-16_15h53.27.863,eb_02psyexp,2022.2.4,59.98518910235028,
241,0,241,0,,,,,,,,,,,,,,,,,,,,,,,,,,,,,,,,,,,,,,,,,,,,,,,,,,,,,,,,,,,962.386401216063,962.386401216063,962.386401216063,962.386401216063,962.386401216063,962.386401216063,l,1,0.7108336133533157,963.1196827729145,964.1528896532836,,,,,,,,,,,,,,,,,,,,,,,,,,,,,,,,,,,,,,,,564,2023-05-16_15h53.27.863,eb_02psyexp,2022.2.4,59.98518910235028,
242,0,242,0,,,,,,,,,,,,,,,,,,,,,,,,,,,,,,,,,,,,,,,,,,,,,,,,,,,,,,,,,,,964.1528896532836,964.1528896532836,964.1528896532836,964.1528896532836,964.1528896532836,964.1528896532836,l,1,0.4483666578307748,964.6195508666278,965.6361752850353,,,,,,,,,,,,,,,,,,,,,,,,,,,,,,,,,,,,,,,,564,2023-05-16_15h53.27.863,eb_02psyexp,2022.2.4,59.98518910235028,
243,0,243,0,,,,,,,,,,,,,,,,,,,,,,,,,,,,,,,,,,,,,,,,,,,,,,,,,,,,,,,,,,,965.6361752850353,965.6361752850353,965.6361752850353,965.6361752850353,965.6361752850353,965.6361752850353,s,1,0.6050698215985904,966.2694338412985,967.3026552102383,,,,,,,,,,,,,,,,,,,,,,,,,,,,,,,,,,,,,,,,564,2023-05-16_15h53.27.863,eb_02psyexp,2022.2.4,59.98518910235028,
244,0,244,0,,,,,,,,,,,,,,,,,,,,,,,,,,,,,,,,,,,,,,,,,,,,,,,,,,,,,,,,,,,967.3026552102383,967.3026552102383,967.3026552102383,967.3026552102383,967.3026552102383,967.3026552102383,l,1,0.5305660095909843,967.8526582588675,968.8692703016422,,,,,,,,,,,,,,,,,,,,,,,,,,,,,,,,,,,,,,,,564,2023-05-16_15h53.27.863,eb_02psyexp,2022.2.4,59.98518910235028,
245,0,245,0,,,,,,,,,,,,,,,,,,,,,,,,,,,,,,,,,,,,,,,,,,,,,,,,,,,,,,,,,,,968.8692703016422,968.8692703016422,968.8692703016422,968.8692703016422,968.8692703016422,968.8692703016422,l,1,0.6120143708394608,969.5025354984828,970.535815727213,,,,,,,,,,,,,,,,,,,,,,,,,,,,,,,,,,,,,,,,564,2023-05-16_15h53.27.863,eb_02psyexp,2022.2.4,59.98518910235028,
246,0,246,0,,,,,,,,,,,,,,,,,,,,,,,,,,,,,,,,,,,,,,,,,,,,,,,,,,,,,,,,,,,970.535815727213,970.535815727213,970.535815727213,970.535815727213,970.535815727213,970.535815727213,l,1,0.4654598416236695,971.0190705707646,972.0357134017395,,,,,,,,,,,,,,,,,,,,,,,,,,,,,,,,,,,,,,,,564,2023-05-16_15h53.27.863,eb_02psyexp,2022.2.4,59.98518910235028,
247,0,247,0,,,,,,,,,,,,,,,,,,,,,,,,,,,,,,,,,,,,,,,,,,,,,,,,,,,,,,,,,,,972.0357134017395,972.0357134017395,972.0357134017395,972.0357134017395,972.0357134017395,972.0357134017395,s,1,0.5255765107867774,972.5856645330205,973.6189308768662,,,,,,,,,,,,,,,,,,,,,,,,,,,,,,,,,,,,,,,,564,2023-05-16_15h53.27.863,eb_02psyexp,2022.2.4,59.98518910235028,
248,0,248,0,,,,,,,,,,,,,,,,,,,,,,,,,,,,,,,,,,,,,,,,,,,,,,,,,,,,,,,,,,,973.6189308768662,973.6189308768662,973.6189308768662,973.6189308768662,973.6189308768662,973.6189308768662,l,1,0.46233604713052046,974.1022089625039,975.1354952281254,,,,,,,,,,,,,,,,,,,,,,,,,,,,,,,,,,,,,,,,564,2023-05-16_15h53.27.863,eb_02psyexp,2022.2.4,59.98518910235028,
249,0,249,0,,,,,,,,,,,,,,,,,,,,,,,,,,,,,,,,,,,,,,,,,,,,,,,,,,,,,,,,,,,975.1354952281254,975.1354952281254,975.1354952281254,975.1354952281254,975.1354952281254,975.1354952281254,s,1,0.5218152195011498,975.685432172686,976.7020357638103,,,,,,,,,,,,,,,,,,,,,,,,,,,,,,,,,,,,,,,,564,2023-05-16_15h53.27.863,eb_02psyexp,2022.2.4,59.98518910235028,
250,0,250,0,,,,,,,,,,,,,,,,,,,,,,,,,,,,,,,,,,,,,,,,,,,,,,,,,,,,,,,,,,,976.7020357638103,976.7020357638103,976.7020357638103,976.7020357638103,976.7020357638103,976.7020357638103,l,1,0.4423484710714547,977.1686833941058,978.2019304198766,,,,,,,,,,,,,,,,,,,,,,,,,,,,,,,,,,,,,,,,564,2023-05-16_15h53.27.863,eb_02psyexp,2022.2.4,59.98518910235028,
251,0,251,0,,,,,,,,,,,,,,,,,,,,,,,,,,,,,,,,,,,,,,,,,,,,,,,,,,,,,,,,,,,978.2019304198766,978.2019304198766,978.2019304198766,978.2019304198766,978.2019304198766,978.2019304198766,s,1,1.0544033175101504,979.2851859274961,980.3017723134399,,,,,,,,,,,,,,,,,,,,,,,,,,,,,,,,,,,,,,,,564,2023-05-16_15h53.27.863,eb_02psyexp,2022.2.4,59.98518910235028,
252,0,252,0,,,,,,,,,,,,,,,,,,,,,,,,,,,,,,,,,,,,,,,,,,,,,,,,,,,,,,,,,,,980.3017723134399,980.3017723134399,980.3017723134399,980.3017723134399,980.3017723134399,980.3017723134399,l,1,0.7225630104512675,981.0517594850244,982.068345267282,,,,,,,,,,,,,,,,,,,,,,,,,,,,,,,,,,,,,,,,564,2023-05-16_15h53.27.863,eb_02psyexp,2022.2.4,59.98518910235028,
253,0,253,0,,,,,,,,,,,,,,,,,,,,,,,,,,,,,,,,,,,,,,,,,,,,,,,,,,,,,,,,,,,982.068345267282,982.068345267282,982.068345267282,982.068345267282,982.068345267282,982.068345267282,s,1,0.6919924448156962,982.7849471680529,983.8015570979042,,,,,,,,,,,,,,,,,,,,,,,,,,,,,,,,,,,,,,,,564,2023-05-16_15h53.27.863,eb_02psyexp,2022.2.4,59.98518910235028,
254,0,254,0,,,,,,,,,,,,,,,,,,,,,,,,,,,,,,,,,,,,,,,,,,,,,,,,,,,,,,,,,,,983.8015570979042,983.8015570979042,983.8015570979042,983.8015570979042,983.8015570979042,983.8015570979042,l,1,0.5987902370106895,984.4181516940444,985.4347851678176,,,,,,,,,,,,,,,,,,,,,,,,,,,,,,,,,,,,,,,,564,2023-05-16_15h53.27.863,eb_02psyexp,2022.2.4,59.98518910235028,
255,0,255,0,,,,,,,,,,,,,,,,,,,,,,,,,,,,,,,,,,,,,,,,,,,,,,,,,,,,,,,,,,,985.4347851678176,985.4347851678176,985.4347851678176,985.4347851678176,985.4347851678176,985.4347851678176,s,1,0.5255599093070487,985.984734186175,987.0013148370635,,,,,,,,,,,,,,,,,,,,,,,,,,,,,,,,,,,,,,,,564,2023-05-16_15h53.27.863,eb_02psyexp,2022.2.4,59.98518910235028,
256,0,256,0,,,,,,,,,,,,,,,,,,,,,,,,,,,,,,,,,,,,,,,,,,,,,,,,,,,,,,,,,,,987.0013148370635,987.0013148370635,987.0013148370635,987.0013148370635,987.0013148370635,987.0013148370635,l,1,0.751061711620423,987.784555373175,988.8011897524702,,,,,,,,,,,,,,,,,,,,,,,,,,,,,,,,,,,,,,,,564,2023-05-16_15h53.27.863,eb_02psyexp,2022.2.4,59.98518910235028,
257,0,257,0,,,,,,,,,,,,,,,,,,,,,,,,,,,,,,,,,,,,,,,,,,,,,,,,,,,,,,,,,,,988.8011897524702,988.8011897524702,988.8011897524702,988.8011897524702,988.8011897524702,988.8011897524702,s,1,0.5431858496303903,989.3678253693506,990.384416886649,,,,,,,,,,,,,,,,,,,,,,,,,,,,,,,,,,,,,,,,564,2023-05-16_15h53.27.863,eb_02psyexp,2022.2.4,59.98518910235028,
258,0,258,0,,,,,,,,,,,,,,,,,,,,,,,,,,,,,,,,,,,,,,,,,,,,,,,,,,,,,,,,,,,990.384416886649,990.384416886649,990.384416886649,990.384416886649,990.384416886649,990.384416886649,l,1,0.5199443838500883,990.9343725456129,991.950974325664,,,,,,,,,,,,,,,,,,,,,,,,,,,,,,,,,,,,,,,,564,2023-05-16_15h53.27.863,eb_02psyexp,2022.2.4,59.98518910235028,
259,0,259,0,,,,,,,,,,,,,,,,,,,,,,,,,,,,,,,,,,,,,,,,,,,,,,,,,,,,,,,,,,,991.950974325664,991.950974325664,991.950974325664,991.950974325664,991.950974325664,991.950974325664,l,1,0.4654447493812768,992.4342587500287,993.4508608319156,,,,,,,,,,,,,,,,,,,,,,,,,,,,,,,,,,,,,,,,564,2023-05-16_15h53.27.863,eb_02psyexp,2022.2.4,59.98518910235028,
260,0,260,0,,,,,,,,,,,,,,,,,,,,,,,,,,,,,,,,,,,,,,,,,,,,,,,,,,,,,,,,,,,993.4508608319156,993.4508608319156,993.4508608319156,993.4508608319156,993.4508608319156,993.4508608319156,l,1,0.588523882892332,994.0674605594104,995.0840641505201,,,,,,,,,,,,,,,,,,,,,,,,,,,,,,,,,,,,,,,,564,2023-05-16_15h53.27.863,eb_02psyexp,2022.2.4,59.98518910235028,
261,0,261,0,,,,,,,,,,,,,,,,,,,,,,,,,,,,,,,,,,,,,,,,,,,,,,,,,,,,,,,,,,,995.0840641505201,995.0840641505201,995.0840641505201,995.0840641505201,995.0840641505201,995.0840641505201,s,1,0.45135975342418533,995.5673929461191,996.5839838597312,,,,,,,,,,,,,,,,,,,,,,,,,,,,,,,,,,,,,,,,564,2023-05-16_15h53.27.863,eb_02psyexp,2022.2.4,59.98518910235028,
262,0,262,0,,,,,,,,,,,,,,,,,,,,,,,,,,,,,,,,,,,,,,,,,,,,,,,,,,,,,,,,,,,996.5839838597312,996.5839838597312,996.5839838597312,996.5839838597312,996.5839838597312,996.5839838597312,s,1,0.45544794290617574,997.0672764339251,998.1005189320131,,,,,,,,,,,,,,,,,,,,,,,,,,,,,,,,,,,,,,,,564,2023-05-16_15h53.27.863,eb_02psyexp,2022.2.4,59.98518910235028,
263,0,263,0,,,,,,,,,,,,,,,,,,,,,,,,,,,,,,,,,,,,,,,,,,,,,,,,,,,,,,,,,,,998.1005189320131,998.1005189320131,998.1005189320131,998.1005189320131,998.1005189320131,998.1005189320131,s,1,0.3868778010510141,998.5171746819542,999.5337686140265,,,,,,,,,,,,,,,,,,,,,,,,,,,,,,,,,,,,,,,,564,2023-05-16_15h53.27.863,eb_02psyexp,2022.2.4,59.98518910235028,
264,0,264,0,,,,,,,,,,,,,,,,,,,,,,,,,,,,,,,,,,,,,,,,,,,,,,,,,,,,,,,,,,,999.5337686140265,999.5337686140265,999.5337686140265,999.5337686140265,999.5337686140265,999.5337686140265,s,1,0.529662285480299,1000.0837221600668,1001.1003254493407,,,,,,,,,,,,,,,,,,,,,,,,,,,,,,,,,,,,,,,,564,2023-05-16_15h53.27.863,eb_02psyexp,2022.2.4,59.98518910235028,
265,0,265,0,,,,,,,,,,,,,,,,,,,,,,,,,,,,,,,,,,,,,,,,,,,,,,,,,,,,,,,,,,,1001.1003254493407,1001.1003254493407,1001.1003254493407,1001.1003254493407,1001.1003254493407,1001.1003254493407,s,1,0.4271019753359724,1001.5502819534595,1002.6335655326693,,,,,,,,,,,,,,,,,,,,,,,,,,,,,,,,,,,,,,,,564,2023-05-16_15h53.27.863,eb_02psyexp,2022.2.4,59.98518910235028,
266,0,266,0,,,,,,,,,,,,,,,,,,,,,,,,,,,,,,,,,,,,,,,,,,,,,,,,,,,,,,,,,,,1002.6335655326693,1002.6335655326693,1002.6335655326693,1002.6335655326693,1002.6335655326693,1002.6335655326693,s,1,0.5178885171480943,1003.1835091178218,1004.1997849052132,,,,,,,,,,,,,,,,,,,,,,,,,,,,,,,,,,,,,,,,564,2023-05-16_15h53.27.863,eb_02psyexp,2022.2.4,59.98518910235028,
267,0,267,0,,,,,,,,,,,,,,,,,,,,,,,,,,,,,,,,,,,,,,,,,,,,,,,,,,,,,,,,,,,1004.1997849052132,1004.1997849052132,1004.1997849052132,1004.1997849052132,1004.1997849052132,1004.1997849052132,s,1,0.4476986747176852,1004.666743435926,1005.6833482344082,,,,,,,,,,,,,,,,,,,,,,,,,,,,,,,,,,,,,,,,564,2023-05-16_15h53.27.863,eb_02psyexp,2022.2.4,59.98518910235028,
268,0,268,0,,,,,,,,,,,,,,,,,,,,,,,,,,,,,,,,,,,,,,,,,,,,,,,,,,,,,,,,,,,1005.6833482344082,1005.6833482344082,1005.6833482344082,1005.6833482344082,1005.6833482344082,1005.6833482344082,s,1,0.38810480121173896,1006.0999490485556,1007.1332178071607,,,,,,,,,,,,,,,,,,,,,,,,,,,,,,,,,,,,,,,,564,2023-05-16_15h53.27.863,eb_02psyexp,2022.2.4,59.98518910235028,
269,0,269,0,,,,,,,,,,,,,,,,,,,,,,,,,,,,,,,,,,,,,,,,,,,,,,,,,,,,,,,,,,,1007.1332178071607,1007.1332178071607,1007.1332178071607,1007.1332178071607,1007.1332178071607,1007.1332178071607,s,1,0.3622653550119139,1007.5165546922071,1008.5331465113559,,,,,,,,,,,,,,,,,,,,,,,,,,,,,,,,,,,,,,,,564,2023-05-16_15h53.27.863,eb_02psyexp,2022.2.4,59.98518910235028,
270,0,270,0,,,,,,,,,,,,,,,,,,,,,,,,,,,,,,,,,,,,,,,,,,,,,,,,,,,,,,,,,,,1008.5331465113559,1008.5331465113559,1008.5331465113559,1008.5331465113559,1008.5331465113559,1008.5331465113559,l,1,0.9373553501209244,1009.4997443372267,1010.5163572855381,,,,,,,,,,,,,,,,,,,,,,,,,,,,,,,,,,,,,,,,564,2023-05-16_15h53.27.863,eb_02psyexp,2022.2.4,59.98518910235028,
271,0,271,0,,,,,,,,,,,,,,,,,,,,,,,,,,,,,,,,,,,,,,,,,,,,,,,,,,,,,,,,,,,1010.5163572855381,1010.5163572855381,1010.5163572855381,1010.5163572855381,1010.5163572855381,1010.5163572855381,l,1,0.610164060635725,1011.1496224823786,1012.1662158107647,,,,,,,,,,,,,,,,,,,,,,,,,,,,,,,,,,,,,,,,564,2023-05-16_15h53.27.863,eb_02psyexp,2022.2.4,59.98518910235028,
272,0,272,0,,,,,,,,,,,,,,,,,,,,,,,,,,,,,,,,,,,,,,,,,,,,,,,,,,,,,,,,,,,1012.1662158107647,1012.1662158107647,1012.1662158107647,1012.1662158107647,1012.1662158107647,1012.1662158107647,s,1,0.49631655639677774,1012.682858641725,1013.7161104970146,,,,,,,,,,,,,,,,,,,,,,,,,,,,,,,,,,,,,,,,564,2023-05-16_15h53.27.863,eb_02psyexp,2022.2.4,59.98518910235028,
273,0,273,0,,,,,,,,,,,,,,,,,,,,,,,,,,,,,,,,,,,,,,,,,,,,,,,,,,,,,,,,,,,1013.7161104970146,1013.7161104970146,1013.7161104970146,1013.7161104970146,1013.7161104970146,1013.7161104970146,s,1,0.6743707303394331,1014.4160273085145,1015.4326628952113,,,,,,,,,,,,,,,,,,,,,,,,,,,,,,,,,,,,,,,,564,2023-05-16_15h53.27.863,eb_02psyexp,2022.2.4,59.98518910235028,
274,0,274,0,,,,,,,,,,,,,,,,,,,,,,,,,,,,,,,,,,,,,,,,,,,,,,,,,,,,,,,,,,,1015.4326628952113,1015.4326628952113,1015.4326628952113,1015.4326628952113,1015.4326628952113,1015.4326628952113,s,1,0.5818102451012237,1016.0325941349001,1017.0658939835557,,,,,,,,,,,,,,,,,,,,,,,,,,,,,,,,,,,,,,,,564,2023-05-16_15h53.27.863,eb_02psyexp,2022.2.4,59.98518910235028,
275,0,275,0,,,,,,,,,,,,,,,,,,,,,,,,,,,,,,,,,,,,,,,,,,,,,,,,,,,,,,,,,,,1017.0658939835557,1017.0658939835557,1017.0658939835557,1017.0658939835557,1017.0658939835557,1017.0658939835557,s,1,0.4526800237217685,1017.5491717673431,1018.565727968773,,,,,,,,,,,,,,,,,,,,,,,,,,,,,,,,,,,,,,,,564,2023-05-16_15h53.27.863,eb_02psyexp,2022.2.4,59.98518910235028,
