trials.thisRepN,trials.thisTrialN,trials.thisN,trials.thisIndex,image_loop.thisRepN,image_loop.thisTrialN,image_loop.thisN,image_loop.thisIndex,break_loop.thisRepN,break_loop.thisTrialN,break_loop.thisN,break_loop.thisIndex,test_trials.thisRepN,test_trials.thisTrialN,test_trials.thisN,test_trials.thisIndex,distance matrix,tools,welcome_text.started,instructions_0_keypress.started,instructions_0_keypress.keys,instructions_0_keypress.rt,consent_image_0.started,consent0_key_resp.started,consent0_text.started,consent0_key_resp.keys,consent0_key_resp.rt,consent_image_1.started,consent1_key_resp.started,consent1_text.started,consent1_key_resp.keys,consent1_key_resp.rt,consent2_text.started,consent_image_2.started,consent2_key_resp.started,consent2_key_resp.keys,consent2_key_resp.rt,agree_button.started,disagree_button.started,consent_image_3.started,agree_button.numClicks,agree_button.timesOn,agree_button.timesOff,disagree_button.numClicks,disagree_button.timesOn,disagree_button.timesOff,instructions_text1.started,instructions1_key_resp.started,instr1_cnt_text.started,instructions1_key_resp.keys,instructions1_key_resp.rt,instructions_text2.started,instr2_cnt_text.started,instructions2_key_resp.started,instructions2_key_resp.keys,instructions2_key_resp.rt,instructions_text3.started,instructions3_key_resp.started,instr3_cnt_text.started,instructions3_key_resp.keys,instructions3_key_resp.rt,text_countdown.started,image.started,small_large_keyresp.started,task_question_text.started,smalleroption_text.started,largeroption_text.started,accuracy_score_text.started,small_large_keyresp.keys,small_large_keyresp.corr,small_large_keyresp.rt,fb_2.started,fb_2.stopped,break_text.started,break_key_resp.started,break_key_resp.keys,break_key_resp.rt,reveal_seq_text.started,start_test_text.started,continue_to_test.started,continue_to_test.keys,continue_to_test.rt,test_structure_info.started,start_test_text_2.started,continue_to_test_2.started,continue_to_test_2.keys,continue_to_test_2.rt,test_cntdown_text.started,parent index,left child index,right child index,left distance,right distance,parent_image.started,top_image_text.started,left_child_image.started,right_child_image.started,path_resp.started,child_choice_text.started,left_choice_text.started,right_choice_text.started,path_resp.keys,path_resp.rt,graph.started,debrief_text.started,debriefing_title.started,demo_scr_adv.started,demo_scr_adv_keypress.started,demo_scr_adv_keypress.keys,demo_scr_adv_keypress.rt,text_countdown_2.started,participant,date,expName,psychopyVersion,frameRate,
,,,,,,,,,,,,,,,,"[[0. 1. 1. 2. 2. 3. 4. 5. 5. 6. 6. 7.]
 [1. 0. 2. 1. 1. 2. 3. 4. 4. 5. 5. 6.]
 [1. 2. 0. 1. 1. 2. 3. 4. 4. 5. 5. 6.]
 [2. 1. 1. 0. 1. 1. 2. 3. 3. 4. 4. 5.]
 [2. 1. 1. 1. 0. 1. 2. 3. 3. 4. 4. 5.]
 [3. 2. 2. 1. 1. 0. 1. 2. 2. 3. 3. 4.]
 [4. 3. 3. 2. 2. 1. 0. 1. 1. 2. 2. 3.]
 [5. 4. 4. 3. 3. 2. 1. 0. 1. 1. 1. 2.]
 [5. 4. 4. 3. 3. 2. 1. 1. 0. 1. 1. 2.]
 [6. 5. 5. 4. 4. 3. 2. 1. 1. 0. 2. 1.]
 [6. 5. 5. 4. 4. 3. 2. 1. 1. 2. 0. 1.]
 [7. 6. 6. 5. 5. 4. 3. 2. 2. 1. 1. 0.]]",[ 0  7  2  9  5  6  8 11  4  3 10  1],9.821716121979989,9.821716121979989,return,190.99426791921724,,,,,,,,,,,,,,,,,,,,,,,,,,,,,,,,,,,,,,,,,,,,,,,,,,,,,,,,,,,,,,,,,,,,,,,,,,,,,,,,,,,,,,,,,,565,2023-05-16_15h56.25.954,eb_02psyexp,2022.2.4,99.93568806797772,
,,,,,,,,,,,,,,,,,,,,,,200.83504892000929,200.83504892000929,200.83504892000929,space,36.85009675868787,,,,,,,,,,,,,,,,,,,,,,,,,,,,,,,,,,,,,,,,,,,,,,,,,,,,,,,,,,,,,,,,,,,,,,,,,,,,,,,,,,,,,565,2023-05-16_15h56.25.954,eb_02psyexp,2022.2.4,99.93568806797772,
,,,,,,,,,,,,,,,,,,,,,,,,,,,237.69853828509804,237.69853828509804,237.69853828509804,space,22.84972850768827,,,,,,,,,,,,,,,,,,,,,,,,,,,,,,,,,,,,,,,,,,,,,,,,,,,,,,,,,,,,,,,,,,,,,,,,,,,,,,,,565,2023-05-16_15h56.25.954,eb_02psyexp,2022.2.4,99.93568806797772,
,,,,,,,,,,,,,,,,,,,,,,,,,,,,,,,,260.56333856331185,260.56333856331185,260.56333856331185,space,25.57509930920787,,,,,,,,,,,,,,,,,,,,,,,,,,,,,,,,,,,,,,,,,,,,,,,,,,,,,,,,,,,,,,,,,,,,,,,,,,,565,2023-05-16_15h56.25.954,eb_02psyexp,2022.2.4,99.93568806797772,
,,,,,,,,,,,,,,,,,,,,,,,,,,,,,,,,,,,,,286.1598498985404,286.1598498985404,286.1598498985404,1,[11.176922858692706],[11.17692829191219],0,,,297.32706632558256,299.3183457200648,299.3183457200648,space,1.9471589609747753,,,,,,,,,,,,,,,,,,,,,,,,,,,,,,,,,,,,,,,,,,,,,,,,,,,,,,,,,,,,,565,2023-05-16_15h56.25.954,eb_02psyexp,2022.2.4,99.93568806797772,
,,,,,,,,,,,,,,,,,,,,,,,,,,,,,,,,,,,,,,,,,,,,,,,,,,,301.2799573674565,304.27193160913885,304.27193160913885,space,6.001641390263103,,,,,,,,,,,,,,,,,,,,,,,,,,,,,,,,,,,,,,,,,,,,,,,,,,,,,,,,565,2023-05-16_15h56.25.954,eb_02psyexp,2022.2.4,99.93568806797772,
,,,,,,,,,,,,,,,,,,,,,,,,,,,,,,,,,,,,,,,,,,,,,,,,,,,,,,,,310.2857488684822,313.27768839814235,313.27768839814235,space,9.594975806307048,,,,,,,,,,,,,,,,,,,,,,,,,,,,,,,,,,,,,,,,,,,,,,,,,,,565,2023-05-16_15h56.25.954,eb_02psyexp,2022.2.4,99.93568806797772,
0,0,0,0,,,,,,,,,,,,,,,,,,,,,,,,,,,,,,,,,,,,,,,,,,,,,,,,,,,,,,,,,,322.89388274773955,327.9271681078244,327.9271681078244,327.9271681078244,327.9271681078244,327.9271681078244,327.9271681078244,s,1,1.544500672025606,329.48783685150556,330.51851970353164,,,,,,,,,,,,,,,,,,,,,,,,,,,,,,,,,,,,,,,565,2023-05-16_15h56.25.954,eb_02psyexp,2022.2.4,99.93568806797772,
1,0,1,0,,,,,,,,,,,,,,,,,,,,,,,,,,,,,,,,,,,,,,,,,,,,,,,,,,,,,,,,,,,330.51851970353164,330.51851970353164,330.51851970353164,330.51851970353164,330.51851970353164,330.51851970353164,l,1,1.5211577862501144,332.049513455946,333.07016448746435,,,,,,,,,,,,,,,,,,,,,,,,,,,,,,,,,,,,,,,565,2023-05-16_15h56.25.954,eb_02psyexp,2022.2.4,99.93568806797772,
2,0,2,0,,,,,,,,,,,,,,,,,,,,,,,,,,,,,,,,,,,,,,,,,,,,,,,,,,,,,,,,,,,333.07016448746435,333.07016448746435,333.07016448746435,333.07016448746435,333.07016448746435,333.07016448746435,l,1,1.0735291112214327,334.16085292957723,335.18150365923066,,,,,,,,,,,,,,,,,,,,,,,,,,,,,,,,,,,,,,,565,2023-05-16_15h56.25.954,eb_02psyexp,2022.2.4,99.93568806797772,
3,0,3,0,,,,,,,,,,,,,,,,,,,,,,,,,,,,,,,,,,,,,,,,,,,,,,,,,,,,,,,,,,,335.18150365923066,335.18150365923066,335.18150365923066,335.18150365923066,335.18150365923066,335.18150365923066,s,1,1.2422149199992418,336.4423433680786,337.46304601512384,,,,,,,,,,,,,,,,,,,,,,,,,,,,,,,,,,,,,,,565,2023-05-16_15h56.25.954,eb_02psyexp,2022.2.4,99.93568806797772,
4,0,4,0,,,,,,,,,,,,,,,,,,,,,,,,,,,,,,,,,,,,,,,,,,,,,,,,,,,,,,,,,,,337.46304601512384,337.46304601512384,337.46304601512384,337.46304601512384,337.46304601512384,337.46304601512384,l,1,0.8246657088166103,338.30353237199597,339.3342067722697,,,,,,,,,,,,,,,,,,,,,,,,,,,,,,,,,,,,,,,565,2023-05-16_15h56.25.954,eb_02psyexp,2022.2.4,99.93568806797772,
5,0,5,0,,,,,,,,,,,,,,,,,,,,,,,,,,,,,,,,,,,,,,,,,,,,,,,,,,,,,,,,,,,339.3342067722697,339.3342067722697,339.3342067722697,339.3342067722697,339.3342067722697,339.3342067722697,s,1,0.873506352188997,340.2247933719773,341.2454419886926,,,,,,,,,,,,,,,,,,,,,,,,,,,,,,,,,,,,,,,565,2023-05-16_15h56.25.954,eb_02psyexp,2022.2.4,99.93568806797772,
6,0,6,0,,,,,,,,,,,,,,,,,,,,,,,,,,,,,,,,,,,,,,,,,,,,,,,,,,,,,,,,,,,341.2454419886926,341.2454419886926,341.2454419886926,341.2454419886926,341.2454419886926,341.2454419886926,s,1,0.8822876285994425,342.14601332100574,343.1767139818985,,,,,,,,,,,,,,,,,,,,,,,,,,,,,,,,,,,,,,,565,2023-05-16_15h56.25.954,eb_02psyexp,2022.2.4,99.93568806797772,
7,0,7,0,,,,,,,,,,,,,,,,,,,,,,,,,,,,,,,,,,,,,,,,,,,,,,,,,,,,,,,,,,,343.1767139818985,343.1767139818985,343.1767139818985,343.1767139818985,343.1767139818985,343.1767139818985,s,1,0.8300288917962462,344.01723656023387,345.0379111355869,,,,,,,,,,,,,,,,,,,,,,,,,,,,,,,,,,,,,,,565,2023-05-16_15h56.25.954,eb_02psyexp,2022.2.4,99.93568806797772,
8,0,8,0,,,,,,,,,,,,,,,,,,,,,,,,,,,,,,,,,,,,,,,,,,,,,,,,,,,,,,,,,,,345.0379111355869,345.0379111355869,345.0379111355869,345.0379111355869,345.0379111355869,345.0379111355869,s,1,0.6808464995119721,345.7383540630108,346.76900974905584,,,,,,,,,,,,,,,,,,,,,,,,,,,,,,,,,,,,,,,565,2023-05-16_15h56.25.954,eb_02psyexp,2022.2.4,99.93568806797772,
9,0,9,0,,,,,,,,,,,,,,,,,,,,,,,,,,,,,,,,,,,,,,,,,,,,,,,,,,,,,,,,,,,346.76900974905584,346.76900974905584,346.76900974905584,346.76900974905584,346.76900974905584,346.76900974905584,s,1,0.6857541982317343,347.4694505635416,348.49018218764104,,,,,,,,,,,,,,,,,,,,,,,,,,,,,,,,,,,,,,,565,2023-05-16_15h56.25.954,eb_02psyexp,2022.2.4,99.93568806797772,
10,0,10,0,,,,,,,,,,,,,,,,,,,,,,,,,,,,,,,,,,,,,,,,,,,,,,,,,,,,,,,,,,,348.49018218764104,348.49018218764104,348.49018218764104,348.49018218764104,348.49018218764104,348.49018218764104,l,1,1.1965868136612698,349.70090776879806,350.73157613223884,,,,,,,,,,,,,,,,,,,,,,,,,,,,,,,,,,,,,,,565,2023-05-16_15h56.25.954,eb_02psyexp,2022.2.4,99.93568806797772,
11,0,11,0,,,,,,,,,,,,,,,,,,,,,,,,,,,,,,,,,,,,,,,,,,,,,,,,,,,,,,,,,,,350.73157613223884,350.73157613223884,350.73157613223884,350.73157613223884,350.73157613223884,350.73157613223884,s,1,0.9152165096020326,351.66218225529883,352.68282272212673,,,,,,,,,,,,,,,,,,,,,,,,,,,,,,,,,,,,,,,565,2023-05-16_15h56.25.954,eb_02psyexp,2022.2.4,99.93568806797772,
12,0,12,0,,,,,,,,,,,,,,,,,,,,,,,,,,,,,,,,,,,,,,,,,,,,,,,,,,,,,,,,,,,352.68282272212673,352.68282272212673,352.68282272212673,352.68282272212673,352.68282272212673,352.68282272212673,s,1,0.7239783472614363,353.42329905787483,354.4539438773645,,,,,,,,,,,,,,,,,,,,,,,,,,,,,,,,,,,,,,,565,2023-05-16_15h56.25.954,eb_02psyexp,2022.2.4,99.93568806797772,
13,0,13,0,,,,,,,,,,,,,,,,,,,,,,,,,,,,,,,,,,,,,,,,,,,,,,,,,,,,,,,,,,,354.4539438773645,354.4539438773645,354.4539438773645,354.4539438773645,354.4539438773645,354.4539438773645,l,1,0.8648696594173089,355.3345327649731,356.35519164439756,,,,,,,,,,,,,,,,,,,,,,,,,,,,,,,,,,,,,,,565,2023-05-16_15h56.25.954,eb_02psyexp,2022.2.4,99.93568806797772,
14,0,14,0,,,,,,,,,,,,,,,,,,,,,,,,,,,,,,,,,,,,,,,,,,,,,,,,,,,,,,,,,,,356.35519164439756,356.35519164439756,356.35519164439756,356.35519164439756,356.35519164439756,356.35519164439756,l,1,2.8106462131254375,359.17701099743135,360.19767500821035,,,,,,,,,,,,,,,,,,,,,,,,,,,,,,,,,,,,,,,565,2023-05-16_15h56.25.954,eb_02psyexp,2022.2.4,99.93568806797772,
15,0,15,0,,,,,,,,,,,,,,,,,,,,,,,,,,,,,,,,,,,,,,,,,,,,,,,,,,,,,,,,,,,360.19767500821035,360.19767500821035,360.19767500821035,360.19767500821035,360.19767500821035,360.19767500821035,l,1,0.9761602341895923,361.1883132838411,362.2089724651305,,,,,,,,,,,,,,,,,,,,,,,,,,,,,,,,,,,,,,,565,2023-05-16_15h56.25.954,eb_02psyexp,2022.2.4,99.93568806797772,
16,0,16,0,,,,,,,,,,,,,,,,,,,,,,,,,,,,,,,,,,,,,,,,,,,,,,,,,,,,,,,,,,,362.2089724651305,362.2089724651305,362.2089724651305,362.2089724651305,362.2089724651305,362.2089724651305,l,1,0.9248824939131737,363.14958414807916,364.1802721314598,,,,,,,,,,,,,,,,,,,,,,,,,,,,,,,,,,,,,,,565,2023-05-16_15h56.25.954,eb_02psyexp,2022.2.4,99.93568806797772,
17,0,17,0,,,,,,,,,,,,,,,,,,,,,,,,,,,,,,,,,,,,,,,,,,,,,,,,,,,,,,,,,,,364.1802721314598,364.1802721314598,364.1802721314598,364.1802721314598,364.1802721314598,364.1802721314598,s,1,0.7776134974556044,364.97077143751085,365.9914282039972,,,,,,,,,,,,,,,,,,,,,,,,,,,,,,,,,,,,,,,565,2023-05-16_15h56.25.954,eb_02psyexp,2022.2.4,99.93568806797772,
18,0,18,0,,,,,,,,,,,,,,,,,,,,,,,,,,,,,,,,,,,,,,,,,,,,,,,,,,,,,,,,,,,365.9914282039972,365.9914282039972,365.9914282039972,365.9914282039972,365.9914282039972,365.9914282039972,l,1,0.7424379835138097,366.7519539940404,367.7825906636426,,,,,,,,,,,,,,,,,,,,,,,,,,,,,,,,,,,,,,,565,2023-05-16_15h56.25.954,eb_02psyexp,2022.2.4,99.93568806797772,
19,0,19,0,,,,,,,,,,,,,,,,,,,,,,,,,,,,,,,,,,,,,,,,,,,,,,,,,,,,,,,,,,,367.7825906636426,367.7825906636426,367.7825906636426,367.7825906636426,367.7825906636426,367.7825906636426,l,1,0.9673104389803484,368.76321704045404,369.78387109038886,,,,,,,,,,,,,,,,,,,,,,,,,,,,,,,,,,,,,,,565,2023-05-16_15h56.25.954,eb_02psyexp,2022.2.4,99.93568806797772,
20,0,20,0,,,,,,,,,,,,,,,,,,,,,,,,,,,,,,,,,,,,,,,,,,,,,,,,,,,,,,,,,,,369.78387109038886,369.78387109038886,369.78387109038886,369.78387109038886,369.78387109038886,369.78387109038886,s,1,0.6700377297820523,370.46431527356617,371.4949899757048,,,,,,,,,,,,,,,,,,,,,,,,,,,,,,,,,,,,,,,565,2023-05-16_15h56.25.954,eb_02psyexp,2022.2.4,99.93568806797772,
21,0,21,0,,,,,,,,,,,,,,,,,,,,,,,,,,,,,,,,,,,,,,,,,,,,,,,,,,,,,,,,,,,371.4949899757048,371.4949899757048,371.4949899757048,371.4949899757048,371.4949899757048,371.4949899757048,s,1,1.1029502508463338,372.61569419235457,373.63637359731365,,,,,,,,,,,,,,,,,,,,,,,,,,,,,,,,,,,,,,,565,2023-05-16_15h56.25.954,eb_02psyexp,2022.2.4,99.93568806797772,
22,0,22,0,,,,,,,,,,,,,,,,,,,,,,,,,,,,,,,,,,,,,,,,,,,,,,,,,,,,,,,,,,,373.63637359731365,373.63637359731365,373.63637359731365,373.63637359731365,373.63637359731365,373.63637359731365,s,1,0.8565402451204136,374.50692975881975,375.537582124467,,,,,,,,,,,,,,,,,,,,,,,,,,,,,,,,,,,,,,,565,2023-05-16_15h56.25.954,eb_02psyexp,2022.2.4,99.93568806797772,
23,0,23,0,,,,,,,,,,,,,,,,,,,,,,,,,,,,,,,,,,,,,,,,,,,,,,,,,,,,,,,,,,,375.537582124467,375.537582124467,375.537582124467,375.537582124467,375.537582124467,375.537582124467,l,1,0.9473409736528993,376.4982194160111,377.5289070975268,,,,,,,,,,,,,,,,,,,,,,,,,,,,,,,,,,,,,,,565,2023-05-16_15h56.25.954,eb_02psyexp,2022.2.4,99.93568806797772,
24,0,24,0,,,,,,,,,,,,,,,,,,,,,,,,,,,,,,,,,,,,,,,,,,,,,,,,,,,,,,,,,,,377.5289070975268,377.5289070975268,377.5289070975268,377.5289070975268,377.5289070975268,377.5289070975268,s,1,0.8200544217834249,378.3594063069904,379.38012887572404,,,,,,,,,,,,,,,,,,,,,,,,,,,,,,,,,,,,,,,565,2023-05-16_15h56.25.954,eb_02psyexp,2022.2.4,99.93568806797772,
25,0,25,0,,,,,,,,,,,,,,,,,,,,,,,,,,,,,,,,,,,,,,,,,,,,,,,,,,,,,,,,,,,379.38012887572404,379.38012887572404,379.38012887572404,379.38012887572404,379.38012887572404,379.38012887572404,l,1,1.0568745082709938,380.450755789876,381.4814344160259,,,,,,,,,,,,,,,,,,,,,,,,,,,,,,,,,,,,,,,565,2023-05-16_15h56.25.954,eb_02psyexp,2022.2.4,99.93568806797772,
26,0,26,0,,,,,,,,,,,,,,,,,,,,,,,,,,,,,,,,,,,,,,,,,,,,,,,,,,,,,,,,,,,381.4814344160259,381.4814344160259,381.4814344160259,381.4814344160259,381.4814344160259,381.4814344160259,l,1,0.7395176326390356,382.23194679804146,383.26259614515584,,,,,,,,,,,,,,,,,,,,,,,,,,,,,,,,,,,,,,,565,2023-05-16_15h56.25.954,eb_02psyexp,2022.2.4,99.93568806797772,
27,0,27,0,,,,,,,,,,,,,,,,,,,,,,,,,,,,,,,,,,,,,,,,,,,,,,,,,,,,,,,,,,,383.26259614515584,383.26259614515584,383.26259614515584,383.26259614515584,383.26259614515584,383.26259614515584,s,1,1.0783698003506288,384.3532797578955,385.3739944786066,,,,,,,,,,,,,,,,,,,,,,,,,,,,,,,,,,,,,,,565,2023-05-16_15h56.25.954,eb_02psyexp,2022.2.4,99.93568806797772,
28,0,28,0,,,,,,,,,,,,,,,,,,,,,,,,,,,,,,,,,,,,,,,,,,,,,,,,,,,,,,,,,,,385.3739944786066,385.3739944786066,385.3739944786066,385.3739944786066,385.3739944786066,385.3739944786066,l,1,1.222997048869729,386.6147367397789,387.64542925090063,,,,,,,,,,,,,,,,,,,,,,,,,,,,,,,,,,,,,,,565,2023-05-16_15h56.25.954,eb_02psyexp,2022.2.4,99.93568806797772,
29,0,29,0,,,,,,,,,,,,,,,,,,,,,,,,,,,,,,,,,,,,,,,,,,,,,,,,,,,,,,,,,,,387.64542925090063,387.64542925090063,387.64542925090063,387.64542925090063,387.64542925090063,387.64542925090063,l,1,0.8546679001301527,388.5159908456262,389.5366083723493,,,,,,,,,,,,,,,,,,,,,,,,,,,,,,,,,,,,,,,565,2023-05-16_15h56.25.954,eb_02psyexp,2022.2.4,99.93568806797772,
30,0,30,0,,,,,,,,,,,,,,,,,,,,,,,,,,,,,,,,,,,,,,,,,,,,,,,,,,,,,,,,,,,389.5366083723493,389.5366083723493,389.5366083723493,389.5366083723493,389.5366083723493,389.5366083723493,l,1,1.0914161475375295,390.647344759549,391.67804391123354,,,,,,,,,,,,,,,,,,,,,,,,,,,,,,,,,,,,,,,565,2023-05-16_15h56.25.954,eb_02psyexp,2022.2.4,99.93568806797772,
31,0,31,0,,,,,,,,,,,,,,,,,,,,,,,,,,,,,,,,,,,,,,,,,,,,,,,,,,,,,,,,,,,391.67804391123354,391.67804391123354,391.67804391123354,391.67804391123354,391.67804391123354,391.67804391123354,s,1,0.765957448631525,392.45851200050674,393.47916695591994,,,,,,,,,,,,,,,,,,,,,,,,,,,,,,,,,,,,,,,565,2023-05-16_15h56.25.954,eb_02psyexp,2022.2.4,99.93568806797772,
32,0,32,0,,,,,,,,,,,,,,,,,,,,,,,,,,,,,,,,,,,,,,,,,,,,,,,,,,,,,,,,,,,393.47916695591994,393.47916695591994,393.47916695591994,393.47916695591994,393.47916695591994,393.47916695591994,s,1,0.8448672930244356,394.33973204612266,395.37041942577343,,,,,,,,,,,,,,,,,,,,,,,,,,,,,,,,,,,,,,,565,2023-05-16_15h56.25.954,eb_02psyexp,2022.2.4,99.93568806797772,
33,0,33,0,,,,,,,,,,,,,,,,,,,,,,,,,,,,,,,,,,,,,,,,,,,,,,,,,,,,,,,,,,,395.37041942577343,395.37041942577343,395.37041942577343,395.37041942577343,395.37041942577343,395.37041942577343,l,1,0.9616251873085275,396.35105274501257,397.37173909239937,,,,,,,,,,,,,,,,,,,,,,,,,,,,,,,,,,,,,,,565,2023-05-16_15h56.25.954,eb_02psyexp,2022.2.4,99.93568806797772,
34,0,34,0,,,,,,,,,,,,,,,,,,,,,,,,,,,,,,,,,,,,,,,,,,,,,,,,,,,,,,,,,,,397.37173909239937,397.37173909239937,397.37173909239937,397.37173909239937,397.37173909239937,397.37173909239937,l,1,0.800327338045463,398.18221088219434,399.2129003747832,,,,,,,,,,,,,,,,,,,,,,,,,,,,,,,,,,,,,,,565,2023-05-16_15h56.25.954,eb_02psyexp,2022.2.4,99.93568806797772,
35,0,35,0,,,,,,,,,,,,,,,,,,,,,,,,,,,,,,,,,,,,,,,,,,,,,,,,,,,,,,,,,,,399.2129003747832,399.2129003747832,399.2129003747832,399.2129003747832,399.2129003747832,399.2129003747832,l,1,0.967156799742952,400.1935095464578,401.214185932884,,,,,,,,,,,,,,,,,,,,,,,,,,,,,,,,,,,,,,,565,2023-05-16_15h56.25.954,eb_02psyexp,2022.2.4,99.93568806797772,
36,0,36,0,,,,,,,,,,,,,,,,,,,,,,,,,,,,,,,,,,,,,,,,,,,,,,,,,,,,,,,,,,,401.214185932884,401.214185932884,401.214185932884,401.214185932884,401.214185932884,401.214185932884,l,1,1.8619100686628371,403.09538696240634,404.12607796420343,,,,,,,,,,,,,,,,,,,,,,,,,,,,,,,,,,,,,,,565,2023-05-16_15h56.25.954,eb_02psyexp,2022.2.4,99.93568806797772,
37,0,37,0,,,,,,,,,,,,,,,,,,,,,,,,,,,,,,,,,,,,,,,,,,,,,,,,,,,,,,,,,,,404.12607796420343,404.12607796420343,404.12607796420343,404.12607796420343,404.12607796420343,404.12607796420343,s,1,1.2130705723538995,405.3568466609577,406.3875077801058,,,,,,,,,,,,,,,,,,,,,,,,,,,,,,,,,,,,,,,565,2023-05-16_15h56.25.954,eb_02psyexp,2022.2.4,99.93568806797772,
38,0,38,0,,,,,,,,,,,,,,,,,,,,,,,,,,,,,,,,,,,,,,,,,,,,,,,,,,,,,,,,,,,406.3875077801058,406.3875077801058,406.3875077801058,406.3875077801058,406.3875077801058,406.3875077801058,l,1,1.0795856323093176,407.4782378769014,408.49892482790165,,,,,,,,,,,,,,,,,,,,,,,,,,,,,,,,,,,,,,,565,2023-05-16_15h56.25.954,eb_02psyexp,2022.2.4,99.93568806797772,
39,0,39,0,,,,,,,,,,,,,,,,,,,,,,,,,,,,,,,,,,,,,,,,,,,,,,,,,,,,,,,,,,,408.49892482790165,408.49892482790165,408.49892482790165,408.49892482790165,408.49892482790165,408.49892482790165,l,1,1.1361930508865044,409.6496173510095,410.6802947698161,,,,,,,,,,,,,,,,,,,,,,,,,,,,,,,,,,,,,,,565,2023-05-16_15h56.25.954,eb_02psyexp,2022.2.4,99.93568806797772,
40,0,40,0,,,,,,,,,,,,,,,,,,,,,,,,,,,,,,,,,,,,,,,,,,,,,,,,,,,,,,,,,,,410.6802947698161,410.6802947698161,410.6802947698161,410.6802947698161,410.6802947698161,410.6802947698161,s,1,1.290906451875344,411.9811250248458,413.0017974873772,,,,,,,,,,,,,,,,,,,,,,,,,,,,,,,,,,,,,,,565,2023-05-16_15h56.25.954,eb_02psyexp,2022.2.4,99.93568806797772,
41,0,41,0,,,,,,,,,,,,,,,,,,,,,,,,,,,,,,,,,,,,,,,,,,,,,,,,,,,,,,,,,,,413.0017974873772,413.0017974873772,413.0017974873772,413.0017974873772,413.0017974873772,413.0017974873772,l,1,1.057335727615282,414.0724772242829,415.1031564541627,,,,,,,,,,,,,,,,,,,,,,,,,,,,,,,,,,,,,,,565,2023-05-16_15h56.25.954,eb_02psyexp,2022.2.4,99.93568806797772,
42,0,42,0,,,,,,,,,,,,,,,,,,,,,,,,,,,,,,,,,,,,,,,,,,,,,,,,,,,,,,,,,,,415.1031564541627,415.1031564541627,415.1031564541627,415.1031564541627,415.1031564541627,415.1031564541627,s,1,1.1080233607208356,416.223882101709,417.2445391701767,,,,,,,,,,,,,,,,,,,,,,,,,,,,,,,,,,,,,,,565,2023-05-16_15h56.25.954,eb_02psyexp,2022.2.4,99.93568806797772,
43,0,43,0,,,,,,,,,,,,,,,,,,,,,,,,,,,,,,,,,,,,,,,,,,,,,,,,,,,,,,,,,,,417.2445391701767,417.2445391701767,417.2445391701767,417.2445391701767,417.2445391701767,417.2445391701767,l,1,1.0146158982533962,418.2752437549643,419.2958425672259,,,,,,,,,,,,,,,,,,,,,,,,,,,,,,,,,,,,,,,565,2023-05-16_15h56.25.954,eb_02psyexp,2022.2.4,99.93568806797772,
44,0,44,0,,,,,,,,,,,,,,,,,,,,,,,,,,,,,,,,,,,,,,,,,,,,,,,,,,,,,,,,,,,419.2958425672259,419.2958425672259,419.2958425672259,419.2958425672259,419.2958425672259,419.2958425672259,s,1,0.7063979854574427,420.01629872759804,421.03699865797535,,,,,,,,,,,,,,,,,,,,,,,,,,,,,,,,,,,,,,,565,2023-05-16_15h56.25.954,eb_02psyexp,2022.2.4,99.93568806797772,
45,0,45,0,,,,,,,,,,,,,,,,,,,,,,,,,,,,,,,,,,,,,,,,,,,,,,,,,,,,,,,,,,,421.03699865797535,421.03699865797535,421.03699865797535,421.03699865797535,421.03699865797535,421.03699865797535,s,1,0.5251665904652327,421.5773378352169,422.60799925622996,,,,,,,,,,,,,,,,,,,,,,,,,,,,,,,,,,,,,,,565,2023-05-16_15h56.25.954,eb_02psyexp,2022.2.4,99.93568806797772,
46,0,46,0,,,,,,,,,,,,,,,,,,,,,,,,,,,,,,,,,,,,,,,,,,,,,,,,,,,,,,,,,,,422.60799925622996,422.60799925622996,422.60799925622996,422.60799925622996,422.60799925622996,422.60799925622996,s,1,0.4341980360914022,423.0583200873807,424.08895554975607,,,,,,,,,,,,,,,,,,,,,,,,,,,,,,,,,,,,,,,565,2023-05-16_15h56.25.954,eb_02psyexp,2022.2.4,99.93568806797772,
47,0,47,0,,,,,,,,,,,,,,,,,,,,,,,,,,,,,,,,,,,,,,,,,,,,,,,,,,,,,,,,,,,424.08895554975607,424.08895554975607,424.08895554975607,424.08895554975607,424.08895554975607,424.08895554975607,l,1,0.44124249613378197,424.54925145441666,425.5699685900472,,,,,,,,,,,,,,,,,,,,,,,,,,,,,,,,,,,,,,,565,2023-05-16_15h56.25.954,eb_02psyexp,2022.2.4,99.93568806797772,
48,0,48,0,,,,,,,,,,,,,,,,,,,,,,,,,,,,,,,,,,,,,,,,,,,,,,,,,,,,,,,,,,,425.5699685900472,425.5699685900472,425.5699685900472,425.5699685900472,425.5699685900472,425.5699685900472,l,1,0.4882322255289182,426.07023994869087,427.09089912998024,,,,,,,,,,,,,,,,,,,,,,,,,,,,,,,,,,,,,,,565,2023-05-16_15h56.25.954,eb_02psyexp,2022.2.4,99.93568806797772,
49,0,49,0,,,,,,,,,,,,,,,,,,,,,,,,,,,,,,,,,,,,,,,,,,,,,,,,,,,,,,,,,,,427.09089912998024,427.09089912998024,427.09089912998024,427.09089912998024,427.09089912998024,427.09089912998024,s,1,0.5993380709551275,427.7012956397375,428.7219518026104,,,,,,,,,,,,,,,,,,,,,,,,,,,,,,,,,,,,,,,565,2023-05-16_15h56.25.954,eb_02psyexp,2022.2.4,99.93568806797772,
50,0,50,0,,,,,,,,,,,,,,,,,,,,,,,,,,,,,,,,,,,,,,,,,,,,,,,,,,,,,,,,,,,428.7219518026104,428.7219518026104,428.7219518026104,428.7219518026104,428.7219518026104,428.7219518026104,s,1,0.4722495296737179,429.2122948736651,430.2429469374474,,,,,,,,,,,,,,,,,,,,,,,,,,,,,,,,,,,,,,,565,2023-05-16_15h56.25.954,eb_02psyexp,2022.2.4,99.93568806797772,
51,0,51,0,,,,,,,,,,,,,,,,,,,,,,,,,,,,,,,,,,,,,,,,,,,,,,,,,,,,,,,,,,,430.2429469374474,430.2429469374474,430.2429469374474,430.2429469374474,430.2429469374474,430.2429469374474,l,1,0.5432788032339886,430.80328968854155,,,,,,,,,,,,,,,,,,,,,,,,,,,,,,,,,,,,,,,,565,2023-05-16_15h56.25.954,eb_02psyexp,2022.2.4,99.93568806797772,
52,0,52,0,,,,,,,,,,,,,,,,,,,,,,,,,,,,,,,,,,,,,,,,,,,,,,,,,,,,,,,,,,,431.8242694293149,431.8242694293149,431.8242694293149,431.8242694293149,431.8242694293149,431.8242694293149,l,1,0.5459510374348611,432.38464176119305,433.4149962058291,,,,,,,,,,,,,,,,,,,,,,,,,,,,,,,,,,,,,,,565,2023-05-16_15h56.25.954,eb_02psyexp,2022.2.4,99.93568806797772,
53,0,53,0,,,,,,,,,,,,,,,,,,,,,,,,,,,,,,,,,,,,,,,,,,,,,,,,,,,,,,,,,,,433.4149962058291,433.4149962058291,433.4149962058291,433.4149962058291,433.4149962058291,433.4149962058291,s,1,0.4992429295089096,433.92533409723546,,,,,,,,,,,,,,,,,,,,,,,,,,,,,,,,,,,,,,,,565,2023-05-16_15h56.25.954,eb_02psyexp,2022.2.4,99.93568806797772,
54,0,54,0,,,,,,,,,,,,,,,,,,,,,,,,,,,,,,,,,,,,,,,,,,,,,,,,,,,,,,,,,,,434.9462761073373,434.9462761073373,434.9462761073373,434.9462761073373,434.9462761073373,434.9462761073373,l,1,0.5270664031850174,435.48665663739666,436.5169854251435,,,,,,,,,,,,,,,,,,,,,,,,,,,,,,,,,,,,,,,565,2023-05-16_15h56.25.954,eb_02psyexp,2022.2.4,99.93568806797772,
55,0,55,0,,,,,,,,,,,,,,,,,,,,,,,,,,,,,,,,,,,,,,,,,,,,,,,,,,,,,,,,,,,436.5169854251435,436.5169854251435,436.5169854251435,436.5169854251435,436.5169854251435,436.5169854251435,s,1,0.5482885256642476,437.0773547386052,438.09801361802965,,,,,,,,,,,,,,,,,,,,,,,,,,,,,,,,,,,,,,,565,2023-05-16_15h56.25.954,eb_02psyexp,2022.2.4,99.93568806797772,
56,0,56,0,,,,,,,,,,,,,,,,,,,,,,,,,,,,,,,,,,,,,,,,,,,,,,,,,,,,,,,,,,,438.09801361802965,438.09801361802965,438.09801361802965,438.09801361802965,438.09801361802965,438.09801361802965,s,1,0.4952718559652567,438.60834396327846,439.6389939142391,,,,,,,,,,,,,,,,,,,,,,,,,,,,,,,,,,,,,,,565,2023-05-16_15h56.25.954,eb_02psyexp,2022.2.4,99.93568806797772,
57,0,57,0,,,,,,,,,,,,,,,,,,,,,,,,,,,,,,,,,,,,,,,,,,,,,,,,,,,,,,,,,,,439.6389939142391,439.6389939142391,439.6389939142391,439.6389939142391,439.6389939142391,439.6389939142391,s,1,0.5542892053490505,440.2093947463436,441.2300853194902,,,,,,,,,,,,,,,,,,,,,,,,,,,,,,,,,,,,,,,565,2023-05-16_15h56.25.954,eb_02psyexp,2022.2.4,99.93568806797772,
58,0,58,0,,,,,,,,,,,,,,,,,,,,,,,,,,,,,,,,,,,,,,,,,,,,,,,,,,,,,,,,,,,441.2300853194902,441.2300853194902,441.2300853194902,441.2300853194902,441.2300853194902,441.2300853194902,l,1,0.49125429813284427,441.7403845747467,,,,,,,,,,,,,,,,,,,,,,,,,,,,,,,,,,,,,,,,565,2023-05-16_15h56.25.954,eb_02psyexp,2022.2.4,99.93568806797772,
59,0,59,0,,,,,,,,,,,,,,,,,,,,,,,,,,,,,,,,,,,,,,,,,,,,,,,,,,,,,,,,,,,442.7713584053563,442.7713584053563,442.7713584053563,442.7713584053563,442.7713584053563,442.7713584053563,s,1,0.637933791265823,443.4217840974452,444.452126166434,,,,,,,,,,,,,,,,,,,,,,,,,,,,,,,,,,,,,,,565,2023-05-16_15h56.25.954,eb_02psyexp,2022.2.4,99.93568806797772,
60,0,60,0,,,,,,,,,,,,,,,,,,,,,,,,,,,,,,,,,,,,,,,,,,,,,,,,,,,,,,,,,,,444.452126166434,444.452126166434,444.452126166434,444.452126166434,444.452126166434,444.452126166434,l,1,0.5651649846695364,445.03247581166215,446.05314555752557,,,,,,,,,,,,,,,,,,,,,,,,,,,,,,,,,,,,,,,565,2023-05-16_15h56.25.954,eb_02psyexp,2022.2.4,99.93568806797772,
61,0,61,0,,,,,,,,,,,,,,,,,,,,,,,,,,,,,,,,,,,,,,,,,,,,,,,,,,,,,,,,,,,446.05314555752557,446.05314555752557,446.05314555752557,446.05314555752557,446.05314555752557,446.05314555752557,l,1,0.6922151917824522,446.7636015911121,447.79427086003125,,,,,,,,,,,,,,,,,,,,,,,,,,,,,,,,,,,,,,,565,2023-05-16_15h56.25.954,eb_02psyexp,2022.2.4,99.93568806797772,
62,0,62,0,,,,,,,,,,,,,,,,,,,,,,,,,,,,,,,,,,,,,,,,,,,,,,,,,,,,,,,,,,,447.79427086003125,447.79427086003125,447.79427086003125,447.79427086003125,447.79427086003125,447.79427086003125,s,1,0.615035523311235,448.4246754712658,449.445384155144,,,,,,,,,,,,,,,,,,,,,,,,,,,,,,,,,,,,,,,565,2023-05-16_15h56.25.954,eb_02psyexp,2022.2.4,99.93568806797772,
63,0,63,0,,,,,,,,,,,,,,,,,,,,,,,,,,,,,,,,,,,,,,,,,,,,,,,,,,,,,,,,,,,449.445384155144,449.445384155144,449.445384155144,449.445384155144,449.445384155144,449.445384155144,l,1,0.6119657590752468,450.07575073395856,451.1064133623149,,,,,,,,,,,,,,,,,,,,,,,,,,,,,,,,,,,,,,,565,2023-05-16_15h56.25.954,eb_02psyexp,2022.2.4,99.93568806797772,
64,0,64,0,,,,,,,,,,,,,,,,,,,,,,,,,,,,,,,,,,,,,,,,,,,,,,,,,,,,,,,,,,,451.1064133623149,451.1064133623149,451.1064133623149,451.1064133623149,451.1064133623149,451.1064133623149,l,1,0.9979682378470898,452.1170543062035,453.1377611790085,,,,,,,,,,,,,,,,,,,,,,,,,,,,,,,,,,,,,,,565,2023-05-16_15h56.25.954,eb_02psyexp,2022.2.4,99.93568806797772,
65,0,65,0,,,,,,,,,,,,,,,,,,,,,,,,,,,,,,,,,,,,,,,,,,,,,,,,,,,,,,,,,,,453.1377611790085,453.1377611790085,453.1377611790085,453.1377611790085,453.1377611790085,453.1377611790085,l,1,0.9026072340784594,454.0583267279435,455.08899720432237,,,,,,,,,,,,,,,,,,,,,,,,,,,,,,,,,,,,,,,565,2023-05-16_15h56.25.954,eb_02psyexp,2022.2.4,99.93568806797772,
66,0,66,0,,,,,,,,,,,,,,,,,,,,,,,,,,,,,,,,,,,,,,,,,,,,,,,,,,,,,,,,,,,455.08899720432237,455.08899720432237,455.08899720432237,455.08899720432237,455.08899720432237,455.08899720432237,l,1,0.9993745340034366,456.0996493163984,457.1203015552601,,,,,,,,,,,,,,,,,,,,,,,,,,,,,,,,,,,,,,,565,2023-05-16_15h56.25.954,eb_02psyexp,2022.2.4,99.93568806797772,
67,0,67,0,,,,,,,,,,,,,,,,,,,,,,,,,,,,,,,,,,,,,,,,,,,,,,,,,,,,,,,,,,,457.1203015552601,457.1203015552601,457.1203015552601,457.1203015552601,457.1203015552601,457.1203015552601,l,1,0.768108396558091,457.90078956633806,458.93149264191743,,,,,,,,,,,,,,,,,,,,,,,,,,,,,,,,,,,,,,,565,2023-05-16_15h56.25.954,eb_02psyexp,2022.2.4,99.93568806797772,
68,0,68,0,,,,,,,,,,,,,,,,,,,,,,,,,,,,,,,,,,,,,,,,,,,,,,,,,,,,,,,,,,,458.93149264191743,458.93149264191743,458.93149264191743,458.93149264191743,458.93149264191743,458.93149264191743,l,1,0.7649115554522723,459.71196103305556,460.73267635749653,,,,,,,,,,,,,,,,,,,,,,,,,,,,,,,,,,,,,,,565,2023-05-16_15h56.25.954,eb_02psyexp,2022.2.4,99.93568806797772,
69,0,69,0,,,,,,,,,,,,,,,,,,,,,,,,,,,,,,,,,,,,,,,,,,,,,,,,,,,,,,,,,,,460.73267635749653,460.73267635749653,460.73267635749653,460.73267635749653,460.73267635749653,460.73267635749653,l,1,0.9237400103593245,461.6732249548659,462.70388516853563,,,,,,,,,,,,,,,,,,,,,,,,,,,,,,,,,,,,,,,565,2023-05-16_15h56.25.954,eb_02psyexp,2022.2.4,99.93568806797772,
70,0,70,0,,,,,,,,,,,,,,,,,,,,,,,,,,,,,,,,,,,,,,,,,,,,,,,,,,,,,,,,,,,462.70388516853563,462.70388516853563,462.70388516853563,462.70388516853563,462.70388516853563,462.70388516853563,l,1,0.7285863138968125,463.44441010116134,464.47504526167177,,,,,,,,,,,,,,,,,,,,,,,,,,,,,,,,,,,,,,,565,2023-05-16_15h56.25.954,eb_02psyexp,2022.2.4,99.93568806797772,
71,0,71,0,,,,,,,,,,,,,,,,,,,,,,,,,,,,,,,,,,,,,,,,,,,,,,,,,,,,,,,,,,,464.47504526167177,464.47504526167177,464.47504526167177,464.47504526167177,464.47504526167177,464.47504526167177,l,0,0.78939873597119,465.2755857454613,466.2962253068108,,,,,,,,,,,,,,,,,,,,,,,,,,,,,,,,,,,,,,,565,2023-05-16_15h56.25.954,eb_02psyexp,2022.2.4,99.93568806797772,
72,0,72,0,,,,,,,,,,,,,,,,,,,,,,,,,,,,,,,,,,,,,,,,,,,,,,,,,,,,,,,,,,,466.2962253068108,466.2962253068108,466.2962253068108,466.2962253068108,466.2962253068108,466.2962253068108,s,1,1.0072623488958925,467.3168724143179,468.3475606995635,,,,,,,,,,,,,,,,,,,,,,,,,,,,,,,,,,,,,,,565,2023-05-16_15h56.25.954,eb_02psyexp,2022.2.4,99.93568806797772,
73,0,73,0,,,,,,,,,,,,,,,,,,,,,,,,,,,,,,,,,,,,,,,,,,,,,,,,,,,,,,,,,,,468.3475606995635,468.3475606995635,468.3475606995635,468.3475606995635,468.3475606995635,468.3475606995635,s,1,0.7318589179776609,469.09805497084744,470.11875067534856,,,,,,,,,,,,,,,,,,,,,,,,,,,,,,,,,,,,,,,565,2023-05-16_15h56.25.954,eb_02psyexp,2022.2.4,99.93568806797772,
74,0,74,0,,,,,,,,,,,,,,,,,,,,,,,,,,,,,,,,,,,,,,,,,,,,,,,,,,,,,,,,,,,470.11875067534856,470.11875067534856,470.11875067534856,470.11875067534856,470.11875067534856,470.11875067534856,l,1,0.7047665129648522,470.83914827776607,471.86981664120685,,,,,,,,,,,,,,,,,,,,,,,,,,,,,,,,,,,,,,,565,2023-05-16_15h56.25.954,eb_02psyexp,2022.2.4,99.93568806797772,
75,0,75,0,,,,,,,,,,,,,,,,,,,,,,,,,,,,,,,,,,,,,,,,,,,,,,,,,,,,,,,,,,,471.86981664120685,471.86981664120685,471.86981664120685,471.86981664120685,471.86981664120685,471.86981664120685,s,1,0.79367980430834,472.68035906285513,473.7009956057882,,,,,,,,,,,,,,,,,,,,,,,,,,,,,,,,,,,,,,,565,2023-05-16_15h56.25.954,eb_02psyexp,2022.2.4,99.93568806797772,
76,0,76,0,,,,,,,,,,,,,,,,,,,,,,,,,,,,,,,,,,,,,,,,,,,,,,,,,,,,,,,,,,,473.7009956057882,473.7009956057882,473.7009956057882,473.7009956057882,473.7009956057882,473.7009956057882,s,1,0.6264932599151507,474.3414344522171,475.37207746075,,,,,,,,,,,,,,,,,,,,,,,,,,,,,,,,,,,,,,,565,2023-05-16_15h56.25.954,eb_02psyexp,2022.2.4,99.93568806797772,
77,0,77,0,,,,,,,,,,,,,,,,,,,,,,,,,,,,,,,,,,,,,,,,,,,,,,,,,,,,,,,,,,,475.37207746075,475.37207746075,475.37207746075,475.37207746075,475.37207746075,475.37207746075,s,1,1.0354178523411974,476.42275241645984,477.443431519554,,,,,,,,,,,,,,,,,,,,,,,,,,,,,,,,,,,,,,,565,2023-05-16_15h56.25.954,eb_02psyexp,2022.2.4,99.93568806797772,
78,0,78,0,,,,,,,,,,,,,,,,,,,,,,,,,,,,,,,,,,,,,,,,,,,,,,,,,,,,,,,,,,,477.443431519554,477.443431519554,477.443431519554,477.443431519554,477.443431519554,477.443431519554,l,1,0.8760349081130698,478.3340105729876,479.36465901474,,,,,,,,,,,,,,,,,,,,,,,,,,,,,,,,,,,,,,,565,2023-05-16_15h56.25.954,eb_02psyexp,2022.2.4,99.93568806797772,
79,0,79,0,,,,,,,,,,,,,,,,,,,,,,,,,,,,,,,,,,,,,,,,,,,,,,,,,,,,,,,,,,,479.36465901474,479.36465901474,479.36465901474,479.36465901474,479.36465901474,479.36465901474,s,1,0.786869877949357,480.16518742463086,481.185885543935,,,,,,,,,,,,,,,,,,,,,,,,,,,,,,,,,,,,,,,565,2023-05-16_15h56.25.954,eb_02psyexp,2022.2.4,99.93568806797772,
80,0,80,0,,,,,,,,,,,,,,,,,,,,,,,,,,,,,,,,,,,,,,,,,,,,,,,,,,,,,,,,,,,481.185885543935,481.185885543935,481.185885543935,481.185885543935,481.185885543935,481.185885543935,l,1,0.6376551882131025,481.8362526780693,482.8669370393036,,,,,,,,,,,,,,,,,,,,,,,,,,,,,,,,,,,,,,,565,2023-05-16_15h56.25.954,eb_02psyexp,2022.2.4,99.93568806797772,
81,0,81,0,,,,,,,,,,,,,,,,,,,,,,,,,,,,,,,,,,,,,,,,,,,,,,,,,,,,,,,,,,,482.8669370393036,482.8669370393036,482.8669370393036,482.8669370393036,482.8669370393036,482.8669370393036,l,1,0.6676235729828477,483.54736039519776,484.56806907907594,,,,,,,,,,,,,,,,,,,,,,,,,,,,,,,,,,,,,,,565,2023-05-16_15h56.25.954,eb_02psyexp,2022.2.4,99.93568806797772,
82,0,82,0,,,,,,,,,,,,,,,,,,,,,,,,,,,,,,,,,,,,,,,,,,,,,,,,,,,,,,,,,,,484.56806907907594,484.56806907907594,484.56806907907594,484.56806907907594,484.56806907907594,484.56806907907594,l,1,0.9024674798129126,485.4886156118009,486.5193005767651,,,,,,,,,,,,,,,,,,,,,,,,,,,,,,,,,,,,,,,565,2023-05-16_15h56.25.954,eb_02psyexp,2022.2.4,99.93568806797772,
83,0,83,0,,,,,,,,,,,,,,,,,,,,,,,,,,,,,,,,,,,,,,,,,,,,,,,,,,,,,,,,,,,486.5193005767651,486.5193005767651,486.5193005767651,486.5193005767651,486.5193005767651,486.5193005767651,s,1,0.5432440909789875,487.0796575145796,488.1002922464395,,,,,,,,,,,,,,,,,,,,,,,,,,,,,,,,,,,,,,,565,2023-05-16_15h56.25.954,eb_02psyexp,2022.2.4,99.93568806797772,
84,0,84,0,,,,,,,,,,,,,,,,,,,,,,,,,,,,,,,,,,,,,,,,,,,,,,,,,,,,,,,,,,,488.1002922464395,488.1002922464395,488.1002922464395,488.1002922464395,488.1002922464395,488.1002922464395,l,1,0.5862675764365122,488.7007127769757,489.7313569927355,,,,,,,,,,,,,,,,,,,,,,,,,,,,,,,,,,,,,,,565,2023-05-16_15h56.25.954,eb_02psyexp,2022.2.4,99.93568806797772,
85,0,85,0,,,,,,,,,,,,,,,,,,,,,,,,,,,,,,,,,,,,,,,,,,,,,,,,,,,,,,,,,,,489.7313569927355,489.7313569927355,489.7313569927355,489.7313569927355,489.7313569927355,489.7313569927355,l,1,0.9792306021554396,490.7220064365538,491.74267014558427,,,,,,,,,,,,,,,,,,,,,,,,,,,,,,,,,,,,,,,565,2023-05-16_15h56.25.954,eb_02psyexp,2022.2.4,99.93568806797772,
86,0,86,0,,,,,,,,,,,,,,,,,,,,,,,,,,,,,,,,,,,,,,,,,,,,,,,,,,,,,,,,,,,491.74267014558427,491.74267014558427,491.74267014558427,491.74267014558427,491.74267014558427,491.74267014558427,s,1,0.7838900635251775,492.54317108762916,493.57385092112236,,,,,,,,,,,,,,,,,,,,,,,,,,,,,,,,,,,,,,,565,2023-05-16_15h56.25.954,eb_02psyexp,2022.2.4,99.93568806797772,
87,0,87,0,,,,,,,,,,,,,,,,,,,,,,,,,,,,,,,,,,,,,,,,,,,,,,,,,,,,,,,,,,,493.57385092112236,493.57385092112236,493.57385092112236,493.57385092112236,493.57385092112236,493.57385092112236,s,1,0.8327602876815945,494.4244056218304,495.4450451831799,,,,,,,,,,,,,,,,,,,,,,,,,,,,,,,,,,,,,,,565,2023-05-16_15h56.25.954,eb_02psyexp,2022.2.4,99.93568806797772,
88,0,88,0,,,,,,,,,,,,,,,,,,,,,,,,,,,,,,,,,,,,,,,,,,,,,,,,,,,,,,,,,,,495.4450451831799,495.4450451831799,495.4450451831799,495.4450451831799,495.4450451831799,495.4450451831799,s,1,0.6735575449420139,496.1354873802047,497.1661623842083,,,,,,,,,,,,,,,,,,,,,,,,,,,,,,,,,,,,,,,565,2023-05-16_15h56.25.954,eb_02psyexp,2022.2.4,99.93568806797772,
89,0,89,0,,,,,,,,,,,,,,,,,,,,,,,,,,,,,,,,,,,,,,,,,,,,,,,,,,,,,,,,,,,497.1661623842083,497.1661623842083,497.1661623842083,497.1661623842083,497.1661623842083,497.1661623842083,s,1,0.7284948548767716,497.9066332866205,498.9273446871666,,,,,,,,,,,,,,,,,,,,,,,,,,,,,,,,,,,,,,,565,2023-05-16_15h56.25.954,eb_02psyexp,2022.2.4,99.93568806797772,
90,0,90,0,,,,,,,,,,,,,,,,,,,,,,,,,,,,,,,,,,,,,,,,,,,,,,,,,,,,,,,,,,,498.9273446871666,498.9273446871666,498.9273446871666,498.9273446871666,498.9273446871666,498.9273446871666,l,1,0.6783007383346558,499.61773979628924,500.64840846159495,,,,,,,,,,,,,,,,,,,,,,,,,,,,,,,,,,,,,,,565,2023-05-16_15h56.25.954,eb_02psyexp,2022.2.4,99.93568806797772,
91,0,91,0,,,,,,,,,,,,,,,,,,,,,,,,,,,,,,,,,,,,,,,,,,,,,,,,,,,,,,,,,,,500.64840846159495,500.64840846159495,500.64840846159495,500.64840846159495,500.64840846159495,500.64840846159495,l,1,1.1332349692238495,501.7991480724886,502.8198570582317,,,,,,,,,,,,,,,,,,,,,,,,,,,,,,,,,,,,,,,565,2023-05-16_15h56.25.954,eb_02psyexp,2022.2.4,99.93568806797772,
92,0,92,0,,,,,,,,,,,,,,,,,,,,,,,,,,,,,,,,,,,,,,,,,,,,,,,,,,,,,,,,,,,502.8198570582317,502.8198570582317,502.8198570582317,502.8198570582317,502.8198570582317,502.8198570582317,l,1,1.0498059006640688,503.8804919953691,504.90114091394935,,,,,,,,,,,,,,,,,,,,,,,,,,,,,,,,,,,,,,,565,2023-05-16_15h56.25.954,eb_02psyexp,2022.2.4,99.93568806797772,
93,0,93,0,,,,,,,,,,,,,,,,,,,,,,,,,,,,,,,,,,,,,,,,,,,,,,,,,,,,,,,,,,,504.90114091394935,504.90114091394935,504.90114091394935,504.90114091394935,504.90114091394935,504.90114091394935,s,1,0.7765093481866643,505.6916713101091,506.7123691275483,,,,,,,,,,,,,,,,,,,,,,,,,,,,,,,,,,,,,,,565,2023-05-16_15h56.25.954,eb_02psyexp,2022.2.4,99.93568806797772,
94,0,94,0,,,,,,,,,,,,,,,,,,,,,,,,,,,,,,,,,,,,,,,,,,,,,,,,,,,,,,,,,,,506.7123691275483,506.7123691275483,506.7123691275483,506.7123691275483,506.7123691275483,506.7123691275483,l,1,0.7253037488553673,507.4528176934691,508.473450010526,,,,,,,,,,,,,,,,,,,,,,,,,,,,,,,,,,,,,,,565,2023-05-16_15h56.25.954,eb_02psyexp,2022.2.4,99.93568806797772,
95,0,95,0,,,,,,,,,,,,,,,,,,,,,,,,,,,,,,,,,,,,,,,,,,,,,,,,,,,,,,,,,,,508.473450010526,508.473450010526,508.473450010526,508.473450010526,508.473450010526,508.473450010526,s,1,1.1642344567226246,509.65422260109335,510.6849039439112,,,,,,,,,,,,,,,,,,,,,,,,,,,,,,,,,,,,,,,565,2023-05-16_15h56.25.954,eb_02psyexp,2022.2.4,99.93568806797772,
96,0,96,0,,,,,,,,,,,,,,,,,,,,,,,,,,,,,,,,,,,,,,,,,,,,,,,,,,,,,,,,,,,510.6849039439112,510.6849039439112,510.6849039439112,510.6849039439112,510.6849039439112,510.6849039439112,l,1,0.6247893444960937,511.3253014375223,512.3460321561433,,,,,,,,,,,,,,,,,,,,,,,,,,,,,,,,,,,,,,,565,2023-05-16_15h56.25.954,eb_02psyexp,2022.2.4,99.93568806797772,
97,0,97,0,,,,,,,,,,,,,,,,,,,,,,,,,,,,,,,,,,,,,,,,,,,,,,,,,,,,,,,,,,,512.3460321561433,512.3460321561433,512.3460321561433,512.3460321561433,512.3460321561433,512.3460321561433,l,1,0.9956539917038754,513.3566706852289,514.3872901498107,,,,,,,,,,,,,,,,,,,,,,,,,,,,,,,,,,,,,,,565,2023-05-16_15h56.25.954,eb_02psyexp,2022.2.4,99.93568806797772,
98,0,98,0,,,,,,,,,,,,,,,,,,,,,,,,,,,,,,,,,,,,,,,,,,,,,,,,,,,,,,,,,,,514.3872901498107,514.3872901498107,514.3872901498107,514.3872901498107,514.3872901498107,514.3872901498107,l,1,0.8494188145268708,515.2478087558411,516.2684978197794,,,,,,,,,,,,,,,,,,,,,,,,,,,,,,,,,,,,,,,565,2023-05-16_15h56.25.954,eb_02psyexp,2022.2.4,99.93568806797772,
99,0,99,0,,,,,,,,,,,,,,,,,,,,,,,,,,,,,,,,,,,,,,,,,,,,,,,,,,,,,,,,,,,516.2684978197794,516.2684978197794,516.2684978197794,516.2684978197794,516.2684978197794,516.2684978197794,l,1,0.6082548759877682,516.8889189057518,,,,,,,,,,,,,,,,,,,,,,,,,,,,,,,,,,,,,,,,565,2023-05-16_15h56.25.954,eb_02psyexp,2022.2.4,99.93568806797772,
100,0,100,0,,,,,,,,,,,,,,,,,,,,,,,,,,,,,,,,,,,,,,,,,,,,,,,,,,,,,,,,,,,517.9198836809956,517.9198836809956,517.9198836809956,517.9198836809956,517.9198836809956,517.9198836809956,s,1,1.364855472696945,519.3004529486643,520.3311424412532,,,,,,,,,,,,,,,,,,,,,,,,,,,,,,,,,,,,,,,565,2023-05-16_15h56.25.954,eb_02psyexp,2022.2.4,99.93568806797772,
101,0,101,0,,,,,,,,,,,,,,,,,,,,,,,,,,,,,,,,,,,,,,,,,,,,,,,,,,,,,,,,,,,520.3311424412532,520.3311424412532,520.3311424412532,520.3311424412532,520.3311424412532,520.3311424412532,l,1,0.9535949013661593,521.301760541508,522.322429381893,,,,,,,,,,,,,,,,,,,,,,,,,,,,,,,,,,,,,,,565,2023-05-16_15h56.25.954,eb_02psyexp,2022.2.4,99.93568806797772,
102,0,102,0,,,,,,,,,,,,,,,,,,,,,,,,,,,,,,,,,,,,,,,,,,,,,,,,,,,,,,,,,,,522.322429381893,522.322429381893,522.322429381893,522.322429381893,522.322429381893,522.322429381893,l,1,1.0823357425397262,523.4231170453131,524.4537814847426,,,,,,,,,,,,,,,,,,,,,,,,,,,,,,,,,,,,,,,565,2023-05-16_15h56.25.954,eb_02psyexp,2022.2.4,99.93568806797772,
103,0,103,0,,,,,,,,,,,,,,,,,,,,,,,,,,,,,,,,,,,,,,,,,,,,,,,,,,,,,,,,,,,524.4537814847426,524.4537814847426,524.4537814847426,524.4537814847426,524.4537814847426,524.4537814847426,s,1,0.5749909467995167,525.0441635540919,526.0648948764428,,,,,,,,,,,,,,,,,,,,,,,,,,,,,,,,,,,,,,,565,2023-05-16_15h56.25.954,eb_02psyexp,2022.2.4,99.93568806797772,
104,0,104,0,,,,,,,,,,,,,,,,,,,,,,,,,,,,,,,,,,,,,,,,,,,,,,,,,,,,,,,,,,,526.0648948764428,526.0648948764428,526.0648948764428,526.0648948764428,526.0648948764428,526.0648948764428,l,1,1.0038886266993359,527.0854828222655,528.1161653724266,,,,,,,,,,,,,,,,,,,,,,,,,,,,,,,,,,,,,,,565,2023-05-16_15h56.25.954,eb_02psyexp,2022.2.4,99.93568806797772,
105,0,105,0,,,,,,,,,,,,,,,,,,,,,,,,,,,,,,,,,,,,,,,,,,,,,,,,,,,,,,,,,,,528.1161653724266,528.1161653724266,528.1161653724266,528.1161653724266,528.1161653724266,528.1161653724266,s,1,0.8966174208326265,529.0267558478517,530.0473984276177,,,,,,,,,,,,,,,,,,,,,,,,,,,,,,,,,,,,,,,565,2023-05-16_15h56.25.954,eb_02psyexp,2022.2.4,99.93568806797772,
106,0,106,0,,,,,,,,,,,,,,,,,,,,,,,,,,,,,,,,,,,,,,,,,,,,,,,,,,,,,,,,,,,530.0473984276177,530.0473984276177,530.0473984276177,530.0473984276177,530.0473984276177,530.0473984276177,s,1,0.980386970564723,531.0380351939239,532.0687035573646,,,,,,,,,,,,,,,,,,,,,,,,,,,,,,,,,,,,,,,565,2023-05-16_15h56.25.954,eb_02psyexp,2022.2.4,99.93568806797772,
107,0,107,0,,,,,,,,,,,,,,,,,,,,,,,,,,,,,,,,,,,,,,,,,,,,,,,,,,,,,,,,,,,532.0687035573646,532.0687035573646,532.0687035573646,532.0687035573646,532.0687035573646,532.0687035573646,s,1,0.9911504634656012,533.0793704598909,534.1000625422457,,,,,,,,,,,,,,,,,,,,,,,,,,,,,,,,,,,,,,,565,2023-05-16_15h56.25.954,eb_02psyexp,2022.2.4,99.93568806797772,
108,0,108,0,,,,,,,,,,,,,,,,,,,,,,,,,,,,,,,,,,,,,,,,,,,,,,,,,,,,,,,,,,,534.1000625422457,534.1000625422457,534.1000625422457,534.1000625422457,534.1000625422457,534.1000625422457,l,1,1.023757577757351,535.1406969240634,536.1713441583561,,,,,,,,,,,,,,,,,,,,,,,,,,,,,,,,,,,,,,,565,2023-05-16_15h56.25.954,eb_02psyexp,2022.2.4,99.93568806797772,
109,0,109,0,,,,,,,,,,,,,,,,,,,,,,,,,,,,,,,,,,,,,,,,,,,,,,,,,,,,,,,,,,,536.1713441583561,536.1713441583561,536.1713441583561,536.1713441583561,536.1713441583561,536.1713441583561,l,1,1.0405111857689917,537.2220399413491,538.2426792008337,,,,,,,,,,,,,,,,,,,,,,,,,,,,,,,,,,,,,,,565,2023-05-16_15h56.25.954,eb_02psyexp,2022.2.4,99.93568806797772,
110,0,110,0,,,,,,,,,,,,,,,,,,,,,,,,,,,,,,,,,,,,,,,,,,,,,,,,,,,,,,,,,,,538.2426792008337,538.2426792008337,538.2426792008337,538.2426792008337,538.2426792008337,538.2426792008337,l,1,0.721181450993754,538.983175760135,540.0038267916534,,,,,,,,,,,,,,,,,,,,,,,,,,,,,,,,,,,,,,,565,2023-05-16_15h56.25.954,eb_02psyexp,2022.2.4,99.93568806797772,
111,0,111,0,,,,,,,,,,,,,,,,,,,,,,,,,,,,,,,,,,,,,,,,,,,,,,,,,,,,,,,,,,,540.0038267916534,540.0038267916534,540.0038267916534,540.0038267916534,540.0038267916534,540.0038267916534,l,1,1.8400534680113196,541.8550340813817,542.8856945968,,,,,,,,,,,,,,,,,,,,,,,,,,,,,,,,,,,,,,,565,2023-05-16_15h56.25.954,eb_02psyexp,2022.2.4,99.93568806797772,
112,0,112,0,,,,,,,,,,,,,,,,,,,,,,,,,,,,,,,,,,,,,,,,,,,,,,,,,,,,,,,,,,,542.8856945968,542.8856945968,542.8856945968,542.8856945968,542.8856945968,542.8856945968,s,1,0.9741861675865948,543.8763440406183,544.8970545355696,,,,,,,,,,,,,,,,,,,,,,,,,,,,,,,,,,,,,,,565,2023-05-16_15h56.25.954,eb_02psyexp,2022.2.4,99.93568806797772,
113,0,113,0,,,,,,,,,,,,,,,,,,,,,,,,,,,,,,,,,,,,,,,,,,,,,,,,,,,,,,,,,,,544.8970545355696,544.8970545355696,544.8970545355696,544.8970545355696,544.8970545355696,544.8970545355696,l,1,1.4418338105315343,546.3579366233898,547.3786625125213,,,,,,,,,,,,,,,,,,,,,,,,,,,,,,,,,,,,,,,565,2023-05-16_15h56.25.954,eb_02psyexp,2022.2.4,99.93568806797772,
114,0,114,0,,,,,,,,,,,,,,,,,,,,,,,,,,,,,,,,,,,,,,,,,,,,,,,,,,,,,,,,,,,547.3786625125213,547.3786625125213,547.3786625125213,547.3786625125213,547.3786625125213,547.3786625125213,s,1,1.3922328194603324,548.7895174040459,549.8102327286033,,,,,,,,,,,,,,,,,,,,,,,,,,,,,,,,,,,,,,,565,2023-05-16_15h56.25.954,eb_02psyexp,2022.2.4,99.93568806797772,
115,0,115,0,,,,,,,,,,,,,,,,,,,,,,,,,,,,,,,,,,,,,,,,,,,,,,,,,,,,,,,,,,,549.8102327286033,549.8102327286033,549.8102327286033,549.8102327286033,549.8102327286033,549.8102327286033,l,1,0.8487447946099564,550.670733525767,551.70139494678,,,,,,,,,,,,,,,,,,,,,,,,,,,,,,,,,,,,,,,565,2023-05-16_15h56.25.954,eb_02psyexp,2022.2.4,99.93568806797772,
116,0,116,0,,,,,,,,,,,,,,,,,,,,,,,,,,,,,,,,,,,,,,,,,,,,,,,,,,,,,,,,,,,551.70139494678,551.70139494678,551.70139494678,551.70139494678,551.70139494678,551.70139494678,s,1,0.5735303185647354,552.2917673571501,553.3224447759567,,,,,,,,,,,,,,,,,,,,,,,,,,,,,,,,,,,,,,,565,2023-05-16_15h56.25.954,eb_02psyexp,2022.2.4,99.93568806797772,
117,0,117,0,,,,,,,,,,,,,,,,,,,,,,,,,,,,,,,,,,,,,,,,,,,,,,,,,,,,,,,,,,,553.3224447759567,553.3224447759567,553.3224447759567,553.3224447759567,553.3224447759567,553.3224447759567,s,1,0.7284785552183166,554.0629301669542,555.0836186272791,,,,,,,,,,,,,,,,,,,,,,,,,,,,,,,,,,,,,,,565,2023-05-16_15h56.25.954,eb_02psyexp,2022.2.4,99.93568806797772,
118,0,118,0,,,,,,,,,,,,,,,,,,,,,,,,,,,,,,,,,,,,,,,,,,,,,,,,,,,,,,,,,,,555.0836186272791,555.0836186272791,555.0836186272791,555.0836186272791,555.0836186272791,555.0836186272791,s,1,1.1833412488922477,556.2843434779206,557.305034956662,,,,,,,,,,,,,,,,,,,,,,,,,,,,,,,,,,,,,,,565,2023-05-16_15h56.25.954,eb_02psyexp,2022.2.4,99.93568806797772,
119,0,119,0,,,,,,,,,,,,,,,,,,,,,,,,,,,,,,,,,,,,,,,,,,,,,,,,,,,,,,,,,,,557.305034956662,557.305034956662,557.305034956662,557.305034956662,557.305034956662,557.305034956662,l,1,0.833954990375787,558.155557359918,559.1762832490494,,,,,,,,,,,,,,,,,,,,,,,,,,,,,,,,,,,,,,,565,2023-05-16_15h56.25.954,eb_02psyexp,2022.2.4,99.93568806797772,
120,0,120,0,,,,,,,,,,,,,,,,,,,,,,,,,,,,,,,,,,,,,,,,,,,,,,,,,,,,,,,,,,,559.1762832490494,559.1762832490494,559.1762832490494,559.1762832490494,559.1762832490494,559.1762832490494,s,1,0.8817488350905478,560.0768102101283,561.107476460631,,,,,,,,,,,,,,,,,,,,,,,,,,,,,,,,,,,,,,,565,2023-05-16_15h56.25.954,eb_02psyexp,2022.2.4,99.93568806797772,
121,0,121,0,,,,,,,,,,,,,,,,,,,,,,,,,,,,,,,,,,,,,,,,,,,,,,,,,,,,,,,,,,,561.107476460631,561.107476460631,561.107476460631,561.107476460631,561.107476460631,561.107476460631,s,1,0.7105866894125938,561.8279350356897,562.8485875764163,,,,,,,,,,,,,,,,,,,,,,,,,,,,,,,,,,,,,,,565,2023-05-16_15h56.25.954,eb_02psyexp,2022.2.4,99.93568806797772,
122,0,122,0,,,,,,,,,,,,,,,,,,,,,,,,,,,,,,,,,,,,,,,,,,,,,,,,,,,,,,,,,,,562.8485875764163,562.8485875764163,562.8485875764163,562.8485875764163,562.8485875764163,562.8485875764163,l,1,0.9373776718275622,563.7991981788073,564.8298737865407,,,,,,,,,,,,,,,,,,,,,,,,,,,,,,,,,,,,,,,565,2023-05-16_15h56.25.954,eb_02psyexp,2022.2.4,99.93568806797772,
123,0,123,0,,,,,,,,,,,,,,,,,,,,,,,,,,,,,,,,,,,,,,,,,,,,,,,,,,,,,,,,,,,564.8298737865407,564.8298737865407,564.8298737865407,564.8298737865407,564.8298737865407,564.8298737865407,s,1,0.6281156770419329,565.4703008610522,566.4910026025027,,,,,,,,,,,,,,,,,,,,,,,,,,,,,,,,,,,,,,,565,2023-05-16_15h56.25.954,eb_02psyexp,2022.2.4,99.93568806797772,
124,0,124,0,,,,,,,,,,,,,,,,,,,,,,,,,,,,,,,,,,,,,,,,,,,,,,,,,,,,,,,,,,,566.4910026025027,566.4910026025027,566.4910026025027,566.4910026025027,566.4910026025027,566.4910026025027,s,1,1.0070275134639814,567.5115956797963,568.5422555914847,,,,,,,,,,,,,,,,,,,,,,,,,,,,,,,,,,,,,,,565,2023-05-16_15h56.25.954,eb_02psyexp,2022.2.4,99.93568806797772,
125,0,125,0,,,,,,,,,,,,,,,,,,,,,,,,,,,,,,,,,,,,,,,,,,,,,,,,,,,,,,,,,,,568.5422555914847,568.5422555914847,568.5422555914847,568.5422555914847,568.5422555914847,568.5422555914847,s,1,0.5717675434425473,569.1326593938284,570.1533052939922,,,,,,,,,,,,,,,,,,,,,,,,,,,,,,,,,,,,,,,565,2023-05-16_15h56.25.954,eb_02psyexp,2022.2.4,99.93568806797772,
126,0,126,0,,,,,,,,,,,,,,,,,,,,,,,,,,,,,,,,,,,,,,,,,,,,,,,,,,,,,,,,,,,570.1533052939922,570.1533052939922,570.1533052939922,570.1533052939922,570.1533052939922,570.1533052939922,l,1,0.816716015455313,570.983857024461,572.004563897266,,,,,,,,,,,,,,,,,,,,,,,,,,,,,,,,,,,,,,,565,2023-05-16_15h56.25.954,eb_02psyexp,2022.2.4,99.93568806797772,
127,0,127,0,,,,,,,,,,,,,,,,,,,,,,,,,,,,,,,,,,,,,,,,,,,,,,,,,,,,,,,,,,,572.004563897266,572.004563897266,572.004563897266,572.004563897266,572.004563897266,572.004563897266,l,1,1.029467580607161,573.0451801683521,574.0758609074401,,,,,,,,,,,,,,,,,,,,,,,,,,,,,,,,,,,,,,,565,2023-05-16_15h56.25.954,eb_02psyexp,2022.2.4,99.93568806797772,
128,0,128,0,,,,,,,,,,,,,,,,,,,,,,,,,,,,,,,,,,,,,,,,,,,,,,,,,,,,,,,,,,,574.0758609074401,574.0758609074401,574.0758609074401,574.0758609074401,574.0758609074401,574.0758609074401,s,1,0.7902010399848223,574.8763567181304,575.8970421599224,,,,,,,,,,,,,,,,,,,,,,,,,,,,,,,,,,,,,,,565,2023-05-16_15h56.25.954,eb_02psyexp,2022.2.4,99.93568806797772,
129,0,129,0,,,,,,,,,,,,,,,,,,,,,,,,,,,,,,,,,,,,,,,,,,,,,,,,,,,,,,,,,,,575.8970421599224,575.8970421599224,575.8970421599224,575.8970421599224,575.8970421599224,575.8970421599224,l,1,0.7360415849834681,576.6474993042648,577.678200568771,,,,,,,,,,,,,,,,,,,,,,,,,,,,,,,,,,,,,,,565,2023-05-16_15h56.25.954,eb_02psyexp,2022.2.4,99.93568806797772,
130,0,130,0,,,,,,,,,,,,,,,,,,,,,,,,,,,,,,,,,,,,,,,,,,,,,,,,,,,,,,,,,,,577.678200568771,577.678200568771,577.678200568771,577.678200568771,577.678200568771,577.678200568771,s,1,0.7068459235597402,578.3986316759838,579.4193560557906,,,,,,,,,,,,,,,,,,,,,,,,,,,,,,,,,,,,,,,565,2023-05-16_15h56.25.954,eb_02psyexp,2022.2.4,99.93568806797772,
131,0,131,0,,,,,,,,,,,,,,,,,,,,,,,,,,,,,,,,,,,,,,,,,,,,,,,,,,,,,,,,,,,579.4193560557906,579.4193560557906,579.4193560557906,579.4193560557906,579.4193560557906,579.4193560557906,s,1,0.8217845977051184,580.2598559957696,581.2904896470718,,,,,,,,,,,,,,,,,,,,,,,,,,,,,,,,,,,,,,,565,2023-05-16_15h56.25.954,eb_02psyexp,2022.2.4,99.93568806797772,
132,0,132,0,,,,,,,,,,,,,,,,,,,,,,,,,,,,,,,,,,,,,,,,,,,,,,,,,,,,,,,,,,,581.2904896470718,581.2904896470718,581.2904896470718,581.2904896470718,581.2904896470718,581.2904896470718,s,1,0.7425940374378115,582.0510124184657,583.0717201968655,,,,,,,,,,,,,,,,,,,,,,,,,,,,,,,,,,,,,,,565,2023-05-16_15h56.25.954,eb_02psyexp,2022.2.4,99.93568806797772,
133,0,133,0,,,,,,,,,,,,,,,,,,,,,,,,,,,,,,,,,,,,,,,,,,,,,,,,,,,,,,,,,,,583.0717201968655,583.0717201968655,583.0717201968655,583.0717201968655,583.0717201968655,583.0717201968655,s,1,1.0093837160384282,584.092308444553,585.122981335735,,,,,,,,,,,,,,,,,,,,,,,,,,,,,,,,,,,,,,,565,2023-05-16_15h56.25.954,eb_02psyexp,2022.2.4,99.93568806797772,
134,0,134,0,,,,,,,,,,,,,,,,,,,,,,,,,,,,,,,,,,,,,,,,,,,,,,,,,,,,,,,,,,,585.122981335735,585.122981335735,585.122981335735,585.122981335735,585.122981335735,585.122981335735,s,1,0.8941048625856638,586.0335706037004,587.0642284025671,,,,,,,,,,,,,,,,,,,,,,,,,,,,,,,,,,,,,,,565,2023-05-16_15h56.25.954,eb_02psyexp,2022.2.4,99.93568806797772,
135,0,135,0,,,,,,,,,,,,,,,,,,,,,,,,,,,,,,,,,,,,,,,,,,,,,,,,,,,,,,,,,,,587.0642284025671,587.0642284025671,587.0642284025671,587.0642284025671,587.0642284025671,587.0642284025671,s,1,1.6328935824567452,588.7152934024343,589.7459765563253,,,,,,,,,,,,,,,,,,,,,,,,,,,,,,,,,,,,,,,565,2023-05-16_15h56.25.954,eb_02psyexp,2022.2.4,99.93568806797772,
136,0,136,0,,,,,,,,,,,,,,,,,,,,,,,,,,,,,,,,,,,,,,,,,,,,,,,,,,,,,,,,,,,589.7459765563253,589.7459765563253,589.7459765563253,589.7459765563253,589.7459765563253,589.7459765563253,s,1,0.9431694749509916,590.7065788337495,591.7272989877965,,,,,,,,,,,,,,,,,,,,,,,,,,,,,,,,,,,,,,,565,2023-05-16_15h56.25.954,eb_02psyexp,2022.2.4,99.93568806797772,
137,0,137,0,,,,,,,,,,,,,,,,,,,,,,,,,,,,,,,,,,,,,,,,,,,,,,,,,,,,,,,,,,,591.7272989877965,591.7272989877965,591.7272989877965,591.7272989877965,591.7272989877965,591.7272989877965,s,1,0.9368385766865686,592.6778516359627,593.7085236215498,,,,,,,,,,,,,,,,,,,,,,,,,,,,,,,,,,,,,,,565,2023-05-16_15h56.25.954,eb_02psyexp,2022.2.4,99.93568806797772,
138,0,138,0,,,,,,,,,,,,,,,,,,,,,,,,,,,,,,,,,,,,,,,,,,,,,,,,,,,,,,,,,,,593.7085236215498,593.7085236215498,593.7085236215498,593.7085236215498,593.7085236215498,593.7085236215498,s,1,0.7796322371577844,594.4990283608204,595.5196793922223,,,,,,,,,,,,,,,,,,,,,,,,,,,,,,,,,,,,,,,565,2023-05-16_15h56.25.954,eb_02psyexp,2022.2.4,99.93568806797772,
139,0,139,0,,,,,,,,,,,,,,,,,,,,,,,,,,,,,,,,,,,,,,,,,,,,,,,,,,,,,,,,,,,595.5196793922223,595.5196793922223,595.5196793922223,595.5196793922223,595.5196793922223,595.5196793922223,l,1,0.7684854009421542,596.3002344128909,597.3308692715364,,,,,,,,,,,,,,,,,,,,,,,,,,,,,,,,,,,,,,,565,2023-05-16_15h56.25.954,eb_02psyexp,2022.2.4,99.93568806797772,
140,0,140,0,,,,,,,,,,,,,,,,,,,,,,,,,,,,,,,,,,,,,,,,,,,,,,,,,,,,,,,,,,,597.3308692715364,597.3308692715364,597.3308692715364,597.3308692715364,597.3308692715364,597.3308692715364,s,1,1.0693072044523433,598.4115790178766,599.4322647615336,,,,,,,,,,,,,,,,,,,,,,,,,,,,,,,,,,,,,,,565,2023-05-16_15h56.25.954,eb_02psyexp,2022.2.4,99.93568806797772,
141,0,141,0,,,,,,,,,,,,,,,,,,,,,,,,,,,,,,,,,,,,,,,,,,,,,,,,,,,,,,,,,,,599.4322647615336,599.4322647615336,599.4322647615336,599.4322647615336,599.4322647615336,599.4322647615336,s,1,1.1359256161376834,600.5829832433956,601.6136274592718,,,,,,,,,,,,,,,,,,,,,,,,,,,,,,,,,,,,,,,565,2023-05-16_15h56.25.954,eb_02psyexp,2022.2.4,99.93568806797772,
142,0,142,0,,,,,,,,,,,,,,,,,,,,,,,,,,,,,,,,,,,,,,,,,,,,,,,,,,,,,,,,,,,601.6136274592718,601.6136274592718,601.6136274592718,601.6136274592718,601.6136274592718,601.6136274592718,s,1,0.6825920693809167,602.3140806494048,603.3347437547054,,,,,,,,,,,,,,,,,,,,,,,,,,,,,,,,,,,,,,,565,2023-05-16_15h56.25.954,eb_02psyexp,2022.2.4,99.93568806797772,
143,0,143,0,,,,,,,,,,,,,,,,,,,,,,,,,,,,,,,,,,,,,,,,,,,,,,,,,,,,,,,,,,,603.3347437547054,603.3347437547054,603.3347437547054,603.3347437547054,603.3347437547054,603.3347437547054,l,1,0.8014366186689585,604.1552769459086,605.1759454844287,,,,,,,,,,,,,,,,,,,,,,,,,,,,,,,,,,,,,,,565,2023-05-16_15h56.25.954,eb_02psyexp,2022.2.4,99.93568806797772,
144,0,144,0,,,,,,,,,,,,,,,,,,,,,,,,,,,,,,,,,,,,,,,,,,,,,,,,,,,,,,,,,,,605.1759454844287,605.1759454844287,605.1759454844287,605.1759454844287,605.1759454844287,605.1759454844287,l,1,0.9762707095360383,606.1665532735642,607.197264499031,,,,,,,,,,,,,,,,,,,,,,,,,,,,,,,,,,,,,,,565,2023-05-16_15h56.25.954,eb_02psyexp,2022.2.4,99.93568806797772,
145,0,145,0,,,,,,,,,,,,,,,,,,,,,,,,,,,,,,,,,,,,,,,,,,,,,,,,,,,,,,,,,,,607.197264499031,607.197264499031,607.197264499031,607.197264499031,607.197264499031,607.197264499031,s,1,0.7139755038078874,607.92770871229,608.9583737554494,,,,,,,,,,,,,,,,,,,,,,,,,,,,,,,,,,,,,,,565,2023-05-16_15h56.25.954,eb_02psyexp,2022.2.4,99.93568806797772,
146,0,146,0,,,,,,,,,,,,,,,,,,,,,,,,,,,,,,,,,,,,,,,,,,,,,,,,,,,,,,,,,,,608.9583737554494,608.9583737554494,608.9583737554494,608.9583737554494,608.9583737554494,608.9583737554494,s,1,1.0328672615578398,610.0090719532454,611.0397222059546,,,,,,,,,,,,,,,,,,,,,,,,,,,,,,,,,,,,,,,565,2023-05-16_15h56.25.954,eb_02psyexp,2022.2.4,99.93568806797772,
147,0,147,0,,,,,,,,,,,,,,,,,,,,,,,,,,,,,,,,,,,,,,,,,,,,,,,,,,,,,,,,,,,611.0397222059546,611.0397222059546,611.0397222059546,611.0397222059546,611.0397222059546,611.0397222059546,s,1,1.263577702222392,612.3205440576421,613.3512272114167,,,,,,,,,,,,,,,,,,,,,,,,,,,,,,,,,,,,,,,565,2023-05-16_15h56.25.954,eb_02psyexp,2022.2.4,99.93568806797772,
148,0,148,0,,,,,,,,,,,,,,,,,,,,,,,,,,,,,,,,,,,,,,,,,,,,,,,,,,,,,,,,,,,613.3512272114167,613.3512272114167,613.3512272114167,613.3512272114167,613.3512272114167,613.3512272114167,s,1,0.4800326044205576,613.8415250057587,,,,,,,,,,,,,,,,,,,,,,,,,,,,,,,,,,,,,,,,565,2023-05-16_15h56.25.954,eb_02psyexp,2022.2.4,99.93568806797772,
149,0,149,0,,,,,,,,,,,,,,,,,,,,,,,,,,,,,,,,,,,,,,,,,,,,,,,,,,,,,,,,,,,614.8725241913926,614.8725241913926,614.8725241913926,614.8725241913926,614.8725241913926,614.8725241913926,s,1,0.47078618477098644,615.3628485479858,616.3832242968492,,,,,,,,,,,,,,,,,,,,,,,,,,,,,,,,,,,,,,,565,2023-05-16_15h56.25.954,eb_02psyexp,2022.2.4,99.93568806797772,
150,0,150,0,,,,,,,,,,,,,,,,,,,,,,,,,,,,,,,,,,,,,,,,,,,,,,,,,,,,,,,,,,,616.3832242968492,616.3832242968492,616.3832242968492,616.3832242968492,616.3832242968492,616.3832242968492,l,1,0.7360104948747903,617.1336521621561,618.1643265625462,,,,,,,,,,,,,,,,,,,,,,,,,,,,,,,,,,,,,,,565,2023-05-16_15h56.25.954,eb_02psyexp,2022.2.4,99.93568806797772,
151,0,151,0,,,,,,,,,,,,,,,,,,,,,,,,,,,,,,,,,,,,,,,,,,,,,,,,,,,,,,,,,,,618.1643265625462,618.1643265625462,618.1643265625462,618.1643265625462,618.1643265625462,618.1643265625462,s,1,0.7709644545102492,618.9548500161618,619.975499236607,,,,,,,,,,,,,,,,,,,,,,,,,,,,,,,,,,,,,,,565,2023-05-16_15h56.25.954,eb_02psyexp,2022.2.4,99.93568806797772,
152,0,152,0,,,,,,,,,,,,,,,,,,,,,,,,,,,,,,,,,,,,,,,,,,,,,,,,,,,,,,,,,,,619.975499236607,619.975499236607,619.975499236607,619.975499236607,619.975499236607,619.975499236607,l,1,0.6238155923783779,620.6159006543458,621.636619902798,,,,,,,,,,,,,,,,,,,,,,,,,,,,,,,,,,,,,,,565,2023-05-16_15h56.25.954,eb_02psyexp,2022.2.4,99.93568806797772,
153,0,153,0,,,,,,,,,,,,,,,,,,,,,,,,,,,,,,,,,,,,,,,,,,,,,,,,,,,,,,,,,,,621.636619902798,621.636619902798,621.636619902798,621.636619902798,621.636619902798,621.636619902798,l,1,0.6417786936508492,622.2970028596465,623.327672430547,,,,,,,,,,,,,,,,,,,,,,,,,,,,,,,,,,,,,,,565,2023-05-16_15h56.25.954,eb_02psyexp,2022.2.4,99.93568806797772,
154,0,154,0,,,,,,,,,,,,,,,,,,,,,,,,,,,,,,,,,,,,,,,,,,,,,,,,,,,,,,,,,,,623.327672430547,623.327672430547,623.327672430547,623.327672430547,623.327672430547,623.327672430547,s,1,0.8466219183756039,624.1882236357778,625.2089283957612,,,,,,,,,,,,,,,,,,,,,,,,,,,,,,,,,,,,,,,565,2023-05-16_15h56.25.954,eb_02psyexp,2022.2.4,99.93568806797772,
155,0,155,0,,,,,,,,,,,,,,,,,,,,,,,,,,,,,,,,,,,,,,,,,,,,,,,,,,,,,,,,,,,625.2089283957612,625.2089283957612,625.2089283957612,625.2089283957612,625.2089283957612,625.2089283957612,l,1,0.8454015586758032,626.0694427759154,627.0901393860113,,,,,,,,,,,,,,,,,,,,,,,,,,,,,,,,,,,,,,,565,2023-05-16_15h56.25.954,eb_02psyexp,2022.2.4,99.93568806797772,
156,0,156,0,,,,,,,,,,,,,,,,,,,,,,,,,,,,,,,,,,,,,,,,,,,,,,,,,,,,,,,,,,,627.0901393860113,627.0901393860113,627.0901393860113,627.0901393860113,627.0901393860113,627.0901393860113,s,1,1.1322135255904868,628.2408445866313,629.271502687363,,,,,,,,,,,,,,,,,,,,,,,,,,,,,,,,,,,,,,,565,2023-05-16_15h56.25.954,eb_02psyexp,2022.2.4,99.93568806797772,
157,0,157,0,,,,,,,,,,,,,,,,,,,,,,,,,,,,,,,,,,,,,,,,,,,,,,,,,,,,,,,,,,,629.271502687363,629.271502687363,629.271502687363,629.271502687363,629.271502687363,629.271502687363,s,1,0.8228413573233411,630.112038244959,631.1326898802072,,,,,,,,,,,,,,,,,,,,,,,,,,,,,,,,,,,,,,,565,2023-05-16_15h56.25.954,eb_02psyexp,2022.2.4,99.93568806797772,
158,0,158,0,,,,,,,,,,,,,,,,,,,,,,,,,,,,,,,,,,,,,,,,,,,,,,,,,,,,,,,,,,,631.1326898802072,631.1326898802072,631.1326898802072,631.1326898802072,631.1326898802072,631.1326898802072,l,1,0.8017342378152534,631.9532478227047,632.9838935476728,,,,,,,,,,,,,,,,,,,,,,,,,,,,,,,,,,,,,,,565,2023-05-16_15h56.25.954,eb_02psyexp,2022.2.4,99.93568806797772,
159,0,159,0,,,,,,,,,,,,,,,,,,,,,,,,,,,,,,,,,,,,,,,,,,,,,,,,,,,,,,,,,,,632.9838935476728,632.9838935476728,632.9838935476728,632.9838935476728,632.9838935476728,632.9838935476728,s,1,0.7107297639595345,633.7043572542025,634.7250360554317,,,,,,,,,,,,,,,,,,,,,,,,,,,,,,,,,,,,,,,565,2023-05-16_15h56.25.954,eb_02psyexp,2022.2.4,99.93568806797772,
160,0,160,0,,,,,,,,,,,,,,,,,,,,,,,,,,,,,,,,,,,,,,,,,,,,,,,,,,,,,,,,,,,634.7250360554317,634.7250360554317,634.7250360554317,634.7250360554317,634.7250360554317,634.7250360554317,l,1,0.7773720213444903,635.515566451475,636.5361972593237,,,,,,,,,,,,,,,,,,,,,,,,,,,,,,,,,,,,,,,565,2023-05-16_15h56.25.954,eb_02psyexp,2022.2.4,99.93568806797772,
161,0,161,0,,,,,,,,,,,,,,,,,,,,,,,,,,,,,,,,,,,,,,,,,,,,,,,,,,,,,,,,,,,636.5361972593237,636.5361972593237,636.5361972593237,636.5361972593237,636.5361972593237,636.5361972593237,l,1,0.6862163230543956,637.2366607122822,638.2673281701282,,,,,,,,,,,,,,,,,,,,,,,,,,,,,,,,,,,,,,,565,2023-05-16_15h56.25.954,eb_02psyexp,2022.2.4,99.93568806797772,
162,0,162,0,,,,,,,,,,,,,,,,,,,,,,,,,,,,,,,,,,,,,,,,,,,,,,,,,,,,,,,,,,,638.2673281701282,638.2673281701282,638.2673281701282,638.2673281701282,638.2673281701282,638.2673281701282,s,1,0.5861094095744193,638.867707347963,,,,,,,,,,,,,,,,,,,,,,,,,,,,,,,,,,,,,,,,565,2023-05-16_15h56.25.954,eb_02psyexp,2022.2.4,99.93568806797772,
163,0,163,0,,,,,,,,,,,,,,,,,,,,,,,,,,,,,,,,,,,,,,,,,,,,,,,,,,,,,,,,,,,639.8983645430999,639.8983645430999,639.8983645430999,639.8983645430999,639.8983645430999,639.8983645430999,s,1,0.5710621315520257,640.4890644553816,641.5094305451494,,,,,,,,,,,,,,,,,,,,,,,,,,,,,,,,,,,,,,,565,2023-05-16_15h56.25.954,eb_02psyexp,2022.2.4,99.93568806797772,
164,0,164,0,,,,,,,,,,,,,,,,,,,,,,,,,,,,,,,,,,,,,,,,,,,,,,,,,,,,,,,,,,,641.5094305451494,641.5094305451494,641.5094305451494,641.5094305451494,641.5094305451494,641.5094305451494,l,1,0.6560393634717911,642.1798317395151,643.2005615525413,,,,,,,,,,,,,,,,,,,,,,,,,,,,,,,,,,,,,,,565,2023-05-16_15h56.25.954,eb_02psyexp,2022.2.4,99.93568806797772,
165,0,165,0,,,,,,,,,,,,,,,,,,,,,,,,,,,,,,,,,,,,,,,,,,,,,,,,,,,,,,,,,,,643.2005615525413,643.2005615525413,643.2005615525413,643.2005615525413,643.2005615525413,643.2005615525413,l,1,1.4609173606149852,644.6714651981601,645.692170259892,,,,,,,,,,,,,,,,,,,,,,,,,,,,,,,,,,,,,,,565,2023-05-16_15h56.25.954,eb_02psyexp,2022.2.4,99.93568806797772,
166,0,166,0,,,,,,,,,,,,,,,,,,,,,,,,,,,,,,,,,,,,,,,,,,,,,,,,,,,,,,,,,,,645.692170259892,645.692170259892,645.692170259892,645.692170259892,645.692170259892,645.692170259892,s,1,0.8172901248326525,646.522616042872,647.5433669850463,,,,,,,,,,,,,,,,,,,,,,,,,,,,,,,,,,,,,,,565,2023-05-16_15h56.25.954,eb_02psyexp,2022.2.4,99.93568806797772,
167,0,167,0,,,,,,,,,,,,,,,,,,,,,,,,,,,,,,,,,,,,,,,,,,,,,,,,,,,,,,,,,,,647.5433669850463,647.5433669850463,647.5433669850463,647.5433669850463,647.5433669850463,647.5433669850463,l,1,1.8461111965589225,649.404516749084,650.4251704971539,,,,,,,,,,,,,,,,,,,,,,,,,,,,,,,,,,,,,,,565,2023-05-16_15h56.25.954,eb_02psyexp,2022.2.4,99.93568806797772,
168,0,168,0,,,,,,,,,,,,,,,,,,,,,,,,,,,,,,,,,,,,,,,,,,,,,,,,,,,,,,,,,,,650.4251704971539,650.4251704971539,650.4251704971539,650.4251704971539,650.4251704971539,650.4251704971539,l,1,1.1323052864754573,651.575915843132,652.6065682088956,,,,,,,,,,,,,,,,,,,,,,,,,,,,,,,,,,,,,,,565,2023-05-16_15h56.25.954,eb_02psyexp,2022.2.4,99.93568806797772,
169,0,169,0,,,,,,,,,,,,,,,,,,,,,,,,,,,,,,,,,,,,,,,,,,,,,,,,,,,,,,,,,,,652.6065682088956,652.6065682088956,652.6065682088956,652.6065682088956,652.6065682088956,652.6065682088956,s,1,0.5100067242747173,653.1269053214928,654.1576074915938,,,,,,,,,,,,,,,,,,,,,,,,,,,,,,,,,,,,,,,565,2023-05-16_15h56.25.954,eb_02psyexp,2022.2.4,99.93568806797772,
170,0,170,0,,,,,,,,,,,,,,,,,,,,,,,,,,,,,,,,,,,,,,,,,,,,,,,,,,,,,,,,,,,654.1576074915938,654.1576074915938,654.1576074915938,654.1576074915938,654.1576074915938,654.1576074915938,s,1,1.1428620155202225,655.3183333444176,656.3489953690441,,,,,,,,,,,,,,,,,,,,,,,,,,,,,,,,,,,,,,,565,2023-05-16_15h56.25.954,eb_02psyexp,2022.2.4,99.93568806797772,
171,0,171,0,,,,,,,,,,,,,,,,,,,,,,,,,,,,,,,,,,,,,,,,,,,,,,,,,,,,,,,,,,,656.3489953690441,656.3489953690441,656.3489953690441,656.3489953690441,656.3489953690441,656.3489953690441,s,1,1.4795185623224825,657.8399554115022,658.8706515446538,,,,,,,,,,,,,,,,,,,,,,,,,,,,,,,,,,,,,,,565,2023-05-16_15h56.25.954,eb_02psyexp,2022.2.4,99.93568806797772,
172,0,172,0,,,,,,,,,,,,,,,,,,,,,,,,,,,,,,,,,,,,,,,,,,,,,,,,,,,,,,,,,,,658.8706515446538,658.8706515446538,658.8706515446538,658.8706515446538,658.8706515446538,658.8706515446538,s,1,0.5978708022739738,659.481022095657,660.5016411315883,,,,,,,,,,,,,,,,,,,,,,,,,,,,,,,,,,,,,,,565,2023-05-16_15h56.25.954,eb_02psyexp,2022.2.4,99.93568806797772,
173,0,173,0,,,,,,,,,,,,,,,,,,,,,,,,,,,,,,,,,,,,,,,,,,,,,,,,,,,,,,,,,,,660.5016411315883,660.5016411315883,660.5016411315883,660.5016411315883,660.5016411315883,660.5016411315883,l,1,0.6148785639088601,661.1320723051904,662.162749422132,,,,,,,,,,,,,,,,,,,,,,,,,,,,,,,,,,,,,,,565,2023-05-16_15h56.25.954,eb_02psyexp,2022.2.4,99.93568806797772,
174,0,174,0,,,,,,,,,,,,,,,,,,,,,,,,,,,,,,,,,,,,,,,,,,,,,,,,,,,,,,,,,,,662.162749422132,662.162749422132,662.162749422132,662.162749422132,662.162749422132,662.162749422132,s,1,0.7297894683433697,662.9032185134711,663.9338862732984,,,,,,,,,,,,,,,,,,,,,,,,,,,,,,,,,,,,,,,565,2023-05-16_15h56.25.954,eb_02psyexp,2022.2.4,99.93568806797772,
175,0,175,0,,,,,,,,,,,,,,,,,,,,,,,,,,,,,,,,,,,,,,,,,,,,,,,,,,,,,,,,,,,663.9338862732984,663.9338862732984,663.9338862732984,663.9338862732984,663.9338862732984,663.9338862732984,s,1,0.590645537013188,664.544300289941,665.5749765014043,,,,,,,,,,,,,,,,,,,,,,,,,,,,,,,,,,,,,,,565,2023-05-16_15h56.25.954,eb_02psyexp,2022.2.4,99.93568806797772,
176,0,176,0,,,,,,,,,,,,,,,,,,,,,,,,,,,,,,,,,,,,,,,,,,,,,,,,,,,,,,,,,,,665.5749765014043,665.5749765014043,665.5749765014043,665.5749765014043,665.5749765014043,665.5749765014043,s,1,0.45358463865704834,666.0452619682765,667.0659099813784,,,,,,,,,,,,,,,,,,,,,,,,,,,,,,,,,,,,,,,565,2023-05-16_15h56.25.954,eb_02psyexp,2022.2.4,99.93568806797772,
177,0,177,0,,,,,,,,,,,,,,,,,,,,,,,,,,,,,,,,,,,,,,,,,,,,,,,,,,,,,,,,,,,667.0659099813784,667.0659099813784,667.0659099813784,667.0659099813784,667.0659099813784,667.0659099813784,l,1,0.5146669101668522,667.5962602001382,668.6269324874738,,,,,,,,,,,,,,,,,,,,,,,,,,,,,,,,,,,,,,,565,2023-05-16_15h56.25.954,eb_02psyexp,2022.2.4,99.93568806797772,
178,0,178,0,,,,,,,,,,,,,,,,,,,,,,,,,,,,,,,,,,,,,,,,,,,,,,,,,,,,,,,,,,,668.6269324874738,668.6269324874738,668.6269324874738,668.6269324874738,668.6269324874738,668.6269324874738,s,1,0.5767504016403109,669.2172973518027,670.2380087523488,,,,,,,,,,,,,,,,,,,,,,,,,,,,,,,,,,,,,,,565,2023-05-16_15h56.25.954,eb_02psyexp,2022.2.4,99.93568806797772,
179,0,179,0,,,,,,,,,,,,,,,,,,,,,,,,,,,,,,,,,,,,,,,,,,,,,,,,,,,,,,,,,,,670.2380087523488,670.2380087523488,670.2380087523488,670.2380087523488,670.2380087523488,670.2380087523488,l,1,0.5095765951555222,670.7583017955767,671.7792833474232,,,,,,,,,,,,,,,,,,,,,,,,,,,,,,,,,,,,,,,565,2023-05-16_15h56.25.954,eb_02psyexp,2022.2.4,99.93568806797772,
180,0,180,0,,,,,,,,,,,,,,,,,,,,,,,,,,,,,,,,,,,,,,,,,,,,,,,,,,,,,,,,,,,671.7792833474232,671.7792833474232,671.7792833474232,671.7792833474232,671.7792833474232,671.7792833474232,s,1,0.8483158727176487,672.6395106728887,673.6701850732788,,,,,,,,,,,,,,,,,,,,,,,,,,,,,,,,,,,,,,,565,2023-05-16_15h56.25.954,eb_02psyexp,2022.2.4,99.93568806797772,
181,0,181,0,,,,,,,,,,,,,,,,,,,,,,,,,,,,,,,,,,,,,,,,,,,,,,,,,,,,,,,,,,,673.6701850732788,673.6701850732788,673.6701850732788,673.6701850732788,673.6701850732788,673.6701850732788,s,1,0.7094774087890983,674.390641233651,675.4113683300093,,,,,,,,,,,,,,,,,,,,,,,,,,,,,,,,,,,,,,,565,2023-05-16_15h56.25.954,eb_02psyexp,2022.2.4,99.93568806797772,
182,0,182,0,,,,,,,,,,,,,,,,,,,,,,,,,,,,,,,,,,,,,,,,,,,,,,,,,,,,,,,,,,,675.4113683300093,675.4113683300093,675.4113683300093,675.4113683300093,675.4113683300093,675.4113683300093,s,1,0.6322720835451037,676.0617602155544,677.0824369038455,,,,,,,,,,,,,,,,,,,,,,,,,,,,,,,,,,,,,,,565,2023-05-16_15h56.25.954,eb_02psyexp,2022.2.4,99.93568806797772,
183,0,183,0,,,,,,,,,,,,,,,,,,,,,,,,,,,,,,,,,,,,,,,,,,,,,,,,,,,,,,,,,,,677.0824369038455,677.0824369038455,677.0824369038455,677.0824369038455,677.0824369038455,677.0824369038455,l,1,0.649188386159949,677.7427848466905,678.7634660626063,,,,,,,,,,,,,,,,,,,,,,,,,,,,,,,,,,,,,,,565,2023-05-16_15h56.25.954,eb_02psyexp,2022.2.4,99.93568806797772,
184,0,184,0,,,,,,,,,,,,,,,,,,,,,,,,,,,,,,,,,,,,,,,,,,,,,,,,,,,,,,,,,,,678.7634660626063,678.7634660626063,678.7634660626063,678.7634660626063,678.7634660626063,678.7634660626063,l,1,0.4482093818951398,679.223801207263,680.2544493470341,,,,,,,,,,,,,,,,,,,,,,,,,,,,,,,,,,,,,,,565,2023-05-16_15h56.25.954,eb_02psyexp,2022.2.4,99.93568806797772,
185,0,185,0,,,,,,,,,,,,,,,,,,,,,,,,,,,,,,,,,,,,,,,,,,,,,,,,,,,,,,,,,,,680.2544493470341,680.2544493470341,680.2544493470341,680.2544493470341,680.2544493470341,680.2544493470341,s,1,0.9252389728790149,681.1950329585234,682.2157036098652,,,,,,,,,,,,,,,,,,,,,,,,,,,,,,,,,,,,,,,565,2023-05-16_15h56.25.954,eb_02psyexp,2022.2.4,99.93568806797772,
186,0,186,0,,,,,,,,,,,,,,,,,,,,,,,,,,,,,,,,,,,,,,,,,,,,,,,,,,,,,,,,,,,682.2157036098652,682.2157036098652,682.2157036098652,682.2157036098652,682.2157036098652,682.2157036098652,l,1,0.6039925218792632,682.8360957186669,,,,,,,,,,,,,,,,,,,,,,,,,,,,,,,,,,,,,,,,565,2023-05-16_15h56.25.954,eb_02psyexp,2022.2.4,99.93568806797772,
187,0,187,0,,,,,,,,,,,,,,,,,,,,,,,,,,,,,,,,,,,,,,,,,,,,,,,,,,,,,,,,,,,683.857114397455,683.857114397455,683.857114397455,683.857114397455,683.857114397455,683.857114397455,l,1,0.8656254794914275,684.7373455987545,685.76799947361,,,,,,,,,,,,,,,,,,,,,,,,,,,,,,,,,,,,,,,565,2023-05-16_15h56.25.954,eb_02psyexp,2022.2.4,99.93568806797772,
188,0,188,0,,,,,,,,,,,,,,,,,,,,,,,,,,,,,,,,,,,,,,,,,,,,,,,,,,,,,,,,,,,685.76799947361,685.76799947361,685.76799947361,685.76799947361,685.76799947361,685.76799947361,s,1,0.602669836836867,686.3883909786819,687.4090577061288,,,,,,,,,,,,,,,,,,,,,,,,,,,,,,,,,,,,,,,565,2023-05-16_15h56.25.954,eb_02psyexp,2022.2.4,99.93568806797772,
189,0,189,0,,,,,,,,,,,,,,,,,,,,,,,,,,,,,,,,,,,,,,,,,,,,,,,,,,,,,,,,,,,687.4090577061288,687.4090577061288,687.4090577061288,687.4090577061288,687.4090577061288,687.4090577061288,l,1,0.7536071562208235,688.1795694361208,689.2102211981546,,,,,,,,,,,,,,,,,,,,,,,,,,,,,,,,,,,,,,,565,2023-05-16_15h56.25.954,eb_02psyexp,2022.2.4,99.93568806797772,
190,0,190,0,,,,,,,,,,,,,,,,,,,,,,,,,,,,,,,,,,,,,,,,,,,,,,,,,,,,,,,,,,,689.2102211981546,689.2102211981546,689.2102211981546,689.2102211981546,689.2102211981546,689.2102211981546,s,1,0.8084979818668216,690.0307694815565,691.0514111558441,,,,,,,,,,,,,,,,,,,,,,,,,,,,,,,,,,,,,,,565,2023-05-16_15h56.25.954,eb_02psyexp,2022.2.4,99.93568806797772,
191,0,191,0,,,,,,,,,,,,,,,,,,,,,,,,,,,,,,,,,,,,,,,,,,,,,,,,,,,,,,,,,,,691.0514111558441,691.0514111558441,691.0514111558441,691.0514111558441,691.0514111558441,691.0514111558441,l,1,1.3272950809914619,692.3922657637158,693.4129442630801,,,,,,,,,,,,,,,,,,,,,,,,,,,,,,,,,,,,,,,565,2023-05-16_15h56.25.954,eb_02psyexp,2022.2.4,99.93568806797772,
192,0,192,0,,,,,,,,,,,,,,,,,,,,,,,,,,,,,,,,,,,,,,,,,,,,,,,,,,,,,,,,,,,693.4129442630801,693.4129442630801,693.4129442630801,693.4129442630801,693.4129442630801,693.4129442630801,l,1,0.9978312001330778,694.4235818866873,695.4442486141343,,,,,,,,,,,,,,,,,,,,,,,,,,,,,,,,,,,,,,,565,2023-05-16_15h56.25.954,eb_02psyexp,2022.2.4,99.93568806797772,
193,0,193,0,,,,,,,,,,,,,,,,,,,,,,,,,,,,,,,,,,,,,,,,,,,,,,,,,,,,,,,,,,,695.4442486141343,695.4442486141343,695.4442486141343,695.4442486141343,695.4442486141343,695.4442486141343,l,1,0.8304511730093509,696.2847781347809,697.3154579683905,,,,,,,,,,,,,,,,,,,,,,,,,,,,,,,,,,,,,,,565,2023-05-16_15h56.25.954,eb_02psyexp,2022.2.4,99.93568806797772,
194,0,194,0,,,,,,,,,,,,,,,,,,,,,,,,,,,,,,,,,,,,,,,,,,,,,,,,,,,,,,,,,,,697.3154579683905,697.3154579683905,697.3154579683905,697.3154579683905,697.3154579683905,697.3154579683905,s,1,0.695312725729309,698.0258883450879,699.0465858607786,,,,,,,,,,,,,,,,,,,,,,,,,,,,,,,,,,,,,,,565,2023-05-16_15h56.25.954,eb_02psyexp,2022.2.4,99.93568806797772,
195,0,195,0,,,,,,,,,,,,,,,,,,,,,,,,,,,,,,,,,,,,,,,,,,,,,,,,,,,,,,,,,,,699.0465858607786,699.0465858607786,699.0465858607786,699.0465858607786,699.0465858607786,699.0465858607786,l,1,0.996174976346083,700.0572349544382,701.0879268617136,,,,,,,,,,,,,,,,,,,,,,,,,,,,,,,,,,,,,,,565,2023-05-16_15h56.25.954,eb_02psyexp,2022.2.4,99.93568806797772,
196,0,196,0,,,,,,,,,,,,,,,,,,,,,,,,,,,,,,,,,,,,,,,,,,,,,,,,,,,,,,,,,,,701.0879268617136,701.0879268617136,701.0879268617136,701.0879268617136,701.0879268617136,701.0879268617136,s,1,0.6738237723475322,701.7783292151289,702.8090051247273,,,,,,,,,,,,,,,,,,,,,,,,,,,,,,,,,,,,,,,565,2023-05-16_15h56.25.954,eb_02psyexp,2022.2.4,99.93568806797772,
197,0,197,0,,,,,,,,,,,,,,,,,,,,,,,,,,,,,,,,,,,,,,,,,,,,,,,,,,,,,,,,,,,702.8090051247273,702.8090051247273,702.8090051247273,702.8090051247273,702.8090051247273,702.8090051247273,s,1,0.7367666168138385,703.559497886803,704.590154780075,,,,,,,,,,,,,,,,,,,,,,,,,,,,,,,,,,,,,,,565,2023-05-16_15h56.25.954,eb_02psyexp,2022.2.4,99.93568806797772,
198,0,198,0,,,,,,,,,,,,,,,,,,,,,,,,,,,,,,,,,,,,,,,,,,,,,,,,,,,,,,,,,,,704.590154780075,704.590154780075,704.590154780075,704.590154780075,704.590154780075,704.590154780075,s,1,1.5076550494413823,706.1111435762141,707.1318015501602,,,,,,,,,,,,,,,,,,,,,,,,,,,,,,,,,,,,,,,565,2023-05-16_15h56.25.954,eb_02psyexp,2022.2.4,99.93568806797772,
199,0,199,0,,,,,0,0,0,0,,,,,,,,,,,,,,,,,,,,,,,,,,,,,,,,,,,,,,,,,,,,,,,,,,,707.1318015501602,707.1318015501602,707.1318015501602,707.1318015501602,707.1318015501602,707.1318015501602,l,1,0.6939957757713273,707.8422491319943,708.8429249631008,708.8429249631008,708.8429249631008,space,49.69215874664951,,,,,,,,,,,,,,,,,,,,,,,,,,,,,,,,,,,565,2023-05-16_15h56.25.954,eb_02psyexp,2022.2.4,99.93568806797772,
199,0,199,0,,,,,,,,,,,,,,,,,,,,,,,,,,,,,,,,,,,,,,,,,,,,,,,,,,,,,,,,,,,,,,,,,,,,,,,,,,,,,,,,,,,,,,,,,,,,,,,,,,,,,,,,,,,,565,2023-05-16_15h56.25.954,eb_02psyexp,2022.2.4,99.93568806797772,
200,0,200,0,,,,,,,,,,,,,,,,,,,,,,,,,,,,,,,,,,,,,,,,,,,,,,,,,,,,,,,,,,,758.575361051946,758.575361051946,758.575361051946,758.575361051946,758.575361051946,758.575361051946,l,1,2.3037472425494343,760.896519666072,761.9172250296688,,,,,,,,,,,,,,,,,,,,,,,,,,,,,,,,,,,,,,,565,2023-05-16_15h56.25.954,eb_02psyexp,2022.2.4,99.93568806797772,
201,0,201,0,,,,,,,,,,,,,,,,,,,,,,,,,,,,,,,,,,,,,,,,,,,,,,,,,,,,,,,,,,,761.9172250296688,761.9172250296688,761.9172250296688,761.9172250296688,761.9172250296688,761.9172250296688,l,1,0.8258942181710154,762.7577225548448,763.7783705679467,,,,,,,,,,,,,,,,,,,,,,,,,,,,,,,,,,,,,,,565,2023-05-16_15h56.25.954,eb_02psyexp,2022.2.4,99.93568806797772,
202,0,202,0,,,,,,,,,,,,,,,,,,,,,,,,,,,,,,,,,,,,,,,,,,,,,,,,,,,,,,,,,,,763.7783705679467,763.7783705679467,763.7783705679467,763.7783705679467,763.7783705679467,763.7783705679467,l,1,0.955730756977573,764.7490324357059,765.7696840708377,,,,,,,,,,,,,,,,,,,,,,,,,,,,,,,,,,,,,,,565,2023-05-16_15h56.25.954,eb_02psyexp,2022.2.4,99.93568806797772,
203,0,203,0,,,,,,,,,,,,,,,,,,,,,,,,,,,,,,,,,,,,,,,,,,,,,,,,,,,,,,,,,,,765.7696840708377,765.7696840708377,765.7696840708377,765.7696840708377,765.7696840708377,765.7696840708377,l,1,0.5324413581984118,766.32003846718,767.3406831598841,,,,,,,,,,,,,,,,,,,,,,,,,,,,,,,,,,,,,,,565,2023-05-16_15h56.25.954,eb_02psyexp,2022.2.4,99.93568806797772,
204,0,204,0,,,,,,,,,,,,,,,,,,,,,,,,,,,,,,,,,,,,,,,,,,,,,,,,,,,,,,,,,,,767.3406831598841,767.3406831598841,767.3406831598841,767.3406831598841,767.3406831598841,767.3406831598841,l,1,0.5134522856678814,767.871024625143,,,,,,,,,,,,,,,,,,,,,,,,,,,,,,,,,,,,,,,,565,2023-05-16_15h56.25.954,eb_02psyexp,2022.2.4,99.93568806797772,
205,0,205,0,,,,,,,,,,,,,,,,,,,,,,,,,,,,,,,,,,,,,,,,,,,,,,,,,,,,,,,,,,,768.9020346772159,768.9020346772159,768.9020346772159,768.9020346772159,768.9020346772159,768.9020346772159,l,1,0.5841537554515526,769.5024153641425,770.5227482509799,,,,,,,,,,,,,,,,,,,,,,,,,,,,,,,,,,,,,,,565,2023-05-16_15h56.25.954,eb_02psyexp,2022.2.4,99.93568806797772,
206,0,206,0,,,,,,,,,,,,,,,,,,,,,,,,,,,,,,,,,,,,,,,,,,,,,,,,,,,,,,,,,,,770.5227482509799,770.5227482509799,770.5227482509799,770.5227482509799,770.5227482509799,770.5227482509799,s,1,0.6434497078880668,771.1831798049388,772.2138412258355,,,,,,,,,,,,,,,,,,,,,,,,,,,,,,,,,,,,,,,565,2023-05-16_15h56.25.954,eb_02psyexp,2022.2.4,99.93568806797772,
207,0,207,0,,,,,,,,,,,,,,,,,,,,,,,,,,,,,,,,,,,,,,,,,,,,,,,,,,,,,,,,,,,772.2138412258355,772.2138412258355,772.2138412258355,772.2138412258355,772.2138412258355,772.2138412258355,s,1,0.5763468347722664,772.8042341617402,773.8252175246598,,,,,,,,,,,,,,,,,,,,,,,,,,,,,,,,,,,,,,,565,2023-05-16_15h56.25.954,eb_02psyexp,2022.2.4,99.93568806797772,
208,0,208,0,,,,,,,,,,,,,,,,,,,,,,,,,,,,,,,,,,,,,,,,,,,,,,,,,,,,,,,,,,,773.8252175246598,773.8252175246598,773.8252175246598,773.8252175246598,773.8252175246598,773.8252175246598,l,1,0.6610013942699879,774.5056354472181,775.5259592786897,,,,,,,,,,,,,,,,,,,,,,,,,,,,,,,,,,,,,,,565,2023-05-16_15h56.25.954,eb_02psyexp,2022.2.4,99.93568806797772,
209,0,209,0,,,,,,,,,,,,,,,,,,,,,,,,,,,,,,,,,,,,,,,,,,,,,,,,,,,,,,,,,,,775.5259592786897,775.5259592786897,775.5259592786897,775.5259592786897,775.5259592786897,775.5259592786897,s,1,0.624220970319584,776.1663890698692,777.1870533825131,,,,,,,,,,,,,,,,,,,,,,,,,,,,,,,,,,,,,,,565,2023-05-16_15h56.25.954,eb_02psyexp,2022.2.4,99.93568806797772,
210,0,210,0,,,,,,,,,,,,,,,,,,,,,,,,,,,,,,,,,,,,,,,,,,,,,,,,,,,,,,,,,,,777.1870533825131,777.1870533825131,777.1870533825131,777.1870533825131,777.1870533825131,777.1870533825131,s,1,1.6341691797133535,778.8381316636223,779.8687985178549,,,,,,,,,,,,,,,,,,,,,,,,,,,,,,,,,,,,,,,565,2023-05-16_15h56.25.954,eb_02psyexp,2022.2.4,99.93568806797772,
211,0,211,0,,,,,,,,,,,,,,,,,,,,,,,,,,,,,,,,,,,,,,,,,,,,,,,,,,,,,,,,,,,779.8687985178549,779.8687985178549,779.8687985178549,779.8687985178549,779.8687985178549,779.8687985178549,l,1,0.6484150590840727,780.5292026038514,781.5499266817933,,,,,,,,,,,,,,,,,,,,,,,,,,,,,,,,,,,,,,,565,2023-05-16_15h56.25.954,eb_02psyexp,2022.2.4,99.93568806797772,
212,0,212,0,,,,,,,,,,,,,,,,,,,,,,,,,,,,,,,,,,,,,,,,,,,,,,,,,,,,,,,,,,,781.5499266817933,781.5499266817933,781.5499266817933,781.5499266817933,781.5499266817933,781.5499266817933,l,1,0.7352999516297132,782.3003750726348,783.3310198922409,,,,,,,,,,,,,,,,,,,,,,,,,,,,,,,,,,,,,,,565,2023-05-16_15h56.25.954,eb_02psyexp,2022.2.4,99.93568806797772,
213,0,213,0,,,,,,,,,,,,,,,,,,,,,,,,,,,,,,,,,,,,,,,,,,,,,,,,,,,,,,,,,,,783.3310198922409,783.3310198922409,783.3310198922409,783.3310198922409,783.3310198922409,783.3310198922409,l,1,1.0022055386798456,784.3516718292376,785.382387884194,,,,,,,,,,,,,,,,,,,,,,,,,,,,,,,,,,,,,,,565,2023-05-16_15h56.25.954,eb_02psyexp,2022.2.4,99.93568806797772,
214,0,214,0,,,,,,,,,,,,,,,,,,,,,,,,,,,,,,,,,,,,,,,,,,,,,,,,,,,,,,,,,,,785.382387884194,785.382387884194,785.382387884194,785.382387884194,785.382387884194,785.382387884194,s,1,0.8308490047929808,786.2328927804483,787.2535691668745,,,,,,,,,,,,,,,,,,,,,,,,,,,,,,,,,,,,,,,565,2023-05-16_15h56.25.954,eb_02psyexp,2022.2.4,99.93568806797772,
215,0,215,0,,,,,,,,,,,,,,,,,,,,,,,,,,,,,,,,,,,,,,,,,,,,,,,,,,,,,,,,,,,787.2535691668745,787.2535691668745,787.2535691668745,787.2535691668745,787.2535691668745,787.2535691668745,s,1,1.0796994278207421,788.3442733050324,789.3749256706797,,,,,,,,,,,,,,,,,,,,,,,,,,,,,,,,,,,,,,,565,2023-05-16_15h56.25.954,eb_02psyexp,2022.2.4,99.93568806797772,
216,0,216,0,,,,,,,,,,,,,,,,,,,,,,,,,,,,,,,,,,,,,,,,,,,,,,,,,,,,,,,,,,,789.3749256706797,789.3749256706797,789.3749256706797,789.3749256706797,789.3749256706797,789.3749256706797,s,1,0.5903557658893988,789.9753323163604,790.9960222857771,,,,,,,,,,,,,,,,,,,,,,,,,,,,,,,,,,,,,,,565,2023-05-16_15h56.25.954,eb_02psyexp,2022.2.4,99.93568806797772,
217,0,217,0,,,,,,,,,,,,,,,,,,,,,,,,,,,,,,,,,,,,,,,,,,,,,,,,,,,,,,,,,,,790.9960222857771,790.9960222857771,790.9960222857771,790.9960222857771,790.9960222857771,790.9960222857771,l,1,0.5932580061489716,791.6064109475119,792.6370334305102,,,,,,,,,,,,,,,,,,,,,,,,,,,,,,,,,,,,,,,565,2023-05-16_15h56.25.954,eb_02psyexp,2022.2.4,99.93568806797772,
218,0,218,0,,,,,,,,,,,,,,,,,,,,,,,,,,,,,,,,,,,,,,,,,,,,,,,,,,,,,,,,,,,792.6370334305102,792.6370334305102,792.6370334305102,792.6370334305102,792.6370334305102,792.6370334305102,s,1,0.7833014656789601,793.4375395040261,794.4582638838328,,,,,,,,,,,,,,,,,,,,,,,,,,,,,,,,,,,,,,,565,2023-05-16_15h56.25.954,eb_02psyexp,2022.2.4,99.93568806797772,
219,0,219,0,,,,,,,,,,,,,,,,,,,,,,,,,,,,,,,,,,,,,,,,,,,,,,,,,,,,,,,,,,,794.4582638838328,794.4582638838328,794.4582638838328,794.4582638838328,794.4582638838328,794.4582638838328,l,1,0.6100119160255417,795.0786064900458,796.1092745516216,,,,,,,,,,,,,,,,,,,,,,,,,,,,,,,,,,,,,,,565,2023-05-16_15h56.25.954,eb_02psyexp,2022.2.4,99.93568806797772,
220,0,220,0,,,,,,,,,,,,,,,,,,,,,,,,,,,,,,,,,,,,,,,,,,,,,,,,,,,,,,,,,,,796.1092745516216,796.1092745516216,796.1092745516216,796.1092745516216,796.1092745516216,796.1092745516216,l,1,0.6470323067624122,796.7697082185186,797.8003780911677,,,,,,,,,,,,,,,,,,,,,,,,,,,,,,,,,,,,,,,565,2023-05-16_15h56.25.954,eb_02psyexp,2022.2.4,99.93568806797772,
221,0,221,0,,,,,,,,,,,,,,,,,,,,,,,,,,,,,,,,,,,,,,,,,,,,,,,,,,,,,,,,,,,797.8003780911677,797.8003780911677,797.8003780911677,797.8003780911677,797.8003780911677,797.8003780911677,s,1,0.5319197699427605,798.3507143766619,799.3714140052907,,,,,,,,,,,,,,,,,,,,,,,,,,,,,,,,,,,,,,,565,2023-05-16_15h56.25.954,eb_02psyexp,2022.2.4,99.93568806797772,
222,0,222,0,,,,,,,,,,,,,,,,,,,,,,,,,,,,,,,,,,,,,,,,,,,,,,,,,,,,,,,,,,,799.3714140052907,799.3714140052907,799.3714140052907,799.3714140052907,799.3714140052907,799.3714140052907,l,1,0.6249046493321657,800.0118105934234,801.0324480419513,,,,,,,,,,,,,,,,,,,,,,,,,,,,,,,,,,,,,,,565,2023-05-16_15h56.25.954,eb_02psyexp,2022.2.4,99.93568806797772,
223,0,223,0,,,,,,,,,,,,,,,,,,,,,,,,,,,,,,,,,,,,,,,,,,,,,,,,,,,,,,,,,,,801.0324480419513,801.0324480419513,801.0324480419513,801.0324480419513,801.0324480419513,801.0324480419513,l,1,0.5799043807201087,801.6228261874057,802.6435037811752,,,,,,,,,,,,,,,,,,,,,,,,,,,,,,,,,,,,,,,565,2023-05-16_15h56.25.954,eb_02psyexp,2022.2.4,99.93568806797772,
224,0,224,0,,,,,,,,,,,,,,,,,,,,,,,,,,,,,,,,,,,,,,,,,,,,,,,,,,,,,,,,,,,802.6435037811752,802.6435037811752,802.6435037811752,802.6435037811752,802.6435037811752,802.6435037811752,l,1,0.7288401655387133,803.3840130179888,804.4046365815448,,,,,,,,,,,,,,,,,,,,,,,,,,,,,,,,,,,,,,,565,2023-05-16_15h56.25.954,eb_02psyexp,2022.2.4,99.93568806797772,
225,0,225,0,,,,,,,,,,,,,,,,,,,,,,,,,,,,,,,,,,,,,,,,,,,,,,,,,,,,,,,,,,,804.4046365815448,804.4046365815448,804.4046365815448,804.4046365815448,804.4046365815448,804.4046365815448,l,1,0.6636896263808012,805.0850849904818,806.105712779914,,,,,,,,,,,,,,,,,,,,,,,,,,,,,,,,,,,,,,,565,2023-05-16_15h56.25.954,eb_02psyexp,2022.2.4,99.93568806797772,
226,0,226,0,,,,,,,,,,,,,,,,,,,,,,,,,,,,,,,,,,,,,,,,,,,,,,,,,,,,,,,,,,,806.105712779914,806.105712779914,806.105712779914,806.105712779914,806.105712779914,806.105712779914,l,1,0.7466248763957992,806.866189067252,807.8868597187102,,,,,,,,,,,,,,,,,,,,,,,,,,,,,,,,,,,,,,,565,2023-05-16_15h56.25.954,eb_02psyexp,2022.2.4,99.93568806797772,
227,0,227,0,,,,,,,,,,,,,,,,,,,,,,,,,,,,,,,,,,,,,,,,,,,,,,,,,,,,,,,,,,,807.8868597187102,807.8868597187102,807.8868597187102,807.8868597187102,807.8868597187102,807.8868597187102,s,1,1.1895076415967196,809.0876600306947,810.1083886363776,,,,,,,,,,,,,,,,,,,,,,,,,,,,,,,,,,,,,,,565,2023-05-16_15h56.25.954,eb_02psyexp,2022.2.4,99.93568806797772,
228,0,228,0,,,,,,,,,,,,,,,,,,,,,,,,,,,,,,,,,,,,,,,,,,,,,,,,,,,,,,,,,,,810.1083886363776,810.1083886363776,810.1083886363776,810.1083886363776,810.1083886363776,810.1083886363776,l,1,1.3989944506902248,811.5192344726529,812.5398574325955,,,,,,,,,,,,,,,,,,,,,,,,,,,,,,,,,,,,,,,565,2023-05-16_15h56.25.954,eb_02psyexp,2022.2.4,99.93568806797772,
229,0,229,0,,,,,,,,,,,,,,,,,,,,,,,,,,,,,,,,,,,,,,,,,,,,,,,,,,,,,,,,,,,812.5398574325955,812.5398574325955,812.5398574325955,812.5398574325955,812.5398574325955,812.5398574325955,s,1,1.0235496064415202,813.5805793493055,814.6012813926209,,,,,,,,,,,,,,,,,,,,,,,,,,,,,,,,,,,,,,,565,2023-05-16_15h56.25.954,eb_02psyexp,2022.2.4,99.93568806797772,
230,0,230,0,,,,,,,,,,,,,,,,,,,,,,,,,,,,,,,,,,,,,,,,,,,,,,,,,,,,,,,,,,,814.6012813926209,814.6012813926209,814.6012813926209,814.6012813926209,814.6012813926209,814.6012813926209,l,1,1.4101258927257732,816.022152710706,817.042778689065,,,,,,,,,,,,,,,,,,,,,,,,,,,,,,,,,,,,,,,565,2023-05-16_15h56.25.954,eb_02psyexp,2022.2.4,99.93568806797772,
231,0,231,0,,,,,,,,,,,,,,,,,,,,,,,,,,,,,,,,,,,,,,,,,,,,,,,,,,,,,,,,,,,817.042778689065,817.042778689065,817.042778689065,817.042778689065,817.042778689065,817.042778689065,s,1,0.5846502905478701,817.643175977515,818.6638955278322,,,,,,,,,,,,,,,,,,,,,,,,,,,,,,,,,,,,,,,565,2023-05-16_15h56.25.954,eb_02psyexp,2022.2.4,99.93568806797772,
232,0,232,0,,,,,,,,,,,,,,,,,,,,,,,,,,,,,,,,,,,,,,,,,,,,,,,,,,,,,,,,,,,818.6638955278322,818.6638955278322,818.6638955278322,818.6638955278322,818.6638955278322,818.6638955278322,l,1,0.9635132282273844,819.6445140566211,820.6651170947589,,,,,,,,,,,,,,,,,,,,,,,,,,,,,,,,,,,,,,,565,2023-05-16_15h56.25.954,eb_02psyexp,2022.2.4,99.93568806797772,
233,0,233,0,,,,,,,,,,,,,,,,,,,,,,,,,,,,,,,,,,,,,,,,,,,,,,,,,,,,,,,,,,,820.6651170947589,820.6651170947589,820.6651170947589,820.6651170947589,820.6651170947589,820.6651170947589,s,1,0.5783199960133061,821.2555423279991,822.2861859401455,,,,,,,,,,,,,,,,,,,,,,,,,,,,,,,,,,,,,,,565,2023-05-16_15h56.25.954,eb_02psyexp,2022.2.4,99.93568806797772,
234,0,234,0,,,,,,,,,,,,,,,,,,,,,,,,,,,,,,,,,,,,,,,,,,,,,,,,,,,,,,,,,,,822.2861859401455,822.2861859401455,822.2861859401455,822.2861859401455,822.2861859401455,822.2861859401455,l,1,0.6132990086916834,822.9166056436952,823.9372548641404,,,,,,,,,,,,,,,,,,,,,,,,,,,,,,,,,,,,,,,565,2023-05-16_15h56.25.954,eb_02psyexp,2022.2.4,99.93568806797772,
235,0,235,0,,,,,,,,,,,,,,,,,,,,,,,,,,,,,,,,,,,,,,,,,,,,,,,,,,,,,,,,,,,823.9372548641404,823.9372548641404,823.9372548641404,823.9372548641404,823.9372548641404,823.9372548641404,l,1,0.6982225120300427,824.6477069735993,825.6783892220119,,,,,,,,,,,,,,,,,,,,,,,,,,,,,,,,,,,,,,,565,2023-05-16_15h56.25.954,eb_02psyexp,2022.2.4,99.93568806797772,
236,0,236,0,,,,,,,,,,,,,,,,,,,,,,,,,,,,,,,,,,,,,,,,,,,,,,,,,,,,,,,,,,,825.6783892220119,825.6783892220119,825.6783892220119,825.6783892220119,825.6783892220119,825.6783892220119,l,1,0.5960594300413504,826.2887688283809,827.3194504729472,,,,,,,,,,,,,,,,,,,,,,,,,,,,,,,,,,,,,,,565,2023-05-16_15h56.25.954,eb_02psyexp,2022.2.4,99.93568806797772,
237,0,237,0,,,,,,,,,,,,,,,,,,,,,,,,,,,,,,,,,,,,,,,,,,,,,,,,,,,,,,,,,,,827.3194504729472,827.3194504729472,827.3194504729472,827.3194504729472,827.3194504729472,827.3194504729472,s,1,0.5550362719222903,827.8898084431421,,,,,,,,,,,,,,,,,,,,,,,,,,,,,,,,,,,,,,,,565,2023-05-16_15h56.25.954,eb_02psyexp,2022.2.4,99.93568806797772,
238,0,238,0,,,,,,,,,,,,,,,,,,,,,,,,,,,,,,,,,,,,,,,,,,,,,,,,,,,,,,,,,,,828.910451626638,828.910451626638,828.910451626638,828.910451626638,828.910451626638,828.910451626638,l,1,0.5080066989175975,829.4311246927828,830.4514400726184,,,,,,,,,,,,,,,,,,,,,,,,,,,,,,,,,,,,,,,565,2023-05-16_15h56.25.954,eb_02psyexp,2022.2.4,99.93568806797772,
239,0,239,0,,,,,,,,,,,,,,,,,,,,,,,,,,,,,,,,,,,,,,,,,,,,,,,,,,,,,,,,,,,830.4514400726184,830.4514400726184,830.4514400726184,830.4514400726184,830.4514400726184,830.4514400726184,s,1,0.5190542280906811,830.9817942152731,832.0024950512452,,,,,,,,,,,,,,,,,,,,,,,,,,,,,,,,,,,,,,,565,2023-05-16_15h56.25.954,eb_02psyexp,2022.2.4,99.93568806797772,
240,0,240,0,,,,,,,,,,,,,,,,,,,,,,,,,,,,,,,,,,,,,,,,,,,,,,,,,,,,,,,,,,,832.0024950512452,832.0024950512452,832.0024950512452,832.0024950512452,832.0024950512452,832.0024950512452,l,1,0.6800070684403181,832.6928980083903,833.7135713764001,,,,,,,,,,,,,,,,,,,,,,,,,,,,,,,,,,,,,,,565,2023-05-16_15h56.25.954,eb_02psyexp,2022.2.4,99.93568806797772,
241,0,241,0,,,,,,,,,,,,,,,,,,,,,,,,,,,,,,,,,,,,,,,,,,,,,,,,,,,,,,,,,,,833.7135713764001,833.7135713764001,833.7135713764001,833.7135713764001,833.7135713764001,833.7135713764001,s,1,0.4169352153548971,834.1438394329743,835.1645112917759,,,,,,,,,,,,,,,,,,,,,,,,,,,,,,,,,,,,,,,565,2023-05-16_15h56.25.954,eb_02psyexp,2022.2.4,99.93568806797772,
242,0,242,0,,,,,,,,,,,,,,,,,,,,,,,,,,,,,,,,,,,,,,,,,,,,,,,,,,,,,,,,,,,835.1645112917759,835.1645112917759,835.1645112917759,835.1645112917759,835.1645112917759,835.1645112917759,s,1,0.9260237700073048,836.1051030529197,837.125743821729,,,,,,,,,,,,,,,,,,,,,,,,,,,,,,,,,,,,,,,565,2023-05-16_15h56.25.954,eb_02psyexp,2022.2.4,99.93568806797772,
243,0,243,0,,,,,,,,,,,,,,,,,,,,,,,,,,,,,,,,,,,,,,,,,,,,,,,,,,,,,,,,,,,837.125743821729,837.125743821729,837.125743821729,837.125743821729,837.125743821729,837.125743821729,s,1,1.3727964125573635,838.5166745247552,839.5473446992692,,,,,,,,,,,,,,,,,,,,,,,,,,,,,,,,,,,,,,,565,2023-05-16_15h56.25.954,eb_02psyexp,2022.2.4,99.93568806797772,
244,0,244,0,,,,,,,,,,,,,,,,,,,,,,,,,,,,,,,,,,,,,,,,,,,,,,,,,,,,,,,,,,,839.5473446992692,839.5473446992692,839.5473446992692,839.5473446992692,839.5473446992692,839.5473446992692,l,1,0.9992323649348691,840.5579787006136,841.5786840642104,,,,,,,,,,,,,,,,,,,,,,,,,,,,,,,,,,,,,,,565,2023-05-16_15h56.25.954,eb_02psyexp,2022.2.4,99.93568806797772,
245,0,245,0,,,,,,,,,,,,,,,,,,,,,,,,,,,,,,,,,,,,,,,,,,,,,,,,,,,,,,,,,,,841.5786840642104,841.5786840642104,841.5786840642104,841.5786840642104,841.5786840642104,841.5786840642104,s,1,0.9909107984276488,842.5893044825643,843.6199800902978,,,,,,,,,,,,,,,,,,,,,,,,,,,,,,,,,,,,,,,565,2023-05-16_15h56.25.954,eb_02psyexp,2022.2.4,99.93568806797772,
246,0,246,0,,,,,,,,,,,,,,,,,,,,,,,,,,,,,,,,,,,,,,,,,,,,,,,,,,,,,,,,,,,843.6199800902978,843.6199800902978,843.6199800902978,843.6199800902978,843.6199800902978,843.6199800902978,l,1,0.8455708938417956,844.4805189199978,845.5011986267054,,,,,,,,,,,,,,,,,,,,,,,,,,,,,,,,,,,,,,,565,2023-05-16_15h56.25.954,eb_02psyexp,2022.2.4,99.93568806797772,
247,0,247,0,,,,,,,,,,,,,,,,,,,,,,,,,,,,,,,,,,,,,,,,,,,,,,,,,,,,,,,,,,,845.5011986267054,845.5011986267054,845.5011986267054,845.5011986267054,845.5011986267054,845.5011986267054,l,1,1.0604480518959463,846.5718771562679,847.6025654415134,,,,,,,,,,,,,,,,,,,,,,,,,,,,,,,,,,,,,,,565,2023-05-16_15h56.25.954,eb_02psyexp,2022.2.4,99.93568806797772,
248,0,248,0,,,,,,,,,,,,,,,,,,,,,,,,,,,,,,,,,,,,,,,,,,,,,,,,,,,,,,,,,,,847.6025654415134,847.6025654415134,847.6025654415134,847.6025654415134,847.6025654415134,847.6025654415134,l,1,2.1991026923060417,849.8139568929328,850.8346728211036,,,,,,,,,,,,,,,,,,,,,,,,,,,,,,,,,,,,,,,565,2023-05-16_15h56.25.954,eb_02psyexp,2022.2.4,99.93568806797772,
249,0,249,0,,,,,,,,,,,,,,,,,,,,,,,,,,,,,,,,,,,,,,,,,,,,,,,,,,,,,,,,,,,850.8346728211036,850.8346728211036,850.8346728211036,850.8346728211036,850.8346728211036,850.8346728211036,l,1,0.9909925985848531,851.8452681862982,852.8759184390074,,,,,,,,,,,,,,,,,,,,,,,,,,,,,,,,,,,,,,,565,2023-05-16_15h56.25.954,eb_02psyexp,2022.2.4,99.93568806797772,
250,0,250,0,,,,,,,,,,,,,,,,,,,,,,,,,,,,,,,,,,,,,,,,,,,,,,,,,,,,,,,,,,,852.8759184390074,852.8759184390074,852.8759184390074,852.8759184390074,852.8759184390074,852.8759184390074,s,1,0.6217020732583478,853.5163636242505,854.6170724168187,,,,,,,,,,,,,,,,,,,,,,,,,,,,,,,,,,,,,,,565,2023-05-16_15h56.25.954,eb_02psyexp,2022.2.4,99.93568806797772,
251,0,251,0,,,,,,,,,,,,,,,,,,,,,,,,,,,,,,,,,,,,,,,,,,,,,,,,,,,,,,,,,,,854.6170724168187,854.6170724168187,854.6170724168187,854.6170724168187,854.6170724168187,854.6170724168187,l,1,0.6165583316469565,855.2474812539294,856.2681733362842,,,,,,,,,,,,,,,,,,,,,,,,,,,,,,,,,,,,,,,565,2023-05-16_15h56.25.954,eb_02psyexp,2022.2.4,99.93568806797772,
252,0,252,0,,,,,,,,,,,,,,,,,,,,,,,,,,,,,,,,,,,,,,,,,,,,,,,,,,,,,,,,,,,856.2681733362842,856.2681733362842,856.2681733362842,856.2681733362842,856.2681733362842,856.2681733362842,l,1,0.6044875477673486,856.8885283182608,,,,,,,,,,,,,,,,,,,,,,,,,,,,,,,,,,,,,,,,565,2023-05-16_15h56.25.954,eb_02psyexp,2022.2.4,99.93568806797772,
253,0,253,0,,,,,,,,,,,,,,,,,,,,,,,,,,,,,,,,,,,,,,,,,,,,,,,,,,,,,,,,,,,857.9195121097146,857.9195121097146,857.9195121097146,857.9195121097146,857.9195121097146,857.9195121097146,s,1,0.6331525655696169,858.5699381036684,859.5903207948431,,,,,,,,,,,,,,,,,,,,,,,,,,,,,,,,,,,,,,,565,2023-05-16_15h56.25.954,eb_02psyexp,2022.2.4,99.93568806797772,
254,0,254,0,,,,,,,,,,,,,,,,,,,,,,,,,,,,,,,,,,,,,,,,,,,,,,,,,,,,,,,,,,,859.5903207948431,859.5903207948431,859.5903207948431,859.5903207948431,859.5903207948431,859.5903207948431,l,1,0.6423470678273588,860.2507438971661,861.2813823779579,,,,,,,,,,,,,,,,,,,,,,,,,,,,,,,,,,,,,,,565,2023-05-16_15h56.25.954,eb_02psyexp,2022.2.4,99.93568806797772,
255,0,255,0,,,,,,,,,,,,,,,,,,,,,,,,,,,,,,,,,,,,,,,,,,,,,,,,,,,,,,,,,,,861.2813823779579,861.2813823779579,861.2813823779579,861.2813823779579,861.2813823779579,861.2813823779579,s,1,0.9752960518235341,862.2720049575437,863.2926807403564,,,,,,,,,,,,,,,,,,,,,,,,,,,,,,,,,,,,,,,565,2023-05-16_15h56.25.954,eb_02psyexp,2022.2.4,99.93568806797772,
256,0,256,0,,,,,,,,,,,,,,,,,,,,,,,,,,,,,,,,,,,,,,,,,,,,,,,,,,,,,,,,,,,863.2926807403564,863.2926807403564,863.2926807403564,863.2926807403564,863.2926807403564,863.2926807403564,s,1,0.6600318680284545,863.9630949139828,864.9937895379262,,,,,,,,,,,,,,,,,,,,,,,,,,,,,,,,,,,,,,,565,2023-05-16_15h56.25.954,eb_02psyexp,2022.2.4,99.93568806797772,
257,0,257,0,,,,,,,,,,,,,,,,,,,,,,,,,,,,,,,,,,,,,,,,,,,,,,,,,,,,,,,,,,,864.9937895379262,864.9937895379262,864.9937895379262,864.9937895379262,864.9937895379262,864.9937895379262,s,1,1.5509369141655043,866.5547960463446,867.5754084415967,,,,,,,,,,,,,,,,,,,,,,,,,,,,,,,,,,,,,,,565,2023-05-16_15h56.25.954,eb_02psyexp,2022.2.4,99.93568806797772,
258,0,258,0,,,,,,,,,,,,,,,,,,,,,,,,,,,,,,,,,,,,,,,,,,,,,,,,,,,,,,,,,,,867.5754084415967,867.5754084415967,867.5754084415967,867.5754084415967,867.5754084415967,867.5754084415967,l,1,0.9612967798020691,868.5560797933722,869.5767347487854,,,,,,,,,,,,,,,,,,,,,,,,,,,,,,,,,,,,,,,565,2023-05-16_15h56.25.954,eb_02psyexp,2022.2.4,99.93568806797772,
259,0,259,0,,,,,,,,,,,,,,,,,,,,,,,,,,,,,,,,,,,,,,,,,,,,,,,,,,,,,,,,,,,869.5767347487854,869.5767347487854,869.5767347487854,869.5767347487854,869.5767347487854,869.5767347487854,l,1,0.7919798129005358,870.3872635874432,871.4079100912204,,,,,,,,,,,,,,,,,,,,,,,,,,,,,,,,,,,,,,,565,2023-05-16_15h56.25.954,eb_02psyexp,2022.2.4,99.93568806797772,
260,0,260,0,,,,,,,,,,,,,,,,,,,,,,,,,,,,,,,,,,,,,,,,,,,,,,,,,,,,,,,,,,,871.4079100912204,871.4079100912204,871.4079100912204,871.4079100912204,871.4079100912204,871.4079100912204,l,1,1.0638543734094128,872.4886207431555,873.5192788438872,,,,,,,,,,,,,,,,,,,,,,,,,,,,,,,,,,,,,,,565,2023-05-16_15h56.25.954,eb_02psyexp,2022.2.4,99.93568806797772,
261,0,261,0,,,,,,,,,,,,,,,,,,,,,,,,,,,,,,,,,,,,,,,,,,,,,,,,,,,,,,,,,,,873.5192788438872,873.5192788438872,873.5192788438872,873.5192788438872,873.5192788438872,873.5192788438872,l,1,0.6884765388676897,874.2197202621028,875.24038578209,,,,,,,,,,,,,,,,,,,,,,,,,,,,,,,,,,,,,,,565,2023-05-16_15h56.25.954,eb_02psyexp,2022.2.4,99.93568806797772,
262,0,262,0,,,,,,,,,,,,,,,,,,,,,,,,,,,,,,,,,,,,,,,,,,,,,,,,,,,,,,,,,,,875.24038578209,875.24038578209,875.24038578209,875.24038578209,875.24038578209,875.24038578209,l,1,0.8073711943579838,876.060908710584,877.0916006179759,,,,,,,,,,,,,,,,,,,,,,,,,,,,,,,,,,,,,,,565,2023-05-16_15h56.25.954,eb_02psyexp,2022.2.4,99.93568806797772,
263,0,263,0,,,,,,,,,,,,,,,,,,,,,,,,,,,,,,,,,,,,,,,,,,,,,,,,,,,,,,,,,,,877.0916006179759,877.0916006179759,877.0916006179759,877.0916006179759,877.0916006179759,877.0916006179759,l,1,0.628165481495671,877.731992376619,878.7527300376678,,,,,,,,,,,,,,,,,,,,,,,,,,,,,,,,,,,,,,,565,2023-05-16_15h56.25.954,eb_02psyexp,2022.2.4,99.93568806797772,
264,0,264,0,,,,,,,,,,,,,,,,,,,,,,,,,,,,,,,,,,,,,,,,,,,,,,,,,,,,,,,,,,,878.7527300376678,878.7527300376678,878.7527300376678,878.7527300376678,878.7527300376678,878.7527300376678,l,1,0.7910809183958918,879.5631722466787,880.5838356538443,,,,,,,,,,,,,,,,,,,,,,,,,,,,,,,,,,,,,,,565,2023-05-16_15h56.25.954,eb_02psyexp,2022.2.4,99.93568806797772,
265,0,265,0,,,,,,,,,,,,,,,,,,,,,,,,,,,,,,,,,,,,,,,,,,,,,,,,,,,,,,,,,,,880.5838356538443,880.5838356538443,880.5838356538443,880.5838356538443,880.5838356538443,880.5838356538443,s,1,0.7759636123664677,881.374342204188,882.3950071205618,,,,,,,,,,,,,,,,,,,,,,,,,,,,,,,,,,,,,,,565,2023-05-16_15h56.25.954,eb_02psyexp,2022.2.4,99.93568806797772,
266,0,266,0,,,,,,,,,,,,,,,,,,,,,,,,,,,,,,,,,,,,,,,,,,,,,,,,,,,,,,,,,,,882.3950071205618,882.3950071205618,882.3950071205618,882.3950071205618,882.3950071205618,882.3950071205618,l,1,1.3728078826097772,883.7859366161283,884.8065770830726,,,,,,,,,,,,,,,,,,,,,,,,,,,,,,,,,,,,,,,565,2023-05-16_15h56.25.954,eb_02psyexp,2022.2.4,99.93568806797772,
267,0,267,0,,,,,,,,,,,,,,,,,,,,,,,,,,,,,,,,,,,,,,,,,,,,,,,,,,,,,,,,,,,884.8065770830726,884.8065770830726,884.8065770830726,884.8065770830726,884.8065770830726,884.8065770830726,l,1,1.7283037868328393,886.5477081206627,887.5683558318997,,,,,,,,,,,,,,,,,,,,,,,,,,,,,,,,,,,,,,,565,2023-05-16_15h56.25.954,eb_02psyexp,2022.2.4,99.93568806797772,
268,0,268,0,,,,,,,,,,,,,,,,,,,,,,,,,,,,,,,,,,,,,,,,,,,,,,,,,,,,,,,,,,,887.5683558318997,887.5683558318997,887.5683558318997,887.5683558318997,887.5683558318997,887.5683558318997,l,1,0.8144458387978375,888.3989117882447,889.4295550985262,,,,,,,,,,,,,,,,,,,,,,,,,,,,,,,,,,,,,,,565,2023-05-16_15h56.25.954,eb_02psyexp,2022.2.4,99.93568806797772,
269,0,269,0,,,,,,,,,,,,,,,,,,,,,,,,,,,,,,,,,,,,,,,,,,,,,,,,,,,,,,,,,,,889.4295550985262,889.4295550985262,889.4295550985262,889.4295550985262,889.4295550985262,889.4295550985262,l,1,1.0092979921028018,890.4502046207199,891.470875574043,,,,,,,,,,,,,,,,,,,,,,,,,,,,,,,,,,,,,,,565,2023-05-16_15h56.25.954,eb_02psyexp,2022.2.4,99.93568806797772,
270,0,270,0,,,,,,,,,,,,,,,,,,,,,,,,,,,,,,,,,,,,,,,,,,,,,,,,,,,,,,,,,,,891.470875574043,891.470875574043,891.470875574043,891.470875574043,891.470875574043,891.470875574043,s,1,0.5279710330069065,892.0112373896409,893.0418912644964,,,,,,,,,,,,,,,,,,,,,,,,,,,,,,,,,,,,,,,565,2023-05-16_15h56.25.954,eb_02psyexp,2022.2.4,99.93568806797772,
271,0,271,0,,,,,,,,,,,,,,,,,,,,,,,,,,,,,,,,,,,,,,,,,,,,,,,,,,,,,,,,,,,893.0418912644964,893.0418912644964,893.0418912644964,893.0418912644964,893.0418912644964,893.0418912644964,l,1,0.6449694976909086,893.702329760883,894.722979585058,,,,,,,,,,,,,,,,,,,,,,,,,,,,,,,,,,,,,,,565,2023-05-16_15h56.25.954,eb_02psyexp,2022.2.4,99.93568806797772,
272,0,272,0,,,,,,,,,,,,,,,,,,,,,,,,,,,,,,,,,,,,,,,,,,,,,,,,,,,,,,,,,,,894.722979585058,894.722979585058,894.722979585058,894.722979585058,894.722979585058,894.722979585058,l,1,0.5318775116465986,895.2733324720757,896.3040095890174,,,,,,,,,,,,,,,,,,,,,,,,,,,,,,,,,,,,,,,565,2023-05-16_15h56.25.954,eb_02psyexp,2022.2.4,99.93568806797772,
273,0,273,0,,,,,,,,,,,,,,,,,,,,,,,,,,,,,,,,,,,,,,,,,,,,,,,,,,,,,,,,,,,896.3040095890174,896.3040095890174,896.3040095890174,896.3040095890174,896.3040095890174,896.3040095890174,l,1,0.5668535059085116,896.884362252662,,,,,,,,,,,,,,,,,,,,,,,,,,,,,,,,,,,,,,,,565,2023-05-16_15h56.25.954,eb_02psyexp,2022.2.4,99.93568806797772,
274,0,274,0,,,,,,,,,,,,,,,,,,,,,,,,,,,,,,,,,,,,,,,,,,,,,,,,,,,,,,,,,,,897.9153644568287,897.9153644568287,897.9153644568287,897.9153644568287,897.9153644568287,897.9153644568287,s,1,0.5955233532004058,898.5257585517829,899.5461388281547,,,,,,,,,,,,,,,,,,,,,,,,,,,,,,,,,,,,,,,565,2023-05-16_15h56.25.954,eb_02psyexp,2022.2.4,99.93568806797772,
275,0,275,0,,,,,,,,,,,,,,,,,,,,,,,,,,,,,,,,,,,,,,,,,,,,,,,,,,,,,,,,,,,899.5461388281547,899.5461388281547,899.5461388281547,899.5461388281547,899.5461388281547,899.5461388281547,l,1,2.020763576612808,901.5773834139109,902.6080979595426,,,,,,,,,,,,,,,,,,,,,,,,,,,,,,,,,,,,,,,565,2023-05-16_15h56.25.954,eb_02psyexp,2022.2.4,99.93568806797772,
276,0,276,0,,,,,,,,,,,,,,,,,,,,,,,,,,,,,,,,,,,,,,,,,,,,,,,,,,,,,,,,,,,902.6080979595426,902.6080979595426,902.6080979595426,902.6080979595426,902.6080979595426,902.6080979595426,s,1,0.9418938776943833,903.5686948038638,904.5893482500687,,,,,,,,,,,,,,,,,,,,,,,,,,,,,,,,,,,,,,,565,2023-05-16_15h56.25.954,eb_02psyexp,2022.2.4,99.93568806797772,
