trials.thisRepN,trials.thisTrialN,trials.thisN,trials.thisIndex,image_loop.thisRepN,image_loop.thisTrialN,image_loop.thisN,image_loop.thisIndex,break_loop.thisRepN,break_loop.thisTrialN,break_loop.thisN,break_loop.thisIndex,test_trials.thisRepN,test_trials.thisTrialN,test_trials.thisN,test_trials.thisIndex,distance matrix,tools,welcome_text.started,instructions_0_keypress.started,instructions_0_keypress.keys,instructions_0_keypress.rt,consent_image_0.started,consent0_key_resp.started,consent0_text.started,consent0_key_resp.keys,consent0_key_resp.rt,consent_image_1.started,consent1_key_resp.started,consent1_text.started,consent1_key_resp.keys,consent1_key_resp.rt,consent2_text.started,consent_image_2.started,consent2_key_resp.started,consent2_key_resp.keys,consent2_key_resp.rt,agree_button.started,disagree_button.started,consent_image_3.started,agree_button.numClicks,agree_button.timesOn,agree_button.timesOff,disagree_button.numClicks,disagree_button.timesOn,disagree_button.timesOff,instructions_text1.started,instructions1_key_resp.started,instr1_cnt_text.started,instructions1_key_resp.keys,instructions1_key_resp.rt,instructions_text2.started,instr2_cnt_text.started,instructions2_key_resp.started,instructions2_key_resp.keys,instructions2_key_resp.rt,instructions_text3.started,instructions3_key_resp.started,instr3_cnt_text.started,instructions3_key_resp.keys,instructions3_key_resp.rt,text_countdown.started,image.started,small_large_keyresp.started,task_question_text.started,smalleroption_text.started,largeroption_text.started,accuracy_score_text.started,small_large_keyresp.keys,small_large_keyresp.corr,small_large_keyresp.rt,fb_2.started,fb_2.stopped,break_text.started,break_key_resp.started,break_key_resp.keys,break_key_resp.rt,reveal_seq_text.started,start_test_text.started,continue_to_test.started,continue_to_test.keys,continue_to_test.rt,test_structure_info.started,start_test_text_2.started,continue_to_test_2.started,continue_to_test_2.keys,continue_to_test_2.rt,test_cntdown_text.started,test_cntdown_text.stopped,parent index,left child index,right child index,left distance,right distance,parent_image.started,top_image_text.started,left_child_image.started,right_child_image.started,path_resp.started,child_choice_text.started,left_choice_text.started,right_choice_text.started,path_resp.keys,path_resp.rt,graph.started,debrief_text.started,debriefing_title.started,demo_scr_adv.started,demo_scr_adv_keypress.started,demo_scr_adv_keypress.keys,demo_scr_adv_keypress.rt,text_countdown_2.started,participant,date,expName,psychopyVersion,frameRate,
,,,,,,,,,,,,,,,,"[[0. 1. 1. 2. 2. 3. 4. 5. 5. 6. 6. 7.]
 [1. 0. 2. 1. 1. 2. 3. 4. 4. 5. 5. 6.]
 [1. 2. 0. 1. 1. 2. 3. 4. 4. 5. 5. 6.]
 [2. 1. 1. 0. 1. 1. 2. 3. 3. 4. 4. 5.]
 [2. 1. 1. 1. 0. 1. 2. 3. 3. 4. 4. 5.]
 [3. 2. 2. 1. 1. 0. 1. 2. 2. 3. 3. 4.]
 [4. 3. 3. 2. 2. 1. 0. 1. 1. 2. 2. 3.]
 [5. 4. 4. 3. 3. 2. 1. 0. 1. 1. 1. 2.]
 [5. 4. 4. 3. 3. 2. 1. 1. 0. 1. 1. 2.]
 [6. 5. 5. 4. 4. 3. 2. 1. 1. 0. 2. 1.]
 [6. 5. 5. 4. 4. 3. 2. 1. 1. 2. 0. 1.]
 [7. 6. 6. 5. 5. 4. 3. 2. 2. 1. 1. 0.]]",[ 2  3 11 10  6  5  4  7  1  9  0  8],10.480450702947564,10.480450702947564,return,45.35771943605505,,,,,,,,,,,,,,,,,,,,,,,,,,,,,,,,,,,,,,,,,,,,,,,,,,,,,,,,,,,,,,,,,,,,,,,,,,,,,,,,,,,,,,,,,,,566,2023-05-16_16h01.31.347,eb_02psyexp,2022.2.4,59.89983420457353,
,,,,,,,,,,,,,,,,,,,,,,55.86014794034418,55.86014794034418,55.86014794034418,space,26.272131269797683,,,,,,,,,,,,,,,,,,,,,,,,,,,,,,,,,,,,,,,,,,,,,,,,,,,,,,,,,,,,,,,,,,,,,,,,,,,,,,,,,,,,,,566,2023-05-16_16h01.31.347,eb_02psyexp,2022.2.4,59.89983420457353,
,,,,,,,,,,,,,,,,,,,,,,,,,,,82.15805331675801,82.15805331675801,82.15805331675801,space,4.070263030007482,,,,,,,,,,,,,,,,,,,,,,,,,,,,,,,,,,,,,,,,,,,,,,,,,,,,,,,,,,,,,,,,,,,,,,,,,,,,,,,,,566,2023-05-16_16h01.31.347,eb_02psyexp,2022.2.4,59.89983420457353,
,,,,,,,,,,,,,,,,,,,,,,,,,,,,,,,,86.2577370434301,86.2577370434301,86.2577370434301,space,1.9386253817938268,,,,,,,,,,,,,,,,,,,,,,,,,,,,,,,,,,,,,,,,,,,,,,,,,,,,,,,,,,,,,,,,,,,,,,,,,,,,566,2023-05-16_16h01.31.347,eb_02psyexp,2022.2.4,59.89983420457353,
,,,,,,,,,,,,,,,,,,,,,,,,,,,,,,,,,,,,,88.22424280655105,88.22424280655105,88.22424280655105,1,[5.082435696385801],[5.082440525875427],0,,,93.30686564696953,95.2903100491967,95.2903100491967,space,1.3290806787554175,,,,,,,,,,,,,,,,,,,,,,,,,,,,,,,,,,,,,,,,,,,,,,,,,,,,,,,,,,,,,,566,2023-05-16_16h01.31.347,eb_02psyexp,2022.2.4,59.89983420457353,
,,,,,,,,,,,,,,,,,,,,,,,,,,,,,,,,,,,,,,,,,,,,,,,,,,,96.64024687302299,99.6233559254324,99.6233559254324,space,7.0030623592901975,,,,,,,,,,,,,,,,,,,,,,,,,,,,,,,,,,,,,,,,,,,,,,,,,,,,,,,,,566,2023-05-16_16h01.31.347,eb_02psyexp,2022.2.4,59.89983420457353,
,,,,,,,,,,,,,,,,,,,,,,,,,,,,,,,,,,,,,,,,,,,,,,,,,,,,,,,,106.6561332802521,109.63923116447404,109.63923116447404,space,3.1952703497372568,,,,,,,,,,,,,,,,,,,,,,,,,,,,,,,,,,,,,,,,,,,,,,,,,,,,566,2023-05-16_16h01.31.347,eb_02psyexp,2022.2.4,59.89983420457353,
0,0,0,0,,,,,,,,,,,,,,,,,,,,,,,,,,,,,,,,,,,,,,,,,,,,,,,,,,,,,,,,,,112.87231742753647,117.9052185388282,117.9052185388282,117.9052185388282,117.9052185388282,117.9052185388282,117.9052185388282,s,1,1.5532869620947167,119.48846499109641,120.52172016666736,,,,,,,,,,,,,,,,,,,,,,,,,,,,,,,,,,,,,,,,566,2023-05-16_16h01.31.347,eb_02psyexp,2022.2.4,59.89983420457353,
1,0,1,0,,,,,,,,,,,,,,,,,,,,,,,,,,,,,,,,,,,,,,,,,,,,,,,,,,,,,,,,,,,120.52172016666736,120.52172016666736,120.52172016666736,120.52172016666736,120.52172016666736,120.52172016666736,s,1,1.3358030701056123,121.88827869237866,122.90488832036499,,,,,,,,,,,,,,,,,,,,,,,,,,,,,,,,,,,,,,,,566,2023-05-16_16h01.31.347,eb_02psyexp,2022.2.4,59.89983420457353,
2,0,2,0,,,,,,,,,,,,,,,,,,,,,,,,,,,,,,,,,,,,,,,,,,,,,,,,,,,,,,,,,,,122.90488832036499,122.90488832036499,122.90488832036499,122.90488832036499,122.90488832036499,122.90488832036499,l,1,1.2806674481835216,124.20476474496536,125.22137105267029,,,,,,,,,,,,,,,,,,,,,,,,,,,,,,,,,,,,,,,,566,2023-05-16_16h01.31.347,eb_02psyexp,2022.2.4,59.89983420457353,
3,0,3,0,,,,,,,,,,,,,,,,,,,,,,,,,,,,,,,,,,,,,,,,,,,,,,,,,,,,,,,,,,,125.22137105267029,125.22137105267029,125.22137105267029,125.22137105267029,125.22137105267029,125.22137105267029,s,1,1.4761842641746625,126.72122526157182,127.75449492572807,,,,,,,,,,,,,,,,,,,,,,,,,,,,,,,,,,,,,,,,566,2023-05-16_16h01.31.347,eb_02psyexp,2022.2.4,59.89983420457353,
4,0,4,0,,,,,,,,,,,,,,,,,,,,,,,,,,,,,,,,,,,,,,,,,,,,,,,,,,,,,,,,,,,127.75449492572807,127.75449492572807,127.75449492572807,127.75449492572807,127.75449492572807,127.75449492572807,s,1,0.751088745193556,128.53775779833086,129.5543595784111,,,,,,,,,,,,,,,,,,,,,,,,,,,,,,,,,,,,,,,,566,2023-05-16_16h01.31.347,eb_02psyexp,2022.2.4,59.89983420457353,
5,0,5,0,,,,,,,,,,,,,,,,,,,,,,,,,,,,,,,,,,,,,,,,,,,,,,,,,,,,,,,,,,,129.5543595784111,129.5543595784111,129.5543595784111,129.5543595784111,129.5543595784111,129.5543595784111,l,1,1.047232553944923,130.6209302985808,131.65418668149505,,,,,,,,,,,,,,,,,,,,,,,,,,,,,,,,,,,,,,,,566,2023-05-16_16h01.31.347,eb_02psyexp,2022.2.4,59.89983420457353,
6,0,6,0,,,,,,,,,,,,,,,,,,,,,,,,,,,,,,,,,,,,,,,,,,,,,,,,,,,,,,,,,,,131.65418668149505,131.65418668149505,131.65418668149505,131.65418668149505,131.65418668149505,131.65418668149505,l,1,1.0674211587756872,132.75409256620333,133.7707037035143,,,,,,,,,,,,,,,,,,,,,,,,,,,,,,,,,,,,,,,,566,2023-05-16_16h01.31.347,eb_02psyexp,2022.2.4,59.89983420457353,
7,0,7,0,,,,,,,,,,,,,,,,,,,,,,,,,,,,,,,,,,,,,,,,,,,,,,,,,,,,,,,,,,,133.7707037035143,133.7707037035143,133.7707037035143,133.7707037035143,133.7707037035143,133.7707037035143,l,1,1.8708898414624855,135.67053974128794,136.68713608803228,,,,,,,,,,,,,,,,,,,,,,,,,,,,,,,,,,,,,,,,566,2023-05-16_16h01.31.347,eb_02psyexp,2022.2.4,59.89983420457353,
8,0,8,0,,,,,,,,,,,,,,,,,,,,,,,,,,,,,,,,,,,,,,,,,,,,,,,,,,,,,,,,,,,136.68713608803228,136.68713608803228,136.68713608803228,136.68713608803228,136.68713608803228,136.68713608803228,s,1,1.1694722563261166,137.88703659991734,138.90364381321706,,,,,,,,,,,,,,,,,,,,,,,,,,,,,,,,,,,,,,,,566,2023-05-16_16h01.31.347,eb_02psyexp,2022.2.4,59.89983420457353,
9,0,9,0,,,,,,,,,,,,,,,,,,,,,,,,,,,,,,,,,,,,,,,,,,,,,,,,,,,,,,,,,,,138.90364381321706,138.90364381321706,138.90364381321706,138.90364381321706,138.90364381321706,138.90364381321706,l,1,0.7369744704337791,139.6702228039503,140.70347103709355,,,,,,,,,,,,,,,,,,,,,,,,,,,,,,,,,,,,,,,,566,2023-05-16_16h01.31.347,eb_02psyexp,2022.2.4,59.89983420457353,
10,0,10,0,,,,,,,,,,,,,,,,,,,,,,,,,,,,,,,,,,,,,,,,,,,,,,,,,,,,,,,,,,,140.70347103709355,140.70347103709355,140.70347103709355,140.70347103709355,140.70347103709355,140.70347103709355,s,1,0.6251801161561161,141.3534258508589,142.37001797184348,,,,,,,,,,,,,,,,,,,,,,,,,,,,,,,,,,,,,,,,566,2023-05-16_16h01.31.347,eb_02psyexp,2022.2.4,59.89983420457353,
11,0,11,0,,,,,,,,,,,,,,,,,,,,,,,,,,,,,,,,,,,,,,,,,,,,,,,,,,,,,,,,,,,142.37001797184348,142.37001797184348,142.37001797184348,142.37001797184348,142.37001797184348,142.37001797184348,s,1,0.7906316552544013,143.18662687542383,144.2198630347848,,,,,,,,,,,,,,,,,,,,,,,,,,,,,,,,,,,,,,,,566,2023-05-16_16h01.31.347,eb_02psyexp,2022.2.4,59.89983420457353,
12,0,12,0,,,,,,,,,,,,,,,,,,,,,,,,,,,,,,,,,,,,,,,,,,,,,,,,,,,,,,,,,,,144.2198630347848,144.2198630347848,144.2198630347848,144.2198630347848,144.2198630347848,144.2198630347848,s,1,0.6047781069064513,144.85316022718325,145.86974932975136,,,,,,,,,,,,,,,,,,,,,,,,,,,,,,,,,,,,,,,,566,2023-05-16_16h01.31.347,eb_02psyexp,2022.2.4,59.89983420457353,
13,0,13,0,,,,,,,,,,,,,,,,,,,,,,,,,,,,,,,,,,,,,,,,,,,,,,,,,,,,,,,,,,,145.86974932975136,145.86974932975136,145.86974932975136,145.86974932975136,145.86974932975136,145.86974932975136,s,1,0.8429193692281842,146.7363332103705,147.76959502662066,,,,,,,,,,,,,,,,,,,,,,,,,,,,,,,,,,,,,,,,566,2023-05-16_16h01.31.347,eb_02psyexp,2022.2.4,59.89983420457353,
14,0,14,0,,,,,,,,,,,,,,,,,,,,,,,,,,,,,,,,,,,,,,,,,,,,,,,,,,,,,,,,,,,147.76959502662066,147.76959502662066,147.76959502662066,147.76959502662066,147.76959502662066,147.76959502662066,s,1,0.9190824234392494,148.7195240628207,149.73613037052564,,,,,,,,,,,,,,,,,,,,,,,,,,,,,,,,,,,,,,,,566,2023-05-16_16h01.31.347,eb_02psyexp,2022.2.4,59.89983420457353,
15,0,15,0,,,,,,,,,,,,,,,,,,,,,,,,,,,,,,,,,,,,,,,,,,,,,,,,,,,,,,,,,,,149.73613037052564,149.73613037052564,149.73613037052564,149.73613037052564,149.73613037052564,149.73613037052564,l,1,0.8245696044759825,150.5860409338493,151.602645732346,,,,,,,,,,,,,,,,,,,,,,,,,,,,,,,,,,,,,,,,566,2023-05-16_16h01.31.347,eb_02psyexp,2022.2.4,59.89983420457353,
16,0,16,0,,,,,,,,,,,,,,,,,,,,,,,,,,,,,,,,,,,,,,,,,,,,,,,,,,,,,,,,,,,151.602645732346,151.602645732346,151.602645732346,151.602645732346,151.602645732346,151.602645732346,s,1,0.8290631717536598,152.4525605214294,153.48582082835492,,,,,,,,,,,,,,,,,,,,,,,,,,,,,,,,,,,,,,,,566,2023-05-16_16h01.31.347,eb_02psyexp,2022.2.4,59.89983420457353,
17,0,17,0,,,,,,,,,,,,,,,,,,,,,,,,,,,,,,,,,,,,,,,,,,,,,,,,,,,,,,,,,,,153.48582082835492,153.48582082835492,153.48582082835492,153.48582082835492,153.48582082835492,153.48582082835492,s,1,1.8339192550629377,155.35233920870814,156.36893736652564,,,,,,,,,,,,,,,,,,,,,,,,,,,,,,,,,,,,,,,,566,2023-05-16_16h01.31.347,eb_02psyexp,2022.2.4,59.89983420457353,
18,0,18,0,,,,,,,,,,,,,,,,,,,,,,,,,,,,,,,,,,,,,,,,,,,,,,,,,,,,,,,,,,,156.36893736652564,156.36893736652564,156.36893736652564,156.36893736652564,156.36893736652564,156.36893736652564,s,1,0.8788063318934292,157.26885822275653,158.30211520940065,,,,,,,,,,,,,,,,,,,,,,,,,,,,,,,,,,,,,,,,566,2023-05-16_16h01.31.347,eb_02psyexp,2022.2.4,59.89983420457353,
19,0,19,0,,,,,,,,,,,,,,,,,,,,,,,,,,,,,,,,,,,,,,,,,,,,,,,,,,,,,,,,,,,158.30211520940065,158.30211520940065,158.30211520940065,158.30211520940065,158.30211520940065,158.30211520940065,s,1,1.049623166793026,159.36870977538638,160.3852946520783,,,,,,,,,,,,,,,,,,,,,,,,,,,,,,,,,,,,,,,,566,2023-05-16_16h01.31.347,eb_02psyexp,2022.2.4,59.89983420457353,
20,0,20,0,,,,,,,,,,,,,,,,,,,,,,,,,,,,,,,,,,,,,,,,,,,,,,,,,,,,,,,,,,,160.3852946520783,160.3852946520783,160.3852946520783,160.3852946520783,160.3852946520783,160.3852946520783,l,1,0.8144768112106249,161.2185494051082,162.2348116094945,,,,,,,,,,,,,,,,,,,,,,,,,,,,,,,,,,,,,,,,566,2023-05-16_16h01.31.347,eb_02psyexp,2022.2.4,59.89983420457353,
21,0,21,0,,,,,,,,,,,,,,,,,,,,,,,,,,,,,,,,,,,,,,,,,,,,,,,,,,,,,,,,,,,162.2348116094945,162.2348116094945,162.2348116094945,162.2348116094945,162.2348116094945,162.2348116094945,s,1,1.1249543362064287,163.38500669191126,164.40164861734957,,,,,,,,,,,,,,,,,,,,,,,,,,,,,,,,,,,,,,,,566,2023-05-16_16h01.31.347,eb_02psyexp,2022.2.4,59.89983420457353,
22,0,22,0,,,,,,,,,,,,,,,,,,,,,,,,,,,,,,,,,,,,,,,,,,,,,,,,,,,,,,,,,,,164.40164861734957,164.40164861734957,164.40164861734957,164.40164861734957,164.40164861734957,164.40164861734957,l,1,1.1741285182069987,165.6015421868069,166.63480581401382,,,,,,,,,,,,,,,,,,,,,,,,,,,,,,,,,,,,,,,,566,2023-05-16_16h01.31.347,eb_02psyexp,2022.2.4,59.89983420457353,
23,0,23,0,,,,,,,,,,,,,,,,,,,,,,,,,,,,,,,,,,,,,,,,,,,,,,,,,,,,,,,,,,,166.63480581401382,166.63480581401382,166.63480581401382,166.63480581401382,166.63480581401382,166.63480581401382,l,1,1.9800001893891022,168.63464553433005,169.65122316672932,,,,,,,,,,,,,,,,,,,,,,,,,,,,,,,,,,,,,,,,566,2023-05-16_16h01.31.347,eb_02psyexp,2022.2.4,59.89983420457353,
24,0,24,0,,,,,,,,,,,,,,,,,,,,,,,,,,,,,,,,,,,,,,,,,,,,,,,,,,,,,,,,,,,169.65122316672932,169.65122316672932,169.65122316672932,169.65122316672932,169.65122316672932,169.65122316672932,l,1,1.0195491362828761,170.7011540743988,171.73440110019874,,,,,,,,,,,,,,,,,,,,,,,,,,,,,,,,,,,,,,,,566,2023-05-16_16h01.31.347,eb_02psyexp,2022.2.4,59.89983420457353,
25,0,25,0,,,,,,,,,,,,,,,,,,,,,,,,,,,,,,,,,,,,,,,,,,,,,,,,,,,,,,,,,,,171.73440110019874,171.73440110019874,171.73440110019874,171.73440110019874,171.73440110019874,171.73440110019874,l,1,1.1203916461672634,172.8843278423883,173.90091030439362,,,,,,,,,,,,,,,,,,,,,,,,,,,,,,,,,,,,,,,,566,2023-05-16_16h01.31.347,eb_02psyexp,2022.2.4,59.89983420457353,
26,0,26,0,,,,,,,,,,,,,,,,,,,,,,,,,,,,,,,,,,,,,,,,,,,,,,,,,,,,,,,,,,,173.90091030439362,173.90091030439362,173.90091030439362,173.90091030439362,173.90091030439362,173.90091030439362,l,1,0.8499309279723093,174.76750535320025,175.8007569067413,,,,,,,,,,,,,,,,,,,,,,,,,,,,,,,,,,,,,,,,566,2023-05-16_16h01.31.347,eb_02psyexp,2022.2.4,59.89983420457353,
27,0,27,0,,,,,,,,,,,,,,,,,,,,,,,,,,,,,,,,,,,,,,,,,,,,,,,,,,,,,,,,,,,175.8007569067413,175.8007569067413,175.8007569067413,175.8007569067413,175.8007569067413,175.8007569067413,l,1,0.7261014077812433,176.5506800870644,177.56731808860786,,,,,,,,,,,,,,,,,,,,,,,,,,,,,,,,,,,,,,,,566,2023-05-16_16h01.31.347,eb_02psyexp,2022.2.4,59.89983420457353,
28,0,28,0,,,,,,,,,,,,,,,,,,,,,,,,,,,,,,,,,,,,,,,,,,,,,,,,,,,,,,,,,,,177.56731808860786,177.56731808860786,177.56731808860786,177.56731808860786,177.56731808860786,177.56731808860786,l,1,0.8315431306837127,178.41722110577393,179.45047054626048,,,,,,,,,,,,,,,,,,,,,,,,,,,,,,,,,,,,,,,,566,2023-05-16_16h01.31.347,eb_02psyexp,2022.2.4,59.89983420457353,
29,0,29,0,,,,,,,,,,,,,,,,,,,,,,,,,,,,,,,,,,,,,,,,,,,,,,,,,,,,,,,,,,,179.45047054626048,179.45047054626048,179.45047054626048,179.45047054626048,179.45047054626048,179.45047054626048,s,1,1.076430328306742,180.55038729740772,181.56698454974685,,,,,,,,,,,,,,,,,,,,,,,,,,,,,,,,,,,,,,,,566,2023-05-16_16h01.31.347,eb_02psyexp,2022.2.4,59.89983420457353,
30,0,30,0,,,,,,,,,,,,,,,,,,,,,,,,,,,,,,,,,,,,,,,,,,,,,,,,,,,,,,,,,,,181.56698454974685,181.56698454974685,181.56698454974685,181.56698454974685,181.56698454974685,181.56698454974685,s,1,1.1189210570883006,182.71689408679958,183.7501353775151,,,,,,,,,,,,,,,,,,,,,,,,,,,,,,,,,,,,,,,,566,2023-05-16_16h01.31.347,eb_02psyexp,2022.2.4,59.89983420457353,
31,0,31,0,,,,,,,,,,,,,,,,,,,,,,,,,,,,,,,,,,,,,,,,,,,,,,,,,,,,,,,,,,,183.7501353775151,183.7501353775151,183.7501353775151,183.7501353775151,183.7501353775151,183.7501353775151,s,1,0.6157607393106446,184.3833791433135,185.39997428283095,,,,,,,,,,,,,,,,,,,,,,,,,,,,,,,,,,,,,,,,566,2023-05-16_16h01.31.347,eb_02psyexp,2022.2.4,59.89983420457353,
32,0,32,0,,,,,,,,,,,,,,,,,,,,,,,,,,,,,,,,,,,,,,,,,,,,,,,,,,,,,,,,,,,185.39997428283095,185.39997428283095,185.39997428283095,185.39997428283095,185.39997428283095,185.39997428283095,s,1,0.6299311574548483,186.04996079031844,187.06656106119044,,,,,,,,,,,,,,,,,,,,,,,,,,,,,,,,,,,,,,,,566,2023-05-16_16h01.31.347,eb_02psyexp,2022.2.4,59.89983420457353,
33,0,33,0,,,,,,,,,,,,,,,,,,,,,,,,,,,,,,,,,,,,,,,,,,,,,,,,,,,,,,,,,,,187.06656106119044,187.06656106119044,187.06656106119044,187.06656106119044,187.06656106119044,187.06656106119044,l,1,1.3953679663827643,188.4831042229198,189.4996978531126,,,,,,,,,,,,,,,,,,,,,,,,,,,,,,,,,,,,,,,,566,2023-05-16_16h01.31.347,eb_02psyexp,2022.2.4,59.89983420457353,
34,0,34,0,,,,,,,,,,,,,,,,,,,,,,,,,,,,,,,,,,,,,,,,,,,,,,,,,,,,,,,,,,,189.4996978531126,189.4996978531126,189.4996978531126,189.4996978531126,189.4996978531126,189.4996978531126,l,1,1.2502855355851352,190.78292903199326,191.79952658619732,,,,,,,,,,,,,,,,,,,,,,,,,,,,,,,,,,,,,,,,566,2023-05-16_16h01.31.347,eb_02psyexp,2022.2.4,59.89983420457353,
35,0,35,0,,,,,,,,,,,,,,,,,,,,,,,,,,,,,,,,,,,,,,,,,,,,,,,,,,,,,,,,,,,191.79952658619732,191.79952658619732,191.79952658619732,191.79952658619732,191.79952658619732,191.79952658619732,l,1,2.1584186903201044,193.9826731880894,194.9992755718995,,,,,,,,,,,,,,,,,,,,,,,,,,,,,,,,,,,,,,,,566,2023-05-16_16h01.31.347,eb_02psyexp,2022.2.4,59.89983420457353,
36,0,36,0,,,,,,,,,,,,,,,,,,,,,,,,,,,,,,,,,,,,,,,,,,,,,,,,,,,,,,,,,,,194.9992755718995,194.9992755718995,194.9992755718995,194.9992755718995,194.9992755718995,194.9992755718995,l,1,0.8386549021815881,195.86586971522775,196.88246243994217,,,,,,,,,,,,,,,,,,,,,,,,,,,,,,,,,,,,,,,,566,2023-05-16_16h01.31.347,eb_02psyexp,2022.2.4,59.89983420457353,
37,0,37,0,,,,,,,,,,,,,,,,,,,,,,,,,,,,,,,,,,,,,,,,,,,,,,,,,,,,,,,,,,,196.88246243994217,196.88246243994217,196.88246243994217,196.88246243994217,196.88246243994217,196.88246243994217,l,1,0.8745177172822878,197.7823848053813,198.7989883965347,,,,,,,,,,,,,,,,,,,,,,,,,,,,,,,,,,,,,,,,566,2023-05-16_16h01.31.347,eb_02psyexp,2022.2.4,59.89983420457353,
38,0,38,0,,,,,,,,,,,,,,,,,,,,,,,,,,,,,,,,,,,,,,,,,,,,,,,,,,,,,,,,,,,198.7989883965347,198.7989883965347,198.7989883965347,198.7989883965347,198.7989883965347,198.7989883965347,l,1,0.9339947766857222,199.76556720607914,200.79882268351503,,,,,,,,,,,,,,,,,,,,,,,,,,,,,,,,,,,,,,,,566,2023-05-16_16h01.31.347,eb_02psyexp,2022.2.4,59.89983420457353,
39,0,39,0,,,,,,,,,,,,,,,,,,,,,,,,,,,,,,,,,,,,,,,,,,,,,,,,,,,,,,,,,,,200.79882268351503,200.79882268351503,200.79882268351503,200.79882268351503,200.79882268351503,200.79882268351503,s,1,1.2221324470592663,202.04872775322292,203.06532198714558,,,,,,,,,,,,,,,,,,,,,,,,,,,,,,,,,,,,,,,,566,2023-05-16_16h01.31.347,eb_02psyexp,2022.2.4,59.89983420457353,
40,0,40,0,,,,,,,,,,,,,,,,,,,,,,,,,,,,,,,,,,,,,,,,,,,,,,,,,,,,,,,,,,,203.06532198714558,203.06532198714558,203.06532198714558,203.06532198714558,203.06532198714558,203.06532198714558,l,1,0.7716534491628408,203.86524519778322,204.88187836972065,,,,,,,,,,,,,,,,,,,,,,,,,,,,,,,,,,,,,,,,566,2023-05-16_16h01.31.347,eb_02psyexp,2022.2.4,59.89983420457353,
41,0,41,0,,,,,,,,,,,,,,,,,,,,,,,,,,,,,,,,,,,,,,,,,,,,,,,,,,,,,,,,,,,204.88187836972065,204.88187836972065,204.88187836972065,204.88187836972065,204.88187836972065,204.88187836972065,l,1,0.8031087225535884,205.71510746586137,206.73170049244072,,,,,,,,,,,,,,,,,,,,,,,,,,,,,,,,,,,,,,,,566,2023-05-16_16h01.31.347,eb_02psyexp,2022.2.4,59.89983420457353,
42,0,42,0,,,,,,,,,,,,,,,,,,,,,,,,,,,,,,,,,,,,,,,,,,,,,,,,,,,,,,,,,,,206.73170049244072,206.73170049244072,206.73170049244072,206.73170049244072,206.73170049244072,206.73170049244072,l,1,0.7532964401179925,207.5149790609721,208.53157057834323,,,,,,,,,,,,,,,,,,,,,,,,,,,,,,,,,,,,,,,,566,2023-05-16_16h01.31.347,eb_02psyexp,2022.2.4,59.89983420457353,
43,0,43,0,,,,,,,,,,,,,,,,,,,,,,,,,,,,,,,,,,,,,,,,,,,,,,,,,,,,,,,,,,,208.53157057834323,208.53157057834323,208.53157057834323,208.53157057834323,208.53157057834323,208.53157057834323,l,1,0.6494665695354342,209.19817124155816,210.2314430186525,,,,,,,,,,,,,,,,,,,,,,,,,,,,,,,,,,,,,,,,566,2023-05-16_16h01.31.347,eb_02psyexp,2022.2.4,59.89983420457353,
44,0,44,0,,,,,,,,,,,,,,,,,,,,,,,,,,,,,,,,,,,,,,,,,,,,,,,,,,,,,,,,,,,210.2314430186525,210.2314430186525,210.2314430186525,210.2314430186525,210.2314430186525,210.2314430186525,s,1,0.8375727876555175,211.09803625638597,212.11461509624496,,,,,,,,,,,,,,,,,,,,,,,,,,,,,,,,,,,,,,,,566,2023-05-16_16h01.31.347,eb_02psyexp,2022.2.4,59.89983420457353,
45,0,45,0,,,,,,,,,,,,,,,,,,,,,,,,,,,,,,,,,,,,,,,,,,,,,,,,,,,,,,,,,,,212.11461509624496,212.11461509624496,212.11461509624496,212.11461509624496,212.11461509624496,212.11461509624496,s,1,0.8664089515805244,212.99787048308644,214.0311289790552,,,,,,,,,,,,,,,,,,,,,,,,,,,,,,,,,,,,,,,,566,2023-05-16_16h01.31.347,eb_02psyexp,2022.2.4,59.89983420457353,
46,0,46,0,,,,,,,,,,,,,,,,,,,,,,,,,,,,,,,,,,,,,,,,,,,,,,,,,,,,,,,,,,,214.0311289790552,214.0311289790552,214.0311289790552,214.0311289790552,214.0311289790552,214.0311289790552,s,1,1.7649446409195662,215.8143266531406,216.8309314516373,,,,,,,,,,,,,,,,,,,,,,,,,,,,,,,,,,,,,,,,566,2023-05-16_16h01.31.347,eb_02psyexp,2022.2.4,59.89983420457353,
47,0,47,0,,,,,,,,,,,,,,,,,,,,,,,,,,,,,,,,,,,,,,,,,,,,,,,,,,,,,,,,,,,216.8309314516373,216.8309314516373,216.8309314516373,216.8309314516373,216.8309314516373,216.8309314516373,l,1,0.6451519962865859,217.49750796717126,218.53077793319244,,,,,,,,,,,,,,,,,,,,,,,,,,,,,,,,,,,,,,,,566,2023-05-16_16h01.31.347,eb_02psyexp,2022.2.4,59.89983420457353,
48,0,48,0,,,,,,,,,,,,,,,,,,,,,,,,,,,,,,,,,,,,,,,,,,,,,,,,,,,,,,,,,,,218.53077793319244,218.53077793319244,218.53077793319244,218.53077793319244,218.53077793319244,218.53077793319244,s,1,0.7453156566480175,219.29738107160665,220.31398375716526,,,,,,,,,,,,,,,,,,,,,,,,,,,,,,,,,,,,,,,,566,2023-05-16_16h01.31.347,eb_02psyexp,2022.2.4,59.89983420457353,
49,0,49,0,,,,,,,,,,,,,,,,,,,,,,,,,,,,,,,,,,,,,,,,,,,,,,,,,,,,,,,,,,,220.31398375716526,220.31398375716526,220.31398375716526,220.31398375716526,220.31398375716526,220.31398375716526,s,1,0.9221069109626114,221.26390343613457,222.28051246050745,,,,,,,,,,,,,,,,,,,,,,,,,,,,,,,,,,,,,,,,566,2023-05-16_16h01.31.347,eb_02psyexp,2022.2.4,59.89983420457353,
50,0,50,0,,,,,,,,,,,,,,,,,,,,,,,,,,,,,,,,,,,,,,,,,,,,,,,,,,,,,,,,,,,222.28051246050745,222.28051246050745,222.28051246050745,222.28051246050745,222.28051246050745,222.28051246050745,l,1,1.0195763022638857,223.33041318366304,224.34702552831732,,,,,,,,,,,,,,,,,,,,,,,,,,,,,,,,,,,,,,,,566,2023-05-16_16h01.31.347,eb_02psyexp,2022.2.4,59.89983420457353,
51,0,51,0,,,,,,,,,,,,,,,,,,,,,,,,,,,,,,,,,,,,,,,,,,,,,,,,,,,,,,,,,,,224.34702552831732,224.34702552831732,224.34702552831732,224.34702552831732,224.34702552831732,224.34702552831732,l,1,0.8970872758654878,225.26359706337098,226.28018797701225,,,,,,,,,,,,,,,,,,,,,,,,,,,,,,,,,,,,,,,,566,2023-05-16_16h01.31.347,eb_02psyexp,2022.2.4,59.89983420457353,
52,0,52,0,,,,,,,,,,,,,,,,,,,,,,,,,,,,,,,,,,,,,,,,,,,,,,,,,,,,,,,,,,,226.28018797701225,226.28018797701225,226.28018797701225,226.28018797701225,226.28018797701225,226.28018797701225,s,1,0.6679603144293651,226.98014704685193,228.01337807485834,,,,,,,,,,,,,,,,,,,,,,,,,,,,,,,,,,,,,,,,566,2023-05-16_16h01.31.347,eb_02psyexp,2022.2.4,59.89983420457353,
53,0,53,0,,,,,,,,,,,,,,,,,,,,,,,,,,,,,,,,,,,,,,,,,,,,,,,,,,,,,,,,,,,228.01337807485834,228.01337807485834,228.01337807485834,228.01337807485834,228.01337807485834,228.01337807485834,s,1,0.5587618278805166,228.59667493519373,229.6132691691164,,,,,,,,,,,,,,,,,,,,,,,,,,,,,,,,,,,,,,,,566,2023-05-16_16h01.31.347,eb_02psyexp,2022.2.4,59.89983420457353,
54,0,54,0,,,,,,,,,,,,,,,,,,,,,,,,,,,,,,,,,,,,,,,,,,,,,,,,,,,,,,,,,,,229.6132691691164,229.6132691691164,229.6132691691164,229.6132691691164,229.6132691691164,229.6132691691164,s,1,0.7738608419895172,230.41319570003543,231.44644604611676,,,,,,,,,,,,,,,,,,,,,,,,,,,,,,,,,,,,,,,,566,2023-05-16_16h01.31.347,eb_02psyexp,2022.2.4,59.89983420457353,
55,0,55,0,,,,,,,,,,,,,,,,,,,,,,,,,,,,,,,,,,,,,,,,,,,,,,,,,,,,,,,,,,,231.44644604611676,231.44644604611676,231.44644604611676,231.44644604611676,231.44644604611676,231.44644604611676,s,1,0.7407061808044091,232.213057334302,233.22965730319265,,,,,,,,,,,,,,,,,,,,,,,,,,,,,,,,,,,,,,,,566,2023-05-16_16h01.31.347,eb_02psyexp,2022.2.4,59.89983420457353,
56,0,56,0,,,,,,,,,,,,,,,,,,,,,,,,,,,,,,,,,,,,,,,,,,,,,,,,,,,,,,,,,,,233.22965730319265,233.22965730319265,233.22965730319265,233.22965730319265,233.22965730319265,233.22965730319265,l,1,0.6295260812621564,233.87961272068787,234.89620121964253,,,,,,,,,,,,,,,,,,,,,,,,,,,,,,,,,,,,,,,,566,2023-05-16_16h01.31.347,eb_02psyexp,2022.2.4,59.89983420457353,
57,0,57,0,,,,,,,,,,,,,,,,,,,,,,,,,,,,,,,,,,,,,,,,,,,,,,,,,,,,,,,,,,,234.89620121964253,234.89620121964253,234.89620121964253,234.89620121964253,234.89620121964253,234.89620121964253,s,1,0.59499047906138,235.5128097005654,236.5460573300952,,,,,,,,,,,,,,,,,,,,,,,,,,,,,,,,,,,,,,,,566,2023-05-16_16h01.31.347,eb_02psyexp,2022.2.4,59.89983420457353,
58,0,58,0,,,,,,,,,,,,,,,,,,,,,,,,,,,,,,,,,,,,,,,,,,,,,,,,,,,,,,,,,,,236.5460573300952,236.5460573300952,236.5460573300952,236.5460573300952,236.5460573300952,236.5460573300952,l,1,0.8011385799618438,237.37932808080222,238.39592171111144,,,,,,,,,,,,,,,,,,,,,,,,,,,,,,,,,,,,,,,,566,2023-05-16_16h01.31.347,eb_02psyexp,2022.2.4,59.89983420457353,
59,0,59,0,,,,,,,,,,,,,,,,,,,,,,,,,,,,,,,,,,,,,,,,,,,,,,,,,,,,,,,,,,,238.39592171111144,238.39592171111144,238.39592171111144,238.39592171111144,238.39592171111144,238.39592171111144,l,1,0.75127075787168,239.17920058150776,240.21243613713887,,,,,,,,,,,,,,,,,,,,,,,,,,,,,,,,,,,,,,,,566,2023-05-16_16h01.31.347,eb_02psyexp,2022.2.4,59.89983420457353,
60,0,60,0,,,,,,,,,,,,,,,,,,,,,,,,,,,,,,,,,,,,,,,,,,,,,,,,,,,,,,,,,,,240.21243613713887,240.21243613713887,240.21243613713887,240.21243613713887,240.21243613713887,240.21243613713887,l,1,0.7187726096017286,240.96238044672646,241.97898524522316,,,,,,,,,,,,,,,,,,,,,,,,,,,,,,,,,,,,,,,,566,2023-05-16_16h01.31.347,eb_02psyexp,2022.2.4,59.89983420457353,
61,0,61,0,,,,,,,,,,,,,,,,,,,,,,,,,,,,,,,,,,,,,,,,,,,,,,,,,,,,,,,,,,,241.97898524522316,241.97898524522316,241.97898524522316,241.97898524522316,241.97898524522316,241.97898524522316,l,1,0.7362280075903982,242.74558476137463,243.77883691852912,,,,,,,,,,,,,,,,,,,,,,,,,,,,,,,,,,,,,,,,566,2023-05-16_16h01.31.347,eb_02psyexp,2022.2.4,59.89983420457353,
62,0,62,0,,,,,,,,,,,,,,,,,,,,,,,,,,,,,,,,,,,,,,,,,,,,,,,,,,,,,,,,,,,243.77883691852912,243.77883691852912,243.77883691852912,243.77883691852912,243.77883691852912,243.77883691852912,l,1,0.7523827550467104,244.5621028096648,245.57871515431907,,,,,,,,,,,,,,,,,,,,,,,,,,,,,,,,,,,,,,,,566,2023-05-16_16h01.31.347,eb_02psyexp,2022.2.4,59.89983420457353,
63,0,63,0,,,,,,,,,,,,,,,,,,,,,,,,,,,,,,,,,,,,,,,,,,,,,,,,,,,,,,,,,,,245.57871515431907,245.57871515431907,245.57871515431907,245.57871515431907,245.57871515431907,245.57871515431907,s,1,0.7195012635784224,246.32864225865342,247.36189954716247,,,,,,,,,,,,,,,,,,,,,,,,,,,,,,,,,,,,,,,,566,2023-05-16_16h01.31.347,eb_02psyexp,2022.2.4,59.89983420457353,
64,0,64,0,,,,,,,,,,,,,,,,,,,,,,,,,,,,,,,,,,,,,,,,,,,,,,,,,,,,,,,,,,,247.36189954716247,247.36189954716247,247.36189954716247,247.36189954716247,247.36189954716247,247.36189954716247,l,1,0.6643565862905234,248.0451768480707,249.06177017639857,,,,,,,,,,,,,,,,,,,,,,,,,,,,,,,,,,,,,,,,566,2023-05-16_16h01.31.347,eb_02psyexp,2022.2.4,59.89983420457353,
65,0,65,0,,,,,,,,,,,,,,,,,,,,,,,,,,,,,,,,,,,,,,,,,,,,,,,,,,,,,,,,,,,249.06177017639857,249.06177017639857,249.06177017639857,249.06177017639857,249.06177017639857,249.06177017639857,s,1,0.6685018244897947,249.76172773703001,250.79496570734773,,,,,,,,,,,,,,,,,,,,,,,,,,,,,,,,,,,,,,,,566,2023-05-16_16h01.31.347,eb_02psyexp,2022.2.4,59.89983420457353,
66,0,66,0,,,,,,,,,,,,,,,,,,,,,,,,,,,,,,,,,,,,,,,,,,,,,,,,,,,,,,,,,,,250.79496570734773,250.79496570734773,250.79496570734773,250.79496570734773,250.79496570734773,250.79496570734773,s,1,0.7993115116842091,251.61157008330338,252.62816763750743,,,,,,,,,,,,,,,,,,,,,,,,,,,,,,,,,,,,,,,,566,2023-05-16_16h01.31.347,eb_02psyexp,2022.2.4,59.89983420457353,
67,0,67,0,,,,,,,,,,,,,,,,,,,,,,,,,,,,,,,,,,,,,,,,,,,,,,,,,,,,,,,,,,,252.62816763750743,252.62816763750743,252.62816763750743,252.62816763750743,252.62816763750743,252.62816763750743,s,1,1.0141301119001582,253.66140802274458,254.69467376288958,,,,,,,,,,,,,,,,,,,,,,,,,,,,,,,,,,,,,,,,566,2023-05-16_16h01.31.347,eb_02psyexp,2022.2.4,59.89983420457353,
68,0,68,0,,,,,,,,,,,,,,,,,,,,,,,,,,,,,,,,,,,,,,,,,,,,,,,,,,,,,,,,,,,254.69467376288958,254.69467376288958,254.69467376288958,254.69467376288958,254.69467376288958,254.69467376288958,l,1,0.7316327183507383,255.44460901711136,256.46121230639983,,,,,,,,,,,,,,,,,,,,,,,,,,,,,,,,,,,,,,,,566,2023-05-16_16h01.31.347,eb_02psyexp,2022.2.4,59.89983420457353,
69,0,69,0,,,,,,,,,,,,,,,,,,,,,,,,,,,,,,,,,,,,,,,,,,,,,,,,,,,,,,,,,,,256.46121230639983,256.46121230639983,256.46121230639983,256.46121230639983,256.46121230639983,256.46121230639983,l,1,0.645081062684767,257.127801197581,258.16106301383115,,,,,,,,,,,,,,,,,,,,,,,,,,,,,,,,,,,,,,,,566,2023-05-16_16h01.31.347,eb_02psyexp,2022.2.4,59.89983420457353,
70,0,70,0,,,,,,,,,,,,,,,,,,,,,,,,,,,,,,,,,,,,,,,,,,,,,,,,,,,,,,,,,,,258.16106301383115,258.16106301383115,258.16106301383115,258.16106301383115,258.16106301383115,258.16106301383115,s,1,0.8892474541207775,259.07765175413806,260.0942607783945,,,,,,,,,,,,,,,,,,,,,,,,,,,,,,,,,,,,,,,,566,2023-05-16_16h01.31.347,eb_02psyexp,2022.2.4,59.89983420457353,
71,0,71,0,,,,,,,,,,,,,,,,,,,,,,,,,,,,,,,,,,,,,,,,,,,,,,,,,,,,,,,,,,,260.0942607783945,260.0942607783945,260.0942607783945,260.0942607783945,260.0942607783945,260.0942607783945,l,1,0.7070501550333574,260.827524526394,261.8607929832069,,,,,,,,,,,,,,,,,,,,,,,,,,,,,,,,,,,,,,,,566,2023-05-16_16h01.31.347,eb_02psyexp,2022.2.4,59.89983420457353,
72,0,72,0,,,,,,,,,,,,,,,,,,,,,,,,,,,,,,,,,,,,,,,,,,,,,,,,,,,,,,,,,,,261.8607929832069,261.8607929832069,261.8607929832069,261.8607929832069,261.8607929832069,261.8607929832069,s,1,0.9245726831723005,262.81071839726064,263.8273147441214,,,,,,,,,,,,,,,,,,,,,,,,,,,,,,,,,,,,,,,,566,2023-05-16_16h01.31.347,eb_02psyexp,2022.2.4,59.89983420457353,
73,0,73,0,,,,,,,,,,,,,,,,,,,,,,,,,,,,,,,,,,,,,,,,,,,,,,,,,,,,,,,,,,,263.8273147441214,263.8273147441214,263.8273147441214,263.8273147441214,263.8273147441214,263.8273147441214,l,1,0.9180217399261892,264.7772244622465,265.81047903420404,,,,,,,,,,,,,,,,,,,,,,,,,,,,,,,,,,,,,,,,566,2023-05-16_16h01.31.347,eb_02psyexp,2022.2.4,59.89983420457353,
74,0,74,0,,,,,,,,,,,,,,,,,,,,,,,,,,,,,,,,,,,,,,,,,,,,,,,,,,,,,,,,,,,265.81047903420404,265.81047903420404,265.81047903420404,265.81047903420404,265.81047903420404,265.81047903420404,s,1,0.8788488920545205,266.7104041161947,267.72700046305545,,,,,,,,,,,,,,,,,,,,,,,,,,,,,,,,,,,,,,,,566,2023-05-16_16h01.31.347,eb_02psyexp,2022.2.4,59.89983420457353,
75,0,75,0,,,,,,,,,,,,,,,,,,,,,,,,,,,,,,,,,,,,,,,,,,,,,,,,,,,,,,,,,,,267.72700046305545,267.72700046305545,267.72700046305545,267.72700046305545,267.72700046305545,267.72700046305545,l,1,0.5463725973386317,268.2936200820841,269.3268722392386,,,,,,,,,,,,,,,,,,,,,,,,,,,,,,,,,,,,,,,,566,2023-05-16_16h01.31.347,eb_02psyexp,2022.2.4,59.89983420457353,
76,0,76,0,,,,,,,,,,,,,,,,,,,,,,,,,,,,,,,,,,,,,,,,,,,,,,,,,,,,,,,,,,,269.3268722392386,269.3268722392386,269.3268722392386,269.3268722392386,269.3268722392386,269.3268722392386,s,1,0.5305079229874536,269.8768381609116,270.89343148935586,,,,,,,,,,,,,,,,,,,,,,,,,,,,,,,,,,,,,,,,566,2023-05-16_16h01.31.347,eb_02psyexp,2022.2.4,59.89983420457353,
77,0,77,0,,,,,,,,,,,,,,,,,,,,,,,,,,,,,,,,,,,,,,,,,,,,,,,,,,,,,,,,,,,270.89343148935586,270.89343148935586,270.89343148935586,270.89343148935586,270.89343148935586,270.89343148935586,l,1,0.6519531692611054,271.5766946034273,272.6099488735199,,,,,,,,,,,,,,,,,,,,,,,,,,,,,,,,,,,,,,,,566,2023-05-16_16h01.31.347,eb_02psyexp,2022.2.4,59.89983420457353,
78,0,78,0,,,,,,,,,,,,,,,,,,,,,,,,,,,,,,,,,,,,,,,,,,,,,,,,,,,,,,,,,,,272.6099488735199,272.6099488735199,272.6099488735199,272.6099488735199,272.6099488735199,272.6099488735199,l,1,0.8234425148693845,273.4599026006181,274.47648445889354,,,,,,,,,,,,,,,,,,,,,,,,,,,,,,,,,,,,,,,,566,2023-05-16_16h01.31.347,eb_02psyexp,2022.2.4,59.89983420457353,
79,0,79,0,,,,,,,,,,,,,,,,,,,,,,,,,,,,,,,,,,,,,,,,,,,,,,,,,,,,,,,,,,,274.47648445889354,274.47648445889354,274.47648445889354,274.47648445889354,274.47648445889354,274.47648445889354,s,1,0.5888926051557064,275.09308297908865,276.1263348343782,,,,,,,,,,,,,,,,,,,,,,,,,,,,,,,,,,,,,,,,566,2023-05-16_16h01.31.347,eb_02psyexp,2022.2.4,59.89983420457353,
80,0,80,0,,,,,,,,,,,,,,,,,,,,,,,,,,,,,,,,,,,,,,,,,,,,,,,,,,,,,,,,,,,276.1263348343782,276.1263348343782,276.1263348343782,276.1263348343782,276.1263348343782,276.1263348343782,s,1,0.7140816355822608,276.85961639112793,277.8762275284389,,,,,,,,,,,,,,,,,,,,,,,,,,,,,,,,,,,,,,,,566,2023-05-16_16h01.31.347,eb_02psyexp,2022.2.4,59.89983420457353,
81,0,81,0,,,,,,,,,,,,,,,,,,,,,,,,,,,,,,,,,,,,,,,,,,,,,,,,,,,,,,,,,,,277.8762275284389,277.8762275284389,277.8762275284389,277.8762275284389,277.8762275284389,277.8762275284389,l,1,1.0361780823441222,278.94280217261985,279.976050707628,,,,,,,,,,,,,,,,,,,,,,,,,,,,,,,,,,,,,,,,566,2023-05-16_16h01.31.347,eb_02psyexp,2022.2.4,59.89983420457353,
82,0,82,0,,,,,,,,,,,,,,,,,,,,,,,,,,,,,,,,,,,,,,,,,,,,,,,,,,,,,,,,,,,279.976050707628,279.976050707628,279.976050707628,279.976050707628,279.976050707628,279.976050707628,l,1,1.1843870242591947,281.1926305736415,282.20922480756417,,,,,,,,,,,,,,,,,,,,,,,,,,,,,,,,,,,,,,,,566,2023-05-16_16h01.31.347,eb_02psyexp,2022.2.4,59.89983420457353,
83,0,83,0,,,,,,,,,,,,,,,,,,,,,,,,,,,,,,,,,,,,,,,,,,,,,,,,,,,,,,,,,,,282.20922480756417,282.20922480756417,282.20922480756417,282.20922480756417,282.20922480756417,282.20922480756417,l,1,0.6392334183910862,282.8758399593644,283.9090797408717,,,,,,,,,,,,,,,,,,,,,,,,,,,,,,,,,,,,,,,,566,2023-05-16_16h01.31.347,eb_02psyexp,2022.2.4,59.89983420457353,
84,0,84,0,,,,,,,,,,,,,,,,,,,,,,,,,,,,,,,,,,,,,,,,,,,,,,,,,,,,,,,,,,,283.9090797408717,283.9090797408717,283.9090797408717,283.9090797408717,283.9090797408717,283.9090797408717,l,1,0.6113701011054218,284.5424508852884,285.5589615080971,,,,,,,,,,,,,,,,,,,,,,,,,,,,,,,,,,,,,,,,566,2023-05-16_16h01.31.347,eb_02psyexp,2022.2.4,59.89983420457353,
85,0,85,0,,,,,,,,,,,,,,,,,,,,,,,,,,,,,,,,,,,,,,,,,,,,,,,,,,,,,,,,,,,285.5589615080971,285.5589615080971,285.5589615080971,285.5589615080971,285.5589615080971,285.5589615080971,l,1,0.7295119549380615,286.308898875257,287.3255112199113,,,,,,,,,,,,,,,,,,,,,,,,,,,,,,,,,,,,,,,,566,2023-05-16_16h01.31.347,eb_02psyexp,2022.2.4,59.89983420457353,
86,0,86,0,,,,,,,,,,,,,,,,,,,,,,,,,,,,,,,,,,,,,,,,,,,,,,,,,,,,,,,,,,,287.3255112199113,287.3255112199113,287.3255112199113,287.3255112199113,287.3255112199113,287.3255112199113,s,1,1.2429748482536525,288.59205670584925,289.6253230497241,,,,,,,,,,,,,,,,,,,,,,,,,,,,,,,,,,,,,,,,566,2023-05-16_16h01.31.347,eb_02psyexp,2022.2.4,59.89983420457353,
87,0,87,0,,,,,,,,,,,,,,,,,,,,,,,,,,,,,,,,,,,,,,,,,,,,,,,,,,,,,,,,,,,289.6253230497241,289.6253230497241,289.6253230497241,289.6253230497241,289.6253230497241,289.6253230497241,l,1,0.8311721631325781,290.4752444793703,291.4918480705237,,,,,,,,,,,,,,,,,,,,,,,,,,,,,,,,,,,,,,,,566,2023-05-16_16h01.31.347,eb_02psyexp,2022.2.4,59.89983420457353,
88,0,88,0,,,,,,,,,,,,,,,,,,,,,,,,,,,,,,,,,,,,,,,,,,,,,,,,,,,,,,,,,,,291.4918480705237,291.4918480705237,291.4918480705237,291.4918480705237,291.4918480705237,291.4918480705237,l,1,0.6196675199316815,292.1417739072349,293.1750387417851,,,,,,,,,,,,,,,,,,,,,,,,,,,,,,,,,,,,,,,,566,2023-05-16_16h01.31.347,eb_02psyexp,2022.2.4,59.89983420457353,
89,0,89,0,,,,,,,,,,,,,,,,,,,,,,,,,,,,,,,,,,,,,,,,,,,,,,,,,,,,,,,,,,,293.1750387417851,293.1750387417851,293.1750387417851,293.1750387417851,293.1750387417851,293.1750387417851,s,1,0.7844764308538288,293.9916425140109,295.0082352387253,,,,,,,,,,,,,,,,,,,,,,,,,,,,,,,,,,,,,,,,566,2023-05-16_16h01.31.347,eb_02psyexp,2022.2.4,59.89983420457353,
90,0,90,0,,,,,,,,,,,,,,,,,,,,,,,,,,,,,,,,,,,,,,,,,,,,,,,,,,,,,,,,,,,295.0082352387253,295.0082352387253,295.0082352387253,295.0082352387253,295.0082352387253,295.0082352387253,s,1,0.9192626249277964,295.9581546159461,296.9747618291294,,,,,,,,,,,,,,,,,,,,,,,,,,,,,,,,,,,,,,,,566,2023-05-16_16h01.31.347,eb_02psyexp,2022.2.4,59.89983420457353,
91,0,91,0,,,,,,,,,,,,,,,,,,,,,,,,,,,,,,,,,,,,,,,,,,,,,,,,,,,,,,,,,,,296.9747618291294,296.9747618291294,296.9747618291294,296.9747618291294,296.9747618291294,296.9747618291294,l,1,0.8887448821915314,297.8913454381982,298.9079493311001,,,,,,,,,,,,,,,,,,,,,,,,,,,,,,,,,,,,,,,,566,2023-05-16_16h01.31.347,eb_02psyexp,2022.2.4,59.89983420457353,
92,0,92,0,,,,,,,,,,,,,,,,,,,,,,,,,,,,,,,,,,,,,,,,,,,,,,,,,,,,,,,,,,,298.9079493311001,298.9079493311001,298.9079493311001,298.9079493311001,298.9079493311001,298.9079493311001,l,1,1.2995870963204652,300.22448971588165,301.241101758671,,,,,,,,,,,,,,,,,,,,,,,,,,,,,,,,,,,,,,,,566,2023-05-16_16h01.31.347,eb_02psyexp,2022.2.4,59.89983420457353,
93,0,93,0,,,,,,,,,,,,,,,,,,,,,,,,,,,,,,,,,,,,,,,,,,,,,,,,,,,,,,,,,,,301.241101758671,301.241101758671,301.241101758671,301.241101758671,301.241101758671,301.241101758671,l,1,0.7344422921305522,302.00769433239475,303.02429581061006,,,,,,,,,,,,,,,,,,,,,,,,,,,,,,,,,,,,,,,,566,2023-05-16_16h01.31.347,eb_02psyexp,2022.2.4,59.89983420457353,
94,0,94,0,,,,,,,,,,,,,,,,,,,,,,,,,,,,,,,,,,,,,,,,,,,,,,,,,,,,,,,,,,,303.02429581061006,303.02429581061006,303.02429581061006,303.02429581061006,303.02429581061006,303.02429581061006,s,1,0.623258268693462,303.67422858974896,304.69079263915773,,,,,,,,,,,,,,,,,,,,,,,,,,,,,,,,,,,,,,,,566,2023-05-16_16h01.31.347,eb_02psyexp,2022.2.4,59.89983420457353,
95,0,95,0,,,,,,,,,,,,,,,,,,,,,,,,,,,,,,,,,,,,,,,,,,,,,,,,,,,,,,,,,,,304.69079263915773,304.69079263915773,304.69079263915773,304.69079263915773,304.69079263915773,304.69079263915773,l,1,0.7247744968626648,305.44075868150685,306.4573625745252,,,,,,,,,,,,,,,,,,,,,,,,,,,,,,,,,,,,,,,,566,2023-05-16_16h01.31.347,eb_02psyexp,2022.2.4,59.89983420457353,
96,0,96,0,,,,,,,,,,,,,,,,,,,,,,,,,,,,,,,,,,,,,,,,,,,,,,,,,,,,,,,,,,,306.4573625745252,306.4573625745252,306.4573625745252,306.4573625745252,306.4573625745252,306.4573625745252,l,1,1.0852266969159245,307.5739297027467,308.5902178657707,,,,,,,,,,,,,,,,,,,,,,,,,,,,,,,,,,,,,,,,566,2023-05-16_16h01.31.347,eb_02psyexp,2022.2.4,59.89983420457353,
97,0,97,0,,,,,,,,,,,,,,,,,,,,,,,,,,,,,,,,,,,,,,,,,,,,,,,,,,,,,,,,,,,308.5902178657707,308.5902178657707,308.5902178657707,308.5902178657707,308.5902178657707,308.5902178657707,s,1,0.8003821562742814,309.4071243884973,310.42373039445374,,,,,,,,,,,,,,,,,,,,,,,,,,,,,,,,,,,,,,,,566,2023-05-16_16h01.31.347,eb_02psyexp,2022.2.4,59.89983420457353,
98,0,98,0,,,,,,,,,,,,,,,,,,,,,,,,,,,,,,,,,,,,,,,,,,,,,,,,,,,,,,,,,,,310.42373039445374,310.42373039445374,310.42373039445374,310.42373039445374,310.42373039445374,310.42373039445374,l,1,0.926888438523747,311.37365007342305,312.3902427981375,,,,,,,,,,,,,,,,,,,,,,,,,,,,,,,,,,,,,,,,566,2023-05-16_16h01.31.347,eb_02psyexp,2022.2.4,59.89983420457353,
99,0,99,0,,,,,,,,,,,,,,,,,,,,,,,,,,,,,,,,,,,,,,,,,,,,,,,,,,,,,,,,,,,312.3902427981375,312.3902427981375,312.3902427981375,312.3902427981375,312.3902427981375,312.3902427981375,l,1,0.8243655571714044,313.24016392603517,314.25676993187517,,,,,,,,,,,,,,,,,,,,,,,,,,,,,,,,,,,,,,,,566,2023-05-16_16h01.31.347,eb_02psyexp,2022.2.4,59.89983420457353,
100,0,100,0,,,,,,,,,,,,,,,,,,,,,,,,,,,,,,,,,,,,,,,,,,,,,,,,,,,,,,,,,,,314.25676993187517,314.25676993187517,314.25676993187517,314.25676993187517,314.25676993187517,314.25676993187517,l,1,1.821839717682451,316.1066152966814,317.1232122471556,,,,,,,,,,,,,,,,,,,,,,,,,,,,,,,,,,,,,,,,566,2023-05-16_16h01.31.347,eb_02psyexp,2022.2.4,59.89983420457353,
101,0,101,0,,,,,,,,,,,,,,,,,,,,,,,,,,,,,,,,,,,,,,,,,,,,,,,,,,,,,,,,,,,317.1232122471556,317.1232122471556,317.1232122471556,317.1232122471556,317.1232122471556,317.1232122471556,l,1,1.435418277978897,318.5897521188017,319.60635420074686,,,,,,,,,,,,,,,,,,,,,,,,,,,,,,,,,,,,,,,,566,2023-05-16_16h01.31.347,eb_02psyexp,2022.2.4,59.89983420457353,
102,0,102,0,,,,,,,,,,,,,,,,,,,,,,,,,,,,,,,,,,,,,,,,,,,,,,,,,,,,,,,,,,,319.60635420074686,319.60635420074686,319.60635420074686,319.60635420074686,319.60635420074686,319.60635420074686,l,1,1.5443010347662494,321.1728929253295,322.18949259247165,,,,,,,,,,,,,,,,,,,,,,,,,,,,,,,,,,,,,,,,566,2023-05-16_16h01.31.347,eb_02psyexp,2022.2.4,59.89983420457353,
103,0,103,0,,,,,,,,,,,,,,,,,,,,,,,,,,,,,,,,,,,,,,,,,,,,,,,,,,,,,,,,,,,322.18949259247165,322.18949259247165,322.18949259247165,322.18949259247165,322.18949259247165,322.18949259247165,l,1,1.0641805502818897,323.27268622186966,324.2892801539274,,,,,,,,,,,,,,,,,,,,,,,,,,,,,,,,,,,,,,,,566,2023-05-16_16h01.31.347,eb_02psyexp,2022.2.4,59.89983420457353,
104,0,104,0,,,,,,,,,,,,,,,,,,,,,,,,,,,,,,,,,,,,,,,,,,,,,,,,,,,,,,,,,,,324.2892801539274,324.2892801539274,324.2892801539274,324.2892801539274,324.2892801539274,324.2892801539274,l,1,0.7883602712536231,325.10592075122986,326.1391701917164,,,,,,,,,,,,,,,,,,,,,,,,,,,,,,,,,,,,,,,,566,2023-05-16_16h01.31.347,eb_02psyexp,2022.2.4,59.89983420457353,
105,0,105,0,,,,,,,,,,,,,,,,,,,,,,,,,,,,,,,,,,,,,,,,,,,,,,,,,,,,,,,,,,,326.1391701917164,326.1391701917164,326.1391701917164,326.1391701917164,326.1391701917164,326.1391701917164,s,1,0.8505343162687495,327.02244187821634,328.03903913055547,,,,,,,,,,,,,,,,,,,,,,,,,,,,,,,,,,,,,,,,566,2023-05-16_16h01.31.347,eb_02psyexp,2022.2.4,59.89983420457353,
106,0,106,0,,,,,,,,,,,,,,,,,,,,,,,,,,,,,,,,,,,,,,,,,,,,,,,,,,,,,,,,,,,328.03903913055547,328.03903913055547,328.03903913055547,328.03903913055547,328.03903913055547,328.03903913055547,l,1,0.6146740971598774,328.6723124772543,329.7055691620335,,,,,,,,,,,,,,,,,,,,,,,,,,,,,,,,,,,,,,,,566,2023-05-16_16h01.31.347,eb_02psyexp,2022.2.4,59.89983420457353,
107,0,107,0,,,,,,,,,,,,,,,,,,,,,,,,,,,,,,,,,,,,,,,,,,,,,,,,,,,,,,,,,,,329.7055691620335,329.7055691620335,329.7055691620335,329.7055691620335,329.7055691620335,329.7055691620335,s,1,0.756122917169705,330.488835656899,331.50543864432257,,,,,,,,,,,,,,,,,,,,,,,,,,,,,,,,,,,,,,,,566,2023-05-16_16h01.31.347,eb_02psyexp,2022.2.4,59.89983420457353,
108,0,108,0,,,,,,,,,,,,,,,,,,,,,,,,,,,,,,,,,,,,,,,,,,,,,,,,,,,,,,,,,,,331.50543864432257,331.50543864432257,331.50543864432257,331.50543864432257,331.50543864432257,331.50543864432257,l,1,0.5082788454601541,332.0387315504486,333.0553167290054,,,,,,,,,,,,,,,,,,,,,,,,,,,,,,,,,,,,,,,,566,2023-05-16_16h01.31.347,eb_02psyexp,2022.2.4,59.89983420457353,
109,0,109,0,,,,,,,,,,,,,,,,,,,,,,,,,,,,,,,,,,,,,,,,,,,,,,,,,,,,,,,,,,,333.0553167290054,333.0553167290054,333.0553167290054,333.0553167290054,333.0553167290054,333.0553167290054,s,1,0.5824068604269996,333.6552582314471,334.6885149163427,,,,,,,,,,,,,,,,,,,,,,,,,,,,,,,,,,,,,,,,566,2023-05-16_16h01.31.347,eb_02psyexp,2022.2.4,59.89983420457353,
110,0,110,0,,,,,,,,,,,,,,,,,,,,,,,,,,,,,,,,,,,,,,,,,,,,,,,,,,,,,,,,,,,334.6885149163427,334.6885149163427,334.6885149163427,334.6885149163427,334.6885149163427,334.6885149163427,s,1,0.6612098515033722,335.3718000650406,336.3883924878901,,,,,,,,,,,,,,,,,,,,,,,,,,,,,,,,,,,,,,,,566,2023-05-16_16h01.31.347,eb_02psyexp,2022.2.4,59.89983420457353,
111,0,111,0,,,,,,,,,,,,,,,,,,,,,,,,,,,,,,,,,,,,,,,,,,,,,,,,,,,,,,,,,,,336.3883924878901,336.3883924878901,336.3883924878901,336.3883924878901,336.3883924878901,336.3883924878901,l,1,0.6093812440522015,337.02167398435995,338.0549279525876,,,,,,,,,,,,,,,,,,,,,,,,,,,,,,,,,,,,,,,,566,2023-05-16_16h01.31.347,eb_02psyexp,2022.2.4,59.89983420457353,
112,0,112,0,,,,,,,,,,,,,,,,,,,,,,,,,,,,,,,,,,,,,,,,,,,,,,,,,,,,,,,,,,,338.0549279525876,338.0549279525876,338.0549279525876,338.0549279525876,338.0549279525876,338.0549279525876,s,1,0.7818346829153597,338.8548629351426,339.8714577727951,,,,,,,,,,,,,,,,,,,,,,,,,,,,,,,,,,,,,,,,566,2023-05-16_16h01.31.347,eb_02psyexp,2022.2.4,59.89983420457353,
113,0,113,0,,,,,,,,,,,,,,,,,,,,,,,,,,,,,,,,,,,,,,,,,,,,,,,,,,,,,,,,,,,339.8714577727951,339.8714577727951,339.8714577727951,339.8714577727951,339.8714577727951,339.8714577727951,l,1,0.8532910671783611,340.75473036488984,341.78796924080234,,,,,,,,,,,,,,,,,,,,,,,,,,,,,,,,,,,,,,,,566,2023-05-16_16h01.31.347,eb_02psyexp,2022.2.4,59.89983420457353,
114,0,114,0,,,,,,,,,,,,,,,,,,,,,,,,,,,,,,,,,,,,,,,,,,,,,,,,,,,,,,,,,,,341.78796924080234,341.78796924080234,341.78796924080234,341.78796924080234,341.78796924080234,341.78796924080234,s,1,0.944832221721299,342.7545661610784,343.7711347382283,,,,,,,,,,,,,,,,,,,,,,,,,,,,,,,,,,,,,,,,566,2023-05-16_16h01.31.347,eb_02psyexp,2022.2.4,59.89983420457353,
115,0,115,0,,,,,,,,,,,,,,,,,,,,,,,,,,,,,,,,,,,,,,,,,,,,,,,,,,,,,,,,,,,343.7711347382283,343.7711347382283,343.7711347382283,343.7711347382283,343.7711347382283,343.7711347382283,s,1,0.7136662967968732,344.50443470757455,345.53768686472904,,,,,,,,,,,,,,,,,,,,,,,,,,,,,,,,,,,,,,,,566,2023-05-16_16h01.31.347,eb_02psyexp,2022.2.4,59.89983420457353,
116,0,116,0,,,,,,,,,,,,,,,,,,,,,,,,,,,,,,,,,,,,,,,,,,,,,,,,,,,,,,,,,,,345.53768686472904,345.53768686472904,345.53768686472904,345.53768686472904,345.53768686472904,345.53768686472904,s,1,0.8511226123664528,346.42095945682377,347.4375512759434,,,,,,,,,,,,,,,,,,,,,,,,,,,,,,,,,,,,,,,,566,2023-05-16_16h01.31.347,eb_02psyexp,2022.2.4,59.89983420457353,
117,0,117,0,,,,,,,,,,,,,,,,,,,,,,,,,,,,,,,,,,,,,,,,,,,,,,,,,,,,,,,,,,,347.4375512759434,347.4375512759434,347.4375512759434,347.4375512759434,347.4375512759434,347.4375512759434,l,1,0.5832641003653407,348.0374954949366,349.0540912380675,,,,,,,,,,,,,,,,,,,,,,,,,,,,,,,,,,,,,,,,566,2023-05-16_16h01.31.347,eb_02psyexp,2022.2.4,59.89983420457353,
118,0,118,0,,,,,,,,,,,,,,,,,,,,,,,,,,,,,,,,,,,,,,,,,,,,,,,,,,,,,,,,,,,349.0540912380675,349.0540912380675,349.0540912380675,349.0540912380675,349.0540912380675,349.0540912380675,s,1,0.7747361926594749,349.854017467238,350.88729709223844,,,,,,,,,,,,,,,,,,,,,,,,,,,,,,,,,,,,,,,,566,2023-05-16_16h01.31.347,eb_02psyexp,2022.2.4,59.89983420457353,
119,0,119,0,,,,,,,,,,,,,,,,,,,,,,,,,,,,,,,,,,,,,,,,,,,,,,,,,,,,,,,,,,,350.88729709223844,350.88729709223844,350.88729709223844,350.88729709223844,350.88729709223844,350.88729709223844,l,1,0.8935291263042018,351.8038764753146,352.8204710111022,,,,,,,,,,,,,,,,,,,,,,,,,,,,,,,,,,,,,,,,566,2023-05-16_16h01.31.347,eb_02psyexp,2022.2.4,59.89983420457353,
120,0,120,0,,,,,,,,,,,,,,,,,,,,,,,,,,,,,,,,,,,,,,,,,,,,,,,,,,,,,,,,,,,352.8204710111022,352.8204710111022,352.8204710111022,352.8204710111022,352.8204710111022,352.8204710111022,l,1,0.6403568857349455,353.48708012595307,354.50367435987573,,,,,,,,,,,,,,,,,,,,,,,,,,,,,,,,,,,,,,,,566,2023-05-16_16h01.31.347,eb_02psyexp,2022.2.4,59.89983420457353,
121,0,121,0,,,,,,,,,,,,,,,,,,,,,,,,,,,,,,,,,,,,,,,,,,,,,,,,,,,,,,,,,,,354.50367435987573,354.50367435987573,354.50367435987573,354.50367435987573,354.50367435987573,354.50367435987573,s,1,0.6201625458197668,355.1536170998588,356.1868758975761,,,,,,,,,,,,,,,,,,,,,,,,,,,,,,,,,,,,,,,,566,2023-05-16_16h01.31.347,eb_02psyexp,2022.2.4,59.89983420457353,
122,0,122,0,,,,,,,,,,,,,,,,,,,,,,,,,,,,,,,,,,,,,,,,,,,,,,,,,,,,,,,,,,,356.1868758975761,356.1868758975761,356.1868758975761,356.1868758975761,356.1868758975761,356.1868758975761,l,1,0.8569913858082145,357.07014999887906,358.08673759223893,,,,,,,,,,,,,,,,,,,,,,,,,,,,,,,,,,,,,,,,566,2023-05-16_16h01.31.347,eb_02psyexp,2022.2.4,59.89983420457353,
123,0,123,0,,,,,,,,,,,,,,,,,,,,,,,,,,,,,,,,,,,,,,,,,,,,,,,,,,,,,,,,,,,358.08673759223893,358.08673759223893,358.08673759223893,358.08673759223893,358.08673759223893,358.08673759223893,l,1,0.5731130511267111,358.68667969829403,359.71994091081433,,,,,,,,,,,,,,,,,,,,,,,,,,,,,,,,,,,,,,,,566,2023-05-16_16h01.31.347,eb_02psyexp,2022.2.4,59.89983420457353,
124,0,124,0,,,,,,,,,,,,,,,,,,,,,,,,,,,,,,,,,,,,,,,,,,,,,,,,,,,,,,,,,,,359.71994091081433,359.71994091081433,359.71994091081433,359.71994091081433,359.71994091081433,359.71994091081433,s,1,0.7559206810547039,360.5031992557924,361.51980677084066,,,,,,,,,,,,,,,,,,,,,,,,,,,,,,,,,,,,,,,,566,2023-05-16_16h01.31.347,eb_02psyexp,2022.2.4,59.89983420457353,
125,0,125,0,,,,,,,,,,,,,,,,,,,,,,,,,,,,,,,,,,,,,,,,,,,,,,,,,,,,,,,,,,,361.51980677084066,361.51980677084066,361.51980677084066,361.51980677084066,361.51980677084066,361.51980677084066,s,1,0.7960814677644521,362.3363740198547,363.3696533429902,,,,,,,,,,,,,,,,,,,,,,,,,,,,,,,,,,,,,,,,566,2023-05-16_16h01.31.347,eb_02psyexp,2022.2.4,59.89983420457353,
126,0,126,0,,,,,,,,,,,,,,,,,,,,,,,,,,,,,,,,,,,,,,,,,,,,,,,,,,,,,,,,,,,363.3696533429902,363.3696533429902,363.3696533429902,363.3696533429902,363.3696533429902,363.3696533429902,l,1,0.5862264076713473,363.9862751052715,365.0028699428076,,,,,,,,,,,,,,,,,,,,,,,,,,,,,,,,,,,,,,,,566,2023-05-16_16h01.31.347,eb_02psyexp,2022.2.4,59.89983420457353,
127,0,127,0,,,,,,,,,,,,,,,,,,,,,,,,,,,,,,,,,,,,,,,,,,,,,,,,,,,,,,,,,,,365.0028699428076,365.0028699428076,365.0028699428076,365.0028699428076,365.0028699428076,365.0028699428076,s,1,0.577051525353454,365.60281929327175,366.6360666208202,,,,,,,,,,,,,,,,,,,,,,,,,,,,,,,,,,,,,,,,566,2023-05-16_16h01.31.347,eb_02psyexp,2022.2.4,59.89983420457353,
128,0,128,0,,,,,,,,,,,,,,,,,,,,,,,,,,,,,,,,,,,,,,,,,,,,,,,,,,,,,,,,,,,366.6360666208202,366.6360666208202,366.6360666208202,366.6360666208202,366.6360666208202,366.6360666208202,s,1,0.5038335734279826,367.1693399071228,368.1859528553905,,,,,,,,,,,,,,,,,,,,,,,,,,,,,,,,,,,,,,,,566,2023-05-16_16h01.31.347,eb_02psyexp,2022.2.4,59.89983420457353,
129,0,129,0,,,,,,,,,,,,,,,,,,,,,,,,,,,,,,,,,,,,,,,,,,,,,,,,,,,,,,,,,,,368.1859528553905,368.1859528553905,368.1859528553905,368.1859528553905,368.1859528553905,368.1859528553905,s,1,0.4499934703344479,368.6525823750999,369.68583996535745,,,,,,,,,,,,,,,,,,,,,,,,,,,,,,,,,,,,,,,,566,2023-05-16_16h01.31.347,eb_02psyexp,2022.2.4,59.89983420457353,
130,0,130,0,,,,,,,,,,,,,,,,,,,,,,,,,,,,,,,,,,,,,,,,,,,,,,,,,,,,,,,,,,,369.68583996535745,369.68583996535745,369.68583996535745,369.68583996535745,369.68583996535745,369.68583996535745,l,1,0.42910217016469687,370.13575481495354,371.1524172658101,,,,,,,,,,,,,,,,,,,,,,,,,,,,,,,,,,,,,,,,566,2023-05-16_16h01.31.347,eb_02psyexp,2022.2.4,59.89983420457353,
131,0,131,0,,,,,,,,,,,,,,,,,,,,,,,,,,,,,,,,,,,,,,,,,,,,,,,,,,,,,,,,,,,371.1524172658101,371.1524172658101,371.1524172658101,371.1524172658101,371.1524172658101,371.1524172658101,l,1,0.5465220106998459,371.71901696315035,372.75227606273256,,,,,,,,,,,,,,,,,,,,,,,,,,,,,,,,,,,,,,,,566,2023-05-16_16h01.31.347,eb_02psyexp,2022.2.4,59.89983420457353,
132,0,132,0,,,,,,,,,,,,,,,,,,,,,,,,,,,,,,,,,,,,,,,,,,,,,,,,,,,,,,,,,,,372.75227606273256,372.75227606273256,372.75227606273256,372.75227606273256,372.75227606273256,372.75227606273256,l,1,0.7466872405493632,373.51887588074896,374.5354824903188,,,,,,,,,,,,,,,,,,,,,,,,,,,,,,,,,,,,,,,,566,2023-05-16_16h01.31.347,eb_02psyexp,2022.2.4,59.89983420457353,
133,0,133,0,,,,,,,,,,,,,,,,,,,,,,,,,,,,,,,,,,,,,,,,,,,,,,,,,,,,,,,,,,,374.5354824903188,374.5354824903188,374.5354824903188,374.5354824903188,374.5354824903188,374.5354824903188,l,1,0.8354933770606294,375.4020633525215,376.4353248667903,,,,,,,,,,,,,,,,,,,,,,,,,,,,,,,,,,,,,,,,566,2023-05-16_16h01.31.347,eb_02psyexp,2022.2.4,59.89983420457353,
134,0,134,0,,,,,,,,,,,,,,,,,,,,,,,,,,,,,,,,,,,,,,,,,,,,,,,,,,,,,,,,,,,376.4353248667903,376.4353248667903,376.4353248667903,376.4353248667903,376.4353248667903,376.4353248667903,s,1,0.8156624585390091,377.26859018439427,378.2851940772962,,,,,,,,,,,,,,,,,,,,,,,,,,,,,,,,,,,,,,,,566,2023-05-16_16h01.31.347,eb_02psyexp,2022.2.4,59.89983420457353,
135,0,135,0,,,,,,,,,,,,,,,,,,,,,,,,,,,,,,,,,,,,,,,,,,,,,,,,,,,,,,,,,,,378.2851940772962,378.2851940772962,378.2851940772962,378.2851940772962,378.2851940772962,378.2851940772962,s,1,0.6617915069218725,378.96844028809574,379.9850580659695,,,,,,,,,,,,,,,,,,,,,,,,,,,,,,,,,,,,,,,,566,2023-05-16_16h01.31.347,eb_02psyexp,2022.2.4,59.89983420457353,
136,0,136,0,,,,,,,,,,,,,,,,,,,,,,,,,,,,,,,,,,,,,,,,,,,,,,,,,,,,,,,,,,,379.9850580659695,379.9850580659695,379.9850580659695,379.9850580659695,379.9850580659695,379.9850580659695,l,1,0.873935156268999,380.8849915997125,381.90157889109105,,,,,,,,,,,,,,,,,,,,,,,,,,,,,,,,,,,,,,,,566,2023-05-16_16h01.31.347,eb_02psyexp,2022.2.4,59.89983420457353,
137,0,137,0,,,,,,,,,,,,,,,,,,,,,,,,,,,,,,,,,,,,,,,,,,,,,,,,,,,,,,,,,,,381.90157889109105,381.90157889109105,381.90157889109105,381.90157889109105,381.90157889109105,381.90157889109105,s,1,0.6774497193982825,382.60151109669823,383.63476144277956,,,,,,,,,,,,,,,,,,,,,,,,,,,,,,,,,,,,,,,,566,2023-05-16_16h01.31.347,eb_02psyexp,2022.2.4,59.89983420457353,
138,0,138,0,,,,,,,,,,,,,,,,,,,,,,,,,,,,,,,,,,,,,,,,,,,,,,,,,,,,,,,,,,,383.63476144277956,383.63476144277956,383.63476144277956,383.63476144277956,383.63476144277956,383.63476144277956,l,1,0.8402374758152291,384.501370678423,385.5179703455651,,,,,,,,,,,,,,,,,,,,,,,,,,,,,,,,,,,,,,,,566,2023-05-16_16h01.31.347,eb_02psyexp,2022.2.4,59.89983420457353,
139,0,139,0,,,,,,,,,,,,,,,,,,,,,,,,,,,,,,,,,,,,,,,,,,,,,,,,,,,,,,,,,,,385.5179703455651,385.5179703455651,385.5179703455651,385.5179703455651,385.5179703455651,385.5179703455651,s,1,0.5800482431659475,386.11791365907993,387.15116611798294,,,,,,,,,,,,,,,,,,,,,,,,,,,,,,,,,,,,,,,,566,2023-05-16_16h01.31.347,eb_02psyexp,2022.2.4,59.89983420457353,
140,0,140,0,,,,,,,,,,,,,,,,,,,,,,,,,,,,,,,,,,,,,,,,,,,,,,,,,,,,,,,,,,,387.15116611798294,387.15116611798294,387.15116611798294,387.15116611798294,387.15116611798294,387.15116611798294,l,1,0.986851770314388,388.1677491837181,389.1843515674118,,,,,,,,,,,,,,,,,,,,,,,,,,,,,,,,,,,,,,,,566,2023-05-16_16h01.31.347,eb_02psyexp,2022.2.4,59.89983420457353,
141,0,141,0,,,,,,,,,,,,,,,,,,,,,,,,,,,,,,,,,,,,,,,,,,,,,,,,,,,,,,,,,,,389.1843515674118,389.1843515674118,389.1843515674118,389.1843515674118,389.1843515674118,389.1843515674118,s,1,0.6977119744988158,389.9009570903145,390.93420562532265,,,,,,,,,,,,,,,,,,,,,,,,,,,,,,,,,,,,,,,,566,2023-05-16_16h01.31.347,eb_02psyexp,2022.2.4,59.89983420457353,
142,0,142,0,,,,,,,,,,,,,,,,,,,,,,,,,,,,,,,,,,,,,,,,,,,,,,,,,,,,,,,,,,,390.93420562532265,390.93420562532265,390.93420562532265,390.93420562532265,390.93420562532265,390.93420562532265,s,1,1.0038362899795175,391.96747468574904,392.9840767676942,,,,,,,,,,,,,,,,,,,,,,,,,,,,,,,,,,,,,,,,566,2023-05-16_16h01.31.347,eb_02psyexp,2022.2.4,59.89983420457353,
143,0,143,0,,,,,,,,,,,,,,,,,,,,,,,,,,,,,,,,,,,,,,,,,,,,,,,,,,,,,,,,,,,392.9840767676942,392.9840767676942,392.9840767676942,392.9840767676942,392.9840767676942,392.9840767676942,l,1,0.6579900702927262,393.6673338449327,394.7005799651379,,,,,,,,,,,,,,,,,,,,,,,,,,,,,,,,,,,,,,,,566,2023-05-16_16h01.31.347,eb_02psyexp,2022.2.4,59.89983420457353,
144,0,144,0,,,,,,,,,,,,,,,,,,,,,,,,,,,,,,,,,,,,,,,,,,,,,,,,,,,,,,,,,,,394.7005799651379,394.7005799651379,394.7005799651379,394.7005799651379,394.7005799651379,394.7005799651379,l,1,0.6615171298617497,395.38387145265006,396.4004831935745,,,,,,,,,,,,,,,,,,,,,,,,,,,,,,,,,,,,,,,,566,2023-05-16_16h01.31.347,eb_02psyexp,2022.2.4,59.89983420457353,
145,0,145,0,,,,,,,,,,,,,,,,,,,,,,,,,,,,,,,,,,,,,,,,,,,,,,,,,,,,,,,,,,,396.4004831935745,396.4004831935745,396.4004831935745,396.4004831935745,396.4004831935745,396.4004831935745,l,1,0.6256232247687876,397.0504081246909,398.0836629985133,,,,,,,,,,,,,,,,,,,,,,,,,,,,,,,,,,,,,,,,566,2023-05-16_16h01.31.347,eb_02psyexp,2022.2.4,59.89983420457353,
146,0,146,0,,,,,,,,,,,,,,,,,,,,,,,,,,,,,,,,,,,,,,,,,,,,,,,,,,,,,,,,,,,398.0836629985133,398.0836629985133,398.0836629985133,398.0836629985133,398.0836629985133,398.0836629985133,l,1,0.5024299938231707,398.616954697296,399.63356764556374,,,,,,,,,,,,,,,,,,,,,,,,,,,,,,,,,,,,,,,,566,2023-05-16_16h01.31.347,eb_02psyexp,2022.2.4,59.89983420457353,
147,0,147,0,,,,,,,,,,,,,,,,,,,,,,,,,,,,,,,,,,,,,,,,,,,,,,,,,,,,,,,,,,,399.63356764556374,399.63356764556374,399.63356764556374,399.63356764556374,399.63356764556374,399.63356764556374,l,1,0.8715647669741884,400.5334903128678,401.5667334146565,,,,,,,,,,,,,,,,,,,,,,,,,,,,,,,,,,,,,,,,566,2023-05-16_16h01.31.347,eb_02psyexp,2022.2.4,59.89983420457353,
148,0,148,0,,,,,,,,,,,,,,,,,,,,,,,,,,,,,,,,,,,,,,,,,,,,,,,,,,,,,,,,,,,401.5667334146565,401.5667334146565,401.5667334146565,401.5667334146565,401.5667334146565,401.5667334146565,s,1,1.1543643075274304,402.74997177754994,403.76659015903715,,,,,,,,,,,,,,,,,,,,,,,,,,,,,,,,,,,,,,,,566,2023-05-16_16h01.31.347,eb_02psyexp,2022.2.4,59.89983420457353,
149,0,149,0,,,,,,,,,,,,,,,,,,,,,,,,,,,,,,,,,,,,,,,,,,,,,,,,,,,,,,,,,,,403.76659015903715,403.76659015903715,403.76659015903715,403.76659015903715,403.76659015903715,403.76659015903715,l,1,0.6985523111652583,404.483176062,405.5164282191545,,,,,,,,,,,,,,,,,,,,,,,,,,,,,,,,,,,,,,,,566,2023-05-16_16h01.31.347,eb_02psyexp,2022.2.4,59.89983420457353,
150,0,150,0,,,,,,,,,,,,,,,,,,,,,,,,,,,,,,,,,,,,,,,,,,,,,,,,,,,,,,,,,,,405.5164282191545,405.5164282191545,405.5164282191545,405.5164282191545,405.5164282191545,405.5164282191545,s,1,0.5166988134151325,406.0497153903125,407.0663189814659,,,,,,,,,,,,,,,,,,,,,,,,,,,,,,,,,,,,,,,,566,2023-05-16_16h01.31.347,eb_02psyexp,2022.2.4,59.89983420457353,
151,0,151,0,,,,,,,,,,,,,,,,,,,,,,,,,,,,,,,,,,,,,,,,,,,,,,,,,,,,,,,,,,,407.0663189814659,407.0663189814659,407.0663189814659,407.0663189814659,407.0663189814659,407.0663189814659,s,1,1.3908300278708339,408.4828672745498,409.51612456305884,,,,,,,,,,,,,,,,,,,,,,,,,,,,,,,,,,,,,,,,566,2023-05-16_16h01.31.347,eb_02psyexp,2022.2.4,59.89983420457353,
152,0,152,0,,,,,,,,,,,,,,,,,,,,,,,,,,,,,,,,,,,,,,,,,,,,,,,,,,,,,,,,,,,409.51612456305884,409.51612456305884,409.51612456305884,409.51612456305884,409.51612456305884,409.51612456305884,s,1,0.8130149755161256,410.34938293811865,411.3659491004655,,,,,,,,,,,,,,,,,,,,,,,,,,,,,,,,,,,,,,,,566,2023-05-16_16h01.31.347,eb_02psyexp,2022.2.4,59.89983420457353,
153,0,153,0,,,,,,,,,,,,,,,,,,,,,,,,,,,,,,,,,,,,,,,,,,,,,,,,,,,,,,,,,,,411.3659491004655,411.3659491004655,411.3659491004655,411.3659491004655,411.3659491004655,411.3659491004655,l,1,0.675229347194545,412.06593382707797,413.0991793436697,,,,,,,,,,,,,,,,,,,,,,,,,,,,,,,,,,,,,,,,566,2023-05-16_16h01.31.347,eb_02psyexp,2022.2.4,59.89983420457353,
154,0,154,0,,,,,,,,,,,,,,,,,,,,,,,,,,,,,,,,,,,,,,,,,,,,,,,,,,,,,,,,,,,413.0991793436697,413.0991793436697,413.0991793436697,413.0991793436697,413.0991793436697,413.0991793436697,s,1,0.8059828912373632,413.93244405754376,414.94905519485474,,,,,,,,,,,,,,,,,,,,,,,,,,,,,,,,,,,,,,,,566,2023-05-16_16h01.31.347,eb_02psyexp,2022.2.4,59.89983420457353,
155,0,155,0,,,,,,,,,,,,,,,,,,,,,,,,,,,,,,,,,,,,,,,,,,,,,,,,,,,,,,,,,,,414.94905519485474,414.94905519485474,414.94905519485474,414.94905519485474,414.94905519485474,414.94905519485474,l,1,1.4751745923422277,416.44892177928705,417.48217967152596,,,,,,,,,,,,,,,,,,,,,,,,,,,,,,,,,,,,,,,,566,2023-05-16_16h01.31.347,eb_02psyexp,2022.2.4,59.89983420457353,
156,0,156,0,,,,,,,,,,,,,,,,,,,,,,,,,,,,,,,,,,,,,,,,,,,,,,,,,,,,,,,,,,,417.48217967152596,417.48217967152596,417.48217967152596,417.48217967152596,417.48217967152596,417.48217967152596,l,1,0.9980490145971999,418.4987648500828,419.51504576881416,,,,,,,,,,,,,,,,,,,,,,,,,,,,,,,,,,,,,,,,566,2023-05-16_16h01.31.347,eb_02psyexp,2022.2.4,59.89983420457353,
157,0,157,0,,,,,,,,,,,,,,,,,,,,,,,,,,,,,,,,,,,,,,,,,,,,,,,,,,,,,,,,,,,419.51504576881416,419.51504576881416,419.51504576881416,419.51504576881416,419.51504576881416,419.51504576881416,l,1,0.7651595545466989,420.2986258806195,421.3318689824082,,,,,,,,,,,,,,,,,,,,,,,,,,,,,,,,,,,,,,,,566,2023-05-16_16h01.31.347,eb_02psyexp,2022.2.4,59.89983420457353,
158,0,158,0,,,,,,,,,,,,,,,,,,,,,,,,,,,,,,,,,,,,,,,,,,,,,,,,,,,,,,,,,,,421.3318689824082,421.3318689824082,421.3318689824082,421.3318689824082,421.3318689824082,421.3318689824082,s,1,0.7003760589286685,422.06516231119167,423.08176710968837,,,,,,,,,,,,,,,,,,,,,,,,,,,,,,,,,,,,,,,,566,2023-05-16_16h01.31.347,eb_02psyexp,2022.2.4,59.89983420457353,
159,0,159,0,,,,,,,,,,,,,,,,,,,,,,,,,,,,,,,,,,,,,,,,,,,,,,,,,,,,,,,,,,,423.08176710968837,423.08176710968837,423.08176710968837,423.08176710968837,423.08176710968837,423.08176710968837,s,1,0.7984693640610203,423.8983503563795,424.9149572678143,,,,,,,,,,,,,,,,,,,,,,,,,,,,,,,,,,,,,,,,566,2023-05-16_16h01.31.347,eb_02psyexp,2022.2.4,59.89983420457353,
160,0,160,0,,,,,,,,,,,,,,,,,,,,,,,,,,,,,,,,,,,,,,,,,,,,,,,,,,,,,,,,,,,424.9149572678143,424.9149572678143,424.9149572678143,424.9149572678143,424.9149572678143,424.9149572678143,l,1,0.7973063550889492,425.73154474038165,426.74814501125365,,,,,,,,,,,,,,,,,,,,,,,,,,,,,,,,,,,,,,,,566,2023-05-16_16h01.31.347,eb_02psyexp,2022.2.4,59.89983420457353,
161,0,161,0,,,,,,,,,,,,,,,,,,,,,,,,,,,,,,,,,,,,,,,,,,,,,,,,,,,,,,,,,,,426.74814501125365,426.74814501125365,426.74814501125365,426.74814501125365,426.74814501125365,426.74814501125365,s,1,0.724077234743163,427.4980820765486,428.51468295103405,,,,,,,,,,,,,,,,,,,,,,,,,,,,,,,,,,,,,,,,566,2023-05-16_16h01.31.347,eb_02psyexp,2022.2.4,59.89983420457353,
162,0,162,0,,,,,,,,,,,,,,,,,,,,,,,,,,,,,,,,,,,,,,,,,,,,,,,,,,,,,,,,,,,428.51468295103405,428.51468295103405,428.51468295103405,428.51468295103405,428.51468295103405,428.51468295103405,l,1,0.46159880911000073,428.99796345143113,430.01456160936505,,,,,,,,,,,,,,,,,,,,,,,,,,,,,,,,,,,,,,,,566,2023-05-16_16h01.31.347,eb_02psyexp,2022.2.4,59.89983420457353,
163,0,163,0,,,,,,,,,,,,,,,,,,,,,,,,,,,,,,,,,,,,,,,,,,,,,,,,,,,,,,,,,,,430.01456160936505,430.01456160936505,430.01456160936505,430.01456160936505,430.01456160936505,430.01456160936505,s,1,0.4737127567641437,430.5144716594368,431.5311108683236,,,,,,,,,,,,,,,,,,,,,,,,,,,,,,,,,,,,,,,,566,2023-05-16_16h01.31.347,eb_02psyexp,2022.2.4,59.89983420457353,
164,0,164,0,,,,,,,,,,,,,,,,,,,,,,,,,,,,,,,,,,,,,,,,,,,,,,,,,,,,,,,,,,,431.5311108683236,431.5311108683236,431.5311108683236,431.5311108683236,431.5311108683236,431.5311108683236,l,1,0.8921759549994022,432.44769930676557,433.46398626244627,,,,,,,,,,,,,,,,,,,,,,,,,,,,,,,,,,,,,,,,566,2023-05-16_16h01.31.347,eb_02psyexp,2022.2.4,59.89983420457353,
165,0,165,0,,,,,,,,,,,,,,,,,,,,,,,,,,,,,,,,,,,,,,,,,,,,,,,,,,,,,,,,,,,433.46398626244627,433.46398626244627,433.46398626244627,433.46398626244627,433.46398626244627,433.46398626244627,s,1,0.5593226558994502,434.0475789309712,435.06384053162765,,,,,,,,,,,,,,,,,,,,,,,,,,,,,,,,,,,,,,,,566,2023-05-16_16h01.31.347,eb_02psyexp,2022.2.4,59.89983420457353,
166,0,166,0,,,,,,,,,,,,,,,,,,,,,,,,,,,,,,,,,,,,,,,,,,,,,,,,,,,,,,,,,,,435.06384053162765,435.06384053162765,435.06384053162765,435.06384053162765,435.06384053162765,435.06384053162765,s,1,0.7034277124330401,435.7974480811972,436.81404533353634,,,,,,,,,,,,,,,,,,,,,,,,,,,,,,,,,,,,,,,,566,2023-05-16_16h01.31.347,eb_02psyexp,2022.2.4,59.89983420457353,
167,0,167,0,,,,,,,,,,,,,,,,,,,,,,,,,,,,,,,,,,,,,,,,,,,,,,,,,,,,,,,,,,,436.81404533353634,436.81404533353634,436.81404533353634,436.81404533353634,436.81404533353634,436.81404533353634,s,1,0.7612950323382393,437.5973248076625,438.63056187250186,,,,,,,,,,,,,,,,,,,,,,,,,,,,,,,,,,,,,,,,566,2023-05-16_16h01.31.347,eb_02psyexp,2022.2.4,59.89983420457353,
168,0,168,0,,,,,,,,,,,,,,,,,,,,,,,,,,,,,,,,,,,,,,,,,,,,,,,,,,,,,,,,,,,438.63056187250186,438.63056187250186,438.63056187250186,438.63056187250186,438.63056187250186,438.63056187250186,s,1,0.5687854985008016,439.23051393951755,440.24711451213807,,,,,,,,,,,,,,,,,,,,,,,,,,,,,,,,,,,,,,,,566,2023-05-16_16h01.31.347,eb_02psyexp,2022.2.4,59.89983420457353,
169,0,169,0,,,,,,,,,,,,,,,,,,,,,,,,,,,,,,,,,,,,,,,,,,,,,,,,,,,,,,,,,,,440.24711451213807,440.24711451213807,440.24711451213807,440.24711451213807,440.24711451213807,440.24711451213807,l,1,0.6162376544671133,440.8803842366906,441.913647562149,,,,,,,,,,,,,,,,,,,,,,,,,,,,,,,,,,,,,,,,566,2023-05-16_16h01.31.347,eb_02psyexp,2022.2.4,59.89983420457353,
170,0,170,0,,,,,,,,,,,,,,,,,,,,,,,,,,,,,,,,,,,,,,,,,,,,,,,,,,,,,,,,,,,441.913647562149,441.913647562149,441.913647562149,441.913647562149,441.913647562149,441.913647562149,l,1,0.6137106076348573,442.54692936036736,443.56352963123936,,,,,,,,,,,,,,,,,,,,,,,,,,,,,,,,,,,,,,,,566,2023-05-16_16h01.31.347,eb_02psyexp,2022.2.4,59.89983420457353,
171,0,171,0,,,,,,,,,,,,,,,,,,,,,,,,,,,,,,,,,,,,,,,,,,,,,,,,,,,,,,,,,,,443.56352963123936,443.56352963123936,443.56352963123936,443.56352963123936,443.56352963123936,443.56352963123936,s,1,0.6918262976687402,444.2801267025061,445.31339968694374,,,,,,,,,,,,,,,,,,,,,,,,,,,,,,,,,,,,,,,,566,2023-05-16_16h01.31.347,eb_02psyexp,2022.2.4,59.89983420457353,
172,0,172,0,,,,,,,,,,,,,,,,,,,,,,,,,,,,,,,,,,,,,,,,,,,,,,,,,,,,,,,,,,,445.31339968694374,445.31339968694374,445.31339968694374,445.31339968694374,445.31339968694374,445.31339968694374,s,1,0.765977856470272,446.09665591898374,447.1132604156155,,,,,,,,,,,,,,,,,,,,,,,,,,,,,,,,,,,,,,,,566,2023-05-16_16h01.31.347,eb_02psyexp,2022.2.4,59.89983420457353,
173,0,173,0,,,,,,,,,,,,,,,,,,,,,,,,,,,,,,,,,,,,,,,,,,,,,,,,,,,,,,,,,,,447.1132604156155,447.1132604156155,447.1132604156155,447.1132604156155,447.1132604156155,447.1132604156155,l,1,0.6211320720613003,447.7631536530098,448.79645259620156,,,,,,,,,,,,,,,,,,,,,,,,,,,,,,,,,,,,,,,,566,2023-05-16_16h01.31.347,eb_02psyexp,2022.2.4,59.89983420457353,
174,0,174,0,,,,,,,,,,,,,,,,,,,,,,,,,,,,,,,,,,,,,,,,,,,,,,,,,,,,,,,,,,,448.79645259620156,448.79645259620156,448.79645259620156,448.79645259620156,448.79645259620156,448.79645259620156,s,1,1.4419474884634838,450.26300695631653,451.27960964187514,,,,,,,,,,,,,,,,,,,,,,,,,,,,,,,,,,,,,,,,566,2023-05-16_16h01.31.347,eb_02psyexp,2022.2.4,59.89983420457353,
175,0,175,0,,,,,,,,,,,,,,,,,,,,,,,,,,,,,,,,,,,,,,,,,,,,,,,,,,,,,,,,,,,451.27960964187514,451.27960964187514,451.27960964187514,451.27960964187514,451.27960964187514,451.27960964187514,l,1,1.1507808029418811,452.46284166595433,453.4960944268387,,,,,,,,,,,,,,,,,,,,,,,,,,,,,,,,,,,,,,,,566,2023-05-16_16h01.31.347,eb_02psyexp,2022.2.4,59.89983420457353,
176,0,176,0,,,,,,,,,,,,,,,,,,,,,,,,,,,,,,,,,,,,,,,,,,,,,,,,,,,,,,,,,,,453.4960944268387,453.4960944268387,453.4960944268387,453.4960944268387,453.4960944268387,453.4960944268387,l,1,0.502318914863281,454.02940484008286,455.0459897167748,,,,,,,,,,,,,,,,,,,,,,,,,,,,,,,,,,,,,,,,566,2023-05-16_16h01.31.347,eb_02psyexp,2022.2.4,59.89983420457353,
177,0,177,0,,,,,,,,,,,,,,,,,,,,,,,,,,,,,,,,,,,,,,,,,,,,,,,,,,,,,,,,,,,455.0459897167748,455.0459897167748,455.0459897167748,455.0459897167748,455.0459897167748,455.0459897167748,l,1,0.6084352616453543,455.67925461172126,456.71251340943854,,,,,,,,,,,,,,,,,,,,,,,,,,,,,,,,,,,,,,,,566,2023-05-16_16h01.31.347,eb_02psyexp,2022.2.4,59.89983420457353,
178,0,178,0,,,,,,,,,,,,,,,,,,,,,,,,,,,,,,,,,,,,,,,,,,,,,,,,,,,,,,,,,,,456.71251340943854,456.71251340943854,456.71251340943854,456.71251340943854,456.71251340943854,456.71251340943854,l,1,0.5739567080745474,457.31246125069447,458.3290452217916,,,,,,,,,,,,,,,,,,,,,,,,,,,,,,,,,,,,,,,,566,2023-05-16_16h01.31.347,eb_02psyexp,2022.2.4,59.89983420457353,
179,0,179,0,,,,,,,,,,,,,,,,,,,,,,,,,,,,,,,,,,,,,,,,,,,,,,,,,,,,,,,,,,,458.3290452217916,458.3290452217916,458.3290452217916,458.3290452217916,458.3290452217916,458.3290452217916,l,1,0.5974043339956552,458.9456736246357,459.97894238319714,,,,,,,,,,,,,,,,,,,,,,,,,,,,,,,,,,,,,,,,566,2023-05-16_16h01.31.347,eb_02psyexp,2022.2.4,59.89983420457353,
180,0,180,0,,,,,,,,,,,,,,,,,,,,,,,,,,,,,,,,,,,,,,,,,,,,,,,,,,,,,,,,,,,459.97894238319714,459.97894238319714,459.97894238319714,459.97894238319714,459.97894238319714,459.97894238319714,s,1,0.7235025217523798,460.72887582634576,461.7454697585199,,,,,,,,,,,,,,,,,,,,,,,,,,,,,,,,,,,,,,,,566,2023-05-16_16h01.31.347,eb_02psyexp,2022.2.4,59.89983420457353,
181,0,181,0,,,,,,,,,,,,,,,,,,,,,,,,,,,,,,,,,,,,,,,,,,,,,,,,,,,,,,,,,,,461.7454697585199,461.7454697585199,461.7454697585199,461.7454697585199,461.7454697585199,461.7454697585199,s,1,0.7249543964862823,462.4954077292932,463.5286607919261,,,,,,,,,,,,,,,,,,,,,,,,,,,,,,,,,,,,,,,,566,2023-05-16_16h01.31.347,eb_02psyexp,2022.2.4,59.89983420457353,
182,0,182,0,,,,,,,,,,,,,,,,,,,,,,,,,,,,,,,,,,,,,,,,,,,,,,,,,,,,,,,,,,,463.5286607919261,463.5286607919261,463.5286607919261,463.5286607919261,463.5286607919261,463.5286607919261,s,1,1.2448176123434678,464.795230425545,465.81178602331784,,,,,,,,,,,,,,,,,,,,,,,,,,,,,,,,,,,,,,,,566,2023-05-16_16h01.31.347,eb_02psyexp,2022.2.4,59.89983420457353,
183,0,183,0,,,,,,,,,,,,,,,,,,,,,,,,,,,,,,,,,,,,,,,,,,,,,,,,,,,,,,,,,,,465.81178602331784,465.81178602331784,465.81178602331784,465.81178602331784,465.81178602331784,465.81178602331784,l,1,0.8896796962944791,466.7284161163261,467.76167099014856,,,,,,,,,,,,,,,,,,,,,,,,,,,,,,,,,,,,,,,,566,2023-05-16_16h01.31.347,eb_02psyexp,2022.2.4,59.89983420457353,
184,0,184,0,,,,,,,,,,,,,,,,,,,,,,,,,,,,,,,,,,,,,,,,,,,,,,,,,,,,,,,,,,,467.76167099014856,467.76167099014856,467.76167099014856,467.76167099014856,467.76167099014856,467.76167099014856,s,1,1.1557823756011203,468.9449184082914,469.9615223011933,,,,,,,,,,,,,,,,,,,,,,,,,,,,,,,,,,,,,,,,566,2023-05-16_16h01.31.347,eb_02psyexp,2022.2.4,59.89983420457353,
185,0,185,0,,,,,,,,,,,,,,,,,,,,,,,,,,,,,,,,,,,,,,,,,,,,,,,,,,,,,,,,,,,469.9615223011933,469.9615223011933,469.9615223011933,469.9615223011933,469.9615223011933,469.9615223011933,l,1,0.7079952318454161,470.6947751827538,471.7113763591042,,,,,,,,,,,,,,,,,,,,,,,,,,,,,,,,,,,,,,,,566,2023-05-16_16h01.31.347,eb_02psyexp,2022.2.4,59.89983420457353,
186,0,186,0,,,,,,,,,,,,,,,,,,,,,,,,,,,,,,,,,,,,,,,,,,,,,,,,,,,,,,,,,,,471.7113763591042,471.7113763591042,471.7113763591042,471.7113763591042,471.7113763591042,471.7113763591042,s,1,0.6141416423488408,472.3446506113978,473.37793144374155,,,,,,,,,,,,,,,,,,,,,,,,,,,,,,,,,,,,,,,,566,2023-05-16_16h01.31.347,eb_02psyexp,2022.2.4,59.89983420457353,
187,0,187,0,,,,,,,,,,,,,,,,,,,,,,,,,,,,,,,,,,,,,,,,,,,,,,,,,,,,,,,,,,,473.37793144374155,473.37793144374155,473.37793144374155,473.37793144374155,473.37793144374155,473.37793144374155,s,1,0.6595883399713784,474.0611867099069,475.07774925010744,,,,,,,,,,,,,,,,,,,,,,,,,,,,,,,,,,,,,,,,566,2023-05-16_16h01.31.347,eb_02psyexp,2022.2.4,59.89983420457353,
188,0,188,0,,,,,,,,,,,,,,,,,,,,,,,,,,,,,,,,,,,,,,,,,,,,,,,,,,,,,,,,,,,475.07774925010744,475.07774925010744,475.07774925010744,475.07774925010744,475.07774925010744,475.07774925010744,s,1,0.6237795552005991,475.72772821143735,476.76099938480183,,,,,,,,,,,,,,,,,,,,,,,,,,,,,,,,,,,,,,,,566,2023-05-16_16h01.31.347,eb_02psyexp,2022.2.4,59.89983420457353,
189,0,189,0,,,,,,,,,,,,,,,,,,,,,,,,,,,,,,,,,,,,,,,,,,,,,,,,,,,,,,,,,,,476.76099938480183,476.76099938480183,476.76099938480183,476.76099938480183,476.76099938480183,476.76099938480183,l,1,0.7645380556350574,477.54425139108207,478.56085588771384,,,,,,,,,,,,,,,,,,,,,,,,,,,,,,,,,,,,,,,,566,2023-05-16_16h01.31.347,eb_02psyexp,2022.2.4,59.89983420457353,
190,0,190,0,,,,,,,,,,,,,,,,,,,,,,,,,,,,,,,,,,,,,,,,,,,,,,,,,,,,,,,,,,,478.56085588771384,478.56085588771384,478.56085588771384,478.56085588771384,478.56085588771384,478.56085588771384,l,1,0.7237056634621695,479.3107854068512,480.32705908140633,,,,,,,,,,,,,,,,,,,,,,,,,,,,,,,,,,,,,,,,566,2023-05-16_16h01.31.347,eb_02psyexp,2022.2.4,59.89983420457353,
191,0,191,0,,,,,,,,,,,,,,,,,,,,,,,,,,,,,,,,,,,,,,,,,,,,,,,,,,,,,,,,,,,480.32705908140633,480.32705908140633,480.32705908140633,480.32705908140633,480.32705908140633,480.32705908140633,s,1,0.6775131068425253,481.02732210909016,482.0439045710955,,,,,,,,,,,,,,,,,,,,,,,,,,,,,,,,,,,,,,,,566,2023-05-16_16h01.31.347,eb_02psyexp,2022.2.4,59.89983420457353,
192,0,192,0,,,,,,,,,,,,,,,,,,,,,,,,,,,,,,,,,,,,,,,,,,,,,,,,,,,,,,,,,,,482.0439045710955,482.0439045710955,482.0439045710955,482.0439045710955,482.0439045710955,482.0439045710955,s,1,2.2646883743582293,484.3270557610085,485.3436693130061,,,,,,,,,,,,,,,,,,,,,,,,,,,,,,,,,,,,,,,,566,2023-05-16_16h01.31.347,eb_02psyexp,2022.2.4,59.89983420457353,
193,0,193,0,,,,,,,,,,,,,,,,,,,,,,,,,,,,,,,,,,,,,,,,,,,,,,,,,,,,,,,,,,,485.3436693130061,485.3436693130061,485.3436693130061,485.3436693130061,485.3436693130061,485.3436693130061,l,1,0.780920394230634,486.1435922217788,487.1601958129322,,,,,,,,,,,,,,,,,,,,,,,,,,,,,,,,,,,,,,,,566,2023-05-16_16h01.31.347,eb_02psyexp,2022.2.4,59.89983420457353,
194,0,194,0,,,,,,,,,,,,,,,,,,,,,,,,,,,,,,,,,,,,,,,,,,,,,,,,,,,,,,,,,,,487.1601958129322,487.1601958129322,487.1601958129322,487.1601958129322,487.1601958129322,487.1601958129322,l,1,0.8284392580389977,488.0101211667061,489.02672687068116,,,,,,,,,,,,,,,,,,,,,,,,,,,,,,,,,,,,,,,,566,2023-05-16_16h01.31.347,eb_02psyexp,2022.2.4,59.89983420457353,
195,0,195,0,,,,,,,,,,,,,,,,,,,,,,,,,,,,,,,,,,,,,,,,,,,,,,,,,,,,,,,,,,,489.02672687068116,489.02672687068116,489.02672687068116,489.02672687068116,489.02672687068116,489.02672687068116,l,1,0.873865430126898,489.92665104719345,490.9432383386884,,,,,,,,,,,,,,,,,,,,,,,,,,,,,,,,,,,,,,,,566,2023-05-16_16h01.31.347,eb_02psyexp,2022.2.4,59.89983420457353,
196,0,196,0,,,,,,,,,,,,,,,,,,,,,,,,,,,,,,,,,,,,,,,,,,,,,,,,,,,,,,,,,,,490.9432383386884,490.9432383386884,490.9432383386884,490.9432383386884,490.9432383386884,490.9432383386884,l,1,2.093432958587073,493.05969619902316,494.0763363133883,,,,,,,,,,,,,,,,,,,,,,,,,,,,,,,,,,,,,,,,566,2023-05-16_16h01.31.347,eb_02psyexp,2022.2.4,59.89983420457353,
197,0,197,0,,,,,,,,,,,,,,,,,,,,,,,,,,,,,,,,,,,,,,,,,,,,,,,,,,,,,,,,,,,494.0763363133883,494.0763363133883,494.0763363133883,494.0763363133883,494.0763363133883,494.0763363133883,l,1,0.5673016281798482,494.67627992865164,495.69288140686695,,,,,,,,,,,,,,,,,,,,,,,,,,,,,,,,,,,,,,,,566,2023-05-16_16h01.31.347,eb_02psyexp,2022.2.4,59.89983420457353,
198,0,198,0,,,,,,,,,,,,,,,,,,,,,,,,,,,,,,,,,,,,,,,,,,,,,,,,,,,,,,,,,,,495.69288140686695,495.69288140686695,495.69288140686695,495.69288140686695,495.69288140686695,495.69288140686695,l,1,1.1267666139174253,496.84277373878285,497.8593770280713,,,,,,,,,,,,,,,,,,,,,,,,,,,,,,,,,,,,,,,,566,2023-05-16_16h01.31.347,eb_02psyexp,2022.2.4,59.89983420457353,
199,0,199,0,,,,,0,0,0,0,,,,,,,,,,,,,,,,,,,,,,,,,,,,,,,,,,,,,,,,,,,,,,,,,,,497.8593770280713,497.8593770280713,497.8593770280713,497.8593770280713,497.8593770280713,497.8593770280713,s,1,0.8722671604482457,498.75930392113514,499.7592227248242,499.7592227248242,499.7592227248242,space,122.54115731839556,,,,,,,,,,,,,,,,,,,,,,,,,,,,,,,,,,,,566,2023-05-16_16h01.31.347,eb_02psyexp,2022.2.4,59.89983420457353,
199,0,199,0,,,,,,,,,,,,,,,,,,,,,,,,,,,,,,,,,,,,,,,,,,,,,,,,,,,,,,,,,,,,,,,,,,,,,,,,,,,,,,,,,,,,,,,,,,,,,,,,,,,,,,,,,,,,,566,2023-05-16_16h01.31.347,eb_02psyexp,2022.2.4,59.89983420457353,
200,0,200,0,,,,,,,,,,,,,,,,,,,,,,,,,,,,,,,,,,,,,,,,,,,,,,,,,,,,,,,,,,,622.3498939618003,622.3498939618003,622.3498939618003,622.3498939618003,622.3498939618003,622.3498939618003,l,1,3.0384500700747594,625.4163016857347,626.4495650110766,,,,,,,,,,,,,,,,,,,,,,,,,,,,,,,,,,,,,,,,566,2023-05-16_16h01.31.347,eb_02psyexp,2022.2.4,59.89983420457353,
201,0,201,0,,,,,,,,,,,,,,,,,,,,,,,,,,,,,,,,,,,,,,,,,,,,,,,,,,,,,,,,,,,626.4495650110766,626.4495650110766,626.4495650110766,626.4495650110766,626.4495650110766,626.4495650110766,s,1,0.8988382790703326,627.3661546569783,628.3827537203906,,,,,,,,,,,,,,,,,,,,,,,,,,,,,,,,,,,,,,,,566,2023-05-16_16h01.31.347,eb_02psyexp,2022.2.4,59.89983420457353,
202,0,202,0,,,,,,,,,,,,,,,,,,,,,,,,,,,,,,,,,,,,,,,,,,,,,,,,,,,,,,,,,,,628.3827537203906,628.3827537203906,628.3827537203906,628.3827537203906,628.3827537203906,628.3827537203906,l,1,0.549678404466249,628.9493691136595,629.9659705918748,,,,,,,,,,,,,,,,,,,,,,,,,,,,,,,,,,,,,,,,566,2023-05-16_16h01.31.347,eb_02psyexp,2022.2.4,59.89983420457353,
203,0,203,0,,,,,,,,,,,,,,,,,,,,,,,,,,,,,,,,,,,,,,,,,,,,,,,,,,,,,,,,,,,629.9659705918748,629.9659705918748,629.9659705918748,629.9659705918748,629.9659705918748,629.9659705918748,l,1,0.5024197311140597,630.4992396523012,631.5158737298334,,,,,,,,,,,,,,,,,,,,,,,,,,,,,,,,,,,,,,,,566,2023-05-16_16h01.31.347,eb_02psyexp,2022.2.4,59.89983420457353,
204,0,204,0,,,,,,,,,,,,,,,,,,,,,,,,,,,,,,,,,,,,,,,,,,,,,,,,,,,,,,,,,,,631.5158737298334,631.5158737298334,631.5158737298334,631.5158737298334,631.5158737298334,631.5158737298334,l,1,0.4405306277330965,631.9824691409012,632.9990615637507,,,,,,,,,,,,,,,,,,,,,,,,,,,,,,,,,,,,,,,,566,2023-05-16_16h01.31.347,eb_02psyexp,2022.2.4,59.89983420457353,
205,0,205,0,,,,,,,,,,,,,,,,,,,,,,,,,,,,,,,,,,,,,,,,,,,,,,,,,,,,,,,,,,,632.9990615637507,632.9990615637507,632.9990615637507,632.9990615637507,632.9990615637507,632.9990615637507,s,1,0.6843776671448722,633.7156728217378,634.7489349397365,,,,,,,,,,,,,,,,,,,,,,,,,,,,,,,,,,,,,,,,566,2023-05-16_16h01.31.347,eb_02psyexp,2022.2.4,59.89983420457353,
206,0,206,0,,,,,,,,,,,,,,,,,,,,,,,,,,,,,,,,,,,,,,,,,,,,,,,,,,,,,,,,,,,634.7489349397365,634.7489349397365,634.7489349397365,634.7489349397365,634.7489349397365,634.7489349397365,s,1,0.558507070527412,635.3322049359558,636.3488142620772,,,,,,,,,,,,,,,,,,,,,,,,,,,,,,,,,,,,,,,,566,2023-05-16_16h01.31.347,eb_02psyexp,2022.2.4,59.89983420457353,
207,0,207,0,,,,,,,,,,,,,,,,,,,,,,,,,,,,,,,,,,,,,,,,,,,,,,,,,,,,,,,,,,,636.3488142620772,636.3488142620772,636.3488142620772,636.3488142620772,636.3488142620772,636.3488142620772,s,1,0.7906292405677959,637.1654126010835,638.1819612564286,,,,,,,,,,,,,,,,,,,,,,,,,,,,,,,,,,,,,,,,566,2023-05-16_16h01.31.347,eb_02psyexp,2022.2.4,59.89983420457353,
208,0,208,0,,,,,,,,,,,,,,,,,,,,,,,,,,,,,,,,,,,,,,,,,,,,,,,,,,,,,,,,,,,638.1819612564286,638.1819612564286,638.1819612564286,638.1819612564286,638.1819612564286,638.1819612564286,l,1,0.6615370515501127,638.8652705528075,639.8984916198533,,,,,,,,,,,,,,,,,,,,,,,,,,,,,,,,,,,,,,,,566,2023-05-16_16h01.31.347,eb_02psyexp,2022.2.4,59.89983420457353,
209,0,209,0,,,,,,,,,,,,,,,,,,,,,,,,,,,,,,,,,,,,,,,,,,,,,,,,,,,,,,,,,,,639.8984916198533,639.8984916198533,639.8984916198533,639.8984916198533,639.8984916198533,639.8984916198533,l,1,0.9129872662015259,640.8317980488064,641.8483974140836,,,,,,,,,,,,,,,,,,,,,,,,,,,,,,,,,,,,,,,,566,2023-05-16_16h01.31.347,eb_02psyexp,2022.2.4,59.89983420457353,
210,0,210,0,,,,,,,,,,,,,,,,,,,,,,,,,,,,,,,,,,,,,,,,,,,,,,,,,,,,,,,,,,,641.8483974140836,641.8483974140836,641.8483974140836,641.8483974140836,641.8483974140836,641.8483974140836,l,1,0.48311613593250513,642.3483409690671,643.3816000686493,,,,,,,,,,,,,,,,,,,,,,,,,,,,,,,,,,,,,,,,566,2023-05-16_16h01.31.347,eb_02psyexp,2022.2.4,59.89983420457353,
211,0,211,0,,,,,,,,,,,,,,,,,,,,,,,,,,,,,,,,,,,,,,,,,,,,,,,,,,,,,,,,,,,643.3816000686493,643.3816000686493,643.3816000686493,643.3816000686493,643.3816000686493,643.3816000686493,l,1,0.4698672507656738,643.8815611306345,644.8981635143282,,,,,,,,,,,,,,,,,,,,,,,,,,,,,,,,,,,,,,,,566,2023-05-16_16h01.31.347,eb_02psyexp,2022.2.4,59.89983420457353,
212,0,212,0,,,,,,,,,,,,,,,,,,,,,,,,,,,,,,,,,,,,,,,,,,,,,,,,,,,,,,,,,,,644.8981635143282,644.8981635143282,644.8981635143282,644.8981635143282,644.8981635143282,644.8981635143282,s,1,0.6733298362232745,645.5980908904457,646.6313527065795,,,,,,,,,,,,,,,,,,,,,,,,,,,,,,,,,,,,,,,,566,2023-05-16_16h01.31.347,eb_02psyexp,2022.2.4,59.89983420457353,
213,0,213,0,,,,,,,,,,,,,,,,,,,,,,,,,,,,,,,,,,,,,,,,,,,,,,,,,,,,,,,,,,,646.6313527065795,646.6313527065795,646.6313527065795,646.6313527065795,646.6313527065795,646.6313527065795,s,1,0.6121696886839345,647.264630580903,648.2812166650547,,,,,,,,,,,,,,,,,,,,,,,,,,,,,,,,,,,,,,,,566,2023-05-16_16h01.31.347,eb_02psyexp,2022.2.4,59.89983420457353,
214,0,214,0,,,,,,,,,,,,,,,,,,,,,,,,,,,,,,,,,,,,,,,,,,,,,,,,,,,,,,,,,,,648.2812166650547,648.2812166650547,648.2812166650547,648.2812166650547,648.2812166650547,648.2812166650547,s,1,0.5222977373050526,648.8311955659883,649.8644380641636,,,,,,,,,,,,,,,,,,,,,,,,,,,,,,,,,,,,,,,,566,2023-05-16_16h01.31.347,eb_02psyexp,2022.2.4,59.89983420457353,
215,0,215,0,,,,,,,,,,,,,,,,,,,,,,,,,,,,,,,,,,,,,,,,,,,,,,,,,,,,,,,,,,,649.8644380641636,649.8644380641636,649.8644380641636,649.8644380641636,649.8644380641636,649.8644380641636,s,1,0.9220568046439439,650.8143713262398,651.8309516751906,,,,,,,,,,,,,,,,,,,,,,,,,,,,,,,,,,,,,,,,566,2023-05-16_16h01.31.347,eb_02psyexp,2022.2.4,59.89983420457353,
216,0,216,0,,,,,,,,,,,,,,,,,,,,,,,,,,,,,,,,,,,,,,,,,,,,,,,,,,,,,,,,,,,651.8309516751906,651.8309516751906,651.8309516751906,651.8309516751906,651.8309516751906,651.8309516751906,l,1,0.4595785600831732,652.3142439476214,653.3475078766933,,,,,,,,,,,,,,,,,,,,,,,,,,,,,,,,,,,,,,,,566,2023-05-16_16h01.31.347,eb_02psyexp,2022.2.4,59.89983420457353,
217,0,217,0,,,,,,,,,,,,,,,,,,,,,,,,,,,,,,,,,,,,,,,,,,,,,,,,,,,,,,,,,,,653.3475078766933,653.3475078766933,653.3475078766933,653.3475078766933,653.3475078766933,653.3475078766933,s,1,0.46303196949884295,653.8308025638107,654.847401627223,,,,,,,,,,,,,,,,,,,,,,,,,,,,,,,,,,,,,,,,566,2023-05-16_16h01.31.347,eb_02psyexp,2022.2.4,59.89983420457353,
218,0,218,0,,,,,,,,,,,,,,,,,,,,,,,,,,,,,,,,,,,,,,,,,,,,,,,,,,,,,,,,,,,654.847401627223,654.847401627223,654.847401627223,654.847401627223,654.847401627223,654.847401627223,s,1,0.6111624316545203,655.480674370192,656.513937695534,,,,,,,,,,,,,,,,,,,,,,,,,,,,,,,,,,,,,,,,566,2023-05-16_16h01.31.347,eb_02psyexp,2022.2.4,59.89983420457353,
219,0,219,0,,,,,,,,,,,,,,,,,,,,,,,,,,,,,,,,,,,,,,,,,,,,,,,,,,,,,,,,,,,656.513937695534,656.513937695534,656.513937695534,656.513937695534,656.513937695534,656.513937695534,l,1,0.41663234715815634,656.94723114511,657.9638277938357,,,,,,,,,,,,,,,,,,,,,,,,,,,,,,,,,,,,,,,,566,2023-05-16_16h01.31.347,eb_02psyexp,2022.2.4,59.89983420457353,
220,0,220,0,,,,,,,,,,,,,,,,,,,,,,,,,,,,,,,,,,,,,,,,,,,,,,,,,,,,,,,,,,,657.9638277938357,657.9638277938357,657.9638277938357,657.9638277938357,657.9638277938357,657.9638277938357,l,1,0.46274883882142603,658.447117953212,659.4803713177098,,,,,,,,,,,,,,,,,,,,,,,,,,,,,,,,,,,,,,,,566,2023-05-16_16h01.31.347,eb_02psyexp,2022.2.4,59.89983420457353,
221,0,221,0,,,,,,,,,,,,,,,,,,,,,,,,,,,,,,,,,,,,,,,,,,,,,,,,,,,,,,,,,,,659.4803713177098,659.4803713177098,659.4803713177098,659.4803713177098,659.4803713177098,659.4803713177098,s,1,0.43420093692839146,659.9469806137495,660.9636092579458,,,,,,,,,,,,,,,,,,,,,,,,,,,,,,,,,,,,,,,,566,2023-05-16_16h01.31.347,eb_02psyexp,2022.2.4,59.89983420457353,
222,0,222,0,,,,,,,,,,,,,,,,,,,,,,,,,,,,,,,,,,,,,,,,,,,,,,,,,,,,,,,,,,,660.9636092579458,660.9636092579458,660.9636092579458,660.9636092579458,660.9636092579458,660.9636092579458,l,1,0.47095087449997663,661.4635609627003,662.4968101014383,,,,,,,,,,,,,,,,,,,,,,,,,,,,,,,,,,,,,,,,566,2023-05-16_16h01.31.347,eb_02psyexp,2022.2.4,59.89983420457353,
223,0,223,0,,,,,,,,,,,,,,,,,,,,,,,,,,,,,,,,,,,,,,,,,,,,,,,,,,,,,,,,,,,662.4968101014383,662.4968101014383,662.4968101014383,662.4968101014383,662.4968101014383,662.4968101014383,l,1,0.4577831857604906,662.9801313509233,663.9967195478966,,,,,,,,,,,,,,,,,,,,,,,,,,,,,,,,,,,,,,,,566,2023-05-16_16h01.31.347,eb_02psyexp,2022.2.4,59.89983420457353,
224,0,224,0,,,,,,,,,,,,,,,,,,,,,,,,,,,,,,,,,,,,,,,,,,,,,,,,,,,,,,,,,,,663.9967195478966,663.9967195478966,663.9967195478966,663.9967195478966,663.9967195478966,663.9967195478966,l,1,0.5338677602121606,664.5633198489668,665.5965819669655,,,,,,,,,,,,,,,,,,,,,,,,,,,,,,,,,,,,,,,,566,2023-05-16_16h01.31.347,eb_02psyexp,2022.2.4,59.89983420457353,
225,0,225,0,,,,,,,,,,,,,,,,,,,,,,,,,,,,,,,,,,,,,,,,,,,,,,,,,,,,,,,,,,,665.5965819669655,665.5965819669655,665.5965819669655,665.5965819669655,665.5965819669655,665.5965819669655,l,1,0.5010176607174799,666.1298615919659,667.1464392243652,,,,,,,,,,,,,,,,,,,,,,,,,,,,,,,,,,,,,,,,566,2023-05-16_16h01.31.347,eb_02psyexp,2022.2.4,59.89983420457353,
226,0,226,0,,,,,,,,,,,,,,,,,,,,,,,,,,,,,,,,,,,,,,,,,,,,,,,,,,,,,,,,,,,667.1464392243652,667.1464392243652,667.1464392243652,667.1464392243652,667.1464392243652,667.1464392243652,l,1,0.49519174941815436,667.6630880922312,668.6963387401775,,,,,,,,,,,,,,,,,,,,,,,,,,,,,,,,,,,,,,,,566,2023-05-16_16h01.31.347,eb_02psyexp,2022.2.4,59.89983420457353,
227,0,227,0,,,,,,,,,,,,,,,,,,,,,,,,,,,,,,,,,,,,,,,,,,,,,,,,,,,,,,,,,,,668.6963387401775,668.6963387401775,668.6963387401775,668.6963387401775,668.6963387401775,668.6963387401775,s,1,0.6012978333747014,669.3296262735967,670.3462162816431,,,,,,,,,,,,,,,,,,,,,,,,,,,,,,,,,,,,,,,,566,2023-05-16_16h01.31.347,eb_02psyexp,2022.2.4,59.89983420457353,
228,0,228,0,,,,,,,,,,,,,,,,,,,,,,,,,,,,,,,,,,,,,,,,,,,,,,,,,,,,,,,,,,,670.3462162816431,670.3462162816431,670.3462162816431,670.3462162816431,670.3462162816431,670.3462162816431,s,1,0.5914350460516289,670.962827479234,671.9960992563283,,,,,,,,,,,,,,,,,,,,,,,,,,,,,,,,,,,,,,,,566,2023-05-16_16h01.31.347,eb_02psyexp,2022.2.4,59.89983420457353,
229,0,229,0,,,,,,,,,,,,,,,,,,,,,,,,,,,,,,,,,,,,,,,,,,,,,,,,,,,,,,,,,,,671.9960992563283,671.9960992563283,671.9960992563283,671.9960992563283,671.9960992563283,671.9960992563283,l,1,0.5415439819917083,672.5626950296573,673.579307977925,,,,,,,,,,,,,,,,,,,,,,,,,,,,,,,,,,,,,,,,566,2023-05-16_16h01.31.347,eb_02psyexp,2022.2.4,59.89983420457353,
230,0,230,0,,,,,,,,,,,,,,,,,,,,,,,,,,,,,,,,,,,,,,,,,,,,,,,,,,,,,,,,,,,673.579307977925,673.579307977925,673.579307977925,673.579307977925,673.579307977925,673.579307977925,l,1,0.6943491187412292,674.2958996159723,675.312509244075,,,,,,,,,,,,,,,,,,,,,,,,,,,,,,,,,,,,,,,,566,2023-05-16_16h01.31.347,eb_02psyexp,2022.2.4,59.89983420457353,
231,0,231,0,,,,,,,,,,,,,,,,,,,,,,,,,,,,,,,,,,,,,,,,,,,,,,,,,,,,,,,,,,,675.312509244075,675.312509244075,675.312509244075,675.312509244075,675.312509244075,675.312509244075,s,1,0.6091696505900472,675.9457798741059,676.9623837670079,,,,,,,,,,,,,,,,,,,,,,,,,,,,,,,,,,,,,,,,566,2023-05-16_16h01.31.347,eb_02psyexp,2022.2.4,59.89983420457353,
232,0,232,0,,,,,,,,,,,,,,,,,,,,,,,,,,,,,,,,,,,,,,,,,,,,,,,,,,,,,,,,,,,676.9623837670079,676.9623837670079,676.9623837670079,676.9623837670079,676.9623837670079,676.9623837670079,l,1,0.6712709510466084,677.6623129541986,678.6955771851353,,,,,,,,,,,,,,,,,,,,,,,,,,,,,,,,,,,,,,,,566,2023-05-16_16h01.31.347,eb_02psyexp,2022.2.4,59.89983420457353,
233,0,233,0,,,,,,,,,,,,,,,,,,,,,,,,,,,,,,,,,,,,,,,,,,,,,,,,,,,,,,,,,,,678.6955771851353,678.6955771851353,678.6955771851353,678.6955771851353,678.6955771851353,678.6955771851353,s,1,0.7461212811758742,679.4621963212267,680.4787890459411,,,,,,,,,,,,,,,,,,,,,,,,,,,,,,,,,,,,,,,,566,2023-05-16_16h01.31.347,eb_02psyexp,2022.2.4,59.89983420457353,
234,0,234,0,,,,,,,,,,,,,,,,,,,,,,,,,,,,,,,,,,,,,,,,,,,,,,,,,,,,,,,,,,,680.4787890459411,680.4787890459411,680.4787890459411,680.4787890459411,680.4787890459411,680.4787890459411,l,1,0.9139054788975045,681.4120354076149,682.4452887721127,,,,,,,,,,,,,,,,,,,,,,,,,,,,,,,,,,,,,,,,566,2023-05-16_16h01.31.347,eb_02psyexp,2022.2.4,59.89983420457353,
235,0,235,0,,,,,,,,,,,,,,,,,,,,,,,,,,,,,,,,,,,,,,,,,,,,,,,,,,,,,,,,,,,682.4452887721127,682.4452887721127,682.4452887721127,682.4452887721127,682.4452887721127,682.4452887721127,l,1,0.4594348818063736,682.9285837610951,683.9451529418584,,,,,,,,,,,,,,,,,,,,,,,,,,,,,,,,,,,,,,,,566,2023-05-16_16h01.31.347,eb_02psyexp,2022.2.4,59.89983420457353,
236,0,236,0,,,,,,,,,,,,,,,,,,,,,,,,,,,,,,,,,,,,,,,,,,,,,,,,,,,,,,,,,,,683.9451529418584,683.9451529418584,683.9451529418584,683.9451529418584,683.9451529418584,683.9451529418584,s,1,0.631573798134923,684.5951349217212,685.6283795327181,,,,,,,,,,,,,,,,,,,,,,,,,,,,,,,,,,,,,,,,566,2023-05-16_16h01.31.347,eb_02psyexp,2022.2.4,59.89983420457353,
237,0,237,0,,,,,,,,,,,,,,,,,,,,,,,,,,,,,,,,,,,,,,,,,,,,,,,,,,,,,,,,,,,685.6283795327181,685.6283795327181,685.6283795327181,685.6283795327181,685.6283795327181,685.6283795327181,s,1,0.8363279786426574,686.494980920339,687.511578776408,,,,,,,,,,,,,,,,,,,,,,,,,,,,,,,,,,,,,,,,566,2023-05-16_16h01.31.347,eb_02psyexp,2022.2.4,59.89983420457353,
238,0,238,0,,,,,,,,,,,,,,,,,,,,,,,,,,,,,,,,,,,,,,,,,,,,,,,,,,,,,,,,,,,687.511578776408,687.511578776408,687.511578776408,687.511578776408,687.511578776408,687.511578776408,l,1,0.6171434916323051,688.161511253682,689.1947730699321,,,,,,,,,,,,,,,,,,,,,,,,,,,,,,,,,,,,,,,,566,2023-05-16_16h01.31.347,eb_02psyexp,2022.2.4,59.89983420457353,
239,0,239,0,,,,,,,,,,,,,,,,,,,,,,,,,,,,,,,,,,,,,,,,,,,,,,,,,,,,,,,,,,,689.1947730699321,689.1947730699321,689.1947730699321,689.1947730699321,689.1947730699321,689.1947730699321,s,1,0.5259796434547752,689.7447441229597,690.7613356402144,,,,,,,,,,,,,,,,,,,,,,,,,,,,,,,,,,,,,,,,566,2023-05-16_16h01.31.347,eb_02psyexp,2022.2.4,59.89983420457353,
240,0,240,0,,,,,,,,,,,,,,,,,,,,,,,,,,,,,,,,,,,,,,,,,,,,,,,,,,,,,,,,,,,690.7613356402144,690.7613356402144,690.7613356402144,690.7613356402144,690.7613356402144,690.7613356402144,l,1,3.639416638412513,694.4277102214983,695.4609623786528,,,,,,,,,,,,,,,,,,,,,,,,,,,,,,,,,,,,,,,,566,2023-05-16_16h01.31.347,eb_02psyexp,2022.2.4,59.89983420457353,
241,0,241,0,,,,,,,,,,,,,,,,,,,,,,,,,,,,,,,,,,,,,,,,,,,,,,,,,,,,,,,,,,,695.4609623786528,695.4609623786528,695.4609623786528,695.4609623786528,695.4609623786528,695.4609623786528,l,1,1.098819685401395,696.5775403733132,697.5941460772883,,,,,,,,,,,,,,,,,,,,,,,,,,,,,,,,,,,,,,,,566,2023-05-16_16h01.31.347,eb_02psyexp,2022.2.4,59.89983420457353,
242,0,242,0,,,,,,,,,,,,,,,,,,,,,,,,,,,,,,,,,,,,,,,,,,,,,,,,,,,,,,,,,,,697.5941460772883,697.5941460772883,697.5941460772883,697.5941460772883,697.5941460772883,697.5941460772883,l,1,0.629643800901249,698.2440800637705,699.2773479168536,,,,,,,,,,,,,,,,,,,,,,,,,,,,,,,,,,,,,,,,566,2023-05-16_16h01.31.347,eb_02psyexp,2022.2.4,59.89983420457353,
243,0,243,0,,,,,,,,,,,,,,,,,,,,,,,,,,,,,,,,,,,,,,,,,,,,,,,,,,,,,,,,,,,699.2773479168536,699.2773479168536,699.2773479168536,699.2773479168536,699.2773479168536,699.2773479168536,s,1,0.6584325751755387,699.9606167660095,700.977224884904,,,,,,,,,,,,,,,,,,,,,,,,,,,,,,,,,,,,,,,,566,2023-05-16_16h01.31.347,eb_02psyexp,2022.2.4,59.89983420457353,
244,0,244,0,,,,,,,,,,,,,,,,,,,,,,,,,,,,,,,,,,,,,,,,,,,,,,,,,,,,,,,,,,,700.977224884904,700.977224884904,700.977224884904,700.977224884904,700.977224884904,700.977224884904,l,1,0.47056753130164,701.477181721013,702.5104109379463,,,,,,,,,,,,,,,,,,,,,,,,,,,,,,,,,,,,,,,,566,2023-05-16_16h01.31.347,eb_02psyexp,2022.2.4,59.89983420457353,
245,0,245,0,,,,,,,,,,,,,,,,,,,,,,,,,,,,,,,,,,,,,,,,,,,,,,,,,,,,,,,,,,,702.5104109379463,702.5104109379463,702.5104109379463,702.5104109379463,702.5104109379463,702.5104109379463,s,1,0.5774191726231948,703.1103802100988,704.1269859140739,,,,,,,,,,,,,,,,,,,,,,,,,,,,,,,,,,,,,,,,566,2023-05-16_16h01.31.347,eb_02psyexp,2022.2.4,59.89983420457353,
246,0,246,0,,,,,,,,,,,,,,,,,,,,,,,,,,,,,,,,,,,,,,,,,,,,,,,,,,,,,,,,,,,704.1269859140739,704.1269859140739,704.1269859140739,704.1269859140739,704.1269859140739,704.1269859140739,l,1,0.4968546136515215,704.643596447655,705.6768464918714,,,,,,,,,,,,,,,,,,,,,,,,,,,,,,,,,,,,,,,,566,2023-05-16_16h01.31.347,eb_02psyexp,2022.2.4,59.89983420457353,
247,0,247,0,,,,,,,,,,,,,,,,,,,,,,,,,,,,,,,,,,,,,,,,,,,,,,,,,,,,,,,,,,,705.6768464918714,705.6768464918714,705.6768464918714,705.6768464918714,705.6768464918714,705.6768464918714,l,1,0.5149789003189653,706.2101345686242,707.2267493279651,,,,,,,,,,,,,,,,,,,,,,,,,,,,,,,,,,,,,,,,566,2023-05-16_16h01.31.347,eb_02psyexp,2022.2.4,59.89983420457353,
248,0,248,0,,,,,,,,,,,,,,,,,,,,,,,,,,,,,,,,,,,,,,,,,,,,,,,,,,,,,,,,,,,707.2267493279651,707.2267493279651,707.2267493279651,707.2267493279651,707.2267493279651,707.2267493279651,l,1,0.5491015785373747,707.793356269598,708.8266123506473,,,,,,,,,,,,,,,,,,,,,,,,,,,,,,,,,,,,,,,,566,2023-05-16_16h01.31.347,eb_02psyexp,2022.2.4,59.89983420457353,
249,0,249,0,,,,,,,,,,,,,,,,,,,,,,,,,,,,,,,,,,,,,,,,,,,,,,,,,,,,,,,,,,,708.8266123506473,708.8266123506473,708.8266123506473,708.8266123506473,708.8266123506473,708.8266123506473,s,1,0.5572396231582388,709.4099022686714,710.4264995210106,,,,,,,,,,,,,,,,,,,,,,,,,,,,,,,,,,,,,,,,566,2023-05-16_16h01.31.347,eb_02psyexp,2022.2.4,59.89983420457353,
250,0,250,0,,,,,,,,,,,,,,,,,,,,,,,,,,,,,,,,,,,,,,,,,,,,,,,,,,,,,,,,,,,710.4264995210106,710.4264995210106,710.4264995210106,710.4264995210106,710.4264995210106,710.4264995210106,l,1,0.5813760595628992,711.0264464566717,712.0597019341076,,,,,,,,,,,,,,,,,,,,,,,,,,,,,,,,,,,,,,,,566,2023-05-16_16h01.31.347,eb_02psyexp,2022.2.4,59.89983420457353,
251,0,251,0,,,,,,,,,,,,,,,,,,,,,,,,,,,,,,,,,,,,,,,,,,,,,,,,,,,,,,,,,,,712.0597019341076,712.0597019341076,712.0597019341076,712.0597019341076,712.0597019341076,712.0597019341076,s,1,0.5231727862264961,712.6096581966849,713.6262614859734,,,,,,,,,,,,,,,,,,,,,,,,,,,,,,,,,,,,,,,,566,2023-05-16_16h01.31.347,eb_02psyexp,2022.2.4,59.89983420457353,
252,0,252,0,,,,,,,,,,,,,,,,,,,,,,,,,,,,,,,,,,,,,,,,,,,,,,,,,,,,,,,,,,,713.6262614859734,713.6262614859734,713.6262614859734,713.6262614859734,713.6262614859734,713.6262614859734,s,1,0.8045847448520362,714.4595195592847,715.4927288544131,,,,,,,,,,,,,,,,,,,,,,,,,,,,,,,,,,,,,,,,566,2023-05-16_16h01.31.347,eb_02psyexp,2022.2.4,59.89983420457353,
253,0,253,0,,,,,,,,,,,,,,,,,,,,,,,,,,,,,,,,,,,,,,,,,,,,,,,,,,,,,,,,,,,715.4927288544131,715.4927288544131,715.4927288544131,715.4927288544131,715.4927288544131,715.4927288544131,s,1,0.7221454263199121,716.2427154222969,717.259315391304,,,,,,,,,,,,,,,,,,,,,,,,,,,,,,,,,,,,,,,,566,2023-05-16_16h01.31.347,eb_02psyexp,2022.2.4,59.89983420457353,
254,0,254,0,,,,,,,,,,,,,,,,,,,,,,,,,,,,,,,,,,,,,,,,,,,,,,,,,,,,,,,,,,,717.259315391304,717.259315391304,717.259315391304,717.259315391304,717.259315391304,717.259315391304,l,1,0.5635979892686009,717.8425911224913,718.8758487128653,,,,,,,,,,,,,,,,,,,,,,,,,,,,,,,,,,,,,,,,566,2023-05-16_16h01.31.347,eb_02psyexp,2022.2.4,59.89983420457353,
255,0,255,0,,,,,,,,,,,,,,,,,,,,,,,,,,,,,,,,,,,,,,,,,,,,,,,,,,,,,,,,,,,718.8758487128653,718.8758487128653,718.8758487128653,718.8758487128653,718.8758487128653,718.8758487128653,s,1,0.5390546658309177,719.4424695393536,720.4590504920343,,,,,,,,,,,,,,,,,,,,,,,,,,,,,,,,,,,,,,,,566,2023-05-16_16h01.31.347,eb_02psyexp,2022.2.4,59.89983420457353,
256,0,256,0,,,,,,,,,,,,,,,,,,,,,,,,,,,,,,,,,,,,,,,,,,,,,,,,,,,,,,,,,,,720.4590504920343,720.4590504920343,720.4590504920343,720.4590504920343,720.4590504920343,720.4590504920343,l,1,3.7238668487407267,724.2087741529103,725.2420317432843,,,,,,,,,,,,,,,,,,,,,,,,,,,,,,,,,,,,,,,,566,2023-05-16_16h01.31.347,eb_02psyexp,2022.2.4,59.89983420457353,
257,0,257,0,,,,,,,,,,,,,,,,,,,,,,,,,,,,,,,,,,,,,,,,,,,,,,,,,,,,,,,,,,,725.2420317432843,725.2420317432843,725.2420317432843,725.2420317432843,725.2420317432843,725.2420317432843,s,1,0.38890395453199744,725.6586627418874,726.675216830452,,,,,,,,,,,,,,,,,,,,,,,,,,,,,,,,,,,,,,,,566,2023-05-16_16h01.31.347,eb_02psyexp,2022.2.4,59.89983420457353,
258,0,258,0,,,,,,,,,,,,,,,,,,,,,,,,,,,,,,,,,,,,,,,,,,,,,,,,,,,,,,,,,,,726.675216830452,726.675216830452,726.675216830452,726.675216830452,726.675216830452,726.675216830452,s,1,0.5787940769223496,727.2751867063344,728.291808408103,,,,,,,,,,,,,,,,,,,,,,,,,,,,,,,,,,,,,,,,566,2023-05-16_16h01.31.347,eb_02psyexp,2022.2.4,59.89983420457353,
259,0,259,0,,,,,,,,,,,,,,,,,,,,,,,,,,,,,,,,,,,,,,,,,,,,,,,,,,,,,,,,,,,728.291808408103,728.291808408103,728.291808408103,728.291808408103,728.291808408103,728.291808408103,l,1,0.570119955460541,728.8917511178879,729.9250168580329,,,,,,,,,,,,,,,,,,,,,,,,,,,,,,,,,,,,,,,,566,2023-05-16_16h01.31.347,eb_02psyexp,2022.2.4,59.89983420457353,
260,0,260,0,,,,,,,,,,,,,,,,,,,,,,,,,,,,,,,,,,,,,,,,,,,,,,,,,,,,,,,,,,,729.9250168580329,729.9250168580329,729.9250168580329,729.9250168580329,729.9250168580329,729.9250168580329,l,1,0.5689656999893486,730.5249834136339,731.5415610460332,,,,,,,,,,,,,,,,,,,,,,,,,,,,,,,,,,,,,,,,566,2023-05-16_16h01.31.347,eb_02psyexp,2022.2.4,59.89983420457353,
261,0,261,0,,,,,,,,,,,,,,,,,,,,,,,,,,,,,,,,,,,,,,,,,,,,,,,,,,,,,,,,,,,731.5415610460332,731.5415610460332,731.5415610460332,731.5415610460332,731.5415610460332,731.5415610460332,l,1,3.3044184282189235,734.8746292588767,735.9078844344476,,,,,,,,,,,,,,,,,,,,,,,,,,,,,,,,,,,,,,,,566,2023-05-16_16h01.31.347,eb_02psyexp,2022.2.4,59.89983420457353,
262,0,262,0,,,,,,,,,,,,,,,,,,,,,,,,,,,,,,,,,,,,,,,,,,,,,,,,,,,,,,,,,,,735.9078844344476,735.9078844344476,735.9078844344476,735.9078844344476,735.9078844344476,735.9078844344476,s,1,0.482143591158092,736.407844892703,737.4244373155525,,,,,,,,,,,,,,,,,,,,,,,,,,,,,,,,,,,,,,,,566,2023-05-16_16h01.31.347,eb_02psyexp,2022.2.4,59.89983420457353,
263,0,263,0,,,,,,,,,,,,,,,,,,,,,,,,,,,,,,,,,,,,,,,,,,,,,,,,,,,,,,,,,,,737.4244373155525,737.4244373155525,737.4244373155525,737.4244373155525,737.4244373155525,737.4244373155525,l,1,0.6135744755156338,738.0577121714596,739.09097278025,,,,,,,,,,,,,,,,,,,,,,,,,,,,,,,,,,,,,,,,566,2023-05-16_16h01.31.347,eb_02psyexp,2022.2.4,59.89983420457353,
264,0,264,0,,,,,,,,,,,,,,,,,,,,,,,,,,,,,,,,,,,,,,,,,,,,,,,,,,,,,,,,,,,739.09097278025,739.09097278025,739.09097278025,739.09097278025,739.09097278025,739.09097278025,l,1,0.5310563754756004,739.6409314576304,740.6575268988963,,,,,,,,,,,,,,,,,,,,,,,,,,,,,,,,,,,,,,,,566,2023-05-16_16h01.31.347,eb_02psyexp,2022.2.4,59.89983420457353,
265,0,265,0,,,,,,,,,,,,,,,,,,,,,,,,,,,,,,,,,,,,,,,,,,,,,,,,,,,,,,,,,,,740.6575268988963,740.6575268988963,740.6575268988963,740.6575268988963,740.6575268988963,740.6575268988963,l,1,0.5485178101807833,741.2241410848219,742.2407461851835,,,,,,,,,,,,,,,,,,,,,,,,,,,,,,,,,,,,,,,,566,2023-05-16_16h01.31.347,eb_02psyexp,2022.2.4,59.89983420457353,
266,0,266,0,,,,,,,,,,,,,,,,,,,,,,,,,,,,,,,,,,,,,,,,,,,,,,,,,,,,,,,,,,,742.2407461851835,742.2407461851835,742.2407461851835,742.2407461851835,742.2407461851835,742.2407461851835,s,1,0.6443647843552753,742.9073462446686,743.9239522505086,,,,,,,,,,,,,,,,,,,,,,,,,,,,,,,,,,,,,,,,566,2023-05-16_16h01.31.347,eb_02psyexp,2022.2.4,59.89983420457353,
267,0,267,0,,,,,,,,,,,,,,,,,,,,,,,,,,,,,,,,,,,,,,,,,,,,,,,,,,,,,,,,,,,743.9239522505086,743.9239522505086,743.9239522505086,743.9239522505086,743.9239522505086,743.9239522505086,l,1,0.593122661812231,744.5405486577656,745.5738140960457,,,,,,,,,,,,,,,,,,,,,,,,,,,,,,,,,,,,,,,,566,2023-05-16_16h01.31.347,eb_02psyexp,2022.2.4,59.89983420457353,
268,0,268,0,,,,,,,,,,,,,,,,,,,,,,,,,,,,,,,,,,,,,,,,,,,,,,,,,,,,,,,,,,,745.5738140960457,745.5738140960457,745.5738140960457,745.5738140960457,745.5738140960457,745.5738140960457,s,1,0.49526147556025535,746.0904436458368,747.1736888907617,,,,,,,,,,,,,,,,,,,,,,,,,,,,,,,,,,,,,,,,566,2023-05-16_16h01.31.347,eb_02psyexp,2022.2.4,59.89983420457353,
269,0,269,0,,,,,,,,,,,,,,,,,,,,,,,,,,,,,,,,,,,,,,,,,,,,,,,,,,,,,,,,,,,747.1736888907617,747.1736888907617,747.1736888907617,747.1736888907617,747.1736888907617,747.1736888907617,s,1,0.7593774106353521,747.956965346355,748.9732254378032,,,,,,,,,,,,,,,,,,,,,,,,,,,,,,,,,,,,,,,,566,2023-05-16_16h01.31.347,eb_02psyexp,2022.2.4,59.89983420457353,
270,0,270,0,,,,,,,,,,,,,,,,,,,,,,,,,,,,,,,,,,,,,,,,,,,,,,,,,,,,,,,,,,,748.9732254378032,748.9732254378032,748.9732254378032,748.9732254378032,748.9732254378032,748.9732254378032,l,0,0.7758687153691426,749.7735075422097,750.7900942299748,,,,,,,,,,,,,,,,,,,,,,,,,,,,,,,,,,,,,,,,566,2023-05-16_16h01.31.347,eb_02psyexp,2022.2.4,59.89983420457353,
271,0,271,0,,,,,,,,,,,,,,,,,,,,,,,,,,,,,,,,,,,,,,,,,,,,,,,,,,,,,,,,,,,750.7900942299748,750.7900942299748,750.7900942299748,750.7900942299748,750.7900942299748,750.7900942299748,s,1,3.9110291972756386,754.7231235650834,755.7563757222379,,,,,,,,,,,,,,,,,,,,,,,,,,,,,,,,,,,,,,,,566,2023-05-16_16h01.31.347,eb_02psyexp,2022.2.4,59.89983420457353,
272,0,272,0,,,,,,,,,,,,,,,,,,,,,,,,,,,,,,,,,,,,,,,,,,,,,,,,,,,,,,,,,,,755.7563757222379,755.7563757222379,755.7563757222379,755.7563757222379,755.7563757222379,755.7563757222379,s,1,0.7447569414507598,756.5229688996915,757.5395607188111,,,,,,,,,,,,,,,,,,,,,,,,,,,,,,,,,,,,,,,,566,2023-05-16_16h01.31.347,eb_02psyexp,2022.2.4,59.89983420457353,
273,0,273,0,,,,,,,,,,,,,,,,,,,,,,,,,,,,,,,,,,,,,,,,,,,,,,,,,,,,,,,,,,,757.5395607188111,757.5395607188111,757.5395607188111,757.5395607188111,757.5395607188111,757.5395607188111,s,1,0.6335708051919937,758.2061816056957,759.2394434218295,,,,,,,,,,,,,,,,,,,,,,,,,,,,,,,,,,,,,,,,566,2023-05-16_16h01.31.347,eb_02psyexp,2022.2.4,59.89983420457353,
