trials.thisRepN,trials.thisTrialN,trials.thisN,trials.thisIndex,image_loop.thisRepN,image_loop.thisTrialN,image_loop.thisN,image_loop.thisIndex,break_loop.thisRepN,break_loop.thisTrialN,break_loop.thisN,break_loop.thisIndex,test_trials.thisRepN,test_trials.thisTrialN,test_trials.thisN,test_trials.thisIndex,distance matrix,tools,welcome_text.started,instructions_0_keypress.started,instructions_0_keypress.keys,instructions_0_keypress.rt,consent_image_0.started,consent0_key_resp.started,consent0_text.started,consent0_key_resp.keys,consent0_key_resp.rt,consent_image_1.started,consent1_key_resp.started,consent1_text.started,consent1_key_resp.keys,consent1_key_resp.rt,consent2_text.started,consent_image_2.started,consent2_key_resp.started,consent2_key_resp.keys,consent2_key_resp.rt,agree_button.started,disagree_button.started,consent_image_3.started,agree_button.numClicks,agree_button.timesOn,agree_button.timesOff,disagree_button.numClicks,disagree_button.timesOn,disagree_button.timesOff,instructions_text1.started,instructions1_key_resp.started,instr1_cnt_text.started,instructions1_key_resp.keys,instructions1_key_resp.rt,instructions_text2.started,instr2_cnt_text.started,instructions2_key_resp.started,instructions2_key_resp.keys,instructions2_key_resp.rt,instructions_text3.started,instructions3_key_resp.started,instr3_cnt_text.started,instructions3_key_resp.keys,instructions3_key_resp.rt,text_countdown.started,image.started,small_large_keyresp.started,task_question_text.started,smalleroption_text.started,largeroption_text.started,accuracy_score_text.started,small_large_keyresp.keys,small_large_keyresp.corr,small_large_keyresp.rt,fb_2.started,fb_2.stopped,break_text.started,break_key_resp.started,break_key_resp.keys,break_key_resp.rt,reveal_seq_text.started,start_test_text.started,continue_to_test.started,continue_to_test.keys,continue_to_test.rt,test_structure_info.started,start_test_text_2.started,continue_to_test_2.started,continue_to_test_2.keys,continue_to_test_2.rt,test_cntdown_text.started,parent index,left child index,right child index,left distance,right distance,parent_image.started,top_image_text.started,left_child_image.started,right_child_image.started,path_resp.started,child_choice_text.started,left_choice_text.started,right_choice_text.started,path_resp.keys,path_resp.rt,graph.started,debrief_text.started,debriefing_title.started,demo_scr_adv.started,demo_scr_adv_keypress.started,demo_scr_adv_keypress.keys,demo_scr_adv_keypress.rt,text_countdown_2.started,participant,date,expName,psychopyVersion,frameRate,
,,,,,,,,,,,,,,,,"[[0. 1. 1. 2. 2. 3. 4. 5. 5. 6. 6. 7.]
 [1. 0. 2. 1. 1. 2. 3. 4. 4. 5. 5. 6.]
 [1. 2. 0. 1. 1. 2. 3. 4. 4. 5. 5. 6.]
 [2. 1. 1. 0. 1. 1. 2. 3. 3. 4. 4. 5.]
 [2. 1. 1. 1. 0. 1. 2. 3. 3. 4. 4. 5.]
 [3. 2. 2. 1. 1. 0. 1. 2. 2. 3. 3. 4.]
 [4. 3. 3. 2. 2. 1. 0. 1. 1. 2. 2. 3.]
 [5. 4. 4. 3. 3. 2. 1. 0. 1. 1. 1. 2.]
 [5. 4. 4. 3. 3. 2. 1. 1. 0. 1. 1. 2.]
 [6. 5. 5. 4. 4. 3. 2. 1. 1. 0. 2. 1.]
 [6. 5. 5. 4. 4. 3. 2. 1. 1. 2. 0. 1.]
 [7. 6. 6. 5. 5. 4. 3. 2. 2. 1. 1. 0.]]",[ 5  9  7  2 11  1  4  0  3 10  8  6],13.98088538472075,13.98088538472075,return,55.34032054373529,,,,,,,,,,,,,,,,,,,,,,,,,,,,,,,,,,,,,,,,,,,,,,,,,,,,,,,,,,,,,,,,,,,,,,,,,,,,,,,,,,,,,,,,,,567,2023-05-16_16h05.03.145,eb_02psyexp,2022.2.4,119.9655990788058,
,,,,,,,,,,,,,,,,,,,,,,69.33532362792175,69.33532362792175,69.33532362792175,space,39.24768053845037,,,,,,,,,,,,,,,,,,,,,,,,,,,,,,,,,,,,,,,,,,,,,,,,,,,,,,,,,,,,,,,,,,,,,,,,,,,,,,,,,,,,,567,2023-05-16_16h05.03.145,eb_02psyexp,2022.2.4,119.9655990788058,
,,,,,,,,,,,,,,,,,,,,,,,,,,,108.59705334587488,108.59705334587488,108.59705334587488,space,14.497248441097327,,,,,,,,,,,,,,,,,,,,,,,,,,,,,,,,,,,,,,,,,,,,,,,,,,,,,,,,,,,,,,,,,,,,,,,,,,,,,,,,567,2023-05-16_16h05.03.145,eb_02psyexp,2022.2.4,119.9655990788058,
,,,,,,,,,,,,,,,,,,,,,,,,,,,,,,,,123.10664551705122,123.10664551705122,123.10664551705122,space,12.339887993526645,,,,,,,,,,,,,,,,,,,,,,,,,,,,,,,,,,,,,,,,,,,,,,,,,,,,,,,,,,,,,,,,,,,,,,,,,,,567,2023-05-16_16h05.03.145,eb_02psyexp,2022.2.4,119.9655990788058,
,,,,,,,,,,,,,,,,,,,,,,,,,,,,,,,,,,,,,135.46605763514526,135.46605763514526,135.46605763514526,1,[19.243037993786857],[19.243042219779454],0,,,154.7010637173662,156.69290865131188,156.69290865131188,space,2.5360858980566263,,,,,,,,,,,,,,,,,,,,,,,,,,,,,,,,,,,,,,,,,,,,,,,,,,,,,,,,,,,,,567,2023-05-16_16h05.03.145,eb_02psyexp,2022.2.4,119.9655990788058,
,,,,,,,,,,,,,,,,,,,,,,,,,,,,,,,,,,,,,,,,,,,,,,,,,,,159.2431297560688,162.23506101884414,162.23506101884414,space,14.449300564476289,,,,,,,,,,,,,,,,,,,,,,,,,,,,,,,,,,,,,,,,,,,,,,,,,,,,,,,,567,2023-05-16_16h05.03.145,eb_02psyexp,2022.2.4,119.9655990788058,
,,,,,,,,,,,,,,,,,,,,,,,,,,,,,,,,,,,,,,,,,,,,,,,,,,,,,,,,176.69463613559492,179.68656951142475,179.68656951142475,space,13.629142455640249,,,,,,,,,,,,,,,,,,,,,,,,,,,,,,,,,,,,,,,,,,,,,,,,,,,567,2023-05-16_16h05.03.145,eb_02psyexp,2022.2.4,119.9655990788058,
0,0,0,0,,,,,,,,,,,,,,,,,,,,,,,,,,,,,,,,,,,,,,,,,,,,,,,,,,,,,,,,,,193.33773419738282,198.37989048904274,198.37989048904274,198.37989048904274,198.37989048904274,198.37989048904274,198.37989048904274,s,1,2.1670142963994294,200.55504164018203,201.58010661322623,,,,,,,,,,,,,,,,,,,,,,,,,,,,,,,,,,,,,,,567,2023-05-16_16h05.03.145,eb_02psyexp,2022.2.4,119.9655990788058,
1,0,1,0,,,,,,,,,,,,,,,,,,,,,,,,,,,,,,,,,,,,,,,,,,,,,,,,,,,,,,,,,,,201.58010661322623,201.58010661322623,201.58010661322623,201.58010661322623,201.58010661322623,201.58010661322623,l,1,1.1667737225070596,202.75523723859806,203.7887047942495,,,,,,,,,,,,,,,,,,,,,,,,,,,,,,,,,,,,,,,567,2023-05-16_16h05.03.145,eb_02psyexp,2022.2.4,119.9655990788058,
2,0,2,0,,,,,,,,,,,,,,,,,,,,,,,,,,,,,,,,,,,,,,,,,,,,,,,,,,,,,,,,,,,203.7887047942495,203.7887047942495,203.7887047942495,203.7887047942495,203.7887047942495,203.7887047942495,l,1,1.046219285344705,204.84710058534984,205.87219544150867,,,,,,,,,,,,,,,,,,,,,,,,,,,,,,,,,,,,,,,567,2023-05-16_16h05.03.145,eb_02psyexp,2022.2.4,119.9655990788058,
3,0,3,0,,,,,,,,,,,,,,,,,,,,,,,,,,,,,,,,,,,,,,,,,,,,,,,,,,,,,,,,,,,205.87219544150867,205.87219544150867,205.87219544150867,205.87219544150867,205.87219544150867,205.87219544150867,l,1,0.7788132888963446,206.66393412440084,207.689009360387,,,,,,,,,,,,,,,,,,,,,,,,,,,,,,,,,,,,,,,567,2023-05-16_16h05.03.145,eb_02psyexp,2022.2.4,119.9655990788058,
4,0,4,0,,,,,,,,,,,,,,,,,,,,,,,,,,,,,,,,,,,,,,,,,,,,,,,,,,,,,,,,,,,207.689009360387,207.689009360387,207.689009360387,207.689009360387,207.689009360387,207.689009360387,s,1,0.7459980298299342,208.44741269759834,209.46416352991946,,,,,,,,,,,,,,,,,,,,,,,,,,,,,,,,,,,,,,,567,2023-05-16_16h05.03.145,eb_02psyexp,2022.2.4,119.9655990788058,
5,0,5,0,,,,,,,,,,,,,,,,,,,,,,,,,,,,,,,,,,,,,,,,,,,,,,,,,,,,,,,,,,,209.46416352991946,209.46416352991946,209.46416352991946,209.46416352991946,209.46416352991946,209.46416352991946,l,1,0.8188916490180418,210.29755683068652,211.32269032357726,,,,,,,,,,,,,,,,,,,,,,,,,,,,,,,,,,,,,,,567,2023-05-16_16h05.03.145,eb_02psyexp,2022.2.4,119.9655990788058,
6,0,6,0,,,,,,,,,,,,,,,,,,,,,,,,,,,,,,,,,,,,,,,,,,,,,,,,,,,,,,,,,,,211.32269032357726,211.32269032357726,211.32269032357726,211.32269032357726,211.32269032357726,211.32269032357726,l,1,1.0163956560427323,212.34775258006994,213.3645025069127,,,,,,,,,,,,,,,,,,,,,,,,,,,,,,,,,,,,,,,567,2023-05-16_16h05.03.145,eb_02psyexp,2022.2.4,119.9655990788058,
7,0,7,0,,,,,,,,,,,,,,,,,,,,,,,,,,,,,,,,,,,,,,,,,,,,,,,,,,,,,,,,,,,213.3645025069127,213.3645025069127,213.3645025069127,213.3645025069127,213.3645025069127,213.3645025069127,l,1,0.6066311288159341,213.98122315423097,215.0063146901084,,,,,,,,,,,,,,,,,,,,,,,,,,,,,,,,,,,,,,,567,2023-05-16_16h05.03.145,eb_02psyexp,2022.2.4,119.9655990788058,
8,0,8,0,,,,,,,,,,,,,,,,,,,,,,,,,,,,,,,,,,,,,,,,,,,,,,,,,,,,,,,,,,,215.0063146901084,215.0063146901084,215.0063146901084,215.0063146901084,215.0063146901084,215.0063146901084,l,1,0.5008286772063002,215.5230111895362,216.55645942687988,,,,,,,,,,,,,,,,,,,,,,,,,,,,,,,,,,,,,,,567,2023-05-16_16h05.03.145,eb_02psyexp,2022.2.4,119.9655990788058,
9,0,9,0,,,,,,,,,,,,,,,,,,,,,,,,,,,,,,,,,,,,,,,,,,,,,,,,,,,,,,,,,,,216.55645942687988,216.55645942687988,216.55645942687988,216.55645942687988,216.55645942687988,216.55645942687988,l,1,0.6057231656741351,217.1731770557817,218.19823448266834,,,,,,,,,,,,,,,,,,,,,,,,,,,,,,,,,,,,,,,567,2023-05-16_16h05.03.145,eb_02psyexp,2022.2.4,119.9655990788058,
10,0,10,0,,,,,,,,,,,,,,,,,,,,,,,,,,,,,,,,,,,,,,,,,,,,,,,,,,,,,,,,,,,218.19823448266834,218.19823448266834,218.19823448266834,218.19823448266834,218.19823448266834,218.19823448266834,s,1,0.8359929285943508,219.04833816795144,220.06509292440023,,,,,,,,,,,,,,,,,,,,,,,,,,,,,,,,,,,,,,,567,2023-05-16_16h05.03.145,eb_02psyexp,2022.2.4,119.9655990788058,
11,0,11,0,,,,,,,,,,,,,,,,,,,,,,,,,,,,,,,,,,,,,,,,,,,,,,,,,,,,,,,,,,,220.06509292440023,220.06509292440023,220.06509292440023,220.06509292440023,220.06509292440023,220.06509292440023,l,1,0.5451359478756785,220.62346366187558,221.648555197753,,,,,,,,,,,,,,,,,,,,,,,,,,,,,,,,,,,,,,,567,2023-05-16_16h05.03.145,eb_02psyexp,2022.2.4,119.9655990788058,
12,0,12,0,,,,,,,,,,,,,,,,,,,,,,,,,,,,,,,,,,,,,,,,,,,,,,,,,,,,,,,,,,,221.648555197753,221.648555197753,221.648555197753,221.648555197753,221.648555197753,221.648555197753,s,1,0.71372428862378,222.37361141713336,223.39040873432532,,,,,,,,,,,,,,,,,,,,,,,,,,,,,,,,,,,,,,,567,2023-05-16_16h05.03.145,eb_02psyexp,2022.2.4,119.9655990788058,
13,0,13,0,,,,,,,,,,,,,,,,,,,,,,,,,,,,,,,,,,,,,,,,,,,,,,,,,,,,,,,,,,,223.39040873432532,223.39040873432532,223.39040873432532,223.39040873432532,223.39040873432532,223.39040873432532,l,1,0.47589772508945316,223.88208342518192,224.9071809980087,,,,,,,,,,,,,,,,,,,,,,,,,,,,,,,,,,,,,,,567,2023-05-16_16h05.03.145,eb_02psyexp,2022.2.4,119.9655990788058,
14,0,14,0,,,,,,,,,,,,,,,,,,,,,,,,,,,,,,,,,,,,,,,,,,,,,,,,,,,,,,,,,,,224.9071809980087,224.9071809980087,224.9071809980087,224.9071809980087,224.9071809980087,224.9071809980087,s,1,0.7111676238710061,225.63224144338164,226.6489838239504,,,,,,,,,,,,,,,,,,,,,,,,,,,,,,,,,,,,,,,567,2023-05-16_16h05.03.145,eb_02psyexp,2022.2.4,119.9655990788058,
15,0,15,0,,,,,,,,,,,,,,,,,,,,,,,,,,,,,,,,,,,,,,,,,,,,,,,,,,,,,,,,,,,226.6489838239504,226.6489838239504,226.6489838239504,226.6489838239504,226.6489838239504,226.6489838239504,l,1,0.5454118382185698,227.20738987775985,228.23249107284937,,,,,,,,,,,,,,,,,,,,,,,,,,,,,,,,,,,,,,,567,2023-05-16_16h05.03.145,eb_02psyexp,2022.2.4,119.9655990788058,
16,0,16,0,,,,,,,,,,,,,,,,,,,,,,,,,,,,,,,,,,,,,,,,,,,,,,,,,,,,,,,,,,,228.23249107284937,228.23249107284937,228.23249107284937,228.23249107284937,228.23249107284937,228.23249107284937,l,1,0.7699386137537658,229.0158522266429,230.03257377957925,,,,,,,,,,,,,,,,,,,,,,,,,,,,,,,,,,,,,,,567,2023-05-16_16h05.03.145,eb_02psyexp,2022.2.4,119.9655990788058,
17,0,17,0,,,,,,,,,,,,,,,,,,,,,,,,,,,,,,,,,,,,,,,,,,,,,,,,,,,,,,,,,,,230.03257377957925,230.03257377957925,230.03257377957925,230.03257377957925,230.03257377957925,230.03257377957925,l,1,0.48989961482584476,230.53265376971103,231.55775798321702,,,,,,,,,,,,,,,,,,,,,,,,,,,,,,,,,,,,,,,567,2023-05-16_16h05.03.145,eb_02psyexp,2022.2.4,119.9655990788058,
18,0,18,0,,,,,,,,,,,,,,,,,,,,,,,,,,,,,,,,,,,,,,,,,,,,,,,,,,,,,,,,,,,231.55775798321702,231.55775798321702,231.55775798321702,231.55775798321702,231.55775798321702,231.55775798321702,s,1,0.5557417294476181,232.1244854221586,233.15787781740073,,,,,,,,,,,,,,,,,,,,,,,,,,,,,,,,,,,,,,,567,2023-05-16_16h05.03.145,eb_02psyexp,2022.2.4,119.9655990788058,
19,0,19,0,,,,,,,,,,,,,,,,,,,,,,,,,,,,,,,,,,,,,,,,,,,,,,,,,,,,,,,,,,,233.15787781740073,233.15787781740073,233.15787781740073,233.15787781740073,233.15787781740073,233.15787781740073,l,1,0.4996242979541421,233.66626138344873,234.69136589881964,,,,,,,,,,,,,,,,,,,,,,,,,,,,,,,,,,,,,,,567,2023-05-16_16h05.03.145,eb_02psyexp,2022.2.4,119.9655990788058,
20,0,20,0,,,,,,,,,,,,,,,,,,,,,,,,,,,,,,,,,,,,,,,,,,,,,,,,,,,,,,,,,,,234.69136589881964,234.69136589881964,234.69136589881964,234.69136589881964,234.69136589881964,234.69136589881964,s,1,0.4541962603107095,235.15806918998715,236.17480040201917,,,,,,,,,,,,,,,,,,,,,,,,,,,,,,,,,,,,,,,567,2023-05-16_16h05.03.145,eb_02psyexp,2022.2.4,119.9655990788058,
21,0,21,0,,,,,,,,,,,,,,,,,,,,,,,,,,,,,,,,,,,,,,,,,,,,,,,,,,,,,,,,,,,236.17480040201917,236.17480040201917,236.17480040201917,236.17480040201917,236.17480040201917,236.17480040201917,s,1,0.42679225595202297,236.61653772671707,237.64161658484954,,,,,,,,,,,,,,,,,,,,,,,,,,,,,,,,,,,,,,,567,2023-05-16_16h05.03.145,eb_02psyexp,2022.2.4,119.9655990788058,
22,0,22,0,,,,,,,,,,,,,,,,,,,,,,,,,,,,,,,,,,,,,,,,,,,,,,,,,,,,,,,,,,,237.64161658484954,237.64161658484954,237.64161658484954,237.64161658484954,237.64161658484954,237.64161658484954,s,1,0.5359959470806643,238.1916765018832,239.20841103442945,,,,,,,,,,,,,,,,,,,,,,,,,,,,,,,,,,,,,,,567,2023-05-16_16h05.03.145,eb_02psyexp,2022.2.4,119.9655990788058,
23,0,23,0,,,,,,,,,,,,,,,,,,,,,,,,,,,,,,,,,,,,,,,,,,,,,,,,,,,,,,,,,,,239.20841103442945,239.20841103442945,239.20841103442945,239.20841103442945,239.20841103442945,239.20841103442945,s,1,0.5772355218650773,239.8001409637509,240.82522978284396,,,,,,,,,,,,,,,,,,,,,,,,,,,,,,,,,,,,,,,567,2023-05-16_16h05.03.145,eb_02psyexp,2022.2.4,119.9655990788058,
24,0,24,0,,,,,,,,,,,,,,,,,,,,,,,,,,,,,,,,,,,,,,,,,,,,,,,,,,,,,,,,,,,240.82522978284396,240.82522978284396,240.82522978284396,240.82522978284396,240.82522978284396,240.82522978284396,s,1,0.49643888091668487,241.33361516008154,242.35869220714085,,,,,,,,,,,,,,,,,,,,,,,,,,,,,,,,,,,,,,,567,2023-05-16_16h05.03.145,eb_02psyexp,2022.2.4,119.9655990788058,
25,0,25,0,,,,,,,,,,,,,,,,,,,,,,,,,,,,,,,,,,,,,,,,,,,,,,,,,,,,,,,,,,,242.35869220714085,242.35869220714085,242.35869220714085,242.35869220714085,242.35869220714085,242.35869220714085,l,1,0.7150340132648125,243.08377770602237,244.10048959974665,,,,,,,,,,,,,,,,,,,,,,,,,,,,,,,,,,,,,,,567,2023-05-16_16h05.03.145,eb_02psyexp,2022.2.4,119.9655990788058,
26,0,26,0,,,,,,,,,,,,,,,,,,,,,,,,,,,,,,,,,,,,,,,,,,,,,,,,,,,,,,,,,,,244.10048959974665,244.10048959974665,244.10048959974665,244.10048959974665,244.10048959974665,244.10048959974665,l,1,0.5092502762563527,244.62556121358648,245.6506536549423,,,,,,,,,,,,,,,,,,,,,,,,,,,,,,,,,,,,,,,567,2023-05-16_16h05.03.145,eb_02psyexp,2022.2.4,119.9655990788058,
27,0,27,0,,,,,,,,,,,,,,,,,,,,,,,,,,,,,,,,,,,,,,,,,,,,,,,,,,,,,,,,,,,245.6506536549423,245.6506536549423,245.6506536549423,245.6506536549423,245.6506536549423,245.6506536549423,s,1,1.0871355795534328,246.7507777151186,247.7841489808634,,,,,,,,,,,,,,,,,,,,,,,,,,,,,,,,,,,,,,,567,2023-05-16_16h05.03.145,eb_02psyexp,2022.2.4,119.9655990788058,
28,0,28,0,,,,,,,,,,,,,,,,,,,,,,,,,,,,,,,,,,,,,,,,,,,,,,,,,,,,,,,,,,,247.7841489808634,247.7841489808634,247.7841489808634,247.7841489808634,247.7841489808634,247.7841489808634,l,1,0.6566699164686725,248.45088970125653,249.47595950390678,,,,,,,,,,,,,,,,,,,,,,,,,,,,,,,,,,,,,,,567,2023-05-16_16h05.03.145,eb_02psyexp,2022.2.4,119.9655990788058,
29,0,29,0,,,,,,,,,,,,,,,,,,,,,,,,,,,,,,,,,,,,,,,,,,,,,,,,,,,,,,,,,,,249.47595950390678,249.47595950390678,249.47595950390678,249.47595950390678,249.47595950390678,249.47595950390678,s,1,0.5329122532857582,250.0176850563148,251.03444494423456,,,,,,,,,,,,,,,,,,,,,,,,,,,,,,,,,,,,,,,567,2023-05-16_16h05.03.145,eb_02psyexp,2022.2.4,119.9655990788058,
30,0,30,0,,,,,,,,,,,,,,,,,,,,,,,,,,,,,,,,,,,,,,,,,,,,,,,,,,,,,,,,,,,251.03444494423456,251.03444494423456,251.03444494423456,251.03444494423456,251.03444494423456,251.03444494423456,s,1,0.5264303385047242,251.5761738170404,252.6012508640997,,,,,,,,,,,,,,,,,,,,,,,,,,,,,,,,,,,,,,,567,2023-05-16_16h05.03.145,eb_02psyexp,2022.2.4,119.9655990788058,
31,0,31,0,,,,,,,,,,,,,,,,,,,,,,,,,,,,,,,,,,,,,,,,,,,,,,,,,,,,,,,,,,,252.6012508640997,252.6012508640997,252.6012508640997,252.6012508640997,252.6012508640997,252.6012508640997,l,1,0.6076574168400839,253.21797664288897,254.2513868472306,,,,,,,,,,,,,,,,,,,,,,,,,,,,,,,,,,,,,,,567,2023-05-16_16h05.03.145,eb_02psyexp,2022.2.4,119.9655990788058,
32,0,32,0,,,,,,,,,,,,,,,,,,,,,,,,,,,,,,,,,,,,,,,,,,,,,,,,,,,,,,,,,,,254.2513868472306,254.2513868472306,254.2513868472306,254.2513868472306,254.2513868472306,254.2513868472306,l,1,0.6135652139782906,254.87645453691948,255.9015370173147,,,,,,,,,,,,,,,,,,,,,,,,,,,,,,,,,,,,,,,567,2023-05-16_16h05.03.145,eb_02psyexp,2022.2.4,119.9655990788058,
33,0,33,0,,,,,,,,,,,,,,,,,,,,,,,,,,,,,,,,,,,,,,,,,,,,,,,,,,,,,,,,,,,255.9015370173147,255.9015370173147,255.9015370173147,255.9015370173147,255.9015370173147,255.9015370173147,l,1,0.5074437074363232,256.41823955380823,257.43499702680856,,,,,,,,,,,,,,,,,,,,,,,,,,,,,,,,,,,,,,,567,2023-05-16_16h05.03.145,eb_02psyexp,2022.2.4,119.9655990788058,
34,0,34,0,,,,,,,,,,,,,,,,,,,,,,,,,,,,,,,,,,,,,,,,,,,,,,,,,,,,,,,,,,,257.43499702680856,257.43499702680856,257.43499702680856,257.43499702680856,257.43499702680856,257.43499702680856,s,1,0.5260155973955989,257.9767083923798,259.0018029466737,,,,,,,,,,,,,,,,,,,,,,,,,,,,,,,,,,,,,,,567,2023-05-16_16h05.03.145,eb_02psyexp,2022.2.4,119.9655990788058,
35,0,35,0,,,,,,,,,,,,,,,,,,,,,,,,,,,,,,,,,,,,,,,,,,,,,,,,,,,,,,,,,,,259.0018029466737,259.0018029466737,259.0018029466737,259.0018029466737,259.0018029466737,259.0018029466737,s,1,0.5032000063220039,259.5185235940153,260.55195613519754,,,,,,,,,,,,,,,,,,,,,,,,,,,,,,,,,,,,,,,567,2023-05-16_16h05.03.145,eb_02psyexp,2022.2.4,119.9655990788058,
36,0,36,0,,,,,,,,,,,,,,,,,,,,,,,,,,,,,,,,,,,,,,,,,,,,,,,,,,,,,,,,,,,260.55195613519754,260.55195613519754,260.55195613519754,260.55195613519754,260.55195613519754,260.55195613519754,s,1,0.7611469471594319,261.3270318240393,262.35210947471205,,,,,,,,,,,,,,,,,,,,,,,,,,,,,,,,,,,,,,,567,2023-05-16_16h05.03.145,eb_02psyexp,2022.2.4,119.9655990788058,
37,0,37,0,,,,,,,,,,,,,,,,,,,,,,,,,,,,,,,,,,,,,,,,,,,,,,,,,,,,,,,,,,,262.35210947471205,262.35210947471205,262.35210947471205,262.35210947471205,262.35210947471205,262.35210947471205,l,1,0.7600605910411105,263.1271576952422,264.1605905382894,,,,,,,,,,,,,,,,,,,,,,,,,,,,,,,,,,,,,,,567,2023-05-16_16h05.03.145,eb_02psyexp,2022.2.4,119.9655990788058,
38,0,38,0,,,,,,,,,,,,,,,,,,,,,,,,,,,,,,,,,,,,,,,,,,,,,,,,,,,,,,,,,,,264.1605905382894,264.1605905382894,264.1605905382894,264.1605905382894,264.1605905382894,264.1605905382894,s,1,0.5355609819525853,264.7106386831729,265.7273858933477,,,,,,,,,,,,,,,,,,,,,,,,,,,,,,,,,,,,,,,567,2023-05-16_16h05.03.145,eb_02psyexp,2022.2.4,119.9655990788058,
39,0,39,0,,,,,,,,,,,,,,,,,,,,,,,,,,,,,,,,,,,,,,,,,,,,,,,,,,,,,,,,,,,265.7273858933477,265.7273858933477,265.7273858933477,265.7273858933477,265.7273858933477,265.7273858933477,l,1,0.9047919601434842,266.64413099060766,267.66922313009854,,,,,,,,,,,,,,,,,,,,,,,,,,,,,,,,,,,,,,,567,2023-05-16_16h05.03.145,eb_02psyexp,2022.2.4,119.9655990788058,
40,0,40,0,,,,,,,,,,,,,,,,,,,,,,,,,,,,,,,,,,,,,,,,,,,,,,,,,,,,,,,,,,,267.66922313009854,267.66922313009854,267.66922313009854,267.66922313009854,267.66922313009854,267.66922313009854,l,1,1.0189794871257618,268.70264088071417,269.7193642447237,,,,,,,,,,,,,,,,,,,,,,,,,,,,,,,,,,,,,,,567,2023-05-16_16h05.03.145,eb_02psyexp,2022.2.4,119.9655990788058,
41,0,41,0,,,,,,,,,,,,,,,,,,,,,,,,,,,,,,,,,,,,,,,,,,,,,,,,,,,,,,,,,,,269.7193642447237,269.7193642447237,269.7193642447237,269.7193642447237,269.7193642447237,269.7193642447237,l,1,0.7048915704945102,270.4361244344618,271.46954912750516,,,,,,,,,,,,,,,,,,,,,,,,,,,,,,,,,,,,,,,567,2023-05-16_16h05.03.145,eb_02psyexp,2022.2.4,119.9655990788058,
42,0,42,0,,,,,,,,,,,,,,,,,,,,,,,,,,,,,,,,,,,,,,,,,,,,,,,,,,,,,,,,,,,271.46954912750516,271.46954912750516,271.46954912750516,271.46954912750516,271.46954912750516,271.46954912750516,s,1,0.594737053848803,272.07794869167265,273.1030133628519,,,,,,,,,,,,,,,,,,,,,,,,,,,,,,,,,,,,,,,567,2023-05-16_16h05.03.145,eb_02psyexp,2022.2.4,119.9655990788058,
43,0,43,0,,,,,,,,,,,,,,,,,,,,,,,,,,,,,,,,,,,,,,,,,,,,,,,,,,,,,,,,,,,273.1030133628519,273.1030133628519,273.1030133628519,273.1030133628519,273.1030133628519,273.1030133628519,s,1,0.6653118656249717,273.7780860331841,274.79485195793677,,,,,,,,,,,,,,,,,,,,,,,,,,,,,,,,,,,,,,,567,2023-05-16_16h05.03.145,eb_02psyexp,2022.2.4,119.9655990788058,
44,0,44,0,,,,,,,,,,,,,,,,,,,,,,,,,,,,,,,,,,,,,,,,,,,,,,,,,,,,,,,,,,,274.79485195793677,274.79485195793677,274.79485195793677,274.79485195793677,274.79485195793677,274.79485195793677,s,1,0.49348649149760604,275.30321771500167,276.32830653409474,,,,,,,,,,,,,,,,,,,,,,,,,,,,,,,,,,,,,,,567,2023-05-16_16h05.03.145,eb_02psyexp,2022.2.4,119.9655990788058,
45,0,45,0,,,,,,,,,,,,,,,,,,,,,,,,,,,,,,,,,,,,,,,,,,,,,,,,,,,,,,,,,,,276.32830653409474,276.32830653409474,276.32830653409474,276.32830653409474,276.32830653409474,276.32830653409474,l,1,0.5761099252849817,276.9200243894011,277.9451035495149,,,,,,,,,,,,,,,,,,,,,,,,,,,,,,,,,,,,,,,567,2023-05-16_16h05.03.145,eb_02psyexp,2022.2.4,119.9655990788058,
46,0,46,0,,,,,,,,,,,,,,,,,,,,,,,,,,,,,,,,,,,,,,,,,,,,,,,,,,,,,,,,,,,277.9451035495149,277.9451035495149,277.9451035495149,277.9451035495149,277.9451035495149,277.9451035495149,s,1,0.5743293155683205,278.52850092516746,279.5619274294004,,,,,,,,,,,,,,,,,,,,,,,,,,,,,,,,,,,,,,,567,2023-05-16_16h05.03.145,eb_02psyexp,2022.2.4,119.9655990788058,
47,0,47,0,,,,,,,,,,,,,,,,,,,,,,,,,,,,,,,,,,,,,,,,,,,,,,,,,,,,,,,,,,,279.5619274294004,279.5619274294004,279.5619274294004,279.5619274294004,279.5619274294004,279.5619274294004,l,1,0.4935257319593802,280.07031159917824,281.09539075917564,,,,,,,,,,,,,,,,,,,,,,,,,,,,,,,,,,,,,,,567,2023-05-16_16h05.03.145,eb_02psyexp,2022.2.4,119.9655990788058,
48,0,48,0,,,,,,,,,,,,,,,,,,,,,,,,,,,,,,,,,,,,,,,,,,,,,,,,,,,,,,,,,,,281.09539075917564,281.09539075917564,281.09539075917564,281.09539075917564,281.09539075917564,281.09539075917564,s,1,0.5840980686480179,281.6954779936932,282.7122110169148,,,,,,,,,,,,,,,,,,,,,,,,,,,,,,,,,,,,,,,567,2023-05-16_16h05.03.145,eb_02psyexp,2022.2.4,119.9655990788058,
49,0,49,0,,,,,,,,,,,,,,,,,,,,,,,,,,,,,,,,,,,,,,,,,,,,,,,,,,,,,,,,,,,282.7122110169148,282.7122110169148,282.7122110169148,282.7122110169148,282.7122110169148,282.7122110169148,l,1,0.4953163027530536,283.22059609228745,284.2456483877031,,,,,,,,,,,,,,,,,,,,,,,,,,,,,,,,,,,,,,,567,2023-05-16_16h05.03.145,eb_02psyexp,2022.2.4,119.9655990788058,
50,0,50,0,,,,,,,,,,,,,,,,,,,,,,,,,,,,,,,,,,,,,,,,,,,,,,,,,,,,,,,,,,,284.2456483877031,284.2456483877031,284.2456483877031,284.2456483877031,284.2456483877031,284.2456483877031,l,1,0.6178801516070962,284.87904953653924,285.91249596280977,,,,,,,,,,,,,,,,,,,,,,,,,,,,,,,,,,,,,,,567,2023-05-16_16h05.03.145,eb_02psyexp,2022.2.4,119.9655990788058,
51,0,51,0,,,,,,,,,,,,,,,,,,,,,,,,,,,,,,,,,,,,,,,,,,,,,,,,,,,,,,,,,,,285.91249596280977,285.91249596280977,285.91249596280977,285.91249596280977,285.91249596280977,285.91249596280977,l,1,0.5350647415034473,286.46252328017727,287.4876247770153,,,,,,,,,,,,,,,,,,,,,,,,,,,,,,,,,,,,,,,567,2023-05-16_16h05.03.145,eb_02psyexp,2022.2.4,119.9655990788058,
52,0,52,0,,,,,,,,,,,,,,,,,,,,,,,,,,,,,,,,,,,,,,,,,,,,,,,,,,,,,,,,,,,287.4876247770153,287.4876247770153,287.4876247770153,287.4876247770153,287.4876247770153,287.4876247770153,s,1,0.8319940272485837,288.3293636108283,289.34610900992993,,,,,,,,,,,,,,,,,,,,,,,,,,,,,,,,,,,,,,,567,2023-05-16_16h05.03.145,eb_02psyexp,2022.2.4,119.9655990788058,
53,0,53,0,,,,,,,,,,,,,,,,,,,,,,,,,,,,,,,,,,,,,,,,,,,,,,,,,,,,,,,,,,,289.34610900992993,289.34610900992993,289.34610900992993,289.34610900992993,289.34610900992993,289.34610900992993,l,1,0.5895636562490836,289.946173303877,290.97126936737914,,,,,,,,,,,,,,,,,,,,,,,,,,,,,,,,,,,,,,,567,2023-05-16_16h05.03.145,eb_02psyexp,2022.2.4,119.9655990788058,
54,0,54,0,,,,,,,,,,,,,,,,,,,,,,,,,,,,,,,,,,,,,,,,,,,,,,,,,,,,,,,,,,,290.97126936737914,290.97126936737914,290.97126936737914,290.97126936737914,290.97126936737914,290.97126936737914,l,1,0.5484336528461426,291.52965821593534,292.54637705220375,,,,,,,,,,,,,,,,,,,,,,,,,,,,,,,,,,,,,,,567,2023-05-16_16h05.03.145,eb_02psyexp,2022.2.4,119.9655990788058,
55,0,55,0,,,,,,,,,,,,,,,,,,,,,,,,,,,,,,,,,,,,,,,,,,,,,,,,,,,,,,,,,,,292.54637705220375,292.54637705220375,292.54637705220375,292.54637705220375,292.54637705220375,292.54637705220375,s,1,0.5493286363780499,293.10476680623833,294.12987252895255,,,,,,,,,,,,,,,,,,,,,,,,,,,,,,,,,,,,,,,567,2023-05-16_16h05.03.145,eb_02psyexp,2022.2.4,119.9655990788058,
56,0,56,0,,,,,,,,,,,,,,,,,,,,,,,,,,,,,,,,,,,,,,,,,,,,,,,,,,,,,,,,,,,294.12987252895255,294.12987252895255,294.12987252895255,294.12987252895255,294.12987252895255,294.12987252895255,s,1,0.5088880569674075,294.65488558402285,295.6716430570232,,,,,,,,,,,,,,,,,,,,,,,,,,,,,,,,,,,,,,,567,2023-05-16_16h05.03.145,eb_02psyexp,2022.2.4,119.9655990788058,
57,0,57,0,,,,,,,,,,,,,,,,,,,,,,,,,,,,,,,,,,,,,,,,,,,,,,,,,,,,,,,,,,,295.6716430570232,295.6716430570232,295.6716430570232,295.6716430570232,295.6716430570232,295.6716430570232,l,1,0.5431446470320225,296.2300379425287,297.25512827094644,,,,,,,,,,,,,,,,,,,,,,,,,,,,,,,,,,,,,,,567,2023-05-16_16h05.03.145,eb_02psyexp,2022.2.4,119.9655990788058,
58,0,58,0,,,,,,,,,,,,,,,,,,,,,,,,,,,,,,,,,,,,,,,,,,,,,,,,,,,,,,,,,,,297.25512827094644,297.25512827094644,297.25512827094644,297.25512827094644,297.25512827094644,297.25512827094644,s,1,0.5676807799609378,297.83852474112064,298.8719473212259,,,,,,,,,,,,,,,,,,,,,,,,,,,,,,,,,,,,,,,567,2023-05-16_16h05.03.145,eb_02psyexp,2022.2.4,119.9655990788058,
59,0,59,0,,,,,,,,,,,,,,,,,,,,,,,,,,,,,,,,,,,,,,,,,,,,,,,,,,,,,,,,,,,298.8719473212259,298.8719473212259,298.8719473212259,298.8719473212259,298.8719473212259,298.8719473212259,l,1,0.4709039281588048,299.3553235675208,300.3804211403476,,,,,,,,,,,,,,,,,,,,,,,,,,,,,,,,,,,,,,,567,2023-05-16_16h05.03.145,eb_02psyexp,2022.2.4,119.9655990788058,
60,0,60,0,,,,,,,,,,,,,,,,,,,,,,,,,,,,,,,,,,,,,,,,,,,,,,,,,,,,,,,,,,,300.3804211403476,300.3804211403476,300.3804211403476,300.3804211403476,300.3804211403476,300.3804211403476,l,1,0.4424434507964179,300.83878644451033,301.8555312398821,,,,,,,,,,,,,,,,,,,,,,,,,,,,,,,,,,,,,,,567,2023-05-16_16h05.03.145,eb_02psyexp,2022.2.4,119.9655990788058,
61,0,61,0,,,,,,,,,,,,,,,,,,,,,,,,,,,,,,,,,,,,,,,,,,,,,,,,,,,,,,,,,,,301.8555312398821,301.8555312398821,301.8555312398821,301.8555312398821,301.8555312398821,301.8555312398821,l,1,0.5113668445264921,302.38059440185316,303.40566209168173,,,,,,,,,,,,,,,,,,,,,,,,,,,,,,,,,,,,,,,567,2023-05-16_16h05.03.145,eb_02psyexp,2022.2.4,119.9655990788058,
62,0,62,0,,,,,,,,,,,,,,,,,,,,,,,,,,,,,,,,,,,,,,,,,,,,,,,,,,,,,,,,,,,303.40566209168173,303.40566209168173,303.40566209168173,303.40566209168173,303.40566209168173,303.40566209168173,s,1,0.5212635818170384,303.93903788516764,304.9558146764757,,,,,,,,,,,,,,,,,,,,,,,,,,,,,,,,,,,,,,,567,2023-05-16_16h05.03.145,eb_02psyexp,2022.2.4,119.9655990788058,
63,0,63,0,,,,,,,,,,,,,,,,,,,,,,,,,,,,,,,,,,,,,,,,,,,,,,,,,,,,,,,,,,,304.9558146764757,304.9558146764757,304.9558146764757,304.9558146764757,304.9558146764757,304.9558146764757,l,1,0.7951469653053209,305.7642151461914,306.789298532065,,,,,,,,,,,,,,,,,,,,,,,,,,,,,,,,,,,,,,,567,2023-05-16_16h05.03.145,eb_02psyexp,2022.2.4,119.9655990788058,
64,0,64,0,,,,,,,,,,,,,,,,,,,,,,,,,,,,,,,,,,,,,,,,,,,,,,,,,,,,,,,,,,,306.789298532065,306.789298532065,306.789298532065,306.789298532065,306.789298532065,306.789298532065,s,1,0.38570390769746155,307.1893263022648,308.2061088287737,,,,,,,,,,,,,,,,,,,,,,,,,,,,,,,,,,,,,,,567,2023-05-16_16h05.03.145,eb_02psyexp,2022.2.4,119.9655990788058,
65,0,65,0,,,,,,,,,,,,,,,,,,,,,,,,,,,,,,,,,,,,,,,,,,,,,,,,,,,,,,,,,,,308.2061088287737,308.2061088287737,308.2061088287737,308.2061088287737,308.2061088287737,308.2061088287737,l,1,0.4409091501729563,308.65614671085496,309.68120806175284,,,,,,,,,,,,,,,,,,,,,,,,,,,,,,,,,,,,,,,567,2023-05-16_16h05.03.145,eb_02psyexp,2022.2.4,119.9655990788058,
66,0,66,0,,,,,,,,,,,,,,,,,,,,,,,,,,,,,,,,,,,,,,,,,,,,,,,,,,,,,,,,,,,309.68120806175284,309.68120806175284,309.68120806175284,309.68120806175284,309.68120806175284,309.68120806175284,s,1,0.5088467035675421,310.2062503962079,311.22300122852903,,,,,,,,,,,,,,,,,,,,,,,,,,,,,,,,,,,,,,,567,2023-05-16_16h05.03.145,eb_02psyexp,2022.2.4,119.9655990788058,
67,0,67,0,,,,,,,,,,,,,,,,,,,,,,,,,,,,,,,,,,,,,,,,,,,,,,,,,,,,,,,,,,,311.22300122852903,311.22300122852903,311.22300122852903,311.22300122852903,311.22300122852903,311.22300122852903,l,1,0.4790894810575992,311.71472029120196,312.7398106196197,,,,,,,,,,,,,,,,,,,,,,,,,,,,,,,,,,,,,,,567,2023-05-16_16h05.03.145,eb_02psyexp,2022.2.4,119.9655990788058,
68,0,68,0,,,,,,,,,,,,,,,,,,,,,,,,,,,,,,,,,,,,,,,,,,,,,,,,,,,,,,,,,,,312.7398106196197,312.7398106196197,312.7398106196197,312.7398106196197,312.7398106196197,312.7398106196197,l,1,0.5463194993790239,313.29820369405206,314.3149632799905,,,,,,,,,,,,,,,,,,,,,,,,,,,,,,,,,,,,,,,567,2023-05-16_16h05.03.145,eb_02psyexp,2022.2.4,119.9655990788058,
69,0,69,0,,,,,,,,,,,,,,,,,,,,,,,,,,,,,,,,,,,,,,,,,,,,,,,,,,,,,,,,,,,314.3149632799905,314.3149632799905,314.3149632799905,314.3149632799905,314.3149632799905,314.3149632799905,l,1,0.4991751459892839,314.82331545383204,315.8484350616345,,,,,,,,,,,,,,,,,,,,,,,,,,,,,,,,,,,,,,,567,2023-05-16_16h05.03.145,eb_02psyexp,2022.2.4,119.9655990788058,
70,0,70,0,,,,,,,,,,,,,,,,,,,,,,,,,,,,,,,,,,,,,,,,,,,,,,,,,,,,,,,,,,,315.8484350616345,315.8484350616345,315.8484350616345,315.8484350616345,315.8484350616345,315.8484350616345,l,1,1.0697680687298998,316.9318366632797,317.9569260861026,,,,,,,,,,,,,,,,,,,,,,,,,,,,,,,,,,,,,,,567,2023-05-16_16h05.03.145,eb_02psyexp,2022.2.4,119.9655990788058,
71,0,71,0,,,,,,,,,,,,,,,,,,,,,,,,,,,,,,,,,,,,,,,,,,,,,,,,,,,,,,,,,,,317.9569260861026,317.9569260861026,317.9569260861026,317.9569260861026,317.9569260861026,317.9569260861026,s,1,0.5693382351892069,318.5403313098941,319.5737457401119,,,,,,,,,,,,,,,,,,,,,,,,,,,,,,,,,,,,,,,567,2023-05-16_16h05.03.145,eb_02psyexp,2022.2.4,119.9655990788058,
72,0,72,0,,,,,,,,,,,,,,,,,,,,,,,,,,,,,,,,,,,,,,,,,,,,,,,,,,,,,,,,,,,319.5737457401119,319.5737457401119,319.5737457401119,319.5737457401119,319.5737457401119,319.5737457401119,l,1,0.4805169270839542,320.06544820114505,321.0905376240844,,,,,,,,,,,,,,,,,,,,,,,,,,,,,,,,,,,,,,,567,2023-05-16_16h05.03.145,eb_02psyexp,2022.2.4,119.9655990788058,
73,0,73,0,,,,,,,,,,,,,,,,,,,,,,,,,,,,,,,,,,,,,,,,,,,,,,,,,,,,,,,,,,,321.0905376240844,321.0905376240844,321.0905376240844,321.0905376240844,321.0905376240844,321.0905376240844,s,1,0.48376211035065353,321.59057988296263,322.6156765501946,,,,,,,,,,,,,,,,,,,,,,,,,,,,,,,,,,,,,,,567,2023-05-16_16h05.03.145,eb_02psyexp,2022.2.4,119.9655990788058,
74,0,74,0,,,,,,,,,,,,,,,,,,,,,,,,,,,,,,,,,,,,,,,,,,,,,,,,,,,,,,,,,,,322.6156765501946,322.6156765501946,322.6156765501946,322.6156765501946,322.6156765501946,322.6156765501946,l,1,0.4706518839811906,323.09902834671084,324.1158105713548,,,,,,,,,,,,,,,,,,,,,,,,,,,,,,,,,,,,,,,567,2023-05-16_16h05.03.145,eb_02psyexp,2022.2.4,119.9655990788058,
75,0,75,0,,,,,,,,,,,,,,,,,,,,,,,,,,,,,,,,,,,,,,,,,,,,,,,,,,,,,,,,,,,324.1158105713548,324.1158105713548,324.1158105713548,324.1158105713548,324.1158105713548,324.1158105713548,s,1,0.47454574157018214,324.59918983618263,325.62428680527955,,,,,,,,,,,,,,,,,,,,,,,,,,,,,,,,,,,,,,,567,2023-05-16_16h05.03.145,eb_02psyexp,2022.2.4,119.9655990788058,
76,0,76,0,,,,,,,,,,,,,,,,,,,,,,,,,,,,,,,,,,,,,,,,,,,,,,,,,,,,,,,,,,,325.62428680527955,325.62428680527955,325.62428680527955,325.62428680527955,325.62428680527955,325.62428680527955,s,1,0.5410878451075405,326.17430868931115,327.20775481371675,,,,,,,,,,,,,,,,,,,,,,,,,,,,,,,,,,,,,,,567,2023-05-16_16h05.03.145,eb_02psyexp,2022.2.4,119.9655990788058,
77,0,77,0,,,,,,,,,,,,,,,,,,,,,,,,,,,,,,,,,,,,,,,,,,,,,,,,,,,,,,,,,,,327.20775481371675,327.20775481371675,327.20775481371675,327.20775481371675,327.20775481371675,327.20775481371675,s,0,0.3816401087678969,327.599437956349,328.62455937534105,,,,,,,,,,,,,,,,,,,,,,,,,,,,,,,,,,,,,,,567,2023-05-16_16h05.03.145,eb_02psyexp,2022.2.4,119.9655990788058,
78,0,78,0,,,,,,,,,,,,,,,,,,,,,,,,,,,,,,,,,,,,,,,,,,,,,,,,,,,,,,,,,,,328.62455937534105,328.62455937534105,328.62455937534105,328.62455937534105,328.62455937534105,328.62455937534105,l,1,0.5169018575688824,329.15790438011754,330.17467271978967,,,,,,,,,,,,,,,,,,,,,,,,,,,,,,,,,,,,,,,567,2023-05-16_16h05.03.145,eb_02psyexp,2022.2.4,119.9655990788058,
79,0,79,0,,,,,,,,,,,,,,,,,,,,,,,,,,,,,,,,,,,,,,,,,,,,,,,,,,,,,,,,,,,330.17467271978967,330.17467271978967,330.17467271978967,330.17467271978967,330.17467271978967,330.17467271978967,s,1,0.5828257732791826,330.76639087696094,331.79147214989644,,,,,,,,,,,,,,,,,,,,,,,,,,,,,,,,,,,,,,,567,2023-05-16_16h05.03.145,eb_02psyexp,2022.2.4,119.9655990788058,
80,0,80,0,,,,,,,,,,,,,,,,,,,,,,,,,,,,,,,,,,,,,,,,,,,,,,,,,,,,,,,,,,,331.79147214989644,331.79147214989644,331.79147214989644,331.79147214989644,331.79147214989644,331.79147214989644,s,1,0.5180522057926282,332.32486213033553,333.3582856160356,,,,,,,,,,,,,,,,,,,,,,,,,,,,,,,,,,,,,,,567,2023-05-16_16h05.03.145,eb_02psyexp,2022.2.4,119.9655990788058,
81,0,81,0,,,,,,,,,,,,,,,,,,,,,,,,,,,,,,,,,,,,,,,,,,,,,,,,,,,,,,,,,,,333.3582856160356,333.3582856160356,333.3582856160356,333.3582856160356,333.3582856160356,333.3582856160356,s,1,0.6152281024260446,333.9833373076981,335.000094177085,,,,,,,,,,,,,,,,,,,,,,,,,,,,,,,,,,,,,,,567,2023-05-16_16h05.03.145,eb_02psyexp,2022.2.4,119.9655990788058,
82,0,82,0,,,,,,,,,,,,,,,,,,,,,,,,,,,,,,,,,,,,,,,,,,,,,,,,,,,,,,,,,,,335.000094177085,335.000094177085,335.000094177085,335.000094177085,335.000094177085,335.000094177085,l,1,0.6214395600836724,335.63348053523805,336.666899493197,,,,,,,,,,,,,,,,,,,,,,,,,,,,,,,,,,,,,,,567,2023-05-16_16h05.03.145,eb_02psyexp,2022.2.4,119.9655990788058,
83,0,83,0,,,,,,,,,,,,,,,,,,,,,,,,,,,,,,,,,,,,,,,,,,,,,,,,,,,,,,,,,,,336.666899493197,336.666899493197,336.666899493197,336.666899493197,336.666899493197,336.666899493197,s,1,0.5546982359373942,337.23362089518923,338.25035512587056,,,,,,,,,,,,,,,,,,,,,,,,,,,,,,,,,,,,,,,567,2023-05-16_16h05.03.145,eb_02psyexp,2022.2.4,119.9655990788058,
84,0,84,0,,,,,,,,,,,,,,,,,,,,,,,,,,,,,,,,,,,,,,,,,,,,,,,,,,,,,,,,,,,338.25035512587056,338.25035512587056,338.25035512587056,338.25035512587056,338.25035512587056,338.25035512587056,l,1,0.5552720515988767,338.817047550343,339.8421798358904,,,,,,,,,,,,,,,,,,,,,,,,,,,,,,,,,,,,,,,567,2023-05-16_16h05.03.145,eb_02psyexp,2022.2.4,119.9655990788058,
85,0,85,0,,,,,,,,,,,,,,,,,,,,,,,,,,,,,,,,,,,,,,,,,,,,,,,,,,,,,,,,,,,339.8421798358904,339.8421798358904,339.8421798358904,339.8421798358904,339.8421798358904,339.8421798358904,l,1,0.6114972435170785,340.4672224720707,341.4839663619641,,,,,,,,,,,,,,,,,,,,,,,,,,,,,,,,,,,,,,,567,2023-05-16_16h05.03.145,eb_02psyexp,2022.2.4,119.9655990788058,
86,0,86,0,,,,,,,,,,,,,,,,,,,,,,,,,,,,,,,,,,,,,,,,,,,,,,,,,,,,,,,,,,,341.4839663619641,341.4839663619641,341.4839663619641,341.4839663619641,341.4839663619641,341.4839663619641,l,1,0.6327151455916464,342.1257100253133,343.15079039277043,,,,,,,,,,,,,,,,,,,,,,,,,,,,,,,,,,,,,,,567,2023-05-16_16h05.03.145,eb_02psyexp,2022.2.4,119.9655990788058,
87,0,87,0,,,,,,,,,,,,,,,,,,,,,,,,,,,,,,,,,,,,,,,,,,,,,,,,,,,,,,,,,,,343.15079039277043,343.15079039277043,343.15079039277043,343.15079039277043,343.15079039277043,343.15079039277043,l,1,0.5419680380728096,343.70918527815957,344.7342635326786,,,,,,,,,,,,,,,,,,,,,,,,,,,,,,,,,,,,,,,567,2023-05-16_16h05.03.145,eb_02psyexp,2022.2.4,119.9655990788058,
88,0,88,0,,,,,,,,,,,,,,,,,,,,,,,,,,,,,,,,,,,,,,,,,,,,,,,,,,,,,,,,,,,344.7342635326786,344.7342635326786,344.7342635326786,344.7342635326786,344.7342635326786,344.7342635326786,l,1,0.4145272079622373,345.1593109985115,346.19273780449294,,,,,,,,,,,,,,,,,,,,,,,,,,,,,,,,,,,,,,,567,2023-05-16_16h05.03.145,eb_02psyexp,2022.2.4,119.9655990788058,
89,0,89,0,,,,,,,,,,,,,,,,,,,,,,,,,,,,,,,,,,,,,,,,,,,,,,,,,,,,,,,,,,,346.19273780449294,346.19273780449294,346.19273780449294,346.19273780449294,346.19273780449294,346.19273780449294,s,1,0.4600291986716911,346.66778632684145,347.69289174769074,,,,,,,,,,,,,,,,,,,,,,,,,,,,,,,,,,,,,,,567,2023-05-16_16h05.03.145,eb_02psyexp,2022.2.4,119.9655990788058,
90,0,90,0,,,,,,,,,,,,,,,,,,,,,,,,,,,,,,,,,,,,,,,,,,,,,,,,,,,,,,,,,,,347.69289174769074,347.69289174769074,347.69289174769074,347.69289174769074,347.69289174769074,347.69289174769074,l,1,0.47993828170001507,348.18456643854734,349.2096724632429,,,,,,,,,,,,,,,,,,,,,,,,,,,,,,,,,,,,,,,567,2023-05-16_16h05.03.145,eb_02psyexp,2022.2.4,119.9655990788058,
91,0,91,0,,,,,,,,,,,,,,,,,,,,,,,,,,,,,,,,,,,,,,,,,,,,,,,,,,,,,,,,,,,349.2096724632429,349.2096724632429,349.2096724632429,349.2096724632429,349.2096724632429,349.2096724632429,l,1,0.491199076641351,349.7096920834156,350.7264607248362,,,,,,,,,,,,,,,,,,,,,,,,,,,,,,,,,,,,,,,567,2023-05-16_16h05.03.145,eb_02psyexp,2022.2.4,119.9655990788058,
92,0,92,0,,,,,,,,,,,,,,,,,,,,,,,,,,,,,,,,,,,,,,,,,,,,,,,,,,,,,,,,,,,350.7264607248362,350.7264607248362,350.7264607248362,350.7264607248362,350.7264607248362,350.7264607248362,l,1,0.7344218022190034,351.4765124920523,352.50994624057785,,,,,,,,,,,,,,,,,,,,,,,,,,,,,,,,,,,,,,,567,2023-05-16_16h05.03.145,eb_02psyexp,2022.2.4,119.9655990788058,
93,0,93,0,,,,,,,,,,,,,,,,,,,,,,,,,,,,,,,,,,,,,,,,,,,,,,,,,,,,,,,,,,,352.50994624057785,352.50994624057785,352.50994624057785,352.50994624057785,352.50994624057785,352.50994624057785,s,1,0.5430009667761624,353.0683160725748,354.1017643099185,,,,,,,,,,,,,,,,,,,,,,,,,,,,,,,,,,,,,,,567,2023-05-16_16h05.03.145,eb_02psyexp,2022.2.4,119.9655990788058,
94,0,94,0,,,,,,,,,,,,,,,,,,,,,,,,,,,,,,,,,,,,,,,,,,,,,,,,,,,,,,,,,,,354.1017643099185,354.1017643099185,354.1017643099185,354.1017643099185,354.1017643099185,354.1017643099185,s,1,0.4311835615662858,354.5434530368075,355.5768777298508,,,,,,,,,,,,,,,,,,,,,,,,,,,,,,,,,,,,,,,567,2023-05-16_16h05.03.145,eb_02psyexp,2022.2.4,119.9655990788058,
95,0,95,0,,,,,,,,,,,,,,,,,,,,,,,,,,,,,,,,,,,,,,,,,,,,,,,,,,,,,,,,,,,355.5768777298508,355.5768777298508,355.5768777298508,355.5768777298508,355.5768777298508,355.5768777298508,s,1,0.4991745422594249,356.08524741092697,357.10199220629875,,,,,,,,,,,,,,,,,,,,,,,,,,,,,,,,,,,,,,,567,2023-05-16_16h05.03.145,eb_02psyexp,2022.2.4,119.9655990788058,
96,0,96,0,,,,,,,,,,,,,,,,,,,,,,,,,,,,,,,,,,,,,,,,,,,,,,,,,,,,,,,,,,,357.10199220629875,357.10199220629875,357.10199220629875,357.10199220629875,357.10199220629875,357.10199220629875,l,1,0.6140294583747163,357.72707679960877,358.7604839854175,,,,,,,,,,,,,,,,,,,,,,,,,,,,,,,,,,,,,,,567,2023-05-16_16h05.03.145,eb_02psyexp,2022.2.4,119.9655990788058,
97,0,97,0,,,,,,,,,,,,,,,,,,,,,,,,,,,,,,,,,,,,,,,,,,,,,,,,,,,,,,,,,,,358.7604839854175,358.7604839854175,358.7604839854175,358.7604839854175,358.7604839854175,358.7604839854175,s,1,0.579595380811952,359.3521976148477,360.36894241010305,,,,,,,,,,,,,,,,,,,,,,,,,,,,,,,,,,,,,,,567,2023-05-16_16h05.03.145,eb_02psyexp,2022.2.4,119.9655990788058,
98,0,98,0,,,,,,,,,,,,,,,,,,,,,,,,,,,,,,,,,,,,,,,,,,,,,,,,,,,,,,,,,,,360.36894241010305,360.36894241010305,360.36894241010305,360.36894241010305,360.36894241010305,360.36894241010305,l,1,0.5631177221657708,360.94401809887495,361.97743886790704,,,,,,,,,,,,,,,,,,,,,,,,,,,,,,,,,,,,,,,567,2023-05-16_16h05.03.145,eb_02psyexp,2022.2.4,119.9655990788058,
99,0,99,0,,,,,,,,,,,,,,,,,,,,,,,,,,,,,,,,,,,,,,,,,,,,,,,,,,,,,,,,,,,361.97743886790704,361.97743886790704,361.97743886790704,361.97743886790704,361.97743886790704,361.97743886790704,s,1,0.5626673627411947,362.5524774292717,363.5859000093769,,,,,,,,,,,,,,,,,,,,,,,,,,,,,,,,,,,,,,,567,2023-05-16_16h05.03.145,eb_02psyexp,2022.2.4,119.9655990788058,
100,0,100,0,,,,,,,,,,,,,,,,,,,,,,,,,,,,,,,,,,,,,,,,,,,,,,,,,,,,,,,,,,,363.5859000093769,363.5859000093769,363.5859000093769,363.5859000093769,363.5859000093769,363.5859000093769,s,1,0.6662406563991681,364.2609717741143,365.29438107286114,,,,,,,,,,,,,,,,,,,,,,,,,,,,,,,,,,,,,,,567,2023-05-16_16h05.03.145,eb_02psyexp,2022.2.4,119.9655990788058,
101,0,101,0,,,,,,,,,,,,,,,,,,,,,,,,,,,,,,,,,,,,,,,,,,,,,,,,,,,,,,,,,,,365.29438107286114,365.29438107286114,365.29438107286114,365.29438107286114,365.29438107286114,365.29438107286114,s,1,0.5817982777953148,365.8861164354021,366.9195350914961,,,,,,,,,,,,,,,,,,,,,,,,,,,,,,,,,,,,,,,567,2023-05-16_16h05.03.145,eb_02psyexp,2022.2.4,119.9655990788058,
102,0,102,0,,,,,,,,,,,,,,,,,,,,,,,,,,,,,,,,,,,,,,,,,,,,,,,,,,,,,,,,,,,366.9195350914961,366.9195350914961,366.9195350914961,366.9195350914961,366.9195350914961,366.9195350914961,s,1,0.45266829850152135,367.38623053452466,368.41967756440863,,,,,,,,,,,,,,,,,,,,,,,,,,,,,,,,,,,,,,,567,2023-05-16_16h05.03.145,eb_02psyexp,2022.2.4,119.9655990788058,
103,0,103,0,,,,,,,,,,,,,,,,,,,,,,,,,,,,,,,,,,,,,,,,,,,,,,,,,,,,,,,,,,,368.41967756440863,368.41967756440863,368.41967756440863,368.41967756440863,368.41967756440863,368.41967756440863,s,1,0.4565730227623135,368.8863760259701,369.91980947263073,,,,,,,,,,,,,,,,,,,,,,,,,,,,,,,,,,,,,,,567,2023-05-16_16h05.03.145,eb_02psyexp,2022.2.4,119.9655990788058,
104,0,104,0,,,,,,,,,,,,,,,,,,,,,,,,,,,,,,,,,,,,,,,,,,,,,,,,,,,,,,,,,,,369.91980947263073,369.91980947263073,369.91980947263073,369.91980947263073,369.91980947263073,369.91980947263073,s,1,0.4444691623793915,370.37817356945015,371.4032705385471,,,,,,,,,,,,,,,,,,,,,,,,,,,,,,,,,,,,,,,567,2023-05-16_16h05.03.145,eb_02psyexp,2022.2.4,119.9655990788058,
105,0,105,0,,,,,,,,,,,,,,,,,,,,,,,,,,,,,,,,,,,,,,,,,,,,,,,,,,,,,,,,,,,371.4032705385471,371.4032705385471,371.4032705385471,371.4032705385471,371.4032705385471,371.4032705385471,l,1,0.5520458850078285,371.96996447234415,373.00340093753766,,,,,,,,,,,,,,,,,,,,,,,,,,,,,,,,,,,,,,,567,2023-05-16_16h05.03.145,eb_02psyexp,2022.2.4,119.9655990788058,
106,0,106,0,,,,,,,,,,,,,,,,,,,,,,,,,,,,,,,,,,,,,,,,,,,,,,,,,,,,,,,,,,,373.00340093753766,373.00340093753766,373.00340093753766,373.00340093753766,373.00340093753766,373.00340093753766,s,1,0.4959305664524436,373.5117636760697,374.52852296014316,,,,,,,,,,,,,,,,,,,,,,,,,,,,,,,,,,,,,,,567,2023-05-16_16h05.03.145,eb_02psyexp,2022.2.4,119.9655990788058,
107,0,107,0,,,,,,,,,,,,,,,,,,,,,,,,,,,,,,,,,,,,,,,,,,,,,,,,,,,,,,,,,,,374.52852296014316,374.52852296014316,374.52852296014316,374.52852296014316,374.52852296014316,374.52852296014316,l,1,0.49084379978012294,375.0285736708902,376.06200289167464,,,,,,,,,,,,,,,,,,,,,,,,,,,,,,,,,,,,,,,567,2023-05-16_16h05.03.145,eb_02psyexp,2022.2.4,119.9655990788058,
108,0,108,0,,,,,,,,,,,,,,,,,,,,,,,,,,,,,,,,,,,,,,,,,,,,,,,,,,,,,,,,,,,376.06200289167464,376.06200289167464,376.06200289167464,376.06200289167464,376.06200289167464,376.06200289167464,s,1,0.40540139423683286,376.4786885245703,377.5037957566092,,,,,,,,,,,,,,,,,,,,,,,,,,,,,,,,,,,,,,,567,2023-05-16_16h05.03.145,eb_02psyexp,2022.2.4,119.9655990788058,
109,0,109,0,,,,,,,,,,,,,,,,,,,,,,,,,,,,,,,,,,,,,,,,,,,,,,,,,,,,,,,,,,,377.5037957566092,377.5037957566092,377.5037957566092,377.5037957566092,377.5037957566092,377.5037957566092,l,1,0.5556173673830926,378.0705068957759,379.0955637189327,,,,,,,,,,,,,,,,,,,,,,,,,,,,,,,,,,,,,,,567,2023-05-16_16h05.03.145,eb_02psyexp,2022.2.4,119.9655990788058,
110,0,110,0,,,,,,,,,,,,,,,,,,,,,,,,,,,,,,,,,,,,,,,,,,,,,,,,,,,,,,,,,,,379.0955637189327,379.0955637189327,379.0955637189327,379.0955637189327,379.0955637189327,379.0955637189327,l,1,0.4678923764731735,379.57896109460853,380.6040704395855,,,,,,,,,,,,,,,,,,,,,,,,,,,,,,,,,,,,,,,567,2023-05-16_16h05.03.145,eb_02psyexp,2022.2.4,119.9655990788058,
111,0,111,0,,,,,,,,,,,,,,,,,,,,,,,,,,,,,,,,,,,,,,,,,,,,,,,,,,,,,,,,,,,380.6040704395855,380.6040704395855,380.6040704395855,380.6040704395855,380.6040704395855,380.6040704395855,l,1,0.3834364147624001,380.9957596191671,382.0291782752611,,,,,,,,,,,,,,,,,,,,,,,,,,,,,,,,,,,,,,,567,2023-05-16_16h05.03.145,eb_02psyexp,2022.2.4,119.9655990788058,
112,0,112,0,,,,,,,,,,,,,,,,,,,,,,,,,,,,,,,,,,,,,,,,,,,,,,,,,,,,,,,,,,,382.0291782752611,382.0291782752611,382.0291782752611,382.0291782752611,382.0291782752611,382.0291782752611,s,1,0.6463448547292501,382.6875767830061,383.72101958701387,,,,,,,,,,,,,,,,,,,,,,,,,,,,,,,,,,,,,,,567,2023-05-16_16h05.03.145,eb_02psyexp,2022.2.4,119.9655990788058,
113,0,113,0,,,,,,,,,,,,,,,,,,,,,,,,,,,,,,,,,,,,,,,,,,,,,,,,,,,,,,,,,,,383.72101958701387,383.72101958701387,383.72101958701387,383.72101958701387,383.72101958701387,383.72101958701387,s,1,0.40251782652921975,384.13768892001826,385.15445363742765,,,,,,,,,,,,,,,,,,,,,,,,,,,,,,,,,,,,,,,567,2023-05-16_16h05.03.145,eb_02psyexp,2022.2.4,119.9655990788058,
114,0,114,0,,,,,,,,,,,,,,,,,,,,,,,,,,,,,,,,,,,,,,,,,,,,,,,,,,,,,,,,,,,385.15445363742765,385.15445363742765,385.15445363742765,385.15445363742765,385.15445363742765,385.15445363742765,l,1,0.5131341728847474,385.6795035180403,386.7129354554927,,,,,,,,,,,,,,,,,,,,,,,,,,,,,,,,,,,,,,,567,2023-05-16_16h05.03.145,eb_02psyexp,2022.2.4,119.9655990788058,
115,0,115,0,,,,,,,,,,,,,,,,,,,,,,,,,,,,,,,,,,,,,,,,,,,,,,,,,,,,,,,,,,,386.7129354554927,386.7129354554927,386.7129354554927,386.7129354554927,386.7129354554927,386.7129354554927,s,1,0.7616981242317706,387.48799816472456,388.5047538266517,,,,,,,,,,,,,,,,,,,,,,,,,,,,,,,,,,,,,,,567,2023-05-16_16h05.03.145,eb_02psyexp,2022.2.4,119.9655990788058,
116,0,116,0,,,,,,,,,,,,,,,,,,,,,,,,,,,,,,,,,,,,,,,,,,,,,,,,,,,,,,,,,,,388.5047538266517,388.5047538266517,388.5047538266517,388.5047538266517,388.5047538266517,388.5047538266517,l,1,0.5858717359369621,389.104796387488,390.13822409906425,,,,,,,,,,,,,,,,,,,,,,,,,,,,,,,,,,,,,,,567,2023-05-16_16h05.03.145,eb_02psyexp,2022.2.4,119.9655990788058,
117,0,117,0,,,,,,,,,,,,,,,,,,,,,,,,,,,,,,,,,,,,,,,,,,,,,,,,,,,,,,,,,,,390.13822409906425,390.13822409906425,390.13822409906425,390.13822409906425,390.13822409906425,390.13822409906425,s,1,0.49644884187728167,390.6465886486694,391.6800226990599,,,,,,,,,,,,,,,,,,,,,,,,,,,,,,,,,,,,,,,567,2023-05-16_16h05.03.145,eb_02psyexp,2022.2.4,119.9655990788058,
118,0,118,0,,,,,,,,,,,,,,,,,,,,,,,,,,,,,,,,,,,,,,,,,,,,,,,,,,,,,,,,,,,391.6800226990599,391.6800226990599,391.6800226990599,391.6800226990599,391.6800226990599,391.6800226990599,s,1,0.6346829019021243,392.3300750699127,393.3468814425869,,,,,,,,,,,,,,,,,,,,,,,,,,,,,,,,,,,,,,,567,2023-05-16_16h05.03.145,eb_02psyexp,2022.2.4,119.9655990788058,
119,0,119,0,,,,,,,,,,,,,,,,,,,,,,,,,,,,,,,,,,,,,,,,,,,,,,,,,,,,,,,,,,,393.3468814425869,393.3468814425869,393.3468814425869,393.3468814425869,393.3468814425869,393.3468814425869,l,1,0.5438705949345604,393.9052232025424,394.9303044754779,,,,,,,,,,,,,,,,,,,,,,,,,,,,,,,,,,,,,,,567,2023-05-16_16h05.03.145,eb_02psyexp,2022.2.4,119.9655990788058,
120,0,120,0,,,,,,,,,,,,,,,,,,,,,,,,,,,,,,,,,,,,,,,,,,,,,,,,,,,,,,,,,,,394.9303044754779,394.9303044754779,394.9303044754779,394.9303044754779,394.9303044754779,394.9303044754779,l,1,0.5364810191094875,395.4803441687254,396.4971007362474,,,,,,,,,,,,,,,,,,,,,,,,,,,,,,,,,,,,,,,567,2023-05-16_16h05.03.145,eb_02psyexp,2022.2.4,119.9655990788058,
121,0,121,0,,,,,,,,,,,,,,,,,,,,,,,,,,,,,,,,,,,,,,,,,,,,,,,,,,,,,,,,,,,396.4971007362474,396.4971007362474,396.4971007362474,396.4971007362474,396.4971007362474,396.4971007362474,l,1,0.5697025674162433,397.08048483054154,398.1139197865268,,,,,,,,,,,,,,,,,,,,,,,,,,,,,,,,,,,,,,,567,2023-05-16_16h05.03.145,eb_02psyexp,2022.2.4,119.9655990788058,
122,0,122,0,,,,,,,,,,,,,,,,,,,,,,,,,,,,,,,,,,,,,,,,,,,,,,,,,,,,,,,,,,,398.1139197865268,398.1139197865268,398.1139197865268,398.1139197865268,398.1139197865268,398.1139197865268,s,1,0.5529287945246324,398.6806357552996,399.70573393185623,,,,,,,,,,,,,,,,,,,,,,,,,,,,,,,,,,,,,,,567,2023-05-16_16h05.03.145,eb_02psyexp,2022.2.4,119.9655990788058,
123,0,123,0,,,,,,,,,,,,,,,,,,,,,,,,,,,,,,,,,,,,,,,,,,,,,,,,,,,,,,,,,,,399.70573393185623,399.70573393185623,399.70573393185623,399.70573393185623,399.70573393185623,399.70573393185623,l,1,0.5531461262144148,400.2724281674018,401.30587006593123,,,,,,,,,,,,,,,,,,,,,,,,,,,,,,,,,,,,,,,567,2023-05-16_16h05.03.145,eb_02psyexp,2022.2.4,119.9655990788058,
124,0,124,0,,,,,,,,,,,,,,,,,,,,,,,,,,,,,,,,,,,,,,,,,,,,,,,,,,,,,,,,,,,401.30587006593123,401.30587006593123,401.30587006593123,401.30587006593123,401.30587006593123,401.30587006593123,s,1,0.6490497274789959,401.9642398979049,402.9893398855347,,,,,,,,,,,,,,,,,,,,,,,,,,,,,,,,,,,,,,,567,2023-05-16_16h05.03.145,eb_02psyexp,2022.2.4,119.9655990788058,
125,0,125,0,,,,,,,,,,,,,,,,,,,,,,,,,,,,,,,,,,,,,,,,,,,,,,,,,,,,,,,,,,,402.9893398855347,402.9893398855347,402.9893398855347,402.9893398855347,402.9893398855347,402.9893398855347,l,1,0.39661153871566057,403.39769869996235,404.43111946899444,,,,,,,,,,,,,,,,,,,,,,,,,,,,,,,,,,,,,,,567,2023-05-16_16h05.03.145,eb_02psyexp,2022.2.4,119.9655990788058,
126,0,126,0,,,,,,,,,,,,,,,,,,,,,,,,,,,,,,,,,,,,,,,,,,,,,,,,,,,,,,,,,,,404.43111946899444,404.43111946899444,404.43111946899444,404.43111946899444,404.43111946899444,404.43111946899444,s,1,0.4988494503777474,404.93949880916625,405.96460060798563,,,,,,,,,,,,,,,,,,,,,,,,,,,,,,,,,,,,,,,567,2023-05-16_16h05.03.145,eb_02psyexp,2022.2.4,119.9655990788058,
127,0,127,0,,,,,,,,,,,,,,,,,,,,,,,,,,,,,,,,,,,,,,,,,,,,,,,,,,,,,,,,,,,405.96460060798563,405.96460060798563,405.96460060798563,405.96460060798563,405.96460060798563,405.96460060798563,l,1,0.397446756134741,406.37296576122753,407.406402528286,,,,,,,,,,,,,,,,,,,,,,,,,,,,,,,,,,,,,,,567,2023-05-16_16h05.03.145,eb_02psyexp,2022.2.4,119.9655990788058,
128,0,128,0,,,,,,,,,,,,,,,,,,,,,,,,,,,,,,,,,,,,,,,,,,,,,,,,,,,,,,,,,,,407.406402528286,407.406402528286,407.406402528286,407.406402528286,407.406402528286,407.406402528286,s,1,0.45161816431209445,407.87310551747214,408.90653534210287,,,,,,,,,,,,,,,,,,,,,,,,,,,,,,,,,,,,,,,567,2023-05-16_16h05.03.145,eb_02psyexp,2022.2.4,119.9655990788058,
129,0,129,0,,,,,,,,,,,,,,,,,,,,,,,,,,,,,,,,,,,,,,,,,,,,,,,,,,,,,,,,,,,408.90653534210287,408.90653534210287,408.90653534210287,408.90653534210287,408.90653534210287,408.90653534210287,s,1,0.6075282252859324,409.52322942670435,410.5566670993576,,,,,,,,,,,,,,,,,,,,,,,,,,,,,,,,,,,,,,,567,2023-05-16_16h05.03.145,eb_02psyexp,2022.2.4,119.9655990788058,
130,0,130,0,,,,,,,,,,,,,,,,,,,,,,,,,,,,,,,,,,,,,,,,,,,,,,,,,,,,,,,,,,,410.5566670993576,410.5566670993576,410.5566670993576,410.5566670993576,410.5566670993576,410.5566670993576,s,1,0.49342914018779993,411.06503044150304,412.0984795844415,,,,,,,,,,,,,,,,,,,,,,,,,,,,,,,,,,,,,,,567,2023-05-16_16h05.03.145,eb_02psyexp,2022.2.4,119.9655990788058,
131,0,131,0,,,,,,,,,,,,,,,,,,,,,,,,,,,,,,,,,,,,,,,,,,,,,,,,,,,,,,,,,,,412.0984795844415,412.0984795844415,412.0984795844415,412.0984795844415,412.0984795844415,412.0984795844415,s,1,0.5036808524746448,412.6151794042671,413.6485917214304,,,,,,,,,,,,,,,,,,,,,,,,,,,,,,,,,,,,,,,567,2023-05-16_16h05.03.145,eb_02psyexp,2022.2.4,119.9655990788058,
132,0,132,0,,,,,,,,,,,,,,,,,,,,,,,,,,,,,,,,,,,,,,,,,,,,,,,,,,,,,,,,,,,413.6485917214304,413.6485917214304,413.6485917214304,413.6485917214304,413.6485917214304,413.6485917214304,s,1,1.0895705989096314,414.7486868040869,415.7737946397392,,,,,,,,,,,,,,,,,,,,,,,,,,,,,,,,,,,,,,,567,2023-05-16_16h05.03.145,eb_02psyexp,2022.2.4,119.9655990788058,
133,0,133,0,,,,,,,,,,,,,,,,,,,,,,,,,,,,,,,,,,,,,,,,,,,,,,,,,,,,,,,,,,,415.7737946397392,415.7737946397392,415.7737946397392,415.7737946397392,415.7737946397392,415.7737946397392,l,1,0.5483986382605508,416.3321439459687,417.3655933907721,,,,,,,,,,,,,,,,,,,,,,,,,,,,,,,,,,,,,,,567,2023-05-16_16h05.03.145,eb_02psyexp,2022.2.4,119.9655990788058,
134,0,134,0,,,,,,,,,,,,,,,,,,,,,,,,,,,,,,,,,,,,,,,,,,,,,,,,,,,,,,,,,,,417.3655933907721,417.3655933907721,417.3655933907721,417.3655933907721,417.3655933907721,417.3655933907721,l,0,0.6606156921479851,418.0406410074793,419.0657524653943,,,,,,,,,,,,,,,,,,,,,,,,,,,,,,,,,,,,,,,567,2023-05-16_16h05.03.145,eb_02psyexp,2022.2.4,119.9655990788058,
135,0,135,0,,,,,,,,,,,,,,,,,,,,,,,,,,,,,,,,,,,,,,,,,,,,,,,,,,,,,,,,,,,419.0657524653943,419.0657524653943,419.0657524653943,419.0657524653943,419.0657524653943,419.0657524653943,l,1,0.6475588931934908,419.72411927883513,420.7492111165775,,,,,,,,,,,,,,,,,,,,,,,,,,,,,,,,,,,,,,,567,2023-05-16_16h05.03.145,eb_02psyexp,2022.2.4,119.9655990788058,
136,0,136,0,,,,,,,,,,,,,,,,,,,,,,,,,,,,,,,,,,,,,,,,,,,,,,,,,,,,,,,,,,,420.7492111165775,420.7492111165775,420.7492111165775,420.7492111165775,420.7492111165775,420.7492111165775,l,1,0.6521092733601108,421.4159328204114,422.43270146183204,,,,,,,,,,,,,,,,,,,,,,,,,,,,,,,,,,,,,,,567,2023-05-16_16h05.03.145,eb_02psyexp,2022.2.4,119.9655990788058,
137,0,137,0,,,,,,,,,,,,,,,,,,,,,,,,,,,,,,,,,,,,,,,,,,,,,,,,,,,,,,,,,,,422.43270146183204,422.43270146183204,422.43270146183204,422.43270146183204,422.43270146183204,422.43270146183204,l,1,0.7286401782184839,423.1744258069666,424.1995055706939,,,,,,,,,,,,,,,,,,,,,,,,,,,,,,,,,,,,,,,567,2023-05-16_16h05.03.145,eb_02psyexp,2022.2.4,119.9655990788058,
138,0,138,0,,,,,,,,,,,,,,,,,,,,,,,,,,,,,,,,,,,,,,,,,,,,,,,,,,,,,,,,,,,424.1995055706939,424.1995055706939,424.1995055706939,424.1995055706939,424.1995055706939,424.1995055706939,l,1,0.5858297789236531,424.7995629219804,425.8246749836253,,,,,,,,,,,,,,,,,,,,,,,,,,,,,,,,,,,,,,,567,2023-05-16_16h05.03.145,eb_02psyexp,2022.2.4,119.9655990788058,
139,0,139,0,,,,,,,,,,,,,,,,,,,,,,,,,,,,,,,,,,,,,,,,,,,,,,,,,,,,,,,,,,,425.8246749836253,425.8246749836253,425.8246749836253,425.8246749836253,425.8246749836253,425.8246749836253,l,1,0.8567191178444773,426.6914084596792,427.72482621017843,,,,,,,,,,,,,,,,,,,,,,,,,,,,,,,,,,,,,,,567,2023-05-16_16h05.03.145,eb_02psyexp,2022.2.4,119.9655990788058,
140,0,140,0,,,,,,,,,,,,,,,,,,,,,,,,,,,,,,,,,,,,,,,,,,,,,,,,,,,,,,,,,,,427.72482621017843,427.72482621017843,427.72482621017843,427.72482621017843,427.72482621017843,427.72482621017843,s,1,0.5885760049568489,428.3248772227671,429.35831489542034,,,,,,,,,,,,,,,,,,,,,,,,,,,,,,,,,,,,,,,567,2023-05-16_16h05.03.145,eb_02psyexp,2022.2.4,119.9655990788058,
141,0,141,0,,,,,,,,,,,,,,,,,,,,,,,,,,,,,,,,,,,,,,,,,,,,,,,,,,,,,,,,,,,429.35831489542034,429.35831489542034,429.35831489542034,429.35831489542034,429.35831489542034,429.35831489542034,s,1,0.6431482692714781,430.0166835199343,431.05012994620483,,,,,,,,,,,,,,,,,,,,,,,,,,,,,,,,,,,,,,,567,2023-05-16_16h05.03.145,eb_02psyexp,2022.2.4,119.9655990788058,
142,0,142,0,,,,,,,,,,,,,,,,,,,,,,,,,,,,,,,,,,,,,,,,,,,,,,,,,,,,,,,,,,,431.05012994620483,431.05012994620483,431.05012994620483,431.05012994620483,431.05012994620483,431.05012994620483,s,1,0.39935957605484873,431.4584957031766,432.4919209999498,,,,,,,,,,,,,,,,,,,,,,,,,,,,,,,,,,,,,,,567,2023-05-16_16h05.03.145,eb_02psyexp,2022.2.4,119.9655990788058,
143,0,143,0,,,,,,,,,,,,,,,,,,,,,,,,,,,,,,,,,,,,,,,,,,,,,,,,,,,,,,,,,,,432.4919209999498,432.4919209999498,432.4919209999498,432.4919209999498,432.4919209999498,432.4919209999498,s,1,0.36561612982768565,432.8669299799949,433.90036584157497,,,,,,,,,,,,,,,,,,,,,,,,,,,,,,,,,,,,,,,567,2023-05-16_16h05.03.145,eb_02psyexp,2022.2.4,119.9655990788058,
144,0,144,0,,,,,,,,,,,,,,,,,,,,,,,,,,,,,,,,,,,,,,,,,,,,,,,,,,,,,,,,,,,433.90036584157497,433.90036584157497,433.90036584157497,433.90036584157497,433.90036584157497,433.90036584157497,s,1,0.38018247787840664,434.2920701135881,435.3088004201418,,,,,,,,,,,,,,,,,,,,,,,,,,,,,,,,,,,,,,,567,2023-05-16_16h05.03.145,eb_02psyexp,2022.2.4,119.9655990788058,
145,0,145,0,,,,,,,,,,,,,,,,,,,,,,,,,,,,,,,,,,,,,,,,,,,,,,,,,,,,,,,,,,,435.3088004201418,435.3088004201418,435.3088004201418,435.3088004201418,435.3088004201418,435.3088004201418,l,1,0.579772868193686,435.9005303494632,436.93397436093073,,,,,,,,,,,,,,,,,,,,,,,,,,,,,,,,,,,,,,,567,2023-05-16_16h05.03.145,eb_02psyexp,2022.2.4,119.9655990788058,
146,0,146,0,,,,,,,,,,,,,,,,,,,,,,,,,,,,,,,,,,,,,,,,,,,,,,,,,,,,,,,,,,,436.93397436093073,436.93397436093073,436.93397436093073,436.93397436093073,436.93397436093073,436.93397436093073,s,1,0.4746918367454782,437.4173276666552,438.4424059210578,,,,,,,,,,,,,,,,,,,,,,,,,,,,,,,,,,,,,,,567,2023-05-16_16h05.03.145,eb_02psyexp,2022.2.4,119.9655990788058,
147,0,147,0,,,,,,,,,,,,,,,,,,,,,,,,,,,,,,,,,,,,,,,,,,,,,,,,,,,,,,,,,,,438.4424059210578,438.4424059210578,438.4424059210578,438.4424059210578,438.4424059210578,438.4424059210578,s,1,0.6062438559019938,439.05914045358077,440.09258506877813,,,,,,,,,,,,,,,,,,,,,,,,,,,,,,,,,,,,,,,567,2023-05-16_16h05.03.145,eb_02psyexp,2022.2.4,119.9655990788058,
148,0,148,0,,,,,,,,,,,,,,,,,,,,,,,,,,,,,,,,,,,,,,,,,,,,,,,,,,,,,,,,,,,440.09258506877813,440.09258506877813,440.09258506877813,440.09258506877813,440.09258506877813,440.09258506877813,s,1,0.4201081021456048,440.52594697708264,441.55104243697133,,,,,,,,,,,,,,,,,,,,,,,,,,,,,,,,,,,,,,,567,2023-05-16_16h05.03.145,eb_02psyexp,2022.2.4,119.9655990788058,
149,0,149,0,,,,,,,,,,,,,,,,,,,,,,,,,,,,,,,,,,,,,,,,,,,,,,,,,,,,,,,,,,,441.55104243697133,441.55104243697133,441.55104243697133,441.55104243697133,441.55104243697133,441.55104243697133,l,1,0.38566647842526436,441.95107111276593,442.9761563097127,,,,,,,,,,,,,,,,,,,,,,,,,,,,,,,,,,,,,,,567,2023-05-16_16h05.03.145,eb_02psyexp,2022.2.4,119.9655990788058,
150,0,150,0,,,,,,,,,,,,,,,,,,,,,,,,,,,,,,,,,,,,,,,,,,,,,,,,,,,,,,,,,,,442.9761563097127,442.9761563097127,442.9761563097127,442.9761563097127,442.9761563097127,442.9761563097127,l,1,0.4725755703402683,443.4595204819925,444.47628670872655,,,,,,,,,,,,,,,,,,,,,,,,,,,,,,,,,,,,,,,567,2023-05-16_16h05.03.145,eb_02psyexp,2022.2.4,119.9655990788058,
151,0,151,0,,,,,,,,,,,,,,,,,,,,,,,,,,,,,,,,,,,,,,,,,,,,,,,,,,,,,,,,,,,444.47628670872655,444.47628670872655,444.47628670872655,444.47628670872655,444.47628670872655,444.47628670872655,l,1,0.7405001443112269,445.22634330543224,446.25979305198416,,,,,,,,,,,,,,,,,,,,,,,,,,,,,,,,,,,,,,,567,2023-05-16_16h05.03.145,eb_02psyexp,2022.2.4,119.9655990788058,
152,0,152,0,,,,,,,,,,,,,,,,,,,,,,,,,,,,,,,,,,,,,,,,,,,,,,,,,,,,,,,,,,,446.25979305198416,446.25979305198416,446.25979305198416,446.25979305198416,446.25979305198416,446.25979305198416,s,1,0.8690348764648661,447.1431961628841,448.176607876434,,,,,,,,,,,,,,,,,,,,,,,,,,,,,,,,,,,,,,,567,2023-05-16_16h05.03.145,eb_02psyexp,2022.2.4,119.9655990788058,
153,0,153,0,,,,,,,,,,,,,,,,,,,,,,,,,,,,,,,,,,,,,,,,,,,,,,,,,,,,,,,,,,,448.176607876434,448.176607876434,448.176607876434,448.176607876434,448.176607876434,448.176607876434,s,1,0.48023349046707153,448.6683103374671,449.6850650937995,,,,,,,,,,,,,,,,,,,,,,,,,,,,,,,,,,,,,,,567,2023-05-16_16h05.03.145,eb_02psyexp,2022.2.4,119.9655990788058,
154,0,154,0,,,,,,,,,,,,,,,,,,,,,,,,,,,,,,,,,,,,,,,,,,,,,,,,,,,,,,,,,,,449.6850650937995,449.6850650937995,449.6850650937995,449.6850650937995,449.6850650937995,449.6850650937995,s,1,0.4748098598793149,450.16843832156155,451.1935377055779,,,,,,,,,,,,,,,,,,,,,,,,,,,,,,,,,,,,,,,567,2023-05-16_16h05.03.145,eb_02psyexp,2022.2.4,119.9655990788058,
155,0,155,0,,,,,,,,,,,,,,,,,,,,,,,,,,,,,,,,,,,,,,,,,,,,,,,,,,,,,,,,,,,451.1935377055779,451.1935377055779,451.1935377055779,451.1935377055779,451.1935377055779,451.1935377055779,s,1,0.4543649941915646,451.6602500521112,452.69366810447536,,,,,,,,,,,,,,,,,,,,,,,,,,,,,,,,,,,,,,,567,2023-05-16_16h05.03.145,eb_02psyexp,2022.2.4,119.9655990788058,
156,0,156,0,,,,,,,,,,,,,,,,,,,,,,,,,,,,,,,,,,,,,,,,,,,,,,,,,,,,,,,,,,,452.69366810447536,452.69366810447536,452.69366810447536,452.69366810447536,452.69366810447536,452.69366810447536,s,1,0.48230055544991046,453.18536573590245,454.21047236421145,,,,,,,,,,,,,,,,,,,,,,,,,,,,,,,,,,,,,,,567,2023-05-16_16h05.03.145,eb_02psyexp,2022.2.4,119.9655990788058,
157,0,157,0,,,,,,,,,,,,,,,,,,,,,,,,,,,,,,,,,,,,,,,,,,,,,,,,,,,,,,,,,,,454.21047236421145,454.21047236421145,454.21047236421145,454.21047236421145,454.21047236421145,454.21047236421145,s,1,0.5494976721238345,454.7688467238331,455.78559846174903,,,,,,,,,,,,,,,,,,,,,,,,,,,,,,,,,,,,,,,567,2023-05-16_16h05.03.145,eb_02psyexp,2022.2.4,119.9655990788058,
158,0,158,0,,,,,,,,,,,,,,,,,,,,,,,,,,,,,,,,,,,,,,,,,,,,,,,,,,,,,,,,,,,455.78559846174903,455.78559846174903,455.78559846174903,455.78559846174903,455.78559846174903,455.78559846174903,s,1,0.38239986379630864,456.1773081670981,457.2023852142738,,,,,,,,,,,,,,,,,,,,,,,,,,,,,,,,,,,,,,,567,2023-05-16_16h05.03.145,eb_02psyexp,2022.2.4,119.9655990788058,
159,0,159,0,,,,,,,,,,,,,,,,,,,,,,,,,,,,,,,,,,,,,,,,,,,,,,,,,,,,,,,,,,,457.2023852142738,457.2023852142738,457.2023852142738,457.2023852142738,457.2023852142738,457.2023852142738,s,1,0.4856384063605219,457.7024292842252,458.7358666550135,,,,,,,,,,,,,,,,,,,,,,,,,,,,,,,,,,,,,,,567,2023-05-16_16h05.03.145,eb_02psyexp,2022.2.4,119.9655990788058,
160,0,160,0,,,,,,,,,,,,,,,,,,,,,,,,,,,,,,,,,,,,,,,,,,,,,,,,,,,,,,,,,,,458.7358666550135,458.7358666550135,458.7358666550135,458.7358666550135,458.7358666550135,458.7358666550135,s,1,0.5441860277205706,459.29422924260143,460.31099848775193,,,,,,,,,,,,,,,,,,,,,,,,,,,,,,,,,,,,,,,567,2023-05-16_16h05.03.145,eb_02psyexp,2022.2.4,119.9655990788058,
161,0,161,0,,,,,,,,,,,,,,,,,,,,,,,,,,,,,,,,,,,,,,,,,,,,,,,,,,,,,,,,,,,460.31099848775193,460.31099848775193,460.31099848775193,460.31099848775193,460.31099848775193,460.31099848775193,l,1,0.6330957775935531,460.9527098532999,461.9861505443696,,,,,,,,,,,,,,,,,,,,,,,,,,,,,,,,,,,,,,,567,2023-05-16_16h05.03.145,eb_02psyexp,2022.2.4,119.9655990788058,
162,0,162,0,,,,,,,,,,,,,,,,,,,,,,,,,,,,,,,,,,,,,,,,,,,,,,,,,,,,,,,,,,,461.9861505443696,461.9861505443696,461.9861505443696,461.9861505443696,461.9861505443696,461.9861505443696,s,1,0.7419982228893787,462.7445315447403,463.76963424903806,,,,,,,,,,,,,,,,,,,,,,,,,,,,,,,,,,,,,,,567,2023-05-16_16h05.03.145,eb_02psyexp,2022.2.4,119.9655990788058,
163,0,163,0,,,,,,,,,,,,,,,,,,,,,,,,,,,,,,,,,,,,,,,,,,,,,,,,,,,,,,,,,,,463.76963424903806,463.76963424903806,463.76963424903806,463.76963424903806,463.76963424903806,463.76963424903806,s,1,0.5985174160450697,464.37802294665016,465.41145488410257,,,,,,,,,,,,,,,,,,,,,,,,,,,,,,,,,,,,,,,567,2023-05-16_16h05.03.145,eb_02psyexp,2022.2.4,119.9655990788058,
164,0,164,0,,,,,,,,,,,,,,,,,,,,,,,,,,,,,,,,,,,,,,,,,,,,,,,,,,,,,,,,,,,465.41145488410257,465.41145488410257,465.41145488410257,465.41145488410257,465.41145488410257,465.41145488410257,s,1,0.4677323962096125,465.8948136230465,466.91990666813217,,,,,,,,,,,,,,,,,,,,,,,,,,,,,,,,,,,,,,,567,2023-05-16_16h05.03.145,eb_02psyexp,2022.2.4,119.9655990788058,
165,0,165,0,,,,,,,,,,,,,,,,,,,,,,,,,,,,,,,,,,,,,,,,,,,,,,,,,,,,,,,,,,,466.91990666813217,466.91990666813217,466.91990666813217,466.91990666813217,466.91990666813217,466.91990666813217,l,1,0.6073537563206628,467.5366167508764,468.57005895115435,,,,,,,,,,,,,,,,,,,,,,,,,,,,,,,,,,,,,,,567,2023-05-16_16h05.03.145,eb_02psyexp,2022.2.4,119.9655990788058,
166,0,166,0,,,,,,,,,,,,,,,,,,,,,,,,,,,,,,,,,,,,,,,,,,,,,,,,,,,,,,,,,,,468.57005895115435,468.57005895115435,468.57005895115435,468.57005895115435,468.57005895115435,468.57005895115435,s,1,0.4131743189645931,468.9950892116176,470.0201858788496,,,,,,,,,,,,,,,,,,,,,,,,,,,,,,,,,,,,,,,567,2023-05-16_16h05.03.145,eb_02psyexp,2022.2.4,119.9655990788058,
167,0,167,0,,,,,,,,,,,,,,,,,,,,,,,,,,,,,,,,,,,,,,,,,,,,,,,,,,,,,,,,,,,470.0201858788496,470.0201858788496,470.0201858788496,470.0201858788496,470.0201858788496,470.0201858788496,l,1,0.5070992972468957,470.53687875613105,471.570312504773,,,,,,,,,,,,,,,,,,,,,,,,,,,,,,,,,,,,,,,567,2023-05-16_16h05.03.145,eb_02psyexp,2022.2.4,119.9655990788058,
168,0,168,0,,,,,,,,,,,,,,,,,,,,,,,,,,,,,,,,,,,,,,,,,,,,,,,,,,,,,,,,,,,471.570312504773,471.570312504773,471.570312504773,471.570312504773,471.570312504773,471.570312504773,l,0,0.5970320149790496,472.1786891282536,473.2038008880336,,,,,,,,,,,,,,,,,,,,,,,,,,,,,,,,,,,,,,,567,2023-05-16_16h05.03.145,eb_02psyexp,2022.2.4,119.9655990788058,
169,0,169,0,,,,,,,,,,,,,,,,,,,,,,,,,,,,,,,,,,,,,,,,,,,,,,,,,,,,,,,,,,,473.2038008880336,473.2038008880336,473.2038008880336,473.2038008880336,473.2038008880336,473.2038008880336,s,1,0.8194995736703277,474.0371839259751,475.05394351191353,,,,,,,,,,,,,,,,,,,,,,,,,,,,,,,,,,,,,,,567,2023-05-16_16h05.03.145,eb_02psyexp,2022.2.4,119.9655990788058,
170,0,170,0,,,,,,,,,,,,,,,,,,,,,,,,,,,,,,,,,,,,,,,,,,,,,,,,,,,,,,,,,,,475.05394351191353,475.05394351191353,475.05394351191353,475.05394351191353,475.05394351191353,475.05394351191353,s,1,0.5774250832619146,475.64566981897224,476.6707562233787,,,,,,,,,,,,,,,,,,,,,,,,,,,,,,,,,,,,,,,567,2023-05-16_16h05.03.145,eb_02psyexp,2022.2.4,119.9655990788058,
171,0,171,0,,,,,,,,,,,,,,,,,,,,,,,,,,,,,,,,,,,,,,,,,,,,,,,,,,,,,,,,,,,476.6707562233787,476.6707562233787,476.6707562233787,476.6707562233787,476.6707562233787,476.6707562233787,s,1,0.4087298878002912,477.09579855774064,478.1125342976302,,,,,,,,,,,,,,,,,,,,,,,,,,,,,,,,,,,,,,,567,2023-05-16_16h05.03.145,eb_02psyexp,2022.2.4,119.9655990788058,
172,0,172,0,,,,,,,,,,,,,,,,,,,,,,,,,,,,,,,,,,,,,,,,,,,,,,,,,,,,,,,,,,,478.1125342976302,478.1125342976302,478.1125342976302,478.1125342976302,478.1125342976302,478.1125342976302,s,1,0.4069178857607767,478.52925494511146,479.5543392364634,,,,,,,,,,,,,,,,,,,,,,,,,,,,,,,,,,,,,,,567,2023-05-16_16h05.03.145,eb_02psyexp,2022.2.4,119.9655990788058,
173,0,173,0,,,,,,,,,,,,,,,,,,,,,,,,,,,,,,,,,,,,,,,,,,,,,,,,,,,,,,,,,,,479.5543392364634,479.5543392364634,479.5543392364634,479.5543392364634,479.5543392364634,479.5543392364634,l,1,0.7161584023851901,480.279393644887,481.2961595696397,,,,,,,,,,,,,,,,,,,,,,,,,,,,,,,,,,,,,,,567,2023-05-16_16h05.03.145,eb_02psyexp,2022.2.4,119.9655990788058,
174,0,174,0,,,,,,,,,,,,,,,,,,,,,,,,,,,,,,,,,,,,,,,,,,,,,,,,,,,,,,,,,,,481.2961595696397,481.2961595696397,481.2961595696397,481.2961595696397,481.2961595696397,481.2961595696397,s,1,0.5423426331253722,481.85453030723147,482.8796363318106,,,,,,,,,,,,,,,,,,,,,,,,,,,,,,,,,,,,,,,567,2023-05-16_16h05.03.145,eb_02psyexp,2022.2.4,119.9655990788058,
175,0,175,0,,,,,,,,,,,,,,,,,,,,,,,,,,,,,,,,,,,,,,,,,,,,,,,,,,,,,,,,,,,482.8796363318106,482.8796363318106,482.8796363318106,482.8796363318106,482.8796363318106,482.8796363318106,l,1,0.510919805499725,483.404687419883,484.421438554069,,,,,,,,,,,,,,,,,,,,,,,,,,,,,,,,,,,,,,,567,2023-05-16_16h05.03.145,eb_02psyexp,2022.2.4,119.9655990788058,
176,0,176,0,,,,,,,,,,,,,,,,,,,,,,,,,,,,,,,,,,,,,,,,,,,,,,,,,,,,,,,,,,,484.421438554069,484.421438554069,484.421438554069,484.421438554069,484.421438554069,484.421438554069,s,1,0.46514433913398534,484.89645990985446,485.913241530885,,,,,,,,,,,,,,,,,,,,,,,,,,,,,,,,,,,,,,,567,2023-05-16_16h05.03.145,eb_02psyexp,2022.2.4,119.9655990788058,
177,0,177,0,,,,,,,,,,,,,,,,,,,,,,,,,,,,,,,,,,,,,,,,,,,,,,,,,,,,,,,,,,,485.913241530885,485.913241530885,485.913241530885,485.913241530885,485.913241530885,485.913241530885,s,1,0.6613534122006968,486.58827133849263,487.61338792787865,,,,,,,,,,,,,,,,,,,,,,,,,,,,,,,,,,,,,,,567,2023-05-16_16h05.03.145,eb_02psyexp,2022.2.4,119.9655990788058,
178,0,178,0,,,,,,,,,,,,,,,,,,,,,,,,,,,,,,,,,,,,,,,,,,,,,,,,,,,,,,,,,,,487.61338792787865,487.61338792787865,487.61338792787865,487.61338792787865,487.61338792787865,487.61338792787865,s,1,0.4812748710392043,488.10507378715556,489.13849063206,,,,,,,,,,,,,,,,,,,,,,,,,,,,,,,,,,,,,,,567,2023-05-16_16h05.03.145,eb_02psyexp,2022.2.4,119.9655990788058,
179,0,179,0,,,,,,,,,,,,,,,,,,,,,,,,,,,,,,,,,,,,,,,,,,,,,,,,,,,,,,,,,,,489.13849063206,489.13849063206,489.13849063206,489.13849063206,489.13849063206,489.13849063206,s,1,0.5161587041802704,489.6635136480909,490.6886401985539,,,,,,,,,,,,,,,,,,,,,,,,,,,,,,,,,,,,,,,567,2023-05-16_16h05.03.145,eb_02psyexp,2022.2.4,119.9655990788058,
180,0,180,0,,,,,,,,,,,,,,,,,,,,,,,,,,,,,,,,,,,,,,,,,,,,,,,,,,,,,,,,,,,490.6886401985539,490.6886401985539,490.6886401985539,490.6886401985539,490.6886401985539,490.6886401985539,l,1,0.670075653353706,491.3720255002845,492.4054707190953,,,,,,,,,,,,,,,,,,,,,,,,,,,,,,,,,,,,,,,567,2023-05-16_16h05.03.145,eb_02psyexp,2022.2.4,119.9655990788058,
181,0,181,0,,,,,,,,,,,,,,,,,,,,,,,,,,,,,,,,,,,,,,,,,,,,,,,,,,,,,,,,,,,492.4054707190953,492.4054707190953,492.4054707190953,492.4054707190953,492.4054707190953,492.4054707190953,s,1,0.5532771287253127,492.9721679731738,494.00559477927163,,,,,,,,,,,,,,,,,,,,,,,,,,,,,,,,,,,,,,,567,2023-05-16_16h05.03.145,eb_02psyexp,2022.2.4,119.9655990788058,
182,0,182,0,,,,,,,,,,,,,,,,,,,,,,,,,,,,,,,,,,,,,,,,,,,,,,,,,,,,,,,,,,,494.00559477927163,494.00559477927163,494.00559477927163,494.00559477927163,494.00559477927163,494.00559477927163,s,1,0.4331594678806141,494.4473058428848,495.4807187638944,,,,,,,,,,,,,,,,,,,,,,,,,,,,,,,,,,,,,,,567,2023-05-16_16h05.03.145,eb_02psyexp,2022.2.4,119.9655990788058,
183,0,183,0,,,,,,,,,,,,,,,,,,,,,,,,,,,,,,,,,,,,,,,,,,,,,,,,,,,,,,,,,,,495.4807187638944,495.4807187638944,495.4807187638944,495.4807187638944,495.4807187638944,495.4807187638944,s,1,0.4540728039573878,495.94742507347837,496.97250302601606,,,,,,,,,,,,,,,,,,,,,,,,,,,,,,,,,,,,,,,567,2023-05-16_16h05.03.145,eb_02psyexp,2022.2.4,119.9655990788058,
184,0,184,0,,,,,,,,,,,,,,,,,,,,,,,,,,,,,,,,,,,,,,,,,,,,,,,,,,,,,,,,,,,496.97250302601606,496.97250302601606,496.97250302601606,496.97250302601606,496.97250302601606,496.97250302601606,s,1,0.3692866188939661,497.3558904407546,498.37264368787874,,,,,,,,,,,,,,,,,,,,,,,,,,,,,,,,,,,,,,,567,2023-05-16_16h05.03.145,eb_02psyexp,2022.2.4,119.9655990788058,
185,0,185,0,,,,,,,,,,,,,,,,,,,,,,,,,,,,,,,,,,,,,,,,,,,,,,,,,,,,,,,,,,,498.37264368787874,498.37264368787874,498.37264368787874,498.37264368787874,498.37264368787874,498.37264368787874,s,1,0.4812039363896474,498.8643521858612,499.889442212414,,,,,,,,,,,,,,,,,,,,,,,,,,,,,,,,,,,,,,,567,2023-05-16_16h05.03.145,eb_02psyexp,2022.2.4,119.9655990788058,
186,0,186,0,,,,,,,,,,,,,,,,,,,,,,,,,,,,,,,,,,,,,,,,,,,,,,,,,,,,,,,,,,,499.889442212414,499.889442212414,499.889442212414,499.889442212414,499.889442212414,499.889442212414,l,1,0.3644787612138316,500.26444938138593,501.2978985243244,,,,,,,,,,,,,,,,,,,,,,,,,,,,,,,,,,,,,,,567,2023-05-16_16h05.03.145,eb_02psyexp,2022.2.4,119.9655990788058,
187,0,187,0,,,,,,,,,,,,,,,,,,,,,,,,,,,,,,,,,,,,,,,,,,,,,,,,,,,,,,,,,,,501.2978985243244,501.2978985243244,501.2978985243244,501.2978985243244,501.2978985243244,501.2978985243244,s,0,0.436009832075797,501.7479306712048,502.77306174929254,,,,,,,,,,,,,,,,,,,,,,,,,,,,,,,,,,,,,,,567,2023-05-16_16h05.03.145,eb_02psyexp,2022.2.4,119.9655990788058,
188,0,188,0,,,,,,,,,,,,,,,,,,,,,,,,,,,,,,,,,,,,,,,,,,,,,,,,,,,,,,,,,,,502.77306174929254,502.77306174929254,502.77306174929254,502.77306174929254,502.77306174929254,502.77306174929254,l,1,0.5928951684618369,503.3814051694935,504.3981916200137,,,,,,,,,,,,,,,,,,,,,,,,,,,,,,,,,,,,,,,567,2023-05-16_16h05.03.145,eb_02psyexp,2022.2.4,119.9655990788058,
189,0,189,0,,,,,,,,,,,,,,,,,,,,,,,,,,,,,,,,,,,,,,,,,,,,,,,,,,,,,,,,,,,504.3981916200137,504.3981916200137,504.3981916200137,504.3981916200137,504.3981916200137,504.3981916200137,l,1,0.5917900977656245,504.99820852361154,506.0233124352526,,,,,,,,,,,,,,,,,,,,,,,,,,,,,,,,,,,,,,,567,2023-05-16_16h05.03.145,eb_02psyexp,2022.2.4,119.9655990788058,
190,0,190,0,,,,,,,,,,,,,,,,,,,,,,,,,,,,,,,,,,,,,,,,,,,,,,,,,,,,,,,,,,,506.0233124352526,506.0233124352526,506.0233124352526,506.0233124352526,506.0233124352526,506.0233124352526,s,1,0.6707131593720987,506.70668958709575,507.7401459744433,,,,,,,,,,,,,,,,,,,,,,,,,,,,,,,,,,,,,,,567,2023-05-16_16h05.03.145,eb_02psyexp,2022.2.4,119.9655990788058,
191,0,191,0,,,,,,,,,,,,,,,,,,,,,,,,,,,,,,,,,,,,,,,,,,,,,,,,,,,,,,,,,,,507.7401459744433,507.7401459744433,507.7401459744433,507.7401459744433,507.7401459744433,507.7401459744433,l,1,0.5538941089762375,508.306832059985,509.3319208791945,,,,,,,,,,,,,,,,,,,,,,,,,,,,,,,,,,,,,,,567,2023-05-16_16h05.03.145,eb_02psyexp,2022.2.4,119.9655990788058,
192,0,192,0,,,,,,,,,,,,,,,,,,,,,,,,,,,,,,,,,,,,,,,,,,,,,,,,,,,,,,,,,,,509.3319208791945,509.3319208791945,509.3319208791945,509.3319208791945,509.3319208791945,509.3319208791945,s,1,0.6021694922819734,509.9486433377024,510.9820885566296,,,,,,,,,,,,,,,,,,,,,,,,,,,,,,,,,,,,,,,567,2023-05-16_16h05.03.145,eb_02psyexp,2022.2.4,119.9655990788058,
193,0,193,0,,,,,,,,,,,,,,,,,,,,,,,,,,,,,,,,,,,,,,,,,,,,,,,,,,,,,,,,,,,510.9820885566296,510.9820885566296,510.9820885566296,510.9820885566296,510.9820885566296,510.9820885566296,l,1,0.6080211453372613,511.59878535789903,512.6238762900466,,,,,,,,,,,,,,,,,,,,,,,,,,,,,,,,,,,,,,,567,2023-05-16_16h05.03.145,eb_02psyexp,2022.2.4,119.9655990788058,
194,0,194,0,,,,,,,,,,,,,,,,,,,,,,,,,,,,,,,,,,,,,,,,,,,,,,,,,,,,,,,,,,,512.6238762900466,512.6238762900466,512.6238762900466,512.6238762900466,512.6238762900466,512.6238762900466,l,1,0.5492936219088733,513.1822763069067,514.2073696538573,,,,,,,,,,,,,,,,,,,,,,,,,,,,,,,,,,,,,,,567,2023-05-16_16h05.03.145,eb_02psyexp,2022.2.4,119.9655990788058,
195,0,195,0,,,,,,,,,,,,,,,,,,,,,,,,,,,,,,,,,,,,,,,,,,,,,,,,,,,,,,,,,,,514.2073696538573,514.2073696538573,514.2073696538573,514.2073696538573,514.2073696538573,514.2073696538573,s,1,0.541797794867307,514.7573930472136,515.7824936385732,,,,,,,,,,,,,,,,,,,,,,,,,,,,,,,,,,,,,,,567,2023-05-16_16h05.03.145,eb_02psyexp,2022.2.4,119.9655990788058,
196,0,196,0,,,,,,,,,,,,,,,,,,,,,,,,,,,,,,,,,,,,,,,,,,,,,,,,,,,,,,,,,,,515.7824936385732,515.7824936385732,515.7824936385732,515.7824936385732,515.7824936385732,515.7824936385732,l,1,1.0227212127065286,516.8159334240481,517.8326510529732,,,,,,,,,,,,,,,,,,,,,,,,,,,,,,,,,,,,,,,567,2023-05-16_16h05.03.145,eb_02psyexp,2022.2.4,119.9655990788058,
197,0,197,0,,,,,,,,,,,,,,,,,,,,,,,,,,,,,,,,,,,,,,,,,,,,,,,,,,,,,,,,,,,517.8326510529732,517.8326510529732,517.8326510529732,517.8326510529732,517.8326510529732,517.8326510529732,l,1,0.548646456678398,518.3910456366139,519.4078109577531,,,,,,,,,,,,,,,,,,,,,,,,,,,,,,,,,,,,,,,567,2023-05-16_16h05.03.145,eb_02psyexp,2022.2.4,119.9655990788058,
198,0,198,0,,,,,,,,,,,,,,,,,,,,,,,,,,,,,,,,,,,,,,,,,,,,,,,,,,,,,,,,,,,519.4078109577531,519.4078109577531,519.4078109577531,519.4078109577531,519.4078109577531,519.4078109577531,s,1,0.5414642512332648,519.9578458213946,520.9745921259746,,,,,,,,,,,,,,,,,,,,,,,,,,,,,,,,,,,,,,,567,2023-05-16_16h05.03.145,eb_02psyexp,2022.2.4,119.9655990788058,
199,0,199,0,,,,,0,0,0,0,,,,,,,,,,,,,,,,,,,,,,,,,,,,,,,,,,,,,,,,,,,,,,,,,,,520.9745921259746,520.9745921259746,520.9745921259746,520.9745921259746,520.9745921259746,520.9745921259746,s,1,0.694736450095661,521.682995915995,522.683084659744,522.683084659744,522.683084659744,space,13.145523522398435,,,,,,,,,,,,,,,,,,,,,,,,,,,,,,,,,,,567,2023-05-16_16h05.03.145,eb_02psyexp,2022.2.4,119.9655990788058,
199,0,199,0,,,,,,,,,,,,,,,,,,,,,,,,,,,,,,,,,,,,,,,,,,,,,,,,,,,,,,,,,,,,,,,,,,,,,,,,,,,,,,,,,,,,,,,,,,,,,,,,,,,,,,,,,,,,567,2023-05-16_16h05.03.145,eb_02psyexp,2022.2.4,119.9655990788058,
200,0,200,0,,,,,,,,,,,,,,,,,,,,,,,,,,,,,,,,,,,,,,,,,,,,,,,,,,,,,,,,,,,535.8675880117808,535.8675880117808,535.8675880117808,535.8675880117808,535.8675880117808,535.8675880117808,l,1,0.7530395733192563,536.6342994527658,537.6594100050861,,,,,,,,,,,,,,,,,,,,,,,,,,,,,,,,,,,,,,,567,2023-05-16_16h05.03.145,eb_02psyexp,2022.2.4,119.9655990788058,
201,0,201,0,,,,,,,,,,,,,,,,,,,,,,,,,,,,,,,,,,,,,,,,,,,,,,,,,,,,,,,,,,,537.6594100050861,537.6594100050861,537.6594100050861,537.6594100050861,537.6594100050861,537.6594100050861,s,1,1.1132633644156158,538.7845018428052,539.8012427141657,,,,,,,,,,,,,,,,,,,,,,,,,,,,,,,,,,,,,,,567,2023-05-16_16h05.03.145,eb_02psyexp,2022.2.4,119.9655990788058,
202,0,202,0,,,,,,,,,,,,,,,,,,,,,,,,,,,,,,,,,,,,,,,,,,,,,,,,,,,,,,,,,,,539.8012427141657,539.8012427141657,539.8012427141657,539.8012427141657,539.8012427141657,539.8012427141657,s,1,0.5634651507716626,540.3762951605022,541.4013879037229,,,,,,,,,,,,,,,,,,,,,,,,,,,,,,,,,,,,,,,567,2023-05-16_16h05.03.145,eb_02psyexp,2022.2.4,119.9655990788058,
203,0,203,0,,,,,,,,,,,,,,,,,,,,,,,,,,,,,,,,,,,,,,,,,,,,,,,,,,,,,,,,,,,541.4013879037229,541.4013879037229,541.4013879037229,541.4013879037229,541.4013879037229,541.4013879037229,l,1,0.5393452682765201,541.9514272949891,542.9682125382824,,,,,,,,,,,,,,,,,,,,,,,,,,,,,,,,,,,,,,,567,2023-05-16_16h05.03.145,eb_02psyexp,2022.2.4,119.9655990788058,
204,0,204,0,,,,,,,,,,,,,,,,,,,,,,,,,,,,,,,,,,,,,,,,,,,,,,,,,,,,,,,,,,,542.9682125382824,542.9682125382824,542.9682125382824,542.9682125382824,542.9682125382824,542.9682125382824,l,1,0.4835813024546951,543.468227328849,544.4933206757996,,,,,,,,,,,,,,,,,,,,,,,,,,,,,,,,,,,,,,,567,2023-05-16_16h05.03.145,eb_02psyexp,2022.2.4,119.9655990788058,
205,0,205,0,,,,,,,,,,,,,,,,,,,,,,,,,,,,,,,,,,,,,,,,,,,,,,,,,,,,,,,,,,,544.4933206757996,544.4933206757996,544.4933206757996,544.4933206757996,544.4933206757996,544.4933206757996,s,1,0.5264176607597619,545.0350395875284,546.051780458889,,,,,,,,,,,,,,,,,,,,,,,,,,,,,,,,,,,,,,,567,2023-05-16_16h05.03.145,eb_02psyexp,2022.2.4,119.9655990788058,
206,0,206,0,,,,,,,,,,,,,,,,,,,,,,,,,,,,,,,,,,,,,,,,,,,,,,,,,,,,,,,,,,,546.051780458889,546.051780458889,546.051780458889,546.051780458889,546.051780458889,546.051780458889,s,1,0.6000360205071047,546.6601815322647,547.6852688421495,,,,,,,,,,,,,,,,,,,,,,,,,,,,,,,,,,,,,,,567,2023-05-16_16h05.03.145,eb_02psyexp,2022.2.4,119.9655990788058,
207,0,207,0,,,,,,,,,,,,,,,,,,,,,,,,,,,,,,,,,,,,,,,,,,,,,,,,,,,,,,,,,,,547.6852688421495,547.6852688421495,547.6852688421495,547.6852688421495,547.6852688421495,547.6852688421495,l,1,0.5025739705888554,548.2019710767781,549.2187406237936,,,,,,,,,,,,,,,,,,,,,,,,,,,,,,,,,,,,,,,567,2023-05-16_16h05.03.145,eb_02psyexp,2022.2.4,119.9655990788058,
208,0,208,0,,,,,,,,,,,,,,,,,,,,,,,,,,,,,,,,,,,,,,,,,,,,,,,,,,,,,,,,,,,549.2187406237936,549.2187406237936,549.2187406237936,549.2187406237936,549.2187406237936,549.2187406237936,l,1,1.0971494343830273,550.3271555822575,551.3522537588142,,,,,,,,,,,,,,,,,,,,,,,,,,,,,,,,,,,,,,,567,2023-05-16_16h05.03.145,eb_02psyexp,2022.2.4,119.9655990788058,
209,0,209,0,,,,,,,,,,,,,,,,,,,,,,,,,,,,,,,,,,,,,,,,,,,,,,,,,,,,,,,,,,,551.3522537588142,551.3522537588142,551.3522537588142,551.3522537588142,551.3522537588142,551.3522537588142,s,1,0.6036781357834116,551.9689879894722,553.0024123806506,,,,,,,,,,,,,,,,,,,,,,,,,,,,,,,,,,,,,,,567,2023-05-16_16h05.03.145,eb_02psyexp,2022.2.4,119.9655990788058,
210,0,210,0,,,,,,,,,,,,,,,,,,,,,,,,,,,,,,,,,,,,,,,,,,,,,,,,,,,,,,,,,,,553.0024123806506,553.0024123806506,553.0024123806506,553.0024123806506,553.0024123806506,553.0024123806506,l,1,0.6335965459002182,553.6524608274922,554.6775475337636,,,,,,,,,,,,,,,,,,,,,,,,,,,,,,,,,,,,,,,567,2023-05-16_16h05.03.145,eb_02psyexp,2022.2.4,119.9655990788058,
211,0,211,0,,,,,,,,,,,,,,,,,,,,,,,,,,,,,,,,,,,,,,,,,,,,,,,,,,,,,,,,,,,554.6775475337636,554.6775475337636,554.6775475337636,554.6775475337636,554.6775475337636,554.6775475337636,s,1,0.6624536532908678,555.3525966597954,556.3693583586719,,,,,,,,,,,,,,,,,,,,,,,,,,,,,,,,,,,,,,,567,2023-05-16_16h05.03.145,eb_02psyexp,2022.2.4,119.9655990788058,
212,0,212,0,,,,,,,,,,,,,,,,,,,,,,,,,,,,,,,,,,,,,,,,,,,,,,,,,,,,,,,,,,,556.3693583586719,556.3693583586719,556.3693583586719,556.3693583586719,556.3693583586719,556.3693583586719,s,1,0.49869279051199555,556.8777422265848,557.9111617882736,,,,,,,,,,,,,,,,,,,,,,,,,,,,,,,,,,,,,,,567,2023-05-16_16h05.03.145,eb_02psyexp,2022.2.4,119.9655990788058,
213,0,213,0,,,,,,,,,,,,,,,,,,,,,,,,,,,,,,,,,,,,,,,,,,,,,,,,,,,,,,,,,,,557.9111617882736,557.9111617882736,557.9111617882736,557.9111617882736,557.9111617882736,557.9111617882736,s,1,0.47687873581890017,558.4028742102673,559.4362928663613,,,,,,,,,,,,,,,,,,,,,,,,,,,,,,,,,,,,,,,567,2023-05-16_16h05.03.145,eb_02psyexp,2022.2.4,119.9655990788058,
214,0,214,0,,,,,,,,,,,,,,,,,,,,,,,,,,,,,,,,,,,,,,,,,,,,,,,,,,,,,,,,,,,559.4362928663613,559.4362928663613,559.4362928663613,559.4362928663613,559.4362928663613,559.4362928663613,s,1,0.5748128783889115,560.019666395965,561.0531236889074,,,,,,,,,,,,,,,,,,,,,,,,,,,,,,,,,,,,,,,567,2023-05-16_16h05.03.145,eb_02psyexp,2022.2.4,119.9655990788058,
215,0,215,0,,,,,,,,,,,,,,,,,,,,,,,,,,,,,,,,,,,,,,,,,,,,,,,,,,,,,,,,,,,561.0531236889074,561.0531236889074,561.0531236889074,561.0531236889074,561.0531236889074,561.0531236889074,s,1,0.42998582299333066,561.4947943047155,562.5198873498011,,,,,,,,,,,,,,,,,,,,,,,,,,,,,,,,,,,,,,,567,2023-05-16_16h05.03.145,eb_02psyexp,2022.2.4,119.9655990788058,
216,0,216,0,,,,,,,,,,,,,,,,,,,,,,,,,,,,,,,,,,,,,,,,,,,,,,,,,,,,,,,,,,,562.5198873498011,562.5198873498011,562.5198873498011,562.5198873498011,562.5198873498011,562.5198873498011,l,1,0.6672618129523471,563.2032726515317,564.2367106260499,,,,,,,,,,,,,,,,,,,,,,,,,,,,,,,,,,,,,,,567,2023-05-16_16h05.03.145,eb_02psyexp,2022.2.4,119.9655990788058,
217,0,217,0,,,,,,,,,,,,,,,,,,,,,,,,,,,,,,,,,,,,,,,,,,,,,,,,,,,,,,,,,,,564.2367106260499,564.2367106260499,564.2367106260499,564.2367106260499,564.2367106260499,564.2367106260499,s,1,0.566475797095336,564.8117509983713,565.8451980283717,,,,,,,,,,,,,,,,,,,,,,,,,,,,,,,,,,,,,,,567,2023-05-16_16h05.03.145,eb_02psyexp,2022.2.4,119.9655990788058,
218,0,218,0,,,,,,,,,,,,,,,,,,,,,,,,,,,,,,,,,,,,,,,,,,,,,,,,,,,,,,,,,,,565.8451980283717,565.8451980283717,565.8451980283717,565.8451980283717,565.8451980283717,565.8451980283717,s,1,0.582018929766491,566.4368926412426,567.470329408301,,,,,,,,,,,,,,,,,,,,,,,,,,,,,,,,,,,,,,,567,2023-05-16_16h05.03.145,eb_02psyexp,2022.2.4,119.9655990788058,
219,0,219,0,,,,,,,,,,,,,,,,,,,,,,,,,,,,,,,,,,,,,,,,,,,,,,,,,,,,,,,,,,,567.470329408301,567.470329408301,567.470329408301,567.470329408301,567.470329408301,567.470329408301,s,1,0.5649176503065974,568.0453737047501,569.062113066786,,,,,,,,,,,,,,,,,,,,,,,,,,,,,,,,,,,,,,,567,2023-05-16_16h05.03.145,eb_02psyexp,2022.2.4,119.9655990788058,
220,0,220,0,,,,,,,,,,,,,,,,,,,,,,,,,,,,,,,,,,,,,,,,,,,,,,,,,,,,,,,,,,,569.062113066786,569.062113066786,569.062113066786,569.062113066786,569.062113066786,569.062113066786,l,1,0.6211826860671863,569.6955326284515,570.7289404179901,,,,,,,,,,,,,,,,,,,,,,,,,,,,,,,,,,,,,,,567,2023-05-16_16h05.03.145,eb_02psyexp,2022.2.4,119.9655990788058,
221,0,221,0,,,,,,,,,,,,,,,,,,,,,,,,,,,,,,,,,,,,,,,,,,,,,,,,,,,,,,,,,,,570.7289404179901,570.7289404179901,570.7289404179901,570.7289404179901,570.7289404179901,570.7289404179901,s,1,0.4984033169457689,571.237326700706,572.2540862866445,,,,,,,,,,,,,,,,,,,,,,,,,,,,,,,,,,,,,,,567,2023-05-16_16h05.03.145,eb_02psyexp,2022.2.4,119.9655990788058,
222,0,222,0,,,,,,,,,,,,,,,,,,,,,,,,,,,,,,,,,,,,,,,,,,,,,,,,,,,,,,,,,,,572.2540862866445,572.2540862866445,572.2540862866445,572.2540862866445,572.2540862866445,572.2540862866445,l,1,0.6283389325253665,572.8958021799335,573.9292338156374,,,,,,,,,,,,,,,,,,,,,,,,,,,,,,,,,,,,,,,567,2023-05-16_16h05.03.145,eb_02psyexp,2022.2.4,119.9655990788058,
223,0,223,0,,,,,,,,,,,,,,,,,,,,,,,,,,,,,,,,,,,,,,,,,,,,,,,,,,,,,,,,,,,573.9292338156374,573.9292338156374,573.9292338156374,573.9292338156374,573.9292338156374,573.9292338156374,s,1,1.0171668813563883,574.9626337570371,575.9877412909409,,,,,,,,,,,,,,,,,,,,,,,,,,,,,,,,,,,,,,,567,2023-05-16_16h05.03.145,eb_02psyexp,2022.2.4,119.9655990788058,
224,0,224,0,,,,,,,,,,,,,,,,,,,,,,,,,,,,,,,,,,,,,,,,,,,,,,,,,,,,,,,,,,,575.9877412909409,575.9877412909409,575.9877412909409,575.9877412909409,575.9877412909409,575.9877412909409,l,1,0.5507041643140838,576.5544391486328,577.5878810471622,,,,,,,,,,,,,,,,,,,,,,,,,,,,,,,,,,,,,,,567,2023-05-16_16h05.03.145,eb_02psyexp,2022.2.4,119.9655990788058,
225,0,225,0,,,,,,,,,,,,,,,,,,,,,,,,,,,,,,,,,,,,,,,,,,,,,,,,,,,,,,,,,,,577.5878810471622,577.5878810471622,577.5878810471622,577.5878810471622,577.5878810471622,577.5878810471622,s,1,0.5185544831911102,578.1212414463516,579.1463384154486,,,,,,,,,,,,,,,,,,,,,,,,,,,,,,,,,,,,,,,567,2023-05-16_16h05.03.145,eb_02psyexp,2022.2.4,119.9655990788058,
226,0,226,0,,,,,,,,,,,,,,,,,,,,,,,,,,,,,,,,,,,,,,,,,,,,,,,,,,,,,,,,,,,579.1463384154486,579.1463384154486,579.1463384154486,579.1463384154486,579.1463384154486,579.1463384154486,l,1,0.5681344596669078,579.7297496763058,580.7631622954505,,,,,,,,,,,,,,,,,,,,,,,,,,,,,,,,,,,,,,,567,2023-05-16_16h05.03.145,eb_02psyexp,2022.2.4,119.9655990788058,
227,0,227,0,,,,,,,,,,,,,,,,,,,,,,,,,,,,,,,,,,,,,,,,,,,,,,,,,,,,,,,,,,,580.7631622954505,580.7631622954505,580.7631622954505,580.7631622954505,580.7631622954505,580.7631622954505,s,1,0.5353439522441477,581.3131881034933,582.3299504060997,,,,,,,,,,,,,,,,,,,,,,,,,,,,,,,,,,,,,,,567,2023-05-16_16h05.03.145,eb_02psyexp,2022.2.4,119.9655990788058,
228,0,228,0,,,,,,,,,,,,,,,,,,,,,,,,,,,,,,,,,,,,,,,,,,,,,,,,,,,,,,,,,,,582.3299504060997,582.3299504060997,582.3299504060997,582.3299504060997,582.3299504060997,582.3299504060997,l,1,3.112636423204094,585.455224259058,586.4886471410282,,,,,,,,,,,,,,,,,,,,,,,,,,,,,,,,,,,,,,,567,2023-05-16_16h05.03.145,eb_02psyexp,2022.2.4,119.9655990788058,
229,0,229,0,,,,,,,,,,,,,,,,,,,,,,,,,,,,,,,,,,,,,,,,,,,,,,,,,,,,,,,,,,,586.4886471410282,586.4886471410282,586.4886471410282,586.4886471410282,586.4886471410282,586.4886471410282,s,1,1.5140107435872778,588.0137770117726,589.0305160719436,,,,,,,,,,,,,,,,,,,,,,,,,,,,,,,,,,,,,,,567,2023-05-16_16h05.03.145,eb_02psyexp,2022.2.4,119.9655990788058,
230,0,230,0,,,,,,,,,,,,,,,,,,,,,,,,,,,,,,,,,,,,,,,,,,,,,,,,,,,,,,,,,,,589.0305160719436,589.0305160719436,589.0305160719436,589.0305160719436,589.0305160719436,589.0305160719436,l,1,0.7551784784300253,589.7972730922047,590.8306944649667,,,,,,,,,,,,,,,,,,,,,,,,,,,,,,,,,,,,,,,567,2023-05-16_16h05.03.145,eb_02psyexp,2022.2.4,119.9655990788058,
231,0,231,0,,,,,,,,,,,,,,,,,,,,,,,,,,,,,,,,,,,,,,,,,,,,,,,,,,,,,,,,,,,590.8306944649667,590.8306944649667,590.8306944649667,590.8306944649667,590.8306944649667,590.8306944649667,s,1,0.9470333732897416,591.7891219501616,592.8141769622453,,,,,,,,,,,,,,,,,,,,,,,,,,,,,,,,,,,,,,,567,2023-05-16_16h05.03.145,eb_02psyexp,2022.2.4,119.9655990788058,
232,0,232,0,,,,,,,,,,,,,,,,,,,,,,,,,,,,,,,,,,,,,,,,,,,,,,,,,,,,,,,,,,,592.8141769622453,592.8141769622453,592.8141769622453,592.8141769622453,592.8141769622453,592.8141769622453,s,1,0.5635837776353583,593.3892469158163,594.4060037852032,,,,,,,,,,,,,,,,,,,,,,,,,,,,,,,,,,,,,,,567,2023-05-16_16h05.03.145,eb_02psyexp,2022.2.4,119.9655990788058,
233,0,233,0,,,,,,,,,,,,,,,,,,,,,,,,,,,,,,,,,,,,,,,,,,,,,,,,,,,,,,,,,,,594.4060037852032,594.4060037852032,594.4060037852032,594.4060037852032,594.4060037852032,594.4060037852032,s,1,1.1157832035096362,595.5311010561418,596.5561895734863,,,,,,,,,,,,,,,,,,,,,,,,,,,,,,,,,,,,,,,567,2023-05-16_16h05.03.145,eb_02psyexp,2022.2.4,119.9655990788058,
234,0,234,0,,,,,,,,,,,,,,,,,,,,,,,,,,,,,,,,,,,,,,,,,,,,,,,,,,,,,,,,,,,596.5561895734863,596.5561895734863,596.5561895734863,596.5561895734863,596.5561895734863,596.5561895734863,s,1,0.4296839735470712,596.9979118056362,598.0313117470359,,,,,,,,,,,,,,,,,,,,,,,,,,,,,,,,,,,,,,,567,2023-05-16_16h05.03.145,eb_02psyexp,2022.2.4,119.9655990788058,
235,0,235,0,,,,,,,,,,,,,,,,,,,,,,,,,,,,,,,,,,,,,,,,,,,,,,,,,,,,,,,,,,,598.0313117470359,598.0313117470359,598.0313117470359,598.0313117470359,598.0313117470359,598.0313117470359,s,1,0.43461257102899253,598.4813517421717,599.5064472020604,,,,,,,,,,,,,,,,,,,,,,,,,,,,,,,,,,,,,,,567,2023-05-16_16h05.03.145,eb_02psyexp,2022.2.4,119.9655990788058,
236,0,236,0,,,,,,,,,,,,,,,,,,,,,,,,,,,,,,,,,,,,,,,,,,,,,,,,,,,,,,,,,,,599.5064472020604,599.5064472020604,599.5064472020604,599.5064472020604,599.5064472020604,599.5064472020604,s,1,0.3354492976795882,599.856474821223,600.8899170216173,,,,,,,,,,,,,,,,,,,,,,,,,,,,,,,,,,,,,,,567,2023-05-16_16h05.03.145,eb_02psyexp,2022.2.4,119.9655990788058,
237,0,237,0,,,,,,,,,,,,,,,,,,,,,,,,,,,,,,,,,,,,,,,,,,,,,,,,,,,,,,,,,,,600.8899170216173,600.8899170216173,600.8899170216173,600.8899170216173,600.8899170216173,600.8899170216173,s,1,0.3680122107034549,601.2732718365733,602.2983703148784,,,,,,,,,,,,,,,,,,,,,,,,,,,,,,,,,,,,,,,567,2023-05-16_16h05.03.145,eb_02psyexp,2022.2.4,119.9655990788058,
238,0,238,0,,,,,,,,,,,,,,,,,,,,,,,,,,,,,,,,,,,,,,,,,,,,,,,,,,,,,,,,,,,602.2983703148784,602.2983703148784,602.2983703148784,602.2983703148784,602.2983703148784,602.2983703148784,s,1,0.3595966484863311,602.6733934818767,603.7068118361058,,,,,,,,,,,,,,,,,,,,,,,,,,,,,,,,,,,,,,,567,2023-05-16_16h05.03.145,eb_02psyexp,2022.2.4,119.9655990788058,
239,0,239,0,,,,,,,,,,,,,,,,,,,,,,,,,,,,,,,,,,,,,,,,,,,,,,,,,,,,,,,,,,,603.7068118361058,603.7068118361058,603.7068118361058,603.7068118361058,603.7068118361058,603.7068118361058,s,1,0.40624385594855994,604.123520107707,605.1486043991754,,,,,,,,,,,,,,,,,,,,,,,,,,,,,,,,,,,,,,,567,2023-05-16_16h05.03.145,eb_02psyexp,2022.2.4,119.9655990788058,
240,0,240,0,,,,,,,,,,,,,,,,,,,,,,,,,,,,,,,,,,,,,,,,,,,,,,,,,,,,,,,,,,,605.1486043991754,605.1486043991754,605.1486043991754,605.1486043991754,605.1486043991754,605.1486043991754,l,1,0.5484070900129154,605.7069829847896,606.7320875001606,,,,,,,,,,,,,,,,,,,,,,,,,,,,,,,,,,,,,,,567,2023-05-16_16h05.03.145,eb_02psyexp,2022.2.4,119.9655990788058,
241,0,241,0,,,,,,,,,,,,,,,,,,,,,,,,,,,,,,,,,,,,,,,,,,,,,,,,,,,,,,,,,,,606.7320875001606,606.7320875001606,606.7320875001606,606.7320875001606,606.7320875001606,606.7320875001606,l,1,0.3969616841059178,607.1404357498977,608.1572179745417,,,,,,,,,,,,,,,,,,,,,,,,,,,,,,,,,,,,,,,567,2023-05-16_16h05.03.145,eb_02psyexp,2022.2.4,119.9655990788058,
242,0,242,0,,,,,,,,,,,,,,,,,,,,,,,,,,,,,,,,,,,,,,,,,,,,,,,,,,,,,,,,,,,608.1572179745417,608.1572179745417,608.1572179745417,608.1572179745417,608.1572179745417,608.1572179745417,l,1,0.5718616964295506,608.7405724875862,609.7739860123256,,,,,,,,,,,,,,,,,,,,,,,,,,,,,,,,,,,,,,,567,2023-05-16_16h05.03.145,eb_02psyexp,2022.2.4,119.9655990788058,
243,0,243,0,,,,,,,,,,,,,,,,,,,,,,,,,,,,,,,,,,,,,,,,,,,,,,,,,,,,,,,,,,,609.7739860123256,609.7739860123256,609.7739860123256,609.7739860123256,609.7739860123256,609.7739860123256,s,1,0.699134698137641,610.482394631952,611.5158380396897,,,,,,,,,,,,,,,,,,,,,,,,,,,,,,,,,,,,,,,567,2023-05-16_16h05.03.145,eb_02psyexp,2022.2.4,119.9655990788058,
244,0,244,0,,,,,,,,,,,,,,,,,,,,,,,,,,,,,,,,,,,,,,,,,,,,,,,,,,,,,,,,,,,611.5158380396897,611.5158380396897,611.5158380396897,611.5158380396897,611.5158380396897,611.5158380396897,s,1,0.5093121553072706,612.0408788648201,613.0659544026712,,,,,,,,,,,,,,,,,,,,,,,,,,,,,,,,,,,,,,,567,2023-05-16_16h05.03.145,eb_02psyexp,2022.2.4,119.9655990788058,
245,0,245,0,,,,,,,,,,,,,,,,,,,,,,,,,,,,,,,,,,,,,,,,,,,,,,,,,,,,,,,,,,,613.0659544026712,613.0659544026712,613.0659544026712,613.0659544026712,613.0659544026712,613.0659544026712,s,1,0.48720983450766653,613.5660114522325,614.5994412767468,,,,,,,,,,,,,,,,,,,,,,,,,,,,,,,,,,,,,,,567,2023-05-16_16h05.03.145,eb_02psyexp,2022.2.4,119.9655990788058,
246,0,246,0,,,,,,,,,,,,,,,,,,,,,,,,,,,,,,,,,,,,,,,,,,,,,,,,,,,,,,,,,,,614.5994412767468,614.5994412767468,614.5994412767468,614.5994412767468,614.5994412767468,614.5994412767468,s,1,0.49778754415456206,615.1077976763481,616.1412281045923,,,,,,,,,,,,,,,,,,,,,,,,,,,,,,,,,,,,,,,567,2023-05-16_16h05.03.145,eb_02psyexp,2022.2.4,119.9655990788058,
247,0,247,0,,,,,,,,,,,,,,,,,,,,,,,,,,,,,,,,,,,,,,,,,,,,,,,,,,,,,,,,,,,616.1412281045923,616.1412281045923,616.1412281045923,616.1412281045923,616.1412281045923,616.1412281045923,s,1,1.0839951380621642,617.2413102076389,618.2747448617592,,,,,,,,,,,,,,,,,,,,,,,,,,,,,,,,,,,,,,,567,2023-05-16_16h05.03.145,eb_02psyexp,2022.2.4,119.9655990788058,
248,0,248,0,,,,,,,,,,,,,,,,,,,,,,,,,,,,,,,,,,,,,,,,,,,,,,,,,,,,,,,,,,,618.2747448617592,618.2747448617592,618.2747448617592,618.2747448617592,618.2747448617592,618.2747448617592,s,1,0.8945203258190304,619.1831459351815,620.2165959835984,,,,,,,,,,,,,,,,,,,,,,,,,,,,,,,,,,,,,,,567,2023-05-16_16h05.03.145,eb_02psyexp,2022.2.4,119.9655990788058,
249,0,249,0,,,,,,,,,,,,,,,,,,,,,,,,,,,,,,,,,,,,,,,,,,,,,,,,,,,,,,,,,,,620.2165959835984,620.2165959835984,620.2165959835984,620.2165959835984,620.2165959835984,620.2165959835984,s,1,0.5127281853929162,620.7416352995206,621.8417074414901,,,,,,,,,,,,,,,,,,,,,,,,,,,,,,,,,,,,,,,567,2023-05-16_16h05.03.145,eb_02psyexp,2022.2.4,119.9655990788058,
250,0,250,0,,,,,,,,,,,,,,,,,,,,,,,,,,,,,,,,,,,,,,,,,,,,,,,,,,,,,,,,,,,621.8417074414901,621.8417074414901,621.8417074414901,621.8417074414901,621.8417074414901,621.8417074414901,s,1,0.5666406067321077,622.4167647174327,623.450191825279,,,,,,,,,,,,,,,,,,,,,,,,,,,,,,,,,,,,,,,567,2023-05-16_16h05.03.145,eb_02psyexp,2022.2.4,119.9655990788058,
251,0,251,0,,,,,,,,,,,,,,,,,,,,,,,,,,,,,,,,,,,,,,,,,,,,,,,,,,,,,,,,,,,623.450191825279,623.450191825279,623.450191825279,623.450191825279,623.450191825279,623.450191825279,s,1,0.5341640227707103,624.0002441961551,625.0336670782417,,,,,,,,,,,,,,,,,,,,,,,,,,,,,,,,,,,,,,,567,2023-05-16_16h05.03.145,eb_02psyexp,2022.2.4,119.9655990788058,
252,0,252,0,,,,,,,,,,,,,,,,,,,,,,,,,,,,,,,,,,,,,,,,,,,,,,,,,,,,,,,,,,,625.0336670782417,625.0336670782417,625.0336670782417,625.0336670782417,625.0336670782417,625.0336670782417,s,1,0.430723542929627,625.4753763307817,626.5088118904969,,,,,,,,,,,,,,,,,,,,,,,,,,,,,,,,,,,,,,,567,2023-05-16_16h05.03.145,eb_02psyexp,2022.2.4,119.9655990788058,
253,0,253,0,,,,,,,,,,,,,,,,,,,,,,,,,,,,,,,,,,,,,,,,,,,,,,,,,,,,,,,,,,,626.5088118904969,626.5088118904969,626.5088118904969,626.5088118904969,626.5088118904969,626.5088118904969,s,1,0.40362078440375626,626.9255162379704,627.958924027509,,,,,,,,,,,,,,,,,,,,,,,,,,,,,,,,,,,,,,,567,2023-05-16_16h05.03.145,eb_02psyexp,2022.2.4,119.9655990788058,
254,0,254,0,,,,,,,,,,,,,,,,,,,,,,,,,,,,,,,,,,,,,,,,,,,,,,,,,,,,,,,,,,,627.958924027509,627.958924027509,627.958924027509,627.958924027509,627.958924027509,627.958924027509,s,1,0.40153108071535826,628.3756492027314,629.4007540198509,,,,,,,,,,,,,,,,,,,,,,,,,,,,,,,,,,,,,,,567,2023-05-16_16h05.03.145,eb_02psyexp,2022.2.4,119.9655990788058,
255,0,255,0,,,,,,,,,,,,,,,,,,,,,,,,,,,,,,,,,,,,,,,,,,,,,,,,,,,,,,,,,,,629.4007540198509,629.4007540198509,629.4007540198509,629.4007540198509,629.4007540198509,629.4007540198509,s,1,0.4077262384817004,629.8174254657933,630.8508441218873,,,,,,,,,,,,,,,,,,,,,,,,,,,,,,,,,,,,,,,567,2023-05-16_16h05.03.145,eb_02psyexp,2022.2.4,119.9655990788058,
256,0,256,0,,,,,,,,,,,,,,,,,,,,,,,,,,,,,,,,,,,,,,,,,,,,,,,,,,,,,,,,,,,630.8508441218873,630.8508441218873,630.8508441218873,630.8508441218873,630.8508441218873,630.8508441218873,s,1,0.5016964941751212,631.3675756359007,632.3926804531366,,,,,,,,,,,,,,,,,,,,,,,,,,,,,,,,,,,,,,,567,2023-05-16_16h05.03.145,eb_02psyexp,2022.2.4,119.9655990788058,
257,0,257,0,,,,,,,,,,,,,,,,,,,,,,,,,,,,,,,,,,,,,,,,,,,,,,,,,,,,,,,,,,,632.3926804531366,632.3926804531366,632.3926804531366,632.3926804531366,632.3926804531366,632.3926804531366,s,1,0.41590545256622136,632.8177037710557,633.8344241165323,,,,,,,,,,,,,,,,,,,,,,,,,,,,,,,,,,,,,,,567,2023-05-16_16h05.03.145,eb_02psyexp,2022.2.4,119.9655990788058,
258,0,258,0,,,,,,,,,,,,,,,,,,,,,,,,,,,,,,,,,,,,,,,,,,,,,,,,,,,,,,,,,,,633.8344241165323,633.8344241165323,633.8344241165323,633.8344241165323,633.8344241165323,633.8344241165323,s,1,0.5421938213985413,634.3928045132197,635.4179054064443,,,,,,,,,,,,,,,,,,,,,,,,,,,,,,,,,,,,,,,567,2023-05-16_16h05.03.145,eb_02psyexp,2022.2.4,119.9655990788058,
259,0,259,0,,,,,,,,,,,,,,,,,,,,,,,,,,,,,,,,,,,,,,,,,,,,,,,,,,,,,,,,,,,635.4179054064443,635.4179054064443,635.4179054064443,635.4179054064443,635.4179054064443,635.4179054064443,l,1,0.494720452115871,635.9262744837906,636.9513859417057,,,,,,,,,,,,,,,,,,,,,,,,,,,,,,,,,,,,,,,567,2023-05-16_16h05.03.145,eb_02psyexp,2022.2.4,119.9655990788058,
260,0,260,0,,,,,,,,,,,,,,,,,,,,,,,,,,,,,,,,,,,,,,,,,,,,,,,,,,,,,,,,,,,636.9513859417057,636.9513859417057,636.9513859417057,636.9513859417057,636.9513859417057,636.9513859417057,s,1,0.5202457454288378,637.4847400019644,638.5181773727527,,,,,,,,,,,,,,,,,,,,,,,,,,,,,,,,,,,,,,,567,2023-05-16_16h05.03.145,eb_02psyexp,2022.2.4,119.9655990788058,
261,0,261,0,,,,,,,,,,,,,,,,,,,,,,,,,,,,,,,,,,,,,,,,,,,,,,,,,,,,,,,,,,,638.5181773727527,638.5181773727527,638.5181773727527,638.5181773727527,638.5181773727527,638.5181773727527,l,1,0.5455180890858173,639.0765622971812,640.1016601718729,,,,,,,,,,,,,,,,,,,,,,,,,,,,,,,,,,,,,,,567,2023-05-16_16h05.03.145,eb_02psyexp,2022.2.4,119.9655990788058,
262,0,262,0,,,,,,,,,,,,,,,,,,,,,,,,,,,,,,,,,,,,,,,,,,,,,,,,,,,,,,,,,,,640.1016601718729,640.1016601718729,640.1016601718729,640.1016601718729,640.1016601718729,640.1016601718729,s,1,0.6260859282920137,640.7433627838036,641.7601253882749,,,,,,,,,,,,,,,,,,,,,,,,,,,,,,,,,,,,,,,567,2023-05-16_16h05.03.145,eb_02psyexp,2022.2.4,119.9655990788058,
263,0,263,0,,,,,,,,,,,,,,,,,,,,,,,,,,,,,,,,,,,,,,,,,,,,,,,,,,,,,,,,,,,641.7601253882749,641.7601253882749,641.7601253882749,641.7601253882749,641.7601253882749,641.7601253882749,s,1,0.4876592882210389,642.2601597991306,643.2769051981159,,,,,,,,,,,,,,,,,,,,,,,,,,,,,,,,,,,,,,,567,2023-05-16_16h05.03.145,eb_02psyexp,2022.2.4,119.9655990788058,
264,0,264,0,,,,,,,,,,,,,,,,,,,,,,,,,,,,,,,,,,,,,,,,,,,,,,,,,,,,,,,,,,,643.2769051981159,643.2769051981159,643.2769051981159,643.2769051981159,643.2769051981159,643.2769051981159,s,1,0.45884081756230444,643.7519368168432,644.7770552173024,,,,,,,,,,,,,,,,,,,,,,,,,,,,,,,,,,,,,,,567,2023-05-16_16h05.03.145,eb_02psyexp,2022.2.4,119.9655990788058,
265,0,265,0,,,,,,,,,,,,,,,,,,,,,,,,,,,,,,,,,,,,,,,,,,,,,,,,,,,,,,,,,,,644.7770552173024,644.7770552173024,644.7770552173024,644.7770552173024,644.7770552173024,644.7770552173024,l,1,0.5187561186030507,645.3104467069497,646.3271821449744,,,,,,,,,,,,,,,,,,,,,,,,,,,,,,,,,,,,,,,567,2023-05-16_16h05.03.145,eb_02psyexp,2022.2.4,119.9655990788058,
266,0,266,0,,,,,,,,,,,,,,,,,,,,,,,,,,,,,,,,,,,,,,,,,,,,,,,,,,,,,,,,,,,646.3271821449744,646.3271821449744,646.3271821449744,646.3271821449744,646.3271821449744,646.3271821449744,l,1,0.5366714859846979,646.8772275733063,647.9023393330863,,,,,,,,,,,,,,,,,,,,,,,,,,,,,,,,,,,,,,,567,2023-05-16_16h05.03.145,eb_02psyexp,2022.2.4,119.9655990788058,
267,0,267,0,,,,,,,,,,,,,,,,,,,,,,,,,,,,,,,,,,,,,,,,,,,,,,,,,,,,,,,,,,,647.9023393330863,647.9023393330863,647.9023393330863,647.9023393330863,647.9023393330863,647.9023393330863,s,1,0.5055728446459398,648.4190261734184,649.4441065407591,,,,,,,,,,,,,,,,,,,,,,,,,,,,,,,,,,,,,,,567,2023-05-16_16h05.03.145,eb_02psyexp,2022.2.4,119.9655990788058,
268,0,268,0,,,,,,,,,,,,,,,,,,,,,,,,,,,,,,,,,,,,,,,,,,,,,,,,,,,,,,,,,,,649.4441065407591,649.4441065407591,649.4441065407591,649.4441065407591,649.4441065407591,649.4441065407591,l,1,0.9238123983377591,650.3775399875594,651.402623675298,,,,,,,,,,,,,,,,,,,,,,,,,,,,,,,,,,,,,,,567,2023-05-16_16h05.03.145,eb_02psyexp,2022.2.4,119.9655990788058,
269,0,269,0,,,,,,,,,,,,,,,,,,,,,,,,,,,,,,,,,,,,,,,,,,,,,,,,,,,,,,,,,,,651.402623675298,651.402623675298,651.402623675298,651.402623675298,651.402623675298,651.402623675298,s,1,0.5243644810980186,651.9360341813881,652.9694280858384,,,,,,,,,,,,,,,,,,,,,,,,,,,,,,,,,,,,,,,567,2023-05-16_16h05.03.145,eb_02psyexp,2022.2.4,119.9655990788058,
270,0,270,0,,,,,,,,,,,,,,,,,,,,,,,,,,,,,,,,,,,,,,,,,,,,,,,,,,,,,,,,,,,652.9694280858384,652.9694280858384,652.9694280858384,652.9694280858384,652.9694280858384,652.9694280858384,l,1,0.5495731345145032,653.5278084825259,654.552896094392,,,,,,,,,,,,,,,,,,,,,,,,,,,,,,,,,,,,,,,567,2023-05-16_16h05.03.145,eb_02psyexp,2022.2.4,119.9655990788058,
271,0,271,0,,,,,,,,,,,,,,,,,,,,,,,,,,,,,,,,,,,,,,,,,,,,,,,,,,,,,,,,,,,654.552896094392,654.552896094392,654.552896094392,654.552896094392,654.552896094392,654.552896094392,s,1,0.47011549747549,655.0362720388221,656.0613496896112,,,,,,,,,,,,,,,,,,,,,,,,,,,,,,,,,,,,,,,567,2023-05-16_16h05.03.145,eb_02psyexp,2022.2.4,119.9655990788058,
272,0,272,0,,,,,,,,,,,,,,,,,,,,,,,,,,,,,,,,,,,,,,,,,,,,,,,,,,,,,,,,,,,656.0613496896112,656.0613496896112,656.0613496896112,656.0613496896112,656.0613496896112,656.0613496896112,l,1,0.3216620230814442,656.394721559016,657.4198345261393,,,,,,,,,,,,,,,,,,,,,,,,,,,,,,,,,,,,,,,567,2023-05-16_16h05.03.145,eb_02psyexp,2022.2.4,119.9655990788058,
273,0,273,0,,,,,,,,,,,,,,,,,,,,,,,,,,,,,,,,,,,,,,,,,,,,,,,,,,,,,,,,,,,657.4198345261393,657.4198345261393,657.4198345261393,657.4198345261393,657.4198345261393,657.4198345261393,l,1,0.4752197713823989,657.9115381945157,658.9282787640113,,,,,,,,,,,,,,,,,,,,,,,,,,,,,,,,,,,,,,,567,2023-05-16_16h05.03.145,eb_02psyexp,2022.2.4,119.9655990788058,
274,0,274,0,,,,,,,,,,,,,,,,,,,,,,,,,,,,,,,,,,,,,,,,,,,,,,,,,,,,,,,,,,,658.9282787640113,658.9282787640113,658.9282787640113,658.9282787640113,658.9282787640113,658.9282787640113,l,1,0.4787918576039374,659.4200083913747,660.4450963051058,,,,,,,,,,,,,,,,,,,,,,,,,,,,,,,,,,,,,,,567,2023-05-16_16h05.03.145,eb_02psyexp,2022.2.4,119.9655990788058,
