trials.thisRepN,trials.thisTrialN,trials.thisN,trials.thisIndex,image_loop.thisRepN,image_loop.thisTrialN,image_loop.thisN,image_loop.thisIndex,break_loop.thisRepN,break_loop.thisTrialN,break_loop.thisN,break_loop.thisIndex,test_trials.thisRepN,test_trials.thisTrialN,test_trials.thisN,test_trials.thisIndex,distance matrix,tools,welcome_text.started,instructions_0_keypress.started,instructions_0_keypress.keys,instructions_0_keypress.rt,consent_image_0.started,consent0_key_resp.started,consent0_text.started,consent0_key_resp.keys,consent0_key_resp.rt,consent_image_1.started,consent1_key_resp.started,consent1_text.started,consent1_key_resp.keys,consent1_key_resp.rt,consent2_text.started,consent_image_2.started,consent2_key_resp.started,consent2_key_resp.keys,consent2_key_resp.rt,agree_button.started,disagree_button.started,consent_image_3.started,agree_button.numClicks,agree_button.timesOn,agree_button.timesOff,disagree_button.numClicks,disagree_button.timesOn,disagree_button.timesOff,instructions_text1.started,instructions1_key_resp.started,instr1_cnt_text.started,instructions1_key_resp.keys,instructions1_key_resp.rt,instructions_text2.started,instr2_cnt_text.started,instructions2_key_resp.started,instructions2_key_resp.keys,instructions2_key_resp.rt,instructions_text3.started,instructions3_key_resp.started,instr3_cnt_text.started,instructions3_key_resp.keys,instructions3_key_resp.rt,text_countdown.started,image.started,small_large_keyresp.started,task_question_text.started,smalleroption_text.started,largeroption_text.started,accuracy_score_text.started,small_large_keyresp.keys,small_large_keyresp.corr,small_large_keyresp.rt,fb_2.started,fb_2.stopped,break_text.started,break_key_resp.started,break_key_resp.keys,break_key_resp.rt,reveal_seq_text.started,start_test_text.started,continue_to_test.started,continue_to_test.keys,continue_to_test.rt,test_structure_info.started,start_test_text_2.started,continue_to_test_2.started,continue_to_test_2.keys,continue_to_test_2.rt,test_cntdown_text.started,parent index,left child index,right child index,left distance,right distance,parent_image.started,top_image_text.started,left_child_image.started,right_child_image.started,path_resp.started,child_choice_text.started,left_choice_text.started,right_choice_text.started,path_resp.keys,path_resp.rt,graph.started,debrief_text.started,debriefing_title.started,demo_scr_adv.started,demo_scr_adv_keypress.started,demo_scr_adv_keypress.keys,demo_scr_adv_keypress.rt,text_countdown_2.started,participant,date,expName,psychopyVersion,frameRate,
,,,,,,,,,,,,,,,,"[[0. 1. 1. 2. 2. 3. 4. 5. 5. 6. 6. 7.]
 [1. 0. 2. 1. 1. 2. 3. 4. 4. 5. 5. 6.]
 [1. 2. 0. 1. 1. 2. 3. 4. 4. 5. 5. 6.]
 [2. 1. 1. 0. 1. 1. 2. 3. 3. 4. 4. 5.]
 [2. 1. 1. 1. 0. 1. 2. 3. 3. 4. 4. 5.]
 [3. 2. 2. 1. 1. 0. 1. 2. 2. 3. 3. 4.]
 [4. 3. 3. 2. 2. 1. 0. 1. 1. 2. 2. 3.]
 [5. 4. 4. 3. 3. 2. 1. 0. 1. 1. 1. 2.]
 [5. 4. 4. 3. 3. 2. 1. 1. 0. 1. 1. 2.]
 [6. 5. 5. 4. 4. 3. 2. 1. 1. 0. 2. 1.]
 [6. 5. 5. 4. 4. 3. 2. 1. 1. 2. 0. 1.]
 [7. 6. 6. 5. 5. 4. 3. 2. 2. 1. 1. 0.]]",[ 3 11  2  9  7  0  8  4  1 10  5  6],9.87473041145131,9.87473041145131,return,2231.4092189497314,,,,,,,,,,,,,,,,,,,,,,,,,,,,,,,,,,,,,,,,,,,,,,,,,,,,,,,,,,,,,,,,,,,,,,,,,,,,,,,,,,,,,,,,,,568,2010-12-29_14h26.09.664,eb_02psyexp,2022.2.4,119.99547254612528,
,,,,,,,,,,,,,,,,,,,,,,2241.29866712715,2241.29866712715,2241.29866712715,space,82.06971985544078,,,,,,,,,,,,,,,,,,,,,,,,,,,,,,,,,,,,,,,,,,,,,,,,,,,,,,,,,,,,,,,,,,,,,,,,,,,,,,,,,,,,,568,2010-12-29_14h26.09.664,eb_02psyexp,2022.2.4,119.99547254612528,
,,,,,,,,,,,,,,,,,,,,,,,,,,,2323.380400486756,2323.380400486756,2323.380400486756,space,7.404046170064248,,,,,,,,,,,,,,,,,,,,,,,,,,,,,,,,,,,,,,,,,,,,,,,,,,,,,,,,,,,,,,,,,,,,,,,,,,,,,,,,568,2010-12-29_14h26.09.664,eb_02psyexp,2022.2.4,119.99547254612528,
,,,,,,,,,,,,,,,,,,,,,,,,,,,,,,,,2330.797652462963,2330.797652462963,2330.797652462963,space,4.377928719040938,,,,,,,,,,,,,,,,,,,,,,,,,,,,,,,,,,,,,,,,,,,,,,,,,,,,,,,,,,,,,,,,,,,,,,,,,,,568,2010-12-29_14h26.09.664,eb_02psyexp,2022.2.4,119.99547254612528,
,,,,,,,,,,,,,,,,,,,,,,,,,,,,,,,,,,,,,2335.1980178205995,2335.1980178205995,2335.1980178205995,1,[6.533667741343379],[6.533671665354632],0,,,2341.7235525528667,2343.7153793980833,2343.7153793980833,space,3.3723834581905976,,,,,,,,,,,,,,,,,,,,,,,,,,,,,,,,,,,,,,,,,,,,,,,,,,,,,,,,,,,,,568,2010-12-29_14h26.09.664,eb_02psyexp,2022.2.4,119.99547254612528,
,,,,,,,,,,,,,,,,,,,,,,,,,,,,,,,,,,,,,,,,,,,,,,,,,,,2347.0989894410595,2350.0908950687153,2350.0908950687153,space,11.692103922134265,,,,,,,,,,,,,,,,,,,,,,,,,,,,,,,,,,,,,,,,,,,,,,,,,,,,,,,,568,2010-12-29_14h26.09.664,eb_02psyexp,2022.2.4,119.99547254612528,
,,,,,,,,,,,,,,,,,,,,,,,,,,,,,,,,,,,,,,,,,,,,,,,,,,,,,,,,2361.791860289988,2364.783772256458,2364.783772256458,space,17.717575115384534,,,,,,,,,,,,,,,,,,,,,,,,,,,,,,,,,,,,,,,,,,,,,,,,,,,568,2010-12-29_14h26.09.664,eb_02psyexp,2022.2.4,119.99547254612528,
0,0,0,0,,,,,,,,,,,,,,,,,,,,,,,,,,,,,,,,,,,,,,,,,,,,,,,,,,,,,,,,,,2382.518556897994,2387.552316250396,2387.552316250396,2387.552316250396,2387.552316250396,2387.552316250396,2387.552316250396,l,1,1.3491444353712723,2388.9107666079653,2389.9358293999685,,,,,,,,,,,,,,,,,,,,,,,,,,,,,,,,,,,,,,,568,2010-12-29_14h26.09.664,eb_02psyexp,2022.2.4,119.99547254612528,
1,0,1,0,,,,,,,,,,,,,,,,,,,,,,,,,,,,,,,,,,,,,,,,,,,,,,,,,,,,,,,,,,,2389.9358293999685,2389.9358293999685,2389.9358293999685,2389.9358293999685,2389.9358293999685,2389.9358293999685,s,1,0.8616728129563853,2390.8108945615822,2391.827655611327,,,,,,,,,,,,,,,,,,,,,,,,,,,,,,,,,,,,,,,568,2010-12-29_14h26.09.664,eb_02psyexp,2022.2.4,119.99547254612528,
2,0,2,0,,,,,,,,,,,,,,,,,,,,,,,,,,,,,,,,,,,,,,,,,,,,,,,,,,,,,,,,,,,2391.827655611327,2391.827655611327,2391.827655611327,2391.827655611327,2391.827655611327,2391.827655611327,l,1,0.8178691461216658,2392.661046346184,2393.6861553210765,,,,,,,,,,,,,,,,,,,,,,,,,,,,,,,,,,,,,,,568,2010-12-29_14h26.09.664,eb_02psyexp,2022.2.4,119.99547254612528,
3,0,3,0,,,,,,,,,,,,,,,,,,,,,,,,,,,,,,,,,,,,,,,,,,,,,,,,,,,,,,,,,,,2393.6861553210765,2393.6861553210765,2393.6861553210765,2393.6861553210765,2393.6861553210765,2393.6861553210765,s,1,0.7034135858993977,2394.402848666068,2395.4363119050395,,,,,,,,,,,,,,,,,,,,,,,,,,,,,,,,,,,,,,,568,2010-12-29_14h26.09.664,eb_02psyexp,2022.2.4,119.99547254612528,
4,0,4,0,,,,,,,,,,,,,,,,,,,,,,,,,,,,,,,,,,,,,,,,,,,,,,,,,,,,,,,,,,,2395.4363119050395,2395.4363119050395,2395.4363119050395,2395.4363119050395,2395.4363119050395,2395.4363119050395,s,1,0.8572944988263771,2396.303005597205,2397.32813419227,,,,,,,,,,,,,,,,,,,,,,,,,,,,,,,,,,,,,,,568,2010-12-29_14h26.09.664,eb_02psyexp,2022.2.4,119.99547254612528,
5,0,5,0,,,,,,,,,,,,,,,,,,,,,,,,,,,,,,,,,,,,,,,,,,,,,,,,,,,,,,,,,,,2397.32813419227,2397.32813419227,2397.32813419227,2397.32813419227,2397.32813419227,2397.32813419227,s,1,1.260501157375984,2398.6032061151927,2399.6199221895076,,,,,,,,,,,,,,,,,,,,,,,,,,,,,,,,,,,,,,,568,2010-12-29_14h26.09.664,eb_02psyexp,2022.2.4,119.99547254612528,
6,0,6,0,,,,,,,,,,,,,,,,,,,,,,,,,,,,,,,,,,,,,,,,,,,,,,,,,,,,,,,,,,,2399.6199221895076,2399.6199221895076,2399.6199221895076,2399.6199221895076,2399.6199221895076,2399.6199221895076,l,1,0.7447209648089483,2400.378362103016,2401.411814173567,,,,,,,,,,,,,,,,,,,,,,,,,,,,,,,,,,,,,,,568,2010-12-29_14h26.09.664,eb_02psyexp,2022.2.4,119.99547254612528,
7,0,7,0,,,,,,,,,,,,,,,,,,,,,,,,,,,,,,,,,,,,,,,,,,,,,,,,,,,,,,,,,,,2401.411814173567,2401.411814173567,2401.411814173567,2401.411814173567,2401.411814173567,2401.411814173567,s,1,1.15292472706642,2402.578531500534,2403.6036148181884,,,,,,,,,,,,,,,,,,,,,,,,,,,,,,,,,,,,,,,568,2010-12-29_14h26.09.664,eb_02psyexp,2022.2.4,119.99547254612528,
8,0,8,0,,,,,,,,,,,,,,,,,,,,,,,,,,,,,,,,,,,,,,,,,,,,,,,,,,,,,,,,,,,2403.6036148181884,2403.6036148181884,2403.6036148181884,2403.6036148181884,2403.6036148181884,2403.6036148181884,l,1,0.9851298006251454,2404.6036809231155,2405.6204157120083,,,,,,,,,,,,,,,,,,,,,,,,,,,,,,,,,,,,,,,568,2010-12-29_14h26.09.664,eb_02psyexp,2022.2.4,119.99547254612528,
9,0,9,0,,,,,,,,,,,,,,,,,,,,,,,,,,,,,,,,,,,,,,,,,,,,,,,,,,,,,,,,,,,2405.6204157120083,2405.6204157120083,2405.6204157120083,2405.6204157120083,2405.6204157120083,2405.6204157120083,s,1,0.8483419708209112,2406.4788577686995,2407.5039389734156,,,,,,,,,,,,,,,,,,,,,,,,,,,,,,,,,,,,,,,568,2010-12-29_14h26.09.664,eb_02psyexp,2022.2.4,119.99547254612528,
10,0,10,0,,,,,,,,,,,,,,,,,,,,,,,,,,,,,,,,,,,,,,,,,,,,,,,,,,,,,,,,,,,2407.5039389734156,2407.5039389734156,2407.5039389734156,2407.5039389734156,2407.5039389734156,2407.5039389734156,s,1,0.7488378778798506,2408.2623136877082,2409.2874181348598,,,,,,,,,,,,,,,,,,,,,,,,,,,,,,,,,,,,,,,568,2010-12-29_14h26.09.664,eb_02psyexp,2022.2.4,119.99547254612528,
11,0,11,0,,,,,,,,,,,,,,,,,,,,,,,,,,,,,,,,,,,,,,,,,,,,,,,,,,,,,,,,,,,2409.2874181348598,2409.2874181348598,2409.2874181348598,2409.2874181348598,2409.2874181348598,2409.2874181348598,l,1,0.9094146984862164,2410.2124748597853,2411.2375421795296,,,,,,,,,,,,,,,,,,,,,,,,,,,,,,,,,,,,,,,568,2010-12-29_14h26.09.664,eb_02psyexp,2022.2.4,119.99547254612528,
12,0,12,0,,,,,,,,,,,,,,,,,,,,,,,,,,,,,,,,,,,,,,,,,,,,,,,,,,,,,,,,,,,2411.2375421795296,2411.2375421795296,2411.2375421795296,2411.2375421795296,2411.2375421795296,2411.2375421795296,s,1,0.6073478505713865,2411.8543163898867,2412.871009221766,,,,,,,,,,,,,,,,,,,,,,,,,,,,,,,,,,,,,,,568,2010-12-29_14h26.09.664,eb_02psyexp,2022.2.4,119.99547254612528,
13,0,13,0,,,,,,,,,,,,,,,,,,,,,,,,,,,,,,,,,,,,,,,,,,,,,,,,,,,,,,,,,,,2412.871009221766,2412.871009221766,2412.871009221766,2412.871009221766,2412.871009221766,2412.871009221766,l,1,0.7009022054262459,2413.5877846697113,2414.604488368146,,,,,,,,,,,,,,,,,,,,,,,,,,,,,,,,,,,,,,,568,2010-12-29_14h26.09.664,eb_02psyexp,2022.2.4,119.99547254612528,
14,0,14,0,,,,,,,,,,,,,,,,,,,,,,,,,,,,,,,,,,,,,,,,,,,,,,,,,,,,,,,,,,,2414.604488368146,2414.604488368146,2414.604488368146,2414.604488368146,2414.604488368146,2414.604488368146,s,1,0.6474436090793461,2415.2629258367233,2416.28800160822,,,,,,,,,,,,,,,,,,,,,,,,,,,,,,,,,,,,,,,568,2010-12-29_14h26.09.664,eb_02psyexp,2022.2.4,119.99547254612528,
15,0,15,0,,,,,,,,,,,,,,,,,,,,,,,,,,,,,,,,,,,,,,,,,,,,,,,,,,,,,,,,,,,2416.28800160822,2416.28800160822,2416.28800160822,2416.28800160822,2416.28800160822,2416.28800160822,l,1,0.7479797223350033,2417.046368776355,2418.071433681296,,,,,,,,,,,,,,,,,,,,,,,,,,,,,,,,,,,,,,,568,2010-12-29_14h26.09.664,eb_02psyexp,2022.2.4,119.99547254612528,
16,0,16,0,,,,,,,,,,,,,,,,,,,,,,,,,,,,,,,,,,,,,,,,,,,,,,,,,,,,,,,,,,,2418.071433681296,2418.071433681296,2418.071433681296,2418.071433681296,2418.071433681296,2418.071433681296,s,1,0.7645792829571292,2418.8465148106916,2419.871643103892,,,,,,,,,,,,,,,,,,,,,,,,,,,,,,,,,,,,,,,568,2010-12-29_14h26.09.664,eb_02psyexp,2022.2.4,119.99547254612528,
17,0,17,0,,,,,,,,,,,,,,,,,,,,,,,,,,,,,,,,,,,,,,,,,,,,,,,,,,,,,,,,,,,2419.871643103892,2419.871643103892,2419.871643103892,2419.871643103892,2419.871643103892,2419.871643103892,l,1,0.8763752551749349,2420.7633748365333,2421.7967707632342,,,,,,,,,,,,,,,,,,,,,,,,,,,,,,,,,,,,,,,568,2010-12-29_14h26.09.664,eb_02psyexp,2022.2.4,119.99547254612528,
18,0,18,0,,,,,,,,,,,,,,,,,,,,,,,,,,,,,,,,,,,,,,,,,,,,,,,,,,,,,,,,,,,2421.7967707632342,2421.7967707632342,2421.7967707632342,2421.7967707632342,2421.7967707632342,2421.7967707632342,s,1,0.6152795265661553,2422.421843697317,2423.4385446792003,,,,,,,,,,,,,,,,,,,,,,,,,,,,,,,,,,,,,,,568,2010-12-29_14h26.09.664,eb_02psyexp,2022.2.4,119.99547254612528,
19,0,19,0,,,,,,,,,,,,,,,,,,,,,,,,,,,,,,,,,,,,,,,,,,,,,,,,,,,,,,,,,,,2423.4385446792003,2423.4385446792003,2423.4385446792003,2423.4385446792003,2423.4385446792003,2423.4385446792003,l,1,0.6295391567982733,2424.0802977676503,2425.113738367916,,,,,,,,,,,,,,,,,,,,,,,,,,,,,,,,,,,,,,,568,2010-12-29_14h26.09.664,eb_02psyexp,2022.2.4,119.99547254612528,
20,0,20,0,,,,,,,,,,,,,,,,,,,,,,,,,,,,,,,,,,,,,,,,,,,,,,,,,,,,,,,,,,,2425.113738367916,2425.113738367916,2425.113738367916,2425.113738367916,2425.113738367916,2425.113738367916,s,1,0.6663607633672655,2425.7887947155396,2426.8221752478275,,,,,,,,,,,,,,,,,,,,,,,,,,,,,,,,,,,,,,,568,2010-12-29_14h26.09.664,eb_02psyexp,2022.2.4,119.99547254612528,
21,0,21,0,,,,,,,,,,,,,,,,,,,,,,,,,,,,,,,,,,,,,,,,,,,,,,,,,,,,,,,,,,,2426.8221752478275,2426.8221752478275,2426.8221752478275,2426.8221752478275,2426.8221752478275,2426.8221752478275,l,1,1.7569941292749718,2428.5889775754185,2429.614074476296,,,,,,,,,,,,,,,,,,,,,,,,,,,,,,,,,,,,,,,568,2010-12-29_14h26.09.664,eb_02psyexp,2022.2.4,119.99547254612528,
22,0,22,0,,,,,,,,,,,,,,,,,,,,,,,,,,,,,,,,,,,,,,,,,,,,,,,,,,,,,,,,,,,2429.614074476296,2429.614074476296,2429.614074476296,2429.614074476296,2429.614074476296,2429.614074476296,l,1,1.2371148325037211,2430.864207365201,2431.8808998952154,,,,,,,,,,,,,,,,,,,,,,,,,,,,,,,,,,,,,,,568,2010-12-29_14h26.09.664,eb_02psyexp,2022.2.4,119.99547254612528,
23,0,23,0,,,,,,,,,,,,,,,,,,,,,,,,,,,,,,,,,,,,,,,,,,,,,,,,,,,,,,,,,,,2431.8808998952154,2431.8808998952154,2431.8808998952154,2431.8808998952154,2431.8808998952154,2431.8808998952154,l,1,0.7143377889879048,2432.606013005483,2433.6310724772047,,,,,,,,,,,,,,,,,,,,,,,,,,,,,,,,,,,,,,,568,2010-12-29_14h26.09.664,eb_02psyexp,2022.2.4,119.99547254612528,
24,0,24,0,,,,,,,,,,,,,,,,,,,,,,,,,,,,,,,,,,,,,,,,,,,,,,,,,,,,,,,,,,,2433.6310724772047,2433.6310724772047,2433.6310724772047,2433.6310724772047,2433.6310724772047,2433.6310724772047,s,1,0.8522005017148331,2434.4978171817493,2435.531239671167,,,,,,,,,,,,,,,,,,,,,,,,,,,,,,,,,,,,,,,568,2010-12-29_14h26.09.664,eb_02psyexp,2022.2.4,119.99547254612528,
25,0,25,0,,,,,,,,,,,,,,,,,,,,,,,,,,,,,,,,,,,,,,,,,,,,,,,,,,,,,,,,,,,2435.531239671167,2435.531239671167,2435.531239671167,2435.531239671167,2435.531239671167,2435.531239671167,s,1,0.7440264110919088,2436.2896213278873,2437.3147266806336,,,,,,,,,,,,,,,,,,,,,,,,,,,,,,,,,,,,,,,568,2010-12-29_14h26.09.664,eb_02psyexp,2022.2.4,119.99547254612528,
26,0,26,0,,,,,,,,,,,,,,,,,,,,,,,,,,,,,,,,,,,,,,,,,,,,,,,,,,,,,,,,,,,2437.3147266806336,2437.3147266806336,2437.3147266806336,2437.3147266806336,2437.3147266806336,2437.3147266806336,l,1,0.9285730300471187,2438.2564475617837,2439.289901141543,,,,,,,,,,,,,,,,,,,,,,,,,,,,,,,,,,,,,,,568,2010-12-29_14h26.09.664,eb_02psyexp,2022.2.4,119.99547254612528,
27,0,27,0,,,,,,,,,,,,,,,,,,,,,,,,,,,,,,,,,,,,,,,,,,,,,,,,,,,,,,,,,,,2439.289901141543,2439.289901141543,2439.289901141543,2439.289901141543,2439.289901141543,2439.289901141543,s,1,0.7454617012990639,2440.0482903445372,2441.073371247505,,,,,,,,,,,,,,,,,,,,,,,,,,,,,,,,,,,,,,,568,2010-12-29_14h26.09.664,eb_02psyexp,2022.2.4,119.99547254612528,
28,0,28,0,,,,,,,,,,,,,,,,,,,,,,,,,,,,,,,,,,,,,,,,,,,,,,,,,,,,,,,,,,,2441.073371247505,2441.073371247505,2441.073371247505,2441.073371247505,2441.073371247505,2441.073371247505,l,1,0.8820249555865303,2441.9650887933094,2442.9818208655342,,,,,,,,,,,,,,,,,,,,,,,,,,,,,,,,,,,,,,,568,2010-12-29_14h26.09.664,eb_02psyexp,2022.2.4,119.99547254612528,
29,0,29,0,,,,,,,,,,,,,,,,,,,,,,,,,,,,,,,,,,,,,,,,,,,,,,,,,,,,,,,,,,,2442.9818208655342,2442.9818208655342,2442.9818208655342,2442.9818208655342,2442.9818208655342,2442.9818208655342,l,1,0.7886176009196788,2443.7819086430827,2444.815317851142,,,,,,,,,,,,,,,,,,,,,,,,,,,,,,,,,,,,,,,568,2010-12-29_14h26.09.664,eb_02psyexp,2022.2.4,119.99547254612528,
30,0,30,0,,,,,,,,,,,,,,,,,,,,,,,,,,,,,,,,,,,,,,,,,,,,,,,,,,,,,,,,,,,2444.815317851142,2444.815317851142,2444.815317851142,2444.815317851142,2444.815317851142,2444.815317851142,s,1,0.8591360772261396,2445.690408669878,2446.7238091242034,,,,,,,,,,,,,,,,,,,,,,,,,,,,,,,,,,,,,,,568,2010-12-29_14h26.09.664,eb_02psyexp,2022.2.4,119.99547254612528,
31,0,31,0,,,,,,,,,,,,,,,,,,,,,,,,,,,,,,,,,,,,,,,,,,,,,,,,,,,,,,,,,,,2446.7238091242034,2446.7238091242034,2446.7238091242034,2446.7238091242034,2446.7238091242034,2446.7238091242034,l,1,1.1587072409456596,2447.898892789148,2448.9240228934214,,,,,,,,,,,,,,,,,,,,,,,,,,,,,,,,,,,,,,,568,2010-12-29_14h26.09.664,eb_02psyexp,2022.2.4,119.99547254612528,
32,0,32,0,,,,,,,,,,,,,,,,,,,,,,,,,,,,,,,,,,,,,,,,,,,,,,,,,,,,,,,,,,,2448.9240228934214,2448.9240228934214,2448.9240228934214,2448.9240228934214,2448.9240228934214,2448.9240228934214,l,1,0.8225097667891532,2449.757395819179,2450.7908086493844,,,,,,,,,,,,,,,,,,,,,,,,,,,,,,,,,,,,,,,568,2010-12-29_14h26.09.664,eb_02psyexp,2022.2.4,119.99547254612528,
33,0,33,0,,,,,,,,,,,,,,,,,,,,,,,,,,,,,,,,,,,,,,,,,,,,,,,,,,,,,,,,,,,2450.7908086493844,2450.7908086493844,2450.7908086493844,2450.7908086493844,2450.7908086493844,2450.7908086493844,l,1,0.9877884831512347,2451.7908998077037,2452.8243075064383,,,,,,,,,,,,,,,,,,,,,,,,,,,,,,,,,,,,,,,568,2010-12-29_14h26.09.664,eb_02psyexp,2022.2.4,119.99547254612528,
34,0,34,0,,,,,,,,,,,,,,,,,,,,,,,,,,,,,,,,,,,,,,,,,,,,,,,,,,,,,,,,,,,2452.8243075064383,2452.8243075064383,2452.8243075064383,2452.8243075064383,2452.8243075064383,2452.8243075064383,s,1,0.7782726453151554,2453.6160476607038,2454.6327752051875,,,,,,,,,,,,,,,,,,,,,,,,,,,,,,,,,,,,,,,568,2010-12-29_14h26.09.664,eb_02psyexp,2022.2.4,119.99547254612528,
35,0,35,0,,,,,,,,,,,,,,,,,,,,,,,,,,,,,,,,,,,,,,,,,,,,,,,,,,,,,,,,,,,2454.6327752051875,2454.6327752051875,2454.6327752051875,2454.6327752051875,2454.6327752051875,2454.6327752051875,l,1,0.7778542831074446,2455.42454071471,2456.457924567396,,,,,,,,,,,,,,,,,,,,,,,,,,,,,,,,,,,,,,,568,2010-12-29_14h26.09.664,eb_02psyexp,2022.2.4,119.99547254612528,
36,0,36,0,,,,,,,,,,,,,,,,,,,,,,,,,,,,,,,,,,,,,,,,,,,,,,,,,,,,,,,,,,,2456.457924567396,2456.457924567396,2456.457924567396,2456.457924567396,2456.457924567396,2456.457924567396,s,1,1.0087545858696103,2457.4830081870314,2458.508114445256,,,,,,,,,,,,,,,,,,,,,,,,,,,,,,,,,,,,,,,568,2010-12-29_14h26.09.664,eb_02psyexp,2022.2.4,119.99547254612528,
37,0,37,0,,,,,,,,,,,,,,,,,,,,,,,,,,,,,,,,,,,,,,,,,,,,,,,,,,,,,,,,,,,2458.508114445256,2458.508114445256,2458.508114445256,2458.508114445256,2458.508114445256,2458.508114445256,l,1,0.6535777765093371,2459.174852448865,2460.1999336536974,,,,,,,,,,,,,,,,,,,,,,,,,,,,,,,,,,,,,,,568,2010-12-29_14h26.09.664,eb_02psyexp,2022.2.4,119.99547254612528,
38,0,38,0,,,,,,,,,,,,,,,,,,,,,,,,,,,,,,,,,,,,,,,,,,,,,,,,,,,,,,,,,,,2460.1999336536974,2460.1999336536974,2460.1999336536974,2460.1999336536974,2460.1999336536974,2460.1999336536974,s,1,0.6737913705874234,2460.8833050249377,2461.900022608461,,,,,,,,,,,,,,,,,,,,,,,,,,,,,,,,,,,,,,,568,2010-12-29_14h26.09.664,eb_02psyexp,2022.2.4,119.99547254612528,
39,0,39,0,,,,,,,,,,,,,,,,,,,,,,,,,,,,,,,,,,,,,,,,,,,,,,,,,,,,,,,,,,,2461.900022608461,2461.900022608461,2461.900022608461,2461.900022608461,2461.900022608461,2461.900022608461,s,1,0.7737150330794975,2462.683449851931,2463.700165624381,,,,,,,,,,,,,,,,,,,,,,,,,,,,,,,,,,,,,,,568,2010-12-29_14h26.09.664,eb_02psyexp,2022.2.4,119.99547254612528,
40,0,40,0,,,,,,,,,,,,,,,,,,,,,,,,,,,,,,,,,,,,,,,,,,,,,,,,,,,,,,,,,,,2463.700165624381,2463.700165624381,2463.700165624381,2463.700165624381,2463.700165624381,2463.700165624381,l,1,1.0376040687551722,2464.750288491836,2465.767004264286,,,,,,,,,,,,,,,,,,,,,,,,,,,,,,,,,,,,,,,568,2010-12-29_14h26.09.664,eb_02psyexp,2022.2.4,119.99547254612528,
41,0,41,0,,,,,,,,,,,,,,,,,,,,,,,,,,,,,,,,,,,,,,,,,,,,,,,,,,,,,,,,,,,2465.767004264286,2465.767004264286,2465.767004264286,2465.767004264286,2465.767004264286,2465.767004264286,s,1,0.6669062038417906,2466.442107398296,2467.467175623635,,,,,,,,,,,,,,,,,,,,,,,,,,,,,,,,,,,,,,,568,2010-12-29_14h26.09.664,eb_02psyexp,2022.2.4,119.99547254612528,
42,0,42,0,,,,,,,,,,,,,,,,,,,,,,,,,,,,,,,,,,,,,,,,,,,,,,,,,,,,,,,,,,,2467.467175623635,2467.467175623635,2467.467175623635,2467.467175623635,2467.467175623635,2467.467175623635,l,1,0.6227065116399899,2468.100580786937,2469.1340144446585,,,,,,,,,,,,,,,,,,,,,,,,,,,,,,,,,,,,,,,568,2010-12-29_14h26.09.664,eb_02psyexp,2022.2.4,119.99547254612528,
43,0,43,0,,,,,,,,,,,,,,,,,,,,,,,,,,,,,,,,,,,,,,,,,,,,,,,,,,,,,,,,,,,2469.1340144446585,2469.1340144446585,2469.1340144446585,2469.1340144446585,2469.1340144446585,2469.1340144446585,s,1,0.8999088821001351,2470.0423879968002,2471.0591101080645,,,,,,,,,,,,,,,,,,,,,,,,,,,,,,,,,,,,,,,568,2010-12-29_14h26.09.664,eb_02psyexp,2022.2.4,119.99547254612528,
44,0,44,0,,,,,,,,,,,,,,,,,,,,,,,,,,,,,,,,,,,,,,,,,,,,,,,,,,,,,,,,,,,2471.0591101080645,2471.0591101080645,2471.0591101080645,2471.0591101080645,2471.0591101080645,2471.0591101080645,l,1,0.5908288834616542,2471.659183940268,2472.6926290681586,,,,,,,,,,,,,,,,,,,,,,,,,,,,,,,,,,,,,,,568,2010-12-29_14h26.09.664,eb_02psyexp,2022.2.4,119.99547254612528,
45,0,45,0,,,,,,,,,,,,,,,,,,,,,,,,,,,,,,,,,,,,,,,,,,,,,,,,,,,,,,,,,,,2472.6926290681586,2472.6926290681586,2472.6926290681586,2472.6926290681586,2472.6926290681586,2472.6926290681586,l,1,1.0373499122215435,2473.7426930752117,2474.767772468971,,,,,,,,,,,,,,,,,,,,,,,,,,,,,,,,,,,,,,,568,2010-12-29_14h26.09.664,eb_02psyexp,2022.2.4,119.99547254612528,
46,0,46,0,,,,,,,,,,,,,,,,,,,,,,,,,,,,,,,,,,,,,,,,,,,,,,,,,,,,,,,,,,,2474.767772468971,2474.767772468971,2474.767772468971,2474.767772468971,2474.767772468971,2474.767772468971,s,1,0.6652104182867333,2475.4428333442193,2476.476246174425,,,,,,,,,,,,,,,,,,,,,,,,,,,,,,,,,,,,,,,568,2010-12-29_14h26.09.664,eb_02psyexp,2022.2.4,119.99547254612528,
47,0,47,0,,,,,,,,,,,,,,,,,,,,,,,,,,,,,,,,,,,,,,,,,,,,,,,,,,,,,,,,,,,2476.476246174425,2476.476246174425,2476.476246174425,2476.476246174425,2476.476246174425,2476.476246174425,s,1,0.7807547465199605,2477.2679636899848,2478.29307689087,,,,,,,,,,,,,,,,,,,,,,,,,,,,,,,,,,,,,,,568,2010-12-29_14h26.09.664,eb_02psyexp,2022.2.4,119.99547254612528,
48,0,48,0,,,,,,,,,,,,,,,,,,,,,,,,,,,,,,,,,,,,,,,,,,,,,,,,,,,,,,,,,,,2478.29307689087,2478.29307689087,2478.29307689087,2478.29307689087,2478.29307689087,2478.29307689087,s,1,0.6439669167157263,2478.9514358787565,2479.9682071913267,,,,,,,,,,,,,,,,,,,,,,,,,,,,,,,,,,,,,,,568,2010-12-29_14h26.09.664,eb_02psyexp,2022.2.4,119.99547254612528,
49,0,49,0,,,,,,,,,,,,,,,,,,,,,,,,,,,,,,,,,,,,,,,,,,,,,,,,,,,,,,,,,,,2479.9682071913267,2479.9682071913267,2479.9682071913267,2479.9682071913267,2479.9682071913267,2479.9682071913267,l,1,0.9448683272348717,2480.926591926953,2481.960027093999,,,,,,,,,,,,,,,,,,,,,,,,,,,,,,,,,,,,,,,568,2010-12-29_14h26.09.664,eb_02psyexp,2022.2.4,119.99547254612528,
50,0,50,0,,,,,,,,,,,,,,,,,,,,,,,,,,,,,,,,,,,,,,,,,,,,,,,,,,,,,,,,,,,2481.960027093999,2481.960027093999,2481.960027093999,2481.960027093999,2481.960027093999,2481.960027093999,s,1,0.753078549169004,2482.726743998239,2483.7435032369103,,,,,,,,,,,,,,,,,,,,,,,,,,,,,,,,,,,,,,,568,2010-12-29_14h26.09.664,eb_02psyexp,2022.2.4,119.99547254612528,
51,0,51,0,,,,,,,,,,,,,,,,,,,,,,,,,,,,,,,,,,,,,,,,,,,,,,,,,,,,,,,,,,,2483.7435032369103,2483.7435032369103,2483.7435032369103,2483.7435032369103,2483.7435032369103,2483.7435032369103,l,1,0.8336887300247326,2484.593562957598,2485.626992087695,,,,,,,,,,,,,,,,,,,,,,,,,,,,,,,,,,,,,,,568,2010-12-29_14h26.09.664,eb_02psyexp,2022.2.4,119.99547254612528,
52,0,52,0,,,,,,,,,,,,,,,,,,,,,,,,,,,,,,,,,,,,,,,,,,,,,,,,,,,,,,,,,,,2485.626992087695,2485.626992087695,2485.626992087695,2485.626992087695,2485.626992087695,2485.626992087695,s,1,0.8542099078185856,2486.4937527902657,2487.518821921083,,,,,,,,,,,,,,,,,,,,,,,,,,,,,,,,,,,,,,,568,2010-12-29_14h26.09.664,eb_02psyexp,2022.2.4,119.99547254612528,
53,0,53,0,,,,,,,,,,,,,,,,,,,,,,,,,,,,,,,,,,,,,,,,,,,,,,,,,,,,,,,,,,,2487.518821921083,2487.518821921083,2487.518821921083,2487.518821921083,2487.518821921083,2487.518821921083,l,1,0.690387309063226,2488.218872239231,2489.2439513311256,,,,,,,,,,,,,,,,,,,,,,,,,,,,,,,,,,,,,,,568,2010-12-29_14h26.09.664,eb_02psyexp,2022.2.4,119.99547254612528,
54,0,54,0,,,,,,,,,,,,,,,,,,,,,,,,,,,,,,,,,,,,,,,,,,,,,,,,,,,,,,,,,,,2489.2439513311256,2489.2439513311256,2489.2439513311256,2489.2439513311256,2489.2439513311256,2489.2439513311256,l,1,0.8123441091738641,2490.069007120328,2491.1024576815544,,,,,,,,,,,,,,,,,,,,,,,,,,,,,,,,,,,,,,,568,2010-12-29_14h26.09.664,eb_02psyexp,2022.2.4,119.99547254612528,
55,0,55,0,,,,,,,,,,,,,,,,,,,,,,,,,,,,,,,,,,,,,,,,,,,,,,,,,,,,,,,,,,,2491.1024576815544,2491.1024576815544,2491.1024576815544,2491.1024576815544,2491.1024576815544,2491.1024576815544,s,1,0.6738218573154882,2491.785857426701,2492.8109341037925,,,,,,,,,,,,,,,,,,,,,,,,,,,,,,,,,,,,,,,568,2010-12-29_14h26.09.664,eb_02psyexp,2022.2.4,119.99547254612528,
56,0,56,0,,,,,,,,,,,,,,,,,,,,,,,,,,,,,,,,,,,,,,,,,,,,,,,,,,,,,,,,,,,2492.8109341037925,2492.8109341037925,2492.8109341037925,2492.8109341037925,2492.8109341037925,2492.8109341037925,l,1,0.8773619981948286,2493.7026764011243,2494.736059046467,,,,,,,,,,,,,,,,,,,,,,,,,,,,,,,,,,,,,,,568,2010-12-29_14h26.09.664,eb_02psyexp,2022.2.4,119.99547254612528,
57,0,57,0,,,,,,,,,,,,,,,,,,,,,,,,,,,,,,,,,,,,,,,,,,,,,,,,,,,,,,,,,,,2494.736059046467,2494.736059046467,2494.736059046467,2494.736059046467,2494.736059046467,2494.736059046467,s,1,1.0722753057489172,2495.81951324502,2496.8446104477625,,,,,,,,,,,,,,,,,,,,,,,,,,,,,,,,,,,,,,,568,2010-12-29_14h26.09.664,eb_02psyexp,2022.2.4,119.99547254612528,
58,0,58,0,,,,,,,,,,,,,,,,,,,,,,,,,,,,,,,,,,,,,,,,,,,,,,,,,,,,,,,,,,,2496.8446104477625,2496.8446104477625,2496.8446104477625,2496.8446104477625,2496.8446104477625,2496.8446104477625,l,1,0.8437369684688747,2497.7030042087426,2498.719719981076,,,,,,,,,,,,,,,,,,,,,,,,,,,,,,,,,,,,,,,568,2010-12-29_14h26.09.664,eb_02psyexp,2022.2.4,119.99547254612528,
59,0,59,0,,,,,,,,,,,,,,,,,,,,,,,,,,,,,,,,,,,,,,,,,,,,,,,,,,,,,,,,,,,2498.719719981076,2498.719719981076,2498.719719981076,2498.719719981076,2498.719719981076,2498.719719981076,l,1,0.6486953753046691,2499.3781393388053,2500.4115325488383,,,,,,,,,,,,,,,,,,,,,,,,,,,,,,,,,,,,,,,568,2010-12-29_14h26.09.664,eb_02psyexp,2022.2.4,119.99547254612528,
60,0,60,0,,,,,,,,,,,,,,,,,,,,,,,,,,,,,,,,,,,,,,,,,,,,,,,,,,,,,,,,,,,2500.4115325488383,2500.4115325488383,2500.4115325488383,2500.4115325488383,2500.4115325488383,2500.4115325488383,s,1,0.5249051466817036,2500.9449376818957,2501.9699965498876,,,,,,,,,,,,,,,,,,,,,,,,,,,,,,,,,,,,,,,568,2010-12-29_14h26.09.664,eb_02psyexp,2022.2.4,119.99547254612528,
61,0,61,0,,,,,,,,,,,,,,,,,,,,,,,,,,,,,,,,,,,,,,,,,,,,,,,,,,,,,,,,,,,2501.9699965498876,2501.9699965498876,2501.9699965498876,2501.9699965498876,2501.9699965498876,2501.9699965498876,l,1,0.8384612584486604,2502.820055063232,2503.845120873768,,,,,,,,,,,,,,,,,,,,,,,,,,,,,,,,,,,,,,,568,2010-12-29_14h26.09.664,eb_02psyexp,2022.2.4,119.99547254612528,
62,0,62,0,,,,,,,,,,,,,,,,,,,,,,,,,,,,,,,,,,,,,,,,,,,,,,,,,,,,,,,,,,,2503.845120873768,2503.845120873768,2503.845120873768,2503.845120873768,2503.845120873768,2503.845120873768,s,1,0.49936090607661754,2504.3535202641506,2505.3786132411333,,,,,,,,,,,,,,,,,,,,,,,,,,,,,,,,,,,,,,,568,2010-12-29_14h26.09.664,eb_02psyexp,2022.2.4,119.99547254612528,
63,0,63,0,,,,,,,,,,,,,,,,,,,,,,,,,,,,,,,,,,,,,,,,,,,,,,,,,,,,,,,,,,,2505.3786132411333,2505.3786132411333,2505.3786132411333,2505.3786132411333,2505.3786132411333,2505.3786132411333,l,1,0.9329628143459558,2506.320384229184,2507.3370698166545,,,,,,,,,,,,,,,,,,,,,,,,,,,,,,,,,,,,,,,568,2010-12-29_14h26.09.664,eb_02psyexp,2022.2.4,119.99547254612528,
64,0,64,0,,,,,,,,,,,,,,,,,,,,,,,,,,,,,,,,,,,,,,,,,,,,,,,,,,,,,,,,,,,2507.3370698166545,2507.3370698166545,2507.3370698166545,2507.3370698166545,2507.3370698166545,2507.3370698166545,s,1,0.6784679110860452,2508.028831673786,2509.0539068416692,,,,,,,,,,,,,,,,,,,,,,,,,,,,,,,,,,,,,,,568,2010-12-29_14h26.09.664,eb_02psyexp,2022.2.4,119.99547254612528,
65,0,65,0,,,,,,,,,,,,,,,,,,,,,,,,,,,,,,,,,,,,,,,,,,,,,,,,,,,,,,,,,,,2509.0539068416692,2509.0539068416692,2509.0539068416692,2509.0539068416692,2509.0539068416692,2509.0539068416692,s,1,0.9856773539213464,2510.0539976981236,2511.070735203568,,,,,,,,,,,,,,,,,,,,,,,,,,,,,,,,,,,,,,,568,2010-12-29_14h26.09.664,eb_02psyexp,2022.2.4,119.99547254612528,
66,0,66,0,,,,,,,,,,,,,,,,,,,,,,,,,,,,,,,,,,,,,,,,,,,,,,,,,,,,,,,,,,,2511.070735203568,2511.070735203568,2511.070735203568,2511.070735203568,2511.070735203568,2511.070735203568,s,1,0.6088948247488588,2511.69578278251,2512.720877268701,,,,,,,,,,,,,,,,,,,,,,,,,,,,,,,,,,,,,,,568,2010-12-29_14h26.09.664,eb_02psyexp,2022.2.4,119.99547254612528,
67,0,67,0,,,,,,,,,,,,,,,,,,,,,,,,,,,,,,,,,,,,,,,,,,,,,,,,,,,,,,,,,,,2512.720877268701,2512.720877268701,2512.720877268701,2512.720877268701,2512.720877268701,2512.720877268701,s,1,0.5267249919706956,2513.26256935345,2514.2793122922303,,,,,,,,,,,,,,,,,,,,,,,,,,,,,,,,,,,,,,,568,2010-12-29_14h26.09.664,eb_02psyexp,2022.2.4,119.99547254612528,
68,0,68,0,,,,,,,,,,,,,,,,,,,,,,,,,,,,,,,,,,,,,,,,,,,,,,,,,,,,,,,,,,,2514.2793122922303,2514.2793122922303,2514.2793122922303,2514.2793122922303,2514.2793122922303,2514.2793122922303,s,1,0.3763844615314156,2514.671061381232,2515.6961154197343,,,,,,,,,,,,,,,,,,,,,,,,,,,,,,,,,,,,,,,568,2010-12-29_14h26.09.664,eb_02psyexp,2022.2.4,119.99547254612528,
69,0,69,0,,,,,,,,,,,,,,,,,,,,,,,,,,,,,,,,,,,,,,,,,,,,,,,,,,,,,,,,,,,2515.6961154197343,2515.6961154197343,2515.6961154197343,2515.6961154197343,2515.6961154197343,2515.6961154197343,s,1,0.45557444472797215,2516.1628497407073,2517.179544081795,,,,,,,,,,,,,,,,,,,,,,,,,,,,,,,,,,,,,,,568,2010-12-29_14h26.09.664,eb_02psyexp,2022.2.4,119.99547254612528,
70,0,70,0,,,,,,,,,,,,,,,,,,,,,,,,,,,,,,,,,,,,,,,,,,,,,,,,,,,,,,,,,,,2517.179544081795,2517.179544081795,2517.179544081795,2517.179544081795,2517.179544081795,2517.179544081795,s,1,0.45216506463475525,2517.6463019470684,2518.6713318375405,,,,,,,,,,,,,,,,,,,,,,,,,,,,,,,,,,,,,,,568,2010-12-29_14h26.09.664,eb_02psyexp,2022.2.4,119.99547254612528,
71,0,71,0,,,,,,,,,,,,,,,,,,,,,,,,,,,,,,,,,,,,,,,,,,,,,,,,,,,,,,,,,,,2518.6713318375405,2518.6713318375405,2518.6713318375405,2518.6713318375405,2518.6713318375405,2518.6713318375405,s,1,0.4164120020577684,2519.096380563453,2520.1214898402104,,,,,,,,,,,,,,,,,,,,,,,,,,,,,,,,,,,,,,,568,2010-12-29_14h26.09.664,eb_02psyexp,2022.2.4,119.99547254612528,
72,0,72,0,,,,,,,,,,,,,,,,,,,,,,,,,,,,,,,,,,,,,,,,,,,,,,,,,,,,,,,,,,,2520.1214898402104,2520.1214898402104,2520.1214898402104,2520.1214898402104,2520.1214898402104,2520.1214898402104,l,1,0.48628090019337833,2520.6215071965707,2521.64657542191,,,,,,,,,,,,,,,,,,,,,,,,,,,,,,,,,,,,,,,568,2010-12-29_14h26.09.664,eb_02psyexp,2022.2.4,119.99547254612528,
73,0,73,0,,,,,,,,,,,,,,,,,,,,,,,,,,,,,,,,,,,,,,,,,,,,,,,,,,,,,,,,,,,2521.64657542191,2521.64657542191,2521.64657542191,2521.64657542191,2521.64657542191,2521.64657542191,s,1,0.6082214004127309,2522.263314014068,2523.2800608768594,,,,,,,,,,,,,,,,,,,,,,,,,,,,,,,,,,,,,,,568,2010-12-29_14h26.09.664,eb_02psyexp,2022.2.4,119.99547254612528,
74,0,74,0,,,,,,,,,,,,,,,,,,,,,,,,,,,,,,,,,,,,,,,,,,,,,,,,,,,,,,,,,,,2523.2800608768594,2523.2800608768594,2523.2800608768594,2523.2800608768594,2523.2800608768594,2523.2800608768594,s,1,0.5827991066034883,2523.871799763292,2524.89692020847,,,,,,,,,,,,,,,,,,,,,,,,,,,,,,,,,,,,,,,568,2010-12-29_14h26.09.664,eb_02psyexp,2022.2.4,119.99547254612528,
75,0,75,0,,,,,,,,,,,,,,,,,,,,,,,,,,,,,,,,,,,,,,,,,,,,,,,,,,,,,,,,,,,2524.89692020847,2524.89692020847,2524.89692020847,2524.89692020847,2524.89692020847,2524.89692020847,s,1,0.8859372154111043,2525.7969877923606,2526.822043340071,,,,,,,,,,,,,,,,,,,,,,,,,,,,,,,,,,,,,,,568,2010-12-29_14h26.09.664,eb_02psyexp,2022.2.4,119.99547254612528,
76,0,76,0,,,,,,,,,,,,,,,,,,,,,,,,,,,,,,,,,,,,,,,,,,,,,,,,,,,,,,,,,,,2526.822043340071,2526.822043340071,2526.822043340071,2526.822043340071,2526.822043340071,2526.822043340071,l,1,0.7208453433122486,2527.5554431001656,2528.5888840022963,,,,,,,,,,,,,,,,,,,,,,,,,,,,,,,,,,,,,,,568,2010-12-29_14h26.09.664,eb_02psyexp,2022.2.4,119.99547254612528,
77,0,77,0,,,,,,,,,,,,,,,,,,,,,,,,,,,,,,,,,,,,,,,,,,,,,,,,,,,,,,,,,,,2528.5888840022963,2528.5888840022963,2528.5888840022963,2528.5888840022963,2528.5888840022963,2528.5888840022963,s,1,0.5620234704110771,2529.163923718035,2530.180631944211,,,,,,,,,,,,,,,,,,,,,,,,,,,,,,,,,,,,,,,568,2010-12-29_14h26.09.664,eb_02psyexp,2022.2.4,119.99547254612528,
78,0,78,0,,,,,,,,,,,,,,,,,,,,,,,,,,,,,,,,,,,,,,,,,,,,,,,,,,,,,,,,,,,2530.180631944211,2530.180631944211,2530.180631944211,2530.180631944211,2530.180631944211,2530.180631944211,s,1,0.44233777932822704,2530.6390313195297,2531.664129427867,,,,,,,,,,,,,,,,,,,,,,,,,,,,,,,,,,,,,,,568,2010-12-29_14h26.09.664,eb_02psyexp,2022.2.4,119.99547254612528,
79,0,79,0,,,,,,,,,,,,,,,,,,,,,,,,,,,,,,,,,,,,,,,,,,,,,,,,,,,,,,,,,,,2531.664129427867,2531.664129427867,2531.664129427867,2531.664129427867,2531.664129427867,2531.664129427867,s,1,0.48683992377482355,2532.164125352865,2533.180855312152,,,,,,,,,,,,,,,,,,,,,,,,,,,,,,,,,,,,,,,568,2010-12-29_14h26.09.664,eb_02psyexp,2022.2.4,119.99547254612528,
80,0,80,0,,,,,,,,,,,,,,,,,,,,,,,,,,,,,,,,,,,,,,,,,,,,,,,,,,,,,,,,,,,2533.180855312152,2533.180855312152,2533.180855312152,2533.180855312152,2533.180855312152,2533.180855312152,s,1,0.4341069714864716,2533.630923967692,2534.6559743839316,,,,,,,,,,,,,,,,,,,,,,,,,,,,,,,,,,,,,,,568,2010-12-29_14h26.09.664,eb_02psyexp,2022.2.4,119.99547254612528,
81,0,81,0,,,,,,,,,,,,,,,,,,,,,,,,,,,,,,,,,,,,,,,,,,,,,,,,,,,,,,,,,,,2534.6559743839316,2534.6559743839316,2534.6559743839316,2534.6559743839316,2534.6559743839316,2534.6559743839316,s,1,0.35105936299078166,2535.0227041470353,2536.039455537568,,,,,,,,,,,,,,,,,,,,,,,,,,,,,,,,,,,,,,,568,2010-12-29_14h26.09.664,eb_02psyexp,2022.2.4,119.99547254612528,
82,0,82,0,,,,,,,,,,,,,,,,,,,,,,,,,,,,,,,,,,,,,,,,,,,,,,,,,,,,,,,,,,,2536.039455537568,2536.039455537568,2536.039455537568,2536.039455537568,2536.039455537568,2536.039455537568,s,1,0.4146389435045421,2536.4644870581105,2537.4812143007293,,,,,,,,,,,,,,,,,,,,,,,,,,,,,,,,,,,,,,,568,2010-12-29_14h26.09.664,eb_02psyexp,2022.2.4,119.99547254612528,
83,0,83,0,,,,,,,,,,,,,,,,,,,,,,,,,,,,,,,,,,,,,,,,,,,,,,,,,,,,,,,,,,,2537.4812143007293,2537.4812143007293,2537.4812143007293,2537.4812143007293,2537.4812143007293,2537.4812143007293,l,1,0.8608632549876347,2538.356309949071,2539.381391455652,,,,,,,,,,,,,,,,,,,,,,,,,,,,,,,,,,,,,,,568,2010-12-29_14h26.09.664,eb_02psyexp,2022.2.4,119.99547254612528,
84,0,84,0,,,,,,,,,,,,,,,,,,,,,,,,,,,,,,,,,,,,,,,,,,,,,,,,,,,,,,,,,,,2539.381391455652,2539.381391455652,2539.381391455652,2539.381391455652,2539.381391455652,2539.381391455652,l,1,1.1446933153783903,2540.5398233401356,2541.556565675186,,,,,,,,,,,,,,,,,,,,,,,,,,,,,,,,,,,,,,,568,2010-12-29_14h26.09.664,eb_02psyexp,2022.2.4,119.99547254612528,
85,0,85,0,,,,,,,,,,,,,,,,,,,,,,,,,,,,,,,,,,,,,,,,,,,,,,,,,,,,,,,,,,,2541.556565675186,2541.556565675186,2541.556565675186,2541.556565675186,2541.556565675186,2541.556565675186,l,1,1.7215628374833614,2543.290068063885,2544.315136289224,,,,,,,,,,,,,,,,,,,,,,,,,,,,,,,,,,,,,,,568,2010-12-29_14h26.09.664,eb_02psyexp,2022.2.4,119.99547254612528,
86,0,86,0,,,,,,,,,,,,,,,,,,,,,,,,,,,,,,,,,,,,,,,,,,,,,,,,,,,,,,,,,,,2544.315136289224,2544.315136289224,2544.315136289224,2544.315136289224,2544.315136289224,2544.315136289224,s,1,0.5550453342730179,2544.881841662922,2545.906935545383,,,,,,,,,,,,,,,,,,,,,,,,,,,,,,,,,,,,,,,568,2010-12-29_14h26.09.664,eb_02psyexp,2022.2.4,119.99547254612528,
87,0,87,0,,,,,,,,,,,,,,,,,,,,,,,,,,,,,,,,,,,,,,,,,,,,,,,,,,,,,,,,,,,2545.906935545383,2545.906935545383,2545.906935545383,2545.906935545383,2545.906935545383,2545.906935545383,l,1,0.6433013406349346,2546.5653250199975,2547.5903911323985,,,,,,,,,,,,,,,,,,,,,,,,,,,,,,,,,,,,,,,568,2010-12-29_14h26.09.664,eb_02psyexp,2022.2.4,119.99547254612528,
88,0,88,0,,,,,,,,,,,,,,,,,,,,,,,,,,,,,,,,,,,,,,,,,,,,,,,,,,,,,,,,,,,2547.5903911323985,2547.5903911323985,2547.5903911323985,2547.5903911323985,2547.5903911323985,2547.5903911323985,s,1,0.5678554875776172,2548.1737793770153,2549.1988690336,,,,,,,,,,,,,,,,,,,,,,,,,,,,,,,,,,,,,,,568,2010-12-29_14h26.09.664,eb_02psyexp,2022.2.4,119.99547254612528,
89,0,89,0,,,,,,,,,,,,,,,,,,,,,,,,,,,,,,,,,,,,,,,,,,,,,,,,,,,,,,,,,,,2549.1988690336,2549.1988690336,2549.1988690336,2549.1988690336,2549.1988690336,2549.1988690336,s,1,0.5434051462216303,2549.7572617984843,2550.7823665475007,,,,,,,,,,,,,,,,,,,,,,,,,,,,,,,,,,,,,,,568,2010-12-29_14h26.09.664,eb_02psyexp,2022.2.4,119.99547254612528,
90,0,90,0,,,,,,,,,,,,,,,,,,,,,,,,,,,,,,,,,,,,,,,,,,,,,,,,,,,,,,,,,,,2550.7823665475007,2550.7823665475007,2550.7823665475007,2550.7823665475007,2550.7823665475007,2550.7823665475007,s,1,0.5119667078834027,2551.3073947778903,2552.33244519413,,,,,,,,,,,,,,,,,,,,,,,,,,,,,,,,,,,,,,,568,2010-12-29_14h26.09.664,eb_02psyexp,2022.2.4,119.99547254612528,
91,0,91,0,,,,,,,,,,,,,,,,,,,,,,,,,,,,,,,,,,,,,,,,,,,,,,,,,,,,,,,,,,,2552.33244519413,2552.33244519413,2552.33244519413,2552.33244519413,2552.33244519413,2552.33244519413,l,1,0.5129012311808765,2552.8574688967783,2553.8825736457948,,,,,,,,,,,,,,,,,,,,,,,,,,,,,,,,,,,,,,,568,2010-12-29_14h26.09.664,eb_02psyexp,2022.2.4,119.99547254612528,
92,0,92,0,,,,,,,,,,,,,,,,,,,,,,,,,,,,,,,,,,,,,,,,,,,,,,,,,,,,,,,,,,,2553.8825736457948,2553.8825736457948,2553.8825736457948,2553.8825736457948,2553.8825736457948,2553.8825736457948,s,1,0.4427821005228907,2554.3409515898675,2555.366024946561,,,,,,,,,,,,,,,,,,,,,,,,,,,,,,,,,,,,,,,568,2010-12-29_14h26.09.664,eb_02psyexp,2022.2.4,119.99547254612528,
93,0,93,0,,,,,,,,,,,,,,,,,,,,,,,,,,,,,,,,,,,,,,,,,,,,,,,,,,,,,,,,,,,2555.366024946561,2555.366024946561,2555.366024946561,2555.366024946561,2555.366024946561,2555.366024946561,s,1,0.6393407848663628,2556.016107245581,2557.032804605202,,,,,,,,,,,,,,,,,,,,,,,,,,,,,,,,,,,,,,,568,2010-12-29_14h26.09.664,eb_02psyexp,2022.2.4,119.99547254612528,
94,0,94,0,,,,,,,,,,,,,,,,,,,,,,,,,,,,,,,,,,,,,,,,,,,,,,,,,,,,,,,,,,,2557.032804605202,2557.032804605202,2557.032804605202,2557.032804605202,2557.032804605202,2557.032804605202,s,1,0.5566255117300898,2557.5995455970988,2558.6246385740815,,,,,,,,,,,,,,,,,,,,,,,,,,,,,,,,,,,,,,,568,2010-12-29_14h26.09.664,eb_02psyexp,2022.2.4,119.99547254612528,
95,0,95,0,,,,,,,,,,,,,,,,,,,,,,,,,,,,,,,,,,,,,,,,,,,,,,,,,,,,,,,,,,,2558.6246385740815,2558.6246385740815,2558.6246385740815,2558.6246385740815,2558.6246385740815,2558.6246385740815,s,1,0.44479814742226154,2559.083005349734,2560.1080853471067,,,,,,,,,,,,,,,,,,,,,,,,,,,,,,,,,,,,,,,568,2010-12-29_14h26.09.664,eb_02psyexp,2022.2.4,119.99547254612528,
96,0,96,0,,,,,,,,,,,,,,,,,,,,,,,,,,,,,,,,,,,,,,,,,,,,,,,,,,,,,,,,,,,2560.1080853471067,2560.1080853471067,2560.1080853471067,2560.1080853471067,2560.1080853471067,2560.1080853471067,l,1,0.7934006940340623,2560.9164878465235,2561.933208750328,,,,,,,,,,,,,,,,,,,,,,,,,,,,,,,,,,,,,,,568,2010-12-29_14h26.09.664,eb_02psyexp,2022.2.4,119.99547254612528,
97,0,97,0,,,,,,,,,,,,,,,,,,,,,,,,,,,,,,,,,,,,,,,,,,,,,,,,,,,,,,,,,,,2561.933208750328,2561.933208750328,2561.933208750328,2561.933208750328,2561.933208750328,2561.933208750328,s,0,0.5843032182892784,2562.533292845357,2563.550048461766,,,,,,,,,,,,,,,,,,,,,,,,,,,,,,,,,,,,,,,568,2010-12-29_14h26.09.664,eb_02psyexp,2022.2.4,119.99547254612528,
98,0,98,0,,,,,,,,,,,,,,,,,,,,,,,,,,,,,,,,,,,,,,,,,,,,,,,,,,,,,,,,,,,2563.550048461766,2563.550048461766,2563.550048461766,2563.550048461766,2563.550048461766,2563.550048461766,s,1,1.0394537970423698,2564.600136616733,2565.625204842072,,,,,,,,,,,,,,,,,,,,,,,,,,,,,,,,,,,,,,,568,2010-12-29_14h26.09.664,eb_02psyexp,2022.2.4,119.99547254612528,
99,0,99,0,,,,,,,,,,,,,,,,,,,,,,,,,,,,,,,,,,,,,,,,,,,,,,,,,,,,,,,,,,,2565.625204842072,2565.625204842072,2565.625204842072,2565.625204842072,2565.625204842072,2565.625204842072,l,1,1.9164175863843411,2567.550351215992,2568.567080269684,,,,,,,,,,,,,,,,,,,,,,,,,,,,,,,,,,,,,,,568,2010-12-29_14h26.09.664,eb_02psyexp,2022.2.4,119.99547254612528,
100,0,100,0,,,,,,,,,,,,,,,,,,,,,,,,,,,,,,,,,,,,,,,,,,,,,,,,,,,,,,,,,,,2568.567080269684,2568.567080269684,2568.567080269684,2568.567080269684,2568.567080269684,2568.567080269684,s,1,0.74955174990464,2569.3255253146635,2570.3506013881415,,,,,,,,,,,,,,,,,,,,,,,,,,,,,,,,,,,,,,,568,2010-12-29_14h26.09.664,eb_02psyexp,2022.2.4,119.99547254612528,
101,0,101,0,,,,,,,,,,,,,,,,,,,,,,,,,,,,,,,,,,,,,,,,,,,,,,,,,,,,,,,,,,,2570.3506013881415,2570.3506013881415,2570.3506013881415,2570.3506013881415,2570.3506013881415,2570.3506013881415,l,1,0.8540674352552742,2571.217313794885,2572.2423916793196,,,,,,,,,,,,,,,,,,,,,,,,,,,,,,,,,,,,,,,568,2010-12-29_14h26.09.664,eb_02psyexp,2022.2.4,119.99547254612528,
102,0,102,0,,,,,,,,,,,,,,,,,,,,,,,,,,,,,,,,,,,,,,,,,,,,,,,,,,,,,,,,,,,2572.2423916793196,2572.2423916793196,2572.2423916793196,2572.2423916793196,2572.2423916793196,2572.2423916793196,s,1,0.6023154305294156,2572.8591191031737,2573.88424045383,,,,,,,,,,,,,,,,,,,,,,,,,,,,,,,,,,,,,,,568,2010-12-29_14h26.09.664,eb_02psyexp,2022.2.4,119.99547254612528,
103,0,103,0,,,,,,,,,,,,,,,,,,,,,,,,,,,,,,,,,,,,,,,,,,,,,,,,,,,,,,,,,,,2573.88424045383,2573.88424045383,2573.88424045383,2573.88424045383,2573.88424045383,2573.88424045383,s,1,0.5844819127814844,2574.4842650847277,2575.5093360266183,,,,,,,,,,,,,,,,,,,,,,,,,,,,,,,,,,,,,,,568,2010-12-29_14h26.09.664,eb_02psyexp,2022.2.4,119.99547254612528,
104,0,104,0,,,,,,,,,,,,,,,,,,,,,,,,,,,,,,,,,,,,,,,,,,,,,,,,,,,,,,,,,,,2575.5093360266183,2575.5093360266183,2575.5093360266183,2575.5093360266183,2575.5093360266183,2575.5093360266183,l,1,0.5754889369709417,2576.101068272488,2577.117795816972,,,,,,,,,,,,,,,,,,,,,,,,,,,,,,,,,,,,,,,568,2010-12-29_14h26.09.664,eb_02psyexp,2022.2.4,119.99547254612528,
105,0,105,0,,,,,,,,,,,,,,,,,,,,,,,,,,,,,,,,,,,,,,,,,,,,,,,,,,,,,,,,,,,2577.117795816972,2577.117795816972,2577.117795816972,2577.117795816972,2577.117795816972,2577.117795816972,l,1,1.15094671305269,2578.284583172761,2579.3096447574208,,,,,,,,,,,,,,,,,,,,,,,,,,,,,,,,,,,,,,,568,2010-12-29_14h26.09.664,eb_02psyexp,2022.2.4,119.99547254612528,
106,0,106,0,,,,,,,,,,,,,,,,,,,,,,,,,,,,,,,,,,,,,,,,,,,,,,,,,,,,,,,,,,,2579.3096447574208,2579.3096447574208,2579.3096447574208,2579.3096447574208,2579.3096447574208,2579.3096447574208,l,1,0.839163358323276,2580.159733455628,2581.176449228078,,,,,,,,,,,,,,,,,,,,,,,,,,,,,,,,,,,,,,,568,2010-12-29_14h26.09.664,eb_02psyexp,2022.2.4,119.99547254612528,
107,0,107,0,,,,,,,,,,,,,,,,,,,,,,,,,,,,,,,,,,,,,,,,,,,,,,,,,,,,,,,,,,,2581.176449228078,2581.176449228078,2581.176449228078,2581.176449228078,2581.176449228078,2581.176449228078,l,1,2.068468994810246,2583.259988547885,2584.2767046220833,,,,,,,,,,,,,,,,,,,,,,,,,,,,,,,,,,,,,,,568,2010-12-29_14h26.09.664,eb_02psyexp,2022.2.4,119.99547254612528,
108,0,108,0,,,,,,,,,,,,,,,,,,,,,,,,,,,,,,,,,,,,,,,,,,,,,,,,,,,,,,,,,,,2584.2767046220833,2584.2767046220833,2584.2767046220833,2584.2767046220833,2584.2767046220833,2584.2767046220833,s,1,1.0231705736368895,2585.310154881561,2586.3352303513093,,,,,,,,,,,,,,,,,,,,,,,,,,,,,,,,,,,,,,,568,2010-12-29_14h26.09.664,eb_02psyexp,2022.2.4,119.99547254612528,
109,0,109,0,,,,,,,,,,,,,,,,,,,,,,,,,,,,,,,,,,,,,,,,,,,,,,,,,,,,,,,,,,,2586.3352303513093,2586.3352303513093,2586.3352303513093,2586.3352303513093,2586.3352303513093,2586.3352303513093,s,1,0.5407180899055675,2586.8852845481597,2587.910351867904,,,,,,,,,,,,,,,,,,,,,,,,,,,,,,,,,,,,,,,568,2010-12-29_14h26.09.664,eb_02psyexp,2022.2.4,119.99547254612528,
110,0,110,0,,,,,,,,,,,,,,,,,,,,,,,,,,,,,,,,,,,,,,,,,,,,,,,,,,,,,,,,,,,2587.910351867904,2587.910351867904,2587.910351867904,2587.910351867904,2587.910351867904,2587.910351867904,l,1,0.6615683129057288,2588.5854432299966,2589.618846099125,,,,,,,,,,,,,,,,,,,,,,,,,,,,,,,,,,,,,,,568,2010-12-29_14h26.09.664,eb_02psyexp,2022.2.4,119.99547254612528,
111,0,111,0,,,,,,,,,,,,,,,,,,,,,,,,,,,,,,,,,,,,,,,,,,,,,,,,,,,,,,,,,,,2589.618846099125,2589.618846099125,2589.618846099125,2589.618846099125,2589.618846099125,2589.618846099125,s,1,1.0731621369486675,2590.702263774001,2591.727386332117,,,,,,,,,,,,,,,,,,,,,,,,,,,,,,,,,,,,,,,568,2010-12-29_14h26.09.664,eb_02psyexp,2022.2.4,119.99547254612528,
112,0,112,0,,,,,,,,,,,,,,,,,,,,,,,,,,,,,,,,,,,,,,,,,,,,,,,,,,,,,,,,,,,2591.727386332117,2591.727386332117,2591.727386332117,2591.727386332117,2591.727386332117,2591.727386332117,l,1,0.6286330071743578,2592.36908508779,2593.402485542232,,,,,,,,,,,,,,,,,,,,,,,,,,,,,,,,,,,,,,,568,2010-12-29_14h26.09.664,eb_02psyexp,2022.2.4,119.99547254612528,
113,0,113,0,,,,,,,,,,,,,,,,,,,,,,,,,,,,,,,,,,,,,,,,,,,,,,,,,,,,,,,,,,,2593.402485542232,2593.402485542232,2593.402485542232,2593.402485542232,2593.402485542232,2593.402485542232,s,1,0.6336228667059913,2594.0525397693273,2595.0776261055144,,,,,,,,,,,,,,,,,,,,,,,,,,,,,,,,,,,,,,,568,2010-12-29_14h26.09.664,eb_02psyexp,2022.2.4,119.99547254612528,
114,0,114,0,,,,,,,,,,,,,,,,,,,,,,,,,,,,,,,,,,,,,,,,,,,,,,,,,,,,,,,,,,,2595.0776261055144,2595.0776261055144,2595.0776261055144,2595.0776261055144,2595.0776261055144,2595.0776261055144,s,1,0.8864548858255148,2595.977689463645,2596.994409461855,,,,,,,,,,,,,,,,,,,,,,,,,,,,,,,,,,,,,,,568,2010-12-29_14h26.09.664,eb_02psyexp,2022.2.4,119.99547254612528,
115,0,115,0,,,,,,,,,,,,,,,,,,,,,,,,,,,,,,,,,,,,,,,,,,,,,,,,,,,,,,,,,,,2596.994409461855,2596.994409461855,2596.994409461855,2596.994409461855,2596.994409461855,2596.994409461855,s,1,0.9856993888970464,2597.9945259754313,2599.019613519078,,,,,,,,,,,,,,,,,,,,,,,,,,,,,,,,,,,,,,,568,2010-12-29_14h26.09.664,eb_02psyexp,2022.2.4,119.99547254612528,
116,0,116,0,,,,,,,,,,,,,,,,,,,,,,,,,,,,,,,,,,,,,,,,,,,,,,,,,,,,,,,,,,,2599.019613519078,2599.019613519078,2599.019613519078,2599.019613519078,2599.019613519078,2599.019613519078,s,1,0.871552016120404,2599.9030090986053,2600.9281147532165,,,,,,,,,,,,,,,,,,,,,,,,,,,,,,,,,,,,,,,568,2010-12-29_14h26.09.664,eb_02psyexp,2022.2.4,119.99547254612528,
117,0,117,0,,,,,,,,,,,,,,,,,,,,,,,,,,,,,,,,,,,,,,,,,,,,,,,,,,,,,,,,,,,2600.9281147532165,2600.9281147532165,2600.9281147532165,2600.9281147532165,2600.9281147532165,2600.9281147532165,l,1,0.6510739423101768,2601.594817742356,2602.6282462686067,,,,,,,,,,,,,,,,,,,,,,,,,,,,,,,,,,,,,,,568,2010-12-29_14h26.09.664,eb_02psyexp,2022.2.4,119.99547254612528,
118,0,118,0,,,,,,,,,,,,,,,,,,,,,,,,,,,,,,,,,,,,,,,,,,,,,,,,,,,,,,,,,,,2602.6282462686067,2602.6282462686067,2602.6282462686067,2602.6282462686067,2602.6282462686067,2602.6282462686067,s,1,0.7509474977850914,2603.3949314788915,2604.420080297743,,,,,,,,,,,,,,,,,,,,,,,,,,,,,,,,,,,,,,,568,2010-12-29_14h26.09.664,eb_02psyexp,2022.2.4,119.99547254612528,
119,0,119,0,,,,,,,,,,,,,,,,,,,,,,,,,,,,,,,,,,,,,,,,,,,,,,,,,,,,,,,,,,,2604.420080297743,2604.420080297743,2604.420080297743,2604.420080297743,2604.420080297743,2604.420080297743,l,1,0.5751864847261459,2605.0034296038793,2606.036846961826,,,,,,,,,,,,,,,,,,,,,,,,,,,,,,,,,,,,,,,568,2010-12-29_14h26.09.664,eb_02psyexp,2022.2.4,119.99547254612528,
120,0,120,0,,,,,,,,,,,,,,,,,,,,,,,,,,,,,,,,,,,,,,,,,,,,,,,,,,,,,,,,,,,2606.036846961826,2606.036846961826,2606.036846961826,2606.036846961826,2606.036846961826,2606.036846961826,s,1,0.9424239571671933,2606.995272748871,2608.0203310132492,,,,,,,,,,,,,,,,,,,,,,,,,,,,,,,,,,,,,,,568,2010-12-29_14h26.09.664,eb_02psyexp,2022.2.4,119.99547254612528,
121,0,121,0,,,,,,,,,,,,,,,,,,,,,,,,,,,,,,,,,,,,,,,,,,,,,,,,,,,,,,,,,,,2608.0203310132492,2608.0203310132492,2608.0203310132492,2608.0203310132492,2608.0203310132492,2608.0203310132492,l,1,0.8150033954298124,2608.845439625904,2609.878833137802,,,,,,,,,,,,,,,,,,,,,,,,,,,,,,,,,,,,,,,568,2010-12-29_14h26.09.664,eb_02psyexp,2022.2.4,119.99547254612528,
122,0,122,0,,,,,,,,,,,,,,,,,,,,,,,,,,,,,,,,,,,,,,,,,,,,,,,,,,,,,,,,,,,2609.878833137802,2609.878833137802,2609.878833137802,2609.878833137802,2609.878833137802,2609.878833137802,s,1,0.572499428410083,2610.4621963290265,2611.4789305141894,,,,,,,,,,,,,,,,,,,,,,,,,,,,,,,,,,,,,,,568,2010-12-29_14h26.09.664,eb_02psyexp,2022.2.4,119.99547254612528,
123,0,123,0,,,,,,,,,,,,,,,,,,,,,,,,,,,,,,,,,,,,,,,,,,,,,,,,,,,,,,,,,,,2611.4789305141894,2611.4789305141894,2611.4789305141894,2611.4789305141894,2611.4789305141894,2611.4789305141894,l,1,0.8684321088949218,2612.3624039706774,2613.395781786414,,,,,,,,,,,,,,,,,,,,,,,,,,,,,,,,,,,,,,,568,2010-12-29_14h26.09.664,eb_02psyexp,2022.2.4,119.99547254612528,
124,0,124,0,,,,,,,,,,,,,,,,,,,,,,,,,,,,,,,,,,,,,,,,,,,,,,,,,,,,,,,,,,,2613.395781786414,2613.395781786414,2613.395781786414,2613.395781786414,2613.395781786414,2613.395781786414,s,1,0.5587070598267019,2613.9708341797814,2615.004247613717,,,,,,,,,,,,,,,,,,,,,,,,,,,,,,,,,,,,,,,568,2010-12-29_14h26.09.664,eb_02psyexp,2022.2.4,119.99547254612528,
125,0,125,0,,,,,,,,,,,,,,,,,,,,,,,,,,,,,,,,,,,,,,,,,,,,,,,,,,,,,,,,,,,2615.004247613717,2615.004247613717,2615.004247613717,2615.004247613717,2615.004247613717,2615.004247613717,l,1,0.7981668835273013,2615.8126449816627,2616.829396975925,,,,,,,,,,,,,,,,,,,,,,,,,,,,,,,,,,,,,,,568,2010-12-29_14h26.09.664,eb_02psyexp,2022.2.4,119.99547254612528,
126,0,126,0,,,,,,,,,,,,,,,,,,,,,,,,,,,,,,,,,,,,,,,,,,,,,,,,,,,,,,,,,,,2616.829396975925,2616.829396975925,2616.829396975925,2616.829396975925,2616.829396975925,2616.829396975925,l,1,0.8370540401665494,2617.6794772223802,2618.704592234222,,,,,,,,,,,,,,,,,,,,,,,,,,,,,,,,,,,,,,,568,2010-12-29_14h26.09.664,eb_02psyexp,2022.2.4,119.99547254612528,
127,0,127,0,,,,,,,,,,,,,,,,,,,,,,,,,,,,,,,,,,,,,,,,,,,,,,,,,,,,,,,,,,,2618.704592234222,2618.704592234222,2618.704592234222,2618.704592234222,2618.704592234222,2618.704592234222,s,1,0.9619043610291556,2619.6796661795815,2620.7130479193293,,,,,,,,,,,,,,,,,,,,,,,,,,,,,,,,,,,,,,,568,2010-12-29_14h26.09.664,eb_02psyexp,2022.2.4,119.99547254612528,
128,0,128,0,,,,,,,,,,,,,,,,,,,,,,,,,,,,,,,,,,,,,,,,,,,,,,,,,,,,,,,,,,,2620.7130479193293,2620.7130479193293,2620.7130479193293,2620.7130479193293,2620.7130479193293,2620.7130479193293,l,1,0.6974584147101268,2621.4214464646066,2622.438164651743,,,,,,,,,,,,,,,,,,,,,,,,,,,,,,,,,,,,,,,568,2010-12-29_14h26.09.664,eb_02psyexp,2022.2.4,119.99547254612528,
129,0,129,0,,,,,,,,,,,,,,,,,,,,,,,,,,,,,,,,,,,,,,,,,,,,,,,,,,,,,,,,,,,2622.438164651743,2622.438164651743,2622.438164651743,2622.438164651743,2622.438164651743,2622.438164651743,l,1,0.6123896279605106,2623.0632249083137,2624.0967128988123,,,,,,,,,,,,,,,,,,,,,,,,,,,,,,,,,,,,,,,568,2010-12-29_14h26.09.664,eb_02psyexp,2022.2.4,119.99547254612528,
130,0,130,0,,,,,,,,,,,,,,,,,,,,,,,,,,,,,,,,,,,,,,,,,,,,,,,,,,,,,,,,,,,2624.0967128988123,2624.0967128988123,2624.0967128988123,2624.0967128988123,2624.0967128988123,2624.0967128988123,l,1,0.7298706168076023,2624.8383893478895,2625.871804291033,,,,,,,,,,,,,,,,,,,,,,,,,,,,,,,,,,,,,,,568,2010-12-29_14h26.09.664,eb_02psyexp,2022.2.4,119.99547254612528,
131,0,131,0,,,,,,,,,,,,,,,,,,,,,,,,,,,,,,,,,,,,,,,,,,,,,,,,,,,,,,,,,,,2625.871804291033,2625.871804291033,2625.871804291033,2625.871804291033,2625.871804291033,2625.871804291033,s,1,0.6347916244994849,2626.521853990387,2627.5469551172573,,,,,,,,,,,,,,,,,,,,,,,,,,,,,,,,,,,,,,,568,2010-12-29_14h26.09.664,eb_02psyexp,2022.2.4,119.99547254612528,
132,0,132,0,,,,,,,,,,,,,,,,,,,,,,,,,,,,,,,,,,,,,,,,,,,,,,,,,,,,,,,,,,,2627.5469551172573,2627.5469551172573,2627.5469551172573,2627.5469551172573,2627.5469551172573,2627.5469551172573,l,1,0.9837077917763963,2628.547023938736,2629.572112387861,,,,,,,,,,,,,,,,,,,,,,,,,,,,,,,,,,,,,,,568,2010-12-29_14h26.09.664,eb_02psyexp,2022.2.4,119.99547254612528,
133,0,133,0,,,,,,,,,,,,,,,,,,,,,,,,,,,,,,,,,,,,,,,,,,,,,,,,,,,,,,,,,,,2629.572112387861,2629.572112387861,2629.572112387861,2629.572112387861,2629.572112387861,2629.572112387861,s,1,0.9175938903354108,2630.5054998326814,2631.5222325085197,,,,,,,,,,,,,,,,,,,,,,,,,,,,,,,,,,,,,,,568,2010-12-29_14h26.09.664,eb_02psyexp,2022.2.4,119.99547254612528,
134,0,134,0,,,,,,,,,,,,,,,,,,,,,,,,,,,,,,,,,,,,,,,,,,,,,,,,,,,,,,,,,,,2631.5222325085197,2631.5222325085197,2631.5222325085197,2631.5222325085197,2631.5222325085197,2631.5222325085197,s,1,0.6394898981088772,2632.1723202408757,2633.19737156271,,,,,,,,,,,,,,,,,,,,,,,,,,,,,,,,,,,,,,,568,2010-12-29_14h26.09.664,eb_02psyexp,2022.2.4,119.99547254612528,
135,0,135,0,,,,,,,,,,,,,,,,,,,,,,,,,,,,,,,,,,,,,,,,,,,,,,,,,,,,,,,,,,,2633.19737156271,2633.19737156271,2633.19737156271,2633.19737156271,2633.19737156271,2633.19737156271,s,1,1.9403907048981637,2635.1475635232637,2636.1642817105167,,,,,,,,,,,,,,,,,,,,,,,,,,,,,,,,,,,,,,,568,2010-12-29_14h26.09.664,eb_02psyexp,2022.2.4,119.99547254612528,
136,0,136,0,,,,,,,,,,,,,,,,,,,,,,,,,,,,,,,,,,,,,,,,,,,,,,,,,,,,,,,,,,,2636.1642817105167,2636.1642817105167,2636.1642817105167,2636.1642817105167,2636.1642817105167,2636.1642817105167,s,1,1.8535081099253148,2638.031155304401,2639.0562042114325,,,,,,,,,,,,,,,,,,,,,,,,,,,,,,,,,,,,,,,568,2010-12-29_14h26.09.664,eb_02psyexp,2022.2.4,119.99547254612528,
137,0,137,0,,,,,,,,,,,,,,,,,,,,,,,,,,,,,,,,,,,,,,,,,,,,,,,,,,,,,,,,,,,2639.0562042114325,2639.0562042114325,2639.0562042114325,2639.0562042114325,2639.0562042114325,2639.0562042114325,s,1,0.5776178753003478,2639.647944305325,2640.673019775073,,,,,,,,,,,,,,,,,,,,,,,,,,,,,,,,,,,,,,,568,2010-12-29_14h26.09.664,eb_02psyexp,2022.2.4,119.99547254612528,
138,0,138,0,,,,,,,,,,,,,,,,,,,,,,,,,,,,,,,,,,,,,,,,,,,,,,,,,,,,,,,,,,,2640.673019775073,2640.673019775073,2640.673019775073,2640.673019775073,2640.673019775073,2640.673019775073,l,1,0.5848866917658597,2641.2730525557417,2642.2981138385367,,,,,,,,,,,,,,,,,,,,,,,,,,,,,,,,,,,,,,,568,2010-12-29_14h26.09.664,eb_02psyexp,2022.2.4,119.99547254612528,
139,0,139,0,,,,,,,,,,,,,,,,,,,,,,,,,,,,,,,,,,,,,,,,,,,,,,,,,,,,,,,,,,,2642.2981138385367,2642.2981138385367,2642.2981138385367,2642.2981138385367,2642.2981138385367,2642.2981138385367,s,1,0.6317837029928342,2642.939851834555,2643.9566023196094,,,,,,,,,,,,,,,,,,,,,,,,,,,,,,,,,,,,,,,568,2010-12-29_14h26.09.664,eb_02psyexp,2022.2.4,119.99547254612528,
140,0,140,0,,,,,,,,,,,,,,,,,,,,,,,,,,,,,,,,,,,,,,,,,,,,,,,,,,,,,,,,,,,2643.9566023196094,2643.9566023196094,2643.9566023196094,2643.9566023196094,2643.9566023196094,2643.9566023196094,l,1,0.8292971346527338,2644.7983497332316,2645.823403771734,,,,,,,,,,,,,,,,,,,,,,,,,,,,,,,,,,,,,,,568,2010-12-29_14h26.09.664,eb_02psyexp,2022.2.4,119.99547254612528,
141,0,141,0,,,,,,,,,,,,,,,,,,,,,,,,,,,,,,,,,,,,,,,,,,,,,,,,,,,,,,,,,,,2645.823403771734,2645.823403771734,2645.823403771734,2645.823403771734,2645.823403771734,2645.823403771734,s,1,0.6346144393319264,2646.4734739968553,2647.49022327445,,,,,,,,,,,,,,,,,,,,,,,,,,,,,,,,,,,,,,,568,2010-12-29_14h26.09.664,eb_02psyexp,2022.2.4,119.99547254612528,
142,0,142,0,,,,,,,,,,,,,,,,,,,,,,,,,,,,,,,,,,,,,,,,,,,,,,,,,,,,,,,,,,,2647.49022327445,2647.49022327445,2647.49022327445,2647.49022327445,2647.49022327445,2647.49022327445,l,1,2.006805549375713,2649.507089367369,2650.532158196438,,,,,,,,,,,,,,,,,,,,,,,,,,,,,,,,,,,,,,,568,2010-12-29_14h26.09.664,eb_02psyexp,2022.2.4,119.99547254612528,
143,0,143,0,,,,,,,,,,,,,,,,,,,,,,,,,,,,,,,,,,,,,,,,,,,,,,,,,,,,,,,,,,,2650.532158196438,2650.532158196438,2650.532158196438,2650.532158196438,2650.532158196438,2650.532158196438,s,1,0.5728749280096963,2651.115523198736,2652.132286663167,,,,,,,,,,,,,,,,,,,,,,,,,,,,,,,,,,,,,,,568,2010-12-29_14h26.09.664,eb_02psyexp,2022.2.4,119.99547254612528,
144,0,144,0,,,,,,,,,,,,,,,,,,,,,,,,,,,,,,,,,,,,,,,,,,,,,,,,,,,,,,,,,,,2652.132286663167,2652.132286663167,2652.132286663167,2652.132286663167,2652.132286663167,2652.132286663167,l,1,1.5807679673889652,2653.7240832027746,2654.740830669296,,,,,,,,,,,,,,,,,,,,,,,,,,,,,,,,,,,,,,,568,2010-12-29_14h26.09.664,eb_02psyexp,2022.2.4,119.99547254612528,
145,0,145,0,,,,,,,,,,,,,,,,,,,,,,,,,,,,,,,,,,,,,,,,,,,,,,,,,,,,,,,,,,,2654.740830669296,2654.740830669296,2654.740830669296,2654.740830669296,2654.740830669296,2654.740830669296,s,1,0.5162979335291311,2655.265860408894,2656.2909627431072,,,,,,,,,,,,,,,,,,,,,,,,,,,,,,,,,,,,,,,568,2010-12-29_14h26.09.664,eb_02psyexp,2022.2.4,119.99547254612528,
146,0,146,0,,,,,,,,,,,,,,,,,,,,,,,,,,,,,,,,,,,,,,,,,,,,,,,,,,,,,,,,,,,2656.2909627431072,2656.2909627431072,2656.2909627431072,2656.2909627431072,2656.2909627431072,2656.2909627431072,l,1,0.5021683999802917,2656.8076862127054,2657.8244037962286,,,,,,,,,,,,,,,,,,,,,,,,,,,,,,,,,,,,,,,568,2010-12-29_14h26.09.664,eb_02psyexp,2022.2.4,119.99547254612528,
147,0,147,0,,,,,,,,,,,,,,,,,,,,,,,,,,,,,,,,,,,,,,,,,,,,,,,,,,,,,,,,,,,2657.8244037962286,2657.8244037962286,2657.8244037962286,2657.8244037962286,2657.8244037962286,2657.8244037962286,s,1,0.5527515866560861,2658.3911393547896,2659.4162033542525,,,,,,,,,,,,,,,,,,,,,,,,,,,,,,,,,,,,,,,568,2010-12-29_14h26.09.664,eb_02psyexp,2022.2.4,119.99547254612528,
148,0,148,0,,,,,,,,,,,,,,,,,,,,,,,,,,,,,,,,,,,,,,,,,,,,,,,,,,,,,,,,,,,2659.4162033542525,2659.4162033542525,2659.4162033542525,2659.4162033542525,2659.4162033542525,2659.4162033542525,s,1,0.47299201507121325,2659.8995752688497,2660.924671264249,,,,,,,,,,,,,,,,,,,,,,,,,,,,,,,,,,,,,,,568,2010-12-29_14h26.09.664,eb_02psyexp,2022.2.4,119.99547254612528,
149,0,149,0,,,,,,,,,,,,,,,,,,,,,,,,,,,,,,,,,,,,,,,,,,,,,,,,,,,,,,,,,,,2660.924671264249,2660.924671264249,2660.924671264249,2660.924671264249,2660.924671264249,2660.924671264249,l,1,0.5715830159606412,2661.5080359646818,2662.5248166344827,,,,,,,,,,,,,,,,,,,,,,,,,,,,,,,,,,,,,,,568,2010-12-29_14h26.09.664,eb_02psyexp,2022.2.4,119.99547254612528,
150,0,150,0,,,,,,,,,,,,,,,,,,,,,,,,,,,,,,,,,,,,,,,,,,,,,,,,,,,,,,,,,,,2662.5248166344827,2662.5248166344827,2662.5248166344827,2662.5248166344827,2662.5248166344827,2662.5248166344827,s,0,0.6034328740788624,2663.1415525100892,2664.1582652640063,,,,,,,,,,,,,,,,,,,,,,,,,,,,,,,,,,,,,,,568,2010-12-29_14h26.09.664,eb_02psyexp,2022.2.4,119.99547254612528,
151,0,151,0,,,,,,,,,,,,,,,,,,,,,,,,,,,,,,,,,,,,,,,,,,,,,,,,,,,,,,,,,,,2664.1582652640063,2664.1582652640063,2664.1582652640063,2664.1582652640063,2664.1582652640063,2664.1582652640063,s,1,0.5699777849949896,2664.7416580363642,2665.758389806724,,,,,,,,,,,,,,,,,,,,,,,,,,,,,,,,,,,,,,,568,2010-12-29_14h26.09.664,eb_02psyexp,2022.2.4,119.99547254612528,
152,0,152,0,,,,,,,,,,,,,,,,,,,,,,,,,,,,,,,,,,,,,,,,,,,,,,,,,,,,,,,,,,,2665.758389806724,2665.758389806724,2665.758389806724,2665.758389806724,2665.758389806724,2665.758389806724,l,1,1.0099118733778596,2666.7834885187913,2667.800206705928,,,,,,,,,,,,,,,,,,,,,,,,,,,,,,,,,,,,,,,568,2010-12-29_14h26.09.664,eb_02psyexp,2022.2.4,119.99547254612528,
153,0,153,0,,,,,,,,,,,,,,,,,,,,,,,,,,,,,,,,,,,,,,,,,,,,,,,,,,,,,,,,,,,2667.800206705928,2667.800206705928,2667.800206705928,2667.800206705928,2667.800206705928,2667.800206705928,s,1,0.560132690705359,2668.3752636270365,2669.3919975103345,,,,,,,,,,,,,,,,,,,,,,,,,,,,,,,,,,,,,,,568,2010-12-29_14h26.09.664,eb_02psyexp,2022.2.4,119.99547254612528,
154,0,154,0,,,,,,,,,,,,,,,,,,,,,,,,,,,,,,,,,,,,,,,,,,,,,,,,,,,,,,,,,,,2669.3919975103345,2669.3919975103345,2669.3919975103345,2669.3919975103345,2669.3919975103345,2669.3919975103345,l,1,1.6323904187884182,2671.0338369274978,2672.0589480153285,,,,,,,,,,,,,,,,,,,,,,,,,,,,,,,,,,,,,,,568,2010-12-29_14h26.09.664,eb_02psyexp,2022.2.4,119.99547254612528,
155,0,155,0,,,,,,,,,,,,,,,,,,,,,,,,,,,,,,,,,,,,,,,,,,,,,,,,,,,,,,,,,,,2672.0589480153285,2672.0589480153285,2672.0589480153285,2672.0589480153285,2672.0589480153285,2672.0589480153285,l,1,0.5654560928232968,2672.6339880329324,2673.6590462971944,,,,,,,,,,,,,,,,,,,,,,,,,,,,,,,,,,,,,,,568,2010-12-29_14h26.09.664,eb_02psyexp,2022.2.4,119.99547254612528,
156,0,156,0,,,,,,,,,,,,,,,,,,,,,,,,,,,,,,,,,,,,,,,,,,,,,,,,,,,,,,,,,,,2673.6590462971944,2673.6590462971944,2673.6590462971944,2673.6590462971944,2673.6590462971944,2673.6590462971944,s,1,0.5654162488644943,2674.2340950684156,2675.2508371017175,,,,,,,,,,,,,,,,,,,,,,,,,,,,,,,,,,,,,,,568,2010-12-29_14h26.09.664,eb_02psyexp,2022.2.4,119.99547254612528,
157,0,157,0,,,,,,,,,,,,,,,,,,,,,,,,,,,,,,,,,,,,,,,,,,,,,,,,,,,,,,,,,,,2675.2508371017175,2675.2508371017175,2675.2508371017175,2675.2508371017175,2675.2508371017175,2675.2508371017175,s,1,0.7336859832284972,2676.000892868149,2677.0259795063175,,,,,,,,,,,,,,,,,,,,,,,,,,,,,,,,,,,,,,,568,2010-12-29_14h26.09.664,eb_02psyexp,2022.2.4,119.99547254612528,
158,0,158,0,,,,,,,,,,,,,,,,,,,,,,,,,,,,,,,,,,,,,,,,,,,,,,,,,,,,,,,,,,,2677.0259795063175,2677.0259795063175,2677.0259795063175,2677.0259795063175,2677.0259795063175,2677.0259795063175,s,1,0.741528311977163,2677.7760515726404,2678.8011231183773,,,,,,,,,,,,,,,,,,,,,,,,,,,,,,,,,,,,,,,568,2010-12-29_14h26.09.664,eb_02psyexp,2022.2.4,119.99547254612528,
159,0,159,0,,,,,,,,,,,,,,,,,,,,,,,,,,,,,,,,,,,,,,,,,,,,,,,,,,,,,,,,,,,2678.8011231183773,2678.8011231183773,2678.8011231183773,2678.8011231183773,2678.8011231183773,2678.8011231183773,l,1,1.270425335969776,2680.0846241638064,2681.1097147258697,,,,,,,,,,,,,,,,,,,,,,,,,,,,,,,,,,,,,,,568,2010-12-29_14h26.09.664,eb_02psyexp,2022.2.4,119.99547254612528,
160,0,160,0,,,,,,,,,,,,,,,,,,,,,,,,,,,,,,,,,,,,,,,,,,,,,,,,,,,,,,,,,,,2681.1097147258697,2681.1097147258697,2681.1097147258697,2681.1097147258697,2681.1097147258697,2681.1097147258697,s,1,0.6098643625155091,2681.734735138365,2682.7681503833737,,,,,,,,,,,,,,,,,,,,,,,,,,,,,,,,,,,,,,,568,2010-12-29_14h26.09.664,eb_02psyexp,2022.2.4,119.99547254612528,
161,0,161,0,,,,,,,,,,,,,,,,,,,,,,,,,,,,,,,,,,,,,,,,,,,,,,,,,,,,,,,,,,,2682.7681503833737,2682.7681503833737,2682.7681503833737,2682.7681503833737,2682.7681503833737,2682.7681503833737,s,1,1.191467474331148,2683.96824854461,2684.9933010737877,,,,,,,,,,,,,,,,,,,,,,,,,,,,,,,,,,,,,,,568,2010-12-29_14h26.09.664,eb_02psyexp,2022.2.4,119.99547254612528,
162,0,162,0,,,,,,,,,,,,,,,,,,,,,,,,,,,,,,,,,,,,,,,,,,,,,,,,,,,,,,,,,,,2684.9933010737877,2684.9933010737877,2684.9933010737877,2684.9933010737877,2684.9933010737877,2684.9933010737877,s,1,0.8863410889171064,2685.8934012573445,2686.9184350719443,,,,,,,,,,,,,,,,,,,,,,,,,,,,,,,,,,,,,,,568,2010-12-29_14h26.09.664,eb_02psyexp,2022.2.4,119.99547254612528,
163,0,163,0,,,,,,,,,,,,,,,,,,,,,,,,,,,,,,,,,,,,,,,,,,,,,,,,,,,,,,,,,,,2686.9184350719443,2686.9184350719443,2686.9184350719443,2686.9184350719443,2686.9184350719443,2686.9184350719443,s,1,0.6652499604970217,2687.593520698836,2688.6102373767644,,,,,,,,,,,,,,,,,,,,,,,,,,,,,,,,,,,,,,,568,2010-12-29_14h26.09.664,eb_02psyexp,2022.2.4,119.99547254612528,
164,0,164,0,,,,,,,,,,,,,,,,,,,,,,,,,,,,,,,,,,,,,,,,,,,,,,,,,,,,,,,,,,,2688.6102373767644,2688.6102373767644,2688.6102373767644,2688.6102373767644,2688.6102373767644,2688.6102373767644,l,1,0.6694707096321508,2689.29366036423,2690.3104075288866,,,,,,,,,,,,,,,,,,,,,,,,,,,,,,,,,,,,,,,568,2010-12-29_14h26.09.664,eb_02psyexp,2022.2.4,119.99547254612528,
165,0,165,0,,,,,,,,,,,,,,,,,,,,,,,,,,,,,,,,,,,,,,,,,,,,,,,,,,,,,,,,,,,2690.3104075288866,2690.3104075288866,2690.3104075288866,2690.3104075288866,2690.3104075288866,2690.3104075288866,s,1,0.5453270163852721,2690.8688304785173,2691.8938814984867,,,,,,,,,,,,,,,,,,,,,,,,,,,,,,,,,,,,,,,568,2010-12-29_14h26.09.664,eb_02psyexp,2022.2.4,119.99547254612528,
166,0,166,0,,,,,,,,,,,,,,,,,,,,,,,,,,,,,,,,,,,,,,,,,,,,,,,,,,,,,,,,,,,2691.8938814984867,2691.8938814984867,2691.8938814984867,2691.8938814984867,2691.8938814984867,2691.8938814984867,l,0,0.7848906761500984,2692.693948750384,2693.7190202960046,,,,,,,,,,,,,,,,,,,,,,,,,,,,,,,,,,,,,,,568,2010-12-29_14h26.09.664,eb_02psyexp,2022.2.4,119.99547254612528,
167,0,167,0,,,,,,,,,,,,,,,,,,,,,,,,,,,,,,,,,,,,,,,,,,,,,,,,,,,,,,,,,,,2693.7190202960046,2693.7190202960046,2693.7190202960046,2693.7190202960046,2693.7190202960046,2693.7190202960046,l,1,0.6397772579221055,2694.3691010858165,2695.4024915791815,,,,,,,,,,,,,,,,,,,,,,,,,,,,,,,,,,,,,,,568,2010-12-29_14h26.09.664,eb_02psyexp,2022.2.4,119.99547254612528,
168,0,168,0,,,,,,,,,,,,,,,,,,,,,,,,,,,,,,,,,,,,,,,,,,,,,,,,,,,,,,,,,,,2695.4024915791815,2695.4024915791815,2695.4024915791815,2695.4024915791815,2695.4024915791815,2695.4024915791815,s,1,0.5483482191339135,2695.9608580832137,2696.9775925702415,,,,,,,,,,,,,,,,,,,,,,,,,,,,,,,,,,,,,,,568,2010-12-29_14h26.09.664,eb_02psyexp,2022.2.4,119.99547254612528,
169,0,169,0,,,,,,,,,,,,,,,,,,,,,,,,,,,,,,,,,,,,,,,,,,,,,,,,,,,,,,,,,,,2696.9775925702415,2696.9775925702415,2696.9775925702415,2696.9775925702415,2696.9775925702415,2696.9775925702415,l,1,0.6052623785799369,2697.5943263327936,2698.627756066504,,,,,,,,,,,,,,,,,,,,,,,,,,,,,,,,,,,,,,,568,2010-12-29_14h26.09.664,eb_02psyexp,2022.2.4,119.99547254612528,
170,0,170,0,,,,,,,,,,,,,,,,,,,,,,,,,,,,,,,,,,,,,,,,,,,,,,,,,,,,,,,,,,,2698.627756066504,2698.627756066504,2698.627756066504,2698.627756066504,2698.627756066504,2698.627756066504,s,1,0.555168790393509,2699.1944581199205,2700.211185664404,,,,,,,,,,,,,,,,,,,,,,,,,,,,,,,,,,,,,,,568,2010-12-29_14h26.09.664,eb_02psyexp,2022.2.4,119.99547254612528,
171,0,171,0,,,,,,,,,,,,,,,,,,,,,,,,,,,,,,,,,,,,,,,,,,,,,,,,,,,,,,,,,,,2700.211185664404,2700.211185664404,2700.211185664404,2700.211185664404,2700.211185664404,2700.211185664404,l,1,0.4997367076575756,2700.7195784141077,2701.736344897072,,,,,,,,,,,,,,,,,,,,,,,,,,,,,,,,,,,,,,,568,2010-12-29_14h26.09.664,eb_02psyexp,2022.2.4,119.99547254612528,
172,0,172,0,,,,,,,,,,,,,,,,,,,,,,,,,,,,,,,,,,,,,,,,,,,,,,,,,,,,,,,,,,,2701.736344897072,2701.736344897072,2701.736344897072,2701.736344897072,2701.736344897072,2701.736344897072,s,1,0.5586068460252136,2702.311416910612,2703.344840607373,,,,,,,,,,,,,,,,,,,,,,,,,,,,,,,,,,,,,,,568,2010-12-29_14h26.09.664,eb_02psyexp,2022.2.4,119.99547254612528,
173,0,173,0,,,,,,,,,,,,,,,,,,,,,,,,,,,,,,,,,,,,,,,,,,,,,,,,,,,,,,,,,,,2703.344840607373,2703.344840607373,2703.344840607373,2703.344840607373,2703.344840607373,2703.344840607373,l,1,0.5341359791345894,2703.8948782025836,2704.9115936731687,,,,,,,,,,,,,,,,,,,,,,,,,,,,,,,,,,,,,,,568,2010-12-29_14h26.09.664,eb_02psyexp,2022.2.4,119.99547254612528,
174,0,174,0,,,,,,,,,,,,,,,,,,,,,,,,,,,,,,,,,,,,,,,,,,,,,,,,,,,,,,,,,,,2704.9115936731687,2704.9115936731687,2704.9115936731687,2704.9115936731687,2704.9115936731687,2704.9115936731687,l,1,0.6154035864165053,2705.536667814711,2706.5700788338436,,,,,,,,,,,,,,,,,,,,,,,,,,,,,,,,,,,,,,,568,2010-12-29_14h26.09.664,eb_02psyexp,2022.2.4,119.99547254612528,
175,0,175,0,,,,,,,,,,,,,,,,,,,,,,,,,,,,,,,,,,,,,,,,,,,,,,,,,,,,,,,,,,,2706.5700788338436,2706.5700788338436,2706.5700788338436,2706.5700788338436,2706.5700788338436,2706.5700788338436,l,1,0.564928763313219,2707.1451143237064,2708.17020428204,,,,,,,,,,,,,,,,,,,,,,,,,,,,,,,,,,,,,,,568,2010-12-29_14h26.09.664,eb_02psyexp,2022.2.4,119.99547254612528,
176,0,176,0,,,,,,,,,,,,,,,,,,,,,,,,,,,,,,,,,,,,,,,,,,,,,,,,,,,,,,,,,,,2708.17020428204,2708.17020428204,2708.17020428204,2708.17020428204,2708.17020428204,2708.17020428204,s,1,0.5638493527658284,2708.745255468064,2709.761968221981,,,,,,,,,,,,,,,,,,,,,,,,,,,,,,,,,,,,,,,568,2010-12-29_14h26.09.664,eb_02psyexp,2022.2.4,119.99547254612528,
177,0,177,0,,,,,,,,,,,,,,,,,,,,,,,,,,,,,,,,,,,,,,,,,,,,,,,,,,,,,,,,,,,2709.761968221981,2709.761968221981,2709.761968221981,2709.761968221981,2709.761968221981,2709.761968221981,l,1,0.5481106642400846,2710.320363099687,2711.3537973611383,,,,,,,,,,,,,,,,,,,,,,,,,,,,,,,,,,,,,,,568,2010-12-29_14h26.09.664,eb_02psyexp,2022.2.4,119.99547254612528,
178,0,178,0,,,,,,,,,,,,,,,,,,,,,,,,,,,,,,,,,,,,,,,,,,,,,,,,,,,,,,,,,,,2711.3537973611383,2711.3537973611383,2711.3537973611383,2711.3537973611383,2711.3537973611383,2711.3537973611383,s,1,0.868311369442381,2712.2372234273935,2713.2706211651675,,,,,,,,,,,,,,,,,,,,,,,,,,,,,,,,,,,,,,,568,2010-12-29_14h26.09.664,eb_02psyexp,2022.2.4,119.99547254612528,
179,0,179,0,,,,,,,,,,,,,,,,,,,,,,,,,,,,,,,,,,,,,,,,,,,,,,,,,,,,,,,,,,,2713.2706211651675,2713.2706211651675,2713.2706211651675,2713.2706211651675,2713.2706211651675,2713.2706211651675,l,1,0.5595117881894112,2713.845653334749,2714.8707529522944,,,,,,,,,,,,,,,,,,,,,,,,,,,,,,,,,,,,,,,568,2010-12-29_14h26.09.664,eb_02psyexp,2022.2.4,119.99547254612528,
180,0,180,0,,,,,,,,,,,,,,,,,,,,,,,,,,,,,,,,,,,,,,,,,,,,,,,,,,,,,,,,,,,2714.8707529522944,2714.8707529522944,2714.8707529522944,2714.8707529522944,2714.8707529522944,2714.8707529522944,s,1,0.6554081864887848,2715.537486730027,2716.554211557843,,,,,,,,,,,,,,,,,,,,,,,,,,,,,,,,,,,,,,,568,2010-12-29_14h26.09.664,eb_02psyexp,2022.2.4,119.99547254612528,
181,0,181,0,,,,,,,,,,,,,,,,,,,,,,,,,,,,,,,,,,,,,,,,,,,,,,,,,,,,,,,,,,,2716.554211557843,2716.554211557843,2716.554211557843,2716.554211557843,2716.554211557843,2716.554211557843,l,1,0.7959863292053342,2717.3626116424566,2718.396025981987,,,,,,,,,,,,,,,,,,,,,,,,,,,,,,,,,,,,,,,568,2010-12-29_14h26.09.664,eb_02psyexp,2022.2.4,119.99547254612528,
182,0,182,0,,,,,,,,,,,,,,,,,,,,,,,,,,,,,,,,,,,,,,,,,,,,,,,,,,,,,,,,,,,2718.396025981987,2718.396025981987,2718.396025981987,2718.396025981987,2718.396025981987,2718.396025981987,s,1,1.1061949398135766,2719.512783137732,2720.537952784216,,,,,,,,,,,,,,,,,,,,,,,,,,,,,,,,,,,,,,,568,2010-12-29_14h26.09.664,eb_02psyexp,2022.2.4,119.99547254612528,
183,0,183,0,,,,,,,,,,,,,,,,,,,,,,,,,,,,,,,,,,,,,,,,,,,,,,,,,,,,,,,,,,,2720.537952784216,2720.537952784216,2720.537952784216,2720.537952784216,2720.537952784216,2720.537952784216,l,1,0.6683031591819599,2721.22127676534,2722.246344688814,,,,,,,,,,,,,,,,,,,,,,,,,,,,,,,,,,,,,,,568,2010-12-29_14h26.09.664,eb_02psyexp,2022.2.4,119.99547254612528,
184,0,184,0,,,,,,,,,,,,,,,,,,,,,,,,,,,,,,,,,,,,,,,,,,,,,,,,,,,,,,,,,,,2722.246344688814,2722.246344688814,2722.246344688814,2722.246344688814,2722.246344688814,2722.246344688814,s,1,0.9359547378262505,2723.19644458557,2724.221511905431,,,,,,,,,,,,,,,,,,,,,,,,,,,,,,,,,,,,,,,568,2010-12-29_14h26.09.664,eb_02psyexp,2022.2.4,119.99547254612528,
185,0,185,0,,,,,,,,,,,,,,,,,,,,,,,,,,,,,,,,,,,,,,,,,,,,,,,,,,,,,,,,,,,2724.221511905431,2724.221511905431,2724.221511905431,2724.221511905431,2724.221511905431,2724.221511905431,s,1,1.2078134822659194,2725.4382693932857,2726.455004785792,,,,,,,,,,,,,,,,,,,,,,,,,,,,,,,,,,,,,,,568,2010-12-29_14h26.09.664,eb_02psyexp,2022.2.4,119.99547254612528,
186,0,186,0,,,,,,,,,,,,,,,,,,,,,,,,,,,,,,,,,,,,,,,,,,,,,,,,,,,,,,,,,,,2726.455004785792,2726.455004785792,2726.455004785792,2726.455004785792,2726.455004785792,2726.455004785792,s,1,0.6063520519528538,2727.071736737271,2728.0884959759424,,,,,,,,,,,,,,,,,,,,,,,,,,,,,,,,,,,,,,,568,2010-12-29_14h26.09.664,eb_02psyexp,2022.2.4,119.99547254612528,
187,0,187,0,,,,,,,,,,,,,,,,,,,,,,,,,,,,,,,,,,,,,,,,,,,,,,,,,,,,,,,,,,,2728.0884959759424,2728.0884959759424,2728.0884959759424,2728.0884959759424,2728.0884959759424,2728.0884959759424,l,1,1.1409060208825395,2729.2386007626774,2730.2636901173973,,,,,,,,,,,,,,,,,,,,,,,,,,,,,,,,,,,,,,,568,2010-12-29_14h26.09.664,eb_02psyexp,2022.2.4,119.99547254612528,
188,0,188,0,,,,,,,,,,,,,,,,,,,,,,,,,,,,,,,,,,,,,,,,,,,,,,,,,,,,,,,,,,,2730.2636901173973,2730.2636901173973,2730.2636901173973,2730.2636901173973,2730.2636901173973,2730.2636901173973,l,1,0.7257555146934465,2731.0054215029813,2732.022122786613,,,,,,,,,,,,,,,,,,,,,,,,,,,,,,,,,,,,,,,568,2010-12-29_14h26.09.664,eb_02psyexp,2022.2.4,119.99547254612528,
189,0,189,0,,,,,,,,,,,,,,,,,,,,,,,,,,,,,,,,,,,,,,,,,,,,,,,,,,,,,,,,,,,2732.022122786613,2732.022122786613,2732.022122786613,2732.022122786613,2732.022122786613,2732.022122786613,l,1,0.6393425959395245,2732.6722108207177,2733.688944402267,,,,,,,,,,,,,,,,,,,,,,,,,,,,,,,,,,,,,,,568,2010-12-29_14h26.09.664,eb_02psyexp,2022.2.4,119.99547254612528,
190,0,190,0,,,,,,,,,,,,,,,,,,,,,,,,,,,,,,,,,,,,,,,,,,,,,,,,,,,,,,,,,,,2733.688944402267,2733.688944402267,2733.688944402267,2733.688944402267,2733.688944402267,2733.688944402267,s,1,0.5405285289743915,2734.239019124885,2735.264094594517,,,,,,,,,,,,,,,,,,,,,,,,,,,,,,,,,,,,,,,568,2010-12-29_14h26.09.664,eb_02psyexp,2022.2.4,119.99547254612528,
191,0,191,0,,,,,,,,,,,,,,,,,,,,,,,,,,,,,,,,,,,,,,,,,,,,,,,,,,,,,,,,,,,2735.264094594517,2735.264094594517,2735.264094594517,2735.264094594517,2735.264094594517,2735.264094594517,s,1,1.12545710708946,2736.4058608133346,2737.4309305479983,,,,,,,,,,,,,,,,,,,,,,,,,,,,,,,,,,,,,,,568,2010-12-29_14h26.09.664,eb_02psyexp,2022.2.4,119.99547254612528,
192,0,192,0,,,,,,,,,,,,,,,,,,,,,,,,,,,,,,,,,,,,,,,,,,,,,,,,,,,,,,,,,,,2737.4309305479983,2737.4309305479983,2737.4309305479983,2737.4309305479983,2737.4309305479983,2737.4309305479983,l,1,0.7656704657711089,2738.2059983960353,2739.2311263873708,,,,,,,,,,,,,,,,,,,,,,,,,,,,,,,,,,,,,,,568,2010-12-29_14h26.09.664,eb_02psyexp,2022.2.4,119.99547254612528,
193,0,193,0,,,,,,,,,,,,,,,,,,,,,,,,,,,,,,,,,,,,,,,,,,,,,,,,,,,,,,,,,,,2739.2311263873708,2739.2311263873708,2739.2311263873708,2739.2311263873708,2739.2311263873708,2739.2311263873708,s,1,0.9094113782048225,2740.1561544366414,2741.1812483191025,,,,,,,,,,,,,,,,,,,,,,,,,,,,,,,,,,,,,,,568,2010-12-29_14h26.09.664,eb_02psyexp,2022.2.4,119.99547254612528,
194,0,194,0,,,,,,,,,,,,,,,,,,,,,,,,,,,,,,,,,,,,,,,,,,,,,,,,,,,,,,,,,,,2741.1812483191025,2741.1812483191025,2741.1812483191025,2741.1812483191025,2741.1812483191025,2741.1812483191025,l,1,0.6553743794793263,2741.847970324685,2742.8646978691686,,,,,,,,,,,,,,,,,,,,,,,,,,,,,,,,,,,,,,,568,2010-12-29_14h26.09.664,eb_02psyexp,2022.2.4,119.99547254612528,
195,0,195,0,,,,,,,,,,,,,,,,,,,,,,,,,,,,,,,,,,,,,,,,,,,,,,,,,,,,,,,,,,,2742.8646978691686,2742.8646978691686,2742.8646978691686,2742.8646978691686,2742.8646978691686,2742.8646978691686,l,1,0.5639239093288779,2743.4397988602286,2744.4648456542054,,,,,,,,,,,,,,,,,,,,,,,,,,,,,,,,,,,,,,,568,2010-12-29_14h26.09.664,eb_02psyexp,2022.2.4,119.99547254612528,
196,0,196,0,,,,,,,,,,,,,,,,,,,,,,,,,,,,,,,,,,,,,,,,,,,,,,,,,,,,,,,,,,,2744.4648456542054,2744.4648456542054,2744.4648456542054,2744.4648456542054,2744.4648456542054,2744.4648456542054,l,1,0.763791156350635,2745.2398944857996,2746.2649750869023,,,,,,,,,,,,,,,,,,,,,,,,,,,,,,,,,,,,,,,568,2010-12-29_14h26.09.664,eb_02psyexp,2022.2.4,119.99547254612528,
197,0,197,0,,,,,,,,,,,,,,,,,,,,,,,,,,,,,,,,,,,,,,,,,,,,,,,,,,,,,,,,,,,2746.2649750869023,2746.2649750869023,2746.2649750869023,2746.2649750869023,2746.2649750869023,2746.2649750869023,s,1,0.5317326604854316,2746.8067124490626,2747.831813274068,,,,,,,,,,,,,,,,,,,,,,,,,,,,,,,,,,,,,,,568,2010-12-29_14h26.09.664,eb_02psyexp,2022.2.4,119.99547254612528,
198,0,198,0,,,,,,,,,,,,,,,,,,,,,,,,,,,,,,,,,,,,,,,,,,,,,,,,,,,,,,,,,,,2747.831813274068,2747.831813274068,2747.831813274068,2747.831813274068,2747.831813274068,2747.831813274068,l,1,0.5249546499690041,2748.3651652816916,2749.390247693984,,,,,,,,,,,,,,,,,,,,,,,,,,,,,,,,,,,,,,,568,2010-12-29_14h26.09.664,eb_02psyexp,2022.2.4,119.99547254612528,
199,0,199,0,,,,,0,0,0,0,,,,,,,,,,,,,,,,,,,,,,,,,,,,,,,,,,,,,,,,,,,,,,,,,,,2749.390247693984,2749.390247693984,2749.390247693984,2749.390247693984,2749.390247693984,2749.390247693984,s,1,0.5265330163529143,2749.931942495401,2750.932053575758,2750.932053575758,2750.932053575758,space,35.086380993248895,,,,,,,,,,,,,,,,,,,,,,,,,,,,,,,,,,,568,2010-12-29_14h26.09.664,eb_02psyexp,2022.2.4,119.99547254612528,
199,0,199,0,,,,,,,,,,,,,,,,,,,,,,,,,,,,,,,,,,,,,,,,,,,,,,,,,,,,,,,,,,,,,,,,,,,,,,,,,,,,,,,,,,,,,,,,,,,,,,,,,,,,,,,,,,,,568,2010-12-29_14h26.09.664,eb_02psyexp,2022.2.4,119.99547254612528,
200,0,200,0,,,,,,,,,,,,,,,,,,,,,,,,,,,,,,,,,,,,,,,,,,,,,,,,,,,,,,,,,,,2786.0599121197592,2786.0599121197592,2786.0599121197592,2786.0599121197592,2786.0599121197592,2786.0599121197592,l,1,2.550545677077025,2788.626787434332,2789.643511960283,,,,,,,,,,,,,,,,,,,,,,,,,,,,,,,,,,,,,,,568,2010-12-29_14h26.09.664,eb_02psyexp,2022.2.4,119.99547254612528,
201,0,201,0,,,,,,,,,,,,,,,,,,,,,,,,,,,,,,,,,,,,,,,,,,,,,,,,,,,,,,,,,,,2789.643511960283,2789.643511960283,2789.643511960283,2789.643511960283,2789.643511960283,2789.643511960283,l,1,1.4629700374789536,2791.1186458226293,2792.1437212923774,,,,,,,,,,,,,,,,,,,,,,,,,,,,,,,,,,,,,,,568,2010-12-29_14h26.09.664,eb_02psyexp,2022.2.4,119.99547254612528,
202,0,202,0,,,,,,,,,,,,,,,,,,,,,,,,,,,,,,,,,,,,,,,,,,,,,,,,,,,,,,,,,,,2792.1437212923774,2792.1437212923774,2792.1437212923774,2792.1437212923774,2792.1437212923774,2792.1437212923774,s,1,0.6427909145131707,2792.802136122249,2793.8272318157833,,,,,,,,,,,,,,,,,,,,,,,,,,,,,,,,,,,,,,,568,2010-12-29_14h26.09.664,eb_02psyexp,2022.2.4,119.99547254612528,
203,0,203,0,,,,,,,,,,,,,,,,,,,,,,,,,,,,,,,,,,,,,,,,,,,,,,,,,,,,,,,,,,,2793.8272318157833,2793.8272318157833,2793.8272318157833,2793.8272318157833,2793.8272318157833,2793.8272318157833,s,1,0.5912973524536937,2794.427286329679,2795.452349725412,,,,,,,,,,,,,,,,,,,,,,,,,,,,,,,,,,,,,,,568,2010-12-29_14h26.09.664,eb_02psyexp,2022.2.4,119.99547254612528,
204,0,204,0,,,,,,,,,,,,,,,,,,,,,,,,,,,,,,,,,,,,,,,,,,,,,,,,,,,,,,,,,,,2795.452349725412,2795.452349725412,2795.452349725412,2795.452349725412,2795.452349725412,2795.452349725412,l,1,0.5422445383155718,2796.0107346421573,2797.03581524326,,,,,,,,,,,,,,,,,,,,,,,,,,,,,,,,,,,,,,,568,2010-12-29_14h26.09.664,eb_02psyexp,2022.2.4,119.99547254612528,
205,0,205,0,,,,,,,,,,,,,,,,,,,,,,,,,,,,,,,,,,,,,,,,,,,,,,,,,,,,,,,,,,,2797.03581524326,2797.03581524326,2797.03581524326,2797.03581524326,2797.03581524326,2797.03581524326,s,1,0.5588311195606366,2797.610861599678,2798.635925297276,,,,,,,,,,,,,,,,,,,,,,,,,,,,,,,,,,,,,,,568,2010-12-29_14h26.09.664,eb_02psyexp,2022.2.4,119.99547254612528,
206,0,206,0,,,,,,,,,,,,,,,,,,,,,,,,,,,,,,,,,,,,,,,,,,,,,,,,,,,,,,,,,,,2798.635925297276,2798.635925297276,2798.635925297276,2798.635925297276,2798.635925297276,2798.635925297276,l,1,0.5747306932462379,2799.2193404064747,2800.2443992744666,,,,,,,,,,,,,,,,,,,,,,,,,,,,,,,,,,,,,,,568,2010-12-29_14h26.09.664,eb_02psyexp,2022.2.4,119.99547254612528,
207,0,207,0,,,,,,,,,,,,,,,,,,,,,,,,,,,,,,,,,,,,,,,,,,,,,,,,,,,,,,,,,,,2800.2443992744666,2800.2443992744666,2800.2443992744666,2800.2443992744666,2800.2443992744666,2800.2443992744666,s,1,0.4862531302496791,2800.744460700662,2801.7695138335694,,,,,,,,,,,,,,,,,,,,,,,,,,,,,,,,,,,,,,,568,2010-12-29_14h26.09.664,eb_02psyexp,2022.2.4,119.99547254612528,
208,0,208,0,,,,,,,,,,,,,,,,,,,,,,,,,,,,,,,,,,,,,,,,,,,,,,,,,,,,,,,,,,,2801.7695138335694,2801.7695138335694,2801.7695138335694,2801.7695138335694,2801.7695138335694,2801.7695138335694,l,1,0.49614984064828604,2802.277908696211,2803.294654049794,,,,,,,,,,,,,,,,,,,,,,,,,,,,,,,,,,,,,,,568,2010-12-29_14h26.09.664,eb_02psyexp,2022.2.4,119.99547254612528,
209,0,209,0,,,,,,,,,,,,,,,,,,,,,,,,,,,,,,,,,,,,,,,,,,,,,,,,,,,,,,,,,,,2803.294654049794,2803.294654049794,2803.294654049794,2803.294654049794,2803.294654049794,2803.294654049794,l,1,0.5470415165182203,2803.853034740663,2804.869768322096,,,,,,,,,,,,,,,,,,,,,,,,,,,,,,,,,,,,,,,568,2010-12-29_14h26.09.664,eb_02psyexp,2022.2.4,119.99547254612528,
210,0,210,0,,,,,,,,,,,,,,,,,,,,,,,,,,,,,,,,,,,,,,,,,,,,,,,,,,,,,,,,,,,2804.869768322096,2804.869768322096,2804.869768322096,2804.869768322096,2804.869768322096,2804.869768322096,s,1,0.5000020326115191,2805.3781453757547,2806.40326219867,,,,,,,,,,,,,,,,,,,,,,,,,,,,,,,,,,,,,,,568,2010-12-29_14h26.09.664,eb_02psyexp,2022.2.4,119.99547254612528,
211,0,211,0,,,,,,,,,,,,,,,,,,,,,,,,,,,,,,,,,,,,,,,,,,,,,,,,,,,,,,,,,,,2806.40326219867,2806.40326219867,2806.40326219867,2806.40326219867,2806.40326219867,2806.40326219867,l,1,1.7905258878599852,2808.2034109496744,2809.236814422533,,,,,,,,,,,,,,,,,,,,,,,,,,,,,,,,,,,,,,,568,2010-12-29_14h26.09.664,eb_02psyexp,2022.2.4,119.99547254612528,
212,0,212,0,,,,,,,,,,,,,,,,,,,,,,,,,,,,,,,,,,,,,,,,,,,,,,,,,,,,,,,,,,,2809.236814422533,2809.236814422533,2809.236814422533,2809.236814422533,2809.236814422533,2809.236814422533,s,1,0.5410063554299995,2809.786898804363,2810.81194016512,,,,,,,,,,,,,,,,,,,,,,,,,,,,,,,,,,,,,,,568,2010-12-29_14h26.09.664,eb_02psyexp,2022.2.4,119.99547254612528,
213,0,213,0,,,,,,,,,,,,,,,,,,,,,,,,,,,,,,,,,,,,,,,,,,,,,,,,,,,,,,,,,,,2810.81194016512,2810.81194016512,2810.81194016512,2810.81194016512,2810.81194016512,2810.81194016512,l,1,0.5898937564343214,2811.4120121862506,2812.4454035852104,,,,,,,,,,,,,,,,,,,,,,,,,,,,,,,,,,,,,,,568,2010-12-29_14h26.09.664,eb_02psyexp,2022.2.4,119.99547254612528,
214,0,214,0,,,,,,,,,,,,,,,,,,,,,,,,,,,,,,,,,,,,,,,,,,,,,,,,,,,,,,,,,,,2812.4454035852104,2812.4454035852104,2812.4454035852104,2812.4454035852104,2812.4454035852104,2812.4454035852104,s,1,0.604459461173974,2813.062122255331,2814.078863684903,,,,,,,,,,,,,,,,,,,,,,,,,,,,,,,,,,,,,,,568,2010-12-29_14h26.09.664,eb_02psyexp,2022.2.4,119.99547254612528,
215,0,215,0,,,,,,,,,,,,,,,,,,,,,,,,,,,,,,,,,,,,,,,,,,,,,,,,,,,,,,,,,,,2814.078863684903,2814.078863684903,2814.078863684903,2814.078863684903,2814.078863684903,2814.078863684903,l,1,0.5470279332948849,2814.6372298869537,2815.670670487336,,,,,,,,,,,,,,,,,,,,,,,,,,,,,,,,,,,,,,,568,2010-12-29_14h26.09.664,eb_02psyexp,2022.2.4,119.99547254612528,
216,0,216,0,,,,,,,,,,,,,,,,,,,,,,,,,,,,,,,,,,,,,,,,,,,,,,,,,,,,,,,,,,,2815.670670487336,2815.670670487336,2815.670670487336,2815.670670487336,2815.670670487336,2815.670670487336,s,1,0.9792549209669232,2816.6623995334376,2817.6958506983938,,,,,,,,,,,,,,,,,,,,,,,,,,,,,,,,,,,,,,,568,2010-12-29_14h26.09.664,eb_02psyexp,2022.2.4,119.99547254612528,
217,0,217,0,,,,,,,,,,,,,,,,,,,,,,,,,,,,,,,,,,,,,,,,,,,,,,,,,,,,,,,,,,,2817.6958506983938,2817.6958506983938,2817.6958506983938,2817.6958506983938,2817.6958506983938,2817.6958506983938,l,1,0.5851000986294821,2818.295886195847,2819.320965891471,,,,,,,,,,,,,,,,,,,,,,,,,,,,,,,,,,,,,,,568,2010-12-29_14h26.09.664,eb_02psyexp,2022.2.4,119.99547254612528,
218,0,218,0,,,,,,,,,,,,,,,,,,,,,,,,,,,,,,,,,,,,,,,,,,,,,,,,,,,,,,,,,,,2819.320965891471,2819.320965891471,2819.320965891471,2819.320965891471,2819.320965891471,2819.320965891471,l,1,0.6000352660194039,2819.9293453899445,2820.9627977623604,,,,,,,,,,,,,,,,,,,,,,,,,,,,,,,,,,,,,,,568,2010-12-29_14h26.09.664,eb_02psyexp,2022.2.4,119.99547254612528,
219,0,219,0,,,,,,,,,,,,,,,,,,,,,,,,,,,,,,,,,,,,,,,,,,,,,,,,,,,,,,,,,,,2820.9627977623604,2820.9627977623604,2820.9627977623604,2820.9627977623604,2820.9627977623604,2820.9627977623604,l,1,1.078224741970189,2822.054508124129,2823.07959023444,,,,,,,,,,,,,,,,,,,,,,,,,,,,,,,,,,,,,,,568,2010-12-29_14h26.09.664,eb_02psyexp,2022.2.4,119.99547254612528,
220,0,220,0,,,,,,,,,,,,,,,,,,,,,,,,,,,,,,,,,,,,,,,,,,,,,,,,,,,,,,,,,,,2823.07959023444,2823.07959023444,2823.07959023444,2823.07959023444,2823.07959023444,2823.07959023444,l,1,0.6814794547390193,2823.7713131532073,2824.796411865158,,,,,,,,,,,,,,,,,,,,,,,,,,,,,,,,,,,,,,,568,2010-12-29_14h26.09.664,eb_02psyexp,2022.2.4,119.99547254612528,
221,0,221,0,,,,,,,,,,,,,,,,,,,,,,,,,,,,,,,,,,,,,,,,,,,,,,,,,,,,,,,,,,,2824.796411865158,2824.796411865158,2824.796411865158,2824.796411865158,2824.796411865158,2824.796411865158,l,1,0.5886682510608807,2825.3964835844235,2826.421556035639,,,,,,,,,,,,,,,,,,,,,,,,,,,,,,,,,,,,,,,568,2010-12-29_14h26.09.664,eb_02psyexp,2022.2.4,119.99547254612528,
222,0,222,0,,,,,,,,,,,,,,,,,,,,,,,,,,,,,,,,,,,,,,,,,,,,,,,,,,,,,,,,,,,2826.421556035639,2826.421556035639,2826.421556035639,2826.421556035639,2826.421556035639,2826.421556035639,l,1,1.1875820789719,2827.62164272659,2828.65506129188,,,,,,,,,,,,,,,,,,,,,,,,,,,,,,,,,,,,,,,568,2010-12-29_14h26.09.664,eb_02psyexp,2022.2.4,119.99547254612528,
223,0,223,0,,,,,,,,,,,,,,,,,,,,,,,,,,,,,,,,,,,,,,,,,,,,,,,,,,,,,,,,,,,2828.65506129188,2828.65506129188,2828.65506129188,2828.65506129188,2828.65506129188,2828.65506129188,s,1,0.5700852432055399,2829.2384383680765,2830.2635259117233,,,,,,,,,,,,,,,,,,,,,,,,,,,,,,,,,,,,,,,568,2010-12-29_14h26.09.664,eb_02psyexp,2022.2.4,119.99547254612528,
224,0,224,0,,,,,,,,,,,,,,,,,,,,,,,,,,,,,,,,,,,,,,,,,,,,,,,,,,,,,,,,,,,2830.2635259117233,2830.2635259117233,2830.2635259117233,2830.2635259117233,2830.2635259117233,2830.2635259117233,s,1,0.4576526723103598,2830.7302475550678,2831.763681212906,,,,,,,,,,,,,,,,,,,,,,,,,,,,,,,,,,,,,,,568,2010-12-29_14h26.09.664,eb_02psyexp,2022.2.4,119.99547254612528,
225,0,225,0,,,,,,,,,,,,,,,,,,,,,,,,,,,,,,,,,,,,,,,,,,,,,,,,,,,,,,,,,,,2831.763681212906,2831.763681212906,2831.763681212906,2831.763681212906,2831.763681212906,2831.763681212906,s,1,0.5885595856234431,2832.363717917702,2833.388804555754,,,,,,,,,,,,,,,,,,,,,,,,,,,,,,,,,,,,,,,568,2010-12-29_14h26.09.664,eb_02psyexp,2022.2.4,119.99547254612528,
226,0,226,0,,,,,,,,,,,,,,,,,,,,,,,,,,,,,,,,,,,,,,,,,,,,,,,,,,,,,,,,,,,2833.388804555754,2833.388804555754,2833.388804555754,2833.388804555754,2833.388804555754,2833.388804555754,l,1,0.5554256635950878,2833.9554984592833,2834.9889447946334,,,,,,,,,,,,,,,,,,,,,,,,,,,,,,,,,,,,,,,568,2010-12-29_14h26.09.664,eb_02psyexp,2022.2.4,119.99547254612528,
227,0,227,0,,,,,,,,,,,,,,,,,,,,,,,,,,,,,,,,,,,,,,,,,,,,,,,,,,,,,,,,,,,2834.9889447946334,2834.9889447946334,2834.9889447946334,2834.9889447946334,2834.9889447946334,2834.9889447946334,s,1,0.6192935094004497,2835.6223194712074,2836.6474006759236,,,,,,,,,,,,,,,,,,,,,,,,,,,,,,,,,,,,,,,568,2010-12-29_14h26.09.664,eb_02psyexp,2022.2.4,119.99547254612528,
228,0,228,0,,,,,,,,,,,,,,,,,,,,,,,,,,,,,,,,,,,,,,,,,,,,,,,,,,,,,,,,,,,2836.6474006759236,2836.6474006759236,2836.6474006759236,2836.6474006759236,2836.6474006759236,2836.6474006759236,l,1,0.8409258523024619,2837.4974555671215,2838.5309003932634,,,,,,,,,,,,,,,,,,,,,,,,,,,,,,,,,,,,,,,568,2010-12-29_14h26.09.664,eb_02psyexp,2022.2.4,119.99547254612528,
229,0,229,0,,,,,,,,,,,,,,,,,,,,,,,,,,,,,,,,,,,,,,,,,,,,,,,,,,,,,,,,,,,2838.5309003932634,2838.5309003932634,2838.5309003932634,2838.5309003932634,2838.5309003932634,2838.5309003932634,l,1,0.5574420122429729,2839.097578902496,2840.131000486319,,,,,,,,,,,,,,,,,,,,,,,,,,,,,,,,,,,,,,,568,2010-12-29_14h26.09.664,eb_02psyexp,2022.2.4,119.99547254612528,
230,0,230,0,,,,,,,,,,,,,,,,,,,,,,,,,,,,,,,,,,,,,,,,,,,,,,,,,,,,,,,,,,,2840.131000486319,2840.131000486319,2840.131000486319,2840.131000486319,2840.131000486319,2840.131000486319,s,1,0.5173628554912284,2840.6643823770573,2841.6977939998033,,,,,,,,,,,,,,,,,,,,,,,,,,,,,,,,,,,,,,,568,2010-12-29_14h26.09.664,eb_02psyexp,2022.2.4,119.99547254612528,
231,0,231,0,,,,,,,,,,,,,,,,,,,,,,,,,,,,,,,,,,,,,,,,,,,,,,,,,,,,,,,,,,,2841.6977939998033,2841.6977939998033,2841.6977939998033,2841.6977939998033,2841.6977939998033,2841.6977939998033,l,1,0.9586341332178563,2842.672859795275,2843.706294962205,,,,,,,,,,,,,,,,,,,,,,,,,,,,,,,,,,,,,,,568,2010-12-29_14h26.09.664,eb_02psyexp,2022.2.4,119.99547254612528,
232,0,232,0,,,,,,,,,,,,,,,,,,,,,,,,,,,,,,,,,,,,,,,,,,,,,,,,,,,,,,,,,,,2843.706294962205,2843.706294962205,2843.706294962205,2843.706294962205,2843.706294962205,2843.706294962205,s,1,0.6141177112003788,2844.331331070862,2845.3480830651242,,,,,,,,,,,,,,,,,,,,,,,,,,,,,,,,,,,,,,,568,2010-12-29_14h26.09.664,eb_02psyexp,2022.2.4,119.99547254612528,
233,0,233,0,,,,,,,,,,,,,,,,,,,,,,,,,,,,,,,,,,,,,,,,,,,,,,,,,,,,,,,,,,,2845.3480830651242,2845.3480830651242,2845.3480830651242,2845.3480830651242,2845.3480830651242,2845.3480830651242,l,1,0.6523549878038466,2846.0148192575434,2847.1149007868953,,,,,,,,,,,,,,,,,,,,,,,,,,,,,,,,,,,,,,,568,2010-12-29_14h26.09.664,eb_02psyexp,2022.2.4,119.99547254612528,
234,0,234,0,,,,,,,,,,,,,,,,,,,,,,,,,,,,,,,,,,,,,,,,,,,,,,,,,,,,,,,,,,,2847.1149007868953,2847.1149007868953,2847.1149007868953,2847.1149007868953,2847.1149007868953,2847.1149007868953,s,1,0.7246652374742553,2847.848321978352,2848.881735412171,,,,,,,,,,,,,,,,,,,,,,,,,,,,,,,,,,,,,,,568,2010-12-29_14h26.09.664,eb_02psyexp,2022.2.4,119.99547254612528,
235,0,235,0,,,,,,,,,,,,,,,,,,,,,,,,,,,,,,,,,,,,,,,,,,,,,,,,,,,,,,,,,,,2848.881735412171,2848.881735412171,2848.881735412171,2848.881735412171,2848.881735412171,2848.881735412171,l,1,0.7417706964770332,2849.6317766900174,2850.6568584984634,,,,,,,,,,,,,,,,,,,,,,,,,,,,,,,,,,,,,,,568,2010-12-29_14h26.09.664,eb_02psyexp,2022.2.4,119.99547254612528,
236,0,236,0,,,,,,,,,,,,,,,,,,,,,,,,,,,,,,,,,,,,,,,,,,,,,,,,,,,,,,,,,,,2850.6568584984634,2850.6568584984634,2850.6568584984634,2850.6568584984634,2850.6568584984634,2850.6568584984634,l,1,0.5666330006206408,2851.2318982142024,2852.265346964472,,,,,,,,,,,,,,,,,,,,,,,,,,,,,,,,,,,,,,,568,2010-12-29_14h26.09.664,eb_02psyexp,2022.2.4,119.99547254612528,
237,0,237,0,,,,,,,,,,,,,,,,,,,,,,,,,,,,,,,,,,,,,,,,,,,,,,,,,,,,,,,,,,,2852.265346964472,2852.265346964472,2852.265346964472,2852.265346964472,2852.265346964472,2852.265346964472,s,1,0.49423974251840264,2852.7737152643967,2853.798784697079,,,,,,,,,,,,,,,,,,,,,,,,,,,,,,,,,,,,,,,568,2010-12-29_14h26.09.664,eb_02psyexp,2022.2.4,119.99547254612528,
238,0,238,0,,,,,,,,,,,,,,,,,,,,,,,,,,,,,,,,,,,,,,,,,,,,,,,,,,,,,,,,,,,2853.798784697079,2853.798784697079,2853.798784697079,2853.798784697079,2853.798784697079,2853.798784697079,s,1,0.5127826046664268,2854.3238159460016,2855.3572680165526,,,,,,,,,,,,,,,,,,,,,,,,,,,,,,,,,,,,,,,568,2010-12-29_14h26.09.664,eb_02psyexp,2022.2.4,119.99547254612528,
239,0,239,0,,,,,,,,,,,,,,,,,,,,,,,,,,,,,,,,,,,,,,,,,,,,,,,,,,,,,,,,,,,2855.3572680165526,2855.3572680165526,2855.3572680165526,2855.3572680165526,2855.3572680165526,2855.3572680165526,l,1,0.5463457554578781,2855.9156342186034,2856.932343048509,,,,,,,,,,,,,,,,,,,,,,,,,,,,,,,,,,,,,,,568,2010-12-29_14h26.09.664,eb_02psyexp,2022.2.4,119.99547254612528,
240,0,240,0,,,,,,,,,,,,,,,,,,,,,,,,,,,,,,,,,,,,,,,,,,,,,,,,,,,,,,,,,,,2856.932343048509,2856.932343048509,2856.932343048509,2856.932343048509,2856.932343048509,2856.932343048509,l,1,0.5232857288792729,2857.465756633319,2858.4991691616597,,,,,,,,,,,,,,,,,,,,,,,,,,,,,,,,,,,,,,,568,2010-12-29_14h26.09.664,eb_02psyexp,2022.2.4,119.99547254612528,
241,0,241,0,,,,,,,,,,,,,,,,,,,,,,,,,,,,,,,,,,,,,,,,,,,,,,,,,,,,,,,,,,,2858.4991691616597,2858.4991691616597,2858.4991691616597,2858.4991691616597,2858.4991691616597,2858.4991691616597,l,1,0.7245085779577494,2859.232548396103,2860.257652843371,,,,,,,,,,,,,,,,,,,,,,,,,,,,,,,,,,,,,,,568,2010-12-29_14h26.09.664,eb_02psyexp,2022.2.4,119.99547254612528,
242,0,242,0,,,,,,,,,,,,,,,,,,,,,,,,,,,,,,,,,,,,,,,,,,,,,,,,,,,,,,,,,,,2860.257652843371,2860.257652843371,2860.257652843371,2860.257652843371,2860.257652843371,2860.257652843371,l,1,0.6140295714139938,2860.8827315126546,2861.9161165726837,,,,,,,,,,,,,,,,,,,,,,,,,,,,,,,,,,,,,,,568,2010-12-29_14h26.09.664,eb_02psyexp,2022.2.4,119.99547254612528,
243,0,243,0,,,,,,,,,,,,,,,,,,,,,,,,,,,,,,,,,,,,,,,,,,,,,,,,,,,,,,,,,,,2861.9161165726837,2861.9161165726837,2861.9161165726837,2861.9161165726837,2861.9161165726837,2861.9161165726837,s,1,0.5236087068915367,2862.449491520878,2863.474565481418,,,,,,,,,,,,,,,,,,,,,,,,,,,,,,,,,,,,,,,568,2010-12-29_14h26.09.664,eb_02psyexp,2022.2.4,119.99547254612528,
244,0,244,0,,,,,,,,,,,,,,,,,,,,,,,,,,,,,,,,,,,,,,,,,,,,,,,,,,,,,,,,,,,2863.474565481418,2863.474565481418,2863.474565481418,2863.474565481418,2863.474565481418,2863.474565481418,l,1,0.8361946771619841,2864.3246342575876,2865.3580908558797,,,,,,,,,,,,,,,,,,,,,,,,,,,,,,,,,,,,,,,568,2010-12-29_14h26.09.664,eb_02psyexp,2022.2.4,119.99547254612528,
245,0,245,0,,,,,,,,,,,,,,,,,,,,,,,,,,,,,,,,,,,,,,,,,,,,,,,,,,,,,,,,,,,2865.3580908558797,2865.3580908558797,2865.3580908558797,2865.3580908558797,2865.3580908558797,2865.3580908558797,s,1,1.080703824525699,2866.449865209521,2867.4749210590962,,,,,,,,,,,,,,,,,,,,,,,,,,,,,,,,,,,,,,,568,2010-12-29_14h26.09.664,eb_02psyexp,2022.2.4,119.99547254612528,
246,0,246,0,,,,,,,,,,,,,,,,,,,,,,,,,,,,,,,,,,,,,,,,,,,,,,,,,,,,,,,,,,,2867.4749210590962,2867.4749210590962,2867.4749210590962,2867.4749210590962,2867.4749210590962,2867.4749210590962,s,1,0.6439125839387998,2868.133290913538,2869.1667085733498,,,,,,,,,,,,,,,,,,,,,,,,,,,,,,,,,,,,,,,568,2010-12-29_14h26.09.664,eb_02psyexp,2022.2.4,119.99547254612528,
247,0,247,0,,,,,,,,,,,,,,,,,,,,,,,,,,,,,,,,,,,,,,,,,,,,,,,,,,,,,,,,,,,2869.1667085733498,2869.1667085733498,2869.1667085733498,2869.1667085733498,2869.1667085733498,2869.1667085733498,s,1,1.0481536777224392,2870.225122014759,2871.2502460820833,,,,,,,,,,,,,,,,,,,,,,,,,,,,,,,,,,,,,,,568,2010-12-29_14h26.09.664,eb_02psyexp,2022.2.4,119.99547254612528,
248,0,248,0,,,,,,,,,,,,,,,,,,,,,,,,,,,,,,,,,,,,,,,,,,,,,,,,,,,,,,,,,,,2871.2502460820833,2871.2502460820833,2871.2502460820833,2871.2502460820833,2871.2502460820833,2871.2502460820833,s,1,0.6526293682400137,2871.9169412232004,2872.9503785030684,,,,,,,,,,,,,,,,,,,,,,,,,,,,,,,,,,,,,,,568,2010-12-29_14h26.09.664,eb_02psyexp,2022.2.4,119.99547254612528,
249,0,249,0,,,,,,,,,,,,,,,,,,,,,,,,,,,,,,,,,,,,,,,,,,,,,,,,,,,,,,,,,,,2872.9503785030684,2872.9503785030684,2872.9503785030684,2872.9503785030684,2872.9503785030684,2872.9503785030684,l,1,2.5206053133588284,2875.483895621961,2876.5090018801857,,,,,,,,,,,,,,,,,,,,,,,,,,,,,,,,,,,,,,,568,2010-12-29_14h26.09.664,eb_02psyexp,2022.2.4,119.99547254612528,
250,0,250,0,,,,,,,,,,,,,,,,,,,,,,,,,,,,,,,,,,,,,,,,,,,,,,,,,,,,,,,,,,,2876.5090018801857,2876.5090018801857,2876.5090018801857,2876.5090018801857,2876.5090018801857,2876.5090018801857,s,1,0.6579509591683745,2877.175723885768,2878.209150902927,,,,,,,,,,,,,,,,,,,,,,,,,,,,,,,,,,,,,,,568,2010-12-29_14h26.09.664,eb_02psyexp,2022.2.4,119.99547254612528,
251,0,251,0,,,,,,,,,,,,,,,,,,,,,,,,,,,,,,,,,,,,,,,,,,,,,,,,,,,,,,,,,,,2878.209150902927,2878.209150902927,2878.209150902927,2878.209150902927,2878.209150902927,2878.209150902927,s,1,1.0698680630885065,2879.2925592204556,2880.3176467641024,,,,,,,,,,,,,,,,,,,,,,,,,,,,,,,,,,,,,,,568,2010-12-29_14h26.09.664,eb_02psyexp,2022.2.4,119.99547254612528,
252,0,252,0,,,,,,,,,,,,,,,,,,,,,,,,,,,,,,,,,,,,,,,,,,,,,,,,,,,,,,,,,,,2880.3176467641024,2880.3176467641024,2880.3176467641024,2880.3176467641024,2880.3176467641024,2880.3176467641024,s,1,0.624440330080688,2880.951038042316,2881.9844255172648,,,,,,,,,,,,,,,,,,,,,,,,,,,,,,,,,,,,,,,568,2010-12-29_14h26.09.664,eb_02psyexp,2022.2.4,119.99547254612528,
253,0,253,0,,,,,,,,,,,,,,,,,,,,,,,,,,,,,,,,,,,,,,,,,,,,,,,,,,,,,,,,,,,2881.9844255172648,2881.9844255172648,2881.9844255172648,2881.9844255172648,2881.9844255172648,2881.9844255172648,l,1,0.5656577276531607,2882.5594745902345,2883.584556398797,,,,,,,,,,,,,,,,,,,,,,,,,,,,,,,,,,,,,,,568,2010-12-29_14h26.09.664,eb_02psyexp,2022.2.4,119.99547254612528,
254,0,254,0,,,,,,,,,,,,,,,,,,,,,,,,,,,,,,,,,,,,,,,,,,,,,,,,,,,,,,,,,,,2883.584556398797,2883.584556398797,2883.584556398797,2883.584556398797,2883.584556398797,2883.584556398797,l,1,0.5175964862573892,2884.1179328561993,2885.151376173133,,,,,,,,,,,,,,,,,,,,,,,,,,,,,,,,,,,,,,,568,2010-12-29_14h26.09.664,eb_02psyexp,2022.2.4,119.99547254612528,
255,0,255,0,,,,,,,,,,,,,,,,,,,,,,,,,,,,,,,,,,,,,,,,,,,,,,,,,,,,,,,,,,,2885.151376173133,2885.151376173133,2885.151376173133,2885.151376173133,2885.151376173133,2885.151376173133,s,1,0.6707846565404907,2885.834739696351,2886.8598224103916,,,,,,,,,,,,,,,,,,,,,,,,,,,,,,,,,,,,,,,568,2010-12-29_14h26.09.664,eb_02psyexp,2022.2.4,119.99547254612528,
256,0,256,0,,,,,,,,,,,,,,,,,,,,,,,,,,,,,,,,,,,,,,,,,,,,,,,,,,,,,,,,,,,2886.8598224103916,2886.8598224103916,2886.8598224103916,2886.8598224103916,2886.8598224103916,2886.8598224103916,s,1,0.5383374099619687,2887.4098500446416,2888.4432758543408,,,,,,,,,,,,,,,,,,,,,,,,,,,,,,,,,,,,,,,568,2010-12-29_14h26.09.664,eb_02psyexp,2022.2.4,119.99547254612528,
257,0,257,0,,,,,,,,,,,,,,,,,,,,,,,,,,,,,,,,,,,,,,,,,,,,,,,,,,,,,,,,,,,2888.4432758543408,2888.4432758543408,2888.4432758543408,2888.4432758543408,2888.4432758543408,2888.4432758543408,s,1,0.5309143488993868,2888.985026497743,2890.010067254887,,,,,,,,,,,,,,,,,,,,,,,,,,,,,,,,,,,,,,,568,2010-12-29_14h26.09.664,eb_02psyexp,2022.2.4,119.99547254612528,
258,0,258,0,,,,,,,,,,,,,,,,,,,,,,,,,,,,,,,,,,,,,,,,,,,,,,,,,,,,,,,,,,,2890.010067254887,2890.010067254887,2890.010067254887,2890.010067254887,2890.010067254887,2890.010067254887,s,1,0.612177126458846,2890.635166148073,2891.6518659224967,,,,,,,,,,,,,,,,,,,,,,,,,,,,,,,,,,,,,,,568,2010-12-29_14h26.09.664,eb_02psyexp,2022.2.4,119.99547254612528,
259,0,259,0,,,,,,,,,,,,,,,,,,,,,,,,,,,,,,,,,,,,,,,,,,,,,,,,,,,,,,,,,,,2891.6518659224967,2891.6518659224967,2891.6518659224967,2891.6518659224967,2891.6518659224967,2891.6518659224967,l,1,0.6664099646732211,2892.3269578882027,2893.35202762275,,,,,,,,,,,,,,,,,,,,,,,,,,,,,,,,,,,,,,,568,2010-12-29_14h26.09.664,eb_02psyexp,2022.2.4,119.99547254612528,
260,0,260,0,,,,,,,,,,,,,,,,,,,,,,,,,,,,,,,,,,,,,,,,,,,,,,,,,,,,,,,,,,,2893.35202762275,2893.35202762275,2893.35202762275,2893.35202762275,2893.35202762275,2893.35202762275,l,1,0.6302478972356766,2893.9937463004608,2895.0271518862573,,,,,,,,,,,,,,,,,,,,,,,,,,,,,,,,,,,,,,,568,2010-12-29_14h26.09.664,eb_02psyexp,2022.2.4,119.99547254612528,
261,0,261,0,,,,,,,,,,,,,,,,,,,,,,,,,,,,,,,,,,,,,,,,,,,,,,,,,,,,,,,,,,,2895.0271518862573,2895.0271518862573,2895.0271518862573,2895.0271518862573,2895.0271518862573,2895.0271518862573,s,1,0.6021602803375572,2895.6438735749107,2896.668960213079,,,,,,,,,,,,,,,,,,,,,,,,,,,,,,,,,,,,,,,568,2010-12-29_14h26.09.664,eb_02psyexp,2022.2.4,119.99547254612528,
262,0,262,0,,,,,,,,,,,,,,,,,,,,,,,,,,,,,,,,,,,,,,,,,,,,,,,,,,,,,,,,,,,2896.668960213079,2896.668960213079,2896.668960213079,2896.668960213079,2896.668960213079,2896.668960213079,l,1,0.6004442709963769,2897.285663187038,2898.3190811487148,,,,,,,,,,,,,,,,,,,,,,,,,,,,,,,,,,,,,,,568,2010-12-29_14h26.09.664,eb_02psyexp,2022.2.4,119.99547254612528,
263,0,263,0,,,,,,,,,,,,,,,,,,,,,,,,,,,,,,,,,,,,,,,,,,,,,,,,,,,,,,,,,,,2898.3190811487148,2898.3190811487148,2898.3190811487148,2898.3190811487148,2898.3190811487148,2898.3190811487148,s,1,0.7343156393617392,2899.0691538187675,2900.0942407586845,,,,,,,,,,,,,,,,,,,,,,,,,,,,,,,,,,,,,,,568,2010-12-29_14h26.09.664,eb_02psyexp,2022.2.4,119.99547254612528,
264,0,264,0,,,,,,,,,,,,,,,,,,,,,,,,,,,,,,,,,,,,,,,,,,,,,,,,,,,,,,,,,,,2900.0942407586845,2900.0942407586845,2900.0942407586845,2900.0942407586845,2900.0942407586845,2900.0942407586845,s,1,0.7191830630181357,2900.8276326707564,2901.8610515379114,,,,,,,,,,,,,,,,,,,,,,,,,,,,,,,,,,,,,,,568,2010-12-29_14h26.09.664,eb_02psyexp,2022.2.4,119.99547254612528,
265,0,265,0,,,,,,,,,,,,,,,,,,,,,,,,,,,,,,,,,,,,,,,,,,,,,,,,,,,,,,,,,,,2901.8610515379114,2901.8610515379114,2901.8610515379114,2901.8610515379114,2901.8610515379114,2901.8610515379114,s,1,0.5683852317743003,2902.4444271048997,2903.4695707923966,,,,,,,,,,,,,,,,,,,,,,,,,,,,,,,,,,,,,,,568,2010-12-29_14h26.09.664,eb_02psyexp,2022.2.4,119.99547254612528,
266,0,266,0,,,,,,,,,,,,,,,,,,,,,,,,,,,,,,,,,,,,,,,,,,,,,,,,,,,,,,,,,,,2903.4695707923966,2903.4695707923966,2903.4695707923966,2903.4695707923966,2903.4695707923966,2903.4695707923966,l,1,0.4639000330353156,2903.9445537304273,2904.9612692010123,,,,,,,,,,,,,,,,,,,,,,,,,,,,,,,,,,,,,,,568,2010-12-29_14h26.09.664,eb_02psyexp,2022.2.4,119.99547254612528,
267,0,267,0,,,,,,,,,,,,,,,,,,,,,,,,,,,,,,,,,,,,,,,,,,,,,,,,,,,,,,,,,,,2904.9612692010123,2904.9612692010123,2904.9612692010123,2904.9612692010123,2904.9612692010123,2904.9612692010123,l,1,0.5801995864603668,2905.5530216706684,2906.578099555103,,,,,,,,,,,,,,,,,,,,,,,,,,,,,,,,,,,,,,,568,2010-12-29_14h26.09.664,eb_02psyexp,2022.2.4,119.99547254612528,
268,0,268,0,,,,,,,,,,,,,,,,,,,,,,,,,,,,,,,,,,,,,,,,,,,,,,,,,,,,,,,,,,,2906.578099555103,2906.578099555103,2906.578099555103,2906.578099555103,2906.578099555103,2906.578099555103,l,1,0.6033734099473804,2907.1948028310435,2908.2199063726002,,,,,,,,,,,,,,,,,,,,,,,,,,,,,,,,,,,,,,,568,2010-12-29_14h26.09.664,eb_02psyexp,2022.2.4,119.99547254612528,
269,0,269,0,,,,,,,,,,,,,,,,,,,,,,,,,,,,,,,,,,,,,,,,,,,,,,,,,,,,,,,,,,,2908.2199063726002,2908.2199063726002,2908.2199063726002,2908.2199063726002,2908.2199063726002,2908.2199063726002,l,1,0.5936843713279814,2908.82826926955,2909.861704134615,,,,,,,,,,,,,,,,,,,,,,,,,,,,,,,,,,,,,,,568,2010-12-29_14h26.09.664,eb_02psyexp,2022.2.4,119.99547254612528,
270,0,270,0,,,,,,,,,,,,,,,,,,,,,,,,,,,,,,,,,,,,,,,,,,,,,,,,,,,,,,,,,,,2909.861704134615,2909.861704134615,2909.861704134615,2909.861704134615,2909.861704134615,2909.861704134615,l,1,0.4309221667936072,2910.3033907560166,2911.328523576958,,,,,,,,,,,,,,,,,,,,,,,,,,,,,,,,,,,,,,,568,2010-12-29_14h26.09.664,eb_02psyexp,2022.2.4,119.99547254612528,
271,0,271,0,,,,,,,,,,,,,,,,,,,,,,,,,,,,,,,,,,,,,,,,,,,,,,,,,,,,,,,,,,,2911.328523576958,2911.328523576958,2911.328523576958,2911.328523576958,2911.328523576958,2911.328523576958,l,1,0.4920718658249825,2911.8368906695396,2912.853585312492,,,,,,,,,,,,,,,,,,,,,,,,,,,,,,,,,,,,,,,568,2010-12-29_14h26.09.664,eb_02psyexp,2022.2.4,119.99547254612528,
272,0,272,0,,,,,,,,,,,,,,,,,,,,,,,,,,,,,,,,,,,,,,,,,,,,,,,,,,,,,,,,,,,2912.853585312492,2912.853585312492,2912.853585312492,2912.853585312492,2912.853585312492,2912.853585312492,l,1,0.5590357729233801,2913.4286935479613,2914.4537273624446,,,,,,,,,,,,,,,,,,,,,,,,,,,,,,,,,,,,,,,568,2010-12-29_14h26.09.664,eb_02psyexp,2022.2.4,119.99547254612528,
