trials.thisRepN,trials.thisTrialN,trials.thisN,trials.thisIndex,image_loop.thisRepN,image_loop.thisTrialN,image_loop.thisN,image_loop.thisIndex,break_loop.thisRepN,break_loop.thisTrialN,break_loop.thisN,break_loop.thisIndex,test_trials.thisRepN,test_trials.thisTrialN,test_trials.thisN,test_trials.thisIndex,distance matrix,tools,welcome_text.started,instructions_0_keypress.started,instructions_0_keypress.keys,instructions_0_keypress.rt,consent_image_0.started,consent0_key_resp.started,consent0_text.started,consent0_key_resp.keys,consent0_key_resp.rt,consent_image_1.started,consent1_key_resp.started,consent1_text.started,consent1_key_resp.keys,consent1_key_resp.rt,consent2_text.started,consent_image_2.started,consent2_key_resp.started,consent2_key_resp.keys,consent2_key_resp.rt,agree_button.started,disagree_button.started,consent_image_3.started,agree_button.numClicks,agree_button.timesOn,agree_button.timesOff,disagree_button.numClicks,disagree_button.timesOn,disagree_button.timesOff,instructions_text1.started,instructions1_key_resp.started,instr1_cnt_text.started,instructions1_key_resp.keys,instructions1_key_resp.rt,instructions_text2.started,instr2_cnt_text.started,instructions2_key_resp.started,instructions2_key_resp.keys,instructions2_key_resp.rt,instructions_text3.started,instructions3_key_resp.started,instr3_cnt_text.started,instructions3_key_resp.keys,instructions3_key_resp.rt,text_countdown.started,image.started,small_large_keyresp.started,task_question_text.started,smalleroption_text.started,largeroption_text.started,accuracy_score_text.started,small_large_keyresp.keys,small_large_keyresp.corr,small_large_keyresp.rt,fb_2.started,fb_2.stopped,break_text.started,break_key_resp.started,break_key_resp.keys,break_key_resp.rt,reveal_seq_text.started,start_test_text.started,continue_to_test.started,continue_to_test.keys,continue_to_test.rt,test_structure_info.started,start_test_text_2.started,continue_to_test_2.started,continue_to_test_2.keys,continue_to_test_2.rt,test_cntdown_text.started,test_cntdown_text.stopped,parent index,left child index,right child index,left distance,right distance,parent_image.started,top_image_text.started,left_child_image.started,right_child_image.started,path_resp.started,child_choice_text.started,left_choice_text.started,right_choice_text.started,path_resp.keys,path_resp.rt,graph.started,debrief_text.started,debriefing_title.started,demo_scr_adv.started,demo_scr_adv_keypress.started,demo_scr_adv_keypress.keys,demo_scr_adv_keypress.rt,text_countdown_2.started,text_countdown_2.stopped,participant,date,expName,psychopyVersion,frameRate,
,,,,,,,,,,,,,,,,"[[0. 1. 1. 2. 2. 3. 4. 5. 5. 6. 6. 7.]
 [1. 0. 2. 1. 1. 2. 3. 4. 4. 5. 5. 6.]
 [1. 2. 0. 1. 1. 2. 3. 4. 4. 5. 5. 6.]
 [2. 1. 1. 0. 1. 1. 2. 3. 3. 4. 4. 5.]
 [2. 1. 1. 1. 0. 1. 2. 3. 3. 4. 4. 5.]
 [3. 2. 2. 1. 1. 0. 1. 2. 2. 3. 3. 4.]
 [4. 3. 3. 2. 2. 1. 0. 1. 1. 2. 2. 3.]
 [5. 4. 4. 3. 3. 2. 1. 0. 1. 1. 1. 2.]
 [5. 4. 4. 3. 3. 2. 1. 1. 0. 1. 1. 2.]
 [6. 5. 5. 4. 4. 3. 2. 1. 1. 0. 2. 1.]
 [6. 5. 5. 4. 4. 3. 2. 1. 1. 2. 0. 1.]
 [7. 6. 6. 5. 5. 4. 3. 2. 2. 1. 1. 0.]]",[ 6  2  7  1  0 11  8  5  9  4  3 10],11.089985143189551,11.089985143189551,return,964.6174420373281,,,,,,,,,,,,,,,,,,,,,,,,,,,,,,,,,,,,,,,,,,,,,,,,,,,,,,,,,,,,,,,,,,,,,,,,,,,,,,,,,,,,,,,,,,,,569,2023-05-16_16h49.14.391,eb_02psyexp,2022.2.4,60.00735385067755,
,,,,,,,,,,,,,,,,,,,,,,975.7389858247625,975.7389858247625,975.7389858247625,space,1.3284045668988256,,,,,,,,,,,,,,,,,,,,,,,,,,,,,,,,,,,,,,,,,,,,,,,,,,,,,,,,,,,,,,,,,,,,,,,,,,,,,,,,,,,,,,,569,2023-05-16_16h49.14.391,eb_02psyexp,2022.2.4,60.00735385067755,
,,,,,,,,,,,,,,,,,,,,,,,,,,,977.088883710574,977.088883710574,977.088883710574,space,1.0745054833532777,,,,,,,,,,,,,,,,,,,,,,,,,,,,,,,,,,,,,,,,,,,,,,,,,,,,,,,,,,,,,,,,,,,,,,,,,,,,,,,,,,569,2023-05-16_16h49.14.391,eb_02psyexp,2022.2.4,60.00735385067755,
,,,,,,,,,,,,,,,,,,,,,,,,,,,,,,,,978.1888155539637,978.1888155539637,978.1888155539637,space,0.5025785226171138,,,,,,,,,,,,,,,,,,,,,,,,,,,,,,,,,,,,,,,,,,,,,,,,,,,,,,,,,,,,,,,,,,,,,,,,,,,,,569,2023-05-16_16h49.14.391,eb_02psyexp,2022.2.4,60.00735385067755,
,,,,,,,,,,,,,,,,,,,,,,,,,,,,,,,,,,,,,978.7221075546404,978.7221075546404,978.7221075546404,1,[6.349029779434204],[6.349034608952934],0,,,985.0713377591892,987.0545642293146,987.0545642293146,space,1.5238875763316173,,,,,,,,,,,,,,,,,,,,,,,,,,,,,,,,,,,,,,,,,,,,,,,,,,,,,,,,,,,,,,,569,2023-05-16_16h49.14.391,eb_02psyexp,2022.2.4,60.00735385067755,
,,,,,,,,,,,,,,,,,,,,,,,,,,,,,,,,,,,,,,,,,,,,,,,,,,,988.6047477812972,991.5878836978954,991.5878836978954,space,10.757648161292309,,,,,,,,,,,,,,,,,,,,,,,,,,,,,,,,,,,,,,,,,,,,,,,,,,,,,,,,,,569,2023-05-16_16h49.14.391,eb_02psyexp,2022.2.4,60.00735385067755,
,,,,,,,,,,,,,,,,,,,,,,,,,,,,,,,,,,,,,,,,,,,,,,,,,,,,,,,,1002.370455647193,1005.3535773770855,1005.3535773770855,space,7.175045242693159,,,,,,,,,,,,,,,,,,,,,,,,,,,,,,,,,,,,,,,,,,,,,,,,,,,,,569,2023-05-16_16h49.14.391,eb_02psyexp,2022.2.4,60.00735385067755,
0,0,0,0,,,,,,,,,,,,,,,,,,,,,,,,,,,,,,,,,,,,,,,,,,,,,,,,,,,,,,,,,,1012.569739187762,1017.6027296452376,1017.6027296452376,1017.6027296452376,1017.6027296452376,1017.6027296452376,1017.6027296452376,s,1,1.1018958094646223,1018.7359634501918,1019.7525951128919,,,,,,,,,,,,,,,,,,,,,,,,,,,,,,,,,,,,,,,,,569,2023-05-16_16h49.14.391,eb_02psyexp,2022.2.4,60.00735385067755,
1,0,1,0,,,,,,,,,,,,,,,,,,,,,,,,,,,,,,,,,,,,,,,,,,,,,,,,,,,,,,,,,,,1019.7525951128919,1019.7525951128919,1019.7525951128919,1019.7525951128919,1019.7525951128919,1019.7525951128919,l,1,0.7680222740891622,1020.5525116829231,1021.5691321773484,,,,,,,,,,,,,,,,,,,,,,,,,,,,,,,,,,,,,,,,,569,2023-05-16_16h49.14.391,eb_02psyexp,2022.2.4,60.00735385067755,
2,0,2,0,,,,,,,,,,,,,,,,,,,,,,,,,,,,,,,,,,,,,,,,,,,,,,,,,,,,,,,,,,,1021.5691321773484,1021.5691321773484,1021.5691321773484,1021.5691321773484,1021.5691321773484,1021.5691321773484,l,1,0.7435103424650151,1022.3357181105239,1023.3523232108564,,,,,,,,,,,,,,,,,,,,,,,,,,,,,,,,,,,,,,,,,569,2023-05-16_16h49.14.391,eb_02psyexp,2022.2.4,60.00735385067755,
3,0,3,0,,,,,,,,,,,,,,,,,,,,,,,,,,,,,,,,,,,,,,,,,,,,,,,,,,,,,,,,,,,1023.3523232108564,1023.3523232108564,1023.3523232108564,1023.3523232108564,1023.3523232108564,1023.3523232108564,l,1,0.5843305399903329,1023.968942558291,1024.9855473567732,,,,,,,,,,,,,,,,,,,,,,,,,,,,,,,,,,,,,,,,,569,2023-05-16_16h49.14.391,eb_02psyexp,2022.2.4,60.00735385067755,
4,0,4,0,,,,,,,,,,,,,,,,,,,,,,,,,,,,,,,,,,,,,,,,,,,,,,,,,,,,,,,,,,,1024.9855473567732,1024.9855473567732,1024.9855473567732,1024.9855473567732,1024.9855473567732,1024.9855473567732,s,1,1.0471160627785139,1026.0521325655282,1027.0687340437144,,,,,,,,,,,,,,,,,,,,,,,,,,,,,,,,,,,,,,,,,569,2023-05-16_16h49.14.391,eb_02psyexp,2022.2.4,60.00735385067755,
5,0,5,0,,,,,,,,,,,,,,,,,,,,,,,,,,,,,,,,,,,,,,,,,,,,,,,,,,,,,,,,,,,1027.0687340437144,1027.0687340437144,1027.0687340437144,1027.0687340437144,1027.0687340437144,1027.0687340437144,s,1,0.6439165655319812,1027.7353325940203,1028.751911735686,,,,,,,,,,,,,,,,,,,,,,,,,,,,,,,,,,,,,,,,,569,2023-05-16_16h49.14.391,eb_02psyexp,2022.2.4,60.00735385067755,
6,0,6,0,,,,,,,,,,,,,,,,,,,,,,,,,,,,,,,,,,,,,,,,,,,,,,,,,,,,,,,,,,,1028.751911735686,1028.751911735686,1028.751911735686,1028.751911735686,1028.751911735686,1028.751911735686,l,1,0.6157972836226691,1029.3852297554113,1030.418478894091,,,,,,,,,,,,,,,,,,,,,,,,,,,,,,,,,,,,,,,,,569,2023-05-16_16h49.14.391,eb_02psyexp,2022.2.4,60.00735385067755,
7,0,7,0,,,,,,,,,,,,,,,,,,,,,,,,,,,,,,,,,,,,,,,,,,,,,,,,,,,,,,,,,,,1030.418478894091,1030.418478894091,1030.418478894091,1030.418478894091,1030.418478894091,1030.418478894091,s,1,0.5732153975841356,1031.0184372998483,1032.0350487389223,,,,,,,,,,,,,,,,,,,,,,,,,,,,,,,,,,,,,,,,,569,2023-05-16_16h49.14.391,eb_02psyexp,2022.2.4,60.00735385067755,
8,0,8,0,,,,,,,,,,,,,,,,,,,,,,,,,,,,,,,,,,,,,,,,,,,,,,,,,,,,,,,,,,,1032.0350487389223,1032.0350487389223,1032.0350487389223,1032.0350487389223,1032.0350487389223,1032.0350487389223,s,1,0.49267619363672566,1032.551690966211,1033.568283389046,,,,,,,,,,,,,,,,,,,,,,,,,,,,,,,,,,,,,,,,,569,2023-05-16_16h49.14.391,eb_02psyexp,2022.2.4,60.00735385067755,
9,0,9,0,,,,,,,,,,,,,,,,,,,,,,,,,,,,,,,,,,,,,,,,,,,,,,,,,,,,,,,,,,,1033.568283389046,1033.568283389046,1033.568283389046,1033.568283389046,1033.568283389046,1033.568283389046,l,1,0.5274236911936896,1034.1182348221773,1035.1348372059147,,,,,,,,,,,,,,,,,,,,,,,,,,,,,,,,,,,,,,,,,569,2023-05-16_16h49.14.391,eb_02psyexp,2022.2.4,60.00735385067755,
10,0,10,0,,,,,,,,,,,,,,,,,,,,,,,,,,,,,,,,,,,,,,,,,,,,,,,,,,,,,,,,,,,1035.1348372059147,1035.1348372059147,1035.1348372059147,1035.1348372059147,1035.1348372059147,1035.1348372059147,l,1,0.8008859566325555,1035.968106749322,1036.9847212068562,,,,,,,,,,,,,,,,,,,,,,,,,,,,,,,,,,,,,,,,,569,2023-05-16_16h49.14.391,eb_02psyexp,2022.2.4,60.00735385067755,
11,0,11,0,,,,,,,,,,,,,,,,,,,,,,,,,,,,,,,,,,,,,,,,,,,,,,,,,,,,,,,,,,,1036.9847212068562,1036.9847212068562,1036.9847212068562,1036.9847212068562,1036.9847212068562,1036.9847212068562,s,1,0.8310070749867009,1037.834635392297,1038.8679101878224,,,,,,,,,,,,,,,,,,,,,,,,,,,,,,,,,,,,,,,,,569,2023-05-16_16h49.14.391,eb_02psyexp,2022.2.4,60.00735385067755,
12,0,12,0,,,,,,,,,,,,,,,,,,,,,,,,,,,,,,,,,,,,,,,,,,,,,,,,,,,,,,,,,,,1038.8679101878224,1038.8679101878224,1038.8679101878224,1038.8679101878224,1038.8679101878224,1038.8679101878224,s,1,0.5078122140694177,1039.4012118475366,1040.4177623139258,,,,,,,,,,,,,,,,,,,,,,,,,,,,,,,,,,,,,,,,,569,2023-05-16_16h49.14.391,eb_02psyexp,2022.2.4,60.00735385067755,
13,0,13,0,,,,,,,,,,,,,,,,,,,,,,,,,,,,,,,,,,,,,,,,,,,,,,,,,,,,,,,,,,,1040.4177623139258,1040.4177623139258,1040.4177623139258,1040.4177623139258,1040.4177623139258,1040.4177623139258,s,1,0.5739863098424394,1041.0177252473513,1042.0510181535647,,,,,,,,,,,,,,,,,,,,,,,,,,,,,,,,,,,,,,,,,569,2023-05-16_16h49.14.391,eb_02psyexp,2022.2.4,60.00735385067755,
14,0,14,0,,,,,,,,,,,,,,,,,,,,,,,,,,,,,,,,,,,,,,,,,,,,,,,,,,,,,,,,,,,1042.0510181535647,1042.0510181535647,1042.0510181535647,1042.0510181535647,1042.0510181535647,1042.0510181535647,s,1,0.5407392840861576,1042.6176332449832,1043.6342543430947,,,,,,,,,,,,,,,,,,,,,,,,,,,,,,,,,,,,,,,,,569,2023-05-16_16h49.14.391,eb_02psyexp,2022.2.4,60.00735385067755,
15,0,15,0,,,,,,,,,,,,,,,,,,,,,,,,,,,,,,,,,,,,,,,,,,,,,,,,,,,,,,,,,,,1043.6342543430947,1043.6342543430947,1043.6342543430947,1043.6342543430947,1043.6342543430947,1043.6342543430947,l,1,0.46050947133335285,1044.117532126882,1045.1341402456746,,,,,,,,,,,,,,,,,,,,,,,,,,,,,,,,,,,,,,,,,569,2023-05-16_16h49.14.391,eb_02psyexp,2022.2.4,60.00735385067755,
16,0,16,0,,,,,,,,,,,,,,,,,,,,,,,,,,,,,,,,,,,,,,,,,,,,,,,,,,,,,,,,,,,1045.1341402456746,1045.1341402456746,1045.1341402456746,1045.1341402456746,1045.1341402456746,1045.1341402456746,s,1,0.4966315712808864,1045.650750175526,1046.6673688588926,,,,,,,,,,,,,,,,,,,,,,,,,,,,,,,,,,,,,,,,,569,2023-05-16_16h49.14.391,eb_02psyexp,2022.2.4,60.00735385067755,
17,0,17,0,,,,,,,,,,,,,,,,,,,,,,,,,,,,,,,,,,,,,,,,,,,,,,,,,,,,,,,,,,,1046.6673688588926,1046.6673688588926,1046.6673688588926,1046.6673688588926,1046.6673688588926,1046.6673688588926,l,1,0.5154184076964157,1047.200647880236,1048.2339199591515,,,,,,,,,,,,,,,,,,,,,,,,,,,,,,,,,,,,,,,,,569,2023-05-16_16h49.14.391,eb_02psyexp,2022.2.4,60.00735385067755,
18,0,18,0,,,,,,,,,,,,,,,,,,,,,,,,,,,,,,,,,,,,,,,,,,,,,,,,,,,,,,,,,,,1048.2339199591515,1048.2339199591515,1048.2339199591515,1048.2339199591515,1048.2339199591515,1048.2339199591515,s,1,0.5328780314011965,1048.783863544304,1049.8004930940951,,,,,,,,,,,,,,,,,,,,,,,,,,,,,,,,,,,,,,,,,569,2023-05-16_16h49.14.391,eb_02psyexp,2022.2.4,60.00735385067755,
19,0,19,0,,,,,,,,,,,,,,,,,,,,,,,,,,,,,,,,,,,,,,,,,,,,,,,,,,,,,,,,,,,1049.8004930940951,1049.8004930940951,1049.8004930940951,1049.8004930940951,1049.8004930940951,1049.8004930940951,s,1,0.6623046646272996,1050.483754397137,1051.5003555734875,,,,,,,,,,,,,,,,,,,,,,,,,,,,,,,,,,,,,,,,,569,2023-05-16_16h49.14.391,eb_02psyexp,2022.2.4,60.00735385067755,
20,0,20,0,,,,,,,,,,,,,,,,,,,,,,,,,,,,,,,,,,,,,,,,,,,,,,,,,,,,,,,,,,,1051.5003555734875,1051.5003555734875,1051.5003555734875,1051.5003555734875,1051.5003555734875,1051.5003555734875,s,1,0.41045178873173427,1051.9336472119467,1052.9503087573103,,,,,,,,,,,,,,,,,,,,,,,,,,,,,,,,,,,,,,,,,569,2023-05-16_16h49.14.391,eb_02psyexp,2022.2.4,60.00735385067755,
21,0,21,0,,,,,,,,,,,,,,,,,,,,,,,,,,,,,,,,,,,,,,,,,,,,,,,,,,,,,,,,,,,1052.9503087573103,1052.9503087573103,1052.9503087573103,1052.9503087573103,1052.9503087573103,1052.9503087573103,l,1,0.480510026725824,1053.4502266554628,1054.4834721719963,,,,,,,,,,,,,,,,,,,,,,,,,,,,,,,,,,,,,,,,,569,2023-05-16_16h49.14.391,eb_02psyexp,2022.2.4,60.00735385067755,
22,0,22,0,,,,,,,,,,,,,,,,,,,,,,,,,,,,,,,,,,,,,,,,,,,,,,,,,,,,,,,,,,,1054.4834721719963,1054.4834721719963,1054.4834721719963,1054.4834721719963,1054.4834721719963,1054.4834721719963,s,1,0.3713332728948444,1054.8834301551688,1055.9000572902005,,,,,,,,,,,,,,,,,,,,,,,,,,,,,,,,,,,,,,,,,569,2023-05-16_16h49.14.391,eb_02psyexp,2022.2.4,60.00735385067755,
23,0,23,0,,,,,,,,,,,,,,,,,,,,,,,,,,,,,,,,,,,,,,,,,,,,,,,,,,,,,,,,,,,1055.9000572902005,1055.9000572902005,1055.9000572902005,1055.9000572902005,1055.9000572902005,1055.9000572902005,l,0,0.4588079707318684,1056.3833405071928,1057.3999507388944,,,,,,,,,,,,,,,,,,,,,,,,,,,,,,,,,,,,,,,,,569,2023-05-16_16h49.14.391,eb_02psyexp,2022.2.4,60.00735385067755,
24,0,24,0,,,,,,,,,,,,,,,,,,,,,,,,,,,,,,,,,,,,,,,,,,,,,,,,,,,,,,,,,,,1057.3999507388944,1057.3999507388944,1057.3999507388944,1057.3999507388944,1057.3999507388944,1057.3999507388944,s,1,0.5828955686010886,1057.9998916376353,1059.0165015674866,,,,,,,,,,,,,,,,,,,,,,,,,,,,,,,,,,,,,,,,,569,2023-05-16_16h49.14.391,eb_02psyexp,2022.2.4,60.00735385067755,
25,0,25,0,,,,,,,,,,,,,,,,,,,,,,,,,,,,,,,,,,,,,,,,,,,,,,,,,,,,,,,,,,,1059.0165015674866,1059.0165015674866,1059.0165015674866,1059.0165015674866,1059.0165015674866,1059.0165015674866,l,1,0.44538461916090455,1059.4831190132827,1060.4997449409275,,,,,,,,,,,,,,,,,,,,,,,,,,,,,,,,,,,,,,,,,569,2023-05-16_16h49.14.391,eb_02psyexp,2022.2.4,60.00735385067755,
26,0,26,0,,,,,,,,,,,,,,,,,,,,,,,,,,,,,,,,,,,,,,,,,,,,,,,,,,,,,,,,,,,1060.4997449409275,1060.4997449409275,1060.4997449409275,1060.4997449409275,1060.4997449409275,1060.4997449409275,s,0,0.4821173516684212,1060.999678836859,1062.0163026515947,,,,,,,,,,,,,,,,,,,,,,,,,,,,,,,,,,,,,,,,,569,2023-05-16_16h49.14.391,eb_02psyexp,2022.2.4,60.00735385067755,
27,0,27,0,,,,,,,,,,,,,,,,,,,,,,,,,,,,,,,,,,,,,,,,,,,,,,,,,,,,,,,,,,,1062.0163026515947,1062.0163026515947,1062.0163026515947,1062.0163026515947,1062.0163026515947,1062.0163026515947,s,1,0.5175717703532428,1062.5662519718026,1063.582859486909,,,,,,,,,,,,,,,,,,,,,,,,,,,,,,,,,,,,,,,,,569,2023-05-16_16h49.14.391,eb_02psyexp,2022.2.4,60.00735385067755,
28,0,28,0,,,,,,,,,,,,,,,,,,,,,,,,,,,,,,,,,,,,,,,,,,,,,,,,,,,,,,,,,,,1063.582859486909,1063.582859486909,1063.582859486909,1063.582859486909,1063.582859486909,1063.582859486909,l,1,0.6390209405362839,1064.2494550187548,1065.2660658541427,,,,,,,,,,,,,,,,,,,,,,,,,,,,,,,,,,,,,,,,,569,2023-05-16_16h49.14.391,eb_02psyexp,2022.2.4,60.00735385067755,
29,0,29,0,,,,,,,,,,,,,,,,,,,,,,,,,,,,,,,,,,,,,,,,,,,,,,,,,,,,,,,,,,,1065.2660658541427,1065.2660658541427,1065.2660658541427,1065.2660658541427,1065.2660658541427,1065.2660658541427,l,1,1.3878245776577387,1066.6826111287955,1067.6992198512598,,,,,,,,,,,,,,,,,,,,,,,,,,,,,,,,,,,,,,,,,569,2023-05-16_16h49.14.391,eb_02psyexp,2022.2.4,60.00735385067755,
30,0,30,0,,,,,,,,,,,,,,,,,,,,,,,,,,,,,,,,,,,,,,,,,,,,,,,,,,,,,,,,,,,1067.6992198512598,1067.6992198512598,1067.6992198512598,1067.6992198512598,1067.6992198512598,1067.6992198512598,l,1,0.5226829127059318,1068.2491746046871,1069.2657742718147,,,,,,,,,,,,,,,,,,,,,,,,,,,,,,,,,,,,,,,,,569,2023-05-16_16h49.14.391,eb_02psyexp,2022.2.4,60.00735385067755,
31,0,31,0,,,,,,,,,,,,,,,,,,,,,,,,,,,,,,,,,,,,,,,,,,,,,,,,,,,,,,,,,,,1069.2657742718147,1069.2657742718147,1069.2657742718147,1069.2657742718147,1069.2657742718147,1069.2657742718147,s,1,0.4041094203857938,1069.699073456417,1070.7156939508423,,,,,,,,,,,,,,,,,,,,,,,,,,,,,,,,,,,,,,,,,569,2023-05-16_16h49.14.391,eb_02psyexp,2022.2.4,60.00735385067755,
32,0,32,0,,,,,,,,,,,,,,,,,,,,,,,,,,,,,,,,,,,,,,,,,,,,,,,,,,,,,,,,,,,1070.7156939508423,1070.7156939508423,1070.7156939508423,1070.7156939508423,1070.7156939508423,1070.7156939508423,l,1,0.7302279525174526,1071.4656141128362,1072.4822219297785,,,,,,,,,,,,,,,,,,,,,,,,,,,,,,,,,,,,,,,,,569,2023-05-16_16h49.14.391,eb_02psyexp,2022.2.4,60.00735385067755,
33,0,33,0,,,,,,,,,,,,,,,,,,,,,,,,,,,,,,,,,,,,,,,,,,,,,,,,,,,,,,,,,,,1072.4822219297785,1072.4822219297785,1072.4822219297785,1072.4822219297785,1072.4822219297785,1072.4822219297785,l,1,0.6677028616395546,1073.1821631907223,1074.2154358733242,,,,,,,,,,,,,,,,,,,,,,,,,,,,,,,,,,,,,,,,,569,2023-05-16_16h49.14.391,eb_02psyexp,2022.2.4,60.00735385067755,
34,0,34,0,,,,,,,,,,,,,,,,,,,,,,,,,,,,,,,,,,,,,,,,,,,,,,,,,,,,,,,,,,,1074.2154358733242,1074.2154358733242,1074.2154358733242,1074.2154358733242,1074.2154358733242,1074.2154358733242,s,1,0.5415011410223087,1074.7820536813379,1075.7986584798346,,,,,,,,,,,,,,,,,,,,,,,,,,,,,,,,,,,,,,,,,569,2023-05-16_16h49.14.391,eb_02psyexp,2022.2.4,60.00735385067755,
35,0,35,0,,,,,,,,,,,,,,,,,,,,,,,,,,,,,,,,,,,,,,,,,,,,,,,,,,,,,,,,,,,1075.7986584798346,1075.7986584798346,1075.7986584798346,1075.7986584798346,1075.7986584798346,1075.7986584798346,s,1,0.5342746684764279,1076.3652729675523,1077.3818822937174,,,,,,,,,,,,,,,,,,,,,,,,,,,,,,,,,,,,,,,,,569,2023-05-16_16h49.14.391,eb_02psyexp,2022.2.4,60.00735385067755,
36,0,36,0,,,,,,,,,,,,,,,,,,,,,,,,,,,,,,,,,,,,,,,,,,,,,,,,,,,,,,,,,,,1077.3818822937174,1077.3818822937174,1077.3818822937174,1077.3818822937174,1077.3818822937174,1077.3818822937174,s,1,0.5030623802449554,1077.9151634279697,1078.9317694338388,,,,,,,,,,,,,,,,,,,,,,,,,,,,,,,,,,,,,,,,,569,2023-05-16_16h49.14.391,eb_02psyexp,2022.2.4,60.00735385067755,
37,0,37,0,,,,,,,,,,,,,,,,,,,,,,,,,,,,,,,,,,,,,,,,,,,,,,,,,,,,,,,,,,,1078.9317694338388,1078.9317694338388,1078.9317694338388,1078.9317694338388,1078.9317694338388,1078.9317694338388,l,1,0.6411921120452462,1079.598393942826,1080.6149993449944,,,,,,,,,,,,,,,,,,,,,,,,,,,,,,,,,,,,,,,,,569,2023-05-16_16h49.14.391,eb_02psyexp,2022.2.4,60.00735385067755,
38,0,38,0,,,,,,,,,,,,,,,,,,,,,,,,,,,,,,,,,,,,,,,,,,,,,,,,,,,,,,,,,,,1080.6149993449944,1080.6149993449944,1080.6149993449944,1080.6149993449944,1080.6149993449944,1080.6149993449944,l,1,0.5179575283254962,1081.164943835698,1082.1815486341802,,,,,,,,,,,,,,,,,,,,,,,,,,,,,,,,,,,,,,,,,569,2023-05-16_16h49.14.391,eb_02psyexp,2022.2.4,60.00735385067755,
39,0,39,0,,,,,,,,,,,,,,,,,,,,,,,,,,,,,,,,,,,,,,,,,,,,,,,,,,,,,,,,,,,1082.1815486341802,1082.1815486341802,1082.1815486341802,1082.1815486341802,1082.1815486341802,1082.1815486341802,l,1,0.46343404809886124,1082.6648315493367,1083.6981024208653,,,,,,,,,,,,,,,,,,,,,,,,,,,,,,,,,,,,,,,,,569,2023-05-16_16h49.14.391,eb_02psyexp,2022.2.4,60.00735385067755,
40,0,40,0,,,,,,,,,,,,,,,,,,,,,,,,,,,,,,,,,,,,,,,,,,,,,,,,,,,,,,,,,,,1083.6981024208653,1083.6981024208653,1083.6981024208653,1083.6981024208653,1083.6981024208653,1083.6981024208653,s,1,0.4268887613870902,1084.1480628489808,1085.1646806267963,,,,,,,,,,,,,,,,,,,,,,,,,,,,,,,,,,,,,,,,,569,2023-05-16_16h49.14.391,eb_02psyexp,2022.2.4,60.00735385067755,
41,0,41,0,,,,,,,,,,,,,,,,,,,,,,,,,,,,,,,,,,,,,,,,,,,,,,,,,,,,,,,,,,,1085.1646806267963,1085.1646806267963,1085.1646806267963,1085.1646806267963,1085.1646806267963,1085.1646806267963,s,0,0.4323044654156547,1085.6146274718922,1086.6312367980572,,,,,,,,,,,,,,,,,,,,,,,,,,,,,,,,,,,,,,,,,569,2023-05-16_16h49.14.391,eb_02psyexp,2022.2.4,60.00735385067755,
42,0,42,0,,,,,,,,,,,,,,,,,,,,,,,,,,,,,,,,,,,,,,,,,,,,,,,,,,,,,,,,,,,1086.6312367980572,1086.6312367980572,1086.6312367980572,1086.6312367980572,1086.6312367980572,1086.6312367980572,s,1,0.46975981497962493,1087.131184880709,1088.1478071862075,,,,,,,,,,,,,,,,,,,,,,,,,,,,,,,,,,,,,,,,,569,2023-05-16_16h49.14.391,eb_02psyexp,2022.2.4,60.00735385067755,
43,0,43,0,,,,,,,,,,,,,,,,,,,,,,,,,,,,,,,,,,,,,,,,,,,,,,,,,,,,,,,,,,,1088.1478071862075,1088.1478071862075,1088.1478071862075,1088.1478071862075,1088.1478071862075,1088.1478071862075,l,1,0.5452111186168622,1088.7144044687593,1089.7310222465894,,,,,,,,,,,,,,,,,,,,,,,,,,,,,,,,,,,,,,,,,569,2023-05-16_16h49.14.391,eb_02psyexp,2022.2.4,60.00735385067755,
44,0,44,0,,,,,,,,,,,,,,,,,,,,,,,,,,,,,,,,,,,,,,,,,,,,,,,,,,,,,,,,,,,1089.7310222465894,1089.7310222465894,1089.7310222465894,1089.7310222465894,1089.7310222465894,1089.7310222465894,s,1,0.49700163332454395,1090.2476361004374,1091.2809066701157,,,,,,,,,,,,,,,,,,,,,,,,,,,,,,,,,,,,,,,,,569,2023-05-16_16h49.14.391,eb_02psyexp,2022.2.4,60.00735385067755,
45,0,45,0,,,,,,,,,,,,,,,,,,,,,,,,,,,,,,,,,,,,,,,,,,,,,,,,,,,,,,,,,,,1091.2809066701157,1091.2809066701157,1091.2809066701157,1091.2809066701157,1091.2809066701157,1091.2809066701157,s,1,0.45915750731364824,1091.7641959240136,1092.780804344642,,,,,,,,,,,,,,,,,,,,,,,,,,,,,,,,,,,,,,,,,569,2023-05-16_16h49.14.391,eb_02psyexp,2022.2.4,60.00735385067755,
46,0,46,0,,,,,,,,,,,,,,,,,,,,,,,,,,,,,,,,,,,,,,,,,,,,,,,,,,,,,,,,,,,1092.780804344642,1092.780804344642,1092.780804344642,1092.780804344642,1092.780804344642,1092.780804344642,s,1,0.4312241619481938,1093.2307566229429,1094.247375306295,,,,,,,,,,,,,,,,,,,,,,,,,,,,,,,,,,,,,,,,,569,2023-05-16_16h49.14.391,eb_02psyexp,2022.2.4,60.00735385067755,
47,0,47,0,,,,,,,,,,,,,,,,,,,,,,,,,,,,,,,,,,,,,,,,,,,,,,,,,,,,,,,,,,,1094.247375306295,1094.247375306295,1094.247375306295,1094.247375306295,1094.247375306295,1094.247375306295,s,1,0.4766832350724144,1094.7473212760378,1095.7639266782207,,,,,,,,,,,,,,,,,,,,,,,,,,,,,,,,,,,,,,,,,569,2023-05-16_16h49.14.391,eb_02psyexp,2022.2.4,60.00735385067755,
48,0,48,0,,,,,,,,,,,,,,,,,,,,,,,,,,,,,,,,,,,,,,,,,,,,,,,,,,,,,,,,,,,1095.7639266782207,1095.7639266782207,1095.7639266782207,1095.7639266782207,1095.7639266782207,1095.7639266782207,s,1,0.4561607895884663,1096.2472147247317,1097.2637999032886,,,,,,,,,,,,,,,,,,,,,,,,,,,,,,,,,,,,,,,,,569,2023-05-16_16h49.14.391,eb_02psyexp,2022.2.4,60.00735385067755,
49,0,49,0,,,,,,,,,,,,,,,,,,,,,,,,,,,,,,,,,,,,,,,,,,,,,,,,,,,,,,,,,,,1097.2637999032886,1097.2637999032886,1097.2637999032886,1097.2637999032886,1097.2637999032886,1097.2637999032886,l,1,0.49226115668716375,1097.7804635615757,1098.7970644360757,,,,,,,,,,,,,,,,,,,,,,,,,,,,,,,,,,,,,,,,,569,2023-05-16_16h49.14.391,eb_02psyexp,2022.2.4,60.00735385067755,
50,0,50,0,,,,,,,,,,,,,,,,,,,,,,,,,,,,,,,,,,,,,,,,,,,,,,,,,,,,,,,,,,,1098.7970644360757,1098.7970644360757,1098.7970644360757,1098.7970644360757,1098.7970644360757,1098.7970644360757,s,1,0.4790207232144894,1099.2969971246348,1100.3302619592578,,,,,,,,,,,,,,,,,,,,,,,,,,,,,,,,,,,,,,,,,569,2023-05-16_16h49.14.391,eb_02psyexp,2022.2.4,60.00735385067755,
51,0,51,0,,,,,,,,,,,,,,,,,,,,,,,,,,,,,,,,,,,,,,,,,,,,,,,,,,,,,,,,,,,1100.3302619592578,1100.3302619592578,1100.3302619592578,1100.3302619592578,1100.3302619592578,1100.3302619592578,s,1,0.36984608229249716,1100.7301903616026,1101.7468543217256,,,,,,,,,,,,,,,,,,,,,,,,,,,,,,,,,,,,,,,,,569,2023-05-16_16h49.14.391,eb_02psyexp,2022.2.4,60.00735385067755,
52,0,52,0,,,,,,,,,,,,,,,,,,,,,,,,,,,,,,,,,,,,,,,,,,,,,,,,,,,,,,,,,,,1101.7468543217256,1101.7468543217256,1101.7468543217256,1101.7468543217256,1101.7468543217256,1101.7468543217256,s,1,0.4012473255424993,1102.1801338864025,1103.1967577011237,,,,,,,,,,,,,,,,,,,,,,,,,,,,,,,,,,,,,,,,,569,2023-05-16_16h49.14.391,eb_02psyexp,2022.2.4,60.00735385067755,
53,0,53,0,,,,,,,,,,,,,,,,,,,,,,,,,,,,,,,,,,,,,,,,,,,,,,,,,,,,,,,,,,,1103.1967577011237,1103.1967577011237,1103.1967577011237,1103.1967577011237,1103.1967577011237,1103.1967577011237,s,1,0.6073426035436569,1103.830013842613,1104.846641581331,,,,,,,,,,,,,,,,,,,,,,,,,,,,,,,,,,,,,,,,,569,2023-05-16_16h49.14.391,eb_02psyexp,2022.2.4,60.00735385067755,
54,0,54,0,,,,,,,,,,,,,,,,,,,,,,,,,,,,,,,,,,,,,,,,,,,,,,,,,,,,,,,,,,,1104.846641581331,1104.846641581331,1104.846641581331,1104.846641581331,1104.846641581331,1104.846641581331,s,1,0.3894708405860001,1105.2632529600523,1106.279872548941,,,,,,,,,,,,,,,,,,,,,,,,,,,,,,,,,,,,,,,,,569,2023-05-16_16h49.14.391,eb_02psyexp,2022.2.4,60.00735385067755,
55,0,55,0,,,,,,,,,,,,,,,,,,,,,,,,,,,,,,,,,,,,,,,,,,,,,,,,,,,,,,,,,,,1106.279872548941,1106.279872548941,1106.279872548941,1106.279872548941,1106.279872548941,1106.279872548941,l,1,0.39522702585964,1106.6964923793275,1107.7297499696724,,,,,,,,,,,,,,,,,,,,,,,,,,,,,,,,,,,,,,,,,569,2023-05-16_16h49.14.391,eb_02psyexp,2022.2.4,60.00735385067755,
56,0,56,0,,,,,,,,,,,,,,,,,,,,,,,,,,,,,,,,,,,,,,,,,,,,,,,,,,,,,,,,,,,1107.7297499696724,1107.7297499696724,1107.7297499696724,1107.7297499696724,1107.7297499696724,1107.7297499696724,s,1,0.38537238840945065,1108.1463833830785,1109.1629927092436,,,,,,,,,,,,,,,,,,,,,,,,,,,,,,,,,,,,,,,,,569,2023-05-16_16h49.14.391,eb_02psyexp,2022.2.4,60.00735385067755,
57,0,57,0,,,,,,,,,,,,,,,,,,,,,,,,,,,,,,,,,,,,,,,,,,,,,,,,,,,,,,,,,,,1109.1629927092436,1109.1629927092436,1109.1629927092436,1109.1629927092436,1109.1629927092436,1109.1629927092436,s,1,0.3921448859764496,1109.5796514776303,1110.5962239786895,,,,,,,,,,,,,,,,,,,,,,,,,,,,,,,,,,,,,,,,,569,2023-05-16_16h49.14.391,eb_02psyexp,2022.2.4,60.00735385067755,
58,0,58,0,,,,,,,,,,,,,,,,,,,,,,,,,,,,,,,,,,,,,,,,,,,,,,,,,,,,,,,,,,,1110.5962239786895,1110.5962239786895,1110.5962239786895,1110.5962239786895,1110.5962239786895,1110.5962239786895,l,1,0.4229028973932145,1111.0461442614178,1112.0627889034513,,,,,,,,,,,,,,,,,,,,,,,,,,,,,,,,,,,,,,,,,569,2023-05-16_16h49.14.391,eb_02psyexp,2022.2.4,60.00735385067755,
59,0,59,0,,,,,,,,,,,,,,,,,,,,,,,,,,,,,,,,,,,,,,,,,,,,,,,,,,,,,,,,,,,1112.0627889034513,1112.0627889034513,1112.0627889034513,1112.0627889034513,1112.0627889034513,1112.0627889034513,s,1,0.508363383152755,1112.5960706414044,1113.6126938524394,,,,,,,,,,,,,,,,,,,,,,,,,,,,,,,,,,,,,,,,,569,2023-05-16_16h49.14.391,eb_02psyexp,2022.2.4,60.00735385067755,
60,0,60,0,,,,,,,,,,,,,,,,,,,,,,,,,,,,,,,,,,,,,,,,,,,,,,,,,,,,,,,,,,,1113.6126938524394,1113.6126938524394,1113.6126938524394,1113.6126938524394,1113.6126938524394,1113.6126938524394,s,1,0.406459284160519,1114.0459703986562,1115.062583648818,,,,,,,,,,,,,,,,,,,,,,,,,,,,,,,,,,,,,,,,,569,2023-05-16_16h49.14.391,eb_02psyexp,2022.2.4,60.00735385067755,
61,0,61,0,,,,,,,,,,,,,,,,,,,,,,,,,,,,,,,,,,,,,,,,,,,,,,,,,,,,,,,,,,,1115.062583648818,1115.062583648818,1115.062583648818,1115.062583648818,1115.062583648818,1115.062583648818,l,1,0.38058844607439823,1115.4625404246035,1116.4791412991035,,,,,,,,,,,,,,,,,,,,,,,,,,,,,,,,,,,,,,,,,569,2023-05-16_16h49.14.391,eb_02psyexp,2022.2.4,60.00735385067755,
62,0,62,0,,,,,,,,,,,,,,,,,,,,,,,,,,,,,,,,,,,,,,,,,,,,,,,,,,,,,,,,,,,1116.4791412991035,1116.4791412991035,1116.4791412991035,1116.4791412991035,1116.4791412991035,1116.4791412991035,s,1,0.33999903926451225,1116.8457789081585,1117.8790476667782,,,,,,,,,,,,,,,,,,,,,,,,,,,,,,,,,,,,,,,,,569,2023-05-16_16h49.14.391,eb_02psyexp,2022.2.4,60.00735385067755,
63,0,63,0,,,,,,,,,,,,,,,,,,,,,,,,,,,,,,,,,,,,,,,,,,,,,,,,,,,,,,,,,,,1117.8790476667782,1117.8790476667782,1117.8790476667782,1117.8790476667782,1117.8790476667782,1117.8790476667782,s,1,0.3801365840190556,1118.2790080646955,1119.2956219185435,,,,,,,,,,,,,,,,,,,,,,,,,,,,,,,,,,,,,,,,,569,2023-05-16_16h49.14.391,eb_02psyexp,2022.2.4,60.00735385067755,
64,0,64,0,,,,,,,,,,,,,,,,,,,,,,,,,,,,,,,,,,,,,,,,,,,,,,,,,,,,,,,,,,,1119.2956219185435,1119.2956219185435,1119.2956219185435,1119.2956219185435,1119.2956219185435,1119.2956219185435,s,1,0.5475733580387896,1119.8622198047815,1120.8954988261248,,,,,,,,,,,,,,,,,,,,,,,,,,,,,,,,,,,,,,,,,569,2023-05-16_16h49.14.391,eb_02psyexp,2022.2.4,60.00735385067755,
65,0,65,0,,,,,,,,,,,,,,,,,,,,,,,,,,,,,,,,,,,,,,,,,,,,,,,,,,,,,,,,,,,1120.8954988261248,1120.8954988261248,1120.8954988261248,1120.8954988261248,1120.8954988261248,1120.8954988261248,s,1,0.3716991091205273,1121.2954613369657,1122.3120652299258,,,,,,,,,,,,,,,,,,,,,,,,,,,,,,,,,,,,,,,,,569,2023-05-16_16h49.14.391,eb_02psyexp,2022.2.4,60.00735385067755,
66,0,66,0,,,,,,,,,,,,,,,,,,,,,,,,,,,,,,,,,,,,,,,,,,,,,,,,,,,,,,,,,,,1122.3120652299258,1122.3120652299258,1122.3120652299258,1122.3120652299258,1122.3120652299258,1122.3120652299258,l,1,0.6101711935771164,1122.9453458208736,1123.96195031752,,,,,,,,,,,,,,,,,,,,,,,,,,,,,,,,,,,,,,,,,569,2023-05-16_16h49.14.391,eb_02psyexp,2022.2.4,60.00735385067755,
67,0,67,0,,,,,,,,,,,,,,,,,,,,,,,,,,,,,,,,,,,,,,,,,,,,,,,,,,,,,,,,,,,1123.96195031752,1123.96195031752,1123.96195031752,1123.96195031752,1123.96195031752,1123.96195031752,s,1,0.3682538496213965,1124.3618735884957,1125.3785233619128,,,,,,,,,,,,,,,,,,,,,,,,,,,,,,,,,,,,,,,,,569,2023-05-16_16h49.14.391,eb_02psyexp,2022.2.4,60.00735385067755,
68,0,68,0,,,,,,,,,,,,,,,,,,,,,,,,,,,,,,,,,,,,,,,,,,,,,,,,,,,,,,,,,,,1125.3785233619128,1125.3785233619128,1125.3785233619128,1125.3785233619128,1125.3785233619128,1125.3785233619128,l,1,0.48770269262604415,1125.8951296696177,1126.9117456363747,,,,,,,,,,,,,,,,,,,,,,,,,,,,,,,,,,,,,,,,,569,2023-05-16_16h49.14.391,eb_02psyexp,2022.2.4,60.00735385067755,
69,0,69,0,,,,,,,,,,,,,,,,,,,,,,,,,,,,,,,,,,,,,,,,,,,,,,,,,,,,,,,,,,,1126.9117456363747,1126.9117456363747,1126.9117456363747,1126.9117456363747,1126.9117456363747,1126.9117456363747,l,1,0.4744891233567614,1127.4116843618394,1128.428336248151,,,,,,,,,,,,,,,,,,,,,,,,,,,,,,,,,,,,,,,,,569,2023-05-16_16h49.14.391,eb_02psyexp,2022.2.4,60.00735385067755,
70,0,70,0,,,,,,,,,,,,,,,,,,,,,,,,,,,,,,,,,,,,,,,,,,,,,,,,,,,,,,,,,,,1128.428336248151,1128.428336248151,1128.428336248151,1128.428336248151,1128.428336248151,1128.428336248151,l,1,0.48589796101441607,1128.944919917485,1129.9782058812707,,,,,,,,,,,,,,,,,,,,,,,,,,,,,,,,,,,,,,,,,569,2023-05-16_16h49.14.391,eb_02psyexp,2022.2.4,60.00735385067755,
71,0,71,0,,,,,,,,,,,,,,,,,,,,,,,,,,,,,,,,,,,,,,,,,,,,,,,,,,,,,,,,,,,1129.9782058812707,1129.9782058812707,1129.9782058812707,1129.9782058812707,1129.9782058812707,1129.9782058812707,s,1,0.46405011386377737,1130.4614872871898,1131.4780902746134,,,,,,,,,,,,,,,,,,,,,,,,,,,,,,,,,,,,,,,,,569,2023-05-16_16h49.14.391,eb_02psyexp,2022.2.4,60.00735385067755,
72,0,72,0,,,,,,,,,,,,,,,,,,,,,,,,,,,,,,,,,,,,,,,,,,,,,,,,,,,,,,,,,,,1131.4780902746134,1131.4780902746134,1131.4780902746134,1131.4780902746134,1131.4780902746134,1131.4780902746134,s,1,0.4521682850026991,1131.961382245121,1132.9946790753165,,,,,,,,,,,,,,,,,,,,,,,,,,,,,,,,,,,,,,,,,569,2023-05-16_16h49.14.391,eb_02psyexp,2022.2.4,60.00735385067755,
73,0,73,0,,,,,,,,,,,,,,,,,,,,,,,,,,,,,,,,,,,,,,,,,,,,,,,,,,,,,,,,,,,1132.9946790753165,1132.9946790753165,1132.9946790753165,1132.9946790753165,1132.9946790753165,1132.9946790753165,s,1,0.415587984258309,1133.4279468680324,1134.4445622311032,,,,,,,,,,,,,,,,,,,,,,,,,,,,,,,,,,,,,,,,,569,2023-05-16_16h49.14.391,eb_02psyexp,2022.2.4,60.00735385067755,
74,0,74,0,,,,,,,,,,,,,,,,,,,,,,,,,,,,,,,,,,,,,,,,,,,,,,,,,,,,,,,,,,,1134.4445622311032,1134.4445622311032,1134.4445622311032,1134.4445622311032,1134.4445622311032,1134.4445622311032,s,1,0.39770185347879305,1134.8611687802913,1135.8778182518436,,,,,,,,,,,,,,,,,,,,,,,,,,,,,,,,,,,,,,,,,569,2023-05-16_16h49.14.391,eb_02psyexp,2022.2.4,60.00735385067755,
75,0,75,0,,,,,,,,,,,,,,,,,,,,,,,,,,,,,,,,,,,,,,,,,,,,,,,,,,,,,,,,,,,1135.8778182518436,1135.8778182518436,1135.8778182518436,1135.8778182518436,1135.8778182518436,1135.8778182518436,l,1,0.41247083034249954,1136.3110803095042,1137.3276902393554,,,,,,,,,,,,,,,,,,,,,,,,,,,,,,,,,,,,,,,,,569,2023-05-16_16h49.14.391,eb_02psyexp,2022.2.4,60.00735385067755,
76,0,76,0,,,,,,,,,,,,,,,,,,,,,,,,,,,,,,,,,,,,,,,,,,,,,,,,,,,,,,,,,,,1137.3276902393554,1137.3276902393554,1137.3276902393554,1137.3276902393554,1137.3276902393554,1137.3276902393554,l,1,0.6975924648431828,1138.0442951585865,1139.0609084087482,,,,,,,,,,,,,,,,,,,,,,,,,,,,,,,,,,,,,,,,,569,2023-05-16_16h49.14.391,eb_02psyexp,2022.2.4,60.00735385067755,
77,0,77,0,,,,,,,,,,,,,,,,,,,,,,,,,,,,,,,,,,,,,,,,,,,,,,,,,,,,,,,,,,,1139.0609084087482,1139.0609084087482,1139.0609084087482,1139.0609084087482,1139.0609084087482,1139.0609084087482,l,1,0.38839023528271355,1139.4775107321038,1140.510790357148,,,,,,,,,,,,,,,,,,,,,,,,,,,,,,,,,,,,,,,,,569,2023-05-16_16h49.14.391,eb_02psyexp,2022.2.4,60.00735385067755,
78,0,78,0,,,,,,,,,,,,,,,,,,,,,,,,,,,,,,,,,,,,,,,,,,,,,,,,,,,,,,,,,,,1140.510790357148,1140.510790357148,1140.510790357148,1140.510790357148,1140.510790357148,1140.510790357148,s,1,0.46652252672356553,1140.9940793091955,1142.0106964833249,,,,,,,,,,,,,,,,,,,,,,,,,,,,,,,,,,,,,,,,,569,2023-05-16_16h49.14.391,eb_02psyexp,2022.2.4,60.00735385067755,
79,0,79,0,,,,,,,,,,,,,,,,,,,,,,,,,,,,,,,,,,,,,,,,,,,,,,,,,,,,,,,,,,,1142.0106964833249,1142.0106964833249,1142.0106964833249,1142.0106964833249,1142.0106964833249,1142.0106964833249,l,1,0.5026506635767873,1142.5439755046682,1143.5605839253112,,,,,,,,,,,,,,,,,,,,,,,,,,,,,,,,,,,,,,,,,569,2023-05-16_16h49.14.391,eb_02psyexp,2022.2.4,60.00735385067755,
80,0,80,0,,,,,,,,,,,,,,,,,,,,,,,,,,,,,,,,,,,,,,,,,,,,,,,,,,,,,,,,,,,1143.5605839253112,1143.5605839253112,1143.5605839253112,1143.5605839253112,1143.5605839253112,1143.5605839253112,l,1,0.5847600655106362,1144.1771957266028,1145.193792978971,,,,,,,,,,,,,,,,,,,,,,,,,,,,,,,,,,,,,,,,,569,2023-05-16_16h49.14.391,eb_02psyexp,2022.2.4,60.00735385067755,
81,0,81,0,,,,,,,,,,,,,,,,,,,,,,,,,,,,,,,,,,,,,,,,,,,,,,,,,,,,,,,,,,,1145.193792978971,1145.193792978971,1145.193792978971,1145.193792978971,1145.193792978971,1145.193792978971,l,0,0.7675655825296417,1145.9937533165212,1147.0270042662887,,,,,,,,,,,,,,,,,,,,,,,,,,,,,,,,,,,,,,,,,569,2023-05-16_16h49.14.391,eb_02psyexp,2022.2.4,60.00735385067755,
82,0,82,0,,,,,,,,,,,,,,,,,,,,,,,,,,,,,,,,,,,,,,,,,,,,,,,,,,,,,,,,,,,1147.0270042662887,1147.0270042662887,1147.0270042662887,1147.0270042662887,1147.0270042662887,1147.0270042662887,s,1,0.7663793314422946,1147.8102755905857,1148.8268849167507,,,,,,,,,,,,,,,,,,,,,,,,,,,,,,,,,,,,,,,,,569,2023-05-16_16h49.14.391,eb_02psyexp,2022.2.4,60.00735385067755,
83,0,83,0,,,,,,,,,,,,,,,,,,,,,,,,,,,,,,,,,,,,,,,,,,,,,,,,,,,,,,,,,,,1148.8268849167507,1148.8268849167507,1148.8268849167507,1148.8268849167507,1148.8268849167507,1148.8268849167507,l,1,0.854455908323871,1149.7101285316603,1150.7434120806865,,,,,,,,,,,,,,,,,,,,,,,,,,,,,,,,,,,,,,,,,569,2023-05-16_16h49.14.391,eb_02psyexp,2022.2.4,60.00735385067755,
84,0,84,0,,,,,,,,,,,,,,,,,,,,,,,,,,,,,,,,,,,,,,,,,,,,,,,,,,,,,,,,,,,1150.7434120806865,1150.7434120806865,1150.7434120806865,1150.7434120806865,1150.7434120806865,1150.7434120806865,s,1,0.8499895069980994,1151.6100053185073,1152.64327860481,,,,,,,,,,,,,,,,,,,,,,,,,,,,,,,,,,,,,,,,,569,2023-05-16_16h49.14.391,eb_02psyexp,2022.2.4,60.00735385067755,
85,0,85,0,,,,,,,,,,,,,,,,,,,,,,,,,,,,,,,,,,,,,,,,,,,,,,,,,,,,,,,,,,,1152.64327860481,1152.64327860481,1152.64327860481,1152.64327860481,1152.64327860481,1152.64327860481,l,1,1.0931075905973557,1153.7598596179014,1154.7931259617617,,,,,,,,,,,,,,,,,,,,,,,,,,,,,,,,,,,,,,,,,569,2023-05-16_16h49.14.391,eb_02psyexp,2022.2.4,60.00735385067755,
86,0,86,0,,,,,,,,,,,,,,,,,,,,,,,,,,,,,,,,,,,,,,,,,,,,,,,,,,,,,,,,,,,1154.7931259617617,1154.7931259617617,1154.7931259617617,1154.7931259617617,1154.7931259617617,1154.7931259617617,s,1,0.6632720780471573,1155.4764265046542,1156.493009570302,,,,,,,,,,,,,,,,,,,,,,,,,,,,,,,,,,,,,,,,,569,2023-05-16_16h49.14.391,eb_02psyexp,2022.2.4,60.00735385067755,
87,0,87,0,,,,,,,,,,,,,,,,,,,,,,,,,,,,,,,,,,,,,,,,,,,,,,,,,,,,,,,,,,,1156.493009570302,1156.493009570302,1156.493009570302,1156.493009570302,1156.493009570302,1156.493009570302,l,1,1.3154050057783024,1157.8262407793954,1158.8595092361647,,,,,,,,,,,,,,,,,,,,,,,,,,,,,,,,,,,,,,,,,569,2023-05-16_16h49.14.391,eb_02psyexp,2022.2.4,60.00735385067755,
88,0,88,0,,,,,,,,,,,,,,,,,,,,,,,,,,,,,,,,,,,,,,,,,,,,,,,,,,,,,,,,,,,1158.8595092361647,1158.8595092361647,1158.8595092361647,1158.8595092361647,1158.8595092361647,1158.8595092361647,s,1,0.7729103529563872,1159.659443615048,1160.6760378489562,,,,,,,,,,,,,,,,,,,,,,,,,,,,,,,,,,,,,,,,,569,2023-05-16_16h49.14.391,eb_02psyexp,2022.2.4,60.00735385067755,
89,0,89,0,,,,,,,,,,,,,,,,,,,,,,,,,,,,,,,,,,,,,,,,,,,,,,,,,,,,,,,,,,,1160.6760378489562,1160.6760378489562,1160.6760378489562,1160.6760378489562,1160.6760378489562,1160.6760378489562,s,1,0.8523798180103768,1161.559313157617,1162.575916145026,,,,,,,,,,,,,,,,,,,,,,,,,,,,,,,,,,,,,,,,,569,2023-05-16_16h49.14.391,eb_02psyexp,2022.2.4,60.00735385067755,
90,0,90,0,,,,,,,,,,,,,,,,,,,,,,,,,,,,,,,,,,,,,,,,,,,,,,,,,,,,,,,,,,,1162.575916145026,1162.575916145026,1162.575916145026,1162.575916145026,1162.575916145026,1162.575916145026,l,1,0.6165096379554598,1163.2091976415104,1164.2257948938786,,,,,,,,,,,,,,,,,,,,,,,,,,,,,,,,,,,,,,,,,569,2023-05-16_16h49.14.391,eb_02psyexp,2022.2.4,60.00735385067755,
91,0,91,0,,,,,,,,,,,,,,,,,,,,,,,,,,,,,,,,,,,,,,,,,,,,,,,,,,,,,,,,,,,1164.2257948938786,1164.2257948938786,1164.2257948938786,1164.2257948938786,1164.2257948938786,1164.2257948938786,s,1,0.7826484782272018,1165.0257310838206,1166.0423392026132,,,,,,,,,,,,,,,,,,,,,,,,,,,,,,,,,,,,,,,,,569,2023-05-16_16h49.14.391,eb_02psyexp,2022.2.4,60.00735385067755,
92,0,92,0,,,,,,,,,,,,,,,,,,,,,,,,,,,,,,,,,,,,,,,,,,,,,,,,,,,,,,,,,,,1166.0423392026132,1166.0423392026132,1166.0423392026132,1166.0423392026132,1166.0423392026132,1166.0423392026132,l,1,0.9901240936742397,1167.0589225701115,1168.0752212977095,,,,,,,,,,,,,,,,,,,,,,,,,,,,,,,,,,,,,,,,,569,2023-05-16_16h49.14.391,eb_02psyexp,2022.2.4,60.00735385067755,
93,0,93,0,,,,,,,,,,,,,,,,,,,,,,,,,,,,,,,,,,,,,,,,,,,,,,,,,,,,,,,,,,,1168.0752212977095,1168.0752212977095,1168.0752212977095,1168.0752212977095,1168.0752212977095,1168.0752212977095,s,1,0.5642551270284457,1168.6588049108977,1169.6754296311701,,,,,,,,,,,,,,,,,,,,,,,,,,,,,,,,,,,,,,,,,569,2023-05-16_16h49.14.391,eb_02psyexp,2022.2.4,60.00735385067755,
94,0,94,0,,,,,,,,,,,,,,,,,,,,,,,,,,,,,,,,,,,,,,,,,,,,,,,,,,,,,,,,,,,1169.6754296311701,1169.6754296311701,1169.6754296311701,1169.6754296311701,1169.6754296311701,1169.6754296311701,l,1,0.5160495657037245,1170.2087068414403,1171.2253216008248,,,,,,,,,,,,,,,,,,,,,,,,,,,,,,,,,,,,,,,,,569,2023-05-16_16h49.14.391,eb_02psyexp,2022.2.4,60.00735385067755,
95,0,95,0,,,,,,,,,,,,,,,,,,,,,,,,,,,,,,,,,,,,,,,,,,,,,,,,,,,,,,,,,,,1171.2253216008248,1171.2253216008248,1171.2253216008248,1171.2253216008248,1171.2253216008248,1171.2253216008248,l,1,0.5101678129140055,1171.7585930760397,1172.791878436139,,,,,,,,,,,,,,,,,,,,,,,,,,,,,,,,,,,,,,,,,569,2023-05-16_16h49.14.391,eb_02psyexp,2022.2.4,60.00735385067755,
96,0,96,0,,,,,,,,,,,,,,,,,,,,,,,,,,,,,,,,,,,,,,,,,,,,,,,,,,,,,,,,,,,1172.791878436139,1172.791878436139,1172.791878436139,1172.791878436139,1172.791878436139,1172.791878436139,s,1,0.4956146552867722,1173.3084980250278,1174.3250970884692,,,,,,,,,,,,,,,,,,,,,,,,,,,,,,,,,,,,,,,,,569,2023-05-16_16h49.14.391,eb_02psyexp,2022.2.4,60.00735385067755,
97,0,97,0,,,,,,,,,,,,,,,,,,,,,,,,,,,,,,,,,,,,,,,,,,,,,,,,,,,,,,,,,,,1174.3250970884692,1174.3250970884692,1174.3250970884692,1174.3250970884692,1174.3250970884692,1174.3250970884692,s,1,1.4904063188005239,1175.8416475548438,1176.858262012378,,,,,,,,,,,,,,,,,,,,,,,,,,,,,,,,,,,,,,,,,569,2023-05-16_16h49.14.391,eb_02psyexp,2022.2.4,60.00735385067755,
98,0,98,0,,,,,,,,,,,,,,,,,,,,,,,,,,,,,,,,,,,,,,,,,,,,,,,,,,,,,,,,,,,1176.858262012378,1176.858262012378,1176.858262012378,1176.858262012378,1176.858262012378,1176.858262012378,s,1,0.4132529108755989,1177.291542180741,1178.324803091382,,,,,,,,,,,,,,,,,,,,,,,,,,,,,,,,,,,,,,,,,569,2023-05-16_16h49.14.391,eb_02psyexp,2022.2.4,60.00735385067755,
99,0,99,0,,,,,,,,,,,,,,,,,,,,,,,,,,,,,,,,,,,,,,,,,,,,,,,,,,,,,,,,,,,1178.324803091382,1178.324803091382,1178.324803091382,1178.324803091382,1178.324803091382,1178.324803091382,s,1,0.5307279890403152,1178.8747681075329,1179.8913723023434,,,,,,,,,,,,,,,,,,,,,,,,,,,,,,,,,,,,,,,,,569,2023-05-16_16h49.14.391,eb_02psyexp,2022.2.4,60.00735385067755,
100,0,100,0,,,,,,,,,,,,,,,,,,,,,,,,,,,,,,,,,,,,,,,,,,,,,,,,,,,,,,,,,,,1179.8913723023434,1179.8913723023434,1179.8913723023434,1179.8913723023434,1179.8913723023434,1179.8913723023434,l,1,0.45216798315232154,1180.3746627636137,1181.407948425549,,,,,,,,,,,,,,,,,,,,,,,,,,,,,,,,,,,,,,,,,569,2023-05-16_16h49.14.391,eb_02psyexp,2022.2.4,60.00735385067755,
101,0,101,0,,,,,,,,,,,,,,,,,,,,,,,,,,,,,,,,,,,,,,,,,,,,,,,,,,,,,,,,,,,1181.407948425549,1181.407948425549,1181.407948425549,1181.407948425549,1181.407948425549,1181.407948425549,s,1,0.5036186806828482,1181.9412171841686,1182.9578370749077,,,,,,,,,,,,,,,,,,,,,,,,,,,,,,,,,,,,,,,,,569,2023-05-16_16h49.14.391,eb_02psyexp,2022.2.4,60.00735385067755,
102,0,102,0,,,,,,,,,,,,,,,,,,,,,,,,,,,,,,,,,,,,,,,,,,,,,,,,,,,,,,,,,,,1182.9578370749077,1182.9578370749077,1182.9578370749077,1182.9578370749077,1182.9578370749077,1182.9578370749077,s,1,0.513723245850997,1183.4911064372136,1184.507719385525,,,,,,,,,,,,,,,,,,,,,,,,,,,,,,,,,,,,,,,,,569,2023-05-16_16h49.14.391,eb_02psyexp,2022.2.4,60.00735385067755,
103,0,103,0,,,,,,,,,,,,,,,,,,,,,,,,,,,,,,,,,,,,,,,,,,,,,,,,,,,,,,,,,,,1184.507719385525,1184.507719385525,1184.507719385525,1184.507719385525,1184.507719385525,1184.507719385525,s,1,0.4908382590801921,1185.0243383707275,1186.0409507153527,,,,,,,,,,,,,,,,,,,,,,,,,,,,,,,,,,,,,,,,,569,2023-05-16_16h49.14.391,eb_02psyexp,2022.2.4,60.00735385067755,
104,0,104,0,,,,,,,,,,,,,,,,,,,,,,,,,,,,,,,,,,,,,,,,,,,,,,,,,,,,,,,,,,,1186.0409507153527,1186.0409507153527,1186.0409507153527,1186.0409507153527,1186.0409507153527,1186.0409507153527,s,1,0.39762246824102476,1186.4575759789295,1187.4741804755758,,,,,,,,,,,,,,,,,,,,,,,,,,,,,,,,,,,,,,,,,569,2023-05-16_16h49.14.391,eb_02psyexp,2022.2.4,60.00735385067755,
105,0,105,0,,,,,,,,,,,,,,,,,,,,,,,,,,,,,,,,,,,,,,,,,,,,,,,,,,,,,,,,,,,1187.4741804755758,1187.4741804755758,1187.4741804755758,1187.4741804755758,1187.4741804755758,1187.4741804755758,s,0,0.3403992858075071,1187.8408060108195,1188.8574144314625,,,,,,,,,,,,,,,,,,,,,,,,,,,,,,,,,,,,,,,,,569,2023-05-16_16h49.14.391,eb_02psyexp,2022.2.4,60.00735385067755,
106,0,106,0,,,,,,,,,,,,,,,,,,,,,,,,,,,,,,,,,,,,,,,,,,,,,,,,,,,,,,,,,,,1188.8574144314625,1188.8574144314625,1188.8574144314625,1188.8574144314625,1188.8574144314625,1188.8574144314625,l,1,0.44517574238125235,1189.32404093261,1190.357305767233,,,,,,,,,,,,,,,,,,,,,,,,,,,,,,,,,,,,,,,,,569,2023-05-16_16h49.14.391,eb_02psyexp,2022.2.4,60.00735385067755,
107,0,107,0,,,,,,,,,,,,,,,,,,,,,,,,,,,,,,,,,,,,,,,,,,,,,,,,,,,,,,,,,,,1190.357305767233,1190.357305767233,1190.357305767233,1190.357305767233,1190.357305767233,1190.357305767233,s,1,0.38528998469701037,1190.7739234846958,1191.7905533363228,,,,,,,,,,,,,,,,,,,,,,,,,,,,,,,,,,,,,,,,,569,2023-05-16_16h49.14.391,eb_02psyexp,2022.2.4,60.00735385067755,
108,0,108,0,,,,,,,,,,,,,,,,,,,,,,,,,,,,,,,,,,,,,,,,,,,,,,,,,,,,,,,,,,,1191.7905533363228,1191.7905533363228,1191.7905533363228,1191.7905533363228,1191.7905533363228,1191.7905533363228,l,1,1.9200398969987873,1193.7403806507646,1194.7736666145502,,,,,,,,,,,,,,,,,,,,,,,,,,,,,,,,,,,,,,,,,569,2023-05-16_16h49.14.391,eb_02psyexp,2022.2.4,60.00735385067755,
109,0,109,0,,,,,,,,,,,,,,,,,,,,,,,,,,,,,,,,,,,,,,,,,,,,,,,,,,,,,,,,,,,1194.7736666145502,1194.7736666145502,1194.7736666145502,1194.7736666145502,1194.7736666145502,1194.7736666145502,s,1,0.5289528382563731,1195.3236168403091,1196.340221035105,,,,,,,,,,,,,,,,,,,,,,,,,,,,,,,,,,,,,,,,,569,2023-05-16_16h49.14.391,eb_02psyexp,2022.2.4,60.00735385067755,
110,0,110,0,,,,,,,,,,,,,,,,,,,,,,,,,,,,,,,,,,,,,,,,,,,,,,,,,,,,,,,,,,,1196.340221035105,1196.340221035105,1196.340221035105,1196.340221035105,1196.340221035105,1196.340221035105,s,1,0.49040903539571445,1196.856839114771,1197.8734469317133,,,,,,,,,,,,,,,,,,,,,,,,,,,,,,,,,,,,,,,,,569,2023-05-16_16h49.14.391,eb_02psyexp,2022.2.4,60.00735385067755,
111,0,111,0,,,,,,,,,,,,,,,,,,,,,,,,,,,,,,,,,,,,,,,,,,,,,,,,,,,,,,,,,,,1197.8734469317133,1197.8734469317133,1197.8734469317133,1197.8734469317133,1197.8734469317133,1197.8734469317133,s,1,0.429186707813642,1198.3234040395328,1199.3566764202842,,,,,,,,,,,,,,,,,,,,,,,,,,,,,,,,,,,,,,,,,569,2023-05-16_16h49.14.391,eb_02psyexp,2022.2.4,60.00735385067755,
112,0,112,0,,,,,,,,,,,,,,,,,,,,,,,,,,,,,,,,,,,,,,,,,,,,,,,,,,,,,,,,,,,1199.3566764202842,1199.3566764202842,1199.3566764202842,1199.3566764202842,1199.3566764202842,1199.3566764202842,s,1,0.39297073404304683,1199.7732899119146,1200.7899119155772,,,,,,,,,,,,,,,,,,,,,,,,,,,,,,,,,,,,,,,,,569,2023-05-16_16h49.14.391,eb_02psyexp,2022.2.4,60.00735385067755,
113,0,113,0,,,,,,,,,,,,,,,,,,,,,,,,,,,,,,,,,,,,,,,,,,,,,,,,,,,,,,,,,,,1200.7899119155772,1200.7899119155772,1200.7899119155772,1200.7899119155772,1200.7899119155772,1200.7899119155772,s,1,0.39973598733195104,1201.2065374810045,1202.2231582772947,,,,,,,,,,,,,,,,,,,,,,,,,,,,,,,,,,,,,,,,,569,2023-05-16_16h49.14.391,eb_02psyexp,2022.2.4,60.00735385067755,
114,0,114,0,,,,,,,,,,,,,,,,,,,,,,,,,,,,,,,,,,,,,,,,,,,,,,,,,,,,,,,,,,,1202.2231582772947,1202.2231582772947,1202.2231582772947,1202.2231582772947,1202.2231582772947,1202.2231582772947,l,1,0.38253866699233185,1202.6231171659892,1203.6397168331168,,,,,,,,,,,,,,,,,,,,,,,,,,,,,,,,,,,,,,,,,569,2023-05-16_16h49.14.391,eb_02psyexp,2022.2.4,60.00735385067755,
115,0,115,0,,,,,,,,,,,,,,,,,,,,,,,,,,,,,,,,,,,,,,,,,,,,,,,,,,,,,,,,,,,1203.6397168331168,1203.6397168331168,1203.6397168331168,1203.6397168331168,1203.6397168331168,1203.6397168331168,s,1,0.41395560617092997,1204.073002434685,1205.0896093460906,,,,,,,,,,,,,,,,,,,,,,,,,,,,,,,,,,,,,,,,,569,2023-05-16_16h49.14.391,eb_02psyexp,2022.2.4,60.00735385067755,
116,0,116,0,,,,,,,,,,,,,,,,,,,,,,,,,,,,,,,,,,,,,,,,,,,,,,,,,,,,,,,,,,,1205.0896093460906,1205.0896093460906,1205.0896093460906,1205.0896093460906,1205.0896093460906,1205.0896093460906,l,1,0.4360938282625284,1205.5562313195696,1206.5895046058577,,,,,,,,,,,,,,,,,,,,,,,,,,,,,,,,,,,,,,,,,569,2023-05-16_16h49.14.391,eb_02psyexp,2022.2.4,60.00735385067755,
117,0,117,0,,,,,,,,,,,,,,,,,,,,,,,,,,,,,,,,,,,,,,,,,,,,,,,,,,,,,,,,,,,1206.5895046058577,1206.5895046058577,1206.5895046058577,1206.5895046058577,1206.5895046058577,1206.5895046058577,s,1,0.472180008655414,1207.0894575180282,1208.106072881099,,,,,,,,,,,,,,,,,,,,,,,,,,,,,,,,,,,,,,,,,569,2023-05-16_16h49.14.391,eb_02psyexp,2022.2.4,60.00735385067755,
118,0,118,0,,,,,,,,,,,,,,,,,,,,,,,,,,,,,,,,,,,,,,,,,,,,,,,,,,,,,,,,,,,1208.106072881099,1208.106072881099,1208.106072881099,1208.106072881099,1208.106072881099,1208.106072881099,s,1,0.6036190429003909,1208.7393302299606,1209.7726089494681,,,,,,,,,,,,,,,,,,,,,,,,,,,,,,,,,,,,,,,,,569,2023-05-16_16h49.14.391,eb_02psyexp,2022.2.4,60.00735385067755,
119,0,119,0,,,,,,,,,,,,,,,,,,,,,,,,,,,,,,,,,,,,,,,,,,,,,,,,,,,,,,,,,,,1209.7726089494681,1209.7726089494681,1209.7726089494681,1209.7726089494681,1209.7726089494681,1209.7726089494681,s,1,0.5771034637582488,1210.3725682607474,1211.3891854348913,,,,,,,,,,,,,,,,,,,,,,,,,,,,,,,,,,,,,,,,,569,2023-05-16_16h49.14.391,eb_02psyexp,2022.2.4,60.00735385067755,
120,0,120,0,,,,,,,,,,,,,,,,,,,,,,,,,,,,,,,,,,,,,,,,,,,,,,,,,,,,,,,,,,,1211.3891854348913,1211.3891854348913,1211.3891854348913,1211.3891854348913,1211.3891854348913,1211.3891854348913,s,0,0.40852963940415066,1211.8224625847943,1212.8390547057934,,,,,,,,,,,,,,,,,,,,,,,,,,,,,,,,,,,,,,,,,569,2023-05-16_16h49.14.391,eb_02psyexp,2022.2.4,60.00735385067755,
121,0,121,0,,,,,,,,,,,,,,,,,,,,,,,,,,,,,,,,,,,,,,,,,,,,,,,,,,,,,,,,,,,1212.8390547057934,1212.8390547057934,1212.8390547057934,1212.8390547057934,1212.8390547057934,1212.8390547057934,l,1,0.5586694842349971,1213.4223470385186,1214.4389663255715,,,,,,,,,,,,,,,,,,,,,,,,,,,,,,,,,,,,,,,,,569,2023-05-16_16h49.14.391,eb_02psyexp,2022.2.4,60.00735385067755,
122,0,122,0,,,,,,,,,,,,,,,,,,,,,,,,,,,,,,,,,,,,,,,,,,,,,,,,,,,,,,,,,,,1214.4389663255715,1214.4389663255715,1214.4389663255715,1214.4389663255715,1214.4389663255715,1214.4389663255715,l,1,0.5657996681984514,1215.0222387365066,1216.0388423276163,,,,,,,,,,,,,,,,,,,,,,,,,,,,,,,,,,,,,,,,,569,2023-05-16_16h49.14.391,eb_02psyexp,2022.2.4,60.00735385067755,
123,0,123,0,,,,,,,,,,,,,,,,,,,,,,,,,,,,,,,,,,,,,,,,,,,,,,,,,,,,,,,,,,,1216.0388423276163,1216.0388423276163,1216.0388423276163,1216.0388423276163,1216.0388423276163,1216.0388423276163,s,1,0.42188115186581854,1216.4887888708618,1217.5054196280253,,,,,,,,,,,,,,,,,,,,,,,,,,,,,,,,,,,,,,,,,569,2023-05-16_16h49.14.391,eb_02psyexp,2022.2.4,60.00735385067755,
124,0,124,0,,,,,,,,,,,,,,,,,,,,,,,,,,,,,,,,,,,,,,,,,,,,,,,,,,,,,,,,,,,1217.5054196280253,1217.5054196280253,1217.5054196280253,1217.5054196280253,1217.5054196280253,1217.5054196280253,l,1,0.5313313773076516,1218.0553143142752,1219.088615672168,,,,,,,,,,,,,,,,,,,,,,,,,,,,,,,,,,,,,,,,,569,2023-05-16_16h49.14.391,eb_02psyexp,2022.2.4,60.00735385067755,
125,0,125,0,,,,,,,,,,,,,,,,,,,,,,,,,,,,,,,,,,,,,,,,,,,,,,,,,,,,,,,,,,,1219.088615672168,1219.088615672168,1219.088615672168,1219.088615672168,1219.088615672168,1219.088615672168,s,1,0.4361412179423496,1219.5552524360392,1220.5718714212562,,,,,,,,,,,,,,,,,,,,,,,,,,,,,,,,,,,,,,,,,569,2023-05-16_16h49.14.391,eb_02psyexp,2022.2.4,60.00735385067755,
126,0,126,0,,,,,,,,,,,,,,,,,,,,,,,,,,,,,,,,,,,,,,,,,,,,,,,,,,,,,,,,,,,1220.5718714212562,1220.5718714212562,1220.5718714212562,1220.5718714212562,1220.5718714212562,1220.5718714212562,l,1,0.3928967820102116,1220.9884849128866,1222.021769065599,,,,,,,,,,,,,,,,,,,,,,,,,,,,,,,,,,,,,,,,,569,2023-05-16_16h49.14.391,eb_02psyexp,2022.2.4,60.00735385067755,
127,0,127,0,,,,,,,,,,,,,,,,,,,,,,,,,,,,,,,,,,,,,,,,,,,,,,,,,,,,,,,,,,,1222.021769065599,1222.021769065599,1222.021769065599,1222.021769065599,1222.021769065599,1222.021769065599,s,1,0.4310047205945011,1222.4717104774754,1223.4883342921967,,,,,,,,,,,,,,,,,,,,,,,,,,,,,,,,,,,,,,,,,569,2023-05-16_16h49.14.391,eb_02psyexp,2022.2.4,60.00735385067755,
128,0,128,0,,,,,,,,,,,,,,,,,,,,,,,,,,,,,,,,,,,,,,,,,,,,,,,,,,,,,,,,,,,1223.4883342921967,1223.4883342921967,1223.4883342921967,1223.4883342921967,1223.4883342921967,1223.4883342921967,l,0,0.3404330924531678,1223.8549516776256,1224.8715353469597,,,,,,,,,,,,,,,,,,,,,,,,,,,,,,,,,,,,,,,,,569,2023-05-16_16h49.14.391,eb_02psyexp,2022.2.4,60.00735385067755,
129,0,129,0,,,,,,,,,,,,,,,,,,,,,,,,,,,,,,,,,,,,,,,,,,,,,,,,,,,,,,,,,,,1224.8715353469597,1224.8715353469597,1224.8715353469597,1224.8715353469597,1224.8715353469597,1224.8715353469597,s,1,0.4612574433849659,1225.3548360709683,1226.3880658915732,,,,,,,,,,,,,,,,,,,,,,,,,,,,,,,,,,,,,,,,,569,2023-05-16_16h49.14.391,eb_02psyexp,2022.2.4,60.00735385067755,
130,0,130,0,,,,,,,,,,,,,,,,,,,,,,,,,,,,,,,,,,,,,,,,,,,,,,,,,,,,,,,,,,,1226.3880658915732,1226.3880658915732,1226.3880658915732,1226.3880658915732,1226.3880658915732,1226.3880658915732,s,1,0.7447376444615657,1227.1547170232807,1228.1713242365367,,,,,,,,,,,,,,,,,,,,,,,,,,,,,,,,,,,,,,,,,569,2023-05-16_16h49.14.391,eb_02psyexp,2022.2.4,60.00735385067755,
131,0,131,0,,,,,,,,,,,,,,,,,,,,,,,,,,,,,,,,,,,,,,,,,,,,,,,,,,,,,,,,,,,1228.1713242365367,1228.1713242365367,1228.1713242365367,1228.1713242365367,1228.1713242365367,1228.1713242365367,l,1,1.2094739918684354,1229.40456474245,1230.4211692390963,,,,,,,,,,,,,,,,,,,,,,,,,,,,,,,,,,,,,,,,,569,2023-05-16_16h49.14.391,eb_02psyexp,2022.2.4,60.00735385067755,
132,0,132,0,,,,,,,,,,,,,,,,,,,,,,,,,,,,,,,,,,,,,,,,,,,,,,,,,,,,,,,,,,,1230.4211692390963,1230.4211692390963,1230.4211692390963,1230.4211692390963,1230.4211692390963,1230.4211692390963,s,1,0.798643851550878,1231.237769992862,1232.2543657360075,,,,,,,,,,,,,,,,,,,,,,,,,,,,,,,,,,,,,,,,,569,2023-05-16_16h49.14.391,eb_02psyexp,2022.2.4,60.00735385067755,
133,0,133,0,,,,,,,,,,,,,,,,,,,,,,,,,,,,,,,,,,,,,,,,,,,,,,,,,,,,,,,,,,,1232.2543657360075,1232.2543657360075,1232.2543657360075,1232.2543657360075,1232.2543657360075,1232.2543657360075,l,1,0.4374636011343682,1232.720999481433,1233.7376060910028,,,,,,,,,,,,,,,,,,,,,,,,,,,,,,,,,,,,,,,,,569,2023-05-16_16h49.14.391,eb_02psyexp,2022.2.4,60.00735385067755,
134,0,134,0,,,,,,,,,,,,,,,,,,,,,,,,,,,,,,,,,,,,,,,,,,,,,,,,,,,,,,,,,,,1233.7376060910028,1233.7376060910028,1233.7376060910028,1233.7376060910028,1233.7376060910028,1233.7376060910028,s,1,0.5222168639302254,1234.2875539019878,1235.3041710761172,,,,,,,,,,,,,,,,,,,,,,,,,,,,,,,,,,,,,,,,,569,2023-05-16_16h49.14.391,eb_02psyexp,2022.2.4,60.00735385067755,
135,0,135,0,,,,,,,,,,,,,,,,,,,,,,,,,,,,,,,,,,,,,,,,,,,,,,,,,,,,,,,,,,,1235.3041710761172,1235.3041710761172,1235.3041710761172,1235.3041710761172,1235.3041710761172,1235.3041710761172,s,1,0.4917093839176232,1235.820779798596,1236.8374057262408,,,,,,,,,,,,,,,,,,,,,,,,,,,,,,,,,,,,,,,,,569,2023-05-16_16h49.14.391,eb_02psyexp,2022.2.4,60.00735385067755,
136,0,136,0,,,,,,,,,,,,,,,,,,,,,,,,,,,,,,,,,,,,,,,,,,,,,,,,,,,,,,,,,,,1236.8374057262408,1236.8374057262408,1236.8374057262408,1236.8374057262408,1236.8374057262408,1236.8374057262408,l,1,0.6064488403208088,1237.503996428568,,,,,,,,,,,,,,,,,,,,,,,,,,,,,,,,,,,,,,,,,,569,2023-05-16_16h49.14.391,eb_02psyexp,2022.2.4,60.00735385067755,
137,0,137,0,,,,,,,,,,,,,,,,,,,,,,,,,,,,,,,,,,,,,,,,,,,,,,,,,,,,,,,,,,,1238.5039405872376,1238.5039405872376,1238.5039405872376,1238.5039405872376,1238.5039405872376,1238.5039405872376,s,0,0.4999231916444842,1239.0205481023295,1240.0371625598636,,,,,,,,,,,,,,,,,,,,,,,,,,,,,,,,,,,,,,,,,569,2023-05-16_16h49.14.391,eb_02psyexp,2022.2.4,60.00735385067755,
138,0,138,0,,,,,,,,,,,,,,,,,,,,,,,,,,,,,,,,,,,,,,,,,,,,,,,,,,,,,,,,,,,1240.0371625598636,1240.0371625598636,1240.0371625598636,1240.0371625598636,1240.0371625598636,1240.0371625598636,l,1,0.4867129426711472,1240.5537857709132,1241.5704132077808,,,,,,,,,,,,,,,,,,,,,,,,,,,,,,,,,,,,,,,,,569,2023-05-16_16h49.14.391,eb_02psyexp,2022.2.4,60.00735385067755,
139,0,139,0,,,,,,,,,,,,,,,,,,,,,,,,,,,,,,,,,,,,,,,,,,,,,,,,,,,,,,,,,,,1241.5704132077808,1241.5704132077808,1241.5704132077808,1241.5704132077808,1241.5704132077808,1241.5704132077808,s,1,0.561473624809878,1242.1536696209223,1243.1868958193954,,,,,,,,,,,,,,,,,,,,,,,,,,,,,,,,,,,,,,,,,569,2023-05-16_16h49.14.391,eb_02psyexp,2022.2.4,60.00735385067755,
140,0,140,0,,,,,,,,,,,,,,,,,,,,,,,,,,,,,,,,,,,,,,,,,,,,,,,,,,,,,,,,,,,1243.1868958193954,1243.1868958193954,1243.1868958193954,1243.1868958193954,1243.1868958193954,1243.1868958193954,s,1,0.5129967047978425,1243.7202409448073,1244.7367935241055,,,,,,,,,,,,,,,,,,,,,,,,,,,,,,,,,,,,,,,,,569,2023-05-16_16h49.14.391,eb_02psyexp,2022.2.4,60.00735385067755,
141,0,141,0,,,,,,,,,,,,,,,,,,,,,,,,,,,,,,,,,,,,,,,,,,,,,,,,,,,,,,,,,,,1244.7367935241055,1244.7367935241055,1244.7367935241055,1244.7367935241055,1244.7367935241055,1244.7367935241055,s,1,0.39510689151939005,1245.1534625552158,1246.1700718813809,,,,,,,,,,,,,,,,,,,,,,,,,,,,,,,,,,,,,,,,,569,2023-05-16_16h49.14.391,eb_02psyexp,2022.2.4,60.00735385067755,
142,0,142,0,,,,,,,,,,,,,,,,,,,,,,,,,,,,,,,,,,,,,,,,,,,,,,,,,,,,,,,,,,,1246.1700718813809,1246.1700718813809,1246.1700718813809,1246.1700718813809,1246.1700718813809,1246.1700718813809,s,1,4.9528622267825995,1251.15304389612,1252.169645676171,,,,,,,,,,,,,,,,,,,,,,,,,,,,,,,,,,,,,,,,,569,2023-05-16_16h49.14.391,eb_02psyexp,2022.2.4,60.00735385067755,
143,0,143,0,,,,,,,,,,,,,,,,,,,,,,,,,,,,,,,,,,,,,,,,,,,,,,,,,,,,,,,,,,,1252.169645676171,1252.169645676171,1252.169645676171,1252.169645676171,1252.169645676171,1252.169645676171,s,1,0.46530126163270324,1252.652935835591,1253.6695566318667,,,,,,,,,,,,,,,,,,,,,,,,,,,,,,,,,,,,,,,,,569,2023-05-16_16h49.14.391,eb_02psyexp,2022.2.4,60.00735385067755,
144,0,144,0,,,,,,,,,,,,,,,,,,,,,,,,,,,,,,,,,,,,,,,,,,,,,,,,,,,,,,,,,,,1253.6695566318667,1253.6695566318667,1253.6695566318667,1253.6695566318667,1253.6695566318667,1253.6695566318667,s,1,0.6853958115825662,1254.386148269914,1255.40276936804,,,,,,,,,,,,,,,,,,,,,,,,,,,,,,,,,,,,,,,,,569,2023-05-16_16h49.14.391,eb_02psyexp,2022.2.4,60.00735385067755,
145,0,145,0,,,,,,,,,,,,,,,,,,,,,,,,,,,,,,,,,,,,,,,,,,,,,,,,,,,,,,,,,,,1255.40276936804,1255.40276936804,1255.40276936804,1255.40276936804,1255.40276936804,1255.40276936804,l,1,0.5201911817566724,1255.9527048033779,1256.969315940616,,,,,,,,,,,,,,,,,,,,,,,,,,,,,,,,,,,,,,,,,569,2023-05-16_16h49.14.391,eb_02psyexp,2022.2.4,60.00735385067755,
146,0,146,0,,,,,,,,,,,,,,,,,,,,,,,,,,,,,,,,,,,,,,,,,,,,,,,,,,,,,,,,,,,1256.969315940616,1256.969315940616,1256.969315940616,1256.969315940616,1256.969315940616,1256.969315940616,l,1,0.561656844773097,1257.5525946903072,1258.569206733082,,,,,,,,,,,,,,,,,,,,,,,,,,,,,,,,,,,,,,,,,569,2023-05-16_16h49.14.391,eb_02psyexp,2022.2.4,60.00735385067755,
147,0,147,0,,,,,,,,,,,,,,,,,,,,,,,,,,,,,,,,,,,,,,,,,,,,,,,,,,,,,,,,,,,1258.569206733082,1258.569206733082,1258.569206733082,1258.569206733082,1258.569206733082,1258.569206733082,l,1,1.3137825885787606,1259.9024379421753,1260.9190454572672,,,,,,,,,,,,,,,,,,,,,,,,,,,,,,,,,,,,,,,,,569,2023-05-16_16h49.14.391,eb_02psyexp,2022.2.4,60.00735385067755,
148,0,148,0,,,,,,,,,,,,,,,,,,,,,,,,,,,,,,,,,,,,,,,,,,,,,,,,,,,,,,,,,,,1260.9190454572672,1260.9190454572672,1260.9190454572672,1260.9190454572672,1260.9190454572672,1260.9190454572672,s,1,0.4839429105632007,1261.4356547834323,1262.4688812837412,,,,,,,,,,,,,,,,,,,,,,,,,,,,,,,,,,,,,,,,,569,2023-05-16_16h49.14.391,eb_02psyexp,2022.2.4,60.00735385067755,
149,0,149,0,,,,,,,,,,,,,,,,,,,,,,,,,,,,,,,,,,,,,,,,,,,,,,,,,,,,,,,,,,,1262.4688812837412,1262.4688812837412,1262.4688812837412,1262.4688812837412,1262.4688812837412,1262.4688812837412,s,1,0.4611249333975138,1262.9522158143955,1263.9688245368743,,,,,,,,,,,,,,,,,,,,,,,,,,,,,,,,,,,,,,,,,569,2023-05-16_16h49.14.391,eb_02psyexp,2022.2.4,60.00735385067755,
150,0,150,0,,,,,,,,,,,,,,,,,,,,,,,,,,,,,,,,,,,,,,,,,,,,,,,,,,,,,,,,,,,1263.9688245368743,1263.9688245368743,1263.9688245368743,1263.9688245368743,1263.9688245368743,1263.9688245368743,l,1,1.1691882411832921,1265.1687280671904,1266.185334978596,,,,,,,,,,,,,,,,,,,,,,,,,,,,,,,,,,,,,,,,,569,2023-05-16_16h49.14.391,eb_02psyexp,2022.2.4,60.00735385067755,
151,0,151,0,,,,,,,,,,,,,,,,,,,,,,,,,,,,,,,,,,,,,,,,,,,,,,,,,,,,,,,,,,,1266.185334978596,1266.185334978596,1266.185334978596,1266.185334978596,1266.185334978596,1266.185334978596,s,1,0.5286935533513315,1266.7352737342298,1267.7685551703325,,,,,,,,,,,,,,,,,,,,,,,,,,,,,,,,,,,,,,,,,569,2023-05-16_16h49.14.391,eb_02psyexp,2022.2.4,60.00735385067755,
152,0,152,0,,,,,,,,,,,,,,,,,,,,,,,,,,,,,,,,,,,,,,,,,,,,,,,,,,,,,,,,,,,1267.7685551703325,1267.7685551703325,1267.7685551703325,1267.7685551703325,1267.7685551703325,1267.7685551703325,s,1,0.4734486634406494,1268.2685135157226,1269.285132500925,,,,,,,,,,,,,,,,,,,,,,,,,,,,,,,,,,,,,,,,,569,2023-05-16_16h49.14.391,eb_02psyexp,2022.2.4,60.00735385067755,
153,0,153,0,,,,,,,,,,,,,,,,,,,,,,,,,,,,,,,,,,,,,,,,,,,,,,,,,,,,,,,,,,,1269.285132500925,1269.285132500925,1269.285132500925,1269.285132500925,1269.285132500925,1269.285132500925,l,1,0.4689131396007724,1269.7850703208533,1270.801676024872,,,,,,,,,,,,,,,,,,,,,,,,,,,,,,,,,,,,,,,,,569,2023-05-16_16h49.14.391,eb_02psyexp,2022.2.4,60.00735385067755,
154,0,154,0,,,,,,,,,,,,,,,,,,,,,,,,,,,,,,,,,,,,,,,,,,,,,,,,,,,,,,,,,,,1270.801676024872,1270.801676024872,1270.801676024872,1270.801676024872,1270.801676024872,1270.801676024872,s,1,0.6563601280649891,1271.4849515146343,1272.5015620481863,,,,,,,,,,,,,,,,,,,,,,,,,,,,,,,,,,,,,,,,,569,2023-05-16_16h49.14.391,eb_02psyexp,2022.2.4,60.00735385067755,
155,0,155,0,,,,,,,,,,,,,,,,,,,,,,,,,,,,,,,,,,,,,,,,,,,,,,,,,,,,,,,,,,,1272.5015620481863,1272.5015620481863,1272.5015620481863,1272.5015620481863,1272.5015620481863,1272.5015620481863,s,1,0.45249488134868443,1272.9848449633282,1274.0014687780495,,,,,,,,,,,,,,,,,,,,,,,,,,,,,,,,,,,,,,,,,569,2023-05-16_16h49.14.391,eb_02psyexp,2022.2.4,60.00735385067755,
156,0,156,0,,,,,,,,,,,,,,,,,,,,,,,,,,,,,,,,,,,,,,,,,,,,,,,,,,,,,,,,,,,1274.0014687780495,1274.0014687780495,1274.0014687780495,1274.0014687780495,1274.0014687780495,1274.0014687780495,l,1,0.4806023913115496,1274.5013685654994,1275.5180286016403,,,,,,,,,,,,,,,,,,,,,,,,,,,,,,,,,,,,,,,,,569,2023-05-16_16h49.14.391,eb_02psyexp,2022.2.4,60.00735385067755,
157,0,157,0,,,,,,,,,,,,,,,,,,,,,,,,,,,,,,,,,,,,,,,,,,,,,,,,,,,,,,,,,,,1275.5180286016403,1275.5180286016403,1275.5180286016403,1275.5180286016403,1275.5180286016403,1275.5180286016403,s,1,0.5000288373994408,1276.0346352111956,1277.051244839211,,,,,,,,,,,,,,,,,,,,,,,,,,,,,,,,,,,,,,,,,569,2023-05-16_16h49.14.391,eb_02psyexp,2022.2.4,60.00735385067755,
158,0,158,0,,,,,,,,,,,,,,,,,,,,,,,,,,,,,,,,,,,,,,,,,,,,,,,,,,,,,,,,,,,1277.051244839211,1277.051244839211,1277.051244839211,1277.051244839211,1277.051244839211,1277.051244839211,l,1,0.4218458359828219,1277.5012001359573,1278.5178088584362,,,,,,,,,,,,,,,,,,,,,,,,,,,,,,,,,,,,,,,,,569,2023-05-16_16h49.14.391,eb_02psyexp,2022.2.4,60.00735385067755,
159,0,159,0,,,,,,,,,,,,,,,,,,,,,,,,,,,,,,,,,,,,,,,,,,,,,,,,,,,,,,,,,,,1278.5178088584362,1278.5178088584362,1278.5178088584362,1278.5178088584362,1278.5178088584362,1278.5178088584362,s,1,0.515262957487721,1279.0510960295942,1280.067696300408,,,,,,,,,,,,,,,,,,,,,,,,,,,,,,,,,,,,,,,,,569,2023-05-16_16h49.14.391,eb_02psyexp,2022.2.4,60.00735385067755,
160,0,160,0,,,,,,,,,,,,,,,,,,,,,,,,,,,,,,,,,,,,,,,,,,,,,,,,,,,,,,,,,,,1280.067696300408,1280.067696300408,1280.067696300408,1280.067696300408,1280.067696300408,1280.067696300408,s,1,0.5094325183454202,1280.6009553999756,1281.6342534375726,,,,,,,,,,,,,,,,,,,,,,,,,,,,,,,,,,,,,,,,,569,2023-05-16_16h49.14.391,eb_02psyexp,2022.2.4,60.00735385067755,
161,0,161,0,,,,,,,,,,,,,,,,,,,,,,,,,,,,,,,,,,,,,,,,,,,,,,,,,,,,,,,,,,,1281.6342534375726,1281.6342534375726,1281.6342534375726,1281.6342534375726,1281.6342534375726,1281.6342534375726,s,1,0.454839010068099,1282.1175644243049,1283.1341502065625,,,,,,,,,,,,,,,,,,,,,,,,,,,,,,,,,,,,,,,,,569,2023-05-16_16h49.14.391,eb_02psyexp,2022.2.4,60.00735385067755,
162,0,162,0,,,,,,,,,,,,,,,,,,,,,,,,,,,,,,,,,,,,,,,,,,,,,,,,,,,,,,,,,,,1283.1341502065625,1283.1341502065625,1283.1341502065625,1283.1341502065625,1283.1341502065625,1283.1341502065625,s,1,0.6029779240052449,1283.7674196292355,1284.784035294142,,,,,,,,,,,,,,,,,,,,,,,,,,,,,,,,,,,,,,,,,569,2023-05-16_16h49.14.391,eb_02psyexp,2022.2.4,60.00735385067755,
163,0,163,0,,,,,,,,,,,,,,,,,,,,,,,,,,,,,,,,,,,,,,,,,,,,,,,,,,,,,,,,,,,1284.784035294142,1284.784035294142,1284.784035294142,1284.784035294142,1284.784035294142,1284.784035294142,s,1,0.4010976103891153,1285.2173284418386,1286.2339332403353,,,,,,,,,,,,,,,,,,,,,,,,,,,,,,,,,,,,,,,,,569,2023-05-16_16h49.14.391,eb_02psyexp,2022.2.4,60.00735385067755,
164,0,164,0,,,,,,,,,,,,,,,,,,,,,,,,,,,,,,,,,,,,,,,,,,,,,,,,,,,,,,,,,,,1286.2339332403353,1286.2339332403353,1286.2339332403353,1286.2339332403353,1286.2339332403353,1286.2339332403353,l,1,0.423232512184768,1286.6838888389175,1287.7004945429508,,,,,,,,,,,,,,,,,,,,,,,,,,,,,,,,,,,,,,,,,569,2023-05-16_16h49.14.391,eb_02psyexp,2022.2.4,60.00735385067755,
165,0,165,0,,,,,,,,,,,,,,,,,,,,,,,,,,,,,,,,,,,,,,,,,,,,,,,,,,,,,,,,,,,1287.7004945429508,1287.7004945429508,1287.7004945429508,1287.7004945429508,1287.7004945429508,1287.7004945429508,s,1,0.4046488175081322,1288.1337855777238,1289.1503949038888,,,,,,,,,,,,,,,,,,,,,,,,,,,,,,,,,,,,,,,,,569,2023-05-16_16h49.14.391,eb_02psyexp,2022.2.4,60.00735385067755,
166,0,166,0,,,,,,,,,,,,,,,,,,,,,,,,,,,,,,,,,,,,,,,,,,,,,,,,,,,,,,,,,,,1289.1503949038888,1289.1503949038888,1289.1503949038888,1289.1503949038888,1289.1503949038888,1289.1503949038888,s,1,0.4587379426957341,1289.633682648564,1290.6669088470226,,,,,,,,,,,,,,,,,,,,,,,,,,,,,,,,,,,,,,,,,569,2023-05-16_16h49.14.391,eb_02psyexp,2022.2.4,60.00735385067755,
167,0,167,0,,,,,,,,,,,,,,,,,,,,,,,,,,,,,,,,,,,,,,,,,,,,,,,,,,,,,,,,,,,1290.6669088470226,1290.6669088470226,1290.6669088470226,1290.6669088470226,1290.6669088470226,1290.6669088470226,s,1,0.3982792830938706,1291.0835754633881,1292.1001917319809,,,,,,,,,,,,,,,,,,,,,,,,,,,,,,,,,,,,,,,,,569,2023-05-16_16h49.14.391,eb_02psyexp,2022.2.4,60.00735385067755,
168,0,168,0,,,,,,,,,,,,,,,,,,,,,,,,,,,,,,,,,,,,,,,,,,,,,,,,,,,,,,,,,,,1292.1001917319809,1292.1001917319809,1292.1001917319809,1292.1001917319809,1292.1001917319809,1292.1001917319809,s,1,0.42097471115994267,1292.550166950503,1293.5667554493702,,,,,,,,,,,,,,,,,,,,,,,,,,,,,,,,,,,,,,,,,569,2023-05-16_16h49.14.391,eb_02psyexp,2022.2.4,60.00735385067755,
169,0,169,0,,,,,,,,,,,,,,,,,,,,,,,,,,,,,,,,,,,,,,,,,,,,,,,,,,,,,,,,,,,1293.5667554493702,1293.5667554493702,1293.5667554493702,1293.5667554493702,1293.5667554493702,1293.5667554493702,l,1,0.4574007690825965,1294.0500431940309,1295.0666709327488,,,,,,,,,,,,,,,,,,,,,,,,,,,,,,,,,,,,,,,,,569,2023-05-16_16h49.14.391,eb_02psyexp,2022.2.4,60.00735385067755,
170,0,170,0,,,,,,,,,,,,,,,,,,,,,,,,,,,,,,,,,,,,,,,,,,,,,,,,,,,,,,,,,,,1295.0666709327488,1295.0666709327488,1295.0666709327488,1295.0666709327488,1295.0666709327488,1295.0666709327488,s,1,0.4775199495925335,1295.5666069415893,1296.599871172526,,,,,,,,,,,,,,,,,,,,,,,,,,,,,,,,,,,,,,,,,569,2023-05-16_16h49.14.391,eb_02psyexp,2022.2.4,60.00735385067755,
171,0,171,0,,,,,,,,,,,,,,,,,,,,,,,,,,,,,,,,,,,,,,,,,,,,,,,,,,,,,,,,,,,1296.599871172526,1296.599871172526,1296.599871172526,1296.599871172526,1296.599871172526,1296.599871172526,s,1,0.7683555110415909,1297.3998067587963,1298.416416990498,,,,,,,,,,,,,,,,,,,,,,,,,,,,,,,,,,,,,,,,,569,2023-05-16_16h49.14.391,eb_02psyexp,2022.2.4,60.00735385067755,
172,0,172,0,,,,,,,,,,,,,,,,,,,,,,,,,,,,,,,,,,,,,,,,,,,,,,,,,,,,,,,,,,,1298.416416990498,1298.416416990498,1298.416416990498,1298.416416990498,1298.416416990498,1298.416416990498,s,1,0.43979173207480926,1298.8830353418307,1299.8996851152333,,,,,,,,,,,,,,,,,,,,,,,,,,,,,,,,,,,,,,,,,569,2023-05-16_16h49.14.391,eb_02psyexp,2022.2.4,60.00735385067755,
173,0,173,0,,,,,,,,,,,,,,,,,,,,,,,,,,,,,,,,,,,,,,,,,,,,,,,,,,,,,,,,,,,1299.8996851152333,1299.8996851152333,1299.8996851152333,1299.8996851152333,1299.8996851152333,1299.8996851152333,l,1,0.5085565639892593,1300.4329264059488,1301.4495345247415,,,,,,,,,,,,,,,,,,,,,,,,,,,,,,,,,,,,,,,,,569,2023-05-16_16h49.14.391,eb_02psyexp,2022.2.4,60.00735385067755,
174,0,174,0,,,,,,,,,,,,,,,,,,,,,,,,,,,,,,,,,,,,,,,,,,,,,,,,,,,,,,,,,,,1301.4495345247415,1301.4495345247415,1301.4495345247415,1301.4495345247415,1301.4495345247415,1301.4495345247415,s,0,0.41469784316723235,1301.8828140894038,1302.8994463558047,,,,,,,,,,,,,,,,,,,,,,,,,,,,,,,,,,,,,,,,,569,2023-05-16_16h49.14.391,eb_02psyexp,2022.2.4,60.00735385067755,
175,0,175,0,,,,,,,,,,,,,,,,,,,,,,,,,,,,,,,,,,,,,,,,,,,,,,,,,,,,,,,,,,,1302.8994463558047,1302.8994463558047,1302.8994463558047,1302.8994463558047,1302.8994463558047,1302.8994463558047,s,1,0.4527837470668601,1303.382719913745,1304.3993346731295,,,,,,,,,,,,,,,,,,,,,,,,,,,,,,,,,,,,,,,,,569,2023-05-16_16h49.14.391,eb_02psyexp,2022.2.4,60.00735385067755,
176,0,176,0,,,,,,,,,,,,,,,,,,,,,,,,,,,,,,,,,,,,,,,,,,,,,,,,,,,,,,,,,,,1304.3993346731295,1304.3993346731295,1304.3993346731295,1304.3993346731295,1304.3993346731295,1304.3993346731295,l,1,0.5129025291389553,1304.9326055446581,1305.9492329815257,,,,,,,,,,,,,,,,,,,,,,,,,,,,,,,,,,,,,,,,,569,2023-05-16_16h49.14.391,eb_02psyexp,2022.2.4,60.00735385067755,
177,0,177,0,,,,,,,,,,,,,,,,,,,,,,,,,,,,,,,,,,,,,,,,,,,,,,,,,,,,,,,,,,,1305.9492329815257,1305.9492329815257,1305.9492329815257,1305.9492329815257,1305.9492329815257,1305.9492329815257,l,1,0.6270259197772248,1306.5991612329526,1307.6157726720412,,,,,,,,,,,,,,,,,,,,,,,,,,,,,,,,,,,,,,,,,569,2023-05-16_16h49.14.391,eb_02psyexp,2022.2.4,60.00735385067755,
178,0,178,0,,,,,,,,,,,,,,,,,,,,,,,,,,,,,,,,,,,,,,,,,,,,,,,,,,,,,,,,,,,1307.6157726720412,1307.6157726720412,1307.6157726720412,1307.6157726720412,1307.6157726720412,1307.6157726720412,l,1,0.40046494315902237,1308.0490612920548,1309.0656721274572,,,,,,,,,,,,,,,,,,,,,,,,,,,,,,,,,,,,,,,,,569,2023-05-16_16h49.14.391,eb_02psyexp,2022.2.4,60.00735385067755,
179,0,179,0,,,,,,,,,,,,,,,,,,,,,,,,,,,,,,,,,,,,,,,,,,,,,,,,,,,,,,,,,,,1309.0656721274572,1309.0656721274572,1309.0656721274572,1309.0656721274572,1309.0656721274572,1309.0656721274572,s,1,0.42158111788739916,1309.515631951872,1310.532258181367,,,,,,,,,,,,,,,,,,,,,,,,,,,,,,,,,,,,,,,,,569,2023-05-16_16h49.14.391,eb_02psyexp,2022.2.4,60.00735385067755,
180,0,180,0,,,,,,,,,,,,,,,,,,,,,,,,,,,,,,,,,,,,,,,,,,,,,,,,,,,,,,,,,,,1310.532258181367,1310.532258181367,1310.532258181367,1310.532258181367,1310.532258181367,1310.532258181367,l,1,0.5790153503767215,1311.1321764417225,1312.165445502178,,,,,,,,,,,,,,,,,,,,,,,,,,,,,,,,,,,,,,,,,569,2023-05-16_16h49.14.391,eb_02psyexp,2022.2.4,60.00735385067755,
181,0,181,0,,,,,,,,,,,,,,,,,,,,,,,,,,,,,,,,,,,,,,,,,,,,,,,,,,,,,,,,,,,1312.165445502178,1312.165445502178,1312.165445502178,1312.165445502178,1312.165445502178,1312.165445502178,s,1,0.5058411658537807,1312.69874897298,1313.7153546769987,,,,,,,,,,,,,,,,,,,,,,,,,,,,,,,,,,,,,,,,,569,2023-05-16_16h49.14.391,eb_02psyexp,2022.2.4,60.00735385067755,
182,0,182,0,,,,,,,,,,,,,,,,,,,,,,,,,,,,,,,,,,,,,,,,,,,,,,,,,,,,,,,,,,,1313.7153546769987,1313.7153546769987,1313.7153546769987,1313.7153546769987,1313.7153546769987,1313.7153546769987,l,1,0.5799426183803007,1314.3152970849624,1315.3485589011398,,,,,,,,,,,,,,,,,,,,,,,,,,,,,,,,,,,,,,,,,569,2023-05-16_16h49.14.391,eb_02psyexp,2022.2.4,60.00735385067755,
183,0,183,0,,,,,,,,,,,,,,,,,,,,,,,,,,,,,,,,,,,,,,,,,,,,,,,,,,,,,,,,,,,1315.3485589011398,1315.3485589011398,1315.3485589011398,1315.3485589011398,1315.3485589011398,1315.3485589011398,s,1,0.5707363441179041,1315.948510666305,1316.9651139555644,,,,,,,,,,,,,,,,,,,,,,,,,,,,,,,,,,,,,,,,,569,2023-05-16_16h49.14.391,eb_02psyexp,2022.2.4,60.00735385067755,
184,0,184,0,,,,,,,,,,,,,,,,,,,,,,,,,,,,,,,,,,,,,,,,,,,,,,,,,,,,,,,,,,,1316.9651139555644,1316.9651139555644,1316.9651139555644,1316.9651139555644,1316.9651139555644,1316.9651139555644,l,1,0.41019190014048945,1317.3984107254073,1318.4316776729538,,,,,,,,,,,,,,,,,,,,,,,,,,,,,,,,,,,,,,,,,569,2023-05-16_16h49.14.391,eb_02psyexp,2022.2.4,60.00735385067755,
185,0,185,0,,,,,,,,,,,,,,,,,,,,,,,,,,,,,,,,,,,,,,,,,,,,,,,,,,,,,,,,,,,1318.4316776729538,1318.4316776729538,1318.4316776729538,1318.4316776729538,1318.4316776729538,1318.4316776729538,s,1,0.5196394089871319,1318.9816321245307,1319.9982390359364,,,,,,,,,,,,,,,,,,,,,,,,,,,,,,,,,,,,,,,,,569,2023-05-16_16h49.14.391,eb_02psyexp,2022.2.4,60.00735385067755,
186,0,186,0,,,,,,,,,,,,,,,,,,,,,,,,,,,,,,,,,,,,,,,,,,,,,,,,,,,,,,,,,,,1319.9982390359364,1319.9982390359364,1319.9982390359364,1319.9982390359364,1319.9982390359364,1319.9982390359364,l,1,0.5210783043730771,1320.5481539458124,1321.564829376046,,,,,,,,,,,,,,,,,,,,,,,,,,,,,,,,,,,,,,,,,569,2023-05-16_16h49.14.391,eb_02psyexp,2022.2.4,60.00735385067755,
187,0,187,0,,,,,,,,,,,,,,,,,,,,,,,,,,,,,,,,,,,,,,,,,,,,,,,,,,,,,,,,,,,1321.564829376046,1321.564829376046,1321.564829376046,1321.564829376046,1321.564829376046,1321.564829376046,l,1,0.5064880198042374,1322.0980785147403,1323.114690859351,,,,,,,,,,,,,,,,,,,,,,,,,,,,,,,,,,,,,,,,,569,2023-05-16_16h49.14.391,eb_02psyexp,2022.2.4,60.00735385067755,
188,0,188,0,,,,,,,,,,,,,,,,,,,,,,,,,,,,,,,,,,,,,,,,,,,,,,,,,,,,,,,,,,,1323.114690859351,1323.114690859351,1323.114690859351,1323.114690859351,1323.114690859351,1323.114690859351,l,1,0.5566362559184199,1323.6979635721364,1324.7145795388933,,,,,,,,,,,,,,,,,,,,,,,,,,,,,,,,,,,,,,,,,569,2023-05-16_16h49.14.391,eb_02psyexp,2022.2.4,60.00735385067755,
189,0,189,0,,,,,,,,,,,,,,,,,,,,,,,,,,,,,,,,,,,,,,,,,,,,,,,,,,,,,,,,,,,1324.7145795388933,1324.7145795388933,1324.7145795388933,1324.7145795388933,1324.7145795388933,1324.7145795388933,l,1,0.4357723632856505,1325.1811954754667,1326.1978404193505,,,,,,,,,,,,,,,,,,,,,,,,,,,,,,,,,,,,,,,,,569,2023-05-16_16h49.14.391,eb_02psyexp,2022.2.4,60.00735385067755,
190,0,190,0,,,,,,,,,,,,,,,,,,,,,,,,,,,,,,,,,,,,,,,,,,,,,,,,,,,,,,,,,,,1326.1978404193505,1326.1978404193505,1326.1978404193505,1326.1978404193505,1326.1978404193505,1326.1978404193505,s,1,0.39252551257959567,1326.6144306689093,1327.6310363729426,,,,,,,,,,,,,,,,,,,,,,,,,,,,,,,,,,,,,,,,,569,2023-05-16_16h49.14.391,eb_02psyexp,2022.2.4,60.00735385067755,
191,0,191,0,,,,,,,,,,,,,,,,,,,,,,,,,,,,,,,,,,,,,,,,,,,,,,,,,,,,,,,,,,,1327.6310363729426,1327.6310363729426,1327.6310363729426,1327.6310363729426,1327.6310363729426,1327.6310363729426,s,1,0.5673496425588382,1328.2309839122609,1329.247593238426,,,,,,,,,,,,,,,,,,,,,,,,,,,,,,,,,,,,,,,,,569,2023-05-16_16h49.14.391,eb_02psyexp,2022.2.4,60.00735385067755,
192,0,192,0,,,,,,,,,,,,,,,,,,,,,,,,,,,,,,,,,,,,,,,,,,,,,,,,,,,,,,,,,,,1329.247593238426,1329.247593238426,1329.247593238426,1329.247593238426,1329.247593238426,1329.247593238426,l,1,0.582792337576393,1329.8475332316302,1330.8641479910148,,,,,,,,,,,,,,,,,,,,,,,,,,,,,,,,,,,,,,,,,569,2023-05-16_16h49.14.391,eb_02psyexp,2022.2.4,60.00735385067755,
193,0,193,0,,,,,,,,,,,,,,,,,,,,,,,,,,,,,,,,,,,,,,,,,,,,,,,,,,,,,,,,,,,1330.8641479910148,1330.8641479910148,1330.8641479910148,1330.8641479910148,1330.8641479910148,1330.8641479910148,l,1,0.5022443801281042,1331.3974085998052,1332.4140484123345,,,,,,,,,,,,,,,,,,,,,,,,,,,,,,,,,,,,,,,,,569,2023-05-16_16h49.14.391,eb_02psyexp,2022.2.4,60.00735385067755,
194,0,194,0,,,,,,,,,,,,,,,,,,,,,,,,,,,,,,,,,,,,,,,,,,,,,,,,,,,,,,,,,,,1332.4140484123345,1332.4140484123345,1332.4140484123345,1332.4140484123345,1332.4140484123345,1332.4140484123345,l,1,0.4643456201738445,1332.8973135186243,1333.9306046137644,,,,,,,,,,,,,,,,,,,,,,,,,,,,,,,,,,,,,,,,,569,2023-05-16_16h49.14.391,eb_02psyexp,2022.2.4,60.00735385067755,
195,0,195,0,,,,,,,,,,,,,,,,,,,,,,,,,,,,,,,,,,,,,,,,,,,,,,,,,,,,,,,,,,,1333.9306046137644,1333.9306046137644,1333.9306046137644,1333.9306046137644,1333.9306046137644,1333.9306046137644,s,1,0.37982357070723083,1334.3305707467516,1335.347175243398,,,,,,,,,,,,,,,,,,,,,,,,,,,,,,,,,,,,,,,,,569,2023-05-16_16h49.14.391,eb_02psyexp,2022.2.4,60.00735385067755,
196,0,196,0,,,,,,,,,,,,,,,,,,,,,,,,,,,,,,,,,,,,,,,,,,,,,,,,,,,,,,,,,,,1335.347175243398,1335.347175243398,1335.347175243398,1335.347175243398,1335.347175243398,1335.347175243398,s,1,0.443242424793425,1335.8137914818217,1336.8304128817836,,,,,,,,,,,,,,,,,,,,,,,,,,,,,,,,,,,,,,,,,569,2023-05-16_16h49.14.391,eb_02psyexp,2022.2.4,60.00735385067755,
197,0,197,0,,,,,,,,,,,,,,,,,,,,,,,,,,,,,,,,,,,,,,,,,,,,,,,,,,,,,,,,,,,1336.8304128817836,1336.8304128817836,1336.8304128817836,1336.8304128817836,1336.8304128817836,1336.8304128817836,l,1,0.432027371643926,1337.2803401069395,1338.3136152043007,,,,,,,,,,,,,,,,,,,,,,,,,,,,,,,,,,,,,,,,,569,2023-05-16_16h49.14.391,eb_02psyexp,2022.2.4,60.00735385067755,
198,0,198,0,,,,,,,,,,,,,,,,,,,,,,,,,,,,,,,,,,,,,,,,,,,,,,,,,,,,,,,,,,,1338.3136152043007,1338.3136152043007,1338.3136152043007,1338.3136152043007,1338.3136152043007,1338.3136152043007,s,1,0.5088179618032882,1338.8469029791595,1339.863516832993,,,,,,,,,,,,,,,,,,,,,,,,,,,,,,,,,,,,,,,,,569,2023-05-16_16h49.14.391,eb_02psyexp,2022.2.4,60.00735385067755,
199,0,199,0,,,,,0,0,0,0,,,,,,,,,,,,,,,,,,,,,,,,,,,,,,,,,,,,,,,,,,,,,,,,,,,1339.863516832993,1339.863516832993,1339.863516832993,1339.863516832993,1339.863516832993,1339.863516832993,l,1,0.5259277470904635,1340.4134640402917,1341.4134003509826,1341.4134003509826,1341.4134003509826,space,18.191152902363683,,,,,,,,,,,,,,,,,,,,,,,,,,,,,,,,,,,,,569,2023-05-16_16h49.14.391,eb_02psyexp,2022.2.4,60.00735385067755,
199,0,199,0,,,,,,,,,,,,,,,,,,,,,,,,,,,,,,,,,,,,,,,,,,,,,,,,,,,,,,,,,,,,,,,,,,,,,,,,,,,,,,,,,,,,,,,,,,,,,,,,,,,,,,,,,,,,,,569,2023-05-16_16h49.14.391,eb_02psyexp,2022.2.4,60.00735385067755,
200,0,200,0,,,,,,,,,,,,,,,,,,,,,,,,,,,,,,,,,,,,,,,,,,,,,,,,,,,,,,,,,,,1359.6621227917785,1359.6621227917785,1359.6621227917785,1359.6621227917785,1359.6621227917785,1359.6621227917785,s,1,2.6864477415947476,1362.3785933899635,1363.3952129788522,,,,,,,,,,,,,,,,,,,,,,,,,,,,,,,,,,,,,,,,,569,2023-05-16_16h49.14.391,eb_02psyexp,2022.2.4,60.00735385067755,
201,0,201,0,,,,,,,,,,,,,,,,,,,,,,,,,,,,,,,,,,,,,,,,,,,,,,,,,,,,,,,,,,,1363.3952129788522,1363.3952129788522,1363.3952129788522,1363.3952129788522,1363.3952129788522,1363.3952129788522,l,1,0.5373577138961991,1363.961820825978,1364.9950793218595,,,,,,,,,,,,,,,,,,,,,,,,,,,,,,,,,,,,,,,,,569,2023-05-16_16h49.14.391,eb_02psyexp,2022.2.4,60.00735385067755,
202,0,202,0,,,,,,,,,,,,,,,,,,,,,,,,,,,,,,,,,,,,,,,,,,,,,,,,,,,,,,,,,,,1364.9950793218595,1364.9950793218595,1364.9950793218595,1364.9950793218595,1364.9950793218595,1364.9950793218595,s,1,0.6014895260159392,1365.628364742326,1366.644992481044,,,,,,,,,,,,,,,,,,,,,,,,,,,,,,,,,,,,,,,,,569,2023-05-16_16h49.14.391,eb_02psyexp,2022.2.4,60.00735385067755,
203,0,203,0,,,,,,,,,,,,,,,,,,,,,,,,,,,,,,,,,,,,,,,,,,,,,,,,,,,,,,,,,,,1366.644992481044,1366.644992481044,1366.644992481044,1366.644992481044,1366.644992481044,1366.644992481044,s,1,0.5036256231251173,1367.1782561082946,1368.211514604176,,,,,,,,,,,,,,,,,,,,,,,,,,,,,,,,,,,,,,,,,569,2023-05-16_16h49.14.391,eb_02psyexp,2022.2.4,60.00735385067755,
204,0,204,0,,,,,,,,,,,,,,,,,,,,,,,,,,,,,,,,,,,,,,,,,,,,,,,,,,,,,,,,,,,1368.211514604176,1368.211514604176,1368.211514604176,1368.211514604176,1368.211514604176,1368.211514604176,s,1,0.5210469125013333,1368.7614938070474,1369.7780992092303,,,,,,,,,,,,,,,,,,,,,,,,,,,,,,,,,,,,,,,,,569,2023-05-16_16h49.14.391,eb_02psyexp,2022.2.4,60.00735385067755,
205,0,205,0,,,,,,,,,,,,,,,,,,,,,,,,,,,,,,,,,,,,,,,,,,,,,,,,,,,,,,,,,,,1369.7780992092303,1369.7780992092303,1369.7780992092303,1369.7780992092303,1369.7780992092303,1369.7780992092303,l,1,0.4585148791811662,1370.2613772948534,1371.2779826970364,,,,,,,,,,,,,,,,,,,,,,,,,,,,,,,,,,,,,,,,,569,2023-05-16_16h49.14.391,eb_02psyexp,2022.2.4,60.00735385067755,
206,0,206,0,,,,,,,,,,,,,,,,,,,,,,,,,,,,,,,,,,,,,,,,,,,,,,,,,,,,,,,,,,,1371.2779826970364,1371.2779826970364,1371.2779826970364,1371.2779826970364,1371.2779826970364,1371.2779826970364,s,1,0.3816575812670635,1371.6779427931178,1372.7112034019228,,,,,,,,,,,,,,,,,,,,,,,,,,,,,,,,,,,,,,,,,569,2023-05-16_16h49.14.391,eb_02psyexp,2022.2.4,60.00735385067755,
207,0,207,0,,,,,,,,,,,,,,,,,,,,,,,,,,,,,,,,,,,,,,,,,,,,,,,,,,,,,,,,,,,1372.7112034019228,1372.7112034019228,1372.7112034019228,1372.7112034019228,1372.7112034019228,1372.7112034019228,s,1,0.46040805138181895,1373.1945032203948,1374.211127035116,,,,,,,,,,,,,,,,,,,,,,,,,,,,,,,,,,,,,,,,,569,2023-05-16_16h49.14.391,eb_02psyexp,2022.2.4,60.00735385067755,
208,0,208,0,,,,,,,,,,,,,,,,,,,,,,,,,,,,,,,,,,,,,,,,,,,,,,,,,,,,,,,,,,,1374.211127035116,1374.211127035116,1374.211127035116,1374.211127035116,1374.211127035116,1374.211127035116,s,1,0.43250247577088885,1374.6610826337128,1375.6776732454891,,,,,,,,,,,,,,,,,,,,,,,,,,,,,,,,,,,,,,,,,569,2023-05-16_16h49.14.391,eb_02psyexp,2022.2.4,60.00735385067755,
209,0,209,0,,,,,,,,,,,,,,,,,,,,,,,,,,,,,,,,,,,,,,,,,,,,,,,,,,,,,,,,,,,1375.6776732454891,1375.6776732454891,1375.6776732454891,1375.6776732454891,1375.6776732454891,1375.6776732454891,s,1,0.4220018898922717,1376.12763940866,1377.1442490366608,,,,,,,,,,,,,,,,,,,,,,,,,,,,,,,,,,,,,,,,,569,2023-05-16_16h49.14.391,eb_02psyexp,2022.2.4,60.00735385067755,
210,0,210,0,,,,,,,,,,,,,,,,,,,,,,,,,,,,,,,,,,,,,,,,,,,,,,,,,,,,,,,,,,,1377.1442490366608,1377.1442490366608,1377.1442490366608,1377.1442490366608,1377.1442490366608,1377.1442490366608,l,1,0.41141859846538864,1377.57752980871,1378.5941421533353,,,,,,,,,,,,,,,,,,,,,,,,,,,,,,,,,,,,,,,,,569,2023-05-16_16h49.14.391,eb_02psyexp,2022.2.4,60.00735385067755,
211,0,211,0,,,,,,,,,,,,,,,,,,,,,,,,,,,,,,,,,,,,,,,,,,,,,,,,,,,,,,,,,,,1378.5941421533353,1378.5941421533353,1378.5941421533353,1378.5941421533353,1378.5941421533353,1378.5941421533353,s,1,0.41752100001031067,1379.044117070007,1380.060704059637,,,,,,,,,,,,,,,,,,,,,,,,,,,,,,,,,,,,,,,,,569,2023-05-16_16h49.14.391,eb_02psyexp,2022.2.4,60.00735385067755,
212,0,212,0,,,,,,,,,,,,,,,,,,,,,,,,,,,,,,,,,,,,,,,,,,,,,,,,,,,,,,,,,,,1380.060704059637,1380.060704059637,1380.060704059637,1380.060704059637,1380.060704059637,1380.060704059637,s,1,0.3749644689523848,1380.4606665704778,1381.477278915103,,,,,,,,,,,,,,,,,,,,,,,,,,,,,,,,,,,,,,,,,569,2023-05-16_16h49.14.391,eb_02psyexp,2022.2.4,60.00735385067755,
213,0,213,0,,,,,,,,,,,,,,,,,,,,,,,,,,,,,,,,,,,,,,,,,,,,,,,,,,,,,,,,,,,1381.477278915103,1381.477278915103,1381.477278915103,1381.477278915103,1381.477278915103,1381.477278915103,l,1,0.43040465260855854,1381.927230589703,1382.9438317660533,,,,,,,,,,,,,,,,,,,,,,,,,,,,,,,,,,,,,,,,,569,2023-05-16_16h49.14.391,eb_02psyexp,2022.2.4,60.00735385067755,
214,0,214,0,,,,,,,,,,,,,,,,,,,,,,,,,,,,,,,,,,,,,,,,,,,,,,,,,,,,,,,,,,,1382.9438317660533,1382.9438317660533,1382.9438317660533,1382.9438317660533,1382.9438317660533,1382.9438317660533,s,1,0.4198491309361998,1383.3937900812598,1384.41038823915,,,,,,,,,,,,,,,,,,,,,,,,,,,,,,,,,,,,,,,,,569,2023-05-16_16h49.14.391,eb_02psyexp,2022.2.4,60.00735385067755,
215,0,215,0,,,,,,,,,,,,,,,,,,,,,,,,,,,,,,,,,,,,,,,,,,,,,,,,,,,,,,,,,,,1384.41038823915,1384.41038823915,1384.41038823915,1384.41038823915,1384.41038823915,1384.41038823915,l,1,0.4893362780712778,1384.9270165815542,1385.9602802088048,,,,,,,,,,,,,,,,,,,,,,,,,,,,,,,,,,,,,,,,,569,2023-05-16_16h49.14.391,eb_02psyexp,2022.2.4,60.00735385067755,
216,0,216,0,,,,,,,,,,,,,,,,,,,,,,,,,,,,,,,,,,,,,,,,,,,,,,,,,,,,,,,,,,,1385.9602802088048,1385.9602802088048,1385.9602802088048,1385.9602802088048,1385.9602802088048,1385.9602802088048,s,1,0.46647392967133783,1386.4435748959077,1387.4602098789037,,,,,,,,,,,,,,,,,,,,,,,,,,,,,,,,,,,,,,,,,569,2023-05-16_16h49.14.391,eb_02psyexp,2022.2.4,60.00735385067755,
217,0,217,0,,,,,,,,,,,,,,,,,,,,,,,,,,,,,,,,,,,,,,,,,,,,,,,,,,,,,,,,,,,1387.4602098789037,1387.4602098789037,1387.4602098789037,1387.4602098789037,1387.4602098789037,1387.4602098789037,s,1,0.5105007480015047,1387.9934701858583,1389.0100885673746,,,,,,,,,,,,,,,,,,,,,,,,,,,,,,,,,,,,,,,,,569,2023-05-16_16h49.14.391,eb_02psyexp,2022.2.4,60.00735385067755,
218,0,218,0,,,,,,,,,,,,,,,,,,,,,,,,,,,,,,,,,,,,,,,,,,,,,,,,,,,,,,,,,,,1389.0100885673746,1389.0100885673746,1389.0100885673746,1389.0100885673746,1389.0100885673746,1389.0100885673746,l,1,0.44862673692114186,1389.476709635317,1390.493316244887,,,,,,,,,,,,,,,,,,,,,,,,,,,,,,,,,,,,,,,,,569,2023-05-16_16h49.14.391,eb_02psyexp,2022.2.4,60.00735385067755,
219,0,219,0,,,,,,,,,,,,,,,,,,,,,,,,,,,,,,,,,,,,,,,,,,,,,,,,,,,,,,,,,,,1390.493316244887,1390.493316244887,1390.493316244887,1390.493316244887,1390.493316244887,1390.493316244887,s,1,0.45340735896024853,1390.976589199141,1391.993210297267,,,,,,,,,,,,,,,,,,,,,,,,,,,,,,,,,,,,,,,,,569,2023-05-16_16h49.14.391,eb_02psyexp,2022.2.4,60.00735385067755,
220,0,220,0,,,,,,,,,,,,,,,,,,,,,,,,,,,,,,,,,,,,,,,,,,,,,,,,,,,,,,,,,,,1391.993210297267,1391.993210297267,1391.993210297267,1391.993210297267,1391.993210297267,1391.993210297267,l,1,0.4975289566355059,1392.509811171767,1393.5264268366882,,,,,,,,,,,,,,,,,,,,,,,,,,,,,,,,,,,,,,,,,569,2023-05-16_16h49.14.391,eb_02psyexp,2022.2.4,60.00735385067755,
221,0,221,0,,,,,,,,,,,,,,,,,,,,,,,,,,,,,,,,,,,,,,,,,,,,,,,,,,,,,,,,,,,1393.5264268366882,1393.5264268366882,1393.5264268366882,1393.5264268366882,1393.5264268366882,1393.5264268366882,s,1,0.3643322786228964,1393.909735348294,1394.9429820722144,,,,,,,,,,,,,,,,,,,,,,,,,,,,,,,,,,,,,,,,,569,2023-05-16_16h49.14.391,eb_02psyexp,2022.2.4,60.00735385067755,
222,0,222,0,,,,,,,,,,,,,,,,,,,,,,,,,,,,,,,,,,,,,,,,,,,,,,,,,,,,,,,,,,,1394.9429820722144,1394.9429820722144,1394.9429820722144,1394.9429820722144,1394.9429820722144,1394.9429820722144,s,1,0.5397724743525032,1395.5096041060606,1396.526225506037,,,,,,,,,,,,,,,,,,,,,,,,,,,,,,,,,,,,,,,,,569,2023-05-16_16h49.14.391,eb_02psyexp,2022.2.4,60.00735385067755,
223,0,223,0,,,,,,,,,,,,,,,,,,,,,,,,,,,,,,,,,,,,,,,,,,,,,,,,,,,,,,,,,,,1396.526225506037,1396.526225506037,1396.526225506037,1396.526225506037,1396.526225506037,1396.526225506037,l,1,0.3725306922424352,1396.9261925445462,1397.9427900987648,,,,,,,,,,,,,,,,,,,,,,,,,,,,,,,,,,,,,,,,,569,2023-05-16_16h49.14.391,eb_02psyexp,2022.2.4,60.00735385067755,
224,0,224,0,,,,,,,,,,,,,,,,,,,,,,,,,,,,,,,,,,,,,,,,,,,,,,,,,,,,,,,,,,,1397.9427900987648,1397.9427900987648,1397.9427900987648,1397.9427900987648,1397.9427900987648,1397.9427900987648,l,1,0.6199669712514151,1398.592745214395,1399.609331298503,,,,,,,,,,,,,,,,,,,,,,,,,,,,,,,,,,,,,,,,,569,2023-05-16_16h49.14.391,eb_02psyexp,2022.2.4,60.00735385067755,
225,0,225,0,,,,,,,,,,,,,,,,,,,,,,,,,,,,,,,,,,,,,,,,,,,,,,,,,,,,,,,,,,,1399.609331298503,1399.609331298503,1399.609331298503,1399.609331298503,1399.609331298503,1399.609331298503,s,1,0.7214729366096435,1400.3592704767216,1401.375873765981,,,,,,,,,,,,,,,,,,,,,,,,,,,,,,,,,,,,,,,,,569,2023-05-16_16h49.14.391,eb_02psyexp,2022.2.4,60.00735385067755,
226,0,226,0,,,,,,,,,,,,,,,,,,,,,,,,,,,,,,,,,,,,,,,,,,,,,,,,,,,,,,,,,,,1401.375873765981,1401.375873765981,1401.375873765981,1401.375873765981,1401.375873765981,1401.375873765981,l,1,0.5939584918087348,1401.992488887583,1403.025757042502,,,,,,,,,,,,,,,,,,,,,,,,,,,,,,,,,,,,,,,,,569,2023-05-16_16h49.14.391,eb_02psyexp,2022.2.4,60.00735385067755,
227,0,227,0,,,,,,,,,,,,,,,,,,,,,,,,,,,,,,,,,,,,,,,,,,,,,,,,,,,,,,,,,,,1403.025757042502,1403.025757042502,1403.025757042502,1403.025757042502,1403.025757042502,1403.025757042502,l,1,2.0800464530911995,1405.1255941065465,1406.1588595448557,,,,,,,,,,,,,,,,,,,,,,,,,,,,,,,,,,,,,,,,,569,2023-05-16_16h49.14.391,eb_02psyexp,2022.2.4,60.00735385067755,
228,0,228,0,,,,,,,,,,,,,,,,,,,,,,,,,,,,,,,,,,,,,,,,,,,,,,,,,,,,,,,,,,,1406.1588595448557,1406.1588595448557,1406.1588595448557,1406.1588595448557,1406.1588595448557,1406.1588595448557,s,1,0.5709551817708416,1406.758820667208,1407.7754405579617,,,,,,,,,,,,,,,,,,,,,,,,,,,,,,,,,,,,,,,,,569,2023-05-16_16h49.14.391,eb_02psyexp,2022.2.4,60.00735385067755,
229,0,229,0,,,,,,,,,,,,,,,,,,,,,,,,,,,,,,,,,,,,,,,,,,,,,,,,,,,,,,,,,,,1407.7754405579617,1407.7754405579617,1407.7754405579617,1407.7754405579617,1407.7754405579617,1407.7754405579617,l,1,0.7783834075526102,1408.5753589390515,1409.6086240755249,,,,,,,,,,,,,,,,,,,,,,,,,,,,,,,,,,,,,,,,,569,2023-05-16_16h49.14.391,eb_02psyexp,2022.2.4,60.00735385067755,
230,0,230,0,,,,,,,,,,,,,,,,,,,,,,,,,,,,,,,,,,,,,,,,,,,,,,,,,,,,,,,,,,,1409.6086240755249,1409.6086240755249,1409.6086240755249,1409.6086240755249,1409.6086240755249,1409.6086240755249,s,1,0.5132128258555895,1410.141910944847,1411.1585193654755,,,,,,,,,,,,,,,,,,,,,,,,,,,,,,,,,,,,,,,,,569,2023-05-16_16h49.14.391,eb_02psyexp,2022.2.4,60.00735385067755,
231,0,231,0,,,,,,,,,,,,,,,,,,,,,,,,,,,,,,,,,,,,,,,,,,,,,,,,,,,,,,,,,,,1411.1585193654755,1411.1585193654755,1411.1585193654755,1411.1585193654755,1411.1585193654755,1411.1585193654755,l,1,0.6033250458131079,1411.7918201800348,1412.8250210235128,,,,,,,,,,,,,,,,,,,,,,,,,,,,,,,,,,,,,,,,,569,2023-05-16_16h49.14.391,eb_02psyexp,2022.2.4,60.00735385067755,
232,0,232,0,,,,,,,,,,,,,,,,,,,,,,,,,,,,,,,,,,,,,,,,,,,,,,,,,,,,,,,,,,,1412.8250210235128,1412.8250210235128,1412.8250210235128,1412.8250210235128,1412.8250210235128,1412.8250210235128,s,1,0.560834015137516,1413.4083387112041,1414.4416135067295,,,,,,,,,,,,,,,,,,,,,,,,,,,,,,,,,,,,,,,,,569,2023-05-16_16h49.14.391,eb_02psyexp,2022.2.4,60.00735385067755,
233,0,233,0,,,,,,,,,,,,,,,,,,,,,,,,,,,,,,,,,,,,,,,,,,,,,,,,,,,,,,,,,,,1414.4416135067295,1414.4416135067295,1414.4416135067295,1414.4416135067295,1414.4416135067295,1414.4416135067295,l,1,0.5522368641832145,1415.0249064431264,1416.0581712777494,,,,,,,,,,,,,,,,,,,,,,,,,,,,,,,,,,,,,,,,,569,2023-05-16_16h49.14.391,eb_02psyexp,2022.2.4,60.00735385067755,
234,0,234,0,,,,,,,,,,,,,,,,,,,,,,,,,,,,,,,,,,,,,,,,,,,,,,,,,,,,,,,,,,,1416.0581712777494,1416.0581712777494,1416.0581712777494,1416.0581712777494,1416.0581712777494,1416.0581712777494,s,1,0.43970238594920374,1416.5248071360984,1417.5414110290585,,,,,,,,,,,,,,,,,,,,,,,,,,,,,,,,,,,,,,,,,569,2023-05-16_16h49.14.391,eb_02psyexp,2022.2.4,60.00735385067755,
235,0,235,0,,,,,,,,,,,,,,,,,,,,,,,,,,,,,,,,,,,,,,,,,,,,,,,,,,,,,,,,,,,1417.5414110290585,1417.5414110290585,1417.5414110290585,1417.5414110290585,1417.5414110290585,1417.5414110290585,s,1,0.7154677291837288,1418.274673569671,1419.2913094582036,,,,,,,,,,,,,,,,,,,,,,,,,,,,,,,,,,,,,,,,,569,2023-05-16_16h49.14.391,eb_02psyexp,2022.2.4,60.00735385067755,
236,0,236,0,,,,,,,,,,,,,,,,,,,,,,,,,,,,,,,,,,,,,,,,,,,,,,,,,,,,,,,,,,,1419.2913094582036,1419.2913094582036,1419.2913094582036,1419.2913094582036,1419.2913094582036,1419.2913094582036,l,1,0.48558042000513524,1419.8079115400906,1420.8245145274996,,,,,,,,,,,,,,,,,,,,,,,,,,,,,,,,,,,,,,,,,569,2023-05-16_16h49.14.391,eb_02psyexp,2022.2.4,60.00735385067755,
237,0,237,0,,,,,,,,,,,,,,,,,,,,,,,,,,,,,,,,,,,,,,,,,,,,,,,,,,,,,,,,,,,1420.8245145274996,1420.8245145274996,1420.8245145274996,1420.8245145274996,1420.8245145274996,1420.8245145274996,s,1,0.5363927152502583,1421.3911338447506,1422.424373324393,,,,,,,,,,,,,,,,,,,,,,,,,,,,,,,,,,,,,,,,,569,2023-05-16_16h49.14.391,eb_02psyexp,2022.2.4,60.00735385067755,
238,0,238,0,,,,,,,,,,,,,,,,,,,,,,,,,,,,,,,,,,,,,,,,,,,,,,,,,,,,,,,,,,,1422.424373324393,1422.424373324393,1422.424373324393,1422.424373324393,1422.424373324393,1422.424373324393,s,1,0.48852008904214017,1422.941018871963,1423.9742821973632,,,,,,,,,,,,,,,,,,,,,,,,,,,,,,,,,,,,,,,,,569,2023-05-16_16h49.14.391,eb_02psyexp,2022.2.4,60.00735385067755,
239,0,239,0,,,,,,,,,,,,,,,,,,,,,,,,,,,,,,,,,,,,,,,,,,,,,,,,,,,,,,,,,,,1423.9742821973632,1423.9742821973632,1423.9742821973632,1423.9742821973632,1423.9742821973632,1423.9742821973632,l,1,0.514639647459262,1424.5075751035765,1425.5408384289913,,,,,,,,,,,,,,,,,,,,,,,,,,,,,,,,,,,,,,,,,569,2023-05-16_16h49.14.391,eb_02psyexp,2022.2.4,60.00735385067755,
240,0,240,0,,,,,,,,,,,,,,,,,,,,,,,,,,,,,,,,,,,,,,,,,,,,,,,,,,,,,,,,,,,1425.5408384289913,1425.5408384289913,1425.5408384289913,1425.5408384289913,1425.5408384289913,1425.5408384289913,s,1,0.5320926305430476,1426.0908019359194,1427.1074486908765,,,,,,,,,,,,,,,,,,,,,,,,,,,,,,,,,,,,,,,,,569,2023-05-16_16h49.14.391,eb_02psyexp,2022.2.4,60.00735385067755,
241,0,241,0,,,,,,,,,,,,,,,,,,,,,,,,,,,,,,,,,,,,,,,,,,,,,,,,,,,,,,,,,,,1427.1074486908765,1427.1074486908765,1427.1074486908765,1427.1074486908765,1427.1074486908765,1427.1074486908765,l,1,0.5174724633252481,1427.6573657136614,1428.7572897090868,,,,,,,,,,,,,,,,,,,,,,,,,,,,,,,,,,,,,,,,,569,2023-05-16_16h49.14.391,eb_02psyexp,2022.2.4,60.00735385067755,
242,0,242,0,,,,,,,,,,,,,,,,,,,,,,,,,,,,,,,,,,,,,,,,,,,,,,,,,,,,,,,,,,,1428.7572897090868,1428.7572897090868,1428.7572897090868,1428.7572897090868,1428.7572897090868,1428.7572897090868,s,1,0.45964951475616544,1429.2405801703571,1430.2571985518734,,,,,,,,,,,,,,,,,,,,,,,,,,,,,,,,,,,,,,,,,569,2023-05-16_16h49.14.391,eb_02psyexp,2022.2.4,60.00735385067755,
243,0,243,0,,,,,,,,,,,,,,,,,,,,,,,,,,,,,,,,,,,,,,,,,,,,,,,,,,,,,,,,,,,1430.2571985518734,1430.2571985518734,1430.2571985518734,1430.2571985518734,1430.2571985518734,1430.2571985518734,l,0,0.4957556169247255,1430.7738054632791,1431.8070669776062,,,,,,,,,,,,,,,,,,,,,,,,,,,,,,,,,,,,,,,,,569,2023-05-16_16h49.14.391,eb_02psyexp,2022.2.4,60.00735385067755,
244,0,244,0,,,,,,,,,,,,,,,,,,,,,,,,,,,,,,,,,,,,,,,,,,,,,,,,,,,,,,,,,,,1431.8070669776062,1431.8070669776062,1431.8070669776062,1431.8070669776062,1431.8070669776062,1431.8070669776062,s,1,0.46494387708662543,1432.290366192392,1433.3069851775945,,,,,,,,,,,,,,,,,,,,,,,,,,,,,,,,,,,,,,,,,569,2023-05-16_16h49.14.391,eb_02psyexp,2022.2.4,60.00735385067755,
245,0,245,0,,,,,,,,,,,,,,,,,,,,,,,,,,,,,,,,,,,,,,,,,,,,,,,,,,,,,,,,,,,1433.3069851775945,1433.3069851775945,1433.3069851775945,1433.3069851775945,1433.3069851775945,1433.3069851775945,l,1,0.5409886081033619,1433.8735887989023,1434.9068575575075,,,,,,,,,,,,,,,,,,,,,,,,,,,,,,,,,,,,,,,,,569,2023-05-16_16h49.14.391,eb_02psyexp,2022.2.4,60.00735385067755,
246,0,246,0,,,,,,,,,,,,,,,,,,,,,,,,,,,,,,,,,,,,,,,,,,,,,,,,,,,,,,,,,,,1434.9068575575075,1434.9068575575075,1434.9068575575075,1434.9068575575075,1434.9068575575075,1434.9068575575075,s,1,0.46911899792030454,1435.4068143936602,1436.440076511688,,,,,,,,,,,,,,,,,,,,,,,,,,,,,,,,,,,,,,,,,569,2023-05-16_16h49.14.391,eb_02psyexp,2022.2.4,60.00735385067755,
247,0,247,0,,,,,,,,,,,,,,,,,,,,,,,,,,,,,,,,,,,,,,,,,,,,,,,,,,,,,,,,,,,1436.440076511688,1436.440076511688,1436.440076511688,1436.440076511688,1436.440076511688,1436.440076511688,l,1,0.6319420702347998,1437.0900349476287,1438.1063267327845,,,,,,,,,,,,,,,,,,,,,,,,,,,,,,,,,,,,,,,,,569,2023-05-16_16h49.14.391,eb_02psyexp,2022.2.4,60.00735385067755,
248,0,248,0,,,,,,,,,,,,,,,,,,,,,,,,,,,,,,,,,,,,,,,,,,,,,,,,,,,,,,,,,,,1438.1063267327845,1438.1063267327845,1438.1063267327845,1438.1063267327845,1438.1063267327845,1438.1063267327845,s,1,0.5657003611704567,1438.6899209105613,1439.7231772935338,,,,,,,,,,,,,,,,,,,,,,,,,,,,,,,,,,,,,,,,,569,2023-05-16_16h49.14.391,eb_02psyexp,2022.2.4,60.00735385067755,
249,0,249,0,,,,,,,,,,,,,,,,,,,,,,,,,,,,,,,,,,,,,,,,,,,,,,,,,,,,,,,,,,,1439.7231772935338,1439.7231772935338,1439.7231772935338,1439.7231772935338,1439.7231772935338,1439.7231772935338,l,1,0.5008344618690899,1440.2564922344318,1441.28973503437,,,,,,,,,,,,,,,,,,,,,,,,,,,,,,,,,,,,,,,,,569,2023-05-16_16h49.14.391,eb_02psyexp,2022.2.4,60.00735385067755,
250,0,250,0,,,,,,,,,,,,,,,,,,,,,,,,,,,,,,,,,,,,,,,,,,,,,,,,,,,,,,,,,,,1441.28973503437,1441.28973503437,1441.28973503437,1441.28973503437,1441.28973503437,1441.28973503437,s,1,0.5502603827480925,1441.873032196614,1442.889638504319,,,,,,,,,,,,,,,,,,,,,,,,,,,,,,,,,,,,,,,,,569,2023-05-16_16h49.14.391,eb_02psyexp,2022.2.4,60.00735385067755,
251,0,251,0,,,,,,,,,,,,,,,,,,,,,,,,,,,,,,,,,,,,,,,,,,,,,,,,,,,,,,,,,,,1442.889638504319,1442.889638504319,1442.889638504319,1442.889638504319,1442.889638504319,1442.889638504319,l,1,0.47038252133643255,1443.3895938312635,1444.422852327145,,,,,,,,,,,,,,,,,,,,,,,,,,,,,,,,,,,,,,,,,569,2023-05-16_16h49.14.391,eb_02psyexp,2022.2.4,60.00735385067755,
252,0,252,0,,,,,,,,,,,,,,,,,,,,,,,,,,,,,,,,,,,,,,,,,,,,,,,,,,,,,,,,,,,1444.422852327145,1444.422852327145,1444.422852327145,1444.422852327145,1444.422852327145,1444.422852327145,s,1,0.5451827451906865,1444.9894939809164,1446.0060948554164,,,,,,,,,,,,,,,,,,,,,,,,,,,,,,,,,,,,,,,,,569,2023-05-16_16h49.14.391,eb_02psyexp,2022.2.4,60.00735385067755,
253,0,253,0,,,,,,,,,,,,,,,,,,,,,,,,,,,,,,,,,,,,,,,,,,,,,,,,,,,,,,,,,,,1446.0060948554164,1446.0060948554164,1446.0060948554164,1446.0060948554164,1446.0060948554164,1446.0060948554164,s,1,0.5939310239045881,1446.6226976013568,1447.6559630396805,,,,,,,,,,,,,,,,,,,,,,,,,,,,,,,,,,,,,,,,,569,2023-05-16_16h49.14.391,eb_02psyexp,2022.2.4,60.00735385067755,
254,0,254,0,,,,,,,,,,,,,,,,,,,,,,,,,,,,,,,,,,,,,,,,,,,,,,,,,,,,,,,,,,,1447.6559630396805,1447.6559630396805,1447.6559630396805,1447.6559630396805,1447.6559630396805,1447.6559630396805,s,1,0.5110857237305027,1448.189254436671,1449.205827541431,,,,,,,,,,,,,,,,,,,,,,,,,,,,,,,,,,,,,,,,,569,2023-05-16_16h49.14.391,eb_02psyexp,2022.2.4,60.00735385067755,
255,0,255,0,,,,,,,,,,,,,,,,,,,,,,,,,,,,,,,,,,,,,,,,,,,,,,,,,,,,,,,,,,,1449.205827541431,1449.205827541431,1449.205827541431,1449.205827541431,1449.205827541431,1449.205827541431,s,1,0.4252355560020078,1449.6558154374507,1450.6890851015924,,,,,,,,,,,,,,,,,,,,,,,,,,,,,,,,,,,,,,,,,569,2023-05-16_16h49.14.391,eb_02psyexp,2022.2.4,60.00735385067755,
256,0,256,0,,,,,,,,,,,,,,,,,,,,,,,,,,,,,,,,,,,,,,,,,,,,,,,,,,,,,,,,,,,1450.6890851015924,1450.6890851015924,1450.6890851015924,1450.6890851015924,1450.6890851015924,1450.6890851015924,s,1,0.30198437080252916,1451.0223881498096,1452.0389953630656,,,,,,,,,,,,,,,,,,,,,,,,,,,,,,,,,,,,,,,,,569,2023-05-16_16h49.14.391,eb_02psyexp,2022.2.4,60.00735385067755,
257,0,257,0,,,,,,,,,,,,,,,,,,,,,,,,,,,,,,,,,,,,,,,,,,,,,,,,,,,,,,,,,,,1452.0389953630656,1452.0389953630656,1452.0389953630656,1452.0389953630656,1452.0389953630656,1452.0389953630656,s,1,0.6160776976757916,1452.6722729355533,1453.7055362609535,,,,,,,,,,,,,,,,,,,,,,,,,,,,,,,,,,,,,,,,,569,2023-05-16_16h49.14.391,eb_02psyexp,2022.2.4,60.00735385067755,
258,0,258,0,,,,,,,,,,,,,,,,,,,,,,,,,,,,,,,,,,,,,,,,,,,,,,,,,,,,,,,,,,,1453.7055362609535,1453.7055362609535,1453.7055362609535,1453.7055362609535,1453.7055362609535,1453.7055362609535,l,1,0.5015498346620006,1454.2388285634806,1455.25544875607,,,,,,,,,,,,,,,,,,,,,,,,,,,,,,,,,,,,,,,,,569,2023-05-16_16h49.14.391,eb_02psyexp,2022.2.4,60.00735385067755,
259,0,259,0,,,,,,,,,,,,,,,,,,,,,,,,,,,,,,,,,,,,,,,,,,,,,,,,,,,,,,,,,,,1455.25544875607,1455.25544875607,1455.25544875607,1455.25544875607,1455.25544875607,1455.25544875607,s,1,0.5756307617411949,1455.8553827123687,1456.8886541875981,,,,,,,,,,,,,,,,,,,,,,,,,,,,,,,,,,,,,,,,,569,2023-05-16_16h49.14.391,eb_02psyexp,2022.2.4,60.00735385067755,
260,0,260,0,,,,,,,,,,,,,,,,,,,,,,,,,,,,,,,,,,,,,,,,,,,,,,,,,,,,,,,,,,,1456.8886541875981,1456.8886541875981,1456.8886541875981,1456.8886541875981,1456.8886541875981,1456.8886541875981,l,1,0.5344775083503919,1457.4552668642427,1458.4718710590387,,,,,,,,,,,,,,,,,,,,,,,,,,,,,,,,,,,,,,,,,569,2023-05-16_16h49.14.391,eb_02psyexp,2022.2.4,60.00735385067755,
261,0,261,0,,,,,,,,,,,,,,,,,,,,,,,,,,,,,,,,,,,,,,,,,,,,,,,,,,,,,,,,,,,1458.4718710590387,1458.4718710590387,1458.4718710590387,1458.4718710590387,1458.4718710590387,1458.4718710590387,s,1,0.7352476358355489,1459.2384844601183,1460.2551103877631,,,,,,,,,,,,,,,,,,,,,,,,,,,,,,,,,,,,,,,,,569,2023-05-16_16h49.14.391,eb_02psyexp,2022.2.4,60.00735385067755,
262,0,262,0,,,,,,,,,,,,,,,,,,,,,,,,,,,,,,,,,,,,,,,,,,,,,,,,,,,,,,,,,,,1460.2551103877631,1460.2551103877631,1460.2551103877631,1460.2551103877631,1460.2551103877631,1460.2551103877631,l,1,0.5600139021116775,1460.8383761581063,1461.854974617847,,,,,,,,,,,,,,,,,,,,,,,,,,,,,,,,,,,,,,,,,569,2023-05-16_16h49.14.391,eb_02psyexp,2022.2.4,60.00735385067755,
263,0,263,0,,,,,,,,,,,,,,,,,,,,,,,,,,,,,,,,,,,,,,,,,,,,,,,,,,,,,,,,,,,1461.854974617847,1461.854974617847,1461.854974617847,1461.854974617847,1461.854974617847,1461.854974617847,s,1,0.9201561073568882,1462.804901541167,1463.838155811216,,,,,,,,,,,,,,,,,,,,,,,,,,,,,,,,,,,,,,,,,569,2023-05-16_16h49.14.391,eb_02psyexp,2022.2.4,60.00735385067755,
264,0,264,0,,,,,,,,,,,,,,,,,,,,,,,,,,,,,,,,,,,,,,,,,,,,,,,,,,,,,,,,,,,1463.838155811216,1463.838155811216,1463.838155811216,1463.838155811216,1463.838155811216,1463.838155811216,l,1,0.47199105365143623,1464.3381404171232,1465.3713865373575,,,,,,,,,,,,,,,,,,,,,,,,,,,,,,,,,,,,,,,,,569,2023-05-16_16h49.14.391,eb_02psyexp,2022.2.4,60.00735385067755,
265,0,265,0,,,,,,,,,,,,,,,,,,,,,,,,,,,,,,,,,,,,,,,,,,,,,,,,,,,,,,,,,,,1465.3713865373575,1465.3713865373575,1465.3713865373575,1465.3713865373575,1465.3713865373575,1465.3713865373575,s,1,0.5627531460195314,1465.954674946086,1466.9709449984075,,,,,,,,,,,,,,,,,,,,,,,,,,,,,,,,,,,,,,,,,569,2023-05-16_16h49.14.391,eb_02psyexp,2022.2.4,60.00735385067755,
266,0,266,0,,,,,,,,,,,,,,,,,,,,,,,,,,,,,,,,,,,,,,,,,,,,,,,,,,,,,,,,,,,1466.9709449984075,1466.9709449984075,1466.9709449984075,1466.9709449984075,1466.9709449984075,1466.9709449984075,s,1,0.5232168766087852,1467.5212338943093,1468.5378483518434,,,,,,,,,,,,,,,,,,,,,,,,,,,,,,,,,,,,,,,,,569,2023-05-16_16h49.14.391,eb_02psyexp,2022.2.4,60.00735385067755,
267,0,267,0,,,,,,,,,,,,,,,,,,,,,,,,,,,,,,,,,,,,,,,,,,,,,,,,,,,,,,,,,,,1468.5378483518434,1468.5378483518434,1468.5378483518434,1468.5378483518434,1468.5378483518434,1468.5378483518434,l,1,0.43631779731367715,1469.0044618736574,1470.0210588241753,,,,,,,,,,,,,,,,,,,,,,,,,,,,,,,,,,,,,,,,,569,2023-05-16_16h49.14.391,eb_02psyexp,2022.2.4,60.00735385067755,
268,0,268,0,,,,,,,,,,,,,,,,,,,,,,,,,,,,,,,,,,,,,,,,,,,,,,,,,,,,,,,,,,,1470.0210588241753,1470.0210588241753,1470.0210588241753,1470.0210588241753,1470.0210588241753,1470.0210588241753,s,1,0.4571218642377062,1470.5043568315741,1471.5209208809829,,,,,,,,,,,,,,,,,,,,,,,,,,,,,,,,,,,,,,,,,569,2023-05-16_16h49.14.391,eb_02psyexp,2022.2.4,60.00735385067755,
269,0,269,0,,,,,,,,,,,,,,,,,,,,,,,,,,,,,,,,,,,,,,,,,,,,,,,,,,,,,,,,,,,1471.5209208809829,1471.5209208809829,1471.5209208809829,1471.5209208809829,1471.5209208809829,1471.5209208809829,l,1,0.5092695220228052,1472.0542445753963,1473.087526011499,,,,,,,,,,,,,,,,,,,,,,,,,,,,,,,,,,,,,,,,,569,2023-05-16_16h49.14.391,eb_02psyexp,2022.2.4,60.00735385067755,
