trials.thisRepN,trials.thisTrialN,trials.thisN,trials.thisIndex,image_loop.thisRepN,image_loop.thisTrialN,image_loop.thisN,image_loop.thisIndex,break_loop.thisRepN,break_loop.thisTrialN,break_loop.thisN,break_loop.thisIndex,test_trials.thisRepN,test_trials.thisTrialN,test_trials.thisN,test_trials.thisIndex,distance matrix,tools,welcome_text.started,instructions_0_keypress.started,instructions_0_keypress.keys,instructions_0_keypress.rt,consent_image_0.started,consent0_key_resp.started,consent0_text.started,consent0_key_resp.keys,consent0_key_resp.rt,consent_image_1.started,consent1_key_resp.started,consent1_text.started,consent1_key_resp.keys,consent1_key_resp.rt,consent2_text.started,consent_image_2.started,consent2_key_resp.started,consent2_key_resp.keys,consent2_key_resp.rt,agree_button.started,disagree_button.started,consent_image_3.started,agree_button.numClicks,agree_button.timesOn,agree_button.timesOff,disagree_button.numClicks,disagree_button.timesOn,disagree_button.timesOff,instructions_text1.started,instructions1_key_resp.started,instr1_cnt_text.started,instructions1_key_resp.keys,instructions1_key_resp.rt,instructions_text2.started,instr2_cnt_text.started,instructions2_key_resp.started,instructions2_key_resp.keys,instructions2_key_resp.rt,instructions_text3.started,instructions3_key_resp.started,instr3_cnt_text.started,instructions3_key_resp.keys,instructions3_key_resp.rt,text_countdown.started,image.started,small_large_keyresp.started,task_question_text.started,smalleroption_text.started,largeroption_text.started,accuracy_score_text.started,small_large_keyresp.keys,small_large_keyresp.corr,small_large_keyresp.rt,fb_2.started,fb_2.stopped,break_text.started,break_key_resp.started,break_key_resp.keys,break_key_resp.rt,reveal_seq_text.started,start_test_text.started,continue_to_test.started,continue_to_test.keys,continue_to_test.rt,test_structure_info.started,start_test_text_2.started,continue_to_test_2.started,continue_to_test_2.keys,continue_to_test_2.rt,test_cntdown_text.started,parent index,left child index,right child index,left distance,right distance,parent_image.started,top_image_text.started,left_child_image.started,right_child_image.started,path_resp.started,child_choice_text.started,left_choice_text.started,right_choice_text.started,path_resp.keys,path_resp.rt,graph.started,debrief_text.started,debriefing_title.started,demo_scr_adv.started,demo_scr_adv_keypress.started,demo_scr_adv_keypress.keys,demo_scr_adv_keypress.rt,text_countdown_2.started,participant,date,expName,psychopyVersion,frameRate,
,,,,,,,,,,,,,,,,"[[0. 1. 1. 2. 2. 3. 4. 5. 5. 6. 6. 7.]
 [1. 0. 2. 1. 1. 2. 3. 4. 4. 5. 5. 6.]
 [1. 2. 0. 1. 1. 2. 3. 4. 4. 5. 5. 6.]
 [2. 1. 1. 0. 1. 1. 2. 3. 3. 4. 4. 5.]
 [2. 1. 1. 1. 0. 1. 2. 3. 3. 4. 4. 5.]
 [3. 2. 2. 1. 1. 0. 1. 2. 2. 3. 3. 4.]
 [4. 3. 3. 2. 2. 1. 0. 1. 1. 2. 2. 3.]
 [5. 4. 4. 3. 3. 2. 1. 0. 1. 1. 1. 2.]
 [5. 4. 4. 3. 3. 2. 1. 1. 0. 1. 1. 2.]
 [6. 5. 5. 4. 4. 3. 2. 1. 1. 0. 2. 1.]
 [6. 5. 5. 4. 4. 3. 2. 1. 1. 2. 0. 1.]
 [7. 6. 6. 5. 5. 4. 3. 2. 2. 1. 1. 0.]]",[11  6  0  2  1  8 10  5  7  3  9  4],44.97267275955528,44.97267275955528,return,932.5277516226051,,,,,,,,,,,,,,,,,,,,,,,,,,,,,,,,,,,,,,,,,,,,,,,,,,,,,,,,,,,,,,,,,,,,,,,,,,,,,,,,,,,,,,,,,,570,2023-05-16_17h04.09.279,eb_02psyexp,2022.2.4,99.96071516308281,
,,,,,,,,,,,,,,,,,,,,,,977.5196618852206,977.5196618852206,977.5196618852206,space,40.53090982756112,,,,,,,,,,,,,,,,,,,,,,,,,,,,,,,,,,,,,,,,,,,,,,,,,,,,,,,,,,,,,,,,,,,,,,,,,,,,,,,,,,,,,570,2023-05-16_17h04.09.279,eb_02psyexp,2022.2.4,99.96071516308281,
,,,,,,,,,,,,,,,,,,,,,,,,,,,1018.0629111507442,1018.0629111507442,1018.0629111507442,space,15.210747905774042,,,,,,,,,,,,,,,,,,,,,,,,,,,,,,,,,,,,,,,,,,,,,,,,,,,,,,,,,,,,,,,,,,,,,,,,,,,,,,,,570,2023-05-16_17h04.09.279,eb_02psyexp,2022.2.4,99.96071516308281,
,,,,,,,,,,,,,,,,,,,,,,,,,,,,,,,,1033.2918005601969,1033.2918005601969,1033.2918005601969,space,11.012928011943586,,,,,,,,,,,,,,,,,,,,,,,,,,,,,,,,,,,,,,,,,,,,,,,,,,,,,,,,,,,,,,,,,,,,,,,,,,,570,2023-05-16_17h04.09.279,eb_02psyexp,2022.2.4,99.96071516308281,
,,,,,,,,,,,,,,,,,,,,,,,,,,,,,,,,,,,,,1044.3281967353541,1044.3281967353541,1044.3281967353541,1,[10.505812026560307],[10.505816554185003],0,,,1054.8242993119638,1056.8154579683905,1056.8154579683905,space,1.6803448640275747,,,,,,,,,,,,,,,,,,,,,,,,,,,,,,,,,,,,,,,,,,,,,,,,,,,,,,,,,,,,,570,2023-05-16_17h04.09.279,eb_02psyexp,2022.2.4,99.96071516308281,
,,,,,,,,,,,,,,,,,,,,,,,,,,,,,,,,,,,,,,,,,,,,,,,,,,,1058.506788797211,1061.4985097909812,1061.4985097909812,space,40.14653550100047,,,,,,,,,,,,,,,,,,,,,,,,,,,,,,,,,,,,,,,,,,,,,,,,,,,,,,,,570,2023-05-16_17h04.09.279,eb_02psyexp,2022.2.4,99.96071516308281,
,,,,,,,,,,,,,,,,,,,,,,,,,,,,,,,,,,,,,,,,,,,,,,,,,,,,,,,,1101.6618698457023,1104.653623740538,1104.653623740538,space,5.591468699742109,,,,,,,,,,,,,,,,,,,,,,,,,,,,,,,,,,,,,,,,,,,,,,,,,,,570,2023-05-16_17h04.09.279,eb_02psyexp,2022.2.4,99.96071516308281,
0,0,0,0,,,,,,,,,,,,,,,,,,,,,,,,,,,,,,,,,,,,,,,,,,,,,,,,,,,,,,,,,,1110.2665596726583,1115.2998091132613,1115.2998091132613,1115.2998091132613,1115.2998091132613,1115.2998091132613,1115.2998091132613,l,1,2.4323468514485285,1117.750936172437,1118.7815254525049,,,,,,,,,,,,,,,,,,,,,,,,,,,,,,,,,,,,,,,570,2023-05-16_17h04.09.279,eb_02psyexp,2022.2.4,99.96071516308281,
1,0,1,0,,,,,,,,,,,,,,,,,,,,,,,,,,,,,,,,,,,,,,,,,,,,,,,,,,,,,,,,,,,1118.7815254525049,1118.7815254525049,1118.7815254525049,1118.7815254525049,1118.7815254525049,1118.7815254525049,l,1,1.6706471861107275,1120.4624981663655,1121.4930955962045,,,,,,,,,,,,,,,,,,,,,,,,,,,,,,,,,,,,,,,570,2023-05-16_17h04.09.279,eb_02psyexp,2022.2.4,99.96071516308281,
2,0,2,0,,,,,,,,,,,,,,,,,,,,,,,,,,,,,,,,,,,,,,,,,,,,,,,,,,,,,,,,,,,1121.4930955962045,1121.4930955962045,1121.4930955962045,1121.4930955962045,1121.4930955962045,1121.4930955962045,s,1,2.015040625468828,1123.524312713882,1124.5548766389256,,,,,,,,,,,,,,,,,,,,,,,,,,,,,,,,,,,,,,,570,2023-05-16_17h04.09.279,eb_02psyexp,2022.2.4,99.96071516308281,
3,0,3,0,,,,,,,,,,,,,,,,,,,,,,,,,,,,,,,,,,,,,,,,,,,,,,,,,,,,,,,,,,,1124.5548766389256,1124.5548766389256,1124.5548766389256,1124.5548766389256,1124.5548766389256,1124.5548766389256,s,1,1.1453057843027636,1125.7155575169018,1126.7361605550395,,,,,,,,,,,,,,,,,,,,,,,,,,,,,,,,,,,,,,,570,2023-05-16_17h04.09.279,eb_02psyexp,2022.2.4,99.96071516308281,
4,0,4,0,,,,,,,,,,,,,,,,,,,,,,,,,,,,,,,,,,,,,,,,,,,,,,,,,,,,,,,,,,,1126.7361605550395,1126.7361605550395,1126.7361605550395,1126.7361605550395,1126.7361605550395,1126.7361605550395,l,1,0.9080003309063613,1127.656682638335,1128.6773022779962,,,,,,,,,,,,,,,,,,,,,,,,,,,,,,,,,,,,,,,570,2023-05-16_17h04.09.279,eb_02psyexp,2022.2.4,99.96071516308281,
5,0,5,0,,,,,,,,,,,,,,,,,,,,,,,,,,,,,,,,,,,,,,,,,,,,,,,,,,,,,,,,,,,1128.6773022779962,1128.6773022779962,1128.6773022779962,1128.6773022779962,1128.6773022779962,1128.6773022779962,s,1,1.077894123736769,1129.7679146551527,1130.7885560275754,,,,,,,,,,,,,,,,,,,,,,,,,,,,,,,,,,,,,,,570,2023-05-16_17h04.09.279,eb_02psyexp,2022.2.4,99.96071516308281,
6,0,6,0,,,,,,,,,,,,,,,,,,,,,,,,,,,,,,,,,,,,,,,,,,,,,,,,,,,,,,,,,,,1130.7885560275754,1130.7885560275754,1130.7885560275754,1130.7885560275754,1130.7885560275754,1130.7885560275754,l,1,0.7026563453255221,1131.5089264638955,1132.5395290252054,,,,,,,,,,,,,,,,,,,,,,,,,,,,,,,,,,,,,,,570,2023-05-16_17h04.09.279,eb_02psyexp,2022.2.4,99.96071516308281,
7,0,7,0,,,,,,,,,,,,,,,,,,,,,,,,,,,,,,,,,,,,,,,,,,,,,,,,,,,,,,,,,,,1132.5395290252054,1132.5395290252054,1132.5395290252054,1132.5395290252054,1132.5395290252054,1132.5395290252054,l,1,0.9756776150316,1133.5301057242323,1134.5606962116435,,,,,,,,,,,,,,,,,,,,,,,,,,,,,,,,,,,,,,,570,2023-05-16_17h04.09.279,eb_02psyexp,2022.2.4,99.96071516308281,
8,0,8,0,,,,,,,,,,,,,,,,,,,,,,,,,,,,,,,,,,,,,,,,,,,,,,,,,,,,,,,,,,,1134.5606962116435,1134.5606962116435,1134.5606962116435,1134.5606962116435,1134.5606962116435,1134.5606962116435,s,1,0.7545260038459674,1135.3311499874108,1136.36174319149,,,,,,,,,,,,,,,,,,,,,,,,,,,,,,,,,,,,,,,570,2023-05-16_17h04.09.279,eb_02psyexp,2022.2.4,99.96071516308281,
9,0,9,0,,,,,,,,,,,,,,,,,,,,,,,,,,,,,,,,,,,,,,,,,,,,,,,,,,,,,,,,,,,1136.36174319149,1136.36174319149,1136.36174319149,1136.36174319149,1136.36174319149,1136.36174319149,s,1,1.3615167955867946,1137.742545181769,1138.7631488235202,,,,,,,,,,,,,,,,,,,,,,,,,,,,,,,,,,,,,,,570,2023-05-16_17h04.09.279,eb_02psyexp,2022.2.4,99.96071516308281,
10,0,10,0,,,,,,,,,,,,,,,,,,,,,,,,,,,,,,,,,,,,,,,,,,,,,,,,,,,,,,,,,,,1138.7631488235202,1138.7631488235202,1138.7631488235202,1138.7631488235202,1138.7631488235202,1138.7631488235202,s,1,0.864093043259345,1139.6436601369642,1140.6743028436322,,,,,,,,,,,,,,,,,,,,,,,,,,,,,,,,,,,,,,,570,2023-05-16_17h04.09.279,eb_02psyexp,2022.2.4,99.96071516308281,
11,0,11,0,,,,,,,,,,,,,,,,,,,,,,,,,,,,,,,,,,,,,,,,,,,,,,,,,,,,,,,,,,,1140.6743028436322,1140.6743028436322,1140.6743028436322,1140.6743028436322,1140.6743028436322,1140.6743028436322,s,0,1.0489743486978114,1141.7348698655842,1142.7555184822995,,,,,,,,,,,,,,,,,,,,,,,,,,,,,,,,,,,,,,,570,2023-05-16_17h04.09.279,eb_02psyexp,2022.2.4,99.96071516308281,
12,0,12,0,,,,,,,,,,,,,,,,,,,,,,,,,,,,,,,,,,,,,,,,,,,,,,,,,,,,,,,,,,,1142.7555184822995,1142.7555184822995,1142.7555184822995,1142.7555184822995,1142.7555184822995,1142.7555184822995,l,1,1.1757465564878657,1143.9461626135744,1144.966783158714,,,,,,,,,,,,,,,,,,,,,,,,,,,,,,,,,,,,,,,570,2023-05-16_17h04.09.279,eb_02psyexp,2022.2.4,99.96071516308281,
13,0,13,0,,,,,,,,,,,,,,,,,,,,,,,,,,,,,,,,,,,,,,,,,,,,,,,,,,,,,,,,,,,1144.966783158714,1144.966783158714,1144.966783158714,1144.966783158714,1144.966783158714,1144.966783158714,l,1,5.899532671435736,1150.8801952817012,1151.900789868203,,,,,,,,,,,,,,,,,,,,,,,,,,,,,,,,,,,,,,,570,2023-05-16_17h04.09.279,eb_02psyexp,2022.2.4,99.96071516308281,
14,0,14,0,,,,,,,,,,,,,,,,,,,,,,,,,,,,,,,,,,,,,,,,,,,,,,,,,,,,,,,,,,,1151.900789868203,1151.900789868203,1151.900789868203,1151.900789868203,1151.900789868203,1151.900789868203,l,1,1.6855381083441898,1153.601778833312,1154.6224208094645,,,,,,,,,,,,,,,,,,,,,,,,,,,,,,,,,,,,,,,570,2023-05-16_17h04.09.279,eb_02psyexp,2022.2.4,99.96071516308281,
15,0,15,0,,,,,,,,,,,,,,,,,,,,,,,,,,,,,,,,,,,,,,,,,,,,,,,,,,,,,,,,,,,1154.6224208094645,1154.6224208094645,1154.6224208094645,1154.6224208094645,1154.6224208094645,1154.6224208094645,l,1,3.283942313864827,1157.9242927317973,1158.9449350098148,,,,,,,,,,,,,,,,,,,,,,,,,,,,,,,,,,,,,,,570,2023-05-16_17h04.09.279,eb_02psyexp,2022.2.4,99.96071516308281,
16,0,16,0,,,,,,,,,,,,,,,,,,,,,,,,,,,,,,,,,,,,,,,,,,,,,,,,,,,,,,,,,,,1158.9449350098148,1158.9449350098148,1158.9449350098148,1158.9449350098148,1158.9449350098148,1158.9449350098148,l,1,1.7124678188702092,1160.6758917559637,1161.696553352056,,,,,,,,,,,,,,,,,,,,,,,,,,,,,,,,,,,,,,,570,2023-05-16_17h04.09.279,eb_02psyexp,2022.2.4,99.96071516308281,
17,0,17,0,,,,,,,,,,,,,,,,,,,,,,,,,,,,,,,,,,,,,,,,,,,,,,,,,,,,,,,,,,,1161.696553352056,1161.696553352056,1161.696553352056,1161.696553352056,1161.696553352056,1161.696553352056,l,1,1.576841891859658,1163.2874126385432,1164.3180094646523,,,,,,,,,,,,,,,,,,,,,,,,,,,,,,,,,,,,,,,570,2023-05-16_17h04.09.279,eb_02psyexp,2022.2.4,99.96071516308281,
18,0,18,0,,,,,,,,,,,,,,,,,,,,,,,,,,,,,,,,,,,,,,,,,,,,,,,,,,,,,,,,,,,1164.3180094646523,1164.3180094646523,1164.3180094646523,1164.3180094646523,1164.3180094646523,1164.3180094646523,s,1,1.1794178979471326,1165.5087046078406,1166.5393062635558,,,,,,,,,,,,,,,,,,,,,,,,,,,,,,,,,,,,,,,570,2023-05-16_17h04.09.279,eb_02psyexp,2022.2.4,99.96071516308281,
19,0,19,0,,,,,,,,,,,,,,,,,,,,,,,,,,,,,,,,,,,,,,,,,,,,,,,,,,,,,,,,,,,1166.5393062635558,1166.5393062635558,1166.5393062635558,1166.5393062635558,1166.5393062635558,1166.5393062635558,l,1,0.9741216037655249,1167.5298723980086,1168.560496993945,,,,,,,,,,,,,,,,,,,,,,,,,,,,,,,,,,,,,,,570,2023-05-16_17h04.09.279,eb_02psyexp,2022.2.4,99.96071516308281,
20,0,20,0,,,,,,,,,,,,,,,,,,,,,,,,,,,,,,,,,,,,,,,,,,,,,,,,,,,,,,,,,,,1168.560496993945,1168.560496993945,1168.560496993945,1168.560496993945,1168.560496993945,1168.560496993945,s,1,1.0809910540701821,1169.6611173459096,1170.691719907103,,,,,,,,,,,,,,,,,,,,,,,,,,,,,,,,,,,,,,,570,2023-05-16_17h04.09.279,eb_02psyexp,2022.2.4,99.96071516308281,
21,0,21,0,,,,,,,,,,,,,,,,,,,,,,,,,,,,,,,,,,,,,,,,,,,,,,,,,,,,,,,,,,,1170.691719907103,1170.691719907103,1170.691719907103,1170.691719907103,1170.691719907103,1170.691719907103,s,1,0.9497267880942672,1171.6522766060662,1172.6729131489992,,,,,,,,,,,,,,,,,,,,,,,,,,,,,,,,,,,,,,,570,2023-05-16_17h04.09.279,eb_02psyexp,2022.2.4,99.96071516308281,
22,0,22,0,,,,,,,,,,,,,,,,,,,,,,,,,,,,,,,,,,,,,,,,,,,,,,,,,,,,,,,,,,,1172.6729131489992,1172.6729131489992,1172.6729131489992,1172.6729131489992,1172.6729131489992,1172.6729131489992,l,1,5.263568677939475,1177.9559547691606,1178.9865377104143,,,,,,,,,,,,,,,,,,,,,,,,,,,,,,,,,,,,,,,570,2023-05-16_17h04.09.279,eb_02psyexp,2022.2.4,99.96071516308281,
23,0,23,0,,,,,,,,,,,,,,,,,,,,,,,,,,,,,,,,,,,,,,,,,,,,,,,,,,,,,,,,,,,1178.9865377104143,1178.9865377104143,1178.9865377104143,1178.9865377104143,1178.9865377104143,1178.9865377104143,s,1,0.9339405933860689,1179.9370963954134,1180.9676895994926,,,,,,,,,,,,,,,,,,,,,,,,,,,,,,,,,,,,,,,570,2023-05-16_17h04.09.279,eb_02psyexp,2022.2.4,99.96071516308281,
24,0,24,0,,,,,,,,,,,,,,,,,,,,,,,,,,,,,,,,,,,,,,,,,,,,,,,,,,,,,,,,,,,1180.9676895994926,1180.9676895994926,1180.9676895994926,1180.9676895994926,1180.9676895994926,1180.9676895994926,s,1,1.0808534126263112,1182.0683277603239,1183.0889796973206,,,,,,,,,,,,,,,,,,,,,,,,,,,,,,,,,,,,,,,570,2023-05-16_17h04.09.279,eb_02psyexp,2022.2.4,99.96071516308281,
25,0,25,0,,,,,,,,,,,,,,,,,,,,,,,,,,,,,,,,,,,,,,,,,,,,,,,,,,,,,,,,,,,1183.0889796973206,1183.0889796973206,1183.0889796973206,1183.0889796973206,1183.0889796973206,1183.0889796973206,l,1,0.8155125904595479,1183.9194125009235,1184.9400067855604,,,,,,,,,,,,,,,,,,,,,,,,,,,,,,,,,,,,,,,570,2023-05-16_17h04.09.279,eb_02psyexp,2022.2.4,99.96071516308281,
26,0,26,0,,,,,,,,,,,,,,,,,,,,,,,,,,,,,,,,,,,,,,,,,,,,,,,,,,,,,,,,,,,1184.9400067855604,1184.9400067855604,1184.9400067855604,1184.9400067855604,1184.9400067855604,1184.9400067855604,s,1,1.3325351424282417,1186.2907851533964,1187.311434977455,,,,,,,,,,,,,,,,,,,,,,,,,,,,,,,,,,,,,,,570,2023-05-16_17h04.09.279,eb_02psyexp,2022.2.4,99.96071516308281,
27,0,27,0,,,,,,,,,,,,,,,,,,,,,,,,,,,,,,,,,,,,,,,,,,,,,,,,,,,,,,,,,,,1187.311434977455,1187.311434977455,1187.311434977455,1187.311434977455,1187.311434977455,1187.311434977455,l,1,0.9371063443832099,1188.2619366138242,1189.282577382517,,,,,,,,,,,,,,,,,,,,,,,,,,,,,,,,,,,,,,,570,2023-05-16_17h04.09.279,eb_02psyexp,2022.2.4,99.96071516308281,
28,0,28,0,,,,,,,,,,,,,,,,,,,,,,,,,,,,,,,,,,,,,,,,,,,,,,,,,,,,,,,,,,,1189.282577382517,1189.282577382517,1189.282577382517,1189.282577382517,1189.282577382517,1189.282577382517,l,1,1.213946557836607,1190.513248583302,1191.543850540882,,,,,,,,,,,,,,,,,,,,,,,,,,,,,,,,,,,,,,,570,2023-05-16_17h04.09.279,eb_02psyexp,2022.2.4,99.96071516308281,
29,0,29,0,,,,,,,,,,,,,,,,,,,,,,,,,,,,,,,,,,,,,,,,,,,,,,,,,,,,,,,,,,,1191.543850540882,1191.543850540882,1191.543850540882,1191.543850540882,1191.543850540882,1191.543850540882,l,1,0.9757120254216716,1192.5344239197439,1193.5550674051046,,,,,,,,,,,,,,,,,,,,,,,,,,,,,,,,,,,,,,,570,2023-05-16_17h04.09.279,eb_02psyexp,2022.2.4,99.96071516308281,
30,0,30,0,,,,,,,,,,,,,,,,,,,,,,,,,,,,,,,,,,,,,,,,,,,,,,,,,,,,,,,,,,,1193.5550674051046,1193.5550674051046,1193.5550674051046,1193.5550674051046,1193.5550674051046,1193.5550674051046,l,1,1.0045062329154462,1194.5756067539332,1195.606208711397,,,,,,,,,,,,,,,,,,,,,,,,,,,,,,,,,,,,,,,570,2023-05-16_17h04.09.279,eb_02psyexp,2022.2.4,99.96071516308281,
31,0,31,0,,,,,,,,,,,,,,,,,,,,,,,,,,,,,,,,,,,,,,,,,,,,,,,,,,,,,,,,,,,1195.606208711397,1195.606208711397,1195.606208711397,1195.606208711397,1195.606208711397,1195.606208711397,s,1,0.8413912763353437,1196.466736674658,1197.487352390308,,,,,,,,,,,,,,,,,,,,,,,,,,,,,,,,,,,,,,,570,2023-05-16_17h04.09.279,eb_02psyexp,2022.2.4,99.96071516308281,
32,0,32,0,,,,,,,,,,,,,,,,,,,,,,,,,,,,,,,,,,,,,,,,,,,,,,,,,,,,,,,,,,,1197.487352390308,1197.487352390308,1197.487352390308,1197.487352390308,1197.487352390308,1197.487352390308,l,1,0.5922196900937706,1198.0976646852214,1199.1183009262895,,,,,,,,,,,,,,,,,,,,,,,,,,,,,,,,,,,,,,,570,2023-05-16_17h04.09.279,eb_02psyexp,2022.2.4,99.96071516308281,
33,0,33,0,,,,,,,,,,,,,,,,,,,,,,,,,,,,,,,,,,,,,,,,,,,,,,,,,,,,,,,,,,,1199.1183009262895,1199.1183009262895,1199.1183009262895,1199.1183009262895,1199.1183009262895,1199.1183009262895,l,1,1.6493284733733162,1200.7792118100915,1201.8098234267673,,,,,,,,,,,,,,,,,,,,,,,,,,,,,,,,,,,,,,,570,2023-05-16_17h04.09.279,eb_02psyexp,2022.2.4,99.96071516308281,
34,0,34,0,,,,,,,,,,,,,,,,,,,,,,,,,,,,,,,,,,,,,,,,,,,,,,,,,,,,,,,,,,,1201.8098234267673,1201.8098234267673,1201.8098234267673,1201.8098234267673,1201.8098234267673,1201.8098234267673,s,1,0.9098138159606606,1202.730354867177,1203.7509434167296,,,,,,,,,,,,,,,,,,,,,,,,,,,,,,,,,,,,,,,570,2023-05-16_17h04.09.279,eb_02psyexp,2022.2.4,99.96071516308281,
35,0,35,0,,,,,,,,,,,,,,,,,,,,,,,,,,,,,,,,,,,,,,,,,,,,,,,,,,,,,,,,,,,1203.7509434167296,1203.7509434167296,1203.7509434167296,1203.7509434167296,1203.7509434167296,1203.7509434167296,l,1,0.8326981386635453,1204.6014359373366,1205.632047252031,,,,,,,,,,,,,,,,,,,,,,,,,,,,,,,,,,,,,,,570,2023-05-16_17h04.09.279,eb_02psyexp,2022.2.4,99.96071516308281,
36,0,36,0,,,,,,,,,,,,,,,,,,,,,,,,,,,,,,,,,,,,,,,,,,,,,,,,,,,,,,,,,,,1205.632047252031,1205.632047252031,1205.632047252031,1205.632047252031,1205.632047252031,1205.632047252031,s,1,0.6475946753052995,1206.292427190463,1207.3130691666156,,,,,,,,,,,,,,,,,,,,,,,,,,,,,,,,,,,,,,,570,2023-05-16_17h04.09.279,eb_02psyexp,2022.2.4,99.96071516308281,
37,0,37,0,,,,,,,,,,,,,,,,,,,,,,,,,,,,,,,,,,,,,,,,,,,,,,,,,,,,,,,,,,,1207.3130691666156,1207.3130691666156,1207.3130691666156,1207.3130691666156,1207.3130691666156,1207.3130691666156,l,1,0.5815817648544908,1207.9133704683045,1208.934012746322,,,,,,,,,,,,,,,,,,,,,,,,,,,,,,,,,,,,,,,570,2023-05-16_17h04.09.279,eb_02psyexp,2022.2.4,99.96071516308281,
38,0,38,0,,,,,,,,,,,,,,,,,,,,,,,,,,,,,,,,,,,,,,,,,,,,,,,,,,,,,,,,,,,1208.934012746322,1208.934012746322,1208.934012746322,1208.934012746322,1208.934012746322,1208.934012746322,l,1,0.7286433937260881,1209.6743940007873,1210.7049908270128,,,,,,,,,,,,,,,,,,,,,,,,,,,,,,,,,,,,,,,570,2023-05-16_17h04.09.279,eb_02psyexp,2022.2.4,99.96071516308281,
39,0,39,0,,,,,,,,,,,,,,,,,,,,,,,,,,,,,,,,,,,,,,,,,,,,,,,,,,,,,,,,,,,1210.7049908270128,1210.7049908270128,1210.7049908270128,1210.7049908270128,1210.7049908270128,1210.7049908270128,s,1,1.1176800188841298,1211.8356686079642,1212.8662521529477,,,,,,,,,,,,,,,,,,,,,,,,,,,,,,,,,,,,,,,570,2023-05-16_17h04.09.279,eb_02psyexp,2022.2.4,99.96071516308281,
40,0,40,0,,,,,,,,,,,,,,,,,,,,,,,,,,,,,,,,,,,,,,,,,,,,,,,,,,,,,,,,,,,1212.8662521529477,1212.8662521529477,1212.8662521529477,1212.8662521529477,1212.8662521529477,1212.8662521529477,s,1,0.9244092319859192,1213.8068267089548,1214.8373939542798,,,,,,,,,,,,,,,,,,,,,,,,,,,,,,,,,,,,,,,570,2023-05-16_17h04.09.279,eb_02psyexp,2022.2.4,99.96071516308281,
41,0,41,0,,,,,,,,,,,,,,,,,,,,,,,,,,,,,,,,,,,,,,,,,,,,,,,,,,,,,,,,,,,1214.8373939542798,1214.8373939542798,1214.8373939542798,1214.8373939542798,1214.8373939542798,1214.8373939542798,s,1,0.8173031352926046,1215.667878977023,1216.6984809346031,,,,,,,,,,,,,,,,,,,,,,,,,,,,,,,,,,,,,,,570,2023-05-16_17h04.09.279,eb_02psyexp,2022.2.4,99.96071516308281,
42,0,42,0,,,,,,,,,,,,,,,,,,,,,,,,,,,,,,,,,,,,,,,,,,,,,,,,,,,,,,,,,,,1216.6984809346031,1216.6984809346031,1216.6984809346031,1216.6984809346031,1216.6984809346031,1216.6984809346031,s,1,0.7561837368411943,1217.4689615746029,1218.4895697440952,,,,,,,,,,,,,,,,,,,,,,,,,,,,,,,,,,,,,,,570,2023-05-16_17h04.09.279,eb_02psyexp,2022.2.4,99.96071516308281,
43,0,43,0,,,,,,,,,,,,,,,,,,,,,,,,,,,,,,,,,,,,,,,,,,,,,,,,,,,,,,,,,,,1218.4895697440952,1218.4895697440952,1218.4895697440952,1218.4895697440952,1218.4895697440952,1218.4895697440952,l,1,0.8131243922980502,1219.3200037550414,1220.3406463348074,,,,,,,,,,,,,,,,,,,,,,,,,,,,,,,,,,,,,,,570,2023-05-16_17h04.09.279,eb_02psyexp,2022.2.4,99.96071516308281,
44,0,44,0,,,,,,,,,,,,,,,,,,,,,,,,,,,,,,,,,,,,,,,,,,,,,,,,,,,,,,,,,,,1220.3406463348074,1220.3406463348074,1220.3406463348074,1220.3406463348074,1220.3406463348074,1220.3406463348074,l,1,0.7540548236574978,1221.1110324972542,1222.1416432083352,,,,,,,,,,,,,,,,,,,,,,,,,,,,,,,,,,,,,,,570,2023-05-16_17h04.09.279,eb_02psyexp,2022.2.4,99.96071516308281,
45,0,45,0,,,,,,,,,,,,,,,,,,,,,,,,,,,,,,,,,,,,,,,,,,,,,,,,,,,,,,,,,,,1222.1416432083352,1222.1416432083352,1222.1416432083352,1222.1416432083352,1222.1416432083352,1222.1416432083352,s,1,0.8560793587239459,1223.0121498673689,1224.0427563525736,,,,,,,,,,,,,,,,,,,,,,,,,,,,,,,,,,,,,,,570,2023-05-16_17h04.09.279,eb_02psyexp,2022.2.4,99.96071516308281,
46,0,46,0,,,,,,,,,,,,,,,,,,,,,,,,,,,,,,,,,,,,,,,,,,,,,,,,,,,,,,,,,,,1224.0427563525736,1224.0427563525736,1224.0427563525736,1224.0427563525736,1224.0427563525736,1224.0427563525736,s,1,0.7549503978807479,1224.8131911120145,1225.8437966917409,,,,,,,,,,,,,,,,,,,,,,,,,,,,,,,,,,,,,,,570,2023-05-16_17h04.09.279,eb_02psyexp,2022.2.4,99.96071516308281,
47,0,47,0,,,,,,,,,,,,,,,,,,,,,,,,,,,,,,,,,,,,,,,,,,,,,,,,,,,,,,,,,,,1225.8437966917409,1225.8437966917409,1225.8437966917409,1225.8437966917409,1225.8437966917409,1225.8437966917409,s,1,0.985954231931828,1226.844381063711,1227.8650227379985,,,,,,,,,,,,,,,,,,,,,,,,,,,,,,,,,,,,,,,570,2023-05-16_17h04.09.279,eb_02psyexp,2022.2.4,99.96071516308281,
48,0,48,0,,,,,,,,,,,,,,,,,,,,,,,,,,,,,,,,,,,,,,,,,,,,,,,,,,,,,,,,,,,1227.8650227379985,1227.8650227379985,1227.8650227379985,1227.8650227379985,1227.8650227379985,1227.8650227379985,l,1,0.780830895062536,1228.6654421818675,1229.6960387062281,,,,,,,,,,,,,,,,,,,,,,,,,,,,,,,,,,,,,,,570,2023-05-16_17h04.09.279,eb_02psyexp,2022.2.4,99.96071516308281,
49,0,49,0,,,,,,,,,,,,,,,,,,,,,,,,,,,,,,,,,,,,,,,,,,,,,,,,,,,,,,,,,,,1229.6960387062281,1229.6960387062281,1229.6960387062281,1229.6960387062281,1229.6960387062281,1229.6960387062281,s,1,0.9017509308177978,1230.6165764854522,1231.6471751226345,,,,,,,,,,,,,,,,,,,,,,,,,,,,,,,,,,,,,,,570,2023-05-16_17h04.09.279,eb_02psyexp,2022.2.4,99.96071516308281,
50,0,50,0,,,,,,,,,,,,,,,,,,,,,,,,,,,,,,,,,,,,,,,,,,,,,,,,,,,,,,,,,,,1231.6471751226345,1231.6471751226345,1231.6471751226345,1231.6471751226345,1231.6471751226345,1231.6471751226345,s,1,2.3746026845183223,1234.0385652339319,1235.0691647765925,,,,,,,,,,,,,,,,,,,,,,,,,,,,,,,,,,,,,,,570,2023-05-16_17h04.09.279,eb_02psyexp,2022.2.4,99.96071516308281,
51,0,51,0,,,,,,,,,,,,,,,,,,,,,,,,,,,,,,,,,,,,,,,,,,,,,,,,,,,,,,,,,,,1235.0691647765925,1235.0691647765925,1235.0691647765925,1235.0691647765925,1235.0691647765925,1235.0691647765925,s,1,2.152659635292366,1237.2404277386377,1238.2710278850282,,,,,,,,,,,,,,,,,,,,,,,,,,,,,,,,,,,,,,,570,2023-05-16_17h04.09.279,eb_02psyexp,2022.2.4,99.96071516308281,
52,0,52,0,,,,,,,,,,,,,,,,,,,,,,,,,,,,,,,,,,,,,,,,,,,,,,,,,,,,,,,,,,,1238.2710278850282,1238.2710278850282,1238.2710278850282,1238.2710278850282,1238.2710278850282,1238.2710278850282,s,1,4.62981207750272,1242.9137257400434,1243.9443249809556,,,,,,,,,,,,,,,,,,,,,,,,,,,,,,,,,,,,,,,570,2023-05-16_17h04.09.279,eb_02psyexp,2022.2.4,99.96071516308281,
53,0,53,0,,,,,,,,,,,,,,,,,,,,,,,,,,,,,,,,,,,,,,,,,,,,,,,,,,,,,,,,,,,1243.9443249809556,1243.9443249809556,1243.9443249809556,1243.9443249809556,1243.9443249809556,1243.9443249809556,s,1,2.3885443040635437,1246.3457227649633,1247.3663650429808,,,,,,,,,,,,,,,,,,,,,,,,,,,,,,,,,,,,,,,570,2023-05-16_17h04.09.279,eb_02psyexp,2022.2.4,99.96071516308281,
54,0,54,0,,,,,,,,,,,,,,,,,,,,,,,,,,,,,,,,,,,,,,,,,,,,,,,,,,,,,,,,,,,1247.3663650429808,1247.3663650429808,1247.3663650429808,1247.3663650429808,1247.3663650429808,1247.3663650429808,l,1,1.1664919870672747,1248.5470190084307,1249.5676449867897,,,,,,,,,,,,,,,,,,,,,,,,,,,,,,,,,,,,,,,570,2023-05-16_17h04.09.279,eb_02psyexp,2022.2.4,99.96071516308281,
55,0,55,0,,,,,,,,,,,,,,,,,,,,,,,,,,,,,,,,,,,,,,,,,,,,,,,,,,,,,,,,,,,1249.5676449867897,1249.5676449867897,1249.5676449867897,1249.5676449867897,1249.5676449867897,1249.5676449867897,l,1,5.012290515122004,1254.59051789972,1255.611112184357,,,,,,,,,,,,,,,,,,,,,,,,,,,,,,,,,,,,,,,570,2023-05-16_17h04.09.279,eb_02psyexp,2022.2.4,99.96071516308281,
56,0,56,0,,,,,,,,,,,,,,,,,,,,,,,,,,,,,,,,,,,,,,,,,,,,,,,,,,,,,,,,,,,1255.611112184357,1255.611112184357,1255.611112184357,1255.611112184357,1255.611112184357,1255.611112184357,l,1,1.2008114682976156,1256.8218163346173,1257.8424100155244,,,,,,,,,,,,,,,,,,,,,,,,,,,,,,,,,,,,,,,570,2023-05-16_17h04.09.279,eb_02psyexp,2022.2.4,99.96071516308281,
57,0,57,0,,,,,,,,,,,,,,,,,,,,,,,,,,,,,,,,,,,,,,,,,,,,,,,,,,,,,,,,,,,1257.8424100155244,1257.8424100155244,1257.8424100155244,1257.8424100155244,1257.8424100155244,1257.8424100155244,s,1,2.529552128398791,1260.3838877523085,1261.4044627188705,,,,,,,,,,,,,,,,,,,,,,,,,,,,,,,,,,,,,,,570,2023-05-16_17h04.09.279,eb_02psyexp,2022.2.4,99.96071516308281,
58,0,58,0,,,,,,,,,,,,,,,,,,,,,,,,,,,,,,,,,,,,,,,,,,,,,,,,,,,,,,,,,,,1261.4044627188705,1261.4044627188705,1261.4044627188705,1261.4044627188705,1261.4044627188705,1261.4044627188705,l,1,1.311495334492065,1262.7352631697431,1263.7558514174307,,,,,,,,,,,,,,,,,,,,,,,,,,,,,,,,,,,,,,,570,2023-05-16_17h04.09.279,eb_02psyexp,2022.2.4,99.96071516308281,
59,0,59,0,,,,,,,,,,,,,,,,,,,,,,,,,,,,,,,,,,,,,,,,,,,,,,,,,,,,,,,,,,,1263.7558514174307,1263.7558514174307,1263.7558514174307,1263.7558514174307,1263.7558514174307,1263.7558514174307,l,1,1.0001258574193344,1264.7664359161863,1265.7970580973197,,,,,,,,,,,,,,,,,,,,,,,,,,,,,,,,,,,,,,,570,2023-05-16_17h04.09.279,eb_02psyexp,2022.2.4,99.96071516308281,
60,0,60,0,,,,,,,,,,,,,,,,,,,,,,,,,,,,,,,,,,,,,,,,,,,,,,,,,,,,,,,,,,,1265.7970580973197,1265.7970580973197,1265.7970580973197,1265.7970580973197,1265.7970580973197,1265.7970580973197,s,1,1.4309327073860914,1267.237865074072,1268.2585139926523,,,,,,,,,,,,,,,,,,,,,,,,,,,,,,,,,,,,,,,570,2023-05-16_17h04.09.279,eb_02psyexp,2022.2.4,99.96071516308281,
61,0,61,0,,,,,,,,,,,,,,,,,,,,,,,,,,,,,,,,,,,,,,,,,,,,,,,,,,,,,,,,,,,1268.2585139926523,1268.2585139926523,1268.2585139926523,1268.2585139926523,1268.2585139926523,1268.2585139926523,s,1,1.4484714145073667,1269.7193169970997,1270.74991774722,,,,,,,,,,,,,,,,,,,,,,,,,,,,,,,,,,,,,,,570,2023-05-16_17h04.09.279,eb_02psyexp,2022.2.4,99.96071516308281,
62,0,62,0,,,,,,,,,,,,,,,,,,,,,,,,,,,,,,,,,,,,,,,,,,,,,,,,,,,,,,,,,,,1270.74991774722,1270.74991774722,1270.74991774722,1270.74991774722,1270.74991774722,1270.74991774722,s,1,1.2130890160333365,1271.980631810031,1273.0012749935267,,,,,,,,,,,,,,,,,,,,,,,,,,,,,,,,,,,,,,,570,2023-05-16_17h04.09.279,eb_02psyexp,2022.2.4,99.96071516308281,
63,0,63,0,,,,,,,,,,,,,,,,,,,,,,,,,,,,,,,,,,,,,,,,,,,,,,,,,,,,,,,,,,,1273.0012749935267,1273.0012749935267,1273.0012749935267,1273.0012749935267,1273.0012749935267,1273.0012749935267,s,1,1.3617567624896765,1274.382040158729,1275.4026229731971,,,,,,,,,,,,,,,,,,,,,,,,,,,,,,,,,,,,,,,570,2023-05-16_17h04.09.279,eb_02psyexp,2022.2.4,99.96071516308281,
64,0,64,0,,,,,,,,,,,,,,,,,,,,,,,,,,,,,,,,,,,,,,,,,,,,,,,,,,,,,,,,,,,1275.4026229731971,1275.4026229731971,1275.4026229731971,1275.4026229731971,1275.4026229731971,1275.4026229731971,s,1,1.2244015651522204,1276.6433356535854,1277.6739442516118,,,,,,,,,,,,,,,,,,,,,,,,,,,,,,,,,,,,,,,570,2023-05-16_17h04.09.279,eb_02psyexp,2022.2.4,99.96071516308281,
65,0,65,0,,,,,,,,,,,,,,,,,,,,,,,,,,,,,,,,,,,,,,,,,,,,,,,,,,,,,,,,,,,1277.6739442516118,1277.6739442516118,1277.6739442516118,1277.6739442516118,1277.6739442516118,1277.6739442516118,s,1,1.2411370625486597,1278.934674692573,1279.9552704864182,,,,,,,,,,,,,,,,,,,,,,,,,,,,,,,,,,,,,,,570,2023-05-16_17h04.09.279,eb_02psyexp,2022.2.4,99.96071516308281,
66,0,66,0,,,,,,,,,,,,,,,,,,,,,,,,,,,,,,,,,,,,,,,,,,,,,,,,,,,,,,,,,,,1279.9552704864182,1279.9552704864182,1279.9552704864182,1279.9552704864182,1279.9552704864182,1279.9552704864182,s,1,1.1677968632429838,1281.1359567492036,1282.1565999328159,,,,,,,,,,,,,,,,,,,,,,,,,,,,,,,,,,,,,,,570,2023-05-16_17h04.09.279,eb_02psyexp,2022.2.4,99.96071516308281,
67,0,67,0,,,,,,,,,,,,,,,,,,,,,,,,,,,,,,,,,,,,,,,,,,,,,,,,,,,,,,,,,,,1282.1565999328159,1282.1565999328159,1282.1565999328159,1282.1565999328159,1282.1565999328159,1282.1565999328159,s,1,1.590533583657816,1283.7574804752367,1284.7780880409991,,,,,,,,,,,,,,,,,,,,,,,,,,,,,,,,,,,,,,,570,2023-05-16_17h04.09.279,eb_02psyexp,2022.2.4,99.96071516308281,
68,0,68,0,,,,,,,,,,,,,,,,,,,,,,,,,,,,,,,,,,,,,,,,,,,,,,,,,,,,,,,,,,,1284.7780880409991,1284.7780880409991,1284.7780880409991,1284.7780880409991,1284.7780880409991,1284.7780880409991,l,1,1.4400233749765903,1286.2289177828934,1287.2495123693952,,,,,,,,,,,,,,,,,,,,,,,,,,,,,,,,,,,,,,,570,2023-05-16_17h04.09.279,eb_02psyexp,2022.2.4,99.96071516308281,
69,0,69,0,,,,,,,,,,,,,,,,,,,,,,,,,,,,,,,,,,,,,,,,,,,,,,,,,,,,,,,,,,,1287.2495123693952,1287.2495123693952,1287.2495123693952,1287.2495123693952,1287.2495123693952,1287.2495123693952,s,1,1.4006301801418886,1288.6603292285,1289.680974223069,,,,,,,,,,,,,,,,,,,,,,,,,,,,,,,,,,,,,,,570,2023-05-16_17h04.09.279,eb_02psyexp,2022.2.4,99.96071516308281,
70,0,70,0,,,,,,,,,,,,,,,,,,,,,,,,,,,,,,,,,,,,,,,,,,,,,,,,,,,,,,,,,,,1289.680974223069,1289.680974223069,1289.680974223069,1289.680974223069,1289.680974223069,1289.680974223069,s,1,1.4171257107518613,1291.111760849366,1292.1323545303894,,,,,,,,,,,,,,,,,,,,,,,,,,,,,,,,,,,,,,,570,2023-05-16_17h04.09.279,eb_02psyexp,2022.2.4,99.96071516308281,
71,0,71,0,,,,,,,,,,,,,,,,,,,,,,,,,,,,,,,,,,,,,,,,,,,,,,,,,,,,,,,,,,,1292.1323545303894,1292.1323545303894,1292.1323545303894,1292.1323545303894,1292.1323545303894,1292.1323545303894,l,1,1.2137406994588673,1293.3630698005436,1294.3836628777208,,,,,,,,,,,,,,,,,,,,,,,,,,,,,,,,,,,,,,,570,2023-05-16_17h04.09.279,eb_02psyexp,2022.2.4,99.96071516308281,
72,0,72,0,,,,,,,,,,,,,,,,,,,,,,,,,,,,,,,,,,,,,,,,,,,,,,,,,,,,,,,,,,,1294.3836628777208,1294.3836628777208,1294.3836628777208,1294.3836628777208,1294.3836628777208,1294.3836628777208,s,1,1.1224443413084373,1295.5243250895292,1296.5449236000422,,,,,,,,,,,,,,,,,,,,,,,,,,,,,,,,,,,,,,,570,2023-05-16_17h04.09.279,eb_02psyexp,2022.2.4,99.96071516308281,
73,0,73,0,,,,,,,,,,,,,,,,,,,,,,,,,,,,,,,,,,,,,,,,,,,,,,,,,,,,,,,,,,,1296.5449236000422,1296.5449236000422,1296.5449236000422,1296.5449236000422,1296.5449236000422,1296.5449236000422,l,1,1.1531954103847966,1297.7155919272918,1298.7362218295457,,,,,,,,,,,,,,,,,,,,,,,,,,,,,,,,,,,,,,,570,2023-05-16_17h04.09.279,eb_02psyexp,2022.2.4,99.96071516308281,
74,0,74,0,,,,,,,,,,,,,,,,,,,,,,,,,,,,,,,,,,,,,,,,,,,,,,,,,,,,,,,,,,,1298.7362218295457,1298.7362218295457,1298.7362218295457,1298.7362218295457,1298.7362218295457,1298.7362218295457,s,1,0.9939470890676603,1299.7467794641852,1300.7773823272437,,,,,,,,,,,,,,,,,,,,,,,,,,,,,,,,,,,,,,,570,2023-05-16_17h04.09.279,eb_02psyexp,2022.2.4,99.96071516308281,
75,0,75,0,,,,,,,,,,,,,,,,,,,,,,,,,,,,,,,,,,,,,,,,,,,,,,,,,,,,,,,,,,,1300.7773823272437,1300.7773823272437,1300.7773823272437,1300.7773823272437,1300.7773823272437,1300.7773823272437,s,1,1.1357756302459165,1301.928050702787,1302.9486920752097,,,,,,,,,,,,,,,,,,,,,,,,,,,,,,,,,,,,,,,570,2023-05-16_17h04.09.279,eb_02psyexp,2022.2.4,99.96071516308281,
76,0,76,0,,,,,,,,,,,,,,,,,,,,,,,,,,,,,,,,,,,,,,,,,,,,,,,,,,,,,,,,,,,1302.9486920752097,1302.9486920752097,1302.9486920752097,1302.9486920752097,1302.9486920752097,1302.9486920752097,s,1,1.1564794845180586,1304.1193706651684,1305.139918465633,,,,,,,,,,,,,,,,,,,,,,,,,,,,,,,,,,,,,,,570,2023-05-16_17h04.09.279,eb_02psyexp,2022.2.4,99.96071516308281,
77,0,77,0,,,,,,,,,,,,,,,,,,,,,,,,,,,,,,,,,,,,,,,,,,,,,,,,,,,,,,,,,,,1305.139918465633,1305.139918465633,1305.139918465633,1305.139918465633,1305.139918465633,1305.139918465633,s,1,0.9332478590076789,1306.0904726230074,1307.121079410077,,,,,,,,,,,,,,,,,,,,,,,,,,,,,,,,,,,,,,,570,2023-05-16_17h04.09.279,eb_02psyexp,2022.2.4,99.96071516308281,
78,0,78,0,,,,,,,,,,,,,,,,,,,,,,,,,,,,,,,,,,,,,,,,,,,,,,,,,,,,,,,,,,,1307.121079410077,1307.121079410077,1307.121079410077,1307.121079410077,1307.121079410077,1307.121079410077,s,1,0.8961130689131096,1308.0315935185645,1309.052243644488,,,,,,,,,,,,,,,,,,,,,,,,,,,,,,,,,,,,,,,570,2023-05-16_17h04.09.279,eb_02psyexp,2022.2.4,99.96071516308281,
79,0,79,0,,,,,,,,,,,,,,,,,,,,,,,,,,,,,,,,,,,,,,,,,,,,,,,,,,,,,,,,,,,1309.052243644488,1309.052243644488,1309.052243644488,1309.052243644488,1309.052243644488,1309.052243644488,s,1,0.6929604783654213,1309.7625997674186,1310.7832037110347,,,,,,,,,,,,,,,,,,,,,,,,,,,,,,,,,,,,,,,570,2023-05-16_17h04.09.279,eb_02psyexp,2022.2.4,99.96071516308281,
80,0,80,0,,,,,,,,,,,,,,,,,,,,,,,,,,,,,,,,,,,,,,,,,,,,,,,,,,,,,,,,,,,1310.7832037110347,1310.7832037110347,1310.7832037110347,1310.7832037110347,1310.7832037110347,1310.7832037110347,l,1,0.6820406296756119,1311.483601361746,1312.5042213031556,,,,,,,,,,,,,,,,,,,,,,,,,,,,,,,,,,,,,,,570,2023-05-16_17h04.09.279,eb_02psyexp,2022.2.4,99.96071516308281,
81,0,81,0,,,,,,,,,,,,,,,,,,,,,,,,,,,,,,,,,,,,,,,,,,,,,,,,,,,,,,,,,,,1312.5042213031556,1312.5042213031556,1312.5042213031556,1312.5042213031556,1312.5042213031556,1312.5042213031556,s,1,0.5610131369903684,1313.0845389527967,1314.1051736846566,,,,,,,,,,,,,,,,,,,,,,,,,,,,,,,,,,,,,,,570,2023-05-16_17h04.09.279,eb_02psyexp,2022.2.4,99.96071516308281,
82,0,82,0,,,,,,,,,,,,,,,,,,,,,,,,,,,,,,,,,,,,,,,,,,,,,,,,,,,,,,,,,,,1314.1051736846566,1314.1051736846566,1314.1051736846566,1314.1051736846566,1314.1051736846566,1314.1051736846566,s,1,1.2401113929226995,1315.3558608349413,1316.3864576611668,,,,,,,,,,,,,,,,,,,,,,,,,,,,,,,,,,,,,,,570,2023-05-16_17h04.09.279,eb_02psyexp,2022.2.4,99.96071516308281,
83,0,83,0,,,,,,,,,,,,,,,,,,,,,,,,,,,,,,,,,,,,,,,,,,,,,,,,,,,,,,,,,,,1316.3864576611668,1316.3864576611668,1316.3864576611668,1316.3864576611668,1316.3864576611668,1316.3864576611668,l,1,1.3498278458137065,1317.7472835454391,1318.767847947427,,,,,,,,,,,,,,,,,,,,,,,,,,,,,,,,,,,,,,,570,2023-05-16_17h04.09.279,eb_02psyexp,2022.2.4,99.96071516308281,
84,0,84,0,,,,,,,,,,,,,,,,,,,,,,,,,,,,,,,,,,,,,,,,,,,,,,,,,,,,,,,,,,,1318.767847947427,1318.767847947427,1318.767847947427,1318.767847947427,1318.767847947427,1318.767847947427,s,1,1.0004687533946708,1319.7784402942052,1320.7990744223353,,,,,,,,,,,,,,,,,,,,,,,,,,,,,,,,,,,,,,,570,2023-05-16_17h04.09.279,eb_02psyexp,2022.2.4,99.96071516308281,
85,0,85,0,,,,,,,,,,,,,,,,,,,,,,,,,,,,,,,,,,,,,,,,,,,,,,,,,,,,,,,,,,,1320.7990744223353,1320.7990744223353,1320.7990744223353,1320.7990744223353,1320.7990744223353,1320.7990744223353,s,1,1.2651974338805303,1322.0797701027477,1323.1003812906565,,,,,,,,,,,,,,,,,,,,,,,,,,,,,,,,,,,,,,,570,2023-05-16_17h04.09.279,eb_02psyexp,2022.2.4,99.96071516308281,
86,0,86,0,,,,,,,,,,,,,,,,,,,,,,,,,,,,,,,,,,,,,,,,,,,,,,,,,,,,,,,,,,,1323.1003812906565,1323.1003812906565,1323.1003812906565,1323.1003812906565,1323.1003812906565,1323.1003812906565,l,1,1.0919489351799712,1324.2110090136994,1325.2316141647752,,,,,,,,,,,,,,,,,,,,,,,,,,,,,,,,,,,,,,,570,2023-05-16_17h04.09.279,eb_02psyexp,2022.2.4,99.96071516308281,
87,0,87,0,,,,,,,,,,,,,,,,,,,,,,,,,,,,,,,,,,,,,,,,,,,,,,,,,,,,,,,,,,,1325.2316141647752,1325.2316141647752,1325.2316141647752,1325.2316141647752,1325.2316141647752,1325.2316141647752,s,1,0.9127063972409815,1326.1621445246274,1327.1827394129941,,,,,,,,,,,,,,,,,,,,,,,,,,,,,,,,,,,,,,,570,2023-05-16_17h04.09.279,eb_02psyexp,2022.2.4,99.96071516308281,
88,0,88,0,,,,,,,,,,,,,,,,,,,,,,,,,,,,,,,,,,,,,,,,,,,,,,,,,,,,,,,,,,,1327.1827394129941,1327.1827394129941,1327.1827394129941,1327.1827394129941,1327.1827394129941,1327.1827394129941,l,1,0.8335710746468976,1328.0332376685692,1329.0538277274463,,,,,,,,,,,,,,,,,,,,,,,,,,,,,,,,,,,,,,,570,2023-05-16_17h04.09.279,eb_02psyexp,2022.2.4,99.96071516308281,
89,0,89,0,,,,,,,,,,,,,,,,,,,,,,,,,,,,,,,,,,,,,,,,,,,,,,,,,,,,,,,,,,,1329.0538277274463,1329.0538277274463,1329.0538277274463,1329.0538277274463,1329.0538277274463,1329.0538277274463,s,1,1.1625127636361867,1330.2345127828885,1331.2551085767336,,,,,,,,,,,,,,,,,,,,,,,,,,,,,,,,,,,,,,,570,2023-05-16_17h04.09.279,eb_02psyexp,2022.2.4,99.96071516308281,
90,0,90,0,,,,,,,,,,,,,,,,,,,,,,,,,,,,,,,,,,,,,,,,,,,,,,,,,,,,,,,,,,,1331.2551085767336,1331.2551085767336,1331.2551085767336,1331.2551085767336,1331.2551085767336,1331.2551085767336,l,1,1.2082540618721396,1332.4758161739446,1333.4964140807278,,,,,,,,,,,,,,,,,,,,,,,,,,,,,,,,,,,,,,,570,2023-05-16_17h04.09.279,eb_02psyexp,2022.2.4,99.96071516308281,
91,0,91,0,,,,,,,,,,,,,,,,,,,,,,,,,,,,,,,,,,,,,,,,,,,,,,,,,,,,,,,,,,,1333.4964140807278,1333.4964140807278,1333.4964140807278,1333.4964140807278,1333.4964140807278,1333.4964140807278,s,1,0.951023816363886,1334.4669763395796,1335.4875685112784,,,,,,,,,,,,,,,,,,,,,,,,,,,,,,,,,,,,,,,570,2023-05-16_17h04.09.279,eb_02psyexp,2022.2.4,99.96071516308281,
92,0,92,0,,,,,,,,,,,,,,,,,,,,,,,,,,,,,,,,,,,,,,,,,,,,,,,,,,,,,,,,,,,1335.4875685112784,1335.4875685112784,1335.4875685112784,1335.4875685112784,1335.4875685112784,1335.4875685112784,l,1,1.1918134670704603,1336.6982651153812,1337.7189152413048,,,,,,,,,,,,,,,,,,,,,,,,,,,,,,,,,,,,,,,570,2023-05-16_17h04.09.279,eb_02psyexp,2022.2.4,99.96071516308281,
93,0,93,0,,,,,,,,,,,,,,,,,,,,,,,,,,,,,,,,,,,,,,,,,,,,,,,,,,,,,,,,,,,1337.7189152413048,1337.7189152413048,1337.7189152413048,1337.7189152413048,1337.7189152413048,1337.7189152413048,s,1,0.9284787069773301,1338.6594079973875,1339.6800101299305,,,,,,,,,,,,,,,,,,,,,,,,,,,,,,,,,,,,,,,570,2023-05-16_17h04.09.279,eb_02psyexp,2022.2.4,99.96071516308281,
94,0,94,0,,,,,,,,,,,,,,,,,,,,,,,,,,,,,,,,,,,,,,,,,,,,,,,,,,,,,,,,,,,1339.6800101299305,1339.6800101299305,1339.6800101299305,1339.6800101299305,1339.6800101299305,1339.6800101299305,l,1,1.7914069421822205,1341.4910593493842,1342.5117022311315,,,,,,,,,,,,,,,,,,,,,,,,,,,,,,,,,,,,,,,570,2023-05-16_17h04.09.279,eb_02psyexp,2022.2.4,99.96071516308281,
95,0,95,0,,,,,,,,,,,,,,,,,,,,,,,,,,,,,,,,,,,,,,,,,,,,,,,,,,,,,,,,,,,1342.5117022311315,1342.5117022311315,1342.5117022311315,1342.5117022311315,1342.5117022311315,1342.5117022311315,s,1,2.863724490394816,1345.393331276835,1346.423930517747,,,,,,,,,,,,,,,,,,,,,,,,,,,,,,,,,,,,,,,570,2023-05-16_17h04.09.279,eb_02psyexp,2022.2.4,99.96071516308281,
96,0,96,0,,,,,,,,,,,,,,,,,,,,,,,,,,,,,,,,,,,,,,,,,,,,,,,,,,,,,,,,,,,1346.423930517747,1346.423930517747,1346.423930517747,1346.423930517747,1346.423930517747,1346.423930517747,s,1,1.398516962886788,1347.83474888606,1348.8553440762917,,,,,,,,,,,,,,,,,,,,,,,,,,,,,,,,,,,,,,,570,2023-05-16_17h04.09.279,eb_02psyexp,2022.2.4,99.96071516308281,
97,0,97,0,,,,,,,,,,,,,,,,,,,,,,,,,,,,,,,,,,,,,,,,,,,,,,,,,,,,,,,,,,,1348.8553440762917,1348.8553440762917,1348.8553440762917,1348.8553440762917,1348.8553440762917,1348.8553440762917,s,1,1.2871035372372717,1350.1561003791867,1351.1867002238287,,,,,,,,,,,,,,,,,,,,,,,,,,,,,,,,,,,,,,,570,2023-05-16_17h04.09.279,eb_02psyexp,2022.2.4,99.96071516308281,
98,0,98,0,,,,,,,,,,,,,,,,,,,,,,,,,,,,,,,,,,,,,,,,,,,,,,,,,,,,,,,,,,,1351.1867002238287,1351.1867002238287,1351.1867002238287,1351.1867002238287,1351.1867002238287,1351.1867002238287,s,1,1.2357446005335078,1352.4374356693588,1353.4580190875567,,,,,,,,,,,,,,,,,,,,,,,,,,,,,,,,,,,,,,,570,2023-05-16_17h04.09.279,eb_02psyexp,2022.2.4,99.96071516308281,
99,0,99,0,,,,,,,,,,,,,,,,,,,,,,,,,,,,,,,,,,,,,,,,,,,,,,,,,,,,,,,,,,,1353.4580190875567,1353.4580190875567,1353.4580190875567,1353.4580190875567,1353.4580190875567,1353.4580190875567,l,1,0.7244353716960177,1354.1984631257365,1355.2290502928663,,,,,,,,,,,,,,,,,,,,,,,,,,,,,,,,,,,,,,,570,2023-05-16_17h04.09.279,eb_02psyexp,2022.2.4,99.96071516308281,
100,0,100,0,,,,,,,,,,,,,,,,,,,,,,,,,,,,,,,,,,,,,,,,,,,,,,,,,,,,,,,,,,,1355.2290502928663,1355.2290502928663,1355.2290502928663,1355.2290502928663,1355.2290502928663,1355.2290502928663,s,1,1.121444328688085,1356.3697125046747,1357.3903079966549,,,,,,,,,,,,,,,,,,,,,,,,,,,,,,,,,,,,,,,570,2023-05-16_17h04.09.279,eb_02psyexp,2022.2.4,99.96071516308281,
101,0,101,0,,,,,,,,,,,,,,,,,,,,,,,,,,,,,,,,,,,,,,,,,,,,,,,,,,,,,,,,,,,1357.3903079966549,1357.3903079966549,1357.3903079966549,1357.3903079966549,1357.3903079966549,1357.3903079966549,s,1,1.4642068991670385,1358.8711689071497,1359.8918117887806,,,,,,,,,,,,,,,,,,,,,,,,,,,,,,,,,,,,,,,570,2023-05-16_17h04.09.279,eb_02psyexp,2022.2.4,99.96071516308281,
102,0,102,0,,,,,,,,,,,,,,,,,,,,,,,,,,,,,,,,,,,,,,,,,,,,,,,,,,,,,,,,,,,1359.8918117887806,1359.8918117887806,1359.8918117887806,1359.8918117887806,1359.8918117887806,1359.8918117887806,s,1,0.9627082385122776,1360.8723322179867,1361.8929262007587,,,,,,,,,,,,,,,,,,,,,,,,,,,,,,,,,,,,,,,570,2023-05-16_17h04.09.279,eb_02psyexp,2022.2.4,99.96071516308281,
103,0,103,0,,,,,,,,,,,,,,,,,,,,,,,,,,,,,,,,,,,,,,,,,,,,,,,,,,,,,,,,,,,1361.8929262007587,1361.8929262007587,1361.8929262007587,1361.8929262007587,1361.8929262007587,1361.8929262007587,l,1,0.7926493363920599,1362.7033904445125,1363.7239937843988,,,,,,,,,,,,,,,,,,,,,,,,,,,,,,,,,,,,,,,570,2023-05-16_17h04.09.279,eb_02psyexp,2022.2.4,99.96071516308281,
104,0,104,0,,,,,,,,,,,,,,,,,,,,,,,,,,,,,,,,,,,,,,,,,,,,,,,,,,,,,,,,,,,1363.7239937843988,1363.7239937843988,1363.7239937843988,1363.7239937843988,1363.7239937843988,1363.7239937843988,s,1,0.5535460938699543,1364.294323079288,1365.3149674702436,,,,,,,,,,,,,,,,,,,,,,,,,,,,,,,,,,,,,,,570,2023-05-16_17h04.09.279,eb_02psyexp,2022.2.4,99.96071516308281,
105,0,105,0,,,,,,,,,,,,,,,,,,,,,,,,,,,,,,,,,,,,,,,,,,,,,,,,,,,,,,,,,,,1365.3149674702436,1365.3149674702436,1365.3149674702436,1365.3149674702436,1365.3149674702436,1365.3149674702436,s,1,0.5865582842379808,1365.915265753516,1366.9458655980416,,,,,,,,,,,,,,,,,,,,,,,,,,,,,,,,,,,,,,,570,2023-05-16_17h04.09.279,eb_02psyexp,2022.2.4,99.96071516308281,
106,0,106,0,,,,,,,,,,,,,,,,,,,,,,,,,,,,,,,,,,,,,,,,,,,,,,,,,,,,,,,,,,,1366.9458655980416,1366.9458655980416,1366.9458655980416,1366.9458655980416,1366.9458655980416,1366.9458655980416,s,1,0.36366502684541047,1367.3260850274237,,,,,,,,,,,,,,,,,,,,,,,,,,,,,,,,,,,,,,,,570,2023-05-16_17h04.09.279,eb_02psyexp,2022.2.4,99.96071516308281,
107,0,107,0,,,,,,,,,,,,,,,,,,,,,,,,,,,,,,,,,,,,,,,,,,,,,,,,,,,,,,,,,,,1368.3467082891148,1368.3467082891148,1368.3467082891148,1368.3467082891148,1368.3467082891148,1368.3467082891148,s,1,0.7068408232880756,1369.0674155845772,1370.0877638654783,,,,,,,,,,,,,,,,,,,,,,,,,,,,,,,,,,,,,,,570,2023-05-16_17h04.09.279,eb_02psyexp,2022.2.4,99.96071516308281,
108,0,108,0,,,,,,,,,,,,,,,,,,,,,,,,,,,,,,,,,,,,,,,,,,,,,,,,,,,,,,,,,,,1370.0877638654783,1370.0877638654783,1370.0877638654783,1370.0877638654783,1370.0877638654783,1370.0877638654783,s,1,1.0298126207198948,1371.1282980346587,1372.1488853767514,,,,,,,,,,,,,,,,,,,,,,,,,,,,,,,,,,,,,,,570,2023-05-16_17h04.09.279,eb_02psyexp,2022.2.4,99.96071516308281,
109,0,109,0,,,,,,,,,,,,,,,,,,,,,,,,,,,,,,,,,,,,,,,,,,,,,,,,,,,,,,,,,,,1372.1488853767514,1372.1488853767514,1372.1488853767514,1372.1488853767514,1372.1488853767514,1372.1488853767514,s,1,0.984677427331917,1373.1494640137535,1374.1700435079401,,,,,,,,,,,,,,,,,,,,,,,,,,,,,,,,,,,,,,,570,2023-05-16_17h04.09.279,eb_02psyexp,2022.2.4,99.96071516308281,
110,0,110,0,,,,,,,,,,,,,,,,,,,,,,,,,,,,,,,,,,,,,,,,,,,,,,,,,,,,,,,,,,,1374.1700435079401,1374.1700435079401,1374.1700435079401,1374.1700435079401,1374.1700435079401,1374.1700435079401,l,1,0.8835297521436587,1375.07059401297,1376.0911864865338,,,,,,,,,,,,,,,,,,,,,,,,,,,,,,,,,,,,,,,570,2023-05-16_17h04.09.279,eb_02psyexp,2022.2.4,99.96071516308281,
111,0,111,0,,,,,,,,,,,,,,,,,,,,,,,,,,,,,,,,,,,,,,,,,,,,,,,,,,,,,,,,,,,1376.0911864865338,1376.0911864865338,1376.0911864865338,1376.0911864865338,1376.0911864865338,1376.0911864865338,s,1,0.9143985405098647,1377.0217479364946,1378.042310829158,,,,,,,,,,,,,,,,,,,,,,,,,,,,,,,,,,,,,,,570,2023-05-16_17h04.09.279,eb_02psyexp,2022.2.4,99.96071516308281,
112,0,112,0,,,,,,,,,,,,,,,,,,,,,,,,,,,,,,,,,,,,,,,,,,,,,,,,,,,,,,,,,,,1378.042310829158,1378.042310829158,1378.042310829158,1378.042310829158,1378.042310829158,1378.042310829158,l,1,0.7462808040436357,1378.8027828907361,1379.8233548387652,,,,,,,,,,,,,,,,,,,,,,,,,,,,,,,,,,,,,,,570,2023-05-16_17h04.09.279,eb_02psyexp,2022.2.4,99.96071516308281,
113,0,113,0,,,,,,,,,,,,,,,,,,,,,,,,,,,,,,,,,,,,,,,,,,,,,,,,,,,,,,,,,,,1379.8233548387652,1379.8233548387652,1379.8233548387652,1379.8233548387652,1379.8233548387652,1379.8233548387652,s,1,0.7892855750396848,1380.6238198613282,1381.6444156551734,,,,,,,,,,,,,,,,,,,,,,,,,,,,,,,,,,,,,,,570,2023-05-16_17h04.09.279,eb_02psyexp,2022.2.4,99.96071516308281,
114,0,114,0,,,,,,,,,,,,,,,,,,,,,,,,,,,,,,,,,,,,,,,,,,,,,,,,,,,,,,,,,,,1381.6444156551734,1381.6444156551734,1381.6444156551734,1381.6444156551734,1381.6444156551734,1381.6444156551734,l,1,0.6961986721726134,1382.3548276193906,1383.375424318714,,,,,,,,,,,,,,,,,,,,,,,,,,,,,,,,,,,,,,,570,2023-05-16_17h04.09.279,eb_02psyexp,2022.2.4,99.96071516308281,
115,0,115,0,,,,,,,,,,,,,,,,,,,,,,,,,,,,,,,,,,,,,,,,,,,,,,,,,,,,,,,,,,,1383.375424318714,1383.375424318714,1383.375424318714,1383.375424318714,1383.375424318714,1383.375424318714,l,1,0.6692306272452697,1384.0558159807697,1385.0864067700459,,,,,,,,,,,,,,,,,,,,,,,,,,,,,,,,,,,,,,,570,2023-05-16_17h04.09.279,eb_02psyexp,2022.2.4,99.96071516308281,
116,0,116,0,,,,,,,,,,,,,,,,,,,,,,,,,,,,,,,,,,,,,,,,,,,,,,,,,,,,,,,,,,,1385.0864067700459,1385.0864067700459,1385.0864067700459,1385.0864067700459,1385.0864067700459,1385.0864067700459,s,1,1.0782297754194587,1386.1770487281028,1387.1976925153285,,,,,,,,,,,,,,,,,,,,,,,,,,,,,,,,,,,,,,,570,2023-05-16_17h04.09.279,eb_02psyexp,2022.2.4,99.96071516308281,
117,0,117,0,,,,,,,,,,,,,,,,,,,,,,,,,,,,,,,,,,,,,,,,,,,,,,,,,,,,,,,,,,,1387.1976925153285,1387.1976925153285,1387.1976925153285,1387.1976925153285,1387.1976925153285,1387.1976925153285,s,1,0.6149528488749638,1387.8280044600833,1388.8485821431968,,,,,,,,,,,,,,,,,,,,,,,,,,,,,,,,,,,,,,,570,2023-05-16_17h04.09.279,eb_02psyexp,2022.2.4,99.96071516308281,
118,0,118,0,,,,,,,,,,,,,,,,,,,,,,,,,,,,,,,,,,,,,,,,,,,,,,,,,,,,,,,,,,,1388.8485821431968,1388.8485821431968,1388.8485821431968,1388.8485821431968,1388.8485821431968,1388.8485821431968,l,1,0.8601277046836913,1389.7191035926808,1390.73970934737,,,,,,,,,,,,,,,,,,,,,,,,,,,,,,,,,,,,,,,570,2023-05-16_17h04.09.279,eb_02psyexp,2022.2.4,99.96071516308281,
119,0,119,0,,,,,,,,,,,,,,,,,,,,,,,,,,,,,,,,,,,,,,,,,,,,,,,,,,,,,,,,,,,1390.73970934737,1390.73970934737,1390.73970934737,1390.73970934737,1390.73970934737,1390.73970934737,s,1,0.6249559940770268,1391.3800685068127,1392.4006839205977,,,,,,,,,,,,,,,,,,,,,,,,,,,,,,,,,,,,,,,570,2023-05-16_17h04.09.279,eb_02psyexp,2022.2.4,99.96071516308281,
120,0,120,0,,,,,,,,,,,,,,,,,,,,,,,,,,,,,,,,,,,,,,,,,,,,,,,,,,,,,,,,,,,1392.4006839205977,1392.4006839205977,1392.4006839205977,1392.4006839205977,1392.4006839205977,1392.4006839205977,s,1,0.5640014030504972,1392.980996740749,1394.0016018917086,,,,,,,,,,,,,,,,,,,,,,,,,,,,,,,,,,,,,,,570,2023-05-16_17h04.09.279,eb_02psyexp,2022.2.4,99.96071516308281,
121,0,121,0,,,,,,,,,,,,,,,,,,,,,,,,,,,,,,,,,,,,,,,,,,,,,,,,,,,,,,,,,,,1394.0016018917086,1394.0016018917086,1394.0016018917086,1394.0016018917086,1394.0016018917086,1394.0016018917086,l,1,0.6501180999912322,1394.6619818301406,1395.682626522961,,,,,,,,,,,,,,,,,,,,,,,,,,,,,,,,,,,,,,,570,2023-05-16_17h04.09.279,eb_02psyexp,2022.2.4,99.96071516308281,
122,0,122,0,,,,,,,,,,,,,,,,,,,,,,,,,,,,,,,,,,,,,,,,,,,,,,,,,,,,,,,,,,,1395.682626522961,1395.682626522961,1395.682626522961,1395.682626522961,1395.682626522961,1395.682626522961,s,1,0.721089419326745,1396.423001740477,1397.4536106404848,,,,,,,,,,,,,,,,,,,,,,,,,,,,,,,,,,,,,,,570,2023-05-16_17h04.09.279,eb_02psyexp,2022.2.4,99.96071516308281,
123,0,123,0,,,,,,,,,,,,,,,,,,,,,,,,,,,,,,,,,,,,,,,,,,,,,,,,,,,,,,,,,,,1397.4536106404848,1397.4536106404848,1397.4536106404848,1397.4536106404848,1397.4536106404848,1397.4536106404848,s,1,0.7340947154443711,1398.2040439390112,1399.224638827378,,,,,,,,,,,,,,,,,,,,,,,,,,,,,,,,,,,,,,,570,2023-05-16_17h04.09.279,eb_02psyexp,2022.2.4,99.96071516308281,
124,0,124,0,,,,,,,,,,,,,,,,,,,,,,,,,,,,,,,,,,,,,,,,,,,,,,,,,,,,,,,,,,,1399.224638827378,1399.224638827378,1399.224638827378,1399.224638827378,1399.224638827378,1399.224638827378,s,1,0.5391251444816589,1399.7749597188085,1400.8055595634505,,,,,,,,,,,,,,,,,,,,,,,,,,,,,,,,,,,,,,,570,2023-05-16_17h04.09.279,eb_02psyexp,2022.2.4,99.96071516308281,
125,0,125,0,,,,,,,,,,,,,,,,,,,,,,,,,,,,,,,,,,,,,,,,,,,,,,,,,,,,,,,,,,,1400.8055595634505,1400.8055595634505,1400.8055595634505,1400.8055595634505,1400.8055595634505,1400.8055595634505,s,1,0.49416200269479305,1401.3158554983092,1402.336450386676,,,,,,,,,,,,,,,,,,,,,,,,,,,,,,,,,,,,,,,570,2023-05-16_17h04.09.279,eb_02psyexp,2022.2.4,99.96071516308281,
126,0,126,0,,,,,,,,,,,,,,,,,,,,,,,,,,,,,,,,,,,,,,,,,,,,,,,,,,,,,,,,,,,1402.336450386676,1402.336450386676,1402.336450386676,1402.336450386676,1402.336450386676,1402.336450386676,l,1,0.5473160119727254,1402.8971001141472,1403.9173560305499,,,,,,,,,,,,,,,,,,,,,,,,,,,,,,,,,,,,,,,570,2023-05-16_17h04.09.279,eb_02psyexp,2022.2.4,99.96071516308281,
127,0,127,0,,,,,,,,,,,,,,,,,,,,,,,,,,,,,,,,,,,,,,,,,,,,,,,,,,,,,,,,,,,1403.9173560305499,1403.9173560305499,1403.9173560305499,1403.9173560305499,1403.9173560305499,1403.9173560305499,l,1,0.5424140482209623,1404.4776888206834,,,,,,,,,,,,,,,,,,,,,,,,,,,,,,,,,,,,,,,,570,2023-05-16_17h04.09.279,eb_02psyexp,2022.2.4,99.96071516308281,
128,0,128,0,,,,,,,,,,,,,,,,,,,,,,,,,,,,,,,,,,,,,,,,,,,,,,,,,,,,,,,,,,,1405.4986133237835,1405.4986133237835,1405.4986133237835,1405.4986133237835,1405.4986133237835,1405.4986133237835,s,1,1.537165868212469,1407.0491820301395,1408.06979231257,,,,,,,,,,,,,,,,,,,,,,,,,,,,,,,,,,,,,,,570,2023-05-16_17h04.09.279,eb_02psyexp,2022.2.4,99.96071516308281,
129,0,129,0,,,,,,,,,,,,,,,,,,,,,,,,,,,,,,,,,,,,,,,,,,,,,,,,,,,,,,,,,,,1408.06979231257,1408.06979231257,1408.06979231257,1408.06979231257,1408.06979231257,1408.06979231257,l,1,1.053974412032403,1409.1403977955924,1410.161047921516,,,,,,,,,,,,,,,,,,,,,,,,,,,,,,,,,,,,,,,570,2023-05-16_17h04.09.279,eb_02psyexp,2022.2.4,99.96071516308281,
130,0,130,0,,,,,,,,,,,,,,,,,,,,,,,,,,,,,,,,,,,,,,,,,,,,,,,,,,,,,,,,,,,1410.161047921516,1410.161047921516,1410.161047921516,1410.161047921516,1410.161047921516,1410.161047921516,s,1,0.8497569122118875,1411.0215001216857,1412.0420944063226,,,,,,,,,,,,,,,,,,,,,,,,,,,,,,,,,,,,,,,570,2023-05-16_17h04.09.279,eb_02psyexp,2022.2.4,99.96071516308281,
131,0,131,0,,,,,,,,,,,,,,,,,,,,,,,,,,,,,,,,,,,,,,,,,,,,,,,,,,,,,,,,,,,1412.0420944063226,1412.0420944063226,1412.0420944063226,1412.0420944063226,1412.0420944063226,1412.0420944063226,l,1,0.8326981387799606,1412.8925884361379,1413.9131824189099,,,,,,,,,,,,,,,,,,,,,,,,,,,,,,,,,,,,,,,570,2023-05-16_17h04.09.279,eb_02psyexp,2022.2.4,99.96071516308281,
132,0,132,0,,,,,,,,,,,,,,,,,,,,,,,,,,,,,,,,,,,,,,,,,,,,,,,,,,,,,,,,,,,1413.9131824189099,1413.9131824189099,1413.9131824189099,1413.9131824189099,1413.9131824189099,1413.9131824189099,l,1,0.8816402020165697,1414.8137066634372,1415.8343024572823,,,,,,,,,,,,,,,,,,,,,,,,,,,,,,,,,,,,,,,570,2023-05-16_17h04.09.279,eb_02psyexp,2022.2.4,99.96071516308281,
133,0,133,0,,,,,,,,,,,,,,,,,,,,,,,,,,,,,,,,,,,,,,,,,,,,,,,,,,,,,,,,,,,1415.8343024572823,1415.8343024572823,1415.8343024572823,1415.8343024572823,1415.8343024572823,1415.8343024572823,l,1,0.8725549675291404,1416.724823858356,1417.745461005019,,,,,,,,,,,,,,,,,,,,,,,,,,,,,,,,,,,,,,,570,2023-05-16_17h04.09.279,eb_02psyexp,2022.2.4,99.96071516308281,
134,0,134,0,,,,,,,,,,,,,,,,,,,,,,,,,,,,,,,,,,,,,,,,,,,,,,,,,,,,,,,,,,,1417.745461005019,1417.745461005019,1417.745461005019,1417.745461005019,1417.745461005019,1417.745461005019,s,1,0.9053579792380333,1418.6659299635794,1419.696540372679,,,,,,,,,,,,,,,,,,,,,,,,,,,,,,,,,,,,,,,570,2023-05-16_17h04.09.279,eb_02psyexp,2022.2.4,99.96071516308281,
135,0,135,0,,,,,,,,,,,,,,,,,,,,,,,,,,,,,,,,,,,,,,,,,,,,,,,,,,,,,,,,,,,1419.696540372679,1419.696540372679,1419.696540372679,1419.696540372679,1419.696540372679,1419.696540372679,s,1,0.6583077600225806,1420.3669403597014,1421.3875756951747,,,,,,,,,,,,,,,,,,,,,,,,,,,,,,,,,,,,,,,570,2023-05-16_17h04.09.279,eb_02psyexp,2022.2.4,99.96071516308281,
136,0,136,0,,,,,,,,,,,,,,,,,,,,,,,,,,,,,,,,,,,,,,,,,,,,,,,,,,,,,,,,,,,1421.3875756951747,1421.3875756951747,1421.3875756951747,1421.3875756951747,1421.3875756951747,1421.3875756951747,s,1,0.6552715006982908,1422.0579110872932,1423.0785177475773,,,,,,,,,,,,,,,,,,,,,,,,,,,,,,,,,,,,,,,570,2023-05-16_17h04.09.279,eb_02psyexp,2022.2.4,99.96071516308281,
137,0,137,0,,,,,,,,,,,,,,,,,,,,,,,,,,,,,,,,,,,,,,,,,,,,,,,,,,,,,,,,,,,1423.0785177475773,1423.0785177475773,1423.0785177475773,1423.0785177475773,1423.0785177475773,1423.0785177475773,l,1,0.8203644477762282,1423.909032351221,1424.9295913199894,,,,,,,,,,,,,,,,,,,,,,,,,,,,,,,,,,,,,,,570,2023-05-16_17h04.09.279,eb_02psyexp,2022.2.4,99.96071516308281,
138,0,138,0,,,,,,,,,,,,,,,,,,,,,,,,,,,,,,,,,,,,,,,,,,,,,,,,,,,,,,,,,,,1424.9295913199894,1424.9295913199894,1424.9295913199894,1424.9295913199894,1424.9295913199894,1424.9295913199894,s,1,0.9922854319447652,1425.9401637449628,1426.9607420318061,,,,,,,,,,,,,,,,,,,,,,,,,,,,,,,,,,,,,,,570,2023-05-16_17h04.09.279,eb_02psyexp,2022.2.4,99.96071516308281,
139,0,139,0,,,,,,,,,,,,,,,,,,,,,,,,,,,,,,,,,,,,,,,,,,,,,,,,,,,,,,,,,,,1426.9607420318061,1426.9607420318061,1426.9607420318061,1426.9607420318061,1426.9607420318061,1426.9607420318061,l,1,0.8091669016284868,1427.7812465477036,1428.8019018049818,,,,,,,,,,,,,,,,,,,,,,,,,,,,,,,,,,,,,,,570,2023-05-16_17h04.09.279,eb_02psyexp,2022.2.4,99.96071516308281,
140,0,140,0,,,,,,,,,,,,,,,,,,,,,,,,,,,,,,,,,,,,,,,,,,,,,,,,,,,,,,,,,,,1428.8019018049818,1428.8019018049818,1428.8019018049818,1428.8019018049818,1428.8019018049818,1428.8019018049818,s,1,0.7520095214713365,1429.5722909859614,1430.592909116298,,,,,,,,,,,,,,,,,,,,,,,,,,,,,,,,,,,,,,,570,2023-05-16_17h04.09.279,eb_02psyexp,2022.2.4,99.96071516308281,
141,0,141,0,,,,,,,,,,,,,,,,,,,,,,,,,,,,,,,,,,,,,,,,,,,,,,,,,,,,,,,,,,,1430.592909116298,1430.592909116298,1430.592909116298,1430.592909116298,1430.592909116298,1430.592909116298,l,1,0.7849897162523121,1431.3933487838367,1432.4139500109013,,,,,,,,,,,,,,,,,,,,,,,,,,,,,,,,,,,,,,,570,2023-05-16_17h04.09.279,eb_02psyexp,2022.2.4,99.96071516308281,
142,0,142,0,,,,,,,,,,,,,,,,,,,,,,,,,,,,,,,,,,,,,,,,,,,,,,,,,,,,,,,,,,,1432.4139500109013,1432.4139500109013,1432.4139500109013,1432.4139500109013,1432.4139500109013,1432.4139500109013,l,1,0.7319718392100185,1433.1643766688649,1434.1949810411315,,,,,,,,,,,,,,,,,,,,,,,,,,,,,,,,,,,,,,,570,2023-05-16_17h04.09.279,eb_02psyexp,2022.2.4,99.96071516308281,
143,0,143,0,,,,,,,,,,,,,,,,,,,,,,,,,,,,,,,,,,,,,,,,,,,,,,,,,,,,,,,,,,,1434.1949810411315,1434.1949810411315,1434.1949810411315,1434.1949810411315,1434.1949810411315,1434.1949810411315,s,1,0.8949325528228655,1435.1055087327259,1436.1261033192277,,,,,,,,,,,,,,,,,,,,,,,,,,,,,,,,,,,,,,,570,2023-05-16_17h04.09.279,eb_02psyexp,2022.2.4,99.96071516308281,
144,0,144,0,,,,,,,,,,,,,,,,,,,,,,,,,,,,,,,,,,,,,,,,,,,,,,,,,,,,,,,,,,,1436.1261033192277,1436.1261033192277,1436.1261033192277,1436.1261033192277,1436.1261033192277,1436.1261033192277,s,1,0.6198478701990098,1436.756469294196,1437.777116703568,,,,,,,,,,,,,,,,,,,,,,,,,,,,,,,,,,,,,,,570,2023-05-16_17h04.09.279,eb_02psyexp,2022.2.4,99.96071516308281,
145,0,145,0,,,,,,,,,,,,,,,,,,,,,,,,,,,,,,,,,,,,,,,,,,,,,,,,,,,,,,,,,,,1437.777116703568,1437.777116703568,1437.777116703568,1437.777116703568,1437.777116703568,1437.777116703568,s,1,1.016816983697936,1438.8076561791822,1439.838262966252,,,,,,,,,,,,,,,,,,,,,,,,,,,,,,,,,,,,,,,570,2023-05-16_17h04.09.279,eb_02psyexp,2022.2.4,99.96071516308281,
146,0,146,0,,,,,,,,,,,,,,,,,,,,,,,,,,,,,,,,,,,,,,,,,,,,,,,,,,,,,,,,,,,1439.838262966252,1439.838262966252,1439.838262966252,1439.838262966252,1439.838262966252,1439.838262966252,s,1,0.8107286480953917,1440.6687452724436,1441.6893413680373,,,,,,,,,,,,,,,,,,,,,,,,,,,,,,,,,,,,,,,570,2023-05-16_17h04.09.279,eb_02psyexp,2022.2.4,99.96071516308281,
147,0,147,0,,,,,,,,,,,,,,,,,,,,,,,,,,,,,,,,,,,,,,,,,,,,,,,,,,,,,,,,,,,1441.6893413680373,1441.6893413680373,1441.6893413680373,1441.6893413680373,1441.6893413680373,1441.6893413680373,s,1,0.7435961941955611,1442.4497814340284,1443.470423410181,,,,,,,,,,,,,,,,,,,,,,,,,,,,,,,,,,,,,,,570,2023-05-16_17h04.09.279,eb_02psyexp,2022.2.4,99.96071516308281,
148,0,148,0,,,,,,,,,,,,,,,,,,,,,,,,,,,,,,,,,,,,,,,,,,,,,,,,,,,,,,,,,,,1443.470423410181,1443.470423410181,1443.470423410181,1443.470423410181,1443.470423410181,1443.470423410181,s,1,0.8185669605154544,1444.3008580247406,1445.321452007629,,,,,,,,,,,,,,,,,,,,,,,,,,,,,,,,,,,,,,,570,2023-05-16_17h04.09.279,eb_02psyexp,2022.2.4,99.96071516308281,
149,0,149,0,,,,,,,,,,,,,,,,,,,,,,,,,,,,,,,,,,,,,,,,,,,,,,,,,,,,,,,,,,,1445.321452007629,1445.321452007629,1445.321452007629,1445.321452007629,1445.321452007629,1445.321452007629,s,1,0.703527168254368,1446.041862891172,1447.06246532558,,,,,,,,,,,,,,,,,,,,,,,,,,,,,,,,,,,,,,,570,2023-05-16_17h04.09.279,eb_02psyexp,2022.2.4,99.96071516308281,
150,0,150,0,,,,,,,,,,,,,,,,,,,,,,,,,,,,,,,,,,,,,,,,,,,,,,,,,,,,,,,,,,,1447.06246532558,1447.06246532558,1447.06246532558,1447.06246532558,1447.06246532558,1447.06246532558,l,1,0.8185467368457466,1447.892940387479,1448.913544934825,,,,,,,,,,,,,,,,,,,,,,,,,,,,,,,,,,,,,,,570,2023-05-16_17h04.09.279,eb_02psyexp,2022.2.4,99.96071516308281,
151,0,151,0,,,,,,,,,,,,,,,,,,,,,,,,,,,,,,,,,,,,,,,,,,,,,,,,,,,,,,,,,,,1448.913544934825,1448.913544934825,1448.913544934825,1448.913544934825,1448.913544934825,1448.913544934825,s,1,0.7994713366497308,1449.7240266855806,1450.7446541731479,,,,,,,,,,,,,,,,,,,,,,,,,,,,,,,,,,,,,,,570,2023-05-16_17h04.09.279,eb_02psyexp,2022.2.4,99.96071516308281,
152,0,152,0,,,,,,,,,,,,,,,,,,,,,,,,,,,,,,,,,,,,,,,,,,,,,,,,,,,,,,,,,,,1450.7446541731479,1450.7446541731479,1450.7446541731479,1450.7446541731479,1450.7446541731479,1450.7446541731479,s,1,0.696351405698806,1451.4550356509862,1452.4756142395781,,,,,,,,,,,,,,,,,,,,,,,,,,,,,,,,,,,,,,,570,2023-05-16_17h04.09.279,eb_02psyexp,2022.2.4,99.96071516308281,
153,0,153,0,,,,,,,,,,,,,,,,,,,,,,,,,,,,,,,,,,,,,,,,,,,,,,,,,,,,,,,,,,,1452.4756142395781,1452.4756142395781,1452.4756142395781,1452.4756142395781,1452.4756142395781,1452.4756142395781,s,1,0.9254071316681802,1453.416181249544,1454.4367589326575,,,,,,,,,,,,,,,,,,,,,,,,,,,,,,,,,,,,,,,570,2023-05-16_17h04.09.279,eb_02psyexp,2022.2.4,99.96071516308281,
154,0,154,0,,,,,,,,,,,,,,,,,,,,,,,,,,,,,,,,,,,,,,,,,,,,,,,,,,,,,,,,,,,1454.4367589326575,1454.4367589326575,1454.4367589326575,1454.4367589326575,1454.4367589326575,1454.4367589326575,l,1,0.7562679516850039,1455.2072105954867,1456.2277903915383,,,,,,,,,,,,,,,,,,,,,,,,,,,,,,,,,,,,,,,570,2023-05-16_17h04.09.279,eb_02psyexp,2022.2.4,99.96071516308281,
155,0,155,0,,,,,,,,,,,,,,,,,,,,,,,,,,,,,,,,,,,,,,,,,,,,,,,,,,,,,,,,,,,1456.2277903915383,1456.2277903915383,1456.2277903915383,1456.2277903915383,1456.2277903915383,1456.2277903915383,s,1,0.5962650176370516,1456.838143435656,1457.8587440589909,,,,,,,,,,,,,,,,,,,,,,,,,,,,,,,,,,,,,,,570,2023-05-16_17h04.09.279,eb_02psyexp,2022.2.4,99.96071516308281,
156,0,156,0,,,,,,,,,,,,,,,,,,,,,,,,,,,,,,,,,,,,,,,,,,,,,,,,,,,,,,,,,,,1457.8587440589909,1457.8587440589909,1457.8587440589909,1457.8587440589909,1457.8587440589909,1457.8587440589909,l,1,0.9893330855993554,1458.8593229977414,1459.8799209045246,,,,,,,,,,,,,,,,,,,,,,,,,,,,,,,,,,,,,,,570,2023-05-16_17h04.09.279,eb_02psyexp,2022.2.4,99.96071516308281,
157,0,157,0,,,,,,,,,,,,,,,,,,,,,,,,,,,,,,,,,,,,,,,,,,,,,,,,,,,,,,,,,,,1459.8799209045246,1459.8799209045246,1459.8799209045246,1459.8799209045246,1459.8799209045246,1459.8799209045246,l,1,1.3441398774739355,1461.24071117118,1462.2613066631602,,,,,,,,,,,,,,,,,,,,,,,,,,,,,,,,,,,,,,,570,2023-05-16_17h04.09.279,eb_02psyexp,2022.2.4,99.96071516308281,
158,0,158,0,,,,,,,,,,,,,,,,,,,,,,,,,,,,,,,,,,,,,,,,,,,,,,,,,,,,,,,,,,,1462.2613066631602,1462.2613066631602,1462.2613066631602,1462.2613066631602,1462.2613066631602,1462.2613066631602,l,1,1.154766815714538,1463.431984649389,1464.452581348829,,,,,,,,,,,,,,,,,,,,,,,,,,,,,,,,,,,,,,,570,2023-05-16_17h04.09.279,eb_02psyexp,2022.2.4,99.96071516308281,
159,0,159,0,,,,,,,,,,,,,,,,,,,,,,,,,,,,,,,,,,,,,,,,,,,,,,,,,,,,,,,,,,,1464.452581348829,1464.452581348829,1464.452581348829,1464.452581348829,1464.452581348829,1464.452581348829,l,1,0.7395318504422903,1465.2030161565635,1466.2236113467952,,,,,,,,,,,,,,,,,,,,,,,,,,,,,,,,,,,,,,,570,2023-05-16_17h04.09.279,eb_02psyexp,2022.2.4,99.96071516308281,
160,0,160,0,,,,,,,,,,,,,,,,,,,,,,,,,,,,,,,,,,,,,,,,,,,,,,,,,,,,,,,,,,,1466.2236113467952,1466.2236113467952,1466.2236113467952,1466.2236113467952,1466.2236113467952,1466.2236113467952,l,1,0.9044642159715295,1467.1441394669237,1468.164741599583,,,,,,,,,,,,,,,,,,,,,,,,,,,,,,,,,,,,,,,570,2023-05-16_17h04.09.279,eb_02psyexp,2022.2.4,99.96071516308281,
161,0,161,0,,,,,,,,,,,,,,,,,,,,,,,,,,,,,,,,,,,,,,,,,,,,,,,,,,,,,,,,,,,1468.164741599583,1468.164741599583,1468.164741599583,1468.164741599583,1468.164741599583,1468.164741599583,s,1,0.8033732876647264,1468.9852141198935,1470.005812932155,,,,,,,,,,,,,,,,,,,,,,,,,,,,,,,,,,,,,,,570,2023-05-16_17h04.09.279,eb_02psyexp,2022.2.4,99.96071516308281,
162,0,162,0,,,,,,,,,,,,,,,,,,,,,,,,,,,,,,,,,,,,,,,,,,,,,,,,,,,,,,,,,,,1470.005812932155,1470.005812932155,1470.005812932155,1470.005812932155,1470.005812932155,1470.005812932155,l,1,1.1223368846112862,1471.1464730311418,1472.1670709378086,,,,,,,,,,,,,,,,,,,,,,,,,,,,,,,,,,,,,,,570,2023-05-16_17h04.09.279,eb_02psyexp,2022.2.4,99.96071516308281,
163,0,163,0,,,,,,,,,,,,,,,,,,,,,,,,,,,,,,,,,,,,,,,,,,,,,,,,,,,,,,,,,,,1472.1670709378086,1472.1670709378086,1472.1670709378086,1472.1670709378086,1472.1670709378086,1472.1670709378086,l,1,1.3200870521832258,1473.4978421097621,1474.5284425580176,,,,,,,,,,,,,,,,,,,,,,,,,,,,,,,,,,,,,,,570,2023-05-16_17h04.09.279,eb_02psyexp,2022.2.4,99.96071516308281,
164,0,164,0,,,,,,,,,,,,,,,,,,,,,,,,,,,,,,,,,,,,,,,,,,,,,,,,,,,,,,,,,,,1474.5284425580176,1474.5284425580176,1474.5284425580176,1474.5284425580176,1474.5284425580176,1474.5284425580176,s,1,1.438704613945447,1475.9793196895625,1476.999880771269,,,,,,,,,,,,,,,,,,,,,,,,,,,,,,,,,,,,,,,570,2023-05-16_17h04.09.279,eb_02psyexp,2022.2.4,99.96071516308281,
165,0,165,0,,,,,,,,,,,,,,,,,,,,,,,,,,,,,,,,,,,,,,,,,,,,,,,,,,,,,,,,,,,1476.999880771269,1476.999880771269,1476.999880771269,1476.999880771269,1476.999880771269,1476.999880771269,s,1,1.0552747605834156,1478.0705016483553,1479.0911526798736,,,,,,,,,,,,,,,,,,,,,,,,,,,,,,,,,,,,,,,570,2023-05-16_17h04.09.279,eb_02psyexp,2022.2.4,99.96071516308281,
166,0,166,0,,,,,,,,,,,,,,,,,,,,,,,,,,,,,,,,,,,,,,,,,,,,,,,,,,,,,,,,,,,1479.0911526798736,1479.0911526798736,1479.0911526798736,1479.0911526798736,1479.0911526798736,1479.0911526798736,s,1,1.0920102096861228,1480.2017393519636,1481.222347521456,,,,,,,,,,,,,,,,,,,,,,,,,,,,,,,,,,,,,,,570,2023-05-16_17h04.09.279,eb_02psyexp,2022.2.4,99.96071516308281,
167,0,167,0,,,,,,,,,,,,,,,,,,,,,,,,,,,,,,,,,,,,,,,,,,,,,,,,,,,,,,,,,,,1481.222347521456,1481.222347521456,1481.222347521456,1481.222347521456,1481.222347521456,1481.222347521456,l,1,1.4728544582612813,1482.7132031255169,1483.733845403418,,,,,,,,,,,,,,,,,,,,,,,,,,,,,,,,,,,,,,,570,2023-05-16_17h04.09.279,eb_02psyexp,2022.2.4,99.96071516308281,
168,0,168,0,,,,,,,,,,,,,,,,,,,,,,,,,,,,,,,,,,,,,,,,,,,,,,,,,,,,,,,,,,,1483.733845403418,1483.733845403418,1483.733845403418,1483.733845403418,1483.733845403418,1483.733845403418,s,1,0.9213699540123343,1484.6743810214102,1485.6949393865652,,,,,,,,,,,,,,,,,,,,,,,,,,,,,,,,,,,,,,,570,2023-05-16_17h04.09.279,eb_02psyexp,2022.2.4,99.96071516308281,
169,0,169,0,,,,,,,,,,,,,,,,,,,,,,,,,,,,,,,,,,,,,,,,,,,,,,,,,,,,,,,,,,,1485.6949393865652,1485.6949393865652,1485.6949393865652,1485.6949393865652,1485.6949393865652,1485.6949393865652,l,1,1.35133858025074,1487.0657355149742,1488.0863379493821,,,,,,,,,,,,,,,,,,,,,,,,,,,,,,,,,,,,,,,570,2023-05-16_17h04.09.279,eb_02psyexp,2022.2.4,99.96071516308281,
170,0,170,0,,,,,,,,,,,,,,,,,,,,,,,,,,,,,,,,,,,,,,,,,,,,,,,,,,,,,,,,,,,1488.0863379493821,1488.0863379493821,1488.0863379493821,1488.0863379493821,1488.0863379493821,1488.0863379493821,l,1,0.8479069038294256,1488.9468281819718,1489.9774452317506,,,,,,,,,,,,,,,,,,,,,,,,,,,,,,,,,,,,,,,570,2023-05-16_17h04.09.279,eb_02psyexp,2022.2.4,99.96071516308281,
171,0,171,0,,,,,,,,,,,,,,,,,,,,,,,,,,,,,,,,,,,,,,,,,,,,,,,,,,,,,,,,,,,1489.9774452317506,1489.9774452317506,1489.9774452317506,1489.9774452317506,1489.9774452317506,1489.9774452317506,s,1,0.9647831214824691,1490.9579982601572,1491.9785895263776,,,,,,,,,,,,,,,,,,,,,,,,,,,,,,,,,,,,,,,570,2023-05-16_17h04.09.279,eb_02psyexp,2022.2.4,99.96071516308281,
172,0,172,0,,,,,,,,,,,,,,,,,,,,,,,,,,,,,,,,,,,,,,,,,,,,,,,,,,,,,,,,,,,1491.9785895263776,1491.9785895263776,1491.9785895263776,1491.9785895263776,1491.9785895263776,1491.9785895263776,s,1,0.8596794648328796,1492.8490982983494,1493.8696934884647,,,,,,,,,,,,,,,,,,,,,,,,,,,,,,,,,,,,,,,570,2023-05-16_17h04.09.279,eb_02psyexp,2022.2.4,99.96071516308281,
173,0,173,0,,,,,,,,,,,,,,,,,,,,,,,,,,,,,,,,,,,,,,,,,,,,,,,,,,,,,,,,,,,1493.8696934884647,1493.8696934884647,1493.8696934884647,1493.8696934884647,1493.8696934884647,1493.8696934884647,l,1,1.0645577035611495,1494.9502997020027,1495.9709625054384,,,,,,,,,,,,,,,,,,,,,,,,,,,,,,,,,,,,,,,570,2023-05-16_17h04.09.279,eb_02psyexp,2022.2.4,99.96071516308281,
174,0,174,0,,,,,,,,,,,,,,,,,,,,,,,,,,,,,,,,,,,,,,,,,,,,,,,,,,,,,,,,,,,1495.9709625054384,1495.9709625054384,1495.9709625054384,1495.9709625054384,1495.9709625054384,1495.9709625054384,l,1,1.0033024748554453,1496.9915094004245,1498.0121510747122,,,,,,,,,,,,,,,,,,,,,,,,,,,,,,,,,,,,,,,570,2023-05-16_17h04.09.279,eb_02psyexp,2022.2.4,99.96071516308281,
175,0,175,0,,,,,,,,,,,,,,,,,,,,,,,,,,,,,,,,,,,,,,,,,,,,,,,,,,,,,,,,,,,1498.0121510747122,1498.0121510747122,1498.0121510747122,1498.0121510747122,1498.0121510747122,1498.0121510747122,l,1,0.9781497261719778,1499.0026698196307,1500.033292000764,,,,,,,,,,,,,,,,,,,,,,,,,,,,,,,,,,,,,,,570,2023-05-16_17h04.09.279,eb_02psyexp,2022.2.4,99.96071516308281,
176,0,176,0,,,,,,,,,,,,,,,,,,,,,,,,,,,,,,,,,,,,,,,,,,,,,,,,,,,,,,,,,,,1500.033292000764,1500.033292000764,1500.033292000764,1500.033292000764,1500.033292000764,1500.033292000764,s,1,0.8049748775083572,1500.8537533527706,1501.8743986492045,,,,,,,,,,,,,,,,,,,,,,,,,,,,,,,,,,,,,,,570,2023-05-16_17h04.09.279,eb_02psyexp,2022.2.4,99.96071516308281,
177,0,177,0,,,,,,,,,,,,,,,,,,,,,,,,,,,,,,,,,,,,,,,,,,,,,,,,,,,,,,,,,,,1501.8743986492045,1501.8743986492045,1501.8743986492045,1501.8743986492045,1501.8743986492045,1501.8743986492045,l,1,0.7789775663986802,1502.6648040814325,1503.6854768458288,,,,,,,,,,,,,,,,,,,,,,,,,,,,,,,,,,,,,,,570,2023-05-16_17h04.09.279,eb_02psyexp,2022.2.4,99.96071516308281,
178,0,178,0,,,,,,,,,,,,,,,,,,,,,,,,,,,,,,,,,,,,,,,,,,,,,,,,,,,,,,,,,,,1503.6854768458288,1503.6854768458288,1503.6854768458288,1503.6854768458288,1503.6854768458288,1503.6854768458288,l,1,1.047869897680357,1504.7460167016834,1505.7666127973935,,,,,,,,,,,,,,,,,,,,,,,,,,,,,,,,,,,,,,,570,2023-05-16_17h04.09.279,eb_02psyexp,2022.2.4,99.96071516308281,
179,0,179,0,,,,,,,,,,,,,,,,,,,,,,,,,,,,,,,,,,,,,,,,,,,,,,,,,,,,,,,,,,,1505.7666127973935,1505.7666127973935,1505.7666127973935,1505.7666127973935,1505.7666127973935,1505.7666127973935,l,1,0.6867150021716952,1506.4670213145437,1507.487936158548,,,,,,,,,,,,,,,,,,,,,,,,,,,,,,,,,,,,,,,570,2023-05-16_17h04.09.279,eb_02psyexp,2022.2.4,99.96071516308281,
180,0,180,0,,,,,,,,,,,,,,,,,,,,,,,,,,,,,,,,,,,,,,,,,,,,,,,,,,,,,,,,,,,1507.487936158548,1507.487936158548,1507.487936158548,1507.487936158548,1507.487936158548,1507.487936158548,s,1,0.5253951182821766,1508.028243340319,1509.0485264227027,,,,,,,,,,,,,,,,,,,,,,,,,,,,,,,,,,,,,,,570,2023-05-16_17h04.09.279,eb_02psyexp,2022.2.4,99.96071516308281,
181,0,181,0,,,,,,,,,,,,,,,,,,,,,,,,,,,,,,,,,,,,,,,,,,,,,,,,,,,,,,,,,,,1509.0485264227027,1509.0485264227027,1509.0485264227027,1509.0485264227027,1509.0485264227027,1509.0485264227027,l,1,0.7968096669064835,1509.8589822147042,1510.8795864601852,,,,,,,,,,,,,,,,,,,,,,,,,,,,,,,,,,,,,,,570,2023-05-16_17h04.09.279,eb_02psyexp,2022.2.4,99.96071516308281,
182,0,182,0,,,,,,,,,,,,,,,,,,,,,,,,,,,,,,,,,,,,,,,,,,,,,,,,,,,,,,,,,,,1510.8795864601852,1510.8795864601852,1510.8795864601852,1510.8795864601852,1510.8795864601852,1510.8795864601852,s,1,0.6777758607640862,1511.5699996800395,1512.590631091618,,,,,,,,,,,,,,,,,,,,,,,,,,,,,,,,,,,,,,,570,2023-05-16_17h04.09.279,eb_02psyexp,2022.2.4,99.96071516308281,
183,0,183,0,,,,,,,,,,,,,,,,,,,,,,,,,,,,,,,,,,,,,,,,,,,,,,,,,,,,,,,,,,,1512.590631091618,1512.590631091618,1512.590631091618,1512.590631091618,1512.590631091618,1512.590631091618,s,1,0.7907676344038919,1513.4010533789406,1514.4216437395662,,,,,,,,,,,,,,,,,,,,,,,,,,,,,,,,,,,,,,,570,2023-05-16_17h04.09.279,eb_02psyexp,2022.2.4,99.96071516308281,
184,0,184,0,,,,,,,,,,,,,,,,,,,,,,,,,,,,,,,,,,,,,,,,,,,,,,,,,,,,,,,,,,,1514.4216437395662,1514.4216437395662,1514.4216437395662,1514.4216437395662,1514.4216437395662,1514.4216437395662,s,1,1.031791215064004,1515.4722498746123,1516.4929009061307,,,,,,,,,,,,,,,,,,,,,,,,,,,,,,,,,,,,,,,570,2023-05-16_17h04.09.279,eb_02psyexp,2022.2.4,99.96071516308281,
185,0,185,0,,,,,,,,,,,,,,,,,,,,,,,,,,,,,,,,,,,,,,,,,,,,,,,,,,,,,,,,,,,1516.4929009061307,1516.4929009061307,1516.4929009061307,1516.4929009061307,1516.4929009061307,1516.4929009061307,s,1,0.9364769974490628,1517.443410088541,1518.47400691465,,,,,,,,,,,,,,,,,,,,,,,,,,,,,,,,,,,,,,,570,2023-05-16_17h04.09.279,eb_02psyexp,2022.2.4,99.96071516308281,
186,0,186,0,,,,,,,,,,,,,,,,,,,,,,,,,,,,,,,,,,,,,,,,,,,,,,,,,,,,,,,,,,,1518.47400691465,1518.47400691465,1518.47400691465,1518.47400691465,1518.47400691465,1518.47400691465,s,1,1.1624104381771758,1519.6546904610004,1520.675286556594,,,,,,,,,,,,,,,,,,,,,,,,,,,,,,,,,,,,,,,570,2023-05-16_17h04.09.279,eb_02psyexp,2022.2.4,99.96071516308281,
187,0,187,0,,,,,,,,,,,,,,,,,,,,,,,,,,,,,,,,,,,,,,,,,,,,,,,,,,,,,,,,,,,1520.675286556594,1520.675286556594,1520.675286556594,1520.675286556594,1520.675286556594,1520.675286556594,s,1,2.1611777029465884,1522.846575477277,1523.8671564807883,,,,,,,,,,,,,,,,,,,,,,,,,,,,,,,,,,,,,,,570,2023-05-16_17h04.09.279,eb_02psyexp,2022.2.4,99.96071516308281,
188,0,188,0,,,,,,,,,,,,,,,,,,,,,,,,,,,,,,,,,,,,,,,,,,,,,,,,,,,,,,,,,,,1523.8671564807883,1523.8671564807883,1523.8671564807883,1523.8671564807883,1523.8671564807883,1523.8671564807883,l,1,1.4332780434051529,1525.3179850152228,1526.3386526482645,,,,,,,,,,,,,,,,,,,,,,,,,,,,,,,,,,,,,,,570,2023-05-16_17h04.09.279,eb_02psyexp,2022.2.4,99.96071516308281,
189,0,189,0,,,,,,,,,,,,,,,,,,,,,,,,,,,,,,,,,,,,,,,,,,,,,,,,,,,,,,,,,,,1526.3386526482645,1526.3386526482645,1526.3386526482645,1526.3386526482645,1526.3386526482645,1526.3386526482645,l,1,1.1618151997681707,1527.5192649590317,1528.539860451012,,,,,,,,,,,,,,,,,,,,,,,,,,,,,,,,,,,,,,,570,2023-05-16_17h04.09.279,eb_02psyexp,2022.2.4,99.96071516308281,
190,0,190,0,,,,,,,,,,,,,,,,,,,,,,,,,,,,,,,,,,,,,,,,,,,,,,,,,,,,,,,,,,,1528.539860451012,1528.539860451012,1528.539860451012,1528.539860451012,1528.539860451012,1528.539860451012,l,1,1.0406274273991585,1529.5904843949247,1530.6111149010248,,,,,,,,,,,,,,,,,,,,,,,,,,,,,,,,,,,,,,,570,2023-05-16_17h04.09.279,eb_02psyexp,2022.2.4,99.96071516308281,
191,0,191,0,,,,,,,,,,,,,,,,,,,,,,,,,,,,,,,,,,,,,,,,,,,,,,,,,,,,,,,,,,,1530.6111149010248,1530.6111149010248,1530.6111149010248,1530.6111149010248,1530.6111149010248,1530.6111149010248,s,1,1.161370581947267,1531.7917519630864,1532.8223506002687,,,,,,,,,,,,,,,,,,,,,,,,,,,,,,,,,,,,,,,570,2023-05-16_17h04.09.279,eb_02psyexp,2022.2.4,99.96071516308281,
192,0,192,0,,,,,,,,,,,,,,,,,,,,,,,,,,,,,,,,,,,,,,,,,,,,,,,,,,,,,,,,,,,1532.8223506002687,1532.8223506002687,1532.8223506002687,1532.8223506002687,1532.8223506002687,1532.8223506002687,s,1,1.1092120576649904,1533.9430013903184,1534.96363461297,,,,,,,,,,,,,,,,,,,,,,,,,,,,,,,,,,,,,,,570,2023-05-16_17h04.09.279,eb_02psyexp,2022.2.4,99.96071516308281,
193,0,193,0,,,,,,,,,,,,,,,,,,,,,,,,,,,,,,,,,,,,,,,,,,,,,,,,,,,,,,,,,,,1534.96363461297,1534.96363461297,1534.96363461297,1534.96363461297,1534.96363461297,1534.96363461297,s,1,1.2158647832693532,1536.1943124543177,1537.2149064370897,,,,,,,,,,,,,,,,,,,,,,,,,,,,,,,,,,,,,,,570,2023-05-16_17h04.09.279,eb_02psyexp,2022.2.4,99.96071516308281,
194,0,194,0,,,,,,,,,,,,,,,,,,,,,,,,,,,,,,,,,,,,,,,,,,,,,,,,,,,,,,,,,,,1537.2149064370897,1537.2149064370897,1537.2149064370897,1537.2149064370897,1537.2149064370897,1537.2149064370897,l,1,1.7645949511788785,1538.995939580258,1540.0165827638702,,,,,,,,,,,,,,,,,,,,,,,,,,,,,,,,,,,,,,,570,2023-05-16_17h04.09.279,eb_02psyexp,2022.2.4,99.96071516308281,
195,0,195,0,,,,,,,,,,,,,,,,,,,,,,,,,,,,,,,,,,,,,,,,,,,,,,,,,,,,,,,,,,,1540.0165827638702,1540.0165827638702,1540.0165827638702,1540.0165827638702,1540.0165827638702,1540.0165827638702,s,1,1.4349324562354013,1541.4673793027177,1542.4879741910845,,,,,,,,,,,,,,,,,,,,,,,,,,,,,,,,,,,,,,,570,2023-05-16_17h04.09.279,eb_02psyexp,2022.2.4,99.96071516308281,
196,0,196,0,,,,,,,,,,,,,,,,,,,,,,,,,,,,,,,,,,,,,,,,,,,,,,,,,,,,,,,,,,,1542.4879741910845,1542.4879741910845,1542.4879741910845,1542.4879741910845,1542.4879741910845,1542.4879741910845,s,1,1.1315754562383518,1543.6386642993893,1544.6692442222266,,,,,,,,,,,,,,,,,,,,,,,,,,,,,,,,,,,,,,,570,2023-05-16_17h04.09.279,eb_02psyexp,2022.2.4,99.96071516308281,
197,0,197,0,,,,,,,,,,,,,,,,,,,,,,,,,,,,,,,,,,,,,,,,,,,,,,,,,,,,,,,,,,,1544.6692442222266,1544.6692442222266,1544.6692442222266,1544.6692442222266,1544.6692442222266,1544.6692442222266,s,1,1.0942963841371238,1545.77988190623,1546.8004822276998,,,,,,,,,,,,,,,,,,,,,,,,,,,,,,,,,,,,,,,570,2023-05-16_17h04.09.279,eb_02psyexp,2022.2.4,99.96071516308281,
198,0,198,0,,,,,,,,,,,,,,,,,,,,,,,,,,,,,,,,,,,,,,,,,,,,,,,,,,,,,,,,,,,1546.8004822276998,1546.8004822276998,1546.8004822276998,1546.8004822276998,1546.8004822276998,1546.8004822276998,s,1,1.483077346580103,1548.3013539562235,1549.3319556119386,,,,,,,,,,,,,,,,,,,,,,,,,,,,,,,,,,,,,,,570,2023-05-16_17h04.09.279,eb_02psyexp,2022.2.4,99.96071516308281,
199,0,199,0,,,,,0,0,0,0,,,,,,,,,,,,,,,,,,,,,,,,,,,,,,,,,,,,,,,,,,,,,,,,,,,1549.3319556119386,1549.3319556119386,1549.3319556119386,1549.3319556119386,1549.3319556119386,1549.3319556119386,s,1,1.014628606964834,1550.3625554564642,1551.3631362064043,1551.3631362064043,1551.3631362064043,space,19.830570131074637,,,,,,,,,,,,,,,,,,,,,,,,,,,,,,,,,,,570,2023-05-16_17h04.09.279,eb_02psyexp,2022.2.4,99.96071516308281,
199,0,199,0,,,,,,,,,,,,,,,,,,,,,,,,,,,,,,,,,,,,,,,,,,,,,,,,,,,,,,,,,,,,,,,,,,,,,,,,,,,,,,,,,,,,,,,,,,,,,,,,,,,,,,,,,,,,570,2023-05-16_17h04.09.279,eb_02psyexp,2022.2.4,99.96071516308281,
200,0,200,0,,,,,,,,,,,,,,,,,,,,,,,,,,,,,,,,,,,,,,,,,,,,,,,,,,,,,,,,,,,1571.224706440582,1571.224706440582,1571.224706440582,1571.224706440582,1571.224706440582,1571.224706440582,l,1,3.0250045307911932,1574.266458252794,1575.2970583991846,,,,,,,,,,,,,,,,,,,,,,,,,,,,,,,,,,,,,,,570,2023-05-16_17h04.09.279,eb_02psyexp,2022.2.4,99.96071516308281,
201,0,201,0,,,,,,,,,,,,,,,,,,,,,,,,,,,,,,,,,,,,,,,,,,,,,,,,,,,,,,,,,,,1575.2970583991846,1575.2970583991846,1575.2970583991846,1575.2970583991846,1575.2970583991846,1575.2970583991846,s,1,1.2086742302635685,1576.5177684111986,1577.5383623939706,,,,,,,,,,,,,,,,,,,,,,,,,,,,,,,,,,,,,,,570,2023-05-16_17h04.09.279,eb_02psyexp,2022.2.4,99.96071516308281,
202,0,202,0,,,,,,,,,,,,,,,,,,,,,,,,,,,,,,,,,,,,,,,,,,,,,,,,,,,,,,,,,,,1577.5383623939706,1577.5383623939706,1577.5383623939706,1577.5383623939706,1577.5383623939706,1577.5383623939706,l,1,1.0713905700249597,1578.6289937874535,1579.6495895812986,,,,,,,,,,,,,,,,,,,,,,,,,,,,,,,,,,,,,,,570,2023-05-16_17h04.09.279,eb_02psyexp,2022.2.4,99.96071516308281,
203,0,203,0,,,,,,,,,,,,,,,,,,,,,,,,,,,,,,,,,,,,,,,,,,,,,,,,,,,,,,,,,,,1579.6495895812986,1579.6495895812986,1579.6495895812986,1579.6495895812986,1579.6495895812986,1579.6495895812986,l,1,1.1511875371215865,1580.8202684731223,1581.8409155806294,,,,,,,,,,,,,,,,,,,,,,,,,,,,,,,,,,,,,,,570,2023-05-16_17h04.09.279,eb_02psyexp,2022.2.4,99.96071516308281,
204,0,204,0,,,,,,,,,,,,,,,,,,,,,,,,,,,,,,,,,,,,,,,,,,,,,,,,,,,,,,,,,,,1581.8409155806294,1581.8409155806294,1581.8409155806294,1581.8409155806294,1581.8409155806294,1581.8409155806294,s,1,0.9758342725690454,1582.8314385513077,1583.8520337415393,,,,,,,,,,,,,,,,,,,,,,,,,,,,,,,,,,,,,,,570,2023-05-16_17h04.09.279,eb_02psyexp,2022.2.4,99.96071516308281,
205,0,205,0,,,,,,,,,,,,,,,,,,,,,,,,,,,,,,,,,,,,,,,,,,,,,,,,,,,,,,,,,,,1583.8520337415393,1583.8520337415393,1583.8520337415393,1583.8520337415393,1583.8520337415393,1583.8520337415393,l,1,0.8607869342667982,1584.7325447531184,1585.7531891439576,,,,,,,,,,,,,,,,,,,,,,,,,,,,,,,,,,,,,,,570,2023-05-16_17h04.09.279,eb_02psyexp,2022.2.4,99.96071516308281,
206,0,206,0,,,,,,,,,,,,,,,,,,,,,,,,,,,,,,,,,,,,,,,,,,,,,,,,,,,,,,,,,,,1585.7531891439576,1585.7531891439576,1585.7531891439576,1585.7531891439576,1585.7531891439576,1585.7531891439576,s,1,1.2876094294479117,1587.0539056034759,1588.0744893234223,,,,,,,,,,,,,,,,,,,,,,,,,,,,,,,,,,,,,,,570,2023-05-16_17h04.09.279,eb_02psyexp,2022.2.4,99.96071516308281,
207,0,207,0,,,,,,,,,,,,,,,,,,,,,,,,,,,,,,,,,,,,,,,,,,,,,,,,,,,,,,,,,,,1588.0744893234223,1588.0744893234223,1588.0744893234223,1588.0744893234223,1588.0744893234223,1588.0744893234223,l,1,1.1983121911762282,1589.285186531255,1590.3057898712577,,,,,,,,,,,,,,,,,,,,,,,,,,,,,,,,,,,,,,,570,2023-05-16_17h04.09.279,eb_02psyexp,2022.2.4,99.96071516308281,
208,0,208,0,,,,,,,,,,,,,,,,,,,,,,,,,,,,,,,,,,,,,,,,,,,,,,,,,,,,,,,,,,,1590.3057898712577,1590.3057898712577,1590.3057898712577,1590.3057898712577,1590.3057898712577,1590.3057898712577,s,1,1.5269906711764634,1591.8466820286121,1592.867325513973,,,,,,,,,,,,,,,,,,,,,,,,,,,,,,,,,,,,,,,570,2023-05-16_17h04.09.279,eb_02psyexp,2022.2.4,99.96071516308281,
209,0,209,0,,,,,,,,,,,,,,,,,,,,,,,,,,,,,,,,,,,,,,,,,,,,,,,,,,,,,,,,,,,1592.867325513973,1592.867325513973,1592.867325513973,1592.867325513973,1592.867325513973,1592.867325513973,s,1,0.6934862924972549,1593.5776909940178,1594.6082618614892,,,,,,,,,,,,,,,,,,,,,,,,,,,,,,,,,,,,,,,570,2023-05-16_17h04.09.279,eb_02psyexp,2022.2.4,99.96071516308281,
210,0,210,0,,,,,,,,,,,,,,,,,,,,,,,,,,,,,,,,,,,,,,,,,,,,,,,,,,,,,,,,,,,1594.6082618614892,1594.6082618614892,1594.6082618614892,1594.6082618614892,1594.6082618614892,1594.6082618614892,s,1,1.78359700308647,1596.4093381202547,1597.4299538359046,,,,,,,,,,,,,,,,,,,,,,,,,,,,,,,,,,,,,,,570,2023-05-16_17h04.09.279,eb_02psyexp,2022.2.4,99.96071516308281,
211,0,211,0,,,,,,,,,,,,,,,,,,,,,,,,,,,,,,,,,,,,,,,,,,,,,,,,,,,,,,,,,,,1597.4299538359046,1597.4299538359046,1597.4299538359046,1597.4299538359046,1597.4299538359046,1597.4299538359046,s,1,0.7458811613032594,1598.1903727726312,1599.2110087118344,,,,,,,,,,,,,,,,,,,,,,,,,,,,,,,,,,,,,,,570,2023-05-16_17h04.09.279,eb_02psyexp,2022.2.4,99.96071516308281,
212,0,212,0,,,,,,,,,,,,,,,,,,,,,,,,,,,,,,,,,,,,,,,,,,,,,,,,,,,,,,,,,,,1599.2110087118344,1599.2110087118344,1599.2110087118344,1599.2110087118344,1599.2110087118344,1599.2110087118344,s,1,0.772841056343168,1600.0014268215746,1601.0220361985266,,,,,,,,,,,,,,,,,,,,,,,,,,,,,,,,,,,,,,,570,2023-05-16_17h04.09.279,eb_02psyexp,2022.2.4,99.96071516308281,
213,0,213,0,,,,,,,,,,,,,,,,,,,,,,,,,,,,,,,,,,,,,,,,,,,,,,,,,,,,,,,,,,,1601.0220361985266,1601.0220361985266,1601.0220361985266,1601.0220361985266,1601.0220361985266,1601.0220361985266,s,1,1.0818694231566042,1602.1226508154068,1603.1432535516797,,,,,,,,,,,,,,,,,,,,,,,,,,,,,,,,,,,,,,,570,2023-05-16_17h04.09.279,eb_02psyexp,2022.2.4,99.96071516308281,
214,0,214,0,,,,,,,,,,,,,,,,,,,,,,,,,,,,,,,,,,,,,,,,,,,,,,,,,,,,,,,,,,,1603.1432535516797,1603.1432535516797,1603.1432535516797,1603.1432535516797,1603.1432535516797,1603.1432535516797,l,1,0.9126415004720911,1604.0737956835655,1605.0944382633315,,,,,,,,,,,,,,,,,,,,,,,,,,,,,,,,,,,,,,,570,2023-05-16_17h04.09.279,eb_02psyexp,2022.2.4,99.96071516308281,
215,0,215,0,,,,,,,,,,,,,,,,,,,,,,,,,,,,,,,,,,,,,,,,,,,,,,,,,,,,,,,,,,,1605.0944382633315,1605.0944382633315,1605.0944382633315,1605.0944382633315,1605.0944382633315,1605.0944382633315,s,1,1.0894822572590783,1606.195048654452,1607.2156242246274,,,,,,,,,,,,,,,,,,,,,,,,,,,,,,,,,,,,,,,570,2023-05-16_17h04.09.279,eb_02psyexp,2022.2.4,99.96071516308281,
216,0,216,0,,,,,,,,,,,,,,,,,,,,,,,,,,,,,,,,,,,,,,,,,,,,,,,,,,,,,,,,,,,1607.2156242246274,1607.2156242246274,1607.2156242246274,1607.2156242246274,1607.2156242246274,1607.2156242246274,l,1,1.1282956077484414,1608.3562876438955,1609.3769015484722,,,,,,,,,,,,,,,,,,,,,,,,,,,,,,,,,,,,,,,570,2023-05-16_17h04.09.279,eb_02psyexp,2022.2.4,99.96071516308281,
217,0,217,0,,,,,,,,,,,,,,,,,,,,,,,,,,,,,,,,,,,,,,,,,,,,,,,,,,,,,,,,,,,1609.3769015484722,1609.3769015484722,1609.3769015484722,1609.3769015484722,1609.3769015484722,1609.3769015484722,l,1,1.6070152294123545,1610.9978230934357,1612.0284232399426,,,,,,,,,,,,,,,,,,,,,,,,,,,,,,,,,,,,,,,570,2023-05-16_17h04.09.279,eb_02psyexp,2022.2.4,99.96071516308281,
218,0,218,0,,,,,,,,,,,,,,,,,,,,,,,,,,,,,,,,,,,,,,,,,,,,,,,,,,,,,,,,,,,1612.0284232399426,1612.0284232399426,1612.0284232399426,1612.0284232399426,1612.0284232399426,1612.0284232399426,s,1,0.898512133397162,1612.9389946990414,1613.9595503475284,,,,,,,,,,,,,,,,,,,,,,,,,,,,,,,,,,,,,,,570,2023-05-16_17h04.09.279,eb_02psyexp,2022.2.4,99.96071516308281,
219,0,219,0,,,,,,,,,,,,,,,,,,,,,,,,,,,,,,,,,,,,,,,,,,,,,,,,,,,,,,,,,,,1613.9595503475284,1613.9595503475284,1613.9595503475284,1613.9595503475284,1613.9595503475284,1613.9595503475284,l,1,0.7514100571861491,1614.7299872199073,1615.7605952143203,,,,,,,,,,,,,,,,,,,,,,,,,,,,,,,,,,,,,,,570,2023-05-16_17h04.09.279,eb_02psyexp,2022.2.4,99.96071516308281,
220,0,220,0,,,,,,,,,,,,,,,,,,,,,,,,,,,,,,,,,,,,,,,,,,,,,,,,,,,,,,,,,,,1615.7605952143203,1615.7605952143203,1615.7605952143203,1615.7605952143203,1615.7605952143203,1615.7605952143203,s,1,0.5583614280913025,1616.3309266221477,,,,,,,,,,,,,,,,,,,,,,,,,,,,,,,,,,,,,,,,570,2023-05-16_17h04.09.279,eb_02psyexp,2022.2.4,99.96071516308281,
221,0,221,0,,,,,,,,,,,,,,,,,,,,,,,,,,,,,,,,,,,,,,,,,,,,,,,,,,,,,,,,,,,1617.3518405606737,1617.3518405606737,1617.3518405606737,1617.3518405606737,1617.3518405606737,1617.3518405606737,s,1,0.5671460248995572,1617.9321690767538,1618.9524518572725,,,,,,,,,,,,,,,,,,,,,,,,,,,,,,,,,,,,,,,570,2023-05-16_17h04.09.279,eb_02psyexp,2022.2.4,99.96071516308281,
222,0,222,0,,,,,,,,,,,,,,,,,,,,,,,,,,,,,,,,,,,,,,,,,,,,,,,,,,,,,,,,,,,1618.9524518572725,1618.9524518572725,1618.9524518572725,1618.9524518572725,1618.9524518572725,1618.9524518572725,l,1,0.7825266604777426,1619.7529223129386,1620.7735612706747,,,,,,,,,,,,,,,,,,,,,,,,,,,,,,,,,,,,,,,570,2023-05-16_17h04.09.279,eb_02psyexp,2022.2.4,99.96071516308281,
223,0,223,0,,,,,,,,,,,,,,,,,,,,,,,,,,,,,,,,,,,,,,,,,,,,,,,,,,,,,,,,,,,1620.7735612706747,1620.7735612706747,1620.7735612706747,1620.7735612706747,1620.7735612706747,1620.7735612706747,s,1,0.9374241871992126,1621.7240638125222,1622.7546636570478,,,,,,,,,,,,,,,,,,,,,,,,,,,,,,,,,,,,,,,570,2023-05-16_17h04.09.279,eb_02psyexp,2022.2.4,99.96071516308281,
224,0,224,0,,,,,,,,,,,,,,,,,,,,,,,,,,,,,,,,,,,,,,,,,,,,,,,,,,,,,,,,,,,1622.7546636570478,1622.7546636570478,1622.7546636570478,1622.7546636570478,1622.7546636570478,1622.7546636570478,s,1,2.108321011182852,1624.8758973099757,1625.8964906890178,,,,,,,,,,,,,,,,,,,,,,,,,,,,,,,,,,,,,,,570,2023-05-16_17h04.09.279,eb_02psyexp,2022.2.4,99.96071516308281,
225,0,225,0,,,,,,,,,,,,,,,,,,,,,,,,,,,,,,,,,,,,,,,,,,,,,,,,,,,,,,,,,,,1625.8964906890178,1625.8964906890178,1625.8964906890178,1625.8964906890178,1625.8964906890178,1625.8964906890178,l,1,1.413541904417798,1627.327313838643,1628.3479192914674,,,,,,,,,,,,,,,,,,,,,,,,,,,,,,,,,,,,,,,570,2023-05-16_17h04.09.279,eb_02psyexp,2022.2.4,99.96071516308281,
226,0,226,0,,,,,,,,,,,,,,,,,,,,,,,,,,,,,,,,,,,,,,,,,,,,,,,,,,,,,,,,,,,1628.3479192914674,1628.3479192914674,1628.3479192914674,1628.3479192914674,1628.3479192914674,1628.3479192914674,l,1,0.730131791671738,1629.0883394839475,1630.1089615382953,,,,,,,,,,,,,,,,,,,,,,,,,,,,,,,,,,,,,,,570,2023-05-16_17h04.09.279,eb_02psyexp,2022.2.4,99.96071516308281,
227,0,227,0,,,,,,,,,,,,,,,,,,,,,,,,,,,,,,,,,,,,,,,,,,,,,,,,,,,,,,,,,,,1630.1089615382953,1630.1089615382953,1630.1089615382953,1630.1089615382953,1630.1089615382953,1630.1089615382953,s,1,1.1050550476647913,1631.229593614,1632.2502048019087,,,,,,,,,,,,,,,,,,,,,,,,,,,,,,,,,,,,,,,570,2023-05-16_17h04.09.279,eb_02psyexp,2022.2.4,99.96071516308281,
228,0,228,0,,,,,,,,,,,,,,,,,,,,,,,,,,,,,,,,,,,,,,,,,,,,,,,,,,,,,,,,,,,1632.2502048019087,1632.2502048019087,1632.2502048019087,1632.2502048019087,1632.2502048019087,1632.2502048019087,s,1,1.8519087656168267,1634.1212641391903,1635.1418656681199,,,,,,,,,,,,,,,,,,,,,,,,,,,,,,,,,,,,,,,570,2023-05-16_17h04.09.279,eb_02psyexp,2022.2.4,99.96071516308281,
229,0,229,0,,,,,,,,,,,,,,,,,,,,,,,,,,,,,,,,,,,,,,,,,,,,,,,,,,,,,,,,,,,1635.1418656681199,1635.1418656681199,1635.1418656681199,1635.1418656681199,1635.1418656681199,1635.1418656681199,l,1,1.3761855600168929,1636.5326759349555,1637.5532723325305,,,,,,,,,,,,,,,,,,,,,,,,,,,,,,,,,,,,,,,570,2023-05-16_17h04.09.279,eb_02psyexp,2022.2.4,99.96071516308281,
230,0,230,0,,,,,,,,,,,,,,,,,,,,,,,,,,,,,,,,,,,,,,,,,,,,,,,,,,,,,,,,,,,1637.5532723325305,1637.5532723325305,1637.5532723325305,1637.5532723325305,1637.5532723325305,1637.5532723325305,l,1,1.0848021496785805,1638.653911700705,1639.6845127526904,,,,,,,,,,,,,,,,,,,,,,,,,,,,,,,,,,,,,,,570,2023-05-16_17h04.09.279,eb_02psyexp,2022.2.4,99.96071516308281,
231,0,231,0,,,,,,,,,,,,,,,,,,,,,,,,,,,,,,,,,,,,,,,,,,,,,,,,,,,,,,,,,,,1639.6845127526904,1639.6845127526904,1639.6845127526904,1639.6845127526904,1639.6845127526904,1639.6845127526904,s,1,1.1375815691426396,1640.8352236883948,1641.8557769220788,,,,,,,,,,,,,,,,,,,,,,,,,,,,,,,,,,,,,,,570,2023-05-16_17h04.09.279,eb_02psyexp,2022.2.4,99.96071516308281,
232,0,232,0,,,,,,,,,,,,,,,,,,,,,,,,,,,,,,,,,,,,,,,,,,,,,,,,,,,,,,,,,,,1641.8557769220788,1641.8557769220788,1641.8557769220788,1641.8557769220788,1641.8557769220788,1641.8557769220788,l,1,1.0293888302985579,1642.896371158422,1643.916972687235,,,,,,,,,,,,,,,,,,,,,,,,,,,,,,,,,,,,,,,570,2023-05-16_17h04.09.279,eb_02psyexp,2022.2.4,99.96071516308281,
233,0,233,0,,,,,,,,,,,,,,,,,,,,,,,,,,,,,,,,,,,,,,,,,,,,,,,,,,,,,,,,,,,1643.916972687235,1643.916972687235,1643.916972687235,1643.916972687235,1643.916972687235,1643.916972687235,l,1,1.0161284749628976,1644.9475698153256,1645.968167118379,,,,,,,,,,,,,,,,,,,,,,,,,,,,,,,,,,,,,,,570,2023-05-16_17h04.09.279,eb_02psyexp,2022.2.4,99.96071516308281,
234,0,234,0,,,,,,,,,,,,,,,,,,,,,,,,,,,,,,,,,,,,,,,,,,,,,,,,,,,,,,,,,,,1645.968167118379,1645.968167118379,1645.968167118379,1645.968167118379,1645.968167118379,1645.968167118379,s,1,1.221001582336612,1647.2088873448083,1648.2294831386534,,,,,,,,,,,,,,,,,,,,,,,,,,,,,,,,,,,,,,,570,2023-05-16_17h04.09.279,eb_02psyexp,2022.2.4,99.96071516308281,
235,0,235,0,,,,,,,,,,,,,,,,,,,,,,,,,,,,,,,,,,,,,,,,,,,,,,,,,,,,,,,,,,,1648.2294831386534,1648.2294831386534,1648.2294831386534,1648.2294831386534,1648.2294831386534,1648.2294831386534,l,1,0.9516604074742645,1649.2000366440043,1650.22064239881,,,,,,,,,,,,,,,,,,,,,,,,,,,,,,,,,,,,,,,570,2023-05-16_17h04.09.279,eb_02psyexp,2022.2.4,99.96071516308281,
236,0,236,0,,,,,,,,,,,,,,,,,,,,,,,,,,,,,,,,,,,,,,,,,,,,,,,,,,,,,,,,,,,1650.22064239881,1650.22064239881,1650.22064239881,1650.22064239881,1650.22064239881,1650.22064239881,l,1,0.8564910754794255,1651.0911523780087,1652.121747996891,,,,,,,,,,,,,,,,,,,,,,,,,,,,,,,,,,,,,,,570,2023-05-16_17h04.09.279,eb_02psyexp,2022.2.4,99.96071516308281,
237,0,237,0,,,,,,,,,,,,,,,,,,,,,,,,,,,,,,,,,,,,,,,,,,,,,,,,,,,,,,,,,,,1652.121747996891,1652.121747996891,1652.121747996891,1652.121747996891,1652.121747996891,1652.121747996891,s,1,0.7553778104484081,1652.8922020744067,1653.9128352970583,,,,,,,,,,,,,,,,,,,,,,,,,,,,,,,,,,,,,,,570,2023-05-16_17h04.09.279,eb_02psyexp,2022.2.4,99.96071516308281,
238,0,238,0,,,,,,,,,,,,,,,,,,,,,,,,,,,,,,,,,,,,,,,,,,,,,,,,,,,,,,,,,,,1653.9128352970583,1653.9128352970583,1653.9128352970583,1653.9128352970583,1653.9128352970583,1653.9128352970583,s,1,1.4843324185349047,1655.4136620507343,1656.4442709506257,,,,,,,,,,,,,,,,,,,,,,,,,,,,,,,,,,,,,,,570,2023-05-16_17h04.09.279,eb_02psyexp,2022.2.4,99.96071516308281,
239,0,239,0,,,,,,,,,,,,,,,,,,,,,,,,,,,,,,,,,,,,,,,,,,,,,,,,,,,,,,,,,,,1656.4442709506257,1656.4442709506257,1656.4442709506257,1656.4442709506257,1656.4442709506257,1656.4442709506257,s,1,1.1689197268569842,1657.6249469508184,1658.6455400279956,,,,,,,,,,,,,,,,,,,,,,,,,,,,,,,,,,,,,,,570,2023-05-16_17h04.09.279,eb_02psyexp,2022.2.4,99.96071516308281,
240,0,240,0,,,,,,,,,,,,,,,,,,,,,,,,,,,,,,,,,,,,,,,,,,,,,,,,,,,,,,,,,,,1658.6455400279956,1658.6455400279956,1658.6455400279956,1658.6455400279956,1658.6455400279956,1658.6455400279956,s,1,1.3106743160169572,1659.9663101675687,1660.986905357684,,,,,,,,,,,,,,,,,,,,,,,,,,,,,,,,,,,,,,,570,2023-05-16_17h04.09.279,eb_02psyexp,2022.2.4,99.96071516308281,
241,0,241,0,,,,,,,,,,,,,,,,,,,,,,,,,,,,,,,,,,,,,,,,,,,,,,,,,,,,,,,,,,,1660.986905357684,1660.986905357684,1660.986905357684,1660.986905357684,1660.986905357684,1660.986905357684,l,1,1.1132969269528985,1662.117552954238,1663.1381532757077,,,,,,,,,,,,,,,,,,,,,,,,,,,,,,,,,,,,,,,570,2023-05-16_17h04.09.279,eb_02psyexp,2022.2.4,99.96071516308281,
242,0,242,0,,,,,,,,,,,,,,,,,,,,,,,,,,,,,,,,,,,,,,,,,,,,,,,,,,,,,,,,,,,1663.1381532757077,1663.1381532757077,1663.1381532757077,1663.1381532757077,1663.1381532757077,1663.1381532757077,l,1,0.9220841195201501,1664.0786979490658,1665.0993000817252,,,,,,,,,,,,,,,,,,,,,,,,,,,,,,,,,,,,,,,570,2023-05-16_17h04.09.279,eb_02psyexp,2022.2.4,99.96071516308281,
243,0,243,0,,,,,,,,,,,,,,,,,,,,,,,,,,,,,,,,,,,,,,,,,,,,,,,,,,,,,,,,,,,1665.0993000817252,1665.0993000817252,1665.0993000817252,1665.0993000817252,1665.0993000817252,1665.0993000817252,l,1,1.128948196885176,1666.239949012408,1667.260594610707,,,,,,,,,,,,,,,,,,,,,,,,,,,,,,,,,,,,,,,570,2023-05-16_17h04.09.279,eb_02psyexp,2022.2.4,99.96071516308281,
244,0,244,0,,,,,,,,,,,,,,,,,,,,,,,,,,,,,,,,,,,,,,,,,,,,,,,,,,,,,,,,,,,1667.260594610707,1667.260594610707,1667.260594610707,1667.260594610707,1667.260594610707,1667.260594610707,s,1,0.9436506470665336,1668.2211021088297,1669.2417069580406,,,,,,,,,,,,,,,,,,,,,,,,,,,,,,,,,,,,,,,570,2023-05-16_17h04.09.279,eb_02psyexp,2022.2.4,99.96071516308281,
245,0,245,0,,,,,,,,,,,,,,,,,,,,,,,,,,,,,,,,,,,,,,,,,,,,,,,,,,,,,,,,,,,1669.2417069580406,1669.2417069580406,1669.2417069580406,1669.2417069580406,1669.2417069580406,1669.2417069580406,l,1,1.0585739271482453,1670.3123184780125,1671.3329221197637,,,,,,,,,,,,,,,,,,,,,,,,,,,,,,,,,,,,,,,570,2023-05-16_17h04.09.279,eb_02psyexp,2022.2.4,99.96071516308281,
246,0,246,0,,,,,,,,,,,,,,,,,,,,,,,,,,,,,,,,,,,,,,,,,,,,,,,,,,,,,,,,,,,1671.3329221197637,1671.3329221197637,1671.3329221197637,1671.3329221197637,1671.3329221197637,1671.3329221197637,s,1,0.9273332050070167,1672.2734667931218,1673.294064699905,,,,,,,,,,,,,,,,,,,,,,,,,,,,,,,,,,,,,,,570,2023-05-16_17h04.09.279,eb_02psyexp,2022.2.4,99.96071516308281,
247,0,247,0,,,,,,,,,,,,,,,,,,,,,,,,,,,,,,,,,,,,,,,,,,,,,,,,,,,,,,,,,,,1673.294064699905,1673.294064699905,1673.294064699905,1673.294064699905,1673.294064699905,1673.294064699905,l,1,1.1012490832945332,1674.414716697298,1675.4353100764565,,,,,,,,,,,,,,,,,,,,,,,,,,,,,,,,,,,,,,,570,2023-05-16_17h04.09.279,eb_02psyexp,2022.2.4,99.96071516308281,
248,0,248,0,,,,,,,,,,,,,,,,,,,,,,,,,,,,,,,,,,,,,,,,,,,,,,,,,,,,,,,,,,,1675.4353100764565,1675.4353100764565,1675.4353100764565,1675.4353100764565,1675.4353100764565,1675.4353100764565,l,1,1.1359902420081198,1676.5859736223938,1677.6065703218337,,,,,,,,,,,,,,,,,,,,,,,,,,,,,,,,,,,,,,,570,2023-05-16_17h04.09.279,eb_02psyexp,2022.2.4,99.96071516308281,
249,0,249,0,,,,,,,,,,,,,,,,,,,,,,,,,,,,,,,,,,,,,,,,,,,,,,,,,,,,,,,,,,,1677.6065703218337,1677.6065703218337,1677.6065703218337,1677.6065703218337,1677.6065703218337,1677.6065703218337,l,1,1.084727292181924,1678.7072093881434,1679.7278516661609,,,,,,,,,,,,,,,,,,,,,,,,,,,,,,,,,,,,,,,570,2023-05-16_17h04.09.279,eb_02psyexp,2022.2.4,99.96071516308281,
250,0,250,0,,,,,,,,,,,,,,,,,,,,,,,,,,,,,,,,,,,,,,,,,,,,,,,,,,,,,,,,,,,1679.7278516661609,1679.7278516661609,1679.7278516661609,1679.7278516661609,1679.7278516661609,1679.7278516661609,s,1,2.019495858461596,1681.7589957374148,1682.7895877340343,,,,,,,,,,,,,,,,,,,,,,,,,,,,,,,,,,,,,,,570,2023-05-16_17h04.09.279,eb_02psyexp,2022.2.4,99.96071516308281,
251,0,251,0,,,,,,,,,,,,,,,,,,,,,,,,,,,,,,,,,,,,,,,,,,,,,,,,,,,,,,,,,,,1682.7895877340343,1682.7895877340343,1682.7895877340343,1682.7895877340343,1682.7895877340343,1682.7895877340343,s,1,2.0777531621279195,1684.880799575476,1685.9013947657077,,,,,,,,,,,,,,,,,,,,,,,,,,,,,,,,,,,,,,,570,2023-05-16_17h04.09.279,eb_02psyexp,2022.2.4,99.96071516308281,
252,0,252,0,,,,,,,,,,,,,,,,,,,,,,,,,,,,,,,,,,,,,,,,,,,,,,,,,,,,,,,,,,,1685.9013947657077,1685.9013947657077,1685.9013947657077,1685.9013947657077,1685.9013947657077,1685.9013947657077,s,1,1.9579626304330304,1687.8725441131974,1688.893183674547,,,,,,,,,,,,,,,,,,,,,,,,,,,,,,,,,,,,,,,570,2023-05-16_17h04.09.279,eb_02psyexp,2022.2.4,99.96071516308281,
253,0,253,0,,,,,,,,,,,,,,,,,,,,,,,,,,,,,,,,,,,,,,,,,,,,,,,,,,,,,,,,,,,1688.893183674547,1688.893183674547,1688.893183674547,1688.893183674547,1688.893183674547,1688.893183674547,s,1,3.101210749009624,1692.0049439202994,1693.0355615736917,,,,,,,,,,,,,,,,,,,,,,,,,,,,,,,,,,,,,,,570,2023-05-16_17h04.09.279,eb_02psyexp,2022.2.4,99.96071516308281,
254,0,254,0,,,,,,,,,,,,,,,,,,,,,,,,,,,,,,,,,,,,,,,,,,,,,,,,,,,,,,,,,,,1693.0355615736917,1693.0355615736917,1693.0355615736917,1693.0355615736917,1693.0355615736917,1693.0355615736917,s,1,1.3268272524001077,1694.3763226096053,1695.3969087444711,,,,,,,,,,,,,,,,,,,,,,,,,,,,,,,,,,,,,,,570,2023-05-16_17h04.09.279,eb_02psyexp,2022.2.4,99.96071516308281,
255,0,255,0,,,,,,,,,,,,,,,,,,,,,,,,,,,,,,,,,,,,,,,,,,,,,,,,,,,,,,,,,,,1695.3969087444711,1695.3969087444711,1695.3969087444711,1695.3969087444711,1695.3969087444711,1695.3969087444711,s,1,1.5415175684029236,1696.9578231900232,1697.988431788166,,,,,,,,,,,,,,,,,,,,,,,,,,,,,,,,,,,,,,,570,2023-05-16_17h04.09.279,eb_02psyexp,2022.2.4,99.96071516308281,
256,0,256,0,,,,,,,,,,,,,,,,,,,,,,,,,,,,,,,,,,,,,,,,,,,,,,,,,,,,,,,,,,,1697.988431788166,1697.988431788166,1697.988431788166,1697.988431788166,1697.988431788166,1697.988431788166,s,1,1.2779914386337623,1699.27917468315,1700.299773193663,,,,,,,,,,,,,,,,,,,,,,,,,,,,,,,,,,,,,,,570,2023-05-16_17h04.09.279,eb_02psyexp,2022.2.4,99.96071516308281,
257,0,257,0,,,,,,,,,,,,,,,,,,,,,,,,,,,,,,,,,,,,,,,,,,,,,,,,,,,,,,,,,,,1700.299773193663,1700.299773193663,1700.299773193663,1700.299773193663,1700.299773193663,1700.299773193663,l,1,2.0066623121965677,1702.3209361543413,1703.3415485497098,,,,,,,,,,,,,,,,,,,,,,,,,,,,,,,,,,,,,,,570,2023-05-16_17h04.09.279,eb_02psyexp,2022.2.4,99.96071516308281,
258,0,258,0,,,,,,,,,,,,,,,,,,,,,,,,,,,,,,,,,,,,,,,,,,,,,,,,,,,,,,,,,,,1703.3415485497098,1703.3415485497098,1703.3415485497098,1703.3415485497098,1703.3415485497098,1703.3415485497098,l,1,4.107909294543788,1707.4639264971483,1708.4845322518377,,,,,,,,,,,,,,,,,,,,,,,,,,,,,,,,,,,,,,,570,2023-05-16_17h04.09.279,eb_02psyexp,2022.2.4,99.96071516308281,
259,0,259,0,,,,,,,,,,,,,,,,,,,,,,,,,,,,,,,,,,,,,,,,,,,,,,,,,,,,,,,,,,,1708.4845322518377,1708.4845322518377,1708.4845322518377,1708.4845322518377,1708.4845322518377,1708.4845322518377,l,1,1.5649202193599194,1710.0654590248596,1711.0960498141358,,,,,,,,,,,,,,,,,,,,,,,,,,,,,,,,,,,,,,,570,2023-05-16_17h04.09.279,eb_02psyexp,2022.2.4,99.96071516308281,
260,0,260,0,,,,,,,,,,,,,,,,,,,,,,,,,,,,,,,,,,,,,,,,,,,,,,,,,,,,,,,,,,,1711.0960498141358,1711.0960498141358,1711.0960498141358,1711.0960498141358,1711.0960498141358,1711.0960498141358,s,1,1.4254321849439293,1712.5368791273795,1713.557502087322,,,,,,,,,,,,,,,,,,,,,,,,,,,,,,,,,,,,,,,570,2023-05-16_17h04.09.279,eb_02psyexp,2022.2.4,99.96071516308281,
261,0,261,0,,,,,,,,,,,,,,,,,,,,,,,,,,,,,,,,,,,,,,,,,,,,,,,,,,,,,,,,,,,1713.557502087322,1713.557502087322,1713.557502087322,1713.557502087322,1713.557502087322,1713.557502087322,l,1,1.5480455714277923,1715.118379406049,1716.1389830478001,,,,,,,,,,,,,,,,,,,,,,,,,,,,,,,,,,,,,,,570,2023-05-16_17h04.09.279,eb_02psyexp,2022.2.4,99.96071516308281,
262,0,262,0,,,,,,,,,,,,,,,,,,,,,,,,,,,,,,,,,,,,,,,,,,,,,,,,,,,,,,,,,,,1716.1389830478001,1716.1389830478001,1716.1389830478001,1716.1389830478001,1716.1389830478001,1716.1389830478001,l,1,1.7505334991728887,1717.9000092968345,1718.9206606302178,,,,,,,,,,,,,,,,,,,,,,,,,,,,,,,,,,,,,,,570,2023-05-16_17h04.09.279,eb_02psyexp,2022.2.4,99.96071516308281,
263,0,263,0,,,,,,,,,,,,,,,,,,,,,,,,,,,,,,,,,,,,,,,,,,,,,,,,,,,,,,,,,,,1718.9206606302178,1718.9206606302178,1718.9206606302178,1718.9206606302178,1718.9206606302178,1718.9206606302178,s,1,1.3999033372383565,1720.331420440576,1721.4320459238952,,,,,,,,,,,,,,,,,,,,,,,,,,,,,,,,,,,,,,,570,2023-05-16_17h04.09.279,eb_02psyexp,2022.2.4,99.96071516308281,
264,0,264,0,,,,,,,,,,,,,,,,,,,,,,,,,,,,,,,,,,,,,,,,,,,,,,,,,,,,,,,,,,,1721.4320459238952,1721.4320459238952,1721.4320459238952,1721.4320459238952,1721.4320459238952,1721.4320459238952,s,1,1.4805264540482312,1722.9229283920722,1723.9435800273204,,,,,,,,,,,,,,,,,,,,,,,,,,,,,,,,,,,,,,,570,2023-05-16_17h04.09.279,eb_02psyexp,2022.2.4,99.96071516308281,
265,0,265,0,,,,,,,,,,,,,,,,,,,,,,,,,,,,,,,,,,,,,,,,,,,,,,,,,,,,,,,,,,,1723.9435800273204,1723.9435800273204,1723.9435800273204,1723.9435800273204,1723.9435800273204,1723.9435800273204,s,1,1.2410543570294976,1725.2042549287435,1726.234855376999,,,,,,,,,,,,,,,,,,,,,,,,,,,,,,,,,,,,,,,570,2023-05-16_17h04.09.279,eb_02psyexp,2022.2.4,99.96071516308281,
266,0,266,0,,,,,,,,,,,,,,,,,,,,,,,,,,,,,,,,,,,,,,,,,,,,,,,,,,,,,,,,,,,1726.234855376999,1726.234855376999,1726.234855376999,1726.234855376999,1726.234855376999,1726.234855376999,s,1,1.1257106068078429,1727.375519098132,1728.396112779039,,,,,,,,,,,,,,,,,,,,,,,,,,,,,,,,,,,,,,,570,2023-05-16_17h04.09.279,eb_02psyexp,2022.2.4,99.96071516308281,
267,0,267,0,,,,,,,,,,,,,,,,,,,,,,,,,,,,,,,,,,,,,,,,,,,,,,,,,,,,,,,,,,,1728.396112779039,1728.396112779039,1728.396112779039,1728.396112779039,1728.396112779039,1728.396112779039,s,1,1.0205073412507772,1729.426731338026,1730.4473536942387,,,,,,,,,,,,,,,,,,,,,,,,,,,,,,,,,,,,,,,570,2023-05-16_17h04.09.279,eb_02psyexp,2022.2.4,99.96071516308281,
268,0,268,0,,,,,,,,,,,,,,,,,,,,,,,,,,,,,,,,,,,,,,,,,,,,,,,,,,,,,,,,,,,1730.4473536942387,1730.4473536942387,1730.4473536942387,1730.4473536942387,1730.4473536942387,1730.4473536942387,s,1,1.0812361522112042,1731.5479411450215,1732.5685432776809,,,,,,,,,,,,,,,,,,,,,,,,,,,,,,,,,,,,,,,570,2023-05-16_17h04.09.279,eb_02psyexp,2022.2.4,99.96071516308281,
269,0,269,0,,,,,,,,,,,,,,,,,,,,,,,,,,,,,,,,,,,,,,,,,,,,,,,,,,,,,,,,,,,1732.5685432776809,1732.5685432776809,1732.5685432776809,1732.5685432776809,1732.5685432776809,1732.5685432776809,l,1,1.1760556458029896,1733.759233893128,1734.7798191223992,,,,,,,,,,,,,,,,,,,,,,,,,,,,,,,,,,,,,,,570,2023-05-16_17h04.09.279,eb_02psyexp,2022.2.4,99.96071516308281,
270,0,270,0,,,,,,,,,,,,,,,,,,,,,,,,,,,,,,,,,,,,,,,,,,,,,,,,,,,,,,,,,,,1734.7798191223992,1734.7798191223992,1734.7798191223992,1734.7798191223992,1734.7798191223992,1734.7798191223992,s,1,1.291896534850821,1736.090582796489,1737.1111773828743,,,,,,,,,,,,,,,,,,,,,,,,,,,,,,,,,,,,,,,570,2023-05-16_17h04.09.279,eb_02psyexp,2022.2.4,99.96071516308281,
271,0,271,0,,,,,,,,,,,,,,,,,,,,,,,,,,,,,,,,,,,,,,,,,,,,,,,,,,,,,,,,,,,1737.1111773828743,1737.1111773828743,1737.1111773828743,1737.1111773828743,1737.1111773828743,1737.1111773828743,l,1,1.3124576165573671,1738.441956402734,1739.4625509892358,,,,,,,,,,,,,,,,,,,,,,,,,,,,,,,,,,,,,,,570,2023-05-16_17h04.09.279,eb_02psyexp,2022.2.4,99.96071516308281,
