trials.thisRepN,trials.thisTrialN,trials.thisN,trials.thisIndex,image_loop.thisRepN,image_loop.thisTrialN,image_loop.thisN,image_loop.thisIndex,break_loop.thisRepN,break_loop.thisTrialN,break_loop.thisN,break_loop.thisIndex,test_trials.thisRepN,test_trials.thisTrialN,test_trials.thisN,test_trials.thisIndex,distance matrix,tools,welcome_text.started,instructions_0_keypress.started,instructions_0_keypress.keys,instructions_0_keypress.rt,consent_image_0.started,consent0_key_resp.started,consent0_text.started,consent0_key_resp.keys,consent0_key_resp.rt,consent_image_1.started,consent1_key_resp.started,consent1_text.started,consent1_key_resp.keys,consent1_key_resp.rt,consent2_text.started,consent_image_2.started,consent2_key_resp.started,consent2_key_resp.keys,consent2_key_resp.rt,agree_button.started,disagree_button.started,consent_image_3.started,agree_button.numClicks,agree_button.timesOn,agree_button.timesOff,disagree_button.numClicks,disagree_button.timesOn,disagree_button.timesOff,instructions_text1.started,instructions1_key_resp.started,instr1_cnt_text.started,instructions1_key_resp.keys,instructions1_key_resp.rt,instructions_text2.started,instr2_cnt_text.started,instructions2_key_resp.started,instructions2_key_resp.keys,instructions2_key_resp.rt,instructions_text3.started,instructions3_key_resp.started,instr3_cnt_text.started,instructions3_key_resp.keys,instructions3_key_resp.rt,text_countdown.started,image.started,small_large_keyresp.started,task_question_text.started,smalleroption_text.started,largeroption_text.started,accuracy_score_text.started,small_large_keyresp.keys,small_large_keyresp.corr,small_large_keyresp.rt,fb_2.started,fb_2.stopped,break_text.started,break_key_resp.started,break_key_resp.keys,break_key_resp.rt,reveal_seq_text.started,start_test_text.started,continue_to_test.started,continue_to_test.keys,continue_to_test.rt,test_structure_info.started,start_test_text_2.started,continue_to_test_2.started,continue_to_test_2.keys,continue_to_test_2.rt,test_cntdown_text.started,parent index,left child index,right child index,left distance,right distance,parent_image.started,top_image_text.started,left_child_image.started,right_child_image.started,path_resp.started,child_choice_text.started,left_choice_text.started,right_choice_text.started,path_resp.keys,path_resp.rt,graph.started,debrief_text.started,debriefing_title.started,demo_scr_adv.started,demo_scr_adv_keypress.started,demo_scr_adv_keypress.keys,demo_scr_adv_keypress.rt,text_countdown_2.started,participant,date,expName,psychopyVersion,frameRate,
,,,,,,,,,,,,,,,,"[[0. 1. 1. 2. 2. 3. 4. 5. 5. 6. 6. 7.]
 [1. 0. 2. 1. 1. 2. 3. 4. 4. 5. 5. 6.]
 [1. 2. 0. 1. 1. 2. 3. 4. 4. 5. 5. 6.]
 [2. 1. 1. 0. 1. 1. 2. 3. 3. 4. 4. 5.]
 [2. 1. 1. 1. 0. 1. 2. 3. 3. 4. 4. 5.]
 [3. 2. 2. 1. 1. 0. 1. 2. 2. 3. 3. 4.]
 [4. 3. 3. 2. 2. 1. 0. 1. 1. 2. 2. 3.]
 [5. 4. 4. 3. 3. 2. 1. 0. 1. 1. 1. 2.]
 [5. 4. 4. 3. 3. 2. 1. 1. 0. 1. 1. 2.]
 [6. 5. 5. 4. 4. 3. 2. 1. 1. 0. 2. 1.]
 [6. 5. 5. 4. 4. 3. 2. 1. 1. 2. 0. 1.]
 [7. 6. 6. 5. 5. 4. 3. 2. 2. 1. 1. 0.]]",[ 0  7  4  8  1  9  3  2  5 10 11  6],15.927662085508928,15.927662085508928,return,565.8499142607907,,,,,,,,,,,,,,,,,,,,,,,,,,,,,,,,,,,,,,,,,,,,,,,,,,,,,,,,,,,,,,,,,,,,,,,,,,,,,,,,,,,,,,,,,,571,2023-05-16_16h56.02.579,eb_02psyexp,2022.2.4,120.0116644961109,
,,,,,,,,,,,,,,,,,,,,,,581.7931202477776,581.7931202477776,581.7931202477776,space,2.936485583195463,,,,,,,,,,,,,,,,,,,,,,,,,,,,,,,,,,,,,,,,,,,,,,,,,,,,,,,,,,,,,,,,,,,,,,,,,,,,,,,,,,,,,571,2023-05-16_16h56.02.579,eb_02psyexp,2022.2.4,120.0116644961109,
,,,,,,,,,,,,,,,,,,,,,,,,,,,584.7433902519988,584.7433902519988,584.7433902519988,space,3.2902971868170425,,,,,,,,,,,,,,,,,,,,,,,,,,,,,,,,,,,,,,,,,,,,,,,,,,,,,,,,,,,,,,,,,,,,,,,,,,,,,,,,571,2023-05-16_16h56.02.579,eb_02psyexp,2022.2.4,120.0116644961109,
,,,,,,,,,,,,,,,,,,,,,,,,,,,,,,,,588.0436700665159,588.0436700665159,588.0436700665159,space,15.629326016642153,,,,,,,,,,,,,,,,,,,,,,,,,,,,,,,,,,,,,,,,,,,,,,,,,,,,,,,,,,,,,,,,,,,,,,,,,,,571,2023-05-16_16h56.02.579,eb_02psyexp,2022.2.4,120.0116644961109,
,,,,,,,,,,,,,,,,,,,,,,,,,,,,,,,,,,,,,603.6950255213305,603.6950255213305,603.6950255213305,1,[4.158613424398936],[4.158617348410189],0,,,607.8453996636672,609.8372104886221,609.8372104886221,space,0.9949224257143214,,,,,,,,,,,,,,,,,,,,,,,,,,,,,,,,,,,,,,,,,,,,,,,,,,,,,,,,,,,,,571,2023-05-16_16h56.02.579,eb_02psyexp,2022.2.4,120.0116644961109,
,,,,,,,,,,,,,,,,,,,,,,,,,,,,,,,,,,,,,,,,,,,,,,,,,,,610.8456544246292,613.8375881023239,613.8375881023239,space,6.738741304026917,,,,,,,,,,,,,,,,,,,,,,,,,,,,,,,,,,,,,,,,,,,,,,,,,,,,,,,,571,2023-05-16_16h56.02.579,eb_02psyexp,2022.2.4,120.0116644961109,
,,,,,,,,,,,,,,,,,,,,,,,,,,,,,,,,,,,,,,,,,,,,,,,,,,,,,,,,620.588167502312,623.5801126501756,623.5801126501756,space,11.915518517955206,,,,,,,,,,,,,,,,,,,,,,,,,,,,,,,,,,,,,,,,,,,,,,,,,,,571,2023-05-16_16h56.02.579,eb_02psyexp,2022.2.4,120.0116644961109,
0,0,0,0,,,,,,,,,,,,,,,,,,,,,,,,,,,,,,,,,,,,,,,,,,,,,,,,,,,,,,,,,,635.5144727746956,640.5649093998363,640.5649093998363,640.5649093998363,640.5649093998363,640.5649093998363,640.5649093998363,s,1,0.9538431329419836,641.5316615905613,642.565107111237,,,,,,,,,,,,,,,,,,,,,,,,,,,,,,,,,,,,,,,571,2023-05-16_16h56.02.579,eb_02psyexp,2022.2.4,120.0116644961109,
1,0,1,0,,,,,,,,,,,,,,,,,,,,,,,,,,,,,,,,,,,,,,,,,,,,,,,,,,,,,,,,,,,642.565107111237,642.565107111237,642.565107111237,642.565107111237,642.565107111237,642.565107111237,l,1,1.0976918942760676,643.6735127123538,644.7069319721777,,,,,,,,,,,,,,,,,,,,,,,,,,,,,,,,,,,,,,,571,2023-05-16_16h56.02.579,eb_02psyexp,2022.2.4,120.0116644961109,
2,0,2,0,,,,,,,,,,,,,,,,,,,,,,,,,,,,,,,,,,,,,,,,,,,,,,,,,,,,,,,,,,,644.7069319721777,644.7069319721777,644.7069319721777,644.7069319721777,644.7069319721777,644.7069319721777,s,1,0.5558917850721627,645.2736548834946,646.2987494377885,,,,,,,,,,,,,,,,,,,,,,,,,,,,,,,,,,,,,,,571,2023-05-16_16h56.02.579,eb_02psyexp,2022.2.4,120.0116644961109,
3,0,3,0,,,,,,,,,,,,,,,,,,,,,,,,,,,,,,,,,,,,,,,,,,,,,,,,,,,,,,,,,,,646.2987494377885,646.2987494377885,646.2987494377885,646.2987494377885,646.2987494377885,646.2987494377885,s,1,0.7081035868031904,647.0154715944082,648.0489219446899,,,,,,,,,,,,,,,,,,,,,,,,,,,,,,,,,,,,,,,571,2023-05-16_16h56.02.579,eb_02psyexp,2022.2.4,120.0116644961109,
4,0,4,0,,,,,,,,,,,,,,,,,,,,,,,,,,,,,,,,,,,,,,,,,,,,,,,,,,,,,,,,,,,648.0489219446899,648.0489219446899,648.0489219446899,648.0489219446899,648.0489219446899,648.0489219446899,s,1,0.8699778905138373,648.9323063408956,649.965702660149,,,,,,,,,,,,,,,,,,,,,,,,,,,,,,,,,,,,,,,571,2023-05-16_16h56.02.579,eb_02psyexp,2022.2.4,120.0116644961109,
5,0,5,0,,,,,,,,,,,,,,,,,,,,,,,,,,,,,,,,,,,,,,,,,,,,,,,,,,,,,,,,,,,649.965702660149,649.965702660149,649.965702660149,649.965702660149,649.965702660149,649.965702660149,l,1,0.49719293718226254,650.4740859244484,651.4908808268374,,,,,,,,,,,,,,,,,,,,,,,,,,,,,,,,,,,,,,,571,2023-05-16_16h56.02.579,eb_02psyexp,2022.2.4,120.0116644961109,
6,0,6,0,,,,,,,,,,,,,,,,,,,,,,,,,,,,,,,,,,,,,,,,,,,,,,,,,,,,,,,,,,,651.4908808268374,651.4908808268374,651.4908808268374,651.4908808268374,651.4908808268374,651.4908808268374,s,1,1.756101872306317,653.2576837281231,654.2827816028148,,,,,,,,,,,,,,,,,,,,,,,,,,,,,,,,,,,,,,,571,2023-05-16_16h56.02.579,eb_02psyexp,2022.2.4,120.0116644961109,
7,0,7,0,,,,,,,,,,,,,,,,,,,,,,,,,,,,,,,,,,,,,,,,,,,,,,,,,,,,,,,,,,,654.2827816028148,654.2827816028148,654.2827816028148,654.2827816028148,654.2827816028148,654.2827816028148,l,1,0.7872952943434939,655.0828410672257,656.0996154438471,,,,,,,,,,,,,,,,,,,,,,,,,,,,,,,,,,,,,,,571,2023-05-16_16h56.02.579,eb_02psyexp,2022.2.4,120.0116644961109,
8,0,8,0,,,,,,,,,,,,,,,,,,,,,,,,,,,,,,,,,,,,,,,,,,,,,,,,,,,,,,,,,,,656.0996154438471,656.0996154438471,656.0996154438471,656.0996154438471,656.0996154438471,656.0996154438471,l,1,0.770447870134376,656.8830004436895,657.9164308719337,,,,,,,,,,,,,,,,,,,,,,,,,,,,,,,,,,,,,,,571,2023-05-16_16h56.02.579,eb_02psyexp,2022.2.4,120.0116644961109,
9,0,9,0,,,,,,,,,,,,,,,,,,,,,,,,,,,,,,,,,,,,,,,,,,,,,,,,,,,,,,,,,,,657.9164308719337,657.9164308719337,657.9164308719337,657.9164308719337,657.9164308719337,657.9164308719337,s,1,0.64166230103001,658.5664784131804,659.5915780989453,,,,,,,,,,,,,,,,,,,,,,,,,,,,,,,,,,,,,,,571,2023-05-16_16h56.02.579,eb_02psyexp,2022.2.4,120.0116644961109,
10,0,10,0,,,,,,,,,,,,,,,,,,,,,,,,,,,,,,,,,,,,,,,,,,,,,,,,,,,,,,,,,,,659.5915780989453,659.5915780989453,659.5915780989453,659.5915780989453,659.5915780989453,659.5915780989453,s,1,0.6385583832161501,660.2416235273704,661.2750705572544,,,,,,,,,,,,,,,,,,,,,,,,,,,,,,,,,,,,,,,571,2023-05-16_16h56.02.579,eb_02psyexp,2022.2.4,120.0116644961109,
11,0,11,0,,,,,,,,,,,,,,,,,,,,,,,,,,,,,,,,,,,,,,,,,,,,,,,,,,,,,,,,,,,661.2750705572544,661.2750705572544,661.2750705572544,661.2750705572544,661.2750705572544,661.2750705572544,s,1,0.46710669877938926,661.7584265796468,662.7835359246237,,,,,,,,,,,,,,,,,,,,,,,,,,,,,,,,,,,,,,,571,2023-05-16_16h56.02.579,eb_02psyexp,2022.2.4,120.0116644961109,
12,0,12,0,,,,,,,,,,,,,,,,,,,,,,,,,,,,,,,,,,,,,,,,,,,,,,,,,,,,,,,,,,,662.7835359246237,662.7835359246237,662.7835359246237,662.7835359246237,662.7835359246237,662.7835359246237,s,1,0.3746647067600861,663.1668961727992,664.1836470051203,,,,,,,,,,,,,,,,,,,,,,,,,,,,,,,,,,,,,,,571,2023-05-16_16h56.02.579,eb_02psyexp,2022.2.4,120.0116644961109,
13,0,13,0,,,,,,,,,,,,,,,,,,,,,,,,,,,,,,,,,,,,,,,,,,,,,,,,,,,,,,,,,,,664.1836470051203,664.1836470051203,664.1836470051203,664.1836470051203,664.1836470051203,664.1836470051203,s,1,0.4625738258473575,664.6587012625532,665.6754273433471,,,,,,,,,,,,,,,,,,,,,,,,,,,,,,,,,,,,,,,571,2023-05-16_16h56.02.579,eb_02psyexp,2022.2.4,120.0116644961109,
14,0,14,0,,,,,,,,,,,,,,,,,,,,,,,,,,,,,,,,,,,,,,,,,,,,,,,,,,,,,,,,,,,665.6754273433471,665.6754273433471,665.6754273433471,665.6754273433471,665.6754273433471,665.6754273433471,l,1,0.39481375995092094,666.0838015520712,667.1172368099215,,,,,,,,,,,,,,,,,,,,,,,,,,,,,,,,,,,,,,,571,2023-05-16_16h56.02.579,eb_02psyexp,2022.2.4,120.0116644961109,
15,0,15,0,,,,,,,,,,,,,,,,,,,,,,,,,,,,,,,,,,,,,,,,,,,,,,,,,,,,,,,,,,,667.1172368099215,667.1172368099215,667.1172368099215,667.1172368099215,667.1172368099215,667.1172368099215,s,1,0.47304407705087215,667.600599472993,668.6340359381866,,,,,,,,,,,,,,,,,,,,,,,,,,,,,,,,,,,,,,,571,2023-05-16_16h56.02.579,eb_02psyexp,2022.2.4,120.0116644961109,
16,0,16,0,,,,,,,,,,,,,,,,,,,,,,,,,,,,,,,,,,,,,,,,,,,,,,,,,,,,,,,,,,,668.6340359381866,668.6340359381866,668.6340359381866,668.6340359381866,668.6340359381866,668.6340359381866,s,1,0.476284128963016,669.125734475092,670.1508229924366,,,,,,,,,,,,,,,,,,,,,,,,,,,,,,,,,,,,,,,571,2023-05-16_16h56.02.579,eb_02psyexp,2022.2.4,120.0116644961109,
17,0,17,0,,,,,,,,,,,,,,,,,,,,,,,,,,,,,,,,,,,,,,,,,,,,,,,,,,,,,,,,,,,670.1508229924366,670.1508229924366,670.1508229924366,670.1508229924366,670.1508229924366,670.1508229924366,l,1,0.5985548817552626,670.7591975030955,671.77597429452,,,,,,,,,,,,,,,,,,,,,,,,,,,,,,,,,,,,,,,571,2023-05-16_16h56.02.579,eb_02psyexp,2022.2.4,120.0116644961109,
18,0,18,0,,,,,,,,,,,,,,,,,,,,,,,,,,,,,,,,,,,,,,,,,,,,,,,,,,,,,,,,,,,671.77597429452,671.77597429452,671.77597429452,671.77597429452,671.77597429452,671.77597429452,l,1,0.5093948986614123,672.3010108936578,673.3261084664846,,,,,,,,,,,,,,,,,,,,,,,,,,,,,,,,,,,,,,,571,2023-05-16_16h56.02.579,eb_02psyexp,2022.2.4,120.0116644961109,
19,0,19,0,,,,,,,,,,,,,,,,,,,,,,,,,,,,,,,,,,,,,,,,,,,,,,,,,,,,,,,,,,,673.3261084664846,673.3261084664846,673.3261084664846,673.3261084664846,673.3261084664846,673.3261084664846,l,1,0.6073269281769171,673.9428339435253,674.9679206497967,,,,,,,,,,,,,,,,,,,,,,,,,,,,,,,,,,,,,,,571,2023-05-16_16h56.02.579,eb_02psyexp,2022.2.4,120.0116644961109,
20,0,20,0,,,,,,,,,,,,,,,,,,,,,,,,,,,,,,,,,,,,,,,,,,,,,,,,,,,,,,,,,,,674.9679206497967,674.9679206497967,674.9679206497967,674.9679206497967,674.9679206497967,674.9679206497967,s,1,0.5255356932757422,675.509622054291,676.526385866222,,,,,,,,,,,,,,,,,,,,,,,,,,,,,,,,,,,,,,,571,2023-05-16_16h56.02.579,eb_02psyexp,2022.2.4,120.0116644961109,
21,0,21,0,,,,,,,,,,,,,,,,,,,,,,,,,,,,,,,,,,,,,,,,,,,,,,,,,,,,,,,,,,,676.526385866222,676.526385866222,676.526385866222,676.526385866222,676.526385866222,676.526385866222,s,1,0.5911046341061592,677.1264411045704,678.1515314331045,,,,,,,,,,,,,,,,,,,,,,,,,,,,,,,,,,,,,,,571,2023-05-16_16h56.02.579,eb_02psyexp,2022.2.4,120.0116644961109,
22,0,22,0,,,,,,,,,,,,,,,,,,,,,,,,,,,,,,,,,,,,,,,,,,,,,,,,,,,,,,,,,,,678.1515314331045,678.1515314331045,678.1515314331045,678.1515314331045,678.1515314331045,678.1515314331045,l,1,0.5019645729335025,678.6682472508401,679.7016565497033,,,,,,,,,,,,,,,,,,,,,,,,,,,,,,,,,,,,,,,571,2023-05-16_16h56.02.579,eb_02psyexp,2022.2.4,120.0116644961109,
23,0,23,0,,,,,,,,,,,,,,,,,,,,,,,,,,,,,,,,,,,,,,,,,,,,,,,,,,,,,,,,,,,679.7016565497033,679.7016565497033,679.7016565497033,679.7016565497033,679.7016565497033,679.7016565497033,l,1,0.6958647996652871,680.4100530953147,681.4268163035158,,,,,,,,,,,,,,,,,,,,,,,,,,,,,,,,,,,,,,,571,2023-05-16_16h56.02.579,eb_02psyexp,2022.2.4,120.0116644961109,
24,0,24,0,,,,,,,,,,,,,,,,,,,,,,,,,,,,,,,,,,,,,,,,,,,,,,,,,,,,,,,,,,,681.4268163035158,681.4268163035158,681.4268163035158,681.4268163035158,681.4268163035158,681.4268163035158,s,1,0.40274304267950356,681.8435339323478,682.8769429293461,,,,,,,,,,,,,,,,,,,,,,,,,,,,,,,,,,,,,,,571,2023-05-16_16h56.02.579,eb_02psyexp,2022.2.4,120.0116644961109,
25,0,25,0,,,,,,,,,,,,,,,,,,,,,,,,,,,,,,,,,,,,,,,,,,,,,,,,,,,,,,,,,,,682.8769429293461,682.8769429293461,682.8769429293461,682.8769429293461,682.8769429293461,682.8769429293461,l,1,0.5286528923315927,683.4186576151988,684.4354117679177,,,,,,,,,,,,,,,,,,,,,,,,,,,,,,,,,,,,,,,571,2023-05-16_16h56.02.579,eb_02psyexp,2022.2.4,120.0116644961109,
26,0,26,0,,,,,,,,,,,,,,,,,,,,,,,,,,,,,,,,,,,,,,,,,,,,,,,,,,,,,,,,,,,684.4354117679177,684.4354117679177,684.4354117679177,684.4354117679177,684.4354117679177,684.4354117679177,s,1,0.6902144801570103,685.1354636859614,686.1605609569233,,,,,,,,,,,,,,,,,,,,,,,,,,,,,,,,,,,,,,,571,2023-05-16_16h56.02.579,eb_02psyexp,2022.2.4,120.0116644961109,
27,0,27,0,,,,,,,,,,,,,,,,,,,,,,,,,,,,,,,,,,,,,,,,,,,,,,,,,,,,,,,,,,,686.1605609569233,686.1605609569233,686.1605609569233,686.1605609569233,686.1605609569233,686.1605609569233,s,1,0.4361333248671144,686.610590990982,687.6273563121213,,,,,,,,,,,,,,,,,,,,,,,,,,,,,,,,,,,,,,,571,2023-05-16_16h56.02.579,eb_02psyexp,2022.2.4,120.0116644961109,
28,0,28,0,,,,,,,,,,,,,,,,,,,,,,,,,,,,,,,,,,,,,,,,,,,,,,,,,,,,,,,,,,,687.6273563121213,687.6273563121213,687.6273563121213,687.6273563121213,687.6273563121213,687.6273563121213,s,1,0.43333306768909097,688.0690510759596,689.0858357154066,,,,,,,,,,,,,,,,,,,,,,,,,,,,,,,,,,,,,,,571,2023-05-16_16h56.02.579,eb_02psyexp,2022.2.4,120.0116644961109,
29,0,29,0,,,,,,,,,,,,,,,,,,,,,,,,,,,,,,,,,,,,,,,,,,,,,,,,,,,,,,,,,,,689.0858357154066,689.0858357154066,689.0858357154066,689.0858357154066,689.0858357154066,689.0858357154066,l,1,0.4789256133371964,689.5775261024246,690.6026140160393,,,,,,,,,,,,,,,,,,,,,,,,,,,,,,,,,,,,,,,571,2023-05-16_16h56.02.579,eb_02psyexp,2022.2.4,120.0116644961109,
30,0,30,0,,,,,,,,,,,,,,,,,,,,,,,,,,,,,,,,,,,,,,,,,,,,,,,,,,,,,,,,,,,690.6026140160393,690.6026140160393,690.6026140160393,690.6026140160393,690.6026140160393,690.6026140160393,l,1,0.4341468538623303,691.0526461630361,692.0860790060833,,,,,,,,,,,,,,,,,,,,,,,,,,,,,,,,,,,,,,,571,2023-05-16_16h56.02.579,eb_02psyexp,2022.2.4,120.0116644961109,
31,0,31,0,,,,,,,,,,,,,,,,,,,,,,,,,,,,,,,,,,,,,,,,,,,,,,,,,,,,,,,,,,,692.0860790060833,692.0860790060833,692.0860790060833,692.0860790060833,692.0860790060833,692.0860790060833,l,1,0.5187232533935457,692.6194487625035,693.6362116688397,,,,,,,,,,,,,,,,,,,,,,,,,,,,,,,,,,,,,,,571,2023-05-16_16h56.02.579,eb_02psyexp,2022.2.4,120.0116644961109,
32,0,32,0,,,,,,,,,,,,,,,,,,,,,,,,,,,,,,,,,,,,,,,,,,,,,,,,,,,,,,,,,,,693.6362116688397,693.6362116688397,693.6362116688397,693.6362116688397,693.6362116688397,693.6362116688397,s,1,0.5046105850487947,694.1529087719973,695.1696801300859,,,,,,,,,,,,,,,,,,,,,,,,,,,,,,,,,,,,,,,571,2023-05-16_16h56.02.579,eb_02psyexp,2022.2.4,120.0116644961109,
33,0,33,0,,,,,,,,,,,,,,,,,,,,,,,,,,,,,,,,,,,,,,,,,,,,,,,,,,,,,,,,,,,695.1696801300859,695.1696801300859,695.1696801300859,695.1696801300859,695.1696801300859,695.1696801300859,l,1,0.4752267503645271,695.6613807800459,696.6948115100386,,,,,,,,,,,,,,,,,,,,,,,,,,,,,,,,,,,,,,,571,2023-05-16_16h56.02.579,eb_02psyexp,2022.2.4,120.0116644961109,
34,0,34,0,,,,,,,,,,,,,,,,,,,,,,,,,,,,,,,,,,,,,,,,,,,,,,,,,,,,,,,,,,,696.6948115100386,696.6948115100386,696.6948115100386,696.6948115100386,696.6948115100386,696.6948115100386,s,1,0.6540209222584963,697.361527780653,698.3782943092519,,,,,,,,,,,,,,,,,,,,,,,,,,,,,,,,,,,,,,,571,2023-05-16_16h56.02.579,eb_02psyexp,2022.2.4,120.0116644961109,
35,0,35,0,,,,,,,,,,,,,,,,,,,,,,,,,,,,,,,,,,,,,,,,,,,,,,,,,,,,,,,,,,,698.3782943092519,698.3782943092519,698.3782943092519,698.3782943092519,698.3782943092519,698.3782943092519,l,1,0.48262175952550024,698.8699856017483,699.8951061151456,,,,,,,,,,,,,,,,,,,,,,,,,,,,,,,,,,,,,,,571,2023-05-16_16h56.02.579,eb_02psyexp,2022.2.4,120.0116644961109,
36,0,36,0,,,,,,,,,,,,,,,,,,,,,,,,,,,,,,,,,,,,,,,,,,,,,,,,,,,,,,,,,,,699.8951061151456,699.8951061151456,699.8951061151456,699.8951061151456,699.8951061151456,699.8951061151456,l,1,0.5018296462949365,700.4118077460444,701.4368950559292,,,,,,,,,,,,,,,,,,,,,,,,,,,,,,,,,,,,,,,571,2023-05-16_16h56.02.579,eb_02psyexp,2022.2.4,120.0116644961109,
37,0,37,0,,,,,,,,,,,,,,,,,,,,,,,,,,,,,,,,,,,,,,,,,,,,,,,,,,,,,,,,,,,701.4368950559292,701.4368950559292,701.4368950559292,701.4368950559292,701.4368950559292,701.4368950559292,s,1,0.4240804770961404,701.870254851412,702.8953512168955,,,,,,,,,,,,,,,,,,,,,,,,,,,,,,,,,,,,,,,571,2023-05-16_16h56.02.579,eb_02psyexp,2022.2.4,120.0116644961109,
38,0,38,0,,,,,,,,,,,,,,,,,,,,,,,,,,,,,,,,,,,,,,,,,,,,,,,,,,,,,,,,,,,702.8953512168955,702.8953512168955,702.8953512168955,702.8953512168955,702.8953512168955,702.8953512168955,l,1,0.46064802655018866,703.370384646696,704.3871354790172,,,,,,,,,,,,,,,,,,,,,,,,,,,,,,,,,,,,,,,571,2023-05-16_16h56.02.579,eb_02psyexp,2022.2.4,120.0116644961109,
39,0,39,0,,,,,,,,,,,,,,,,,,,,,,,,,,,,,,,,,,,,,,,,,,,,,,,,,,,,,,,,,,,704.3871354790172,704.3871354790172,704.3871354790172,704.3871354790172,704.3871354790172,704.3871354790172,s,1,0.48090091592166573,704.8788587676827,705.9039433608996,,,,,,,,,,,,,,,,,,,,,,,,,,,,,,,,,,,,,,,571,2023-05-16_16h56.02.579,eb_02psyexp,2022.2.4,120.0116644961109,
40,0,40,0,,,,,,,,,,,,,,,,,,,,,,,,,,,,,,,,,,,,,,,,,,,,,,,,,,,,,,,,,,,705.9039433608996,705.9039433608996,705.9039433608996,705.9039433608996,705.9039433608996,705.9039433608996,l,1,0.4361085732234642,706.3539794319076,707.3874183120206,,,,,,,,,,,,,,,,,,,,,,,,,,,,,,,,,,,,,,,571,2023-05-16_16h56.02.579,eb_02psyexp,2022.2.4,120.0116644961109,
41,0,41,0,,,,,,,,,,,,,,,,,,,,,,,,,,,,,,,,,,,,,,,,,,,,,,,,,,,,,,,,,,,707.3874183120206,707.3874183120206,707.3874183120206,707.3874183120206,707.3874183120206,707.3874183120206,l,1,0.4966822079150006,707.8957798430929,708.9292157045566,,,,,,,,,,,,,,,,,,,,,,,,,,,,,,,,,,,,,,,571,2023-05-16_16h56.02.579,eb_02psyexp,2022.2.4,120.0116644961109,
42,0,42,0,,,,,,,,,,,,,,,,,,,,,,,,,,,,,,,,,,,,,,,,,,,,,,,,,,,,,,,,,,,708.9292157045566,708.9292157045566,708.9292157045566,708.9292157045566,708.9292157045566,708.9292157045566,s,1,0.5069091684417799,709.4459345409414,710.4710158138769,,,,,,,,,,,,,,,,,,,,,,,,,,,,,,,,,,,,,,,571,2023-05-16_16h56.02.579,eb_02psyexp,2022.2.4,120.0116644961109,
43,0,43,0,,,,,,,,,,,,,,,,,,,,,,,,,,,,,,,,,,,,,,,,,,,,,,,,,,,,,,,,,,,710.4710158138769,710.4710158138769,710.4710158138769,710.4710158138769,710.4710158138769,710.4710158138769,s,1,0.9651404515607283,711.44612259313,712.471188471769,,,,,,,,,,,,,,,,,,,,,,,,,,,,,,,,,,,,,,,571,2023-05-16_16h56.02.579,eb_02psyexp,2022.2.4,120.0116644961109,
44,0,44,0,,,,,,,,,,,,,,,,,,,,,,,,,,,,,,,,,,,,,,,,,,,,,,,,,,,,,,,,,,,712.471188471769,712.471188471769,712.471188471769,712.471188471769,712.471188471769,712.471188471769,s,1,0.5330004297429696,713.0128910836065,714.029657913954,,,,,,,,,,,,,,,,,,,,,,,,,,,,,,,,,,,,,,,571,2023-05-16_16h56.02.579,eb_02psyexp,2022.2.4,120.0116644961109,
45,0,45,0,,,,,,,,,,,,,,,,,,,,,,,,,,,,,,,,,,,,,,,,,,,,,,,,,,,,,,,,,,,714.029657913954,714.029657913954,714.029657913954,714.029657913954,714.029657913954,714.029657913954,l,1,0.7745813962537795,714.8130477435188,715.8298118571984,,,,,,,,,,,,,,,,,,,,,,,,,,,,,,,,,,,,,,,571,2023-05-16_16h56.02.579,eb_02psyexp,2022.2.4,120.0116644961109,
46,0,46,0,,,,,,,,,,,,,,,,,,,,,,,,,,,,,,,,,,,,,,,,,,,,,,,,,,,,,,,,,,,715.8298118571984,715.8298118571984,715.8298118571984,715.8298118571984,715.8298118571984,715.8298118571984,s,1,0.43842255091294646,716.27987328358,717.3132877137978,,,,,,,,,,,,,,,,,,,,,,,,,,,,,,,,,,,,,,,571,2023-05-16_16h56.02.579,eb_02psyexp,2022.2.4,120.0116644961109,
47,0,47,0,,,,,,,,,,,,,,,,,,,,,,,,,,,,,,,,,,,,,,,,,,,,,,,,,,,,,,,,,,,717.3132877137978,717.3132877137978,717.3132877137978,717.3132877137978,717.3132877137978,717.3132877137978,s,1,0.490016165189445,717.8133094469085,718.8384154716041,,,,,,,,,,,,,,,,,,,,,,,,,,,,,,,,,,,,,,,571,2023-05-16_16h56.02.579,eb_02psyexp,2022.2.4,120.0116644961109,
48,0,48,0,,,,,,,,,,,,,,,,,,,,,,,,,,,,,,,,,,,,,,,,,,,,,,,,,,,,,,,,,,,718.8384154716041,718.8384154716041,718.8384154716041,718.8384154716041,718.8384154716041,718.8384154716041,l,1,0.4689274545526132,719.3217723994749,720.3551989037078,,,,,,,,,,,,,,,,,,,,,,,,,,,,,,,,,,,,,,,571,2023-05-16_16h56.02.579,eb_02psyexp,2022.2.4,120.0116644961109,
49,0,49,0,,,,,,,,,,,,,,,,,,,,,,,,,,,,,,,,,,,,,,,,,,,,,,,,,,,,,,,,,,,720.3551989037078,720.3551989037078,720.3551989037078,720.3551989037078,720.3551989037078,720.3551989037078,s,1,0.39213212963659316,720.7635694902856,721.7969929759856,,,,,,,,,,,,,,,,,,,,,,,,,,,,,,,,,,,,,,,571,2023-05-16_16h56.02.579,eb_02psyexp,2022.2.4,120.0116644961109,
50,0,50,0,,,,,,,,,,,,,,,,,,,,,,,,,,,,,,,,,,,,,,,,,,,,,,,,,,,,,,,,,,,721.7969929759856,721.7969929759856,721.7969929759856,721.7969929759856,721.7969929759856,721.7969929759856,l,1,0.4863855200819671,722.2970340274042,723.3138132336317,,,,,,,,,,,,,,,,,,,,,,,,,,,,,,,,,,,,,,,571,2023-05-16_16h56.02.579,eb_02psyexp,2022.2.4,120.0116644961109,
51,0,51,0,,,,,,,,,,,,,,,,,,,,,,,,,,,,,,,,,,,,,,,,,,,,,,,,,,,,,,,,,,,723.3138132336317,723.3138132336317,723.3138132336317,723.3138132336317,723.3138132336317,723.3138132336317,s,1,0.5775956646539271,723.905500300345,724.9389406895498,,,,,,,,,,,,,,,,,,,,,,,,,,,,,,,,,,,,,,,571,2023-05-16_16h56.02.579,eb_02psyexp,2022.2.4,120.0116644961109,
52,0,52,0,,,,,,,,,,,,,,,,,,,,,,,,,,,,,,,,,,,,,,,,,,,,,,,,,,,,,,,,,,,724.9389406895498,724.9389406895498,724.9389406895498,724.9389406895498,724.9389406895498,724.9389406895498,l,1,0.5045031266054139,725.4556423204485,726.4890754653607,,,,,,,,,,,,,,,,,,,,,,,,,,,,,,,,,,,,,,,571,2023-05-16_16h56.02.579,eb_02psyexp,2022.2.4,120.0116644961109,
53,0,53,0,,,,,,,,,,,,,,,,,,,,,,,,,,,,,,,,,,,,,,,,,,,,,,,,,,,,,,,,,,,726.4890754653607,726.4890754653607,726.4890754653607,726.4890754653607,726.4890754653607,726.4890754653607,s,1,0.46640821918845177,726.9641061784932,727.9975420400733,,,,,,,,,,,,,,,,,,,,,,,,,,,,,,,,,,,,,,,571,2023-05-16_16h56.02.579,eb_02psyexp,2022.2.4,120.0116644961109,
54,0,54,0,,,,,,,,,,,,,,,,,,,,,,,,,,,,,,,,,,,,,,,,,,,,,,,,,,,,,,,,,,,727.9975420400733,727.9975420400733,727.9975420400733,727.9975420400733,727.9975420400733,727.9975420400733,l,1,0.45395330793689936,728.4642525755335,729.4893495446304,,,,,,,,,,,,,,,,,,,,,,,,,,,,,,,,,,,,,,,571,2023-05-16_16h56.02.579,eb_02psyexp,2022.2.4,120.0116644961109,
55,0,55,0,,,,,,,,,,,,,,,,,,,,,,,,,,,,,,,,,,,,,,,,,,,,,,,,,,,,,,,,,,,729.4893495446304,729.4893495446304,729.4893495446304,729.4893495446304,729.4893495446304,729.4893495446304,l,1,0.44220351707190275,729.9477045859676,730.9644584368216,,,,,,,,,,,,,,,,,,,,,,,,,,,,,,,,,,,,,,,571,2023-05-16_16h56.02.579,eb_02psyexp,2022.2.4,120.0116644961109,
56,0,56,0,,,,,,,,,,,,,,,,,,,,,,,,,,,,,,,,,,,,,,,,,,,,,,,,,,,,,,,,,,,730.9644584368216,730.9644584368216,730.9644584368216,730.9644584368216,730.9644584368216,730.9644584368216,s,1,0.4871054309187457,731.4644979790319,732.4896136628231,,,,,,,,,,,,,,,,,,,,,,,,,,,,,,,,,,,,,,,571,2023-05-16_16h56.02.579,eb_02psyexp,2022.2.4,120.0116644961109,
57,0,57,0,,,,,,,,,,,,,,,,,,,,,,,,,,,,,,,,,,,,,,,,,,,,,,,,,,,,,,,,,,,732.4896136628231,732.4896136628231,732.4896136628231,732.4896136628231,732.4896136628231,732.4896136628231,s,1,0.40197936352342367,732.9062893347582,733.931386907585,,,,,,,,,,,,,,,,,,,,,,,,,,,,,,,,,,,,,,,571,2023-05-16_16h56.02.579,eb_02psyexp,2022.2.4,120.0116644961109,
58,0,58,0,,,,,,,,,,,,,,,,,,,,,,,,,,,,,,,,,,,,,,,,,,,,,,,,,,,,,,,,,,,733.931386907585,733.931386907585,733.931386907585,733.931386907585,733.931386907585,733.931386907585,l,1,0.4072605213150382,734.3480900477152,735.3815159482183,,,,,,,,,,,,,,,,,,,,,,,,,,,,,,,,,,,,,,,571,2023-05-16_16h56.02.579,eb_02psyexp,2022.2.4,120.0116644961109,
59,0,59,0,,,,,,,,,,,,,,,,,,,,,,,,,,,,,,,,,,,,,,,,,,,,,,,,,,,,,,,,,,,735.3815159482183,735.3815159482183,735.3815159482183,735.3815159482183,735.3815159482183,735.3815159482183,s,1,0.42914098291657865,735.8232125231298,736.8483103978215,,,,,,,,,,,,,,,,,,,,,,,,,,,,,,,,,,,,,,,571,2023-05-16_16h56.02.579,eb_02psyexp,2022.2.4,120.0116644961109,
60,0,60,0,,,,,,,,,,,,,,,,,,,,,,,,,,,,,,,,,,,,,,,,,,,,,,,,,,,,,,,,,,,736.8483103978215,736.8483103978215,736.8483103978215,736.8483103978215,736.8483103978215,736.8483103978215,l,1,0.48236639495007694,737.3400249327533,738.3567860280164,,,,,,,,,,,,,,,,,,,,,,,,,,,,,,,,,,,,,,,571,2023-05-16_16h56.02.579,eb_02psyexp,2022.2.4,120.0116644961109,
61,0,61,0,,,,,,,,,,,,,,,,,,,,,,,,,,,,,,,,,,,,,,,,,,,,,,,,,,,,,,,,,,,738.3567860280164,738.3567860280164,738.3567860280164,738.3567860280164,738.3567860280164,738.3567860280164,s,1,0.4299520523054525,738.798476867727,739.8318949200911,,,,,,,,,,,,,,,,,,,,,,,,,,,,,,,,,,,,,,,571,2023-05-16_16h56.02.579,eb_02psyexp,2022.2.4,120.0116644961109,
62,0,62,0,,,,,,,,,,,,,,,,,,,,,,,,,,,,,,,,,,,,,,,,,,,,,,,,,,,,,,,,,,,739.8318949200911,739.8318949200911,739.8318949200911,739.8318949200911,739.8318949200911,739.8318949200911,l,1,0.48284361883997917,740.3236016070005,741.3487009909004,,,,,,,,,,,,,,,,,,,,,,,,,,,,,,,,,,,,,,,571,2023-05-16_16h56.02.579,eb_02psyexp,2022.2.4,120.0116644961109,
63,0,63,0,,,,,,,,,,,,,,,,,,,,,,,,,,,,,,,,,,,,,,,,,,,,,,,,,,,,,,,,,,,741.3487009909004,741.3487009909004,741.3487009909004,741.3487009909004,741.3487009909004,741.3487009909004,l,1,0.47007599158678204,741.8320672761183,742.8571829599096,,,,,,,,,,,,,,,,,,,,,,,,,,,,,,,,,,,,,,,571,2023-05-16_16h56.02.579,eb_02psyexp,2022.2.4,120.0116644961109,
64,0,64,0,,,,,,,,,,,,,,,,,,,,,,,,,,,,,,,,,,,,,,,,,,,,,,,,,,,,,,,,,,,742.8571829599096,742.8571829599096,742.8571829599096,742.8571829599096,742.8571829599096,742.8571829599096,s,1,0.457613232312724,743.3238883640151,744.3489436778473,,,,,,,,,,,,,,,,,,,,,,,,,,,,,,,,,,,,,,,571,2023-05-16_16h56.02.579,eb_02psyexp,2022.2.4,120.0116644961109,
65,0,65,0,,,,,,,,,,,,,,,,,,,,,,,,,,,,,,,,,,,,,,,,,,,,,,,,,,,,,,,,,,,744.3489436778473,744.3489436778473,744.3489436778473,744.3489436778473,744.3489436778473,744.3489436778473,l,1,0.4219041427131742,744.782334865653,745.8074264015304,,,,,,,,,,,,,,,,,,,,,,,,,,,,,,,,,,,,,,,571,2023-05-16_16h56.02.579,eb_02psyexp,2022.2.4,120.0116644961109,
66,0,66,0,,,,,,,,,,,,,,,,,,,,,,,,,,,,,,,,,,,,,,,,,,,,,,,,,,,,,,,,,,,745.8074264015304,745.8074264015304,745.8074264015304,745.8074264015304,745.8074264015304,745.8074264015304,s,1,0.4674233387922868,746.2907908756752,747.3158884485019,,,,,,,,,,,,,,,,,,,,,,,,,,,,,,,,,,,,,,,571,2023-05-16_16h56.02.579,eb_02psyexp,2022.2.4,120.0116644961109,
67,0,67,0,,,,,,,,,,,,,,,,,,,,,,,,,,,,,,,,,,,,,,,,,,,,,,,,,,,,,,,,,,,747.3158884485019,747.3158884485019,747.3158884485019,747.3158884485019,747.3158884485019,747.3158884485019,l,1,0.4310154678532854,747.7576064546593,748.7910483531887,,,,,,,,,,,,,,,,,,,,,,,,,,,,,,,,,,,,,,,571,2023-05-16_16h56.02.579,eb_02psyexp,2022.2.4,120.0116644961109,
68,0,68,0,,,,,,,,,,,,,,,,,,,,,,,,,,,,,,,,,,,,,,,,,,,,,,,,,,,,,,,,,,,748.7910483531887,748.7910483531887,748.7910483531887,748.7910483531887,748.7910483531887,748.7910483531887,l,1,0.45087836775928736,749.2577356463298,750.2911482653581,,,,,,,,,,,,,,,,,,,,,,,,,,,,,,,,,,,,,,,571,2023-05-16_16h56.02.579,eb_02psyexp,2022.2.4,120.0116644961109,
69,0,69,0,,,,,,,,,,,,,,,,,,,,,,,,,,,,,,,,,,,,,,,,,,,,,,,,,,,,,,,,,,,750.2911482653581,750.2911482653581,750.2911482653581,750.2911482653581,750.2911482653581,750.2911482653581,s,1,0.7028100532479584,751.0078680072911,752.032967391191,,,,,,,,,,,,,,,,,,,,,,,,,,,,,,,,,,,,,,,571,2023-05-16_16h56.02.579,eb_02psyexp,2022.2.4,120.0116644961109,
70,0,70,0,,,,,,,,,,,,,,,,,,,,,,,,,,,,,,,,,,,,,,,,,,,,,,,,,,,,,,,,,,,752.032967391191,752.032967391191,752.032967391191,752.032967391191,752.032967391191,752.032967391191,s,1,0.6090206053340808,752.6580094237579,753.6914437760133,,,,,,,,,,,,,,,,,,,,,,,,,,,,,,,,,,,,,,,571,2023-05-16_16h56.02.579,eb_02psyexp,2022.2.4,120.0116644961109,
71,0,71,0,,,,,,,,,,,,,,,,,,,,,,,,,,,,,,,,,,,,,,,,,,,,,,,,,,,,,,,,,,,753.6914437760133,753.6914437760133,753.6914437760133,753.6914437760133,753.6914437760133,753.6914437760133,s,1,0.43858917197212577,754.1414882987738,755.1749075585976,,,,,,,,,,,,,,,,,,,,,,,,,,,,,,,,,,,,,,,571,2023-05-16_16h56.02.579,eb_02psyexp,2022.2.4,120.0116644961109,
72,0,72,0,,,,,,,,,,,,,,,,,,,,,,,,,,,,,,,,,,,,,,,,,,,,,,,,,,,,,,,,,,,755.1749075585976,755.1749075585976,755.1749075585976,755.1749075585976,755.1749075585976,755.1749075585976,l,1,0.5070981262251735,755.6916158301756,756.7083751142491,,,,,,,,,,,,,,,,,,,,,,,,,,,,,,,,,,,,,,,571,2023-05-16_16h56.02.579,eb_02psyexp,2022.2.4,120.0116644961109,
73,0,73,0,,,,,,,,,,,,,,,,,,,,,,,,,,,,,,,,,,,,,,,,,,,,,,,,,,,,,,,,,,,756.7083751142491,756.7083751142491,756.7083751142491,756.7083751142491,756.7083751142491,756.7083751142491,s,1,0.5417335374513641,757.2584259759169,758.2835099655204,,,,,,,,,,,,,,,,,,,,,,,,,,,,,,,,,,,,,,,571,2023-05-16_16h56.02.579,eb_02psyexp,2022.2.4,120.0116644961109,
74,0,74,0,,,,,,,,,,,,,,,,,,,,,,,,,,,,,,,,,,,,,,,,,,,,,,,,,,,,,,,,,,,758.2835099655204,758.2835099655204,758.2835099655204,758.2835099655204,758.2835099655204,758.2835099655204,l,1,0.542609806288965,758.8418921732809,759.8753410143545,,,,,,,,,,,,,,,,,,,,,,,,,,,,,,,,,,,,,,,571,2023-05-16_16h56.02.579,eb_02psyexp,2022.2.4,120.0116644961109,
75,0,75,0,,,,,,,,,,,,,,,,,,,,,,,,,,,,,,,,,,,,,,,,,,,,,,,,,,,,,,,,,,,759.8753410143545,759.8753410143545,759.8753410143545,759.8753410143545,759.8753410143545,759.8753410143545,l,1,0.5268028570571914,760.4170182709349,761.4504459825112,,,,,,,,,,,,,,,,,,,,,,,,,,,,,,,,,,,,,,,571,2023-05-16_16h56.02.579,eb_02psyexp,2022.2.4,120.0116644961109,
76,0,76,0,,,,,,,,,,,,,,,,,,,,,,,,,,,,,,,,,,,,,,,,,,,,,,,,,,,,,,,,,,,761.4504459825112,761.4504459825112,761.4504459825112,761.4504459825112,761.4504459825112,761.4504459825112,s,1,0.4797529826173559,761.9421556878369,762.9672928029904,,,,,,,,,,,,,,,,,,,,,,,,,,,,,,,,,,,,,,,571,2023-05-16_16h56.02.579,eb_02psyexp,2022.2.4,120.0116644961109,
77,0,77,0,,,,,,,,,,,,,,,,,,,,,,,,,,,,,,,,,,,,,,,,,,,,,,,,,,,,,,,,,,,762.9672928029904,762.9672928029904,762.9672928029904,762.9672928029904,762.9672928029904,762.9672928029904,s,1,0.4669080819003284,763.4506298088236,764.4757177224383,,,,,,,,,,,,,,,,,,,,,,,,,,,,,,,,,,,,,,,571,2023-05-16_16h56.02.579,eb_02psyexp,2022.2.4,120.0116644961109,
78,0,78,0,,,,,,,,,,,,,,,,,,,,,,,,,,,,,,,,,,,,,,,,,,,,,,,,,,,,,,,,,,,764.4757177224383,764.4757177224383,764.4757177224383,764.4757177224383,764.4757177224383,764.4757177224383,s,1,0.48553249367978424,764.9757657165173,765.9925289247185,,,,,,,,,,,,,,,,,,,,,,,,,,,,,,,,,,,,,,,571,2023-05-16_16h56.02.579,eb_02psyexp,2022.2.4,120.0116644961109,
79,0,79,0,,,,,,,,,,,,,,,,,,,,,,,,,,,,,,,,,,,,,,,,,,,,,,,,,,,,,,,,,,,765.9925289247185,765.9925289247185,765.9925289247185,765.9925289247185,765.9925289247185,765.9925289247185,l,1,0.5207703963387758,766.5258872108534,767.550985689275,,,,,,,,,,,,,,,,,,,,,,,,,,,,,,,,,,,,,,,571,2023-05-16_16h56.02.579,eb_02psyexp,2022.2.4,120.0116644961109,
80,0,80,0,,,,,,,,,,,,,,,,,,,,,,,,,,,,,,,,,,,,,,,,,,,,,,,,,,,,,,,,,,,767.550985689275,767.550985689275,767.550985689275,767.550985689275,767.550985689275,767.550985689275,s,1,0.48230089363642037,768.0426848299103,769.0677821008721,,,,,,,,,,,,,,,,,,,,,,,,,,,,,,,,,,,,,,,571,2023-05-16_16h56.02.579,eb_02psyexp,2022.2.4,120.0116644961109,
81,0,81,0,,,,,,,,,,,,,,,,,,,,,,,,,,,,,,,,,,,,,,,,,,,,,,,,,,,,,,,,,,,769.0677821008721,769.0677821008721,769.0677821008721,769.0677821008721,769.0677821008721,769.0677821008721,l,1,0.6295536110410467,769.7094973904314,770.7346025095321,,,,,,,,,,,,,,,,,,,,,,,,,,,,,,,,,,,,,,,571,2023-05-16_16h56.02.579,eb_02psyexp,2022.2.4,120.0116644961109,
82,0,82,0,,,,,,,,,,,,,,,,,,,,,,,,,,,,,,,,,,,,,,,,,,,,,,,,,,,,,,,,,,,770.7346025095321,770.7346025095321,770.7346025095321,770.7346025095321,770.7346025095321,770.7346025095321,s,1,0.4027406278764829,771.1513038385892,772.176389035536,,,,,,,,,,,,,,,,,,,,,,,,,,,,,,,,,,,,,,,571,2023-05-16_16h56.02.579,eb_02psyexp,2022.2.4,120.0116644961109,
83,0,83,0,,,,,,,,,,,,,,,,,,,,,,,,,,,,,,,,,,,,,,,,,,,,,,,,,,,,,,,,,,,772.176389035536,772.176389035536,772.176389035536,772.176389035536,772.176389035536,772.176389035536,l,1,0.3849979182705283,772.5764318981674,773.6015243396396,,,,,,,,,,,,,,,,,,,,,,,,,,,,,,,,,,,,,,,571,2023-05-16_16h56.02.579,eb_02psyexp,2022.2.4,120.0116644961109,
84,0,84,0,,,,,,,,,,,,,,,,,,,,,,,,,,,,,,,,,,,,,,,,,,,,,,,,,,,,,,,,,,,773.6015243396396,773.6015243396396,773.6015243396396,773.6015243396396,773.6015243396396,773.6015243396396,s,1,0.5519076744094491,774.1682318565436,775.1849648797652,,,,,,,,,,,,,,,,,,,,,,,,,,,,,,,,,,,,,,,571,2023-05-16_16h56.02.579,eb_02psyexp,2022.2.4,120.0116644961109,
85,0,85,0,,,,,,,,,,,,,,,,,,,,,,,,,,,,,,,,,,,,,,,,,,,,,,,,,,,,,,,,,,,775.1849648797652,775.1849648797652,775.1849648797652,775.1849648797652,775.1849648797652,775.1849648797652,l,1,0.48848941060714424,775.6850174015854,776.7101282557705,,,,,,,,,,,,,,,,,,,,,,,,,,,,,,,,,,,,,,,571,2023-05-16_16h56.02.579,eb_02psyexp,2022.2.4,120.0116644961109,
86,0,86,0,,,,,,,,,,,,,,,,,,,,,,,,,,,,,,,,,,,,,,,,,,,,,,,,,,,,,,,,,,,776.7101282557705,776.7101282557705,776.7101282557705,776.7101282557705,776.7101282557705,776.7101282557705,l,1,0.7153579341247678,777.4351669680327,778.4519328927854,,,,,,,,,,,,,,,,,,,,,,,,,,,,,,,,,,,,,,,571,2023-05-16_16h56.02.579,eb_02psyexp,2022.2.4,120.0116644961109,
87,0,87,0,,,,,,,,,,,,,,,,,,,,,,,,,,,,,,,,,,,,,,,,,,,,,,,,,,,,,,,,,,,778.4519328927854,778.4519328927854,778.4519328927854,778.4519328927854,778.4519328927854,778.4519328927854,l,1,0.6135770224500448,779.0769842826994,780.1020770259202,,,,,,,,,,,,,,,,,,,,,,,,,,,,,,,,,,,,,,,571,2023-05-16_16h56.02.579,eb_02psyexp,2022.2.4,120.0116644961109,
88,0,88,0,,,,,,,,,,,,,,,,,,,,,,,,,,,,,,,,,,,,,,,,,,,,,,,,,,,,,,,,,,,780.1020770259202,780.1020770259202,780.1020770259202,780.1020770259202,780.1020770259202,780.1020770259202,l,1,0.3864655102370307,780.5021165681537,781.527201161487,,,,,,,,,,,,,,,,,,,,,,,,,,,,,,,,,,,,,,,571,2023-05-16_16h56.02.579,eb_02psyexp,2022.2.4,120.0116644961109,
89,0,89,0,,,,,,,,,,,,,,,,,,,,,,,,,,,,,,,,,,,,,,,,,,,,,,,,,,,,,,,,,,,781.527201161487,781.527201161487,781.527201161487,781.527201161487,781.527201161487,781.527201161487,l,1,0.5613769928459078,782.1022454579361,783.1189854237018,,,,,,,,,,,,,,,,,,,,,,,,,,,,,,,,,,,,,,,571,2023-05-16_16h56.02.579,eb_02psyexp,2022.2.4,120.0116644961109,
90,0,90,0,,,,,,,,,,,,,,,,,,,,,,,,,,,,,,,,,,,,,,,,,,,,,,,,,,,,,,,,,,,783.1189854237018,783.1189854237018,783.1189854237018,783.1189854237018,783.1189854237018,783.1189854237018,s,1,0.45764251169748604,783.5856980721001,784.6191366502317,,,,,,,,,,,,,,,,,,,,,,,,,,,,,,,,,,,,,,,571,2023-05-16_16h56.02.579,eb_02psyexp,2022.2.4,120.0116644961109,
91,0,91,0,,,,,,,,,,,,,,,,,,,,,,,,,,,,,,,,,,,,,,,,,,,,,,,,,,,,,,,,,,,784.6191366502317,784.6191366502317,784.6191366502317,784.6191366502317,784.6191366502317,784.6191366502317,s,1,0.44550816458649933,785.0774889749009,786.1025992254727,,,,,,,,,,,,,,,,,,,,,,,,,,,,,,,,,,,,,,,571,2023-05-16_16h56.02.579,eb_02psyexp,2022.2.4,120.0116644961109,
92,0,92,0,,,,,,,,,,,,,,,,,,,,,,,,,,,,,,,,,,,,,,,,,,,,,,,,,,,,,,,,,,,786.1025992254727,786.1025992254727,786.1025992254727,786.1025992254727,786.1025992254727,786.1025992254727,s,1,0.42608656850643456,786.5442945929244,787.569393071346,,,,,,,,,,,,,,,,,,,,,,,,,,,,,,,,,,,,,,,571,2023-05-16_16h56.02.579,eb_02psyexp,2022.2.4,120.0116644961109,
93,0,93,0,,,,,,,,,,,,,,,,,,,,,,,,,,,,,,,,,,,,,,,,,,,,,,,,,,,,,,,,,,,787.569393071346,787.569393071346,787.569393071346,787.569393071346,787.569393071346,787.569393071346,l,1,0.40730579872615635,787.9860853449209,789.0111844269559,,,,,,,,,,,,,,,,,,,,,,,,,,,,,,,,,,,,,,,571,2023-05-16_16h56.02.579,eb_02psyexp,2022.2.4,120.0116644961109,
94,0,94,0,,,,,,,,,,,,,,,,,,,,,,,,,,,,,,,,,,,,,,,,,,,,,,,,,,,,,,,,,,,789.0111844269559,789.0111844269559,789.0111844269559,789.0111844269559,789.0111844269559,789.0111844269559,s,1,0.48554879357106984,789.5112179322168,790.5363194290549,,,,,,,,,,,,,,,,,,,,,,,,,,,,,,,,,,,,,,,571,2023-05-16_16h56.02.579,eb_02psyexp,2022.2.4,120.0116644961109,
95,0,95,0,,,,,,,,,,,,,,,,,,,,,,,,,,,,,,,,,,,,,,,,,,,,,,,,,,,,,,,,,,,790.5363194290549,790.5363194290549,790.5363194290549,790.5363194290549,790.5363194290549,790.5363194290549,l,1,0.520450435928069,791.0696894874563,792.0947879658779,,,,,,,,,,,,,,,,,,,,,,,,,,,,,,,,,,,,,,,571,2023-05-16_16h56.02.579,eb_02psyexp,2022.2.4,120.0116644961109,
96,0,96,0,,,,,,,,,,,,,,,,,,,,,,,,,,,,,,,,,,,,,,,,,,,,,,,,,,,,,,,,,,,792.0947879658779,792.0947879658779,792.0947879658779,792.0947879658779,792.0947879658779,792.0947879658779,s,1,0.5060069406172261,792.6114923133282,793.6366007528268,,,,,,,,,,,,,,,,,,,,,,,,,,,,,,,,,,,,,,,571,2023-05-16_16h56.02.579,eb_02psyexp,2022.2.4,120.0116644961109,
97,0,97,0,,,,,,,,,,,,,,,,,,,,,,,,,,,,,,,,,,,,,,,,,,,,,,,,,,,,,,,,,,,793.6366007528268,793.6366007528268,793.6366007528268,793.6366007528268,793.6366007528268,793.6366007528268,s,1,0.5082605484640226,794.1533117409563,795.1783878825372,,,,,,,,,,,,,,,,,,,,,,,,,,,,,,,,,,,,,,,571,2023-05-16_16h56.02.579,eb_02psyexp,2022.2.4,120.0116644961109,
98,0,98,0,,,,,,,,,,,,,,,,,,,,,,,,,,,,,,,,,,,,,,,,,,,,,,,,,,,,,,,,,,,795.1783878825372,795.1783878825372,795.1783878825372,795.1783878825372,795.1783878825372,795.1783878825372,s,1,0.4614832439692691,795.6534191993997,796.686858683126,,,,,,,,,,,,,,,,,,,,,,,,,,,,,,,,,,,,,,,571,2023-05-16_16h56.02.579,eb_02psyexp,2022.2.4,120.0116644961109,
99,0,99,0,,,,,,,,,,,,,,,,,,,,,,,,,,,,,,,,,,,,,,,,,,,,,,,,,,,,,,,,,,,796.686858683126,796.686858683126,796.686858683126,796.686858683126,796.686858683126,796.686858683126,s,1,0.4650254469597712,797.1618909055833,798.1869830450742,,,,,,,,,,,,,,,,,,,,,,,,,,,,,,,,,,,,,,,571,2023-05-16_16h56.02.579,eb_02psyexp,2022.2.4,120.0116644961109,
100,0,100,0,,,,,,,,,,,,,,,,,,,,,,,,,,,,,,,,,,,,,,,,,,,,,,,,,,,,,,,,,,,798.1869830450742,798.1869830450742,798.1869830450742,798.1869830450742,798.1869830450742,798.1869830450742,s,1,0.5569570115767419,798.7536999193253,799.7787920589326,,,,,,,,,,,,,,,,,,,,,,,,,,,,,,,,,,,,,,,571,2023-05-16_16h56.02.579,eb_02psyexp,2022.2.4,120.0116644961109,
101,0,101,0,,,,,,,,,,,,,,,,,,,,,,,,,,,,,,,,,,,,,,,,,,,,,,,,,,,,,,,,,,,799.7787920589326,799.7787920589326,799.7787920589326,799.7787920589326,799.7787920589326,799.7787920589326,s,1,0.5011574276722968,800.2954997267807,801.3205803961027,,,,,,,,,,,,,,,,,,,,,,,,,,,,,,,,,,,,,,,571,2023-05-16_16h56.02.579,eb_02psyexp,2022.2.4,120.0116644961109,
102,0,102,0,,,,,,,,,,,,,,,,,,,,,,,,,,,,,,,,,,,,,,,,,,,,,,,,,,,,,,,,,,,801.3205803961027,801.3205803961027,801.3205803961027,801.3205803961027,801.3205803961027,801.3205803961027,l,1,0.47140443103853613,801.8039813939249,802.8290904370369,,,,,,,,,,,,,,,,,,,,,,,,,,,,,,,,,,,,,,,571,2023-05-16_16h56.02.579,eb_02psyexp,2022.2.4,120.0116644961109,
103,0,103,0,,,,,,,,,,,,,,,,,,,,,,,,,,,,,,,,,,,,,,,,,,,,,,,,,,,,,,,,,,,802.8290904370369,802.8290904370369,802.8290904370369,802.8290904370369,802.8290904370369,802.8290904370369,s,1,0.4269148432649672,803.2707519974792,804.295849570306,,,,,,,,,,,,,,,,,,,,,,,,,,,,,,,,,,,,,,,571,2023-05-16_16h56.02.579,eb_02psyexp,2022.2.4,120.0116644961109,
104,0,104,0,,,,,,,,,,,,,,,,,,,,,,,,,,,,,,,,,,,,,,,,,,,,,,,,,,,,,,,,,,,804.295849570306,804.295849570306,804.295849570306,804.295849570306,804.295849570306,804.295849570306,s,1,0.42421540385112166,804.7292516246671,805.7543069386156,,,,,,,,,,,,,,,,,,,,,,,,,,,,,,,,,,,,,,,571,2023-05-16_16h56.02.579,eb_02psyexp,2022.2.4,120.0116644961109,
105,0,105,0,,,,,,,,,,,,,,,,,,,,,,,,,,,,,,,,,,,,,,,,,,,,,,,,,,,,,,,,,,,805.7543069386156,805.7543069386156,805.7543069386156,805.7543069386156,805.7543069386156,805.7543069386156,s,1,0.40575459448155016,806.1710281897103,807.1877699665492,,,,,,,,,,,,,,,,,,,,,,,,,,,,,,,,,,,,,,,571,2023-05-16_16h56.02.579,eb_02psyexp,2022.2.4,120.0116644961109,
106,0,106,0,,,,,,,,,,,,,,,,,,,,,,,,,,,,,,,,,,,,,,,,,,,,,,,,,,,,,,,,,,,807.1877699665492,807.1877699665492,807.1877699665492,807.1877699665492,807.1877699665492,807.1877699665492,l,1,0.612364795175381,807.8128153193975,808.8379101755563,,,,,,,,,,,,,,,,,,,,,,,,,,,,,,,,,,,,,,,571,2023-05-16_16h56.02.579,eb_02psyexp,2022.2.4,120.0116644961109,
107,0,107,0,,,,,,,,,,,,,,,,,,,,,,,,,,,,,,,,,,,,,,,,,,,,,,,,,,,,,,,,,,,808.8379101755563,808.8379101755563,808.8379101755563,808.8379101755563,808.8379101755563,808.8379101755563,s,1,0.4422327963402495,809.2962682354264,810.3130483472487,,,,,,,,,,,,,,,,,,,,,,,,,,,,,,,,,,,,,,,571,2023-05-16_16h56.02.579,eb_02psyexp,2022.2.4,120.0116644961109,
108,0,108,0,,,,,,,,,,,,,,,,,,,,,,,,,,,,,,,,,,,,,,,,,,,,,,,,,,,,,,,,,,,810.3130483472487,810.3130483472487,810.3130483472487,810.3130483472487,810.3130483472487,810.3130483472487,l,1,0.5101305056596175,810.8380508373957,811.8631879525492,,,,,,,,,,,,,,,,,,,,,,,,,,,,,,,,,,,,,,,571,2023-05-16_16h56.02.579,eb_02psyexp,2022.2.4,120.0116644961109,
109,0,109,0,,,,,,,,,,,,,,,,,,,,,,,,,,,,,,,,,,,,,,,,,,,,,,,,,,,,,,,,,,,811.8631879525492,811.8631879525492,811.8631879525492,811.8631879525492,811.8631879525492,811.8631879525492,s,1,0.4479978187009692,812.3215393717401,813.3549749313388,,,,,,,,,,,,,,,,,,,,,,,,,,,,,,,,,,,,,,,571,2023-05-16_16h56.02.579,eb_02psyexp,2022.2.4,120.0116644961109,
110,0,110,0,,,,,,,,,,,,,,,,,,,,,,,,,,,,,,,,,,,,,,,,,,,,,,,,,,,,,,,,,,,813.3549749313388,813.3549749313388,813.3549749313388,813.3549749313388,813.3549749313388,813.3549749313388,s,1,0.4042634582147002,813.771673241863,814.8050988406176,,,,,,,,,,,,,,,,,,,,,,,,,,,,,,,,,,,,,,,571,2023-05-16_16h56.02.579,eb_02psyexp,2022.2.4,120.0116644961109,
111,0,111,0,,,,,,,,,,,,,,,,,,,,,,,,,,,,,,,,,,,,,,,,,,,,,,,,,,,,,,,,,,,814.8050988406176,814.8050988406176,814.8050988406176,814.8050988406176,814.8050988406176,814.8050988406176,l,1,0.4502040361985564,815.2717960946029,816.3052262209821,,,,,,,,,,,,,,,,,,,,,,,,,,,,,,,,,,,,,,,571,2023-05-16_16h56.02.579,eb_02psyexp,2022.2.4,120.0116644961109,
112,0,112,0,,,,,,,,,,,,,,,,,,,,,,,,,,,,,,,,,,,,,,,,,,,,,,,,,,,,,,,,,,,816.3052262209821,816.3052262209821,816.3052262209821,816.3052262209821,816.3052262209821,816.3052262209821,s,1,0.4540734440088272,816.7719479248626,817.8053680902813,,,,,,,,,,,,,,,,,,,,,,,,,,,,,,,,,,,,,,,571,2023-05-16_16h56.02.579,eb_02psyexp,2022.2.4,120.0116644961109,
113,0,113,0,,,,,,,,,,,,,,,,,,,,,,,,,,,,,,,,,,,,,,,,,,,,,,,,,,,,,,,,,,,817.8053680902813,817.8053680902813,817.8053680902813,817.8053680902813,817.8053680902813,817.8053680902813,l,1,0.4499353902647272,818.2637225278886,819.2804993193131,,,,,,,,,,,,,,,,,,,,,,,,,,,,,,,,,,,,,,,571,2023-05-16_16h56.02.579,eb_02psyexp,2022.2.4,120.0116644961109,
114,0,114,0,,,,,,,,,,,,,,,,,,,,,,,,,,,,,,,,,,,,,,,,,,,,,,,,,,,,,,,,,,,819.2804993193131,819.2804993193131,819.2804993193131,819.2804993193131,819.2804993193131,819.2804993193131,s,1,0.550838221795857,819.8471935548587,820.8806100980146,,,,,,,,,,,,,,,,,,,,,,,,,,,,,,,,,,,,,,,571,2023-05-16_16h56.02.579,eb_02psyexp,2022.2.4,120.0116644961109,
115,0,115,0,,,,,,,,,,,,,,,,,,,,,,,,,,,,,,,,,,,,,,,,,,,,,,,,,,,,,,,,,,,820.8806100980146,820.8806100980146,820.8806100980146,820.8806100980146,820.8806100980146,820.8806100980146,l,1,0.4467629526043311,821.3389917020686,822.3640895767603,,,,,,,,,,,,,,,,,,,,,,,,,,,,,,,,,,,,,,,571,2023-05-16_16h56.02.579,eb_02psyexp,2022.2.4,120.0116644961109,
116,0,116,0,,,,,,,,,,,,,,,,,,,,,,,,,,,,,,,,,,,,,,,,,,,,,,,,,,,,,,,,,,,822.3640895767603,822.3640895767603,822.3640895767603,822.3640895767603,822.3640895767603,822.3640895767603,l,1,0.7073230041423813,823.0808235055301,824.0975607547443,,,,,,,,,,,,,,,,,,,,,,,,,,,,,,,,,,,,,,,571,2023-05-16_16h56.02.579,eb_02psyexp,2022.2.4,120.0116644961109,
117,0,117,0,,,,,,,,,,,,,,,,,,,,,,,,,,,,,,,,,,,,,,,,,,,,,,,,,,,,,,,,,,,824.0975607547443,824.0975607547443,824.0975607547443,824.0975607547443,824.0975607547443,824.0975607547443,s,1,0.4859022592427209,824.5976253504632,825.6143716550432,,,,,,,,,,,,,,,,,,,,,,,,,,,,,,,,,,,,,,,571,2023-05-16_16h56.02.579,eb_02psyexp,2022.2.4,120.0116644961109,
118,0,118,0,,,,,,,,,,,,,,,,,,,,,,,,,,,,,,,,,,,,,,,,,,,,,,,,,,,,,,,,,,,825.6143716550432,825.6143716550432,825.6143716550432,825.6143716550432,825.6143716550432,825.6143716550432,l,1,0.4970993638271466,826.1227413361194,827.1561865550466,,,,,,,,,,,,,,,,,,,,,,,,,,,,,,,,,,,,,,,571,2023-05-16_16h56.02.579,eb_02psyexp,2022.2.4,120.0116644961109,
119,0,119,0,,,,,,,,,,,,,,,,,,,,,,,,,,,,,,,,,,,,,,,,,,,,,,,,,,,,,,,,,,,827.1561865550466,827.1561865550466,827.1561865550466,827.1561865550466,827.1561865550466,827.1561865550466,s,1,0.6103366687893867,827.7812252672156,828.797985155019,,,,,,,,,,,,,,,,,,,,,,,,,,,,,,,,,,,,,,,571,2023-05-16_16h56.02.579,eb_02psyexp,2022.2.4,120.0116644961109,
120,0,120,0,,,,,,,,,,,,,,,,,,,,,,,,,,,,,,,,,,,,,,,,,,,,,,,,,,,,,,,,,,,828.797985155019,828.797985155019,828.797985155019,828.797985155019,828.797985155019,828.797985155019,l,1,0.40856269968207926,829.2230105858762,830.2397756051505,,,,,,,,,,,,,,,,,,,,,,,,,,,,,,,,,,,,,,,571,2023-05-16_16h56.02.579,eb_02psyexp,2022.2.4,120.0116644961109,
121,0,121,0,,,,,,,,,,,,,,,,,,,,,,,,,,,,,,,,,,,,,,,,,,,,,,,,,,,,,,,,,,,830.2397756051505,830.2397756051505,830.2397756051505,830.2397756051505,830.2397756051505,830.2397756051505,s,1,0.518792376969941,830.7731444560923,831.7982408214593,,,,,,,,,,,,,,,,,,,,,,,,,,,,,,,,,,,,,,,571,2023-05-16_16h56.02.579,eb_02psyexp,2022.2.4,120.0116644961109,
122,0,122,0,,,,,,,,,,,,,,,,,,,,,,,,,,,,,,,,,,,,,,,,,,,,,,,,,,,,,,,,,,,831.7982408214593,831.7982408214593,831.7982408214593,831.7982408214593,831.7982408214593,831.7982408214593,l,1,0.3843377735465765,832.1982679879293,833.2317319214344,,,,,,,,,,,,,,,,,,,,,,,,,,,,,,,,,,,,,,,571,2023-05-16_16h56.02.579,eb_02psyexp,2022.2.4,120.0116644961109,
123,0,123,0,,,,,,,,,,,,,,,,,,,,,,,,,,,,,,,,,,,,,,,,,,,,,,,,,,,,,,,,,,,833.2317319214344,833.2317319214344,833.2317319214344,833.2317319214344,833.2317319214344,833.2317319214344,s,1,0.4788761099334806,833.7234105363023,834.7485002611065,,,,,,,,,,,,,,,,,,,,,,,,,,,,,,,,,,,,,,,571,2023-05-16_16h56.02.579,eb_02psyexp,2022.2.4,120.0116644961109,
124,0,124,0,,,,,,,,,,,,,,,,,,,,,,,,,,,,,,,,,,,,,,,,,,,,,,,,,,,,,,,,,,,834.7485002611065,834.7485002611065,834.7485002611065,834.7485002611065,834.7485002611065,834.7485002611065,s,1,0.6101404667133465,835.3735459158197,836.398661297746,,,,,,,,,,,,,,,,,,,,,,,,,,,,,,,,,,,,,,,571,2023-05-16_16h56.02.579,eb_02psyexp,2022.2.4,120.0116644961109,
125,0,125,0,,,,,,,,,,,,,,,,,,,,,,,,,,,,,,,,,,,,,,,,,,,,,,,,,,,,,,,,,,,836.398661297746,836.398661297746,836.398661297746,836.398661297746,836.398661297746,836.398661297746,l,1,0.47202020382974297,836.8820058498532,837.9071094596293,,,,,,,,,,,,,,,,,,,,,,,,,,,,,,,,,,,,,,,571,2023-05-16_16h56.02.579,eb_02psyexp,2022.2.4,120.0116644961109,
126,0,126,0,,,,,,,,,,,,,,,,,,,,,,,,,,,,,,,,,,,,,,,,,,,,,,,,,,,,,,,,,,,837.9071094596293,837.9071094596293,837.9071094596293,837.9071094596293,837.9071094596293,837.9071094596293,s,1,0.46762316313106567,838.3904733300442,839.4239055693615,,,,,,,,,,,,,,,,,,,,,,,,,,,,,,,,,,,,,,,571,2023-05-16_16h56.02.579,eb_02psyexp,2022.2.4,120.0116644961109,
127,0,127,0,,,,,,,,,,,,,,,,,,,,,,,,,,,,,,,,,,,,,,,,,,,,,,,,,,,,,,,,,,,839.4239055693615,839.4239055693615,839.4239055693615,839.4239055693615,839.4239055693615,839.4239055693615,s,1,0.44684415007941425,839.8822856642073,840.9073672390077,,,,,,,,,,,,,,,,,,,,,,,,,,,,,,,,,,,,,,,571,2023-05-16_16h56.02.579,eb_02psyexp,2022.2.4,120.0116644961109,
128,0,128,0,,,,,,,,,,,,,,,,,,,,,,,,,,,,,,,,,,,,,,,,,,,,,,,,,,,,,,,,,,,840.9073672390077,840.9073672390077,840.9073672390077,840.9073672390077,840.9073672390077,840.9073672390077,s,1,0.43540707521606237,841.3574014989426,842.374178894097,,,,,,,,,,,,,,,,,,,,,,,,,,,,,,,,,,,,,,,571,2023-05-16_16h56.02.579,eb_02psyexp,2022.2.4,120.0116644961109,
129,0,129,0,,,,,,,,,,,,,,,,,,,,,,,,,,,,,,,,,,,,,,,,,,,,,,,,,,,,,,,,,,,842.374178894097,842.374178894097,842.374178894097,842.374178894097,842.374178894097,842.374178894097,s,1,0.4716353458352387,842.8575294831535,843.8826300743967,,,,,,,,,,,,,,,,,,,,,,,,,,,,,,,,,,,,,,,571,2023-05-16_16h56.02.579,eb_02psyexp,2022.2.4,120.0116644961109,
130,0,130,0,,,,,,,,,,,,,,,,,,,,,,,,,,,,,,,,,,,,,,,,,,,,,,,,,,,,,,,,,,,843.8826300743967,843.8826300743967,843.8826300743967,843.8826300743967,843.8826300743967,843.8826300743967,l,1,0.4352144952863455,844.3326797286281,845.3577549646143,,,,,,,,,,,,,,,,,,,,,,,,,,,,,,,,,,,,,,,571,2023-05-16_16h56.02.579,eb_02psyexp,2022.2.4,120.0116644961109,
131,0,131,0,,,,,,,,,,,,,,,,,,,,,,,,,,,,,,,,,,,,,,,,,,,,,,,,,,,,,,,,,,,845.3577549646143,845.3577549646143,845.3577549646143,845.3577549646143,845.3577549646143,845.3577549646143,s,1,0.5841285919304937,845.9577993365237,846.9828978148289,,,,,,,,,,,,,,,,,,,,,,,,,,,,,,,,,,,,,,,571,2023-05-16_16h56.02.579,eb_02psyexp,2022.2.4,120.0116644961109,
132,0,132,0,,,,,,,,,,,,,,,,,,,,,,,,,,,,,,,,,,,,,,,,,,,,,,,,,,,,,,,,,,,846.9828978148289,846.9828978148289,846.9828978148289,846.9828978148289,846.9828978148289,846.9828978148289,l,1,0.4870049151359126,847.4829418848967,848.5080355337122,,,,,,,,,,,,,,,,,,,,,,,,,,,,,,,,,,,,,,,571,2023-05-16_16h56.02.579,eb_02psyexp,2022.2.4,120.0116644961109,
133,0,133,0,,,,,,,,,,,,,,,,,,,,,,,,,,,,,,,,,,,,,,,,,,,,,,,,,,,,,,,,,,,848.5080355337122,848.5080355337122,848.5080355337122,848.5080355337122,848.5080355337122,848.5080355337122,s,1,0.7058970674406737,849.2247652366059,850.2415230114711,,,,,,,,,,,,,,,,,,,,,,,,,,,,,,,,,,,,,,,571,2023-05-16_16h56.02.579,eb_02psyexp,2022.2.4,120.0116644961109,
134,0,134,0,,,,,,,,,,,,,,,,,,,,,,,,,,,,,,,,,,,,,,,,,,,,,,,,,,,,,,,,,,,850.2415230114711,850.2415230114711,850.2415230114711,850.2415230114711,850.2415230114711,850.2415230114711,l,1,0.5084301878232509,850.7583001047606,851.7749972079182,,,,,,,,,,,,,,,,,,,,,,,,,,,,,,,,,,,,,,,571,2023-05-16_16h56.02.579,eb_02psyexp,2022.2.4,120.0116644961109,
135,0,135,0,,,,,,,,,,,,,,,,,,,,,,,,,,,,,,,,,,,,,,,,,,,,,,,,,,,,,,,,,,,851.7749972079182,851.7749972079182,851.7749972079182,851.7749972079182,851.7749972079182,851.7749972079182,s,1,0.5029978036182001,852.2916849537287,853.308442728594,,,,,,,,,,,,,,,,,,,,,,,,,,,,,,,,,,,,,,,571,2023-05-16_16h56.02.579,eb_02psyexp,2022.2.4,120.0116644961109,
136,0,136,0,,,,,,,,,,,,,,,,,,,,,,,,,,,,,,,,,,,,,,,,,,,,,,,,,,,,,,,,,,,853.308442728594,853.308442728594,853.308442728594,853.308442728594,853.308442728594,853.308442728594,l,1,0.46558386844117194,853.7834800824057,854.8085776552325,,,,,,,,,,,,,,,,,,,,,,,,,,,,,,,,,,,,,,,571,2023-05-16_16h56.02.579,eb_02psyexp,2022.2.4,120.0116644961109,
137,0,137,0,,,,,,,,,,,,,,,,,,,,,,,,,,,,,,,,,,,,,,,,,,,,,,,,,,,,,,,,,,,854.8085776552325,854.8085776552325,854.8085776552325,854.8085776552325,854.8085776552325,854.8085776552325,l,1,0.5654948228038847,855.3836183294188,856.4087174115703,,,,,,,,,,,,,,,,,,,,,,,,,,,,,,,,,,,,,,,571,2023-05-16_16h56.02.579,eb_02psyexp,2022.2.4,120.0116644961109,
138,0,138,0,,,,,,,,,,,,,,,,,,,,,,,,,,,,,,,,,,,,,,,,,,,,,,,,,,,,,,,,,,,856.4087174115703,856.4087174115703,856.4087174115703,856.4087174115703,856.4087174115703,856.4087174115703,l,1,0.4773704850813374,856.9004204762168,857.9255165398354,,,,,,,,,,,,,,,,,,,,,,,,,,,,,,,,,,,,,,,571,2023-05-16_16h56.02.579,eb_02psyexp,2022.2.4,120.0116644961109,
139,0,139,0,,,,,,,,,,,,,,,,,,,,,,,,,,,,,,,,,,,,,,,,,,,,,,,,,,,,,,,,,,,857.9255165398354,857.9255165398354,857.9255165398354,857.9255165398354,857.9255165398354,857.9255165398354,l,1,0.42359781987033784,858.3589001813671,859.3839760210831,,,,,,,,,,,,,,,,,,,,,,,,,,,,,,,,,,,,,,,571,2023-05-16_16h56.02.579,eb_02psyexp,2022.2.4,120.0116644961109,
140,0,140,0,,,,,,,,,,,,,,,,,,,,,,,,,,,,,,,,,,,,,,,,,,,,,,,,,,,,,,,,,,,859.3839760210831,859.3839760210831,859.3839760210831,859.3839760210831,859.3839760210831,859.3839760210831,l,1,0.37316119472961873,859.7673344581854,860.792432634742,,,,,,,,,,,,,,,,,,,,,,,,,,,,,,,,,,,,,,,571,2023-05-16_16h56.02.579,eb_02psyexp,2022.2.4,120.0116644961109,
141,0,141,0,,,,,,,,,,,,,,,,,,,,,,,,,,,,,,,,,,,,,,,,,,,,,,,,,,,,,,,,,,,860.792432634742,860.792432634742,860.792432634742,860.792432634742,860.792432634742,860.792432634742,s,1,0.3647359734168276,861.1674425202655,862.1925545819104,,,,,,,,,,,,,,,,,,,,,,,,,,,,,,,,,,,,,,,571,2023-05-16_16h56.02.579,eb_02psyexp,2022.2.4,120.0116644961109,
142,0,142,0,,,,,,,,,,,,,,,,,,,,,,,,,,,,,,,,,,,,,,,,,,,,,,,,,,,,,,,,,,,862.1925545819104,862.1925545819104,862.1925545819104,862.1925545819104,862.1925545819104,862.1925545819104,l,1,0.4766493666684255,862.6842715316452,863.7093697082018,,,,,,,,,,,,,,,,,,,,,,,,,,,,,,,,,,,,,,,571,2023-05-16_16h56.02.579,eb_02psyexp,2022.2.4,120.0116644961109,
143,0,143,0,,,,,,,,,,,,,,,,,,,,,,,,,,,,,,,,,,,,,,,,,,,,,,,,,,,,,,,,,,,863.7093697082018,863.7093697082018,863.7093697082018,863.7093697082018,863.7093697082018,863.7093697082018,l,1,0.4958693274529651,864.2177300319308,865.2428200584836,,,,,,,,,,,,,,,,,,,,,,,,,,,,,,,,,,,,,,,571,2023-05-16_16h56.02.579,eb_02psyexp,2022.2.4,120.0116644961109,
144,0,144,0,,,,,,,,,,,,,,,,,,,,,,,,,,,,,,,,,,,,,,,,,,,,,,,,,,,,,,,,,,,865.2428200584836,865.2428200584836,865.2428200584836,865.2428200584836,865.2428200584836,865.2428200584836,l,1,0.5304507075343281,865.7845241796458,866.809622657951,,,,,,,,,,,,,,,,,,,,,,,,,,,,,,,,,,,,,,,571,2023-05-16_16h56.02.579,eb_02psyexp,2022.2.4,120.0116644961109,
145,0,145,0,,,,,,,,,,,,,,,,,,,,,,,,,,,,,,,,,,,,,,,,,,,,,,,,,,,,,,,,,,,866.809622657951,866.809622657951,866.809622657951,866.809622657951,866.809622657951,866.809622657951,s,1,0.44367291999515146,867.267986151157,868.3014262384968,,,,,,,,,,,,,,,,,,,,,,,,,,,,,,,,,,,,,,,571,2023-05-16_16h56.02.579,eb_02psyexp,2022.2.4,120.0116644961109,
146,0,146,0,,,,,,,,,,,,,,,,,,,,,,,,,,,,,,,,,,,,,,,,,,,,,,,,,,,,,,,,,,,868.3014262384968,868.3014262384968,868.3014262384968,868.3014262384968,868.3014262384968,868.3014262384968,s,1,0.4799165849108249,868.7931293032598,869.8182175187394,,,,,,,,,,,,,,,,,,,,,,,,,,,,,,,,,,,,,,,571,2023-05-16_16h56.02.579,eb_02psyexp,2022.2.4,120.0116644961109,
147,0,147,0,,,,,,,,,,,,,,,,,,,,,,,,,,,,,,,,,,,,,,,,,,,,,,,,,,,,,,,,,,,869.8182175187394,869.8182175187394,869.8182175187394,869.8182175187394,869.8182175187394,869.8182175187394,s,1,0.3951418703654781,870.226576333167,871.251673000399,,,,,,,,,,,,,,,,,,,,,,,,,,,,,,,,,,,,,,,571,2023-05-16_16h56.02.579,eb_02psyexp,2022.2.4,120.0116644961109,
148,0,148,0,,,,,,,,,,,,,,,,,,,,,,,,,,,,,,,,,,,,,,,,,,,,,,,,,,,,,,,,,,,871.251673000399,871.251673000399,871.251673000399,871.251673000399,871.251673000399,871.251673000399,l,1,0.49770940153393894,871.7600511332275,872.7851321044145,,,,,,,,,,,,,,,,,,,,,,,,,,,,,,,,,,,,,,,571,2023-05-16_16h56.02.579,eb_02psyexp,2022.2.4,120.0116644961109,
149,0,149,0,,,,,,,,,,,,,,,,,,,,,,,,,,,,,,,,,,,,,,,,,,,,,,,,,,,,,,,,,,,872.7851321044145,872.7851321044145,872.7851321044145,872.7851321044145,872.7851321044145,872.7851321044145,l,1,0.4993233905406669,873.2935407239711,874.318604489672,,,,,,,,,,,,,,,,,,,,,,,,,,,,,,,,,,,,,,,571,2023-05-16_16h56.02.579,eb_02psyexp,2022.2.4,120.0116644961109,
150,0,150,0,,,,,,,,,,,,,,,,,,,,,,,,,,,,,,,,,,,,,,,,,,,,,,,,,,,,,,,,,,,874.318604489672,874.318604489672,874.318604489672,874.318604489672,874.318604489672,874.318604489672,l,1,0.38184147875290364,874.7103039321955,875.7353999956977,,,,,,,,,,,,,,,,,,,,,,,,,,,,,,,,,,,,,,,571,2023-05-16_16h56.02.579,eb_02psyexp,2022.2.4,120.0116644961109,
151,0,151,0,,,,,,,,,,,,,,,,,,,,,,,,,,,,,,,,,,,,,,,,,,,,,,,,,,,,,,,,,,,875.7353999956977,875.7353999956977,875.7353999956977,875.7353999956977,875.7353999956977,875.7353999956977,s,1,0.4450774254510179,876.1937665073201,877.2188767578918,,,,,,,,,,,,,,,,,,,,,,,,,,,,,,,,,,,,,,,571,2023-05-16_16h56.02.579,eb_02psyexp,2022.2.4,120.0116644961109,
152,0,152,0,,,,,,,,,,,,,,,,,,,,,,,,,,,,,,,,,,,,,,,,,,,,,,,,,,,,,,,,,,,877.2188767578918,877.2188767578918,877.2188767578918,877.2188767578918,877.2188767578918,877.2188767578918,l,1,0.4496284093474969,877.6771961809136,878.7023251461796,,,,,,,,,,,,,,,,,,,,,,,,,,,,,,,,,,,,,,,571,2023-05-16_16h56.02.579,eb_02psyexp,2022.2.4,120.0116644961109,
153,0,153,0,,,,,,,,,,,,,,,,,,,,,,,,,,,,,,,,,,,,,,,,,,,,,,,,,,,,,,,,,,,878.7023251461796,878.7023251461796,878.7023251461796,878.7023251461796,878.7023251461796,878.7023251461796,s,1,0.4622170398943126,879.1773712536087,880.2024679209571,,,,,,,,,,,,,,,,,,,,,,,,,,,,,,,,,,,,,,,571,2023-05-16_16h56.02.579,eb_02psyexp,2022.2.4,120.0116644961109,
154,0,154,0,,,,,,,,,,,,,,,,,,,,,,,,,,,,,,,,,,,,,,,,,,,,,,,,,,,,,,,,,,,880.2024679209571,880.2024679209571,880.2024679209571,880.2024679209571,880.2024679209571,880.2024679209571,s,1,0.4581146042328328,880.6691555158468,881.7026073753368,,,,,,,,,,,,,,,,,,,,,,,,,,,,,,,,,,,,,,,571,2023-05-16_16h56.02.579,eb_02psyexp,2022.2.4,120.0116644961109,
155,0,155,0,,,,,,,,,,,,,,,,,,,,,,,,,,,,,,,,,,,,,,,,,,,,,,,,,,,,,,,,,,,881.7026073753368,881.7026073753368,881.7026073753368,881.7026073753368,881.7026073753368,881.7026073753368,s,1,0.39000107266474515,882.1026143179042,883.1193877889309,,,,,,,,,,,,,,,,,,,,,,,,,,,,,,,,,,,,,,,571,2023-05-16_16h56.02.579,eb_02psyexp,2022.2.4,120.0116644961109,
156,0,156,0,,,,,,,,,,,,,,,,,,,,,,,,,,,,,,,,,,,,,,,,,,,,,,,,,,,,,,,,,,,883.1193877889309,883.1193877889309,883.1193877889309,883.1193877889309,883.1193877889309,883.1193877889309,s,1,0.405255637364462,883.536091834656,884.5611697873101,,,,,,,,,,,,,,,,,,,,,,,,,,,,,,,,,,,,,,,571,2023-05-16_16h56.02.579,eb_02psyexp,2022.2.4,120.0116644961109,
157,0,157,0,,,,,,,,,,,,,,,,,,,,,,,,,,,,,,,,,,,,,,,,,,,,,,,,,,,,,,,,,,,884.5611697873101,884.5611697873101,884.5611697873101,884.5611697873101,884.5611697873101,884.5611697873101,s,1,0.5234822116326541,885.0945395437302,886.1279844607925,,,,,,,,,,,,,,,,,,,,,,,,,,,,,,,,,,,,,,,571,2023-05-16_16h56.02.579,eb_02psyexp,2022.2.4,120.0116644961109,
158,0,158,0,,,,,,,,,,,,,,,,,,,,,,,,,,,,,,,,,,,,,,,,,,,,,,,,,,,,,,,,,,,886.1279844607925,886.1279844607925,886.1279844607925,886.1279844607925,886.1279844607925,886.1279844607925,s,1,0.4447055469499901,886.5863364835968,887.6114337545587,,,,,,,,,,,,,,,,,,,,,,,,,,,,,,,,,,,,,,,571,2023-05-16_16h56.02.579,eb_02psyexp,2022.2.4,120.0116644961109,
159,0,159,0,,,,,,,,,,,,,,,,,,,,,,,,,,,,,,,,,,,,,,,,,,,,,,,,,,,,,,,,,,,887.6114337545587,887.6114337545587,887.6114337545587,887.6114337545587,887.6114337545587,887.6114337545587,s,1,0.3692818257259205,887.9948054731358,889.0198843312683,,,,,,,,,,,,,,,,,,,,,,,,,,,,,,,,,,,,,,,571,2023-05-16_16h56.02.579,eb_02psyexp,2022.2.4,120.0116644961109,
160,0,160,0,,,,,,,,,,,,,,,,,,,,,,,,,,,,,,,,,,,,,,,,,,,,,,,,,,,,,,,,,,,889.0198843312683,889.0198843312683,889.0198843312683,889.0198843312683,889.0198843312683,889.0198843312683,s,1,0.399847099208273,889.4282642751932,890.4616895719664,,,,,,,,,,,,,,,,,,,,,,,,,,,,,,,,,,,,,,,571,2023-05-16_16h56.02.579,eb_02psyexp,2022.2.4,120.0116644961109,
161,0,161,0,,,,,,,,,,,,,,,,,,,,,,,,,,,,,,,,,,,,,,,,,,,,,,,,,,,,,,,,,,,890.4616895719664,890.4616895719664,890.4616895719664,890.4616895719664,890.4616895719664,890.4616895719664,s,1,0.33409433206543326,890.8117060228251,891.8368114436744,,,,,,,,,,,,,,,,,,,,,,,,,,,,,,,,,,,,,,,571,2023-05-16_16h56.02.579,eb_02psyexp,2022.2.4,120.0116644961109,
162,0,162,0,,,,,,,,,,,,,,,,,,,,,,,,,,,,,,,,,,,,,,,,,,,,,,,,,,,,,,,,,,,891.8368114436744,891.8368114436744,891.8368114436744,891.8368114436744,891.8368114436744,891.8368114436744,s,1,0.34298440150450915,892.195158335031,893.228587254067,,,,,,,,,,,,,,,,,,,,,,,,,,,,,,,,,,,,,,,571,2023-05-16_16h56.02.579,eb_02psyexp,2022.2.4,120.0116644961109,
163,0,163,0,,,,,,,,,,,,,,,,,,,,,,,,,,,,,,,,,,,,,,,,,,,,,,,,,,,,,,,,,,,893.228587254067,893.228587254067,893.228587254067,893.228587254067,893.228587254067,893.228587254067,s,1,0.3512789220549166,893.5952808859292,894.6203781568911,,,,,,,,,,,,,,,,,,,,,,,,,,,,,,,,,,,,,,,571,2023-05-16_16h56.02.579,eb_02psyexp,2022.2.4,120.0116644961109,
164,0,164,0,,,,,,,,,,,,,,,,,,,,,,,,,,,,,,,,,,,,,,,,,,,,,,,,,,,,,,,,,,,894.6203781568911,894.6203781568911,894.6203781568911,894.6203781568911,894.6203781568911,894.6203781568911,s,1,0.35150500724557787,894.9870690722018,896.0038428450935,,,,,,,,,,,,,,,,,,,,,,,,,,,,,,,,,,,,,,,571,2023-05-16_16h56.02.579,eb_02psyexp,2022.2.4,120.0116644961109,
165,0,165,0,,,,,,,,,,,,,,,,,,,,,,,,,,,,,,,,,,,,,,,,,,,,,,,,,,,,,,,,,,,896.0038428450935,896.0038428450935,896.0038428450935,896.0038428450935,896.0038428450935,896.0038428450935,l,1,0.5440387616399676,896.5622048289515,897.5873014961835,,,,,,,,,,,,,,,,,,,,,,,,,,,,,,,,,,,,,,,571,2023-05-16_16h56.02.579,eb_02psyexp,2022.2.4,120.0116644961109,
166,0,166,0,,,,,,,,,,,,,,,,,,,,,,,,,,,,,,,,,,,,,,,,,,,,,,,,,,,,,,,,,,,897.5873014961835,897.5873014961835,897.5873014961835,897.5873014961835,897.5873014961835,897.5873014961835,s,1,0.4166184572968632,898.0123450380052,899.0374293294735,,,,,,,,,,,,,,,,,,,,,,,,,,,,,,,,,,,,,,,571,2023-05-16_16h56.02.579,eb_02psyexp,2022.2.4,120.0116644961109,
167,0,167,0,,,,,,,,,,,,,,,,,,,,,,,,,,,,,,,,,,,,,,,,,,,,,,,,,,,,,,,,,,,899.0374293294735,899.0374293294735,899.0374293294735,899.0374293294735,899.0374293294735,899.0374293294735,l,1,0.46256024262402207,899.5124624574091,900.5375711986562,,,,,,,,,,,,,,,,,,,,,,,,,,,,,,,,,,,,,,,571,2023-05-16_16h56.02.579,eb_02psyexp,2022.2.4,120.0116644961109,
168,0,168,0,,,,,,,,,,,,,,,,,,,,,,,,,,,,,,,,,,,,,,,,,,,,,,,,,,,,,,,,,,,900.5375711986562,900.5375711986562,900.5375711986562,900.5375711986562,900.5375711986562,900.5375711986562,s,1,0.45842520729638636,901.0042669435497,902.0210461497772,,,,,,,,,,,,,,,,,,,,,,,,,,,,,,,,,,,,,,,571,2023-05-16_16h56.02.579,eb_02psyexp,2022.2.4,120.0116644961109,
169,0,169,0,,,,,,,,,,,,,,,,,,,,,,,,,,,,,,,,,,,,,,,,,,,,,,,,,,,,,,,,,,,902.0210461497772,902.0210461497772,902.0210461497772,902.0210461497772,902.0210461497772,902.0210461497772,l,1,0.4549663147190586,902.4877177466406,903.5128174324054,,,,,,,,,,,,,,,,,,,,,,,,,,,,,,,,,,,,,,,571,2023-05-16_16h56.02.579,eb_02psyexp,2022.2.4,120.0116644961109,
170,0,170,0,,,,,,,,,,,,,,,,,,,,,,,,,,,,,,,,,,,,,,,,,,,,,,,,,,,,,,,,,,,903.5128174324054,903.5128174324054,903.5128174324054,903.5128174324054,903.5128174324054,903.5128174324054,l,1,0.41122289875056595,903.9378473908873,904.962945265579,,,,,,,,,,,,,,,,,,,,,,,,,,,,,,,,,,,,,,,571,2023-05-16_16h56.02.579,eb_02psyexp,2022.2.4,120.0116644961109,
171,0,171,0,,,,,,,,,,,,,,,,,,,,,,,,,,,,,,,,,,,,,,,,,,,,,,,,,,,,,,,,,,,904.962945265579,904.962945265579,904.962945265579,904.962945265579,904.962945265579,904.962945265579,l,1,0.3761199228465557,905.3546374636935,906.3797465068055,,,,,,,,,,,,,,,,,,,,,,,,,,,,,,,,,,,,,,,571,2023-05-16_16h56.02.579,eb_02psyexp,2022.2.4,120.0116644961109,
172,0,172,0,,,,,,,,,,,,,,,,,,,,,,,,,,,,,,,,,,,,,,,,,,,,,,,,,,,,,,,,,,,906.3797465068055,906.3797465068055,906.3797465068055,906.3797465068055,906.3797465068055,906.3797465068055,s,1,0.4153651784872636,906.804771032068,907.8215420882916,,,,,,,,,,,,,,,,,,,,,,,,,,,,,,,,,,,,,,,571,2023-05-16_16h56.02.579,eb_02psyexp,2022.2.4,120.0116644961109,
173,0,173,0,,,,,,,,,,,,,,,,,,,,,,,,,,,,,,,,,,,,,,,,,,,,,,,,,,,,,,,,,,,907.8215420882916,907.8215420882916,907.8215420882916,907.8215420882916,907.8215420882916,907.8215420882916,l,1,0.45359229599125683,908.2882188166259,909.3133477817755,,,,,,,,,,,,,,,,,,,,,,,,,,,,,,,,,,,,,,,571,2023-05-16_16h56.02.579,eb_02psyexp,2022.2.4,120.0116644961109,
174,0,174,0,,,,,,,,,,,,,,,,,,,,,,,,,,,,,,,,,,,,,,,,,,,,,,,,,,,,,,,,,,,909.3133477817755,909.3133477817755,909.3133477817755,909.3133477817755,909.3133477817755,909.3133477817755,s,1,0.4738207357004285,909.7966956542805,910.8134464866016,,,,,,,,,,,,,,,,,,,,,,,,,,,,,,,,,,,,,,,571,2023-05-16_16h56.02.579,eb_02psyexp,2022.2.4,120.0116644961109,
175,0,175,0,,,,,,,,,,,,,,,,,,,,,,,,,,,,,,,,,,,,,,,,,,,,,,,,,,,,,,,,,,,910.8134464866016,910.8134464866016,910.8134464866016,910.8134464866016,910.8134464866016,910.8134464866016,l,1,0.43775787856429815,911.2635082148481,912.2885967321927,,,,,,,,,,,,,,,,,,,,,,,,,,,,,,,,,,,,,,,571,2023-05-16_16h56.02.579,eb_02psyexp,2022.2.4,120.0116644961109,
176,0,176,0,,,,,,,,,,,,,,,,,,,,,,,,,,,,,,,,,,,,,,,,,,,,,,,,,,,,,,,,,,,912.2885967321927,912.2885967321927,912.2885967321927,912.2885967321927,912.2885967321927,912.2885967321927,s,1,0.4826139115029946,912.7802928542951,913.7970494218171,,,,,,,,,,,,,,,,,,,,,,,,,,,,,,,,,,,,,,,571,2023-05-16_16h56.02.579,eb_02psyexp,2022.2.4,120.0116644961109,
177,0,177,0,,,,,,,,,,,,,,,,,,,,,,,,,,,,,,,,,,,,,,,,,,,,,,,,,,,,,,,,,,,913.7970494218171,913.7970494218171,913.7970494218171,913.7970494218171,913.7970494218171,913.7970494218171,l,1,0.470201259246096,914.2804120847723,915.3055126761319,,,,,,,,,,,,,,,,,,,,,,,,,,,,,,,,,,,,,,,571,2023-05-16_16h56.02.579,eb_02psyexp,2022.2.4,120.0116644961109,
178,0,178,0,,,,,,,,,,,,,,,,,,,,,,,,,,,,,,,,,,,,,,,,,,,,,,,,,,,,,,,,,,,915.3055126761319,915.3055126761319,915.3055126761319,915.3055126761319,915.3055126761319,915.3055126761319,s,1,0.649774806224741,915.9639078634791,916.9806586958002,,,,,,,,,,,,,,,,,,,,,,,,,,,,,,,,,,,,,,,571,2023-05-16_16h56.02.579,eb_02psyexp,2022.2.4,120.0116644961109,
179,0,179,0,,,,,,,,,,,,,,,,,,,,,,,,,,,,,,,,,,,,,,,,,,,,,,,,,,,,,,,,,,,916.9806586958002,916.9806586958002,916.9806586958002,916.9806586958002,916.9806586958002,916.9806586958002,l,1,0.4146431547123939,917.405694087618,918.4307823030977,,,,,,,,,,,,,,,,,,,,,,,,,,,,,,,,,,,,,,,571,2023-05-16_16h56.02.579,eb_02psyexp,2022.2.4,120.0116644961109,
180,0,180,0,,,,,,,,,,,,,,,,,,,,,,,,,,,,,,,,,,,,,,,,,,,,,,,,,,,,,,,,,,,918.4307823030977,918.4307823030977,918.4307823030977,918.4307823030977,918.4307823030977,918.4307823030977,s,1,0.49257132050115615,918.939153493382,919.9642640458187,,,,,,,,,,,,,,,,,,,,,,,,,,,,,,,,,,,,,,,571,2023-05-16_16h56.02.579,eb_02psyexp,2022.2.4,120.0116644961109,
181,0,181,0,,,,,,,,,,,,,,,,,,,,,,,,,,,,,,,,,,,,,,,,,,,,,,,,,,,,,,,,,,,919.9642640458187,919.9642640458187,919.9642640458187,919.9642640458187,919.9642640458187,919.9642640458187,s,1,0.4381080239545554,920.4142826094758,921.4393970859237,,,,,,,,,,,,,,,,,,,,,,,,,,,,,,,,,,,,,,,571,2023-05-16_16h56.02.579,eb_02psyexp,2022.2.4,120.0116644961109,
182,0,182,0,,,,,,,,,,,,,,,,,,,,,,,,,,,,,,,,,,,,,,,,,,,,,,,,,,,,,,,,,,,921.4393970859237,921.4393970859237,921.4393970859237,921.4393970859237,921.4393970859237,921.4393970859237,l,1,0.42700479447375983,921.881089434959,922.9061864040559,,,,,,,,,,,,,,,,,,,,,,,,,,,,,,,,,,,,,,,571,2023-05-16_16h56.02.579,eb_02psyexp,2022.2.4,120.0116644961109,
183,0,183,0,,,,,,,,,,,,,,,,,,,,,,,,,,,,,,,,,,,,,,,,,,,,,,,,,,,,,,,,,,,922.9061864040559,922.9061864040559,922.9061864040559,922.9061864040559,922.9061864040559,922.9061864040559,s,1,0.41623903263825923,923.331202175701,924.3646341131534,,,,,,,,,,,,,,,,,,,,,,,,,,,,,,,,,,,,,,,571,2023-05-16_16h56.02.579,eb_02psyexp,2022.2.4,120.0116644961109,
184,0,184,0,,,,,,,,,,,,,,,,,,,,,,,,,,,,,,,,,,,,,,,,,,,,,,,,,,,,,,,,,,,924.3646341131534,924.3646341131534,924.3646341131534,924.3646341131534,924.3646341131534,924.3646341131534,s,1,0.42982135142665356,924.8063391399337,925.8397608144442,,,,,,,,,,,,,,,,,,,,,,,,,,,,,,,,,,,,,,,571,2023-05-16_16h56.02.579,eb_02psyexp,2022.2.4,120.0116644961109,
185,0,185,0,,,,,,,,,,,,,,,,,,,,,,,,,,,,,,,,,,,,,,,,,,,,,,,,,,,,,,,,,,,925.8397608144442,925.8397608144442,925.8397608144442,925.8397608144442,925.8397608144442,925.8397608144442,l,1,0.49072219082154334,926.3397955271648,927.356561150169,,,,,,,,,,,,,,,,,,,,,,,,,,,,,,,,,,,,,,,571,2023-05-16_16h56.02.579,eb_02psyexp,2022.2.4,120.0116644961109,
186,0,186,0,,,,,,,,,,,,,,,,,,,,,,,,,,,,,,,,,,,,,,,,,,,,,,,,,,,,,,,,,,,927.356561150169,927.356561150169,927.356561150169,927.356561150169,927.356561150169,927.356561150169,s,1,0.47797599504701793,927.8482678369619,928.8733608820476,,,,,,,,,,,,,,,,,,,,,,,,,,,,,,,,,,,,,,,571,2023-05-16_16h56.02.579,eb_02psyexp,2022.2.4,120.0116644961109,
187,0,187,0,,,,,,,,,,,,,,,,,,,,,,,,,,,,,,,,,,,,,,,,,,,,,,,,,,,,,,,,,,,928.8733608820476,928.8733608820476,928.8733608820476,928.8733608820476,928.8733608820476,928.8733608820476,s,1,0.4731859463499859,929.356747693033,930.3901575955097,,,,,,,,,,,,,,,,,,,,,,,,,,,,,,,,,,,,,,,571,2023-05-16_16h56.02.579,eb_02psyexp,2022.2.4,120.0116644961109,
188,0,188,0,,,,,,,,,,,,,,,,,,,,,,,,,,,,,,,,,,,,,,,,,,,,,,,,,,,,,,,,,,,930.3901575955097,930.3901575955097,930.3901575955097,930.3901575955097,930.3901575955097,930.3901575955097,s,1,0.41245897219050676,930.8151866485132,931.8402799954638,,,,,,,,,,,,,,,,,,,,,,,,,,,,,,,,,,,,,,,571,2023-05-16_16h56.02.579,eb_02psyexp,2022.2.4,120.0116644961109,
189,0,189,0,,,,,,,,,,,,,,,,,,,,,,,,,,,,,,,,,,,,,,,,,,,,,,,,,,,,,,,,,,,931.8402799954638,931.8402799954638,931.8402799954638,931.8402799954638,931.8402799954638,931.8402799954638,s,1,0.4663487548241392,932.3153155383188,933.3487707182067,,,,,,,,,,,,,,,,,,,,,,,,,,,,,,,,,,,,,,,571,2023-05-16_16h56.02.579,eb_02psyexp,2022.2.4,120.0116644961109,
190,0,190,0,,,,,,,,,,,,,,,,,,,,,,,,,,,,,,,,,,,,,,,,,,,,,,,,,,,,,,,,,,,933.3487707182067,933.3487707182067,933.3487707182067,933.3487707182067,933.3487707182067,933.3487707182067,s,1,0.3818882654886693,933.7404463145649,934.765540265129,,,,,,,,,,,,,,,,,,,,,,,,,,,,,,,,,,,,,,,571,2023-05-16_16h56.02.579,eb_02psyexp,2022.2.4,120.0116644961109,
191,0,191,0,,,,,,,,,,,,,,,,,,,,,,,,,,,,,,,,,,,,,,,,,,,,,,,,,,,,,,,,,,,934.765540265129,934.765540265129,934.765540265129,934.765540265129,934.765540265129,934.765540265129,l,1,0.5011556164827198,935.2822431034874,936.315684096422,,,,,,,,,,,,,,,,,,,,,,,,,,,,,,,,,,,,,,,571,2023-05-16_16h56.02.579,eb_02psyexp,2022.2.4,120.0116644961109,
192,0,192,0,,,,,,,,,,,,,,,,,,,,,,,,,,,,,,,,,,,,,,,,,,,,,,,,,,,,,,,,,,,936.315684096422,936.315684096422,936.315684096422,936.315684096422,936.315684096422,936.315684096422,s,1,0.46201117848977447,936.7907148095546,937.807481941767,,,,,,,,,,,,,,,,,,,,,,,,,,,,,,,,,,,,,,,571,2023-05-16_16h56.02.579,eb_02psyexp,2022.2.4,120.0116644961109,
193,0,193,0,,,,,,,,,,,,,,,,,,,,,,,,,,,,,,,,,,,,,,,,,,,,,,,,,,,,,,,,,,,937.807481941767,937.807481941767,937.807481941767,937.807481941767,937.807481941767,937.807481941767,l,1,0.48227584012784064,938.2991810824024,939.3326051718323,,,,,,,,,,,,,,,,,,,,,,,,,,,,,,,,,,,,,,,571,2023-05-16_16h56.02.579,eb_02psyexp,2022.2.4,120.0116644961109,
194,0,194,0,,,,,,,,,,,,,,,,,,,,,,,,,,,,,,,,,,,,,,,,,,,,,,,,,,,,,,,,,,,939.3326051718323,939.3326051718323,939.3326051718323,939.3326051718323,939.3326051718323,939.3326051718323,s,1,0.4051599510712549,939.7493061990244,940.7660636721412,,,,,,,,,,,,,,,,,,,,,,,,,,,,,,,,,,,,,,,571,2023-05-16_16h56.02.579,eb_02psyexp,2022.2.4,120.0116644961109,
195,0,195,0,,,,,,,,,,,,,,,,,,,,,,,,,,,,,,,,,,,,,,,,,,,,,,,,,,,,,,,,,,,940.7660636721412,940.7660636721412,940.7660636721412,940.7660636721412,940.7660636721412,940.7660636721412,l,1,0.43572763935662806,941.2160915931454,942.2411903734319,,,,,,,,,,,,,,,,,,,,,,,,,,,,,,,,,,,,,,,571,2023-05-16_16h56.02.579,eb_02psyexp,2022.2.4,120.0116644961109,
196,0,196,0,,,,,,,,,,,,,,,,,,,,,,,,,,,,,,,,,,,,,,,,,,,,,,,,,,,,,,,,,,,942.2411903734319,942.2411903734319,942.2411903734319,942.2411903734319,942.2411903734319,942.2411903734319,l,1,0.5286329702939838,942.7829062666278,943.8163243191084,,,,,,,,,,,,,,,,,,,,,,,,,,,,,,,,,,,,,,,571,2023-05-16_16h56.02.579,eb_02psyexp,2022.2.4,120.0116644961109,
197,0,197,0,,,,,,,,,,,,,,,,,,,,,,,,,,,,,,,,,,,,,,,,,,,,,,,,,,,,,,,,,,,943.8163243191084,943.8163243191084,943.8163243191084,943.8163243191084,943.8163243191084,943.8163243191084,l,1,0.449528799043037,944.2746908307308,945.2998007793212,,,,,,,,,,,,,,,,,,,,,,,,,,,,,,,,,,,,,,,571,2023-05-16_16h56.02.579,eb_02psyexp,2022.2.4,120.0116644961109,
198,0,198,0,,,,,,,,,,,,,,,,,,,,,,,,,,,,,,,,,,,,,,,,,,,,,,,,,,,,,,,,,,,945.2998007793212,945.2998007793212,945.2998007793212,945.2998007793212,945.2998007793212,945.2998007793212,l,1,0.43009422335308045,945.7414907135535,946.7665840605041,,,,,,,,,,,,,,,,,,,,,,,,,,,,,,,,,,,,,,,571,2023-05-16_16h56.02.579,eb_02psyexp,2022.2.4,120.0116644961109,
199,0,199,0,,,,,0,0,0,0,,,,,,,,,,,,,,,,,,,,,,,,,,,,,,,,,,,,,,,,,,,,,,,,,,,946.7665840605041,946.7665840605041,946.7665840605041,946.7665840605041,946.7665840605041,946.7665840605041,s,1,0.4993372755125165,947.2749507230474,948.2750273927813,948.2750273927813,948.2750273927813,space,8.278087679296732,,,,,,,,,,,,,,,,,,,,,,,,,,,,,,,,,,,571,2023-05-16_16h56.02.579,eb_02psyexp,2022.2.4,120.0116644961109,
199,0,199,0,,,,,,,,,,,,,,,,,,,,,,,,,,,,,,,,,,,,,,,,,,,,,,,,,,,,,,,,,,,,,,,,,,,,,,,,,,,,,,,,,,,,,,,,,,,,,,,,,,,,,,,,,,,,571,2023-05-16_16h56.02.579,eb_02psyexp,2022.2.4,120.0116644961109,
200,0,200,0,,,,,,,,,,,,,,,,,,,,,,,,,,,,,,,,,,,,,,,,,,,,,,,,,,,,,,,,,,,956.592433238402,956.592433238402,956.592433238402,956.592433238402,956.592433238402,956.592433238402,l,1,0.9607228852109984,957.5675131530734,958.5842615705915,,,,,,,,,,,,,,,,,,,,,,,,,,,,,,,,,,,,,,,571,2023-05-16_16h56.02.579,eb_02psyexp,2022.2.4,120.0116644961109,
201,0,201,0,,,,,,,,,,,,,,,,,,,,,,,,,,,,,,,,,,,,,,,,,,,,,,,,,,,,,,,,,,,958.5842615705915,958.5842615705915,958.5842615705915,958.5842615705915,958.5842615705915,958.5842615705915,s,1,0.48890505731105804,959.0843023202615,960.117746331729,,,,,,,,,,,,,,,,,,,,,,,,,,,,,,,,,,,,,,,571,2023-05-16_16h56.02.579,eb_02psyexp,2022.2.4,120.0116644961109,
202,0,202,0,,,,,,,,,,,,,,,,,,,,,,,,,,,,,,,,,,,,,,,,,,,,,,,,,,,,,,,,,,,960.117746331729,960.117746331729,960.117746331729,960.117746331729,960.117746331729,960.117746331729,l,1,0.45944455289281905,960.5927776485914,961.61787371221,,,,,,,,,,,,,,,,,,,,,,,,,,,,,,,,,,,,,,,571,2023-05-16_16h56.02.579,eb_02psyexp,2022.2.4,120.0116644961109,
203,0,203,0,,,,,,,,,,,,,,,,,,,,,,,,,,,,,,,,,,,,,,,,,,,,,,,,,,,,,,,,,,,961.61787371221,961.61787371221,961.61787371221,961.61787371221,961.61787371221,961.61787371221,l,1,0.41535370831843466,962.0429063873598,963.0680109027307,,,,,,,,,,,,,,,,,,,,,,,,,,,,,,,,,,,,,,,571,2023-05-16_16h56.02.579,eb_02psyexp,2022.2.4,120.0116644961109,
204,0,204,0,,,,,,,,,,,,,,,,,,,,,,,,,,,,,,,,,,,,,,,,,,,,,,,,,,,,,,,,,,,963.0680109027307,963.0680109027307,963.0680109027307,963.0680109027307,963.0680109027307,963.0680109027307,s,1,0.4292288209544495,963.5096987240249,964.5431312652072,,,,,,,,,,,,,,,,,,,,,,,,,,,,,,,,,,,,,,,571,2023-05-16_16h56.02.579,eb_02psyexp,2022.2.4,120.0116644961109,
205,0,205,0,,,,,,,,,,,,,,,,,,,,,,,,,,,,,,,,,,,,,,,,,,,,,,,,,,,,,,,,,,,964.5431312652072,964.5431312652072,964.5431312652072,964.5431312652072,964.5431312652072,964.5431312652072,s,1,0.4421298657543957,965.0014938528184,966.0182694367832,,,,,,,,,,,,,,,,,,,,,,,,,,,,,,,,,,,,,,,571,2023-05-16_16h56.02.579,eb_02psyexp,2022.2.4,120.0116644961109,
206,0,206,0,,,,,,,,,,,,,,,,,,,,,,,,,,,,,,,,,,,,,,,,,,,,,,,,,,,,,,,,,,,966.0182694367832,966.0182694367832,966.0182694367832,966.0182694367832,966.0182694367832,966.0182694367832,l,1,0.5030219516484067,966.5349644270027,967.5517264277441,,,,,,,,,,,,,,,,,,,,,,,,,,,,,,,,,,,,,,,571,2023-05-16_16h56.02.579,eb_02psyexp,2022.2.4,120.0116644961109,
207,0,207,0,,,,,,,,,,,,,,,,,,,,,,,,,,,,,,,,,,,,,,,,,,,,,,,,,,,,,,,,,,,967.5517264277441,967.5517264277441,967.5517264277441,967.5517264277441,967.5517264277441,967.5517264277441,s,1,0.4646001411601901,968.0267601594096,969.0435221602675,,,,,,,,,,,,,,,,,,,,,,,,,,,,,,,,,,,,,,,571,2023-05-16_16h56.02.579,eb_02psyexp,2022.2.4,120.0116644961109,
208,0,208,0,,,,,,,,,,,,,,,,,,,,,,,,,,,,,,,,,,,,,,,,,,,,,,,,,,,,,,,,,,,969.0435221602675,969.0435221602675,969.0435221602675,969.0435221602675,969.0435221602675,969.0435221602675,l,1,0.4048478387994692,969.4602168486454,970.4853083844064,,,,,,,,,,,,,,,,,,,,,,,,,,,,,,,,,,,,,,,571,2023-05-16_16h56.02.579,eb_02psyexp,2022.2.4,120.0116644961109,
209,0,209,0,,,,,,,,,,,,,,,,,,,,,,,,,,,,,,,,,,,,,,,,,,,,,,,,,,,,,,,,,,,970.4853083844064,970.4853083844064,970.4853083844064,970.4853083844064,970.4853083844064,970.4853083844064,l,1,0.4910759584745392,970.9853488322115,972.0021114366828,,,,,,,,,,,,,,,,,,,,,,,,,,,,,,,,,,,,,,,571,2023-05-16_16h56.02.579,eb_02psyexp,2022.2.4,120.0116644961109,
210,0,210,0,,,,,,,,,,,,,,,,,,,,,,,,,,,,,,,,,,,,,,,,,,,,,,,,,,,,,,,,,,,972.0021114366828,972.0021114366828,972.0021114366828,972.0021114366828,972.0021114366828,972.0021114366828,s,1,0.4302982735680416,972.4438237078721,973.4689076974755,,,,,,,,,,,,,,,,,,,,,,,,,,,,,,,,,,,,,,,571,2023-05-16_16h56.02.579,eb_02psyexp,2022.2.4,120.0116644961109,
211,0,211,0,,,,,,,,,,,,,,,,,,,,,,,,,,,,,,,,,,,,,,,,,,,,,,,,,,,,,,,,,,,973.4689076974755,973.4689076974755,973.4689076974755,973.4689076974755,973.4689076974755,973.4689076974755,s,1,0.48354451335035264,973.9689575026277,975.0023722345941,,,,,,,,,,,,,,,,,,,,,,,,,,,,,,,,,,,,,,,571,2023-05-16_16h56.02.579,eb_02psyexp,2022.2.4,120.0116644961109,
212,0,212,0,,,,,,,,,,,,,,,,,,,,,,,,,,,,,,,,,,,,,,,,,,,,,,,,,,,,,,,,,,,975.0023722345941,975.0023722345941,975.0023722345941,975.0023722345941,975.0023722345941,975.0023722345941,s,1,0.3740996445994824,975.385732181021,976.4024938800139,,,,,,,,,,,,,,,,,,,,,,,,,,,,,,,,,,,,,,,571,2023-05-16_16h56.02.579,eb_02psyexp,2022.2.4,120.0116644961109,
213,0,213,0,,,,,,,,,,,,,,,,,,,,,,,,,,,,,,,,,,,,,,,,,,,,,,,,,,,,,,,,,,,976.4024938800139,976.4024938800139,976.4024938800139,976.4024938800139,976.4024938800139,976.4024938800139,l,1,0.4860127361025661,976.9025313092861,977.9276340135839,,,,,,,,,,,,,,,,,,,,,,,,,,,,,,,,,,,,,,,571,2023-05-16_16h56.02.579,eb_02psyexp,2022.2.4,120.0116644961109,
214,0,214,0,,,,,,,,,,,,,,,,,,,,,,,,,,,,,,,,,,,,,,,,,,,,,,,,,,,,,,,,,,,977.9276340135839,977.9276340135839,977.9276340135839,977.9276340135839,977.9276340135839,977.9276340135839,l,1,0.632931909756735,978.569347190205,979.6027652425691,,,,,,,,,,,,,,,,,,,,,,,,,,,,,,,,,,,,,,,571,2023-05-16_16h56.02.579,eb_02psyexp,2022.2.4,120.0116644961109,
215,0,215,0,,,,,,,,,,,,,,,,,,,,,,,,,,,,,,,,,,,,,,,,,,,,,,,,,,,,,,,,,,,979.6027652425691,979.6027652425691,979.6027652425691,979.6027652425691,979.6027652425691,979.6027652425691,s,1,0.5258025281364098,980.1444805321516,981.161245249561,,,,,,,,,,,,,,,,,,,,,,,,,,,,,,,,,,,,,,,571,2023-05-16_16h56.02.579,eb_02psyexp,2022.2.4,120.0116644961109,
216,0,216,0,,,,,,,,,,,,,,,,,,,,,,,,,,,,,,,,,,,,,,,,,,,,,,,,,,,,,,,,,,,981.161245249561,981.161245249561,981.161245249561,981.161245249561,981.161245249561,981.161245249561,s,1,0.7913548672804609,981.9613192026736,982.9947451031767,,,,,,,,,,,,,,,,,,,,,,,,,,,,,,,,,,,,,,,571,2023-05-16_16h56.02.579,eb_02psyexp,2022.2.4,120.0116644961109,
217,0,217,0,,,,,,,,,,,,,,,,,,,,,,,,,,,,,,,,,,,,,,,,,,,,,,,,,,,,,,,,,,,982.9947451031767,982.9947451031767,982.9947451031767,982.9947451031767,982.9947451031767,982.9947451031767,l,1,0.5008942148415372,983.5114391879179,984.5448659938993,,,,,,,,,,,,,,,,,,,,,,,,,,,,,,,,,,,,,,,571,2023-05-16_16h56.02.579,eb_02psyexp,2022.2.4,120.0116644961109,
218,0,218,0,,,,,,,,,,,,,,,,,,,,,,,,,,,,,,,,,,,,,,,,,,,,,,,,,,,,,,,,,,,984.5448659938993,984.5448659938993,984.5448659938993,984.5448659938993,984.5448659938993,984.5448659938993,s,1,0.48680569464340806,985.0449073472992,986.0783296255395,,,,,,,,,,,,,,,,,,,,,,,,,,,,,,,,,,,,,,,571,2023-05-16_16h56.02.579,eb_02psyexp,2022.2.4,120.0116644961109,
219,0,219,0,,,,,,,,,,,,,,,,,,,,,,,,,,,,,,,,,,,,,,,,,,,,,,,,,,,,,,,,,,,986.0783296255395,986.0783296255395,986.0783296255395,986.0783296255395,986.0783296255395,986.0783296255395,l,1,0.45740163582377136,986.5450389536563,987.5701356208883,,,,,,,,,,,,,,,,,,,,,,,,,,,,,,,,,,,,,,,571,2023-05-16_16h56.02.579,eb_02psyexp,2022.2.4,120.0116644961109,
220,0,220,0,,,,,,,,,,,,,,,,,,,,,,,,,,,,,,,,,,,,,,,,,,,,,,,,,,,,,,,,,,,987.5701356208883,987.5701356208883,987.5701356208883,987.5701356208883,987.5701356208883,987.5701356208883,l,1,0.501605372177437,988.0868303092429,989.1036007618532,,,,,,,,,,,,,,,,,,,,,,,,,,,,,,,,,,,,,,,571,2023-05-16_16h56.02.579,eb_02psyexp,2022.2.4,120.0116644961109,
221,0,221,0,,,,,,,,,,,,,,,,,,,,,,,,,,,,,,,,,,,,,,,,,,,,,,,,,,,,,,,,,,,989.1036007618532,989.1036007618532,989.1036007618532,989.1036007618532,989.1036007618532,989.1036007618532,l,1,0.5041771292453632,989.620301789022,990.637060771347,,,,,,,,,,,,,,,,,,,,,,,,,,,,,,,,,,,,,,,571,2023-05-16_16h56.02.579,eb_02psyexp,2022.2.4,120.0116644961109,
222,0,222,0,,,,,,,,,,,,,,,,,,,,,,,,,,,,,,,,,,,,,,,,,,,,,,,,,,,,,,,,,,,990.637060771347,990.637060771347,990.637060771347,990.637060771347,990.637060771347,990.637060771347,s,1,0.49072822800371796,991.1371012191521,992.162200904917,,,,,,,,,,,,,,,,,,,,,,,,,,,,,,,,,,,,,,,571,2023-05-16_16h56.02.579,eb_02psyexp,2022.2.4,120.0116644961109,
223,0,223,0,,,,,,,,,,,,,,,,,,,,,,,,,,,,,,,,,,,,,,,,,,,,,,,,,,,,,,,,,,,992.162200904917,992.162200904917,992.162200904917,992.162200904917,992.162200904917,992.162200904917,s,1,0.44563071546144783,992.6205794905545,993.6540259167086,,,,,,,,,,,,,,,,,,,,,,,,,,,,,,,,,,,,,,,571,2023-05-16_16h56.02.579,eb_02psyexp,2022.2.4,120.0116644961109,
224,0,224,0,,,,,,,,,,,,,,,,,,,,,,,,,,,,,,,,,,,,,,,,,,,,,,,,,,,,,,,,,,,993.6540259167086,993.6540259167086,993.6540259167086,993.6540259167086,993.6540259167086,993.6540259167086,s,1,0.4338437969563529,994.1040254640393,995.120791388792,,,,,,,,,,,,,,,,,,,,,,,,,,,,,,,,,,,,,,,571,2023-05-16_16h56.02.579,eb_02psyexp,2022.2.4,120.0116644961109,
225,0,225,0,,,,,,,,,,,,,,,,,,,,,,,,,,,,,,,,,,,,,,,,,,,,,,,,,,,,,,,,,,,995.120791388792,995.120791388792,995.120791388792,995.120791388792,995.120791388792,995.120791388792,l,1,0.455107580171898,995.587490152102,996.6209208822111,,,,,,,,,,,,,,,,,,,,,,,,,,,,,,,,,,,,,,,571,2023-05-16_16h56.02.579,eb_02psyexp,2022.2.4,120.0116644961109,
226,0,226,0,,,,,,,,,,,,,,,,,,,,,,,,,,,,,,,,,,,,,,,,,,,,,,,,,,,,,,,,,,,996.6209208822111,996.6209208822111,996.6209208822111,996.6209208822111,996.6209208822111,996.6209208822111,s,1,0.48298941215034574,997.1126218339195,998.1460453196196,,,,,,,,,,,,,,,,,,,,,,,,,,,,,,,,,,,,,,,571,2023-05-16_16h56.02.579,eb_02psyexp,2022.2.4,120.0116644961109,
227,0,227,0,,,,,,,,,,,,,,,,,,,,,,,,,,,,,,,,,,,,,,,,,,,,,,,,,,,,,,,,,,,998.1460453196196,998.1460453196196,998.1460453196196,998.1460453196196,998.1460453196196,998.1460453196196,s,1,0.45289260905701667,998.6127703438979,999.6378525224281,,,,,,,,,,,,,,,,,,,,,,,,,,,,,,,,,,,,,,,571,2023-05-16_16h56.02.579,eb_02psyexp,2022.2.4,120.0116644961109,
228,0,228,0,,,,,,,,,,,,,,,,,,,,,,,,,,,,,,,,,,,,,,,,,,,,,,,,,,,,,,,,,,,999.6378525224281,999.6378525224281,999.6378525224281,999.6378525224281,999.6378525224281,999.6378525224281,l,1,0.5291856565745547,1000.1795545305358,1001.2046557256253,,,,,,,,,,,,,,,,,,,,,,,,,,,,,,,,,,,,,,,571,2023-05-16_16h56.02.579,eb_02psyexp,2022.2.4,120.0116644961109,
229,0,229,0,,,,,,,,,,,,,,,,,,,,,,,,,,,,,,,,,,,,,,,,,,,,,,,,,,,,,,,,,,,1001.2046557256253,1001.2046557256253,1001.2046557256253,1001.2046557256253,1001.2046557256253,1001.2046557256253,s,1,0.3863477889681235,1001.6046789679676,1002.6381163387559,,,,,,,,,,,,,,,,,,,,,,,,,,,,,,,,,,,,,,,571,2023-05-16_16h56.02.579,eb_02psyexp,2022.2.4,120.0116644961109,
230,0,230,0,,,,,,,,,,,,,,,,,,,,,,,,,,,,,,,,,,,,,,,,,,,,,,,,,,,,,,,,,,,1002.6381163387559,1002.6381163387559,1002.6381163387559,1002.6381163387559,1002.6381163387559,1002.6381163387559,s,1,0.40092983306385577,1003.0548267232953,1004.071569405729,,,,,,,,,,,,,,,,,,,,,,,,,,,,,,,,,,,,,,,571,2023-05-16_16h56.02.579,eb_02psyexp,2022.2.4,120.0116644961109,
231,0,231,0,,,,,,,,,,,,,,,,,,,,,,,,,,,,,,,,,,,,,,,,,,,,,,,,,,,,,,,,,,,1004.071569405729,1004.071569405729,1004.071569405729,1004.071569405729,1004.071569405729,1004.071569405729,l,1,0.4955155597999692,1004.5799623291241,1005.5967056152876,,,,,,,,,,,,,,,,,,,,,,,,,,,,,,,,,,,,,,,571,2023-05-16_16h56.02.579,eb_02psyexp,2022.2.4,120.0116644961109,
232,0,232,0,,,,,,,,,,,,,,,,,,,,,,,,,,,,,,,,,,,,,,,,,,,,,,,,,,,,,,,,,,,1005.5967056152876,1005.5967056152876,1005.5967056152876,1005.5967056152876,1005.5967056152876,1005.5967056152876,s,1,0.7704161759465933,1006.3801192909013,1007.4135352303274,,,,,,,,,,,,,,,,,,,,,,,,,,,,,,,,,,,,,,,571,2023-05-16_16h56.02.579,eb_02psyexp,2022.2.4,120.0116644961109,
233,0,233,0,,,,,,,,,,,,,,,,,,,,,,,,,,,,,,,,,,,,,,,,,,,,,,,,,,,,,,,,,,,1007.4135352303274,1007.4135352303274,1007.4135352303274,1007.4135352303274,1007.4135352303274,1007.4135352303274,l,1,0.6016255960566923,1008.0302329371916,1009.0553365469677,,,,,,,,,,,,,,,,,,,,,,,,,,,,,,,,,,,,,,,571,2023-05-16_16h56.02.579,eb_02psyexp,2022.2.4,120.0116644961109,
234,0,234,0,,,,,,,,,,,,,,,,,,,,,,,,,,,,,,,,,,,,,,,,,,,,,,,,,,,,,,,,,,,1009.0553365469677,1009.0553365469677,1009.0553365469677,1009.0553365469677,1009.0553365469677,1009.0553365469677,l,1,0.6158541745971888,1009.6803888423601,1010.713815346593,,,,,,,,,,,,,,,,,,,,,,,,,,,,,,,,,,,,,,,571,2023-05-16_16h56.02.579,eb_02psyexp,2022.2.4,120.0116644961109,
235,0,235,0,,,,,,,,,,,,,,,,,,,,,,,,,,,,,,,,,,,,,,,,,,,,,,,,,,,,,,,,,,,1010.713815346593,1010.713815346593,1010.713815346593,1010.713815346593,1010.713815346593,1010.713815346593,l,1,0.5093782969051972,1011.2388525495771,1012.2639628000325,,,,,,,,,,,,,,,,,,,,,,,,,,,,,,,,,,,,,,,571,2023-05-16_16h56.02.579,eb_02psyexp,2022.2.4,120.0116644961109,
236,0,236,0,,,,,,,,,,,,,,,,,,,,,,,,,,,,,,,,,,,,,,,,,,,,,,,,,,,,,,,,,,,1012.2639628000325,1012.2639628000325,1012.2639628000325,1012.2639628000325,1012.2639628000325,1012.2639628000325,l,1,0.46328226651530713,1012.7389917020919,1013.755747665884,,,,,,,,,,,,,,,,,,,,,,,,,,,,,,,,,,,,,,,571,2023-05-16_16h56.02.579,eb_02psyexp,2022.2.4,120.0116644961109,
237,0,237,0,,,,,,,,,,,,,,,,,,,,,,,,,,,,,,,,,,,,,,,,,,,,,,,,,,,,,,,,,,,1013.755747665884,1013.755747665884,1013.755747665884,1013.755747665884,1013.755747665884,1013.755747665884,s,1,0.4585513804340735,1014.230763286585,1015.2642238998087,,,,,,,,,,,,,,,,,,,,,,,,,,,,,,,,,,,,,,,571,2023-05-16_16h56.02.579,eb_02psyexp,2022.2.4,120.0116644961109,
238,0,238,0,,,,,,,,,,,,,,,,,,,,,,,,,,,,,,,,,,,,,,,,,,,,,,,,,,,,,,,,,,,1015.2642238998087,1015.2642238998087,1015.2642238998087,1015.2642238998087,1015.2642238998087,1015.2642238998087,l,1,0.4860562023241073,1015.7642456329195,1016.7810263483552,,,,,,,,,,,,,,,,,,,,,,,,,,,,,,,,,,,,,,,571,2023-05-16_16h56.02.579,eb_02psyexp,2022.2.4,120.0116644961109,
239,0,239,0,,,,,,,,,,,,,,,,,,,,,,,,,,,,,,,,,,,,,,,,,,,,,,,,,,,,,,,,,,,1016.7810263483552,1016.7810263483552,1016.7810263483552,1016.7810263483552,1016.7810263483552,1016.7810263483552,s,1,0.4333004680229351,1017.2227211121935,1018.3144975262694,,,,,,,,,,,,,,,,,,,,,,,,,,,,,,,,,,,,,,,571,2023-05-16_16h56.02.579,eb_02psyexp,2022.2.4,120.0116644961109,
240,0,240,0,,,,,,,,,,,,,,,,,,,,,,,,,,,,,,,,,,,,,,,,,,,,,,,,,,,,,,,,,,,1018.3144975262694,1018.3144975262694,1018.3144975262694,1018.3144975262694,1018.3144975262694,1018.3144975262694,l,1,0.4518799042562023,1018.781182706356,1019.7979404813377,,,,,,,,,,,,,,,,,,,,,,,,,,,,,,,,,,,,,,,571,2023-05-16_16h56.02.579,eb_02psyexp,2022.2.4,120.0116644961109,
241,0,241,0,,,,,,,,,,,,,,,,,,,,,,,,,,,,,,,,,,,,,,,,,,,,,,,,,,,,,,,,,,,1019.7979404813377,1019.7979404813377,1019.7979404813377,1019.7979404813377,1019.7979404813377,1019.7979404813377,l,1,0.6644241629401222,1020.4730043979362,1021.5064203373622,,,,,,,,,,,,,,,,,,,,,,,,,,,,,,,,,,,,,,,571,2023-05-16_16h56.02.579,eb_02psyexp,2022.2.4,120.0116644961109,
242,0,242,0,,,,,,,,,,,,,,,,,,,,,,,,,,,,,,,,,,,,,,,,,,,,,,,,,,,,,,,,,,,1021.5064203373622,1021.5064203373622,1021.5064203373622,1021.5064203373622,1021.5064203373622,1021.5064203373622,s,1,0.46800288965459913,1021.9897869244451,1023.006536247558,,,,,,,,,,,,,,,,,,,,,,,,,,,,,,,,,,,,,,,571,2023-05-16_16h56.02.579,eb_02psyexp,2022.2.4,120.0116644961109,
243,0,243,0,,,,,,,,,,,,,,,,,,,,,,,,,,,,,,,,,,,,,,,,,,,,,,,,,,,,,,,,,,,1023.006536247558,1023.006536247558,1023.006536247558,1023.006536247558,1023.006536247558,1023.006536247558,l,1,0.4639119243947789,1023.4815980512649,1024.498348581721,,,,,,,,,,,,,,,,,,,,,,,,,,,,,,,,,,,,,,,571,2023-05-16_16h56.02.579,eb_02psyexp,2022.2.4,120.0116644961109,
244,0,244,0,,,,,,,,,,,,,,,,,,,,,,,,,,,,,,,,,,,,,,,,,,,,,,,,,,,,,,,,,,,1024.498348581721,1024.498348581721,1024.498348581721,1024.498348581721,1024.498348581721,1024.498348581721,s,1,0.4921423924388364,1025.0067185646622,1026.0401505021146,,,,,,,,,,,,,,,,,,,,,,,,,,,,,,,,,,,,,,,571,2023-05-16_16h56.02.579,eb_02psyexp,2022.2.4,120.0116644961109,
245,0,245,0,,,,,,,,,,,,,,,,,,,,,,,,,,,,,,,,,,,,,,,,,,,,,,,,,,,,,,,,,,,1026.0401505021146,1026.0401505021146,1026.0401505021146,1026.0401505021146,1026.0401505021146,1026.0401505021146,l,1,0.4463572670938447,1026.4985130897257,1027.5152769015403,,,,,,,,,,,,,,,,,,,,,,,,,,,,,,,,,,,,,,,571,2023-05-16_16h56.02.579,eb_02psyexp,2022.2.4,120.0116644961109,
246,0,246,0,,,,,,,,,,,,,,,,,,,,,,,,,,,,,,,,,,,,,,,,,,,,,,,,,,,,,,,,,,,1027.5152769015403,1027.5152769015403,1027.5152769015403,1027.5152769015403,1027.5152769015403,1027.5152769015403,s,1,0.45925680245272815,1027.9903094258625,1029.023741363315,,,,,,,,,,,,,,,,,,,,,,,,,,,,,,,,,,,,,,,571,2023-05-16_16h56.02.579,eb_02psyexp,2022.2.4,120.0116644961109,
247,0,247,0,,,,,,,,,,,,,,,,,,,,,,,,,,,,,,,,,,,,,,,,,,,,,,,,,,,,,,,,,,,1029.023741363315,1029.023741363315,1029.023741363315,1029.023741363315,1029.023741363315,1029.023741363315,l,1,0.42982346448116004,1029.4654518233147,1030.4988683664706,,,,,,,,,,,,,,,,,,,,,,,,,,,,,,,,,,,,,,,571,2023-05-16_16h56.02.579,eb_02psyexp,2022.2.4,120.0116644961109,
248,0,248,0,,,,,,,,,,,,,,,,,,,,,,,,,,,,,,,,,,,,,,,,,,,,,,,,,,,,,,,,,,,1030.4988683664706,1030.4988683664706,1030.4988683664706,1030.4988683664706,1030.4988683664706,1030.4988683664706,s,1,0.5947301477426663,1031.1072549510282,1032.1406868884806,,,,,,,,,,,,,,,,,,,,,,,,,,,,,,,,,,,,,,,571,2023-05-16_16h56.02.579,eb_02psyexp,2022.2.4,120.0116644961109,
249,0,249,0,,,,,,,,,,,,,,,,,,,,,,,,,,,,,,,,,,,,,,,,,,,,,,,,,,,,,,,,,,,1032.1406868884806,1032.1406868884806,1032.1406868884806,1032.1406868884806,1032.1406868884806,1032.1406868884806,l,1,0.4249365220312029,1032.5740590598434,1033.6074743955396,,,,,,,,,,,,,,,,,,,,,,,,,,,,,,,,,,,,,,,571,2023-05-16_16h56.02.579,eb_02psyexp,2022.2.4,120.0116644961109,
250,0,250,0,,,,,,,,,,,,,,,,,,,,,,,,,,,,,,,,,,,,,,,,,,,,,,,,,,,,,,,,,,,1033.6074743955396,1033.6074743955396,1033.6074743955396,1033.6074743955396,1033.6074743955396,1033.6074743955396,s,1,0.4222084069624543,1034.0408429446397,1035.065934782382,,,,,,,,,,,,,,,,,,,,,,,,,,,,,,,,,,,,,,,571,2023-05-16_16h56.02.579,eb_02psyexp,2022.2.4,120.0116644961109,
251,0,251,0,,,,,,,,,,,,,,,,,,,,,,,,,,,,,,,,,,,,,,,,,,,,,,,,,,,,,,,,,,,1035.065934782382,1035.065934782382,1035.065934782382,1035.065934782382,1035.065934782382,1035.065934782382,s,1,0.4917753435438499,1035.5659767393954,1036.5910571068525,,,,,,,,,,,,,,,,,,,,,,,,,,,,,,,,,,,,,,,571,2023-05-16_16h56.02.579,eb_02psyexp,2022.2.4,120.0116644961109,
252,0,252,0,,,,,,,,,,,,,,,,,,,,,,,,,,,,,,,,,,,,,,,,,,,,,,,,,,,,,,,,,,,1036.5910571068525,1036.5910571068525,1036.5910571068525,1036.5910571068525,1036.5910571068525,1036.5910571068525,l,1,0.48667288082651794,1037.0911011769203,1038.1162008626852,,,,,,,,,,,,,,,,,,,,,,,,,,,,,,,,,,,,,,,571,2023-05-16_16h56.02.579,eb_02psyexp,2022.2.4,120.0116644961109,
253,0,253,0,,,,,,,,,,,,,,,,,,,,,,,,,,,,,,,,,,,,,,,,,,,,,,,,,,,,,,,,,,,1038.1162008626852,1038.1162008626852,1038.1162008626852,1038.1162008626852,1038.1162008626852,1038.1162008626852,s,1,0.4815864160191268,1038.6078993995907,1039.6330036130967,,,,,,,,,,,,,,,,,,,,,,,,,,,,,,,,,,,,,,,571,2023-05-16_16h56.02.579,eb_02psyexp,2022.2.4,120.0116644961109,
254,0,254,0,,,,,,,,,,,,,,,,,,,,,,,,,,,,,,,,,,,,,,,,,,,,,,,,,,,,,,,,,,,1039.6330036130967,1039.6330036130967,1039.6330036130967,1039.6330036130967,1039.6330036130967,1039.6330036130967,l,1,0.4687744169496,1040.1163671816466,1041.1414774322184,,,,,,,,,,,,,,,,,,,,,,,,,,,,,,,,,,,,,,,571,2023-05-16_16h56.02.579,eb_02psyexp,2022.2.4,120.0116644961109,
255,0,255,0,,,,,,,,,,,,,,,,,,,,,,,,,,,,,,,,,,,,,,,,,,,,,,,,,,,,,,,,,,,1041.1414774322184,1041.1414774322184,1041.1414774322184,1041.1414774322184,1041.1414774322184,1041.1414774322184,s,1,0.3763390654930845,1041.5331533304416,1042.5582506014034,,,,,,,,,,,,,,,,,,,,,,,,,,,,,,,,,,,,,,,571,2023-05-16_16h56.02.579,eb_02psyexp,2022.2.4,120.0116644961109,
256,0,256,0,,,,,,,,,,,,,,,,,,,,,,,,,,,,,,,,,,,,,,,,,,,,,,,,,,,,,,,,,,,1042.5582506014034,1042.5582506014034,1042.5582506014034,1042.5582506014034,1042.5582506014034,1042.5582506014034,s,1,0.47160334966611117,1043.041641638265,1044.058383415104,,,,,,,,,,,,,,,,,,,,,,,,,,,,,,,,,,,,,,,571,2023-05-16_16h56.02.579,eb_02psyexp,2022.2.4,120.0116644961109,
257,0,257,0,,,,,,,,,,,,,,,,,,,,,,,,,,,,,,,,,,,,,,,,,,,,,,,,,,,,,,,,,,,1044.058383415104,1044.058383415104,1044.058383415104,1044.058383415104,1044.058383415104,1044.058383415104,l,1,0.5305104737635702,1044.600087838131,1045.6252011071192,,,,,,,,,,,,,,,,,,,,,,,,,,,,,,,,,,,,,,,571,2023-05-16_16h56.02.579,eb_02psyexp,2022.2.4,120.0116644961109,
258,0,258,0,,,,,,,,,,,,,,,,,,,,,,,,,,,,,,,,,,,,,,,,,,,,,,,,,,,,,,,,,,,1045.6252011071192,1045.6252011071192,1045.6252011071192,1045.6252011071192,1045.6252011071192,1045.6252011071192,s,1,0.40370201831683517,1046.0418973047053,1047.058643005672,,,,,,,,,,,,,,,,,,,,,,,,,,,,,,,,,,,,,,,571,2023-05-16_16h56.02.579,eb_02psyexp,2022.2.4,120.0116644961109,
259,0,259,0,,,,,,,,,,,,,,,,,,,,,,,,,,,,,,,,,,,,,,,,,,,,,,,,,,,,,,,,,,,1047.058643005672,1047.058643005672,1047.058643005672,1047.058643005672,1047.058643005672,1047.058643005672,l,1,0.47427713207434863,1047.5420400794828,1048.5670914694201,,,,,,,,,,,,,,,,,,,,,,,,,,,,,,,,,,,,,,,571,2023-05-16_16h56.02.579,eb_02psyexp,2022.2.4,120.0116644961109,
260,0,260,0,,,,,,,,,,,,,,,,,,,,,,,,,,,,,,,,,,,,,,,,,,,,,,,,,,,,,,,,,,,1048.5670914694201,1048.5670914694201,1048.5670914694201,1048.5670914694201,1048.5670914694201,1048.5670914694201,s,1,0.42986572335939854,1049.008805853431,1050.033905237331,,,,,,,,,,,,,,,,,,,,,,,,,,,,,,,,,,,,,,,571,2023-05-16_16h56.02.579,eb_02psyexp,2022.2.4,120.0116644961109,
261,0,261,0,,,,,,,,,,,,,,,,,,,,,,,,,,,,,,,,,,,,,,,,,,,,,,,,,,,,,,,,,,,1050.033905237331,1050.033905237331,1050.033905237331,1050.033905237331,1050.033905237331,1050.033905237331,s,1,0.4670991525053978,1050.5172857095022,1051.5423799620476,,,,,,,,,,,,,,,,,,,,,,,,,,,,,,,,,,,,,,,571,2023-05-16_16h56.02.579,eb_02psyexp,2022.2.4,120.0116644961109,
262,0,262,0,,,,,,,,,,,,,,,,,,,,,,,,,,,,,,,,,,,,,,,,,,,,,,,,,,,,,,,,,,,1051.5423799620476,1051.5423799620476,1051.5423799620476,1051.5423799620476,1051.5423799620476,1051.5423799620476,l,1,0.4786385544575751,1052.0340872525703,1053.0591866364703,,,,,,,,,,,,,,,,,,,,,,,,,,,,,,,,,,,,,,,571,2023-05-16_16h56.02.579,eb_02psyexp,2022.2.4,120.0116644961109,
263,0,263,0,,,,,,,,,,,,,,,,,,,,,,,,,,,,,,,,,,,,,,,,,,,,,,,,,,,,,,,,,,,1053.0591866364703,1053.0591866364703,1053.0591866364703,1053.0591866364703,1053.0591866364703,1053.0591866364703,s,1,0.4178871305193752,1053.492536772741,1054.5259599565761,,,,,,,,,,,,,,,,,,,,,,,,,,,,,,,,,,,,,,,571,2023-05-16_16h56.02.579,eb_02psyexp,2022.2.4,120.0116644961109,
264,0,264,0,,,,,,,,,,,,,,,,,,,,,,,,,,,,,,,,,,,,,,,,,,,,,,,,,,,,,,,,,,,1054.5259599565761,1054.5259599565761,1054.5259599565761,1054.5259599565761,1054.5259599565761,1054.5259599565761,s,1,0.46312138077337295,1055.0009994234424,1056.0261099757627,,,,,,,,,,,,,,,,,,,,,,,,,,,,,,,,,,,,,,,571,2023-05-16_16h56.02.579,eb_02psyexp,2022.2.4,120.0116644961109,
265,0,265,0,,,,,,,,,,,,,,,,,,,,,,,,,,,,,,,,,,,,,,,,,,,,,,,,,,,,,,,,,,,1056.0261099757627,1056.0261099757627,1056.0261099757627,1056.0261099757627,1056.0261099757627,1056.0261099757627,s,1,0.6830032971920446,1056.7178118330194,1057.7429085003678,,,,,,,,,,,,,,,,,,,,,,,,,,,,,,,,,,,,,,,571,2023-05-16_16h56.02.579,eb_02psyexp,2022.2.4,120.0116644961109,
266,0,266,0,,,,,,,,,,,,,,,,,,,,,,,,,,,,,,,,,,,,,,,,,,,,,,,,,,,,,,,,,,,1057.7429085003678,1057.7429085003678,1057.7429085003678,1057.7429085003678,1057.7429085003678,1057.7429085003678,s,1,0.4222397992853075,1058.1762444496853,1059.193035428063,,,,,,,,,,,,,,,,,,,,,,,,,,,,,,,,,,,,,,,571,2023-05-16_16h56.02.579,eb_02psyexp,2022.2.4,120.0116644961109,
267,0,267,0,,,,,,,,,,,,,,,,,,,,,,,,,,,,,,,,,,,,,,,,,,,,,,,,,,,,,,,,,,,1059.193035428063,1059.193035428063,1059.193035428063,1059.193035428063,1059.193035428063,1059.193035428063,l,1,0.47615674836561084,1059.6847372853663,1060.7098270100541,,,,,,,,,,,,,,,,,,,,,,,,,,,,,,,,,,,,,,,571,2023-05-16_16h56.02.579,eb_02psyexp,2022.2.4,120.0116644961109,
268,0,268,0,,,,,,,,,,,,,,,,,,,,,,,,,,,,,,,,,,,,,,,,,,,,,,,,,,,,,,,,,,,1060.7098270100541,1060.7098270100541,1060.7098270100541,1060.7098270100541,1060.7098270100541,1060.7098270100541,l,1,0.5263636662857607,1061.2515537699219,1062.2766250818968,,,,,,,,,,,,,,,,,,,,,,,,,,,,,,,,,,,,,,,571,2023-05-16_16h56.02.579,eb_02psyexp,2022.2.4,120.0116644961109,
269,0,269,0,,,,,,,,,,,,,,,,,,,,,,,,,,,,,,,,,,,,,,,,,,,,,,,,,,,,,,,,,,,1062.2766250818968,1062.2766250818968,1062.2766250818968,1062.2766250818968,1062.2766250818968,1062.2766250818968,l,1,0.5115802884101868,1062.8016731513198,1063.8267779685557,,,,,,,,,,,,,,,,,,,,,,,,,,,,,,,,,,,,,,,571,2023-05-16_16h56.02.579,eb_02psyexp,2022.2.4,120.0116644961109,
270,0,270,0,,,,,,,,,,,,,,,,,,,,,,,,,,,,,,,,,,,,,,,,,,,,,,,,,,,,,,,,,,,1063.8267779685557,1063.8267779685557,1063.8267779685557,1063.8267779685557,1063.8267779685557,1063.8267779685557,s,1,0.48148107051383704,1064.3184704685118,1065.3519018023508,,,,,,,,,,,,,,,,,,,,,,,,,,,,,,,,,,,,,,,571,2023-05-16_16h56.02.579,eb_02psyexp,2022.2.4,120.0116644961109,
271,0,271,0,,,,,,,,,,,,,,,,,,,,,,,,,,,,,,,,,,,,,,,,,,,,,,,,,,,,,,,,,,,1065.3519018023508,1065.3519018023508,1065.3519018023508,1065.3519018023508,1065.3519018023508,1065.3519018023508,s,1,0.4283963203197345,1065.7935989808757,1066.8270173352212,,,,,,,,,,,,,,,,,,,,,,,,,,,,,,,,,,,,,,,571,2023-05-16_16h56.02.579,eb_02psyexp,2022.2.4,120.0116644961109,
272,0,272,0,,,,,,,,,,,,,,,,,,,,,,,,,,,,,,,,,,,,,,,,,,,,,,,,,,,,,,,,,,,1066.8270173352212,1066.8270173352212,1066.8270173352212,1066.8270173352212,1066.8270173352212,1066.8270173352212,l,1,0.4733075916301459,1067.3104086739477,1068.3438252171036,,,,,,,,,,,,,,,,,,,,,,,,,,,,,,,,,,,,,,,571,2023-05-16_16h56.02.579,eb_02psyexp,2022.2.4,120.0116644961109,
273,0,273,0,,,,,,,,,,,,,,,,,,,,,,,,,,,,,,,,,,,,,,,,,,,,,,,,,,,,,,,,,,,1068.3438252171036,1068.3438252171036,1068.3438252171036,1068.3438252171036,1068.3438252171036,1068.3438252171036,s,1,0.500539239961654,1068.8605410348391,1069.8939666334772,,,,,,,,,,,,,,,,,,,,,,,,,,,,,,,,,,,,,,,571,2023-05-16_16h56.02.579,eb_02psyexp,2022.2.4,120.0116644961109,
274,0,274,0,,,,,,,,,,,,,,,,,,,,,,,,,,,,,,,,,,,,,,,,,,,,,,,,,,,,,,,,,,,1069.8939666334772,1069.8939666334772,1069.8939666334772,1069.8939666334772,1069.8939666334772,1069.8939666334772,s,0,0.7744633731199428,1070.6773884590948,1071.7107890042244,,,,,,,,,,,,,,,,,,,,,,,,,,,,,,,,,,,,,,,571,2023-05-16_16h56.02.579,eb_02psyexp,2022.2.4,120.0116644961109,
275,0,275,0,,,,,,,,,,,,,,,,,,,,,,,,,,,,,,,,,,,,,,,,,,,,,,,,,,,,,,,,,,,1071.7107890042244,1071.7107890042244,1071.7107890042244,1071.7107890042244,1071.7107890042244,1071.7107890042244,s,1,0.5256250406382605,1072.2525003696792,1073.277600357309,,,,,,,,,,,,,,,,,,,,,,,,,,,,,,,,,,,,,,,571,2023-05-16_16h56.02.579,eb_02psyexp,2022.2.4,120.0116644961109,
