trials.thisRepN,trials.thisTrialN,trials.thisN,trials.thisIndex,image_loop.thisRepN,image_loop.thisTrialN,image_loop.thisN,image_loop.thisIndex,break_loop.thisRepN,break_loop.thisTrialN,break_loop.thisN,break_loop.thisIndex,test_trials.thisRepN,test_trials.thisTrialN,test_trials.thisN,test_trials.thisIndex,distance matrix,tools,welcome_text.started,instructions_0_keypress.started,instructions_0_keypress.keys,instructions_0_keypress.rt,consent_image_0.started,consent0_key_resp.started,consent0_text.started,consent0_key_resp.keys,consent0_key_resp.rt,consent_image_1.started,consent1_key_resp.started,consent1_text.started,consent1_key_resp.keys,consent1_key_resp.rt,consent2_text.started,consent_image_2.started,consent2_key_resp.started,consent2_key_resp.keys,consent2_key_resp.rt,agree_button.started,disagree_button.started,consent_image_3.started,agree_button.numClicks,agree_button.timesOn,agree_button.timesOff,disagree_button.numClicks,disagree_button.timesOn,disagree_button.timesOff,instructions_text1.started,instructions1_key_resp.started,instr1_cnt_text.started,instructions1_key_resp.keys,instructions1_key_resp.rt,instructions_text2.started,instr2_cnt_text.started,instructions2_key_resp.started,instructions2_key_resp.keys,instructions2_key_resp.rt,instructions_text3.started,instructions3_key_resp.started,instr3_cnt_text.started,instructions3_key_resp.keys,instructions3_key_resp.rt,text_countdown.started,image.started,small_large_keyresp.started,task_question_text.started,smalleroption_text.started,largeroption_text.started,accuracy_score_text.started,small_large_keyresp.keys,small_large_keyresp.corr,small_large_keyresp.rt,fb_2.started,fb_2.stopped,break_text.started,break_key_resp.started,break_key_resp.keys,break_key_resp.rt,reveal_seq_text.started,start_test_text.started,continue_to_test.started,continue_to_test.keys,continue_to_test.rt,test_structure_info.started,start_test_text_2.started,continue_to_test_2.started,continue_to_test_2.keys,continue_to_test_2.rt,test_cntdown_text.started,parent index,left child index,right child index,left distance,right distance,parent_image.started,top_image_text.started,left_child_image.started,right_child_image.started,path_resp.started,child_choice_text.started,left_choice_text.started,right_choice_text.started,path_resp.keys,path_resp.rt,graph.started,debrief_text.started,debriefing_title.started,demo_scr_adv.started,demo_scr_adv_keypress.started,demo_scr_adv_keypress.keys,demo_scr_adv_keypress.rt,text_countdown_2.started,participant,date,expName,psychopyVersion,frameRate,
,,,,,,,,,,,,,,,,"[[0. 1. 1. 2. 2. 3. 4. 5. 5. 6. 6. 7.]
 [1. 0. 2. 1. 1. 2. 3. 4. 4. 5. 5. 6.]
 [1. 2. 0. 1. 1. 2. 3. 4. 4. 5. 5. 6.]
 [2. 1. 1. 0. 1. 1. 2. 3. 3. 4. 4. 5.]
 [2. 1. 1. 1. 0. 1. 2. 3. 3. 4. 4. 5.]
 [3. 2. 2. 1. 1. 0. 1. 2. 2. 3. 3. 4.]
 [4. 3. 3. 2. 2. 1. 0. 1. 1. 2. 2. 3.]
 [5. 4. 4. 3. 3. 2. 1. 0. 1. 1. 1. 2.]
 [5. 4. 4. 3. 3. 2. 1. 1. 0. 1. 1. 2.]
 [6. 5. 5. 4. 4. 3. 2. 1. 1. 0. 2. 1.]
 [6. 5. 5. 4. 4. 3. 2. 1. 1. 2. 0. 1.]
 [7. 6. 6. 5. 5. 4. 3. 2. 2. 1. 1. 0.]]",[ 4  3  1 11  8  9  0  7 10  5  6  2],18.216981621808372,18.216981621808372,return,934.7123391084606,,,,,,,,,,,,,,,,,,,,,,,,,,,,,,,,,,,,,,,,,,,,,,,,,,,,,,,,,,,,,,,,,,,,,,,,,,,,,,,,,,,,,,,,,,572,2023-05-16_16h58.49.680,eb_02psyexp,2022.2.4,99.66661058375664,
,,,,,,,,,,,,,,,,,,,,,,952.9406783906743,952.9406783906743,952.9406783906743,space,8.596639181138016,,,,,,,,,,,,,,,,,,,,,,,,,,,,,,,,,,,,,,,,,,,,,,,,,,,,,,,,,,,,,,,,,,,,,,,,,,,,,,,,,,,,,572,2023-05-16_16h58.49.680,eb_02psyexp,2022.2.4,99.66661058375664,
,,,,,,,,,,,,,,,,,,,,,,,,,,,961.5558902346529,961.5558902346529,961.5558902346529,space,1.1894399349112064,,,,,,,,,,,,,,,,,,,,,,,,,,,,,,,,,,,,,,,,,,,,,,,,,,,,,,,,,,,,,,,,,,,,,,,,,,,,,,,,572,2023-05-16_16h58.49.680,eb_02psyexp,2022.2.4,99.66661058375664,
,,,,,,,,,,,,,,,,,,,,,,,,,,,,,,,,962.7566651916131,962.7566651916131,962.7566651916131,space,0.38066119397990406,,,,,,,,,,,,,,,,,,,,,,,,,,,,,,,,,,,,,,,,,,,,,,,,,,,,,,,,,,,,,,,,,,,,,,,,,,,572,2023-05-16_16h58.49.680,eb_02psyexp,2022.2.4,99.66661058375664,
,,,,,,,,,,,,,,,,,,,,,,,,,,,,,,,,,,,,,963.1669423517305,963.1669423517305,963.1669423517305,1,[2.9015321051701903],[2.901538142003119],0,,,966.0587891545147,968.050098129781,968.050098129781,space,2.190280271577649,,,,,,,,,,,,,,,,,,,,,,,,,,,,,,,,,,,,,,,,,,,,,,,,,,,,,,,,,,,,,572,2023-05-16_16h58.49.680,eb_02psyexp,2022.2.4,99.66661058375664,
,,,,,,,,,,,,,,,,,,,,,,,,,,,,,,,,,,,,,,,,,,,,,,,,,,,970.2518254079623,973.2437688615173,973.2437688615173,space,11.01968046312686,,,,,,,,,,,,,,,,,,,,,,,,,,,,,,,,,,,,,,,,,,,,,,,,,,,,,,,,572,2023-05-16_16h58.49.680,eb_02psyexp,2022.2.4,99.66661058375664,
,,,,,,,,,,,,,,,,,,,,,,,,,,,,,,,,,,,,,,,,,,,,,,,,,,,,,,,,984.2809127069777,987.2728374461876,987.2728374461876,space,8.502656703698449,,,,,,,,,,,,,,,,,,,,,,,,,,,,,,,,,,,,,,,,,,,,,,,,,,,572,2023-05-16_16h58.49.680,eb_02psyexp,2022.2.4,99.66661058375664,
0,0,0,0,,,,,,,,,,,,,,,,,,,,,,,,,,,,,,,,,,,,,,,,,,,,,,,,,,,,,,,,,,995.7979923076928,1000.8415717916796,1000.8415717916796,1000.8415717916796,1000.8415717916796,1000.8415717916796,1000.8415717916796,s,1,1.508968585752882,1002.3622502910439,1003.3829704450909,,,,,,,,,,,,,,,,,,,,,,,,,,,,,,,,,,,,,,,572,2023-05-16_16h58.49.680,eb_02psyexp,2022.2.4,99.66661058375664,
1,0,1,0,,,,,,,,,,,,,,,,,,,,,,,,,,,,,,,,,,,,,,,,,,,,,,,,,,,,,,,,,,,1003.3829704450909,1003.3829704450909,1003.3829704450909,1003.3829704450909,1003.3829704450909,1003.3829704450909,l,1,0.9355806949315593,1004.3335415057372,1005.3541831800248,,,,,,,,,,,,,,,,,,,,,,,,,,,,,,,,,,,,,,,572,2023-05-16_16h58.49.680,eb_02psyexp,2022.2.4,99.66661058375664,
2,0,2,0,,,,,,,,,,,,,,,,,,,,,,,,,,,,,,,,,,,,,,,,,,,,,,,,,,,,,,,,,,,1005.3541831800248,1005.3541831800248,1005.3541831800248,1005.3541831800248,1005.3541831800248,1005.3541831800248,l,1,1.2523815719177946,1006.6249991698423,1007.6457461881218,,,,,,,,,,,,,,,,,,,,,,,,,,,,,,,,,,,,,,,572,2023-05-16_16h58.49.680,eb_02psyexp,2022.2.4,99.66661058375664,
3,0,3,0,,,,,,,,,,,,,,,,,,,,,,,,,,,,,,,,,,,,,,,,,,,,,,,,,,,,,,,,,,,1007.6457461881218,1007.6457461881218,1007.6457461881218,1007.6457461881218,1007.6457461881218,1007.6457461881218,l,1,0.9048015543958172,1008.5662471422693,1009.5869615612319,,,,,,,,,,,,,,,,,,,,,,,,,,,,,,,,,,,,,,,572,2023-05-16_16h58.49.680,eb_02psyexp,2022.2.4,99.66661058375664,
4,0,4,0,,,,,,,,,,,,,,,,,,,,,,,,,,,,,,,,,,,,,,,,,,,,,,,,,,,,,,,,,,,1009.5869615612319,1009.5869615612319,1009.5869615612319,1009.5869615612319,1009.5869615612319,1009.5869615612319,l,1,0.6836224751314148,1010.2873589100782,1011.3180327067384,,,,,,,,,,,,,,,,,,,,,,,,,,,,,,,,,,,,,,,572,2023-05-16_16h58.49.680,eb_02psyexp,2022.2.4,99.66661058375664,
5,0,5,0,,,,,,,,,,,,,,,,,,,,,,,,,,,,,,,,,,,,,,,,,,,,,,,,,,,,,,,,,,,1011.3180327067384,1011.3180327067384,1011.3180327067384,1011.3180327067384,1011.3180327067384,1011.3180327067384,s,1,0.8165707346051931,1012.1485898704268,1013.1692894989392,,,,,,,,,,,,,,,,,,,,,,,,,,,,,,,,,,,,,,,572,2023-05-16_16h58.49.680,eb_02psyexp,2022.2.4,99.66661058375664,
6,0,6,0,,,,,,,,,,,,,,,,,,,,,,,,,,,,,,,,,,,,,,,,,,,,,,,,,,,,,,,,,,,1013.1692894989392,1013.1692894989392,1013.1692894989392,1013.1692894989392,1013.1692894989392,1013.1692894989392,l,1,0.6453285999596119,1013.8296612876002,,,,,,,,,,,,,,,,,,,,,,,,,,,,,,,,,,,,,,,,572,2023-05-16_16h58.49.680,eb_02psyexp,2022.2.4,99.66661058375664,
7,0,7,0,,,,,,,,,,,,,,,,,,,,,,,,,,,,,,,,,,,,,,,,,,,,,,,,,,,,,,,,,,,1014.860634212615,1014.860634212615,1014.860634212615,1014.860634212615,1014.860634212615,1014.860634212615,s,1,0.6889853562461212,1015.5607671452453,1016.5814344763057,,,,,,,,,,,,,,,,,,,,,,,,,,,,,,,,,,,,,,,572,2023-05-16_16h58.49.680,eb_02psyexp,2022.2.4,99.66661058375664,
8,0,8,0,,,,,,,,,,,,,,,,,,,,,,,,,,,,,,,,,,,,,,,,,,,,,,,,,,,,,,,,,,,1016.5814344763057,1016.5814344763057,1016.5814344763057,1016.5814344763057,1016.5814344763057,1016.5814344763057,s,1,0.8962080256314948,1017.4920337052317,1018.5126871514367,,,,,,,,,,,,,,,,,,,,,,,,,,,,,,,,,,,,,,,572,2023-05-16_16h58.49.680,eb_02psyexp,2022.2.4,99.66661058375664,
9,0,9,0,,,,,,,,,,,,,,,,,,,,,,,,,,,,,,,,,,,,,,,,,,,,,,,,,,,,,,,,,,,1018.5126871514367,1018.5126871514367,1018.5126871514367,1018.5126871514367,1018.5126871514367,1018.5126871514367,l,1,0.5809444454498589,1019.1130581793841,1020.1338118382264,,,,,,,,,,,,,,,,,,,,,,,,,,,,,,,,,,,,,,,572,2023-05-16_16h58.49.680,eb_02psyexp,2022.2.4,99.66661058375664,
10,0,10,0,,,,,,,,,,,,,,,,,,,,,,,,,,,,,,,,,,,,,,,,,,,,,,,,,,,,,,,,,,,1020.1338118382264,1020.1338118382264,1020.1338118382264,1020.1338118382264,1020.1338118382264,1020.1338118382264,l,1,0.5518489966634661,1020.7040937433485,,,,,,,,,,,,,,,,,,,,,,,,,,,,,,,,,,,,,,,,572,2023-05-16_16h58.49.680,eb_02psyexp,2022.2.4,99.66661058375664,
11,0,11,0,,,,,,,,,,,,,,,,,,,,,,,,,,,,,,,,,,,,,,,,,,,,,,,,,,,,,,,,,,,1021.7250831432175,1021.7250831432175,1021.7250831432175,1021.7250831432175,1021.7250831432175,1021.7250831432175,l,1,0.5845638694008812,1022.3254577933112,1023.3458703671349,,,,,,,,,,,,,,,,,,,,,,,,,,,,,,,,,,,,,,,572,2023-05-16_16h58.49.680,eb_02psyexp,2022.2.4,99.66661058375664,
12,0,12,0,,,,,,,,,,,,,,,,,,,,,,,,,,,,,,,,,,,,,,,,,,,,,,,,,,,,,,,,,,,1023.3458703671349,1023.3458703671349,1023.3458703671349,1023.3458703671349,1023.3458703671349,1023.3458703671349,l,1,0.49978827021550387,1023.8561324954499,1024.8867872759001,,,,,,,,,,,,,,,,,,,,,,,,,,,,,,,,,,,,,,,572,2023-05-16_16h58.49.680,eb_02psyexp,2022.2.4,99.66661058375664,
13,0,13,0,,,,,,,,,,,,,,,,,,,,,,,,,,,,,,,,,,,,,,,,,,,,,,,,,,,,,,,,,,,1024.8867872759001,1024.8867872759001,1024.8867872759001,1024.8867872759001,1024.8867872759001,1024.8867872759001,s,1,0.5028710137121379,1025.4071255958406,1026.4278475609608,,,,,,,,,,,,,,,,,,,,,,,,,,,,,,,,,,,,,,,572,2023-05-16_16h58.49.680,eb_02psyexp,2022.2.4,99.66661058375664,
14,0,14,0,,,,,,,,,,,,,,,,,,,,,,,,,,,,,,,,,,,,,,,,,,,,,,,,,,,,,,,,,,,1026.4278475609608,1026.4278475609608,1026.4278475609608,1026.4278475609608,1026.4278475609608,1026.4278475609608,l,1,0.4898258741013706,1026.928116203053,1027.958766455762,,,,,,,,,,,,,,,,,,,,,,,,,,,,,,,,,,,,,,,572,2023-05-16_16h58.49.680,eb_02psyexp,2022.2.4,99.66661058375664,
15,0,15,0,,,,,,,,,,,,,,,,,,,,,,,,,,,,,,,,,,,,,,,,,,,,,,,,,,,,,,,,,,,1027.958766455762,1027.958766455762,1027.958766455762,1027.958766455762,1027.958766455762,1027.958766455762,s,1,0.8549123014090583,1028.8293355967617,1029.8500469971914,,,,,,,,,,,,,,,,,,,,,,,,,,,,,,,,,,,,,,,572,2023-05-16_16h58.49.680,eb_02psyexp,2022.2.4,99.66661058375664,
16,0,16,0,,,,,,,,,,,,,,,,,,,,,,,,,,,,,,,,,,,,,,,,,,,,,,,,,,,,,,,,,,,1029.8500469971914,1029.8500469971914,1029.8500469971914,1029.8500469971914,1029.8500469971914,1029.8500469971914,l,1,0.4986445792019367,1030.3603254251648,1031.3809942655498,,,,,,,,,,,,,,,,,,,,,,,,,,,,,,,,,,,,,,,572,2023-05-16_16h58.49.680,eb_02psyexp,2022.2.4,99.66661058375664,
17,0,17,0,,,,,,,,,,,,,,,,,,,,,,,,,,,,,,,,,,,,,,,,,,,,,,,,,,,,,,,,,,,1031.3809942655498,1031.3809942655498,1031.3809942655498,1031.3809942655498,1031.3809942655498,1031.3809942655498,s,1,0.5597045142203569,1031.951359479921,1032.972066352726,,,,,,,,,,,,,,,,,,,,,,,,,,,,,,,,,,,,,,,572,2023-05-16_16h58.49.680,eb_02psyexp,2022.2.4,99.66661058375664,
18,0,18,0,,,,,,,,,,,,,,,,,,,,,,,,,,,,,,,,,,,,,,,,,,,,,,,,,,,,,,,,,,,1032.972066352726,1032.972066352726,1032.972066352726,1032.972066352726,1032.972066352726,1032.972066352726,l,1,0.5286697108531371,1033.5123674975475,1034.533047807985,,,,,,,,,,,,,,,,,,,,,,,,,,,,,,,,,,,,,,,572,2023-05-16_16h58.49.680,eb_02psyexp,2022.2.4,99.66661058375664,
19,0,19,0,,,,,,,,,,,,,,,,,,,,,,,,,,,,,,,,,,,,,,,,,,,,,,,,,,,,,,,,,,,1034.533047807985,1034.533047807985,1034.533047807985,1034.533047807985,1034.533047807985,1034.533047807985,l,1,0.49565480393357575,1035.043344044825,1036.0740235764533,,,,,,,,,,,,,,,,,,,,,,,,,,,,,,,,,,,,,,,572,2023-05-16_16h58.49.680,eb_02psyexp,2022.2.4,99.66661058375664,
20,0,20,0,,,,,,,,,,,,,,,,,,,,,,,,,,,,,,,,,,,,,,,,,,,,,,,,,,,,,,,,,,,1036.0740235764533,1036.0740235764533,1036.0740235764533,1036.0740235764533,1036.0740235764533,1036.0740235764533,s,1,0.5546881512273103,1036.64438365947,1037.665063366294,,,,,,,,,,,,,,,,,,,,,,,,,,,,,,,,,,,,,,,572,2023-05-16_16h58.49.680,eb_02psyexp,2022.2.4,99.66661058375664,
21,0,21,0,,,,,,,,,,,,,,,,,,,,,,,,,,,,,,,,,,,,,,,,,,,,,,,,,,,,,,,,,,,1037.665063366294,1037.665063366294,1037.665063366294,1037.665063366294,1037.665063366294,1037.665063366294,l,1,0.4436849328922108,1038.125345687964,1039.1559868854238,,,,,,,,,,,,,,,,,,,,,,,,,,,,,,,,,,,,,,,572,2023-05-16_16h58.49.680,eb_02psyexp,2022.2.4,99.66661058375664,
22,0,22,0,,,,,,,,,,,,,,,,,,,,,,,,,,,,,,,,,,,,,,,,,,,,,,,,,,,,,,,,,,,1039.1559868854238,1039.1559868854238,1039.1559868854238,1039.1559868854238,1039.1559868854238,1039.1559868854238,s,1,0.8408209666376933,1040.0165616346058,1041.0372878254857,,,,,,,,,,,,,,,,,,,,,,,,,,,,,,,,,,,,,,,572,2023-05-16_16h58.49.680,eb_02psyexp,2022.2.4,99.66661058375664,
23,0,23,0,,,,,,,,,,,,,,,,,,,,,,,,,,,,,,,,,,,,,,,,,,,,,,,,,,,,,,,,,,,1041.0372878254857,1041.0372878254857,1041.0372878254857,1041.0372878254857,1041.0372878254857,1041.0372878254857,l,1,0.5674691764870659,1041.6176054752432,1042.638278239523,,,,,,,,,,,,,,,,,,,,,,,,,,,,,,,,,,,,,,,572,2023-05-16_16h58.49.680,eb_02psyexp,2022.2.4,99.66661058375664,
24,0,24,0,,,,,,,,,,,,,,,,,,,,,,,,,,,,,,,,,,,,,,,,,,,,,,,,,,,,,,,,,,,1042.638278239523,1042.638278239523,1042.638278239523,1042.638278239523,1042.638278239523,1042.638278239523,l,1,0.7024932244094089,1043.3587398331147,1044.3793830166105,,,,,,,,,,,,,,,,,,,,,,,,,,,,,,,,,,,,,,,572,2023-05-16_16h58.49.680,eb_02psyexp,2022.2.4,99.66661058375664,
25,0,25,0,,,,,,,,,,,,,,,,,,,,,,,,,,,,,,,,,,,,,,,,,,,,,,,,,,,,,,,,,,,1044.3793830166105,1044.3793830166105,1044.3793830166105,1044.3793830166105,1044.3793830166105,1044.3793830166105,l,1,0.5613957521272823,1044.9597652610391,1045.9804706247523,,,,,,,,,,,,,,,,,,,,,,,,,,,,,,,,,,,,,,,572,2023-05-16_16h58.49.680,eb_02psyexp,2022.2.4,99.66661058375664,
26,0,26,0,,,,,,,,,,,,,,,,,,,,,,,,,,,,,,,,,,,,,,,,,,,,,,,,,,,,,,,,,,,1045.9804706247523,1045.9804706247523,1045.9804706247523,1045.9804706247523,1045.9804706247523,1045.9804706247523,l,1,0.5673399867955595,1046.5607967260294,1047.5914783705957,,,,,,,,,,,,,,,,,,,,,,,,,,,,,,,,,,,,,,,572,2023-05-16_16h58.49.680,eb_02psyexp,2022.2.4,99.66661058375664,
27,0,27,0,,,,,,,,,,,,,,,,,,,,,,,,,,,,,,,,,,,,,,,,,,,,,,,,,,,,,,,,,,,1047.5914783705957,1047.5914783705957,1047.5914783705957,1047.5914783705957,1047.5914783705957,1047.5914783705957,s,1,0.5163333032978699,1048.121828287607,1049.1524456391344,,,,,,,,,,,,,,,,,,,,,,,,,,,,,,,,,,,,,,,572,2023-05-16_16h58.49.680,eb_02psyexp,2022.2.4,99.66661058375664,
28,0,28,0,,,,,,,,,,,,,,,,,,,,,,,,,,,,,,,,,,,,,,,,,,,,,,,,,,,,,,,,,,,1049.1524456391344,1049.1524456391344,1049.1524456391344,1049.1524456391344,1049.1524456391344,1049.1524456391344,l,1,1.883369649760425,1051.053714233567,1052.0743335713632,,,,,,,,,,,,,,,,,,,,,,,,,,,,,,,,,,,,,,,572,2023-05-16_16h58.49.680,eb_02psyexp,2022.2.4,99.66661058375664,
29,0,29,0,,,,,,,,,,,,,,,,,,,,,,,,,,,,,,,,,,,,,,,,,,,,,,,,,,,,,,,,,,,1052.0743335713632,1052.0743335713632,1052.0743335713632,1052.0743335713632,1052.0743335713632,1052.0743335713632,l,1,0.9374835261842236,1053.024958662223,1054.0456450096099,,,,,,,,,,,,,,,,,,,,,,,,,,,,,,,,,,,,,,,572,2023-05-16_16h58.49.680,eb_02psyexp,2022.2.4,99.66661058375664,
30,0,30,0,,,,,,,,,,,,,,,,,,,,,,,,,,,,,,,,,,,,,,,,,,,,,,,,,,,,,,,,,,,1054.0456450096099,1054.0456450096099,1054.0456450096099,1054.0456450096099,1054.0456450096099,1054.0456450096099,s,1,1.030187387834303,1055.086304142722,1056.1069337431109,,,,,,,,,,,,,,,,,,,,,,,,,,,,,,,,,,,,,,,572,2023-05-16_16h58.49.680,eb_02psyexp,2022.2.4,99.66661058375664,
31,0,31,0,,,,,,,,,,,,,,,,,,,,,,,,,,,,,,,,,,,,,,,,,,,,,,,,,,,,,,,,,,,1056.1069337431109,1056.1069337431109,1056.1069337431109,1056.1069337431109,1056.1069337431109,1056.1069337431109,l,1,1.152913966216147,1057.2777137530502,1058.2983780656941,,,,,,,,,,,,,,,,,,,,,,,,,,,,,,,,,,,,,,,572,2023-05-16_16h58.49.680,eb_02psyexp,2022.2.4,99.66661058375664,
32,0,32,0,,,,,,,,,,,,,,,,,,,,,,,,,,,,,,,,,,,,,,,,,,,,,,,,,,,,,,,,,,,1058.2983780656941,1058.2983780656941,1058.2983780656941,1058.2983780656941,1058.2983780656941,1058.2983780656941,l,1,0.6174731306964532,1058.9287549072178,1059.959467038163,,,,,,,,,,,,,,,,,,,,,,,,,,,,,,,,,,,,,,,572,2023-05-16_16h58.49.680,eb_02psyexp,2022.2.4,99.66661058375664,
33,0,33,0,,,,,,,,,,,,,,,,,,,,,,,,,,,,,,,,,,,,,,,,,,,,,,,,,,,,,,,,,,,1059.959467038163,1059.959467038163,1059.959467038163,1059.959467038163,1059.959467038163,1059.959467038163,l,1,0.6923913760110736,1060.6699354473967,1061.7005863038357,,,,,,,,,,,,,,,,,,,,,,,,,,,,,,,,,,,,,,,572,2023-05-16_16h58.49.680,eb_02psyexp,2022.2.4,99.66661058375664,
34,0,34,0,,,,,,,,,,,,,,,,,,,,,,,,,,,,,,,,,,,,,,,,,,,,,,,,,,,,,,,,,,,1061.7005863038357,1061.7005863038357,1061.7005863038357,1061.7005863038357,1061.7005863038357,1061.7005863038357,s,1,0.6303265987662598,1062.340990438126,1063.3616885574302,,,,,,,,,,,,,,,,,,,,,,,,,,,,,,,,,,,,,,,572,2023-05-16_16h58.49.680,eb_02psyexp,2022.2.4,99.66661058375664,
35,0,35,0,,,,,,,,,,,,,,,,,,,,,,,,,,,,,,,,,,,,,,,,,,,,,,,,,,,,,,,,,,,1063.3616885574302,1063.3616885574302,1063.3616885574302,1063.3616885574302,1063.3616885574302,1063.3616885574302,l,1,0.5052380826091394,1063.881971036084,1064.902642291272,,,,,,,,,,,,,,,,,,,,,,,,,,,,,,,,,,,,,,,572,2023-05-16_16h58.49.680,eb_02psyexp,2022.2.4,99.66661058375664,
36,0,36,0,,,,,,,,,,,,,,,,,,,,,,,,,,,,,,,,,,,,,,,,,,,,,,,,,,,,,,,,,,,1064.902642291272,1064.902642291272,1064.902642291272,1064.902642291272,1064.902642291272,1064.902642291272,l,1,0.5482470794813707,1065.4630010401597,1066.4837067056214,,,,,,,,,,,,,,,,,,,,,,,,,,,,,,,,,,,,,,,572,2023-05-16_16h58.49.680,eb_02psyexp,2022.2.4,99.66661058375664,
37,0,37,0,,,,,,,,,,,,,,,,,,,,,,,,,,,,,,,,,,,,,,,,,,,,,,,,,,,,,,,,,,,1066.4837067056214,1066.4837067056214,1066.4837067056214,1066.4837067056214,1066.4837067056214,1066.4837067056214,l,1,0.5991873570019379,1067.0940428462345,1068.1147122903494,,,,,,,,,,,,,,,,,,,,,,,,,,,,,,,,,,,,,,,572,2023-05-16_16h58.49.680,eb_02psyexp,2022.2.4,99.66661058375664,
38,0,38,0,,,,,,,,,,,,,,,,,,,,,,,,,,,,,,,,,,,,,,,,,,,,,,,,,,,,,,,,,,,1068.1147122903494,1068.1147122903494,1068.1147122903494,1068.1147122903494,1068.1147122903494,1068.1147122903494,l,1,0.5361986320931464,1068.6650573293446,1069.686052162433,,,,,,,,,,,,,,,,,,,,,,,,,,,,,,,,,,,,,,,572,2023-05-16_16h58.49.680,eb_02psyexp,2022.2.4,99.66661058375664,
39,0,39,0,,,,,,,,,,,,,,,,,,,,,,,,,,,,,,,,,,,,,,,,,,,,,,,,,,,,,,,,,,,1069.686052162433,1069.686052162433,1069.686052162433,1069.686052162433,1069.686052162433,1069.686052162433,l,1,0.5248770277248695,1070.2264299758244,1071.2467359984294,,,,,,,,,,,,,,,,,,,,,,,,,,,,,,,,,,,,,,,572,2023-05-16_16h58.49.680,eb_02psyexp,2022.2.4,99.66661058375664,
40,0,40,0,,,,,,,,,,,,,,,,,,,,,,,,,,,,,,,,,,,,,,,,,,,,,,,,,,,,,,,,,,,1071.2467359984294,1071.2467359984294,1071.2467359984294,1071.2467359984294,1071.2467359984294,1071.2467359984294,l,1,0.5402297729160637,1071.7971069961786,1072.8180713428883,,,,,,,,,,,,,,,,,,,,,,,,,,,,,,,,,,,,,,,572,2023-05-16_16h58.49.680,eb_02psyexp,2022.2.4,99.66661058375664,
41,0,41,0,,,,,,,,,,,,,,,,,,,,,,,,,,,,,,,,,,,,,,,,,,,,,,,,,,,,,,,,,,,1072.8180713428883,1072.8180713428883,1072.8180713428883,1072.8180713428883,1072.8180713428883,1072.8180713428883,s,1,0.7128727704985067,1073.548242688179,1074.5789161829744,,,,,,,,,,,,,,,,,,,,,,,,,,,,,,,,,,,,,,,572,2023-05-16_16h58.49.680,eb_02psyexp,2022.2.4,99.66661058375664,
42,0,42,0,,,,,,,,,,,,,,,,,,,,,,,,,,,,,,,,,,,,,,,,,,,,,,,,,,,,,,,,,,,1074.5789161829744,1074.5789161829744,1074.5789161829744,1074.5789161829744,1074.5789161829744,1074.5789161829744,s,1,0.5680318156955764,1075.1592613005778,1076.1799247077433,,,,,,,,,,,,,,,,,,,,,,,,,,,,,,,,,,,,,,,572,2023-05-16_16h58.49.680,eb_02psyexp,2022.2.4,99.66661058375664,
43,0,43,0,,,,,,,,,,,,,,,,,,,,,,,,,,,,,,,,,,,,,,,,,,,,,,,,,,,,,,,,,,,1076.1799247077433,1076.1799247077433,1076.1799247077433,1076.1799247077433,1076.1799247077433,1076.1799247077433,s,1,0.6461076621199027,1076.8403481118148,1077.8710228140699,,,,,,,,,,,,,,,,,,,,,,,,,,,,,,,,,,,,,,,572,2023-05-16_16h58.49.680,eb_02psyexp,2022.2.4,99.66661058375664,
44,0,44,0,,,,,,,,,,,,,,,,,,,,,,,,,,,,,,,,,,,,,,,,,,,,,,,,,,,,,,,,,,,1077.8710228140699,1077.8710228140699,1077.8710228140699,1077.8710228140699,1077.8710228140699,1077.8710228140699,s,1,0.43492448376491666,1078.3212977646617,1079.3420139946975,,,,,,,,,,,,,,,,,,,,,,,,,,,,,,,,,,,,,,,572,2023-05-16_16h58.49.680,eb_02psyexp,2022.2.4,99.66661058375664,
45,0,45,0,,,,,,,,,,,,,,,,,,,,,,,,,,,,,,,,,,,,,,,,,,,,,,,,,,,,,,,,,,,1079.3420139946975,1079.3420139946975,1079.3420139946975,1079.3420139946975,1079.3420139946975,1079.3420139946975,l,1,0.5319685755530372,1079.8923285474302,1080.9129862195114,,,,,,,,,,,,,,,,,,,,,,,,,,,,,,,,,,,,,,,572,2023-05-16_16h58.49.680,eb_02psyexp,2022.2.4,99.66661058375664,
46,0,46,0,,,,,,,,,,,,,,,,,,,,,,,,,,,,,,,,,,,,,,,,,,,,,,,,,,,,,,,,,,,1080.9129862195114,1080.9129862195114,1080.9129862195114,1080.9129862195114,1080.9129862195114,1080.9129862195114,l,1,0.4569757744902745,1081.3832744030515,1082.403954713489,,,,,,,,,,,,,,,,,,,,,,,,,,,,,,,,,,,,,,,572,2023-05-16_16h58.49.680,eb_02psyexp,2022.2.4,99.66661058375664,
47,0,47,0,,,,,,,,,,,,,,,,,,,,,,,,,,,,,,,,,,,,,,,,,,,,,,,,,,,,,,,,,,,1082.403954713489,1082.403954713489,1082.403954713489,1082.403954713489,1082.403954713489,1082.403954713489,l,1,0.5500318893464282,1082.9643035015324,1083.9849813972833,,,,,,,,,,,,,,,,,,,,,,,,,,,,,,,,,,,,,,,572,2023-05-16_16h58.49.680,eb_02psyexp,2022.2.4,99.66661058375664,
48,0,48,0,,,,,,,,,,,,,,,,,,,,,,,,,,,,,,,,,,,,,,,,,,,,,,,,,,,,,,,,,,,1083.9849813972833,1083.9849813972833,1083.9849813972833,1083.9849813972833,1083.9849813972833,1083.9849813972833,l,1,0.5610060701146722,1084.5653289295733,1085.59600634838,,,,,,,,,,,,,,,,,,,,,,,,,,,,,,,,,,,,,,,572,2023-05-16_16h58.49.680,eb_02psyexp,2022.2.4,99.66661058375664,
49,0,49,0,,,,,,,,,,,,,,,,,,,,,,,,,,,,,,,,,,,,,,,,,,,,,,,,,,,,,,,,,,,1085.59600634838,1085.59600634838,1085.59600634838,1085.59600634838,1085.59600634838,1085.59600634838,s,1,0.5899991934420541,1086.1963834131602,1087.2171008506557,,,,,,,,,,,,,,,,,,,,,,,,,,,,,,,,,,,,,,,572,2023-05-16_16h58.49.680,eb_02psyexp,2022.2.4,99.66661058375664,
50,0,50,0,,,,,,,,,,,,,,,,,,,,,,,,,,,,,,,,,,,,,,,,,,,,,,,,,,,,,,,,,,,1087.2171008506557,1087.2171008506557,1087.2171008506557,1087.2171008506557,1087.2171008506557,1087.2171008506557,l,1,0.43291419569868594,1087.6673398817657,,,,,,,,,,,,,,,,,,,,,,,,,,,,,,,,,,,,,,,,572,2023-05-16_16h58.49.680,eb_02psyexp,2022.2.4,99.66661058375664,
51,0,51,0,,,,,,,,,,,,,,,,,,,,,,,,,,,,,,,,,,,,,,,,,,,,,,,,,,,,,,,,,,,1088.6983303137822,1088.6983303137822,1088.6983303137822,1088.6983303137822,1088.6983303137822,1088.6983303137822,s,1,0.5197006867965683,1089.2286820418667,1090.2490206636721,,,,,,,,,,,,,,,,,,,,,,,,,,,,,,,,,,,,,,,572,2023-05-16_16h58.49.680,eb_02psyexp,2022.2.4,99.66661058375664,
52,0,52,0,,,,,,,,,,,,,,,,,,,,,,,,,,,,,,,,,,,,,,,,,,,,,,,,,,,,,,,,,,,1090.2490206636721,1090.2490206636721,1090.2490206636721,1090.2490206636721,1090.2490206636721,1090.2490206636721,s,1,0.6890022596344352,1090.9494641948259,1091.9701396757737,,,,,,,,,,,,,,,,,,,,,,,,,,,,,,,,,,,,,,,572,2023-05-16_16h58.49.680,eb_02psyexp,2022.2.4,99.66661058375664,
53,0,53,0,,,,,,,,,,,,,,,,,,,,,,,,,,,,,,,,,,,,,,,,,,,,,,,,,,,,,,,,,,,1091.9701396757737,1091.9701396757737,1091.9701396757737,1091.9701396757737,1091.9701396757737,1091.9701396757737,l,1,0.5199195244349539,1092.500463332166,1093.5211750344606,,,,,,,,,,,,,,,,,,,,,,,,,,,,,,,,,,,,,,,572,2023-05-16_16h58.49.680,eb_02psyexp,2022.2.4,99.66661058375664,
54,0,54,0,,,,,,,,,,,,,,,,,,,,,,,,,,,,,,,,,,,,,,,,,,,,,,,,,,,,,,,,,,,1093.5211750344606,1093.5211750344606,1093.5211750344606,1093.5211750344606,1093.5211750344606,1093.5211750344606,l,1,0.431878867209889,1093.9714243282797,1094.992075359798,,,,,,,,,,,,,,,,,,,,,,,,,,,,,,,,,,,,,,,572,2023-05-16_16h58.49.680,eb_02psyexp,2022.2.4,99.66661058375664,
55,0,55,0,,,,,,,,,,,,,,,,,,,,,,,,,,,,,,,,,,,,,,,,,,,,,,,,,,,,,,,,,,,1094.992075359798,1094.992075359798,1094.992075359798,1094.992075359798,1094.992075359798,1094.992075359798,l,1,0.4649921755772084,1095.472396873054,1096.4930581672816,,,,,,,,,,,,,,,,,,,,,,,,,,,,,,,,,,,,,,,572,2023-05-16_16h58.49.680,eb_02psyexp,2022.2.4,99.66661058375664,
56,0,56,0,,,,,,,,,,,,,,,,,,,,,,,,,,,,,,,,,,,,,,,,,,,,,,,,,,,,,,,,,,,1096.4930581672816,1096.4930581672816,1096.4930581672816,1096.4930581672816,1096.4930581672816,1096.4930581672816,l,1,0.4439907019259408,1096.953340489068,1097.974004499847,,,,,,,,,,,,,,,,,,,,,,,,,,,,,,,,,,,,,,,572,2023-05-16_16h58.49.680,eb_02psyexp,2022.2.4,99.66661058375664,
57,0,57,0,,,,,,,,,,,,,,,,,,,,,,,,,,,,,,,,,,,,,,,,,,,,,,,,,,,,,,,,,,,1097.974004499847,1097.974004499847,1097.974004499847,1097.974004499847,1097.974004499847,1097.974004499847,l,1,0.45107983495108783,1098.4443032479612,1099.4650264204247,,,,,,,,,,,,,,,,,,,,,,,,,,,,,,,,,,,,,,,572,2023-05-16_16h58.49.680,eb_02psyexp,2022.2.4,99.66661058375664,
58,0,58,0,,,,,,,,,,,,,,,,,,,,,,,,,,,,,,,,,,,,,,,,,,,,,,,,,,,,,,,,,,,1099.4650264204247,1099.4650264204247,1099.4650264204247,1099.4650264204247,1099.4650264204247,1099.4650264204247,l,1,0.5200417716987431,1099.9953044982394,1101.0160095599713,,,,,,,,,,,,,,,,,,,,,,,,,,,,,,,,,,,,,,,572,2023-05-16_16h58.49.680,eb_02psyexp,2022.2.4,99.66661058375664,
59,0,59,0,,,,,,,,,,,,,,,,,,,,,,,,,,,,,,,,,,,,,,,,,,,,,,,,,,,,,,,,,,,1101.0160095599713,1101.0160095599713,1101.0160095599713,1101.0160095599713,1101.0160095599713,1101.0160095599713,l,1,0.5050642199348658,1101.5363001885125,1102.5669637224637,,,,,,,,,,,,,,,,,,,,,,,,,,,,,,,,,,,,,,,572,2023-05-16_16h58.49.680,eb_02psyexp,2022.2.4,99.66661058375664,
60,0,60,0,,,,,,,,,,,,,,,,,,,,,,,,,,,,,,,,,,,,,,,,,,,,,,,,,,,,,,,,,,,1102.5669637224637,1102.5669637224637,1102.5669637224637,1102.5669637224637,1102.5669637224637,1102.5669637224637,s,1,0.8421406331472099,1103.4275433011353,1104.4481910123723,,,,,,,,,,,,,,,,,,,,,,,,,,,,,,,,,,,,,,,572,2023-05-16_16h58.49.680,eb_02psyexp,2022.2.4,99.66661058375664,
61,0,61,0,,,,,,,,,,,,,,,,,,,,,,,,,,,,,,,,,,,,,,,,,,,,,,,,,,,,,,,,,,,1104.4481910123723,1104.4481910123723,1104.4481910123723,1104.4481910123723,1104.4481910123723,1104.4481910123723,s,1,0.5769157194299623,1105.0385552729713,1106.0692432562355,,,,,,,,,,,,,,,,,,,,,,,,,,,,,,,,,,,,,,,572,2023-05-16_16h58.49.680,eb_02psyexp,2022.2.4,99.66661058375664,
62,0,62,0,,,,,,,,,,,,,,,,,,,,,,,,,,,,,,,,,,,,,,,,,,,,,,,,,,,,,,,,,,,1106.0692432562355,1106.0692432562355,1106.0692432562355,1106.0692432562355,1106.0692432562355,1106.0692432562355,s,1,0.5238918054383248,1106.6095969220623,1107.6302893063985,,,,,,,,,,,,,,,,,,,,,,,,,,,,,,,,,,,,,,,572,2023-05-16_16h58.49.680,eb_02psyexp,2022.2.4,99.66661058375664,
63,0,63,0,,,,,,,,,,,,,,,,,,,,,,,,,,,,,,,,,,,,,,,,,,,,,,,,,,,,,,,,,,,1107.6302893063985,1107.6302893063985,1107.6302893063985,1107.6302893063985,1107.6302893063985,1107.6302893063985,l,1,0.6668555858777836,1108.3106830813922,1109.3413448041538,,,,,,,,,,,,,,,,,,,,,,,,,,,,,,,,,,,,,,,572,2023-05-16_16h58.49.680,eb_02psyexp,2022.2.4,99.66661058375664,
64,0,64,0,,,,,,,,,,,,,,,,,,,,,,,,,,,,,,,,,,,,,,,,,,,,,,,,,,,,,,,,,,,1109.3413448041538,1109.3413448041538,1109.3413448041538,1109.3413448041538,1109.3413448041538,1109.3413448041538,s,1,0.5787823293358088,1109.9317253644112,1110.9524370668223,,,,,,,,,,,,,,,,,,,,,,,,,,,,,,,,,,,,,,,572,2023-05-16_16h58.49.680,eb_02psyexp,2022.2.4,99.66661058375664,
65,0,65,0,,,,,,,,,,,,,,,,,,,,,,,,,,,,,,,,,,,,,,,,,,,,,,,,,,,,,,,,,,,1110.9524370668223,1110.9524370668223,1110.9524370668223,1110.9524370668223,1110.9524370668223,1110.9524370668223,l,1,0.5677067284705117,1111.5327577348799,1112.5534247641917,,,,,,,,,,,,,,,,,,,,,,,,,,,,,,,,,,,,,,,572,2023-05-16_16h58.49.680,eb_02psyexp,2022.2.4,99.66661058375664,
66,0,66,0,,,,,,,,,,,,,,,,,,,,,,,,,,,,,,,,,,,,,,,,,,,,,,,,,,,,,,,,,,,1112.5534247641917,1112.5534247641917,1112.5534247641917,1112.5534247641917,1112.5534247641917,1112.5534247641917,s,1,0.5347165728453547,1113.1037731235847,1114.1244911646936,,,,,,,,,,,,,,,,,,,,,,,,,,,,,,,,,,,,,,,572,2023-05-16_16h58.49.680,eb_02psyexp,2022.2.4,99.66661058375664,
67,0,67,0,,,,,,,,,,,,,,,,,,,,,,,,,,,,,,,,,,,,,,,,,,,,,,,,,,,,,,,,,,,1114.1244911646936,1114.1244911646936,1114.1244911646936,1114.1244911646936,1114.1244911646936,1114.1244911646936,l,1,0.5077322284923866,1114.6447769636288,,,,,,,,,,,,,,,,,,,,,,,,,,,,,,,,,,,,,,,,572,2023-05-16_16h58.49.680,eb_02psyexp,2022.2.4,99.66661058375664,
68,0,68,0,,,,,,,,,,,,,,,,,,,,,,,,,,,,,,,,,,,,,,,,,,,,,,,,,,,,,,,,,,,1115.665752478526,1115.665752478526,1115.665752478526,1115.665752478526,1115.665752478526,1115.665752478526,l,1,0.5424259975552559,1116.2261229994474,1117.2564783495618,,,,,,,,,,,,,,,,,,,,,,,,,,,,,,,,,,,,,,,572,2023-05-16_16h58.49.680,eb_02psyexp,2022.2.4,99.66661058375664,
69,0,69,0,,,,,,,,,,,,,,,,,,,,,,,,,,,,,,,,,,,,,,,,,,,,,,,,,,,,,,,,,,,1117.2564783495618,1117.2564783495618,1117.2564783495618,1117.2564783495618,1117.2564783495618,1117.2564783495618,s,1,0.5597111548995599,1117.8268209255766,1118.8475513423327,,,,,,,,,,,,,,,,,,,,,,,,,,,,,,,,,,,,,,,572,2023-05-16_16h58.49.680,eb_02psyexp,2022.2.4,99.66661058375664,
70,0,70,0,,,,,,,,,,,,,,,,,,,,,,,,,,,,,,,,,,,,,,,,,,,,,,,,,,,,,,,,,,,1118.8475513423327,1118.8475513423327,1118.8475513423327,1118.8475513423327,1118.8475513423327,1118.8475513423327,l,1,0.4886314731556922,1119.347802477423,1120.3684686011402,,,,,,,,,,,,,,,,,,,,,,,,,,,,,,,,,,,,,,,572,2023-05-16_16h58.49.680,eb_02psyexp,2022.2.4,99.66661058375664,
71,0,71,0,,,,,,,,,,,,,,,,,,,,,,,,,,,,,,,,,,,,,,,,,,,,,,,,,,,,,,,,,,,1120.3684686011402,1120.3684686011402,1120.3684686011402,1120.3684686011402,1120.3684686011402,1120.3684686011402,l,1,0.4877346914727241,1120.8687858403428,1121.8894954296993,,,,,,,,,,,,,,,,,,,,,,,,,,,,,,,,,,,,,,,572,2023-05-16_16h58.49.680,eb_02psyexp,2022.2.4,99.66661058375664,
72,0,72,0,,,,,,,,,,,,,,,,,,,,,,,,,,,,,,,,,,,,,,,,,,,,,,,,,,,,,,,,,,,1121.8894954296993,1121.8894954296993,1121.8894954296993,1121.8894954296993,1121.8894954296993,1121.8894954296993,l,1,0.5187199921347201,1122.4197982588084,1123.4404511014,,,,,,,,,,,,,,,,,,,,,,,,,,,,,,,,,,,,,,,572,2023-05-16_16h58.49.680,eb_02psyexp,2022.2.4,99.66661058375664,
73,0,73,0,,,,,,,,,,,,,,,,,,,,,,,,,,,,,,,,,,,,,,,,,,,,,,,,,,,,,,,,,,,1123.4404511014,1123.4404511014,1123.4404511014,1123.4404511014,1123.4404511014,1123.4404511014,s,1,0.5108201033435762,1123.9708019237733,1124.991499439464,,,,,,,,,,,,,,,,,,,,,,,,,,,,,,,,,,,,,,,572,2023-05-16_16h58.49.680,eb_02psyexp,2022.2.4,99.66661058375664,
74,0,74,0,,,,,,,,,,,,,,,,,,,,,,,,,,,,,,,,,,,,,,,,,,,,,,,,,,,,,,,,,,,1124.991499439464,1124.991499439464,1124.991499439464,1124.991499439464,1124.991499439464,1124.991499439464,l,1,0.5037267444422469,1125.5118000288494,1126.5324643414933,,,,,,,,,,,,,,,,,,,,,,,,,,,,,,,,,,,,,,,572,2023-05-16_16h58.49.680,eb_02psyexp,2022.2.4,99.66661058375664,
75,0,75,0,,,,,,,,,,,,,,,,,,,,,,,,,,,,,,,,,,,,,,,,,,,,,,,,,,,,,,,,,,,1126.5324643414933,1126.5324643414933,1126.5324643414933,1126.5324643414933,1126.5324643414933,1126.5324643414933,l,1,0.5387772944523022,1127.0828102860833,1128.1034652416129,,,,,,,,,,,,,,,,,,,,,,,,,,,,,,,,,,,,,,,572,2023-05-16_16h58.49.680,eb_02psyexp,2022.2.4,99.66661058375664,
76,0,76,0,,,,,,,,,,,,,,,,,,,,,,,,,,,,,,,,,,,,,,,,,,,,,,,,,,,,,,,,,,,1128.1034652416129,1128.1034652416129,1128.1034652416129,1128.1034652416129,1128.1034652416129,1128.1034652416129,s,1,0.5918389391154051,1128.7138623549836,,,,,,,,,,,,,,,,,,,,,,,,,,,,,,,,,,,,,,,,572,2023-05-16_16h58.49.680,eb_02psyexp,2022.2.4,99.66661058375664,
77,0,77,0,,,,,,,,,,,,,,,,,,,,,,,,,,,,,,,,,,,,,,,,,,,,,,,,,,,,,,,,,,,1129.7448736143997,1129.7448736143997,1129.7448736143997,1129.7448736143997,1129.7448736143997,1129.7448736143997,s,1,0.670369666069746,1130.4252764447592,1131.4456769448007,,,,,,,,,,,,,,,,,,,,,,,,,,,,,,,,,,,,,,,572,2023-05-16_16h58.49.680,eb_02psyexp,2022.2.4,99.66661058375664,
78,0,78,0,,,,,,,,,,,,,,,,,,,,,,,,,,,,,,,,,,,,,,,,,,,,,,,,,,,,,,,,,,,1131.4456769448007,1131.4456769448007,1131.4456769448007,1131.4456769448007,1131.4456769448007,1131.4456769448007,l,1,0.6736039358656853,1132.1360714503098,1133.1567264058394,,,,,,,,,,,,,,,,,,,,,,,,,,,,,,,,,,,,,,,572,2023-05-16_16h58.49.680,eb_02psyexp,2022.2.4,99.66661058375664,
79,0,79,0,,,,,,,,,,,,,,,,,,,,,,,,,,,,,,,,,,,,,,,,,,,,,,,,,,,,,,,,,,,1133.1567264058394,1133.1567264058394,1133.1567264058394,1133.1567264058394,1133.1567264058394,1133.1567264058394,l,1,0.6025595699902624,1133.77713360684,,,,,,,,,,,,,,,,,,,,,,,,,,,,,,,,,,,,,,,,572,2023-05-16_16h58.49.680,eb_02psyexp,2022.2.4,99.66661058375664,
80,0,80,0,,,,,,,,,,,,,,,,,,,,,,,,,,,,,,,,,,,,,,,,,,,,,,,,,,,,,,,,,,,1134.7981103291968,1134.7981103291968,1134.7981103291968,1134.7981103291968,1134.7981103291968,1134.7981103291968,s,1,0.8091845861636102,1135.6183172258316,1136.6389791237889,,,,,,,,,,,,,,,,,,,,,,,,,,,,,,,,,,,,,,,572,2023-05-16_16h58.49.680,eb_02psyexp,2022.2.4,99.66661058375664,
81,0,81,0,,,,,,,,,,,,,,,,,,,,,,,,,,,,,,,,,,,,,,,,,,,,,,,,,,,,,,,,,,,1136.6389791237889,1136.6389791237889,1136.6389791237889,1136.6389791237889,1136.6389791237889,1136.6389791237889,l,1,0.5763911127578467,1137.2293762854533,1138.2500623309752,,,,,,,,,,,,,,,,,,,,,,,,,,,,,,,,,,,,,,,572,2023-05-16_16h58.49.680,eb_02psyexp,2022.2.4,99.66661058375664,
82,0,82,0,,,,,,,,,,,,,,,,,,,,,,,,,,,,,,,,,,,,,,,,,,,,,,,,,,,,,,,,,,,1138.2500623309752,1138.2500623309752,1138.2500623309752,1138.2500623309752,1138.2500623309752,1138.2500623309752,l,1,0.6372651110868901,1138.9004650828429,1139.9210970980348,,,,,,,,,,,,,,,,,,,,,,,,,,,,,,,,,,,,,,,572,2023-05-16_16h58.49.680,eb_02psyexp,2022.2.4,99.66661058375664,
83,0,83,0,,,,,,,,,,,,,,,,,,,,,,,,,,,,,,,,,,,,,,,,,,,,,,,,,,,,,,,,,,,1139.9210970980348,1139.9210970980348,1139.9210970980348,1139.9210970980348,1139.9210970980348,1139.9210970980348,s,1,0.5812037303112447,1140.52147144638,1141.5421919021755,,,,,,,,,,,,,,,,,,,,,,,,,,,,,,,,,,,,,,,572,2023-05-16_16h58.49.680,eb_02psyexp,2022.2.4,99.66661058375664,
84,0,84,0,,,,,,,,,,,,,,,,,,,,,,,,,,,,,,,,,,,,,,,,,,,,,,,,,,,,,,,,,,,1141.5421919021755,1141.5421919021755,1141.5421919021755,1141.5421919021755,1141.5421919021755,1141.5421919021755,l,1,0.5041408758843318,1142.0624891712796,1143.0931451590732,,,,,,,,,,,,,,,,,,,,,,,,,,,,,,,,,,,,,,,572,2023-05-16_16h58.49.680,eb_02psyexp,2022.2.4,99.66661058375664,
85,0,85,0,,,,,,,,,,,,,,,,,,,,,,,,,,,,,,,,,,,,,,,,,,,,,,,,,,,,,,,,,,,1143.0931451590732,1143.0931451590732,1143.0931451590732,1143.0931451590732,1143.0931451590732,1143.0931451590732,s,1,0.5212008567759767,1143.6334924860857,,,,,,,,,,,,,,,,,,,,,,,,,,,,,,,,,,,,,,,,572,2023-05-16_16h58.49.680,eb_02psyexp,2022.2.4,99.66661058375664,
86,0,86,0,,,,,,,,,,,,,,,,,,,,,,,,,,,,,,,,,,,,,,,,,,,,,,,,,,,,,,,,,,,1144.6544912431855,1144.6544912431855,1144.6544912431855,1144.6544912431855,1144.6544912431855,1144.6544912431855,l,1,0.4958482865476981,1145.1648122312035,1146.1851819431176,,,,,,,,,,,,,,,,,,,,,,,,,,,,,,,,,,,,,,,572,2023-05-16_16h58.49.680,eb_02psyexp,2022.2.4,99.66661058375664,
87,0,87,0,,,,,,,,,,,,,,,,,,,,,,,,,,,,,,,,,,,,,,,,,,,,,,,,,,,,,,,,,,,1146.1851819431176,1146.1851819431176,1146.1851819431176,1146.1851819431176,1146.1851819431176,1146.1851819431176,l,1,0.6051503061316907,1146.805541150854,1147.8365167925367,,,,,,,,,,,,,,,,,,,,,,,,,,,,,,,,,,,,,,,572,2023-05-16_16h58.49.680,eb_02psyexp,2022.2.4,99.66661058375664,
88,0,88,0,,,,,,,,,,,,,,,,,,,,,,,,,,,,,,,,,,,,,,,,,,,,,,,,,,,,,,,,,,,1147.8365167925367,1147.8365167925367,1147.8365167925367,1147.8365167925367,1147.8365167925367,1147.8365167925367,s,1,0.5458235655678436,1148.3968897281447,1149.4172757396009,,,,,,,,,,,,,,,,,,,,,,,,,,,,,,,,,,,,,,,572,2023-05-16_16h58.49.680,eb_02psyexp,2022.2.4,99.66661058375664,
89,0,89,0,,,,,,,,,,,,,,,,,,,,,,,,,,,,,,,,,,,,,,,,,,,,,,,,,,,,,,,,,,,1149.4172757396009,1149.4172757396009,1149.4172757396009,1149.4172757396009,1149.4172757396009,1149.4172757396009,l,1,0.4050925330957398,1149.837506542448,1150.858159988653,,,,,,,,,,,,,,,,,,,,,,,,,,,,,,,,,,,,,,,572,2023-05-16_16h58.49.680,eb_02psyexp,2022.2.4,99.66661058375664,
90,0,90,0,,,,,,,,,,,,,,,,,,,,,,,,,,,,,,,,,,,,,,,,,,,,,,,,,,,,,,,,,,,1150.858159988653,1150.858159988653,1150.858159988653,1150.858159988653,1150.858159988653,1150.858159988653,s,1,0.4202213091775775,1151.288466379512,1152.3090980929555,,,,,,,,,,,,,,,,,,,,,,,,,,,,,,,,,,,,,,,572,2023-05-16_16h58.49.680,eb_02psyexp,2022.2.4,99.66661058375664,
91,0,91,0,,,,,,,,,,,,,,,,,,,,,,,,,,,,,,,,,,,,,,,,,,,,,,,,,,,,,,,,,,,1152.3090980929555,1152.3090980929555,1152.3090980929555,1152.3090980929555,1152.3090980929555,1152.3090980929555,s,1,0.7292940471088514,1153.04958106915,1154.070252324338,,,,,,,,,,,,,,,,,,,,,,,,,,,,,,,,,,,,,,,572,2023-05-16_16h58.49.680,eb_02psyexp,2022.2.4,99.66661058375664,
92,0,92,0,,,,,,,,,,,,,,,,,,,,,,,,,,,,,,,,,,,,,,,,,,,,,,,,,,,,,,,,,,,1154.070252324338,1154.070252324338,1154.070252324338,1154.070252324338,1154.070252324338,1154.070252324338,s,1,0.5432216611225158,1154.630601715995,1155.6513245865935,,,,,,,,,,,,,,,,,,,,,,,,,,,,,,,,,,,,,,,572,2023-05-16_16h58.49.680,eb_02psyexp,2022.2.4,99.66661058375664,
93,0,93,0,,,,,,,,,,,,,,,,,,,,,,,,,,,,,,,,,,,,,,,,,,,,,,,,,,,,,,,,,,,1155.6513245865935,1155.6513245865935,1155.6513245865935,1155.6513245865935,1155.6513245865935,1155.6513245865935,l,1,0.5300754032796249,1156.1916106391,1157.2122683112975,,,,,,,,,,,,,,,,,,,,,,,,,,,,,,,,,,,,,,,572,2023-05-16_16h58.49.680,eb_02psyexp,2022.2.4,99.66661058375664,
94,0,94,0,,,,,,,,,,,,,,,,,,,,,,,,,,,,,,,,,,,,,,,,,,,,,,,,,,,,,,,,,,,1157.2122683112975,1157.2122683112975,1157.2122683112975,1157.2122683112975,1157.2122683112975,1157.2122683112975,l,1,0.4891409876290709,1157.7125952094793,,,,,,,,,,,,,,,,,,,,,,,,,,,,,,,,,,,,,,,,572,2023-05-16_16h58.49.680,eb_02psyexp,2022.2.4,99.66661058375664,
95,0,95,0,,,,,,,,,,,,,,,,,,,,,,,,,,,,,,,,,,,,,,,,,,,,,,,,,,,,,,,,,,,1158.7335695170332,1158.7335695170332,1158.7335695170332,1158.7335695170332,1158.7335695170332,1158.7335695170332,l,1,0.44783379323780537,1159.1938744770596,1160.2242017555982,,,,,,,,,,,,,,,,,,,,,,,,,,,,,,,,,,,,,,,572,2023-05-16_16h58.49.680,eb_02psyexp,2022.2.4,99.66661058375664,
96,0,96,0,,,,,,,,,,,,,,,,,,,,,,,,,,,,,,,,,,,,,,,,,,,,,,,,,,,,,,,,,,,1160.2242017555982,1160.2242017555982,1160.2242017555982,1160.2242017555982,1160.2242017555982,1160.2242017555982,s,1,0.5971927648643032,1160.8345952468226,1161.855235713767,,,,,,,,,,,,,,,,,,,,,,,,,,,,,,,,,,,,,,,572,2023-05-16_16h58.49.680,eb_02psyexp,2022.2.4,99.66661058375664,
97,0,97,0,,,,,,,,,,,,,,,,,,,,,,,,,,,,,,,,,,,,,,,,,,,,,,,,,,,,,,,,,,,1161.855235713767,1161.855235713767,1161.855235713767,1161.855235713767,1161.855235713767,1161.855235713767,l,1,0.5661887497408316,1162.4356375782518,1163.466325863381,,,,,,,,,,,,,,,,,,,,,,,,,,,,,,,,,,,,,,,572,2023-05-16_16h58.49.680,eb_02psyexp,2022.2.4,99.66661058375664,
98,0,98,0,,,,,,,,,,,,,,,,,,,,,,,,,,,,,,,,,,,,,,,,,,,,,,,,,,,,,,,,,,,1163.466325863381,1163.466325863381,1163.466325863381,1163.466325863381,1163.466325863381,1163.466325863381,s,1,0.5071282364660874,1163.986633697059,1165.0073466068134,,,,,,,,,,,,,,,,,,,,,,,,,,,,,,,,,,,,,,,572,2023-05-16_16h58.49.680,eb_02psyexp,2022.2.4,99.66661058375664,
99,0,99,0,,,,,,,,,,,,,,,,,,,,,,,,,,,,,,,,,,,,,,,,,,,,,,,,,,,,,,,,,,,1165.0073466068134,1165.0073466068134,1165.0073466068134,1165.0073466068134,1165.0073466068134,1165.0073466068134,l,1,0.5741194267757237,1165.5976894363994,1166.618384537287,,,,,,,,,,,,,,,,,,,,,,,,,,,,,,,,,,,,,,,572,2023-05-16_16h58.49.680,eb_02psyexp,2022.2.4,99.66661058375664,
100,0,100,0,,,,,,,,,,,,,,,,,,,,,,,,,,,,,,,,,,,,,,,,,,,,,,,,,,,,,,,,,,,1166.618384537287,1166.618384537287,1166.618384537287,1166.618384537287,1166.618384537287,1166.618384537287,l,1,0.547076222486794,1167.1786798987305,1168.1993638313143,,,,,,,,,,,,,,,,,,,,,,,,,,,,,,,,,,,,,,,572,2023-05-16_16h58.49.680,eb_02psyexp,2022.2.4,99.66661058375664,
101,0,101,0,,,,,,,,,,,,,,,,,,,,,,,,,,,,,,,,,,,,,,,,,,,,,,,,,,,,,,,,,,,1168.1993638313143,1168.1993638313143,1168.1993638313143,1168.1993638313143,1168.1993638313143,1168.1993638313143,l,1,0.5421241524163634,1168.7597228820669,,,,,,,,,,,,,,,,,,,,,,,,,,,,,,,,,,,,,,,,572,2023-05-16_16h58.49.680,eb_02psyexp,2022.2.4,99.66661058375664,
102,0,102,0,,,,,,,,,,,,,,,,,,,,,,,,,,,,,,,,,,,,,,,,,,,,,,,,,,,,,,,,,,,1169.7807017172454,1169.7807017172454,1169.7807017172454,1169.7807017172454,1169.7807017172454,1169.7807017172454,s,1,0.520853734924458,1170.321056590532,1171.3413930993993,,,,,,,,,,,,,,,,,,,,,,,,,,,,,,,,,,,,,,,572,2023-05-16_16h58.49.680,eb_02psyexp,2022.2.4,99.66661058375664,
103,0,103,0,,,,,,,,,,,,,,,,,,,,,,,,,,,,,,,,,,,,,,,,,,,,,,,,,,,,,,,,,,,1171.3413930993993,1171.3413930993993,1171.3413930993993,1171.3413930993993,1171.3413930993993,1171.3413930993993,l,1,0.5110857270192355,1171.871741808951,1172.8924145732308,,,,,,,,,,,,,,,,,,,,,,,,,,,,,,,,,,,,,,,572,2023-05-16_16h58.49.680,eb_02psyexp,2022.2.4,99.66661058375664,
104,0,104,0,,,,,,,,,,,,,,,,,,,,,,,,,,,,,,,,,,,,,,,,,,,,,,,,,,,,,,,,,,,1172.8924145732308,1172.8924145732308,1172.8924145732308,1172.8924145732308,1172.8924145732308,1172.8924145732308,s,1,0.5280756797874346,1173.4327326214407,1174.4634293582058,,,,,,,,,,,,,,,,,,,,,,,,,,,,,,,,,,,,,,,572,2023-05-16_16h58.49.680,eb_02psyexp,2022.2.4,99.66661058375664,
105,0,105,0,,,,,,,,,,,,,,,,,,,,,,,,,,,,,,,,,,,,,,,,,,,,,,,,,,,,,,,,,,,1174.4634293582058,1174.4634293582058,1174.4634293582058,1174.4634293582058,1174.4634293582058,1174.4634293582058,s,1,0.5411238379310817,1175.0237887108233,1176.0445206367876,,,,,,,,,,,,,,,,,,,,,,,,,,,,,,,,,,,,,,,572,2023-05-16_16h58.49.680,eb_02psyexp,2022.2.4,99.66661058375664,
106,0,106,0,,,,,,,,,,,,,,,,,,,,,,,,,,,,,,,,,,,,,,,,,,,,,,,,,,,,,,,,,,,1176.0445206367876,1176.0445206367876,1176.0445206367876,1176.0445206367876,1176.0445206367876,1176.0445206367876,l,1,0.47203905030619353,1176.5347538362257,1177.555405471474,,,,,,,,,,,,,,,,,,,,,,,,,,,,,,,,,,,,,,,572,2023-05-16_16h58.49.680,eb_02psyexp,2022.2.4,99.66661058375664,
107,0,107,0,,,,,,,,,,,,,,,,,,,,,,,,,,,,,,,,,,,,,,,,,,,,,,,,,,,,,,,,,,,1177.555405471474,1177.555405471474,1177.555405471474,1177.555405471474,1177.555405471474,1177.555405471474,l,1,0.6731092117261142,1178.2458452536957,1179.2665660113562,,,,,,,,,,,,,,,,,,,,,,,,,,,,,,,,,,,,,,,572,2023-05-16_16h58.49.680,eb_02psyexp,2022.2.4,99.66661058375664,
108,0,108,0,,,,,,,,,,,,,,,,,,,,,,,,,,,,,,,,,,,,,,,,,,,,,,,,,,,,,,,,,,,1179.2665660113562,1179.2665660113562,1179.2665660113562,1179.2665660113562,1179.2665660113562,1179.2665660113562,l,1,0.6659781222697347,1179.9469628047664,1180.97761879256,,,,,,,,,,,,,,,,,,,,,,,,,,,,,,,,,,,,,,,572,2023-05-16_16h58.49.680,eb_02psyexp,2022.2.4,99.66661058375664,
109,0,109,0,,,,,,,,,,,,,,,,,,,,,,,,,,,,,,,,,,,,,,,,,,,,,,,,,,,,,,,,,,,1180.97761879256,1180.97761879256,1180.97761879256,1180.97761879256,1180.97761879256,1180.97761879256,s,1,0.5389626272954047,1181.5279662464745,1182.5486414255574,,,,,,,,,,,,,,,,,,,,,,,,,,,,,,,,,,,,,,,572,2023-05-16_16h58.49.680,eb_02psyexp,2022.2.4,99.66661058375664,
110,0,110,0,,,,,,,,,,,,,,,,,,,,,,,,,,,,,,,,,,,,,,,,,,,,,,,,,,,,,,,,,,,1182.5486414255574,1182.5486414255574,1182.5486414255574,1182.5486414255574,1182.5486414255574,1182.5486414255574,s,1,0.5599016189808026,1183.118990944,1184.1396555585088,,,,,,,,,,,,,,,,,,,,,,,,,,,,,,,,,,,,,,,572,2023-05-16_16h58.49.680,eb_02psyexp,2022.2.4,99.66661058375664,
111,0,111,0,,,,,,,,,,,,,,,,,,,,,,,,,,,,,,,,,,,,,,,,,,,,,,,,,,,,,,,,,,,1184.1396555585088,1184.1396555585088,1184.1396555585088,1184.1396555585088,1184.1396555585088,1184.1396555585088,l,1,0.4569440808845684,1184.6099594379775,,,,,,,,,,,,,,,,,,,,,,,,,,,,,,,,,,,,,,,,572,2023-05-16_16h58.49.680,eb_02psyexp,2022.2.4,99.66661058375664,
112,0,112,0,,,,,,,,,,,,,,,,,,,,,,,,,,,,,,,,,,,,,,,,,,,,,,,,,,,,,,,,,,,1185.6309560821392,1185.6309560821392,1185.6309560821392,1185.6309560821392,1185.6309560821392,1185.6309560821392,s,1,0.5886360611766577,1186.2313274119515,1187.2516542618396,,,,,,,,,,,,,,,,,,,,,,,,,,,,,,,,,,,,,,,572,2023-05-16_16h58.49.680,eb_02psyexp,2022.2.4,99.66661058375664,
113,0,113,0,,,,,,,,,,,,,,,,,,,,,,,,,,,,,,,,,,,,,,,,,,,,,,,,,,,,,,,,,,,1187.2516542618396,1187.2516542618396,1187.2516542618396,1187.2516542618396,1187.2516542618396,1187.2516542618396,l,1,0.44791287661064416,1187.7119565053144,,,,,,,,,,,,,,,,,,,,,,,,,,,,,,,,,,,,,,,,572,2023-05-16_16h58.49.680,eb_02psyexp,2022.2.4,99.66661058375664,
114,0,114,0,,,,,,,,,,,,,,,,,,,,,,,,,,,,,,,,,,,,,,,,,,,,,,,,,,,,,,,,,,,1188.732937755296,1188.732937755296,1188.732937755296,1188.732937755296,1188.732937755296,1188.732937755296,l,1,0.5907399212010205,1189.343346942449,1190.363697940018,,,,,,,,,,,,,,,,,,,,,,,,,,,,,,,,,,,,,,,572,2023-05-16_16h58.49.680,eb_02psyexp,2022.2.4,99.66661058375664,
115,0,115,0,,,,,,,,,,,,,,,,,,,,,,,,,,,,,,,,,,,,,,,,,,,,,,,,,,,,,,,,,,,1190.363697940018,1190.363697940018,1190.363697940018,1190.363697940018,1190.363697940018,1190.363697940018,l,1,0.4799319966696203,1190.8540156560484,1191.8746591414092,,,,,,,,,,,,,,,,,,,,,,,,,,,,,,,,,,,,,,,572,2023-05-16_16h58.49.680,eb_02psyexp,2022.2.4,99.66661058375664,
116,0,116,0,,,,,,,,,,,,,,,,,,,,,,,,,,,,,,,,,,,,,,,,,,,,,,,,,,,,,,,,,,,1191.8746591414092,1191.8746591414092,1191.8746591414092,1191.8746591414092,1191.8746591414092,1191.8746591414092,s,1,0.6489537592278793,1192.5350786215859,1193.5557429342298,,,,,,,,,,,,,,,,,,,,,,,,,,,,,,,,,,,,,,,572,2023-05-16_16h58.49.680,eb_02psyexp,2022.2.4,99.66661058375664,
117,0,117,0,,,,,,,,,,,,,,,,,,,,,,,,,,,,,,,,,,,,,,,,,,,,,,,,,,,,,,,,,,,1193.5557429342298,1193.5557429342298,1193.5557429342298,1193.5557429342298,1193.5557429342298,1193.5557429342298,l,1,0.4318833948345855,1194.0060290531255,1195.026750112651,,,,,,,,,,,,,,,,,,,,,,,,,,,,,,,,,,,,,,,572,2023-05-16_16h58.49.680,eb_02psyexp,2022.2.4,99.66661058375664,
118,0,118,0,,,,,,,,,,,,,,,,,,,,,,,,,,,,,,,,,,,,,,,,,,,,,,,,,,,,,,,,,,,1195.026750112651,1195.026750112651,1195.026750112651,1195.026750112651,1195.026750112651,1195.026750112651,l,1,0.5369001200888306,1195.5770658728434,1196.5977651994908,,,,,,,,,,,,,,,,,,,,,,,,,,,,,,,,,,,,,,,572,2023-05-16_16h58.49.680,eb_02psyexp,2022.2.4,99.66661058375664,
119,0,119,0,,,,,,,,,,,,,,,,,,,,,,,,,,,,,,,,,,,,,,,,,,,,,,,,,,,,,,,,,,,1196.5977651994908,1196.5977651994908,1196.5977651994908,1196.5977651994908,1196.5977651994908,1196.5977651994908,l,1,0.5098499732557684,1197.118032284081,1198.1487160415854,,,,,,,,,,,,,,,,,,,,,,,,,,,,,,,,,,,,,,,572,2023-05-16_16h58.49.680,eb_02psyexp,2022.2.4,99.66661058375664,
120,0,120,0,,,,,,,,,,,,,,,,,,,,,,,,,,,,,,,,,,,,,,,,,,,,,,,,,,,,,,,,,,,1198.1487160415854,1198.1487160415854,1198.1487160415854,1198.1487160415854,1198.1487160415854,1198.1487160415854,s,1,0.58294084854424,1198.7491145374952,,,,,,,,,,,,,,,,,,,,,,,,,,,,,,,,,,,,,,,,572,2023-05-16_16h58.49.680,eb_02psyexp,2022.2.4,99.66661058375664,
121,0,121,0,,,,,,,,,,,,,,,,,,,,,,,,,,,,,,,,,,,,,,,,,,,,,,,,,,,,,,,,,,,1199.770086128381,1199.770086128381,1199.770086128381,1199.770086128381,1199.770086128381,1199.770086128381,l,1,0.5295912438305095,1200.310431342572,1201.3407869945513,,,,,,,,,,,,,,,,,,,,,,,,,,,,,,,,,,,,,,,572,2023-05-16_16h58.49.680,eb_02psyexp,2022.2.4,99.66661058375664,
122,0,122,0,,,,,,,,,,,,,,,,,,,,,,,,,,,,,,,,,,,,,,,,,,,,,,,,,,,,,,,,,,,1201.3407869945513,1201.3407869945513,1201.3407869945513,1201.3407869945513,1201.3407869945513,1201.3407869945513,s,1,0.550886110868305,1201.9111525107874,1202.9318313120166,,,,,,,,,,,,,,,,,,,,,,,,,,,,,,,,,,,,,,,572,2023-05-16_16h58.49.680,eb_02psyexp,2022.2.4,99.66661058375664,
123,0,123,0,,,,,,,,,,,,,,,,,,,,,,,,,,,,,,,,,,,,,,,,,,,,,,,,,,,,,,,,,,,1202.9318313120166,1202.9318313120166,1202.9318313120166,1202.9318313120166,1202.9318313120166,1202.9318313120166,l,1,0.4228048010263592,1203.372072933009,1204.3927523378516,,,,,,,,,,,,,,,,,,,,,,,,,,,,,,,,,,,,,,,572,2023-05-16_16h58.49.680,eb_02psyexp,2022.2.4,99.66661058375664,
124,0,124,0,,,,,,,,,,,,,,,,,,,,,,,,,,,,,,,,,,,,,,,,,,,,,,,,,,,,,,,,,,,1204.3927523378516,1204.3927523378516,1204.3927523378516,1204.3927523378516,1204.3927523378516,1204.3927523378516,l,1,0.5379496354144067,1204.9431016028393,1205.96376470814,,,,,,,,,,,,,,,,,,,,,,,,,,,,,,,,,,,,,,,572,2023-05-16_16h58.49.680,eb_02psyexp,2022.2.4,99.66661058375664,
125,0,125,0,,,,,,,,,,,,,,,,,,,,,,,,,,,,,,,,,,,,,,,,,,,,,,,,,,,,,,,,,,,1205.96376470814,1205.96376470814,1205.96376470814,1205.96376470814,1205.96376470814,1205.96376470814,l,1,0.5029090462485328,1206.4840837100055,1207.5048135231482,,,,,,,,,,,,,,,,,,,,,,,,,,,,,,,,,,,,,,,572,2023-05-16_16h58.49.680,eb_02psyexp,2022.2.4,99.66661058375664,
126,0,126,0,,,,,,,,,,,,,,,,,,,,,,,,,,,,,,,,,,,,,,,,,,,,,,,,,,,,,,,,,,,1207.5048135231482,1207.5048135231482,1207.5048135231482,1207.5048135231482,1207.5048135231482,1207.5048135231482,l,1,0.5938923910725862,1208.1151345715625,1209.14583976008,,,,,,,,,,,,,,,,,,,,,,,,,,,,,,,,,,,,,,,572,2023-05-16_16h58.49.680,eb_02psyexp,2022.2.4,99.66661058375664,
127,0,127,0,,,,,,,,,,,,,,,,,,,,,,,,,,,,,,,,,,,,,,,,,,,,,,,,,,,,,,,,,,,1209.14583976008,1209.14583976008,1209.14583976008,1209.14583976008,1209.14583976008,1209.14583976008,s,1,0.5048423638800159,1209.666137029184,,,,,,,,,,,,,,,,,,,,,,,,,,,,,,,,,,,,,,,,572,2023-05-16_16h58.49.680,eb_02psyexp,2022.2.4,99.66661058375664,
128,0,128,0,,,,,,,,,,,,,,,,,,,,,,,,,,,,,,,,,,,,,,,,,,,,,,,,,,,,,,,,,,,1210.6971667011967,1210.6971667011967,1210.6971667011967,1210.6971667011967,1210.6971667011967,1210.6971667011967,l,1,0.6415857212850824,1211.3575137384469,1212.3779082016554,,,,,,,,,,,,,,,,,,,,,,,,,,,,,,,,,,,,,,,572,2023-05-16_16h58.49.680,eb_02psyexp,2022.2.4,99.66661058375664,
129,0,129,0,,,,,,,,,,,,,,,,,,,,,,,,,,,,,,,,,,,,,,,,,,,,,,,,,,,,,,,,,,,1212.3779082016554,1212.3779082016554,1212.3779082016554,1212.3779082016554,1212.3779082016554,1212.3779082016554,l,1,0.6888398670125753,1213.0783550530905,1214.0990577000193,,,,,,,,,,,,,,,,,,,,,,,,,,,,,,,,,,,,,,,572,2023-05-16_16h58.49.680,eb_02psyexp,2022.2.4,99.66661058375664,
130,0,130,0,,,,,,,,,,,,,,,,,,,,,,,,,,,,,,,,,,,,,,,,,,,,,,,,,,,,,,,,,,,1214.0990577000193,1214.0990577000193,1214.0990577000193,1214.0990577000193,1214.0990577000193,1214.0990577000193,s,1,0.6636581411585212,1214.7794481547317,,,,,,,,,,,,,,,,,,,,,,,,,,,,,,,,,,,,,,,,572,2023-05-16_16h58.49.680,eb_02psyexp,2022.2.4,99.66661058375664,
131,0,131,0,,,,,,,,,,,,,,,,,,,,,,,,,,,,,,,,,,,,,,,,,,,,,,,,,,,,,,,,,,,1215.8104343609884,1215.8104343609884,1215.8104343609884,1215.8104343609884,1215.8104343609884,1215.8104343609884,s,1,1.0643251583678648,1216.890832603327,1217.9214786302764,,,,,,,,,,,,,,,,,,,,,,,,,,,,,,,,,,,,,,,572,2023-05-16_16h58.49.680,eb_02psyexp,2022.2.4,99.66661058375664,
132,0,132,0,,,,,,,,,,,,,,,,,,,,,,,,,,,,,,,,,,,,,,,,,,,,,,,,,,,,,,,,,,,1217.9214786302764,1217.9214786302764,1217.9214786302764,1217.9214786302764,1217.9214786302764,1217.9214786302764,s,1,0.8562684911303222,1218.7920332825743,1219.8227170401951,,,,,,,,,,,,,,,,,,,,,,,,,,,,,,,,,,,,,,,572,2023-05-16_16h58.49.680,eb_02psyexp,2022.2.4,99.66661058375664,
133,0,133,0,,,,,,,,,,,,,,,,,,,,,,,,,,,,,,,,,,,,,,,,,,,,,,,,,,,,,,,,,,,1219.8227170401951,1219.8227170401951,1219.8227170401951,1219.8227170401951,1219.8227170401951,1219.8227170401951,s,1,0.5950391003862023,1220.4331017779186,1221.4538180079544,,,,,,,,,,,,,,,,,,,,,,,,,,,,,,,,,,,,,,,572,2023-05-16_16h58.49.680,eb_02psyexp,2022.2.4,99.66661058375664,
134,0,134,0,,,,,,,,,,,,,,,,,,,,,,,,,,,,,,,,,,,,,,,,,,,,,,,,,,,,,,,,,,,1221.4538180079544,1221.4538180079544,1221.4538180079544,1221.4538180079544,1221.4538180079544,1221.4538180079544,s,1,0.5559851793805137,1222.0241427751025,1223.0548238160554,,,,,,,,,,,,,,,,,,,,,,,,,,,,,,,,,,,,,,,572,2023-05-16_16h58.49.680,eb_02psyexp,2022.2.4,99.66661058375664,
135,0,135,0,,,,,,,,,,,,,,,,,,,,,,,,,,,,,,,,,,,,,,,,,,,,,,,,,,,,,,,,,,,1223.0548238160554,1223.0548238160554,1223.0548238160554,1223.0548238160554,1223.0548238160554,1223.0548238160554,s,1,0.5629559891531244,1223.6351653113961,1224.6658563133096,,,,,,,,,,,,,,,,,,,,,,,,,,,,,,,,,,,,,,,572,2023-05-16_16h58.49.680,eb_02psyexp,2022.2.4,99.66661058375664,
136,0,136,0,,,,,,,,,,,,,,,,,,,,,,,,,,,,,,,,,,,,,,,,,,,,,,,,,,,,,,,,,,,1224.6658563133096,1224.6658563133096,1224.6658563133096,1224.6658563133096,1224.6658563133096,1224.6658563133096,s,1,0.6879234653897583,1225.3662787151989,1226.3969238365535,,,,,,,,,,,,,,,,,,,,,,,,,,,,,,,,,,,,,,,572,2023-05-16_16h58.49.680,eb_02psyexp,2022.2.4,99.66661058375664,
137,0,137,0,,,,,,,,,,,,,,,,,,,,,,,,,,,,,,,,,,,,,,,,,,,,,,,,,,,,,,,,,,,1226.3969238365535,1226.3969238365535,1226.3969238365535,1226.3969238365535,1226.3969238365535,1226.3969238365535,s,1,0.5088822580873966,1226.9172899263212,1227.9479238794884,,,,,,,,,,,,,,,,,,,,,,,,,,,,,,,,,,,,,,,572,2023-05-16_16h58.49.680,eb_02psyexp,2022.2.4,99.66661058375664,
138,0,138,0,,,,,,,,,,,,,,,,,,,,,,,,,,,,,,,,,,,,,,,,,,,,,,,,,,,,,,,,,,,1227.9479238794884,1227.9479238794884,1227.9479238794884,1227.9479238794884,1227.9479238794884,1227.9479238794884,s,1,0.5818907296052203,1228.5483631243696,1229.5690084208036,,,,,,,,,,,,,,,,,,,,,,,,,,,,,,,,,,,,,,,572,2023-05-16_16h58.49.680,eb_02psyexp,2022.2.4,99.66661058375664,
139,0,139,0,,,,,,,,,,,,,,,,,,,,,,,,,,,,,,,,,,,,,,,,,,,,,,,,,,,,,,,,,,,1229.5690084208036,1229.5690084208036,1229.5690084208036,1229.5690084208036,1229.5690084208036,1229.5690084208036,l,1,0.5608430737629533,1230.149383119191,1231.1800487660803,,,,,,,,,,,,,,,,,,,,,,,,,,,,,,,,,,,,,,,572,2023-05-16_16h58.49.680,eb_02psyexp,2022.2.4,99.66661058375664,
140,0,140,0,,,,,,,,,,,,,,,,,,,,,,,,,,,,,,,,,,,,,,,,,,,,,,,,,,,,,,,,,,,1231.1800487660803,1231.1800487660803,1231.1800487660803,1231.1800487660803,1231.1800487660803,1231.1800487660803,l,1,0.5337814568774775,1231.7303944088053,,,,,,,,,,,,,,,,,,,,,,,,,,,,,,,,,,,,,,,,572,2023-05-16_16h58.49.680,eb_02psyexp,2022.2.4,99.66661058375664,
141,0,141,0,,,,,,,,,,,,,,,,,,,,,,,,,,,,,,,,,,,,,,,,,,,,,,,,,,,,,,,,,,,1232.7610718276119,1232.7610718276119,1232.7610718276119,1232.7610718276119,1232.7610718276119,1232.7610718276119,s,1,0.7997842254117131,1233.5715940255905,1234.592314783251,,,,,,,,,,,,,,,,,,,,,,,,,,,,,,,,,,,,,,,572,2023-05-16_16h58.49.680,eb_02psyexp,2022.2.4,99.66661058375664,
142,0,142,0,,,,,,,,,,,,,,,,,,,,,,,,,,,,,,,,,,,,,,,,,,,,,,,,,,,,,,,,,,,1234.592314783251,1234.592314783251,1234.592314783251,1234.592314783251,1234.592314783251,1234.592314783251,l,1,0.4965609428472817,1235.1025817410555,1236.1332416528603,,,,,,,,,,,,,,,,,,,,,,,,,,,,,,,,,,,,,,,572,2023-05-16_16h58.49.680,eb_02psyexp,2022.2.4,99.66661058375664,
143,0,143,0,,,,,,,,,,,,,,,,,,,,,,,,,,,,,,,,,,,,,,,,,,,,,,,,,,,,,,,,,,,1236.1332416528603,1236.1332416528603,1236.1332416528603,1236.1332416528603,1236.1332416528603,1236.1332416528603,s,1,0.6516244842205197,1236.803681181511,,,,,,,,,,,,,,,,,,,,,,,,,,,,,,,,,,,,,,,,572,2023-05-16_16h58.49.680,eb_02psyexp,2022.2.4,99.66661058375664,
144,0,144,0,,,,,,,,,,,,,,,,,,,,,,,,,,,,,,,,,,,,,,,,,,,,,,,,,,,,,,,,,,,1237.824619267718,1237.824619267718,1237.824619267718,1237.824619267718,1237.824619267718,1237.824619267718,l,1,0.504248030949384,1238.344995016465,1239.365383744589,,,,,,,,,,,,,,,,,,,,,,,,,,,,,,,,,,,,,,,572,2023-05-16_16h58.49.680,eb_02psyexp,2022.2.4,99.66661058375664,
145,0,145,0,,,,,,,,,,,,,,,,,,,,,,,,,,,,,,,,,,,,,,,,,,,,,,,,,,,,,,,,,,,1239.365383744589,1239.365383744589,1239.365383744589,1239.365383744589,1239.365383744589,1239.365383744589,l,1,0.587495086947456,1239.9657164382515,1240.9863768270006,,,,,,,,,,,,,,,,,,,,,,,,,,,,,,,,,,,,,,,572,2023-05-16_16h58.49.680,eb_02psyexp,2022.2.4,99.66661058375664,
146,0,146,0,,,,,,,,,,,,,,,,,,,,,,,,,,,,,,,,,,,,,,,,,,,,,,,,,,,,,,,,,,,1240.9863768270006,1240.9863768270006,1240.9863768270006,1240.9863768270006,1240.9863768270006,1240.9863768270006,l,1,0.5505317447241396,1241.5467440275243,1242.567455729819,,,,,,,,,,,,,,,,,,,,,,,,,,,,,,,,,,,,,,,572,2023-05-16_16h58.49.680,eb_02psyexp,2022.2.4,99.66661058375664,
147,0,147,0,,,,,,,,,,,,,,,,,,,,,,,,,,,,,,,,,,,,,,,,,,,,,,,,,,,,,,,,,,,1242.567455729819,1242.567455729819,1242.567455729819,1242.567455729819,1242.567455729819,1242.567455729819,l,1,0.5054508834145963,1243.087742434349,1244.108451420092,,,,,,,,,,,,,,,,,,,,,,,,,,,,,,,,,,,,,,,572,2023-05-16_16h58.49.680,eb_02psyexp,2022.2.4,99.66661058375664,
148,0,148,0,,,,,,,,,,,,,,,,,,,,,,,,,,,,,,,,,,,,,,,,,,,,,,,,,,,,,,,,,,,1244.108451420092,1244.108451420092,1244.108451420092,1244.108451420092,1244.108451420092,1244.108451420092,l,1,0.5405264865839854,1244.6687606663909,,,,,,,,,,,,,,,,,,,,,,,,,,,,,,,,,,,,,,,,572,2023-05-16_16h58.49.680,eb_02psyexp,2022.2.4,99.66661058375664,
149,0,149,0,,,,,,,,,,,,,,,,,,,,,,,,,,,,,,,,,,,,,,,,,,,,,,,,,,,,,,,,,,,1245.6997390247416,1245.6997390247416,1245.6997390247416,1245.6997390247416,1245.6997390247416,1245.6997390247416,s,1,0.5331626745173708,1246.250087987748,1247.2704893933842,,,,,,,,,,,,,,,,,,,,,,,,,,,,,,,,,,,,,,,572,2023-05-16_16h58.49.680,eb_02psyexp,2022.2.4,99.66661058375664,
150,0,150,0,,,,,,,,,,,,,,,,,,,,,,,,,,,,,,,,,,,,,,,,,,,,,,,,,,,,,,,,,,,1247.2704893933842,1247.2704893933842,1247.2704893933842,1247.2704893933842,1247.2704893933842,1247.2704893933842,l,1,0.4664537092903629,1247.7507508395938,,,,,,,,,,,,,,,,,,,,,,,,,,,,,,,,,,,,,,,,572,2023-05-16_16h58.49.680,eb_02psyexp,2022.2.4,99.66661058375664,
151,0,151,0,,,,,,,,,,,,,,,,,,,,,,,,,,,,,,,,,,,,,,,,,,,,,,,,,,,,,,,,,,,1248.7717329950538,1248.7717329950538,1248.7717329950538,1248.7717329950538,1248.7717329950538,1248.7717329950538,l,1,0.4841910304967314,1249.2720499323914,1250.2924446974648,,,,,,,,,,,,,,,,,,,,,,,,,,,,,,,,,,,,,,,572,2023-05-16_16h58.49.680,eb_02psyexp,2022.2.4,99.66661058375664,
152,0,152,0,,,,,,,,,,,,,,,,,,,,,,,,,,,,,,,,,,,,,,,,,,,,,,,,,,,,,,,,,,,1250.2924446974648,1250.2924446974648,1250.2924446974648,1250.2924446974648,1250.2924446974648,1250.2924446974648,l,1,0.451513888197951,1250.7626963576768,,,,,,,,,,,,,,,,,,,,,,,,,,,,,,,,,,,,,,,,572,2023-05-16_16h58.49.680,eb_02psyexp,2022.2.4,99.66661058375664,
153,0,153,0,,,,,,,,,,,,,,,,,,,,,,,,,,,,,,,,,,,,,,,,,,,,,,,,,,,,,,,,,,,1251.783358557499,1251.783358557499,1251.783358557499,1251.783358557499,1251.783358557499,1251.783358557499,l,1,0.5045734198065475,1252.3039975151187,1253.3243479089579,,,,,,,,,,,,,,,,,,,,,,,,,,,,,,,,,,,,,,,572,2023-05-16_16h58.49.680,eb_02psyexp,2022.2.4,99.66661058375664,
154,0,154,0,,,,,,,,,,,,,,,,,,,,,,,,,,,,,,,,,,,,,,,,,,,,,,,,,,,,,,,,,,,1253.3243479089579,1253.3243479089579,1253.3243479089579,1253.3243479089579,1253.3243479089579,1253.3243479089579,s,1,0.5716092833317816,1253.9147284692153,1254.9353939892026,,,,,,,,,,,,,,,,,,,,,,,,,,,,,,,,,,,,,,,572,2023-05-16_16h58.49.680,eb_02psyexp,2022.2.4,99.66661058375664,
155,0,155,0,,,,,,,,,,,,,,,,,,,,,,,,,,,,,,,,,,,,,,,,,,,,,,,,,,,,,,,,,,,1254.9353939892026,1254.9353939892026,1254.9353939892026,1254.9353939892026,1254.9353939892026,1254.9353939892026,l,1,0.47257361793890595,1255.4257002351806,1256.446364246076,,,,,,,,,,,,,,,,,,,,,,,,,,,,,,,,,,,,,,,572,2023-05-16_16h58.49.680,eb_02psyexp,2022.2.4,99.66661058375664,
156,0,156,0,,,,,,,,,,,,,,,,,,,,,,,,,,,,,,,,,,,,,,,,,,,,,,,,,,,,,,,,,,,1256.446364246076,1256.446364246076,1256.446364246076,1256.446364246076,1256.446364246076,1256.446364246076,s,1,0.5056156909558922,1256.9666971329134,1257.9873665769119,,,,,,,,,,,,,,,,,,,,,,,,,,,,,,,,,,,,,,,572,2023-05-16_16h58.49.680,eb_02psyexp,2022.2.4,99.66661058375664,
157,0,157,0,,,,,,,,,,,,,,,,,,,,,,,,,,,,,,,,,,,,,,,,,,,,,,,,,,,,,,,,,,,1257.9873665769119,1257.9873665769119,1257.9873665769119,1257.9873665769119,1257.9873665769119,1257.9873665769119,l,1,0.468621862353757,1258.4676754126558,1259.4883825873258,,,,,,,,,,,,,,,,,,,,,,,,,,,,,,,,,,,,,,,572,2023-05-16_16h58.49.680,eb_02psyexp,2022.2.4,99.66661058375664,
158,0,158,0,,,,,,,,,,,,,,,,,,,,,,,,,,,,,,,,,,,,,,,,,,,,,,,,,,,,,,,,,,,1259.4883825873258,1259.4883825873258,1259.4883825873258,1259.4883825873258,1259.4883825873258,1259.4883825873258,l,1,0.45562230120413005,1259.9586375679355,1260.9793429315323,,,,,,,,,,,,,,,,,,,,,,,,,,,,,,,,,,,,,,,572,2023-05-16_16h58.49.680,eb_02psyexp,2022.2.4,99.66661058375664,
159,0,159,0,,,,,,,,,,,,,,,,,,,,,,,,,,,,,,,,,,,,,,,,,,,,,,,,,,,,,,,,,,,1260.9793429315323,1260.9793429315323,1260.9793429315323,1260.9793429315323,1260.9793429315323,1260.9793429315323,l,1,0.4926761968526989,1261.4896171336295,1262.520286402665,,,,,,,,,,,,,,,,,,,,,,,,,,,,,,,,,,,,,,,572,2023-05-16_16h58.49.680,eb_02psyexp,2022.2.4,99.66661058375664,
160,0,160,0,,,,,,,,,,,,,,,,,,,,,,,,,,,,,,,,,,,,,,,,,,,,,,,,,,,,,,,,,,,1262.520286402665,1262.520286402665,1262.520286402665,1262.520286402665,1262.520286402665,1262.520286402665,s,1,0.5357588438782841,1263.070641100756,1264.0913552178536,,,,,,,,,,,,,,,,,,,,,,,,,,,,,,,,,,,,,,,572,2023-05-16_16h58.49.680,eb_02psyexp,2022.2.4,99.66661058375664,
161,0,161,0,,,,,,,,,,,,,,,,,,,,,,,,,,,,,,,,,,,,,,,,,,,,,,,,,,,,,,,,,,,1264.0913552178536,1264.0913552178536,1264.0913552178536,1264.0913552178536,1264.0913552178536,1264.0913552178536,l,1,0.4036620892584324,1264.5115709283855,,,,,,,,,,,,,,,,,,,,,,,,,,,,,,,,,,,,,,,,572,2023-05-16_16h58.49.680,eb_02psyexp,2022.2.4,99.66661058375664,
162,0,162,0,,,,,,,,,,,,,,,,,,,,,,,,,,,,,,,,,,,,,,,,,,,,,,,,,,,,,,,,,,,1265.5322412779788,1265.5322412779788,1265.5322412779788,1265.5322412779788,1265.5322412779788,1265.5322412779788,l,1,0.5547934951027855,1266.1029225242091,1267.1232596368063,,,,,,,,,,,,,,,,,,,,,,,,,,,,,,,,,,,,,,,572,2023-05-16_16h58.49.680,eb_02psyexp,2022.2.4,99.66661058375664,
163,0,163,0,,,,,,,,,,,,,,,,,,,,,,,,,,,,,,,,,,,,,,,,,,,,,,,,,,,,,,,,,,,1267.1232596368063,1267.1232596368063,1267.1232596368063,1267.1232596368063,1267.1232596368063,1267.1232596368063,s,1,0.5958006555447355,1267.7336618815316,,,,,,,,,,,,,,,,,,,,,,,,,,,,,,,,,,,,,,,,572,2023-05-16_16h58.49.680,eb_02psyexp,2022.2.4,99.66661058375664,
164,0,164,0,,,,,,,,,,,,,,,,,,,,,,,,,,,,,,,,,,,,,,,,,,,,,,,,,,,,,,,,,,,1268.7543186481344,1268.7543186481344,1268.7543186481344,1268.7543186481344,1268.7543186481344,1268.7543186481344,s,1,0.5407235914608464,1269.3049996407935,1270.3253346404526,,,,,,,,,,,,,,,,,,,,,,,,,,,,,,,,,,,,,,,572,2023-05-16_16h58.49.680,eb_02psyexp,2022.2.4,99.66661058375664,
165,0,165,0,,,,,,,,,,,,,,,,,,,,,,,,,,,,,,,,,,,,,,,,,,,,,,,,,,,,,,,,,,,1270.3253346404526,1270.3253346404526,1270.3253346404526,1270.3253346404526,1270.3253346404526,1270.3253346404526,s,1,0.43372766813263297,1270.7756243816111,,,,,,,,,,,,,,,,,,,,,,,,,,,,,,,,,,,,,,,,572,2023-05-16_16h58.49.680,eb_02psyexp,2022.2.4,99.66661058375664,
166,0,166,0,,,,,,,,,,,,,,,,,,,,,,,,,,,,,,,,,,,,,,,,,,,,,,,,,,,,,,,,,,,1271.7962853739737,1271.7962853739737,1271.7962853739737,1271.7962853739737,1271.7962853739737,1271.7962853739737,s,1,0.44279237708542496,1272.2568933864823,1273.27727909619,,,,,,,,,,,,,,,,,,,,,,,,,,,,,,,,,,,,,,,572,2023-05-16_16h58.49.680,eb_02psyexp,2022.2.4,99.66661058375664,
167,0,167,0,,,,,,,,,,,,,,,,,,,,,,,,,,,,,,,,,,,,,,,,,,,,,,,,,,,,,,,,,,,1273.27727909619,1273.27727909619,1273.27727909619,1273.27727909619,1273.27727909619,1273.27727909619,l,1,0.40981429524254054,1273.6975135210669,,,,,,,,,,,,,,,,,,,,,,,,,,,,,,,,,,,,,,,,572,2023-05-16_16h58.49.680,eb_02psyexp,2022.2.4,99.66661058375664,
168,0,168,0,,,,,,,,,,,,,,,,,,,,,,,,,,,,,,,,,,,,,,,,,,,,,,,,,,,,,,,,,,,1274.7185210316675,1274.7185210316675,1274.7185210316675,1274.7185210316675,1274.7185210316675,1274.7185210316675,l,1,0.472557318280451,1275.208806148381,1276.2291541275335,,,,,,,,,,,,,,,,,,,,,,,,,,,,,,,,,,,,,,,572,2023-05-16_16h58.49.680,eb_02psyexp,2022.2.4,99.66661058375664,
169,0,169,0,,,,,,,,,,,,,,,,,,,,,,,,,,,,,,,,,,,,,,,,,,,,,,,,,,,,,,,,,,,1276.2291541275335,1276.2291541275335,1276.2291541275335,1276.2291541275335,1276.2291541275335,1276.2291541275335,s,1,0.665942202671431,1276.9095883497503,1277.9302451162366,,,,,,,,,,,,,,,,,,,,,,,,,,,,,,,,,,,,,,,572,2023-05-16_16h58.49.680,eb_02psyexp,2022.2.4,99.66661058375664,
170,0,170,0,,,,,,,,,,,,,,,,,,,,,,,,,,,,,,,,,,,,,,,,,,,,,,,,,,,,,,,,,,,1277.9302451162366,1277.9302451162366,1277.9302451162366,1277.9302451162366,1277.9302451162366,1277.9302451162366,l,1,0.4448476401157677,1278.3905515855877,1279.4212136103306,,,,,,,,,,,,,,,,,,,,,,,,,,,,,,,,,,,,,,,572,2023-05-16_16h58.49.680,eb_02psyexp,2022.2.4,99.66661058375664,
171,0,171,0,,,,,,,,,,,,,,,,,,,,,,,,,,,,,,,,,,,,,,,,,,,,,,,,,,,,,,,,,,,1279.4212136103306,1279.4212136103306,1279.4212136103306,1279.4212136103306,1279.4212136103306,1279.4212136103306,l,0,0.41688078991137445,1279.8514750262257,1280.8721975949593,,,,,,,,,,,,,,,,,,,,,,,,,,,,,,,,,,,,,,,572,2023-05-16_16h58.49.680,eb_02psyexp,2022.2.4,99.66661058375664,
172,0,172,0,,,,,,,,,,,,,,,,,,,,,,,,,,,,,,,,,,,,,,,,,,,,,,,,,,,,,,,,,,,1280.8721975949593,1280.8721975949593,1280.8721975949593,1280.8721975949593,1280.8721975949593,1280.8721975949593,l,1,0.5739117574412376,1281.4625355950557,1282.4831908523338,,,,,,,,,,,,,,,,,,,,,,,,,,,,,,,,,,,,,,,572,2023-05-16_16h58.49.680,eb_02psyexp,2022.2.4,99.66661058375664,
173,0,173,0,,,,,,,,,,,,,,,,,,,,,,,,,,,,,,,,,,,,,,,,,,,,,,,,,,,,,,,,,,,1282.4831908523338,1282.4831908523338,1282.4831908523338,1282.4831908523338,1282.4831908523338,1282.4831908523338,s,1,0.7389552019303665,1283.2336727479706,1284.2544001463102,,,,,,,,,,,,,,,,,,,,,,,,,,,,,,,,,,,,,,,572,2023-05-16_16h58.49.680,eb_02psyexp,2022.2.4,99.66661058375664,
174,0,174,0,,,,,,,,,,,,,,,,,,,,,,,,,,,,,,,,,,,,,,,,,,,,,,,,,,,,,,,,,,,1284.2544001463102,1284.2544001463102,1284.2544001463102,1284.2544001463102,1284.2544001463102,1284.2544001463102,l,1,0.6557630818570033,1284.9247648173478,1285.9554117497755,,,,,,,,,,,,,,,,,,,,,,,,,,,,,,,,,,,,,,,572,2023-05-16_16h58.49.680,eb_02psyexp,2022.2.4,99.66661058375664,
175,0,175,0,,,,,,,,,,,,,,,,,,,,,,,,,,,,,,,,,,,,,,,,,,,,,,,,,,,,,,,,,,,1285.9554117497755,1285.9554117497755,1285.9554117497755,1285.9554117497755,1285.9554117497755,1285.9554117497755,s,1,0.5227303056744859,1286.4957805079175,1287.516431237571,,,,,,,,,,,,,,,,,,,,,,,,,,,,,,,,,,,,,,,572,2023-05-16_16h58.49.680,eb_02psyexp,2022.2.4,99.66661058375664,
176,0,176,0,,,,,,,,,,,,,,,,,,,,,,,,,,,,,,,,,,,,,,,,,,,,,,,,,,,,,,,,,,,1287.516431237571,1287.516431237571,1287.516431237571,1287.516431237571,1287.516431237571,1287.516431237571,s,1,0.553734018933028,1288.0867958482122,1289.1074595572427,,,,,,,,,,,,,,,,,,,,,,,,,,,,,,,,,,,,,,,572,2023-05-16_16h58.49.680,eb_02psyexp,2022.2.4,99.66661058375664,
177,0,177,0,,,,,,,,,,,,,,,,,,,,,,,,,,,,,,,,,,,,,,,,,,,,,,,,,,,,,,,,,,,1289.1074595572427,1289.1074595572427,1289.1074595572427,1289.1074595572427,1289.1074595572427,1289.1074595572427,l,1,0.5627462068805471,1289.687840594328,,,,,,,,,,,,,,,,,,,,,,,,,,,,,,,,,,,,,,,,572,2023-05-16_16h58.49.680,eb_02psyexp,2022.2.4,99.66661058375664,
178,0,178,0,,,,,,,,,,,,,,,,,,,,,,,,,,,,,,,,,,,,,,,,,,,,,,,,,,,,,,,,,,,1290.708841162501,1290.708841162501,1290.708841162501,1290.708841162501,1290.708841162501,1290.708841162501,l,1,0.5293017743388191,1291.2491706806468,1292.2695032656193,,,,,,,,,,,,,,,,,,,,,,,,,,,,,,,,,,,,,,,572,2023-05-16_16h58.49.680,eb_02psyexp,2022.2.4,99.66661058375664,
179,0,179,0,,,,,,,,,,,,,,,,,,,,,,,,,,,,,,,,,,,,,,,,,,,,,,,,,,,,,,,,,,,1292.2695032656193,1292.2695032656193,1292.2695032656193,1292.2695032656193,1292.2695032656193,1292.2695032656193,s,1,0.5126839965814725,1292.7998504659627,,,,,,,,,,,,,,,,,,,,,,,,,,,,,,,,,,,,,,,,572,2023-05-16_16h58.49.680,eb_02psyexp,2022.2.4,99.66661058375664,
180,0,180,0,,,,,,,,,,,,,,,,,,,,,,,,,,,,,,,,,,,,,,,,,,,,,,,,,,,,,,,,,,,1293.8208392619854,1293.8208392619854,1293.8208392619854,1293.8208392619854,1293.8208392619854,1293.8208392619854,l,1,0.9133504100609571,1294.7511043001432,1295.7817648155615,,,,,,,,,,,,,,,,,,,,,,,,,,,,,,,,,,,,,,,572,2023-05-16_16h58.49.680,eb_02psyexp,2022.2.4,99.66661058375664,
181,0,181,0,,,,,,,,,,,,,,,,,,,,,,,,,,,,,,,,,,,,,,,,,,,,,,,,,,,,,,,,,,,1295.7817648155615,1295.7817648155615,1295.7817648155615,1295.7817648155615,1295.7817648155615,1295.7817648155615,s,1,0.5994659600546584,1296.3921987540089,1297.4128715184052,,,,,,,,,,,,,,,,,,,,,,,,,,,,,,,,,,,,,,,572,2023-05-16_16h58.49.680,eb_02psyexp,2022.2.4,99.66661058375664,
182,0,182,0,,,,,,,,,,,,,,,,,,,,,,,,,,,,,,,,,,,,,,,,,,,,,,,,,,,,,,,,,,,1297.4128715184052,1297.4128715184052,1297.4128715184052,1297.4128715184052,1297.4128715184052,1297.4128715184052,l,1,0.5604479586472735,1297.983194776345,1299.0138785338495,,,,,,,,,,,,,,,,,,,,,,,,,,,,,,,,,,,,,,,572,2023-05-16_16h58.49.680,eb_02psyexp,2022.2.4,99.66661058375664,
183,0,183,0,,,,,,,,,,,,,,,,,,,,,,,,,,,,,,,,,,,,,,,,,,,,,,,,,,,,,,,,,,,1299.0138785338495,1299.0138785338495,1299.0138785338495,1299.0138785338495,1299.0138785338495,1299.0138785338495,s,1,0.5433420973131433,1299.5742261145497,1300.5949480795534,,,,,,,,,,,,,,,,,,,,,,,,,,,,,,,,,,,,,,,572,2023-05-16_16h58.49.680,eb_02psyexp,2022.2.4,99.66661058375664,
184,0,184,0,,,,,,,,,,,,,,,,,,,,,,,,,,,,,,,,,,,,,,,,,,,,,,,,,,,,,,,,,,,1300.5949480795534,1300.5949480795534,1300.5949480795534,1300.5949480795534,1300.5949480795534,1300.5949480795534,l,1,0.4903685913886875,1301.0952088737395,1302.1158647347474,,,,,,,,,,,,,,,,,,,,,,,,,,,,,,,,,,,,,,,572,2023-05-16_16h58.49.680,eb_02psyexp,2022.2.4,99.66661058375664,
185,0,185,0,,,,,,,,,,,,,,,,,,,,,,,,,,,,,,,,,,,,,,,,,,,,,,,,,,,,,,,,,,,1302.1158647347474,1302.1158647347474,1302.1158647347474,1302.1158647347474,1302.1158647347474,1302.1158647347474,s,1,0.5293612380046397,1302.6562407370657,,,,,,,,,,,,,,,,,,,,,,,,,,,,,,,,,,,,,,,,572,2023-05-16_16h58.49.680,eb_02psyexp,2022.2.4,99.66661058375664,
186,0,186,0,,,,,,,,,,,,,,,,,,,,,,,,,,,,,,,,,,,,,,,,,,,,,,,,,,,,,,,,,,,1303.6772108188597,1303.6772108188597,1303.6772108188597,1303.6772108188597,1303.6772108188597,1303.6772108188597,l,1,0.5040527371456847,1304.197537065018,1305.2179209636524,,,,,,,,,,,,,,,,,,,,,,,,,,,,,,,,,,,,,,,572,2023-05-16_16h58.49.680,eb_02psyexp,2022.2.4,99.66661058375664,
187,0,187,0,,,,,,,,,,,,,,,,,,,,,,,,,,,,,,,,,,,,,,,,,,,,,,,,,,,,,,,,,,,1305.2179209636524,1305.2179209636524,1305.2179209636524,1305.2179209636524,1305.2179209636524,1305.2179209636524,l,1,0.5793253484880552,1305.8082480973098,,,,,,,,,,,,,,,,,,,,,,,,,,,,,,,,,,,,,,,,572,2023-05-16_16h58.49.680,eb_02psyexp,2022.2.4,99.66661058375664,
188,0,188,0,,,,,,,,,,,,,,,,,,,,,,,,,,,,,,,,,,,,,,,,,,,,,,,,,,,,,,,,,,,1306.828916333965,1306.828916333965,1306.828916333965,1306.828916333965,1306.828916333965,1306.828916333965,l,1,0.5043458286672831,1307.3495740060462,1308.3699597157538,,,,,,,,,,,,,,,,,,,,,,,,,,,,,,,,,,,,,,,572,2023-05-16_16h58.49.680,eb_02psyexp,2022.2.4,99.66661058375664,
189,0,189,0,,,,,,,,,,,,,,,,,,,,,,,,,,,,,,,,,,,,,,,,,,,,,,,,,,,,,,,,,,,1308.3699597157538,1308.3699597157538,1308.3699597157538,1308.3699597157538,1308.3699597157538,1308.3699597157538,l,1,0.5153061245800927,1308.9002758259885,1309.9308958941838,,,,,,,,,,,,,,,,,,,,,,,,,,,,,,,,,,,,,,,572,2023-05-16_16h58.49.680,eb_02psyexp,2022.2.4,99.66661058375664,
190,0,190,0,,,,,,,,,,,,,,,,,,,,,,,,,,,,,,,,,,,,,,,,,,,,,,,,,,,,,,,,,,,1309.9308958941838,1309.9308958941838,1309.9308958941838,1309.9308958941838,1309.9308958941838,1309.9308958941838,s,1,0.41839092085137963,1310.3611862872494,1311.3918471045326,,,,,,,,,,,,,,,,,,,,,,,,,,,,,,,,,,,,,,,572,2023-05-16_16h58.49.680,eb_02psyexp,2022.2.4,99.66661058375664,
191,0,191,0,,,,,,,,,,,,,,,,,,,,,,,,,,,,,,,,,,,,,,,,,,,,,,,,,,,,,,,,,,,1311.3918471045326,1311.3918471045326,1311.3918471045326,1311.3918471045326,1311.3918471045326,1311.3918471045326,l,1,1.3164403376867995,1312.7227347886655,1313.7433812924428,,,,,,,,,,,,,,,,,,,,,,,,,,,,,,,,,,,,,,,572,2023-05-16_16h58.49.680,eb_02psyexp,2022.2.4,99.66661058375664,
192,0,192,0,,,,,,,,,,,,,,,,,,,,,,,,,,,,,,,,,,,,,,,,,,,,,,,,,,,,,,,,,,,1313.7433812924428,1313.7433812924428,1313.7433812924428,1313.7433812924428,1313.7433812924428,1313.7433812924428,l,1,0.44491706450935453,1314.2036907802103,1315.2343362034298,,,,,,,,,,,,,,,,,,,,,,,,,,,,,,,,,,,,,,,572,2023-05-16_16h58.49.680,eb_02psyexp,2022.2.4,99.66661058375664,
193,0,193,0,,,,,,,,,,,,,,,,,,,,,,,,,,,,,,,,,,,,,,,,,,,,,,,,,,,,,,,,,,,1315.2343362034298,1315.2343362034298,1315.2343362034298,1315.2343362034298,1315.2343362034298,1315.2343362034298,l,1,0.5299697575392202,1315.7746892655268,,,,,,,,,,,,,,,,,,,,,,,,,,,,,,,,,,,,,,,,572,2023-05-16_16h58.49.680,eb_02psyexp,2022.2.4,99.66661058375664,
194,0,194,0,,,,,,,,,,,,,,,,,,,,,,,,,,,,,,,,,,,,,,,,,,,,,,,,,,,,,,,,,,,1316.805673057097,1316.805673057097,1316.805673057097,1316.805673057097,1316.805673057097,1316.805673057097,s,1,0.6786302597029135,1317.4957980149193,1318.5165112265386,,,,,,,,,,,,,,,,,,,,,,,,,,,,,,,,,,,,,,,572,2023-05-16_16h58.49.680,eb_02psyexp,2022.2.4,99.66661058375664,
195,0,195,0,,,,,,,,,,,,,,,,,,,,,,,,,,,,,,,,,,,,,,,,,,,,,,,,,,,,,,,,,,,1318.5165112265386,1318.5165112265386,1318.5165112265386,1318.5165112265386,1318.5165112265386,1318.5165112265386,l,1,0.4878173969918862,1319.0167862073286,1320.0374275797512,,,,,,,,,,,,,,,,,,,,,,,,,,,,,,,,,,,,,,,572,2023-05-16_16h58.49.680,eb_02psyexp,2022.2.4,99.66661058375664,
196,0,196,0,,,,,,,,,,,,,,,,,,,,,,,,,,,,,,,,,,,,,,,,,,,,,,,,,,,,,,,,,,,1320.0374275797512,1320.0374275797512,1320.0374275797512,1320.0374275797512,1320.0374275797512,1320.0374275797512,s,1,0.534950804663822,1320.5878142735455,1321.6085395588307,,,,,,,,,,,,,,,,,,,,,,,,,,,,,,,,,,,,,,,572,2023-05-16_16h58.49.680,eb_02psyexp,2022.2.4,99.66661058375664,
197,0,197,0,,,,,,,,,,,,,,,,,,,,,,,,,,,,,,,,,,,,,,,,,,,,,,,,,,,,,,,,,,,1321.6085395588307,1321.6085395588307,1321.6085395588307,1321.6085395588307,1321.6085395588307,1321.6085395588307,l,1,0.3638402745127678,1321.9887028449448,1323.0093858720502,,,,,,,,,,,,,,,,,,,,,,,,,,,,,,,,,,,,,,,572,2023-05-16_16h58.49.680,eb_02psyexp,2022.2.4,99.66661058375664,
198,0,198,0,,,,,,,,,,,,,,,,,,,,,,,,,,,,,,,,,,,,,,,,,,,,,,,,,,,,,,,,,,,1323.0093858720502,1323.0093858720502,1323.0093858720502,1323.0093858720502,1323.0093858720502,1323.0093858720502,s,1,0.49896996829193085,1323.5196917678695,1324.5403901890386,,,,,,,,,,,,,,,,,,,,,,,,,,,,,,,,,,,,,,,572,2023-05-16_16h58.49.680,eb_02psyexp,2022.2.4,99.66661058375664,
199,0,199,0,,,,,0,0,0,0,,,,,,,,,,,,,,,,,,,,,,,,,,,,,,,,,,,,,,,,,,,,,,,,,,,1324.5403901890386,1324.5403901890386,1324.5403901890386,1324.5403901890386,1324.5403901890386,1324.5403901890386,l,1,0.4559742525452748,1325.0106551304925,1326.0113219062332,1326.0113219062332,1326.0113219062332,space,2.6320754890330136,,,,,,,,,,,,,,,,,,,,,,,,,,,,,,,,,,,572,2023-05-16_16h58.49.680,eb_02psyexp,2022.2.4,99.66661058375664,
199,0,199,0,,,,,,,,,,,,,,,,,,,,,,,,,,,,,,,,,,,,,,,,,,,,,,,,,,,,,,,,,,,,,,,,,,,,,,,,,,,,,,,,,,,,,,,,,,,,,,,,,,,,,,,,,,,,572,2023-05-16_16h58.49.680,eb_02psyexp,2022.2.4,99.66661058375664,
200,0,200,0,,,,,,,,,,,,,,,,,,,,,,,,,,,,,,,,,,,,,,,,,,,,,,,,,,,,,,,,,,,1328.6733577667037,1328.6733577667037,1328.6733577667037,1328.6733577667037,1328.6733577667037,1328.6733577667037,l,1,0.7300522819859907,1329.413787920028,1330.4341621595668,,,,,,,,,,,,,,,,,,,,,,,,,,,,,,,,,,,,,,,572,2023-05-16_16h58.49.680,eb_02psyexp,2022.2.4,99.66661058375664,
201,0,201,0,,,,,,,,,,,,,,,,,,,,,,,,,,,,,,,,,,,,,,,,,,,,,,,,,,,,,,,,,,,1330.4341621595668,1330.4341621595668,1330.4341621595668,1330.4341621595668,1330.4341621595668,1330.4341621595668,s,1,0.5212382855825126,1330.9745152216638,1331.9952109262813,,,,,,,,,,,,,,,,,,,,,,,,,,,,,,,,,,,,,,,572,2023-05-16_16h58.49.680,eb_02psyexp,2022.2.4,99.66661058375664,
202,0,202,0,,,,,,,,,,,,,,,,,,,,,,,,,,,,,,,,,,,,,,,,,,,,,,,,,,,,,,,,,,,1331.9952109262813,1331.9952109262813,1331.9952109262813,1331.9952109262813,1331.9952109262813,1331.9952109262813,l,1,0.5041795120341703,1332.51549431053,1333.5461656923871,,,,,,,,,,,,,,,,,,,,,,,,,,,,,,,,,,,,,,,572,2023-05-16_16h58.49.680,eb_02psyexp,2022.2.4,99.66661058375664,
203,0,203,0,,,,,,,,,,,,,,,,,,,,,,,,,,,,,,,,,,,,,,,,,,,,,,,,,,,,,,,,,,,1333.5461656923871,1333.5461656923871,1333.5461656923871,1333.5461656923871,1333.5461656923871,1333.5461656923871,s,1,0.5852372858207673,1334.1465605660342,1335.1672614020063,,,,,,,,,,,,,,,,,,,,,,,,,,,,,,,,,,,,,,,572,2023-05-16_16h58.49.680,eb_02psyexp,2022.2.4,99.66661058375664,
204,0,204,0,,,,,,,,,,,,,,,,,,,,,,,,,,,,,,,,,,,,,,,,,,,,,,,,,,,,,,,,,,,1335.1672614020063,1335.1672614020063,1335.1672614020063,1335.1672614020063,1335.1672614020063,1335.1672614020063,l,1,0.612143452395685,1335.7976104737027,,,,,,,,,,,,,,,,,,,,,,,,,,,,,,,,,,,,,,,,572,2023-05-16_16h58.49.680,eb_02psyexp,2022.2.4,99.66661058375664,
205,0,205,0,,,,,,,,,,,,,,,,,,,,,,,,,,,,,,,,,,,,,,,,,,,,,,,,,,,,,,,,,,,1336.828561665956,1336.828561665956,1336.828561665956,1336.828561665956,1336.828561665956,1336.828561665956,l,0,0.4628738269675523,1337.3086030670675,1338.3392472829437,,,,,,,,,,,,,,,,,,,,,,,,,,,,,,,,,,,,,,,572,2023-05-16_16h58.49.680,eb_02psyexp,2022.2.4,99.66661058375664,
206,0,206,0,,,,,,,,,,,,,,,,,,,,,,,,,,,,,,,,,,,,,,,,,,,,,,,,,,,,,,,,,,,1338.3392472829437,1338.3392472829437,1338.3392472829437,1338.3392472829437,1338.3392472829437,1338.3392472829437,l,1,0.9681772446492687,1339.3198857335374,1340.3505637559574,,,,,,,,,,,,,,,,,,,,,,,,,,,,,,,,,,,,,,,572,2023-05-16_16h58.49.680,eb_02psyexp,2022.2.4,99.66661058375664,
207,0,207,0,,,,,,,,,,,,,,,,,,,,,,,,,,,,,,,,,,,,,,,,,,,,,,,,,,,,,,,,,,,1340.3505637559574,1340.3505637559574,1340.3505637559574,1340.3505637559574,1340.3505637559574,1340.3505637559574,l,1,0.5088892005151138,1340.8708924169187,1341.891613778309,,,,,,,,,,,,,,,,,,,,,,,,,,,,,,,,,,,,,,,572,2023-05-16_16h58.49.680,eb_02psyexp,2022.2.4,99.66661058375664,
208,0,208,0,,,,,,,,,,,,,,,,,,,,,,,,,,,,,,,,,,,,,,,,,,,,,,,,,,,,,,,,,,,1341.891613778309,1341.891613778309,1341.891613778309,1341.891613778309,1341.891613778309,1341.891613778309,s,1,0.5428678987082094,1342.4519369094633,1343.4825901807053,,,,,,,,,,,,,,,,,,,,,,,,,,,,,,,,,,,,,,,572,2023-05-16_16h58.49.680,eb_02psyexp,2022.2.4,99.66661058375664,
209,0,209,0,,,,,,,,,,,,,,,,,,,,,,,,,,,,,,,,,,,,,,,,,,,,,,,,,,,,,,,,,,,1343.4825901807053,1343.4825901807053,1343.4825901807053,1343.4825901807053,1343.4825901807053,1343.4825901807053,s,1,0.4159000953659415,1343.9128654814558,1344.9335907668574,,,,,,,,,,,,,,,,,,,,,,,,,,,,,,,,,,,,,,,572,2023-05-16_16h58.49.680,eb_02psyexp,2022.2.4,99.66661058375664,
210,0,210,0,,,,,,,,,,,,,,,,,,,,,,,,,,,,,,,,,,,,,,,,,,,,,,,,,,,,,,,,,,,1344.9335907668574,1344.9335907668574,1344.9335907668574,1344.9335907668574,1344.9335907668574,1344.9335907668574,s,1,0.4928500596433878,1345.443838406587,1346.4645021156175,,,,,,,,,,,,,,,,,,,,,,,,,,,,,,,,,,,,,,,572,2023-05-16_16h58.49.680,eb_02psyexp,2022.2.4,99.66661058375664,
211,0,211,0,,,,,,,,,,,,,,,,,,,,,,,,,,,,,,,,,,,,,,,,,,,,,,,,,,,,,,,,,,,1346.4645021156175,1346.4645021156175,1346.4645021156175,1346.4645021156175,1346.4645021156175,1346.4645021156175,l,1,0.6020038733258843,1347.0849156554323,1348.1156148070004,,,,,,,,,,,,,,,,,,,,,,,,,,,,,,,,,,,,,,,572,2023-05-16_16h58.49.680,eb_02psyexp,2022.2.4,99.66661058375664,
212,0,212,0,,,,,,,,,,,,,,,,,,,,,,,,,,,,,,,,,,,,,,,,,,,,,,,,,,,,,,,,,,,1348.1156148070004,1348.1156148070004,1348.1156148070004,1348.1156148070004,1348.1156148070004,1348.1156148070004,l,1,0.5588946638163179,1348.685947724036,,,,,,,,,,,,,,,,,,,,,,,,,,,,,,,,,,,,,,,,572,2023-05-16_16h58.49.680,eb_02psyexp,2022.2.4,99.66661058375664,
213,0,213,0,,,,,,,,,,,,,,,,,,,,,,,,,,,,,,,,,,,,,,,,,,,,,,,,,,,,,,,,,,,1349.7169372505741,1349.7169372505741,1349.7169372505741,1349.7169372505741,1349.7169372505741,1349.7169372505741,s,1,0.693567062378861,1350.4273845306598,1351.4477777864086,,,,,,,,,,,,,,,,,,,,,,,,,,,,,,,,,,,,,,,572,2023-05-16_16h58.49.680,eb_02psyexp,2022.2.4,99.66661058375664,
214,0,214,0,,,,,,,,,,,,,,,,,,,,,,,,,,,,,,,,,,,,,,,,,,,,,,,,,,,,,,,,,,,1351.4477777864086,1351.4477777864086,1351.4477777864086,1351.4477777864086,1351.4477777864086,1351.4477777864086,l,1,0.5307252757484093,1351.9980944520794,1353.0188094747718,,,,,,,,,,,,,,,,,,,,,,,,,,,,,,,,,,,,,,,572,2023-05-16_16h58.49.680,eb_02psyexp,2022.2.4,99.66661058375664,
215,0,215,0,,,,,,,,,,,,,,,,,,,,,,,,,,,,,,,,,,,,,,,,,,,,,,,,,,,,,,,,,,,1353.0188094747718,1353.0188094747718,1353.0188094747718,1353.0188094747718,1353.0188094747718,1353.0188094747718,l,1,0.6157109591877088,1353.6491636778228,1354.6698765875772,,,,,,,,,,,,,,,,,,,,,,,,,,,,,,,,,,,,,,,572,2023-05-16_16h58.49.680,eb_02psyexp,2022.2.4,99.66661058375664,
216,0,216,0,,,,,,,,,,,,,,,,,,,,,,,,,,,,,,,,,,,,,,,,,,,,,,,,,,,,,,,,,,,1354.6698765875772,1354.6698765875772,1354.6698765875772,1354.6698765875772,1354.6698765875772,1354.6698765875772,l,1,0.5326688559725881,1355.2201727278298,1356.2408768839668,,,,,,,,,,,,,,,,,,,,,,,,,,,,,,,,,,,,,,,572,2023-05-16_16h58.49.680,eb_02psyexp,2022.2.4,99.66661058375664,
217,0,217,0,,,,,,,,,,,,,,,,,,,,,,,,,,,,,,,,,,,,,,,,,,,,,,,,,,,,,,,,,,,1356.2408768839668,1356.2408768839668,1356.2408768839668,1356.2408768839668,1356.2408768839668,1356.2408768839668,l,1,0.5607639902736992,1356.8212063056417,,,,,,,,,,,,,,,,,,,,,,,,,,,,,,,,,,,,,,,,572,2023-05-16_16h58.49.680,eb_02psyexp,2022.2.4,99.66661058375664,
218,0,218,0,,,,,,,,,,,,,,,,,,,,,,,,,,,,,,,,,,,,,,,,,,,,,,,,,,,,,,,,,,,1357.8421763873193,1357.8421763873193,1357.8421763873193,1357.8421763873193,1357.8421763873193,1357.8421763873193,l,1,0.5033261961070821,1358.362542778952,1359.382856649463,,,,,,,,,,,,,,,,,,,,,,,,,,,,,,,,,,,,,,,572,2023-05-16_16h58.49.680,eb_02psyexp,2022.2.4,99.66661058375664,
219,0,219,0,,,,,,,,,,,,,,,,,,,,,,,,,,,,,,,,,,,,,,,,,,,,,,,,,,,,,,,,,,,1359.382856649463,1359.382856649463,1359.382856649463,1359.382856649463,1359.382856649463,1359.382856649463,l,1,0.5946934878593311,1359.9932465186575,1361.0139736151323,,,,,,,,,,,,,,,,,,,,,,,,,,,,,,,,,,,,,,,572,2023-05-16_16h58.49.680,eb_02psyexp,2022.2.4,99.66661058375664,
220,0,220,0,,,,,,,,,,,,,,,,,,,,,,,,,,,,,,,,,,,,,,,,,,,,,,,,,,,,,,,,,,,1361.0139736151323,1361.0139736151323,1361.0139736151323,1361.0139736151323,1361.0139736151323,1361.0139736151323,l,1,0.5955975138349459,1361.624319414841,1362.6549932115013,,,,,,,,,,,,,,,,,,,,,,,,,,,,,,,,,,,,,,,572,2023-05-16_16h58.49.680,eb_02psyexp,2022.2.4,99.66661058375664,
221,0,221,0,,,,,,,,,,,,,,,,,,,,,,,,,,,,,,,,,,,,,,,,,,,,,,,,,,,,,,,,,,,1362.6549932115013,1362.6549932115013,1362.6549932115013,1362.6549932115013,1362.6549932115013,1362.6549932115013,s,1,0.4745688138063997,1363.145280139288,1364.175954539678,,,,,,,,,,,,,,,,,,,,,,,,,,,,,,,,,,,,,,,572,2023-05-16_16h58.49.680,eb_02psyexp,2022.2.4,99.66661058375664,
222,0,222,0,,,,,,,,,,,,,,,,,,,,,,,,,,,,,,,,,,,,,,,,,,,,,,,,,,,,,,,,,,,1364.175954539678,1364.175954539678,1364.175954539678,1364.175954539678,1364.175954539678,1364.175954539678,l,1,0.7616273879539222,1364.9564503986621,1365.9771207482554,,,,,,,,,,,,,,,,,,,,,,,,,,,,,,,,,,,,,,,572,2023-05-16_16h58.49.680,eb_02psyexp,2022.2.4,99.66661058375664,
223,0,223,0,,,,,,,,,,,,,,,,,,,,,,,,,,,,,,,,,,,,,,,,,,,,,,,,,,,,,,,,,,,1365.9771207482554,1365.9771207482554,1365.9771207482554,1365.9771207482554,1365.9771207482554,1365.9771207482554,l,1,0.5284726060926914,1366.5174590200186,1367.5481346276356,,,,,,,,,,,,,,,,,,,,,,,,,,,,,,,,,,,,,,,572,2023-05-16_16h58.49.680,eb_02psyexp,2022.2.4,99.66661058375664,
224,0,224,0,,,,,,,,,,,,,,,,,,,,,,,,,,,,,,,,,,,,,,,,,,,,,,,,,,,,,,,,,,,1367.5481346276356,1367.5481346276356,1367.5481346276356,1367.5481346276356,1367.5481346276356,1367.5481346276356,s,1,0.6214728794293478,1368.188562305877,1369.2092085079057,,,,,,,,,,,,,,,,,,,,,,,,,,,,,,,,,,,,,,,572,2023-05-16_16h58.49.680,eb_02psyexp,2022.2.4,99.66661058375664,
225,0,225,0,,,,,,,,,,,,,,,,,,,,,,,,,,,,,,,,,,,,,,,,,,,,,,,,,,,,,,,,,,,1369.2092085079057,1369.2092085079057,1369.2092085079057,1369.2092085079057,1369.2092085079057,1369.2092085079057,l,1,0.51241746742744,1369.739548765705,,,,,,,,,,,,,,,,,,,,,,,,,,,,,,,,,,,,,,,,572,2023-05-16_16h58.49.680,eb_02psyexp,2022.2.4,99.66661058375664,
226,0,226,0,,,,,,,,,,,,,,,,,,,,,,,,,,,,,,,,,,,,,,,,,,,,,,,,,,,,,,,,,,,1370.7702032442903,1370.7702032442903,1370.7702032442903,1370.7702032442903,1370.7702032442903,1370.7702032442903,s,1,0.4874415999511257,1371.2708603610517,1372.2912131695775,,,,,,,,,,,,,,,,,,,,,,,,,,,,,,,,,,,,,,,572,2023-05-16_16h58.49.680,eb_02psyexp,2022.2.4,99.66661058375664,
227,0,227,0,,,,,,,,,,,,,,,,,,,,,,,,,,,,,,,,,,,,,,,,,,,,,,,,,,,,,,,,,,,1372.2912131695775,1372.2912131695775,1372.2912131695775,1372.2912131695775,1372.2912131695775,1372.2912131695775,l,1,0.49443474621511996,1372.8015269134194,,,,,,,,,,,,,,,,,,,,,,,,,,,,,,,,,,,,,,,,572,2023-05-16_16h58.49.680,eb_02psyexp,2022.2.4,99.66661058375664,
228,0,228,0,,,,,,,,,,,,,,,,,,,,,,,,,,,,,,,,,,,,,,,,,,,,,,,,,,,,,,,,,,,1373.8221888112603,1373.8221888112603,1373.8221888112603,1373.8221888112603,1373.8221888112603,1373.8221888112603,l,1,0.5624410414602607,1374.402874410036,1375.4332140642218,,,,,,,,,,,,,,,,,,,,,,,,,,,,,,,,,,,,,,,572,2023-05-16_16h58.49.680,eb_02psyexp,2022.2.4,99.66661058375664,
229,0,229,0,,,,,,,,,,,,,,,,,,,,,,,,,,,,,,,,,,,,,,,,,,,,,,,,,,,,,,,,,,,1375.4332140642218,1375.4332140642218,1375.4332140642218,1375.4332140642218,1375.4332140642218,1375.4332140642218,l,1,0.5594144411152229,1376.0035868247505,1377.034262432484,,,,,,,,,,,,,,,,,,,,,,,,,,,,,,,,,,,,,,,572,2023-05-16_16h58.49.680,eb_02psyexp,2022.2.4,99.66661058375664,
230,0,230,0,,,,,,,,,,,,,,,,,,,,,,,,,,,,,,,,,,,,,,,,,,,,,,,,,,,,,,,,,,,1377.034262432484,1377.034262432484,1377.034262432484,1377.034262432484,1377.034262432484,1377.034262432484,s,1,0.54238856874872,1377.5946414050413,1378.6153437502217,,,,,,,,,,,,,,,,,,,,,,,,,,,,,,,,,,,,,,,572,2023-05-16_16h58.49.680,eb_02psyexp,2022.2.4,99.66661058375664,
231,0,231,0,,,,,,,,,,,,,,,,,,,,,,,,,,,,,,,,,,,,,,,,,,,,,,,,,,,,,,,,,,,1378.6153437502217,1378.6153437502217,1378.6153437502217,1378.6153437502217,1378.6153437502217,1378.6153437502217,l,1,0.5133145509753376,1379.1456145836273,1380.2363938811468,,,,,,,,,,,,,,,,,,,,,,,,,,,,,,,,,,,,,,,572,2023-05-16_16h58.49.680,eb_02psyexp,2022.2.4,99.66661058375664,
232,0,232,0,,,,,,,,,,,,,,,,,,,,,,,,,,,,,,,,,,,,,,,,,,,,,,,,,,,,,,,,,,,1380.2363938811468,1380.2363938811468,1380.2363938811468,1380.2363938811468,1380.2363938811468,1380.2363938811468,l,1,0.5563045315211639,1380.80669570819,,,,,,,,,,,,,,,,,,,,,,,,,,,,,,,,,,,,,,,,572,2023-05-16_16h58.49.680,eb_02psyexp,2022.2.4,99.66661058375664,
233,0,233,0,,,,,,,,,,,,,,,,,,,,,,,,,,,,,,,,,,,,,,,,,,,,,,,,,,,,,,,,,,,1381.837700628792,1381.837700628792,1381.837700628792,1381.837700628792,1381.837700628792,1381.837700628792,s,1,0.666974512860179,1382.5178242524853,1383.5484708830481,,,,,,,,,,,,,,,,,,,,,,,,,,,,,,,,,,,,,,,572,2023-05-16_16h58.49.680,eb_02psyexp,2022.2.4,99.66661058375664,
234,0,234,0,,,,,,,,,,,,,,,,,,,,,,,,,,,,,,,,,,,,,,,,,,,,,,,,,,,,,,,,,,,1383.5484708830481,1383.5484708830481,1383.5484708830481,1383.5484708830481,1383.5484708830481,1383.5484708830481,l,1,0.7881969973677769,1384.3489697122714,1385.3796531679109,,,,,,,,,,,,,,,,,,,,,,,,,,,,,,,,,,,,,,,572,2023-05-16_16h58.49.680,eb_02psyexp,2022.2.4,99.66661058375664,
235,0,235,0,,,,,,,,,,,,,,,,,,,,,,,,,,,,,,,,,,,,,,,,,,,,,,,,,,,,,,,,,,,1385.3796531679109,1385.3796531679109,1385.3796531679109,1385.3796531679109,1385.3796531679109,1385.3796531679109,s,1,0.5490708146244287,1385.9400134260068,1386.9607441446278,,,,,,,,,,,,,,,,,,,,,,,,,,,,,,,,,,,,,,,572,2023-05-16_16h58.49.680,eb_02psyexp,2022.2.4,99.66661058375664,
236,0,236,0,,,,,,,,,,,,,,,,,,,,,,,,,,,,,,,,,,,,,,,,,,,,,,,,,,,,,,,,,,,1386.9607441446278,1386.9607441446278,1386.9607441446278,1386.9607441446278,1386.9607441446278,1386.9607441446278,l,1,0.49598562612663954,1387.4710150264436,1388.5017123669386,,,,,,,,,,,,,,,,,,,,,,,,,,,,,,,,,,,,,,,572,2023-05-16_16h58.49.680,eb_02psyexp,2022.2.4,99.66661058375664,
237,0,237,0,,,,,,,,,,,,,,,,,,,,,,,,,,,,,,,,,,,,,,,,,,,,,,,,,,,,,,,,,,,1388.5017123669386,1388.5017123669386,1388.5017123669386,1388.5017123669386,1388.5017123669386,1388.5017123669386,s,1,0.5380332465283573,1389.052023297525,1390.072741036769,,,,,,,,,,,,,,,,,,,,,,,,,,,,,,,,,,,,,,,572,2023-05-16_16h58.49.680,eb_02psyexp,2022.2.4,99.66661058375664,
238,0,238,0,,,,,,,,,,,,,,,,,,,,,,,,,,,,,,,,,,,,,,,,,,,,,,,,,,,,,,,,,,,1390.072741036769,1390.072741036769,1390.072741036769,1390.072741036769,1390.072741036769,1390.072741036769,l,1,0.5910520289326087,1390.6830756682903,1391.7037870688364,,,,,,,,,,,,,,,,,,,,,,,,,,,,,,,,,,,,,,,572,2023-05-16_16h58.49.680,eb_02psyexp,2022.2.4,99.66661058375664,
239,0,239,0,,,,,,,,,,,,,,,,,,,,,,,,,,,,,,,,,,,,,,,,,,,,,,,,,,,,,,,,,,,1391.7037870688364,1391.7037870688364,1391.7037870688364,1391.7037870688364,1391.7037870688364,1391.7037870688364,l,1,0.5359607782447711,1392.2540826052427,1393.2748015519464,,,,,,,,,,,,,,,,,,,,,,,,,,,,,,,,,,,,,,,572,2023-05-16_16h58.49.680,eb_02psyexp,2022.2.4,99.66661058375664,
240,0,240,0,,,,,,,,,,,,,,,,,,,,,,,,,,,,,,,,,,,,,,,,,,,,,,,,,,,,,,,,,,,1393.2748015519464,1393.2748015519464,1393.2748015519464,1393.2748015519464,1393.2748015519464,1393.2748015519464,l,1,0.4929388021118939,1393.785087827826,,,,,,,,,,,,,,,,,,,,,,,,,,,,,,,,,,,,,,,,572,2023-05-16_16h58.49.680,eb_02psyexp,2022.2.4,99.66661058375664,
241,0,241,0,,,,,,,,,,,,,,,,,,,,,,,,,,,,,,,,,,,,,,,,,,,,,,,,,,,,,,,,,,,1394.8060757183703,1394.8060757183703,1394.8060757183703,1394.8060757183703,1394.8060757183703,1394.8060757183703,l,1,0.4496889329748228,1395.2663547198754,1396.2867724250536,,,,,,,,,,,,,,,,,,,,,,,,,,,,,,,,,,,,,,,572,2023-05-16_16h58.49.680,eb_02psyexp,2022.2.4,99.66661058375664,
242,0,242,0,,,,,,,,,,,,,,,,,,,,,,,,,,,,,,,,,,,,,,,,,,,,,,,,,,,,,,,,,,,1396.2867724250536,1396.2867724250536,1396.2867724250536,1396.2867724250536,1396.2867724250536,1396.2867724250536,l,1,0.4090159150073305,1396.7069688175106,,,,,,,,,,,,,,,,,,,,,,,,,,,,,,,,,,,,,,,,572,2023-05-16_16h58.49.680,eb_02psyexp,2022.2.4,99.66661058375664,
243,0,243,0,,,,,,,,,,,,,,,,,,,,,,,,,,,,,,,,,,,,,,,,,,,,,,,,,,,,,,,,,,,1397.7279497657437,1397.7279497657437,1397.7279497657437,1397.7279497657437,1397.7279497657437,1397.7279497657437,l,1,0.43181638524401933,1398.1782319606282,1399.198638195754,,,,,,,,,,,,,,,,,,,,,,,,,,,,,,,,,,,,,,,572,2023-05-16_16h58.49.680,eb_02psyexp,2022.2.4,99.66661058375664,
244,0,244,0,,,,,,,,,,,,,,,,,,,,,,,,,,,,,,,,,,,,,,,,,,,,,,,,,,,,,,,,,,,1399.198638195754,1399.198638195754,1399.198638195754,1399.198638195754,1399.198638195754,1399.198638195754,l,1,0.38515445950906724,1399.5988554639043,,,,,,,,,,,,,,,,,,,,,,,,,,,,,,,,,,,,,,,,572,2023-05-16_16h58.49.680,eb_02psyexp,2022.2.4,99.66661058375664,
245,0,245,0,,,,,,,,,,,,,,,,,,,,,,,,,,,,,,,,,,,,,,,,,,,,,,,,,,,,,,,,,,,1400.6298132967204,1400.6298132967204,1400.6298132967204,1400.6298132967204,1400.6298132967204,1400.6298132967204,s,1,0.6259800299303606,1401.270242786035,1402.2906366455136,,,,,,,,,,,,,,,,,,,,,,,,,,,,,,,,,,,,,,,572,2023-05-16_16h58.49.680,eb_02psyexp,2022.2.4,99.66661058375664,
246,0,246,0,,,,,,,,,,,,,,,,,,,,,,,,,,,,,,,,,,,,,,,,,,,,,,,,,,,,,,,,,,,1402.2906366455136,1402.2906366455136,1402.2906366455136,1402.2906366455136,1402.2906366455136,1402.2906366455136,l,1,0.4851720269070938,1402.7908832529793,,,,,,,,,,,,,,,,,,,,,,,,,,,,,,,,,,,,,,,,572,2023-05-16_16h58.49.680,eb_02psyexp,2022.2.4,99.66661058375664,
247,0,247,0,,,,,,,,,,,,,,,,,,,,,,,,,,,,,,,,,,,,,,,,,,,,,,,,,,,,,,,,,,,1403.8115726187825,1403.8115726187825,1403.8115726187825,1403.8115726187825,1403.8115726187825,1403.8115726187825,s,1,0.5872729287948459,1404.4122448880225,1405.4326064501656,,,,,,,,,,,,,,,,,,,,,,,,,,,,,,,,,,,,,,,572,2023-05-16_16h58.49.680,eb_02psyexp,2022.2.4,99.66661058375664,
248,0,248,0,,,,,,,,,,,,,,,,,,,,,,,,,,,,,,,,,,,,,,,,,,,,,,,,,,,,,,,,,,,1405.4326064501656,1405.4326064501656,1405.4326064501656,1405.4326064501656,1405.4326064501656,1405.4326064501656,s,1,0.5982154159573838,1406.0429863583995,1407.0736523070373,,,,,,,,,,,,,,,,,,,,,,,,,,,,,,,,,,,,,,,572,2023-05-16_16h58.49.680,eb_02psyexp,2022.2.4,99.66661058375664,
249,0,249,0,,,,,,,,,,,,,,,,,,,,,,,,,,,,,,,,,,,,,,,,,,,,,,,,,,,,,,,,,,,1407.0736523070373,1407.0736523070373,1407.0736523070373,1407.0736523070373,1407.0736523070373,1407.0736523070373,s,1,0.549155633081682,1407.6340089429868,1408.6546868387377,,,,,,,,,,,,,,,,,,,,,,,,,,,,,,,,,,,,,,,572,2023-05-16_16h58.49.680,eb_02psyexp,2022.2.4,99.66661058375664,
250,0,250,0,,,,,,,,,,,,,,,,,,,,,,,,,,,,,,,,,,,,,,,,,,,,,,,,,,,,,,,,,,,1408.6546868387377,1408.6546868387377,1408.6546868387377,1408.6546868387377,1408.6546868387377,1408.6546868387377,s,1,0.4721428849734366,1409.1450060639763,1410.165661019506,,,,,,,,,,,,,,,,,,,,,,,,,,,,,,,,,,,,,,,572,2023-05-16_16h58.49.680,eb_02psyexp,2022.2.4,99.66661058375664,
251,0,251,0,,,,,,,,,,,,,,,,,,,,,,,,,,,,,,,,,,,,,,,,,,,,,,,,,,,,,,,,,,,1410.165661019506,1410.165661019506,1410.165661019506,1410.165661019506,1410.165661019506,1410.165661019506,l,1,0.4731902873609215,1410.6559603230562,,,,,,,,,,,,,,,,,,,,,,,,,,,,,,,,,,,,,,,,572,2023-05-16_16h58.49.680,eb_02psyexp,2022.2.4,99.66661058375664,
252,0,252,0,,,,,,,,,,,,,,,,,,,,,,,,,,,,,,,,,,,,,,,,,,,,,,,,,,,,,,,,,,,1411.6769563633716,1411.6769563633716,1411.6769563633716,1411.6769563633716,1411.6769563633716,1411.6769563633716,l,1,0.3699284893227741,1412.0572026568698,1413.0875495553482,,,,,,,,,,,,,,,,,,,,,,,,,,,,,,,,,,,,,,,572,2023-05-16_16h58.49.680,eb_02psyexp,2022.2.4,99.66661058375664,
253,0,253,0,,,,,,,,,,,,,,,,,,,,,,,,,,,,,,,,,,,,,,,,,,,,,,,,,,,,,,,,,,,1413.0875495553482,1413.0875495553482,1413.0875495553482,1413.0875495553482,1413.0875495553482,1413.0875495553482,s,1,0.47132186649832875,1413.577877836069,1414.598574446165,,,,,,,,,,,,,,,,,,,,,,,,,,,,,,,,,,,,,,,572,2023-05-16_16h58.49.680,eb_02psyexp,2022.2.4,99.66661058375664,
254,0,254,0,,,,,,,,,,,,,,,,,,,,,,,,,,,,,,,,,,,,,,,,,,,,,,,,,,,,,,,,,,,1414.598574446165,1414.598574446165,1414.598574446165,1414.598574446165,1414.598574446165,1414.598574446165,l,1,0.40027991542592645,1415.0087749375962,1416.0294428725028,,,,,,,,,,,,,,,,,,,,,,,,,,,,,,,,,,,,,,,572,2023-05-16_16h58.49.680,eb_02psyexp,2022.2.4,99.66661058375664,
255,0,255,0,,,,,,,,,,,,,,,,,,,,,,,,,,,,,,,,,,,,,,,,,,,,,,,,,,,,,,,,,,,1416.0294428725028,1416.0294428725028,1416.0294428725028,1416.0294428725028,1416.0294428725028,1416.0294428725028,l,1,0.5294306621653959,1416.5697905013803,1417.5904496826697,,,,,,,,,,,,,,,,,,,,,,,,,,,,,,,,,,,,,,,572,2023-05-16_16h58.49.680,eb_02psyexp,2022.2.4,99.66661058375664,
256,0,256,0,,,,,,,,,,,,,,,,,,,,,,,,,,,,,,,,,,,,,,,,,,,,,,,,,,,,,,,,,,,1417.5904496826697,1417.5904496826697,1417.5904496826697,1417.5904496826697,1417.5904496826697,1417.5904496826697,s,1,0.560457919491455,1418.1608151989058,1419.1814876614371,,,,,,,,,,,,,,,,,,,,,,,,,,,,,,,,,,,,,,,572,2023-05-16_16h58.49.680,eb_02psyexp,2022.2.4,99.66661058375664,
257,0,257,0,,,,,,,,,,,,,,,,,,,,,,,,,,,,,,,,,,,,,,,,,,,,,,,,,,,,,,,,,,,1419.1814876614371,1419.1814876614371,1419.1814876614371,1419.1814876614371,1419.1814876614371,1419.1814876614371,l,1,0.47340580471791327,1419.671813527355,,,,,,,,,,,,,,,,,,,,,,,,,,,,,,,,,,,,,,,,572,2023-05-16_16h58.49.680,eb_02psyexp,2022.2.4,99.66661058375664,
258,0,258,0,,,,,,,,,,,,,,,,,,,,,,,,,,,,,,,,,,,,,,,,,,,,,,,,,,,,,,,,,,,1420.6927836090326,1420.6927836090326,1420.6927836090326,1420.6927836090326,1420.6927836090326,1420.6927836090326,s,1,0.569129626150243,1421.2731625332963,1422.293496627477,,,,,,,,,,,,,,,,,,,,,,,,,,,,,,,,,,,,,,,572,2023-05-16_16h58.49.680,eb_02psyexp,2022.2.4,99.66661058375664,
259,0,259,0,,,,,,,,,,,,,,,,,,,,,,,,,,,,,,,,,,,,,,,,,,,,,,,,,,,,,,,,,,,1422.293496627477,1422.293496627477,1422.293496627477,1422.293496627477,1422.293496627477,1422.293496627477,s,1,0.5204936338122934,1422.8238453369122,1423.8448211537907,,,,,,,,,,,,,,,,,,,,,,,,,,,,,,,,,,,,,,,572,2023-05-16_16h58.49.680,eb_02psyexp,2022.2.4,99.66661058375664,
260,0,260,0,,,,,,,,,,,,,,,,,,,,,,,,,,,,,,,,,,,,,,,,,,,,,,,,,,,,,,,,,,,1423.8448211537907,1423.8448211537907,1423.8448211537907,1423.8448211537907,1423.8448211537907,1423.8448211537907,l,1,0.5530959186144173,1424.4151945179328,1425.4355711722746,,,,,,,,,,,,,,,,,,,,,,,,,,,,,,,,,,,,,,,572,2023-05-16_16h58.49.680,eb_02psyexp,2022.2.4,99.66661058375664,
261,0,261,0,,,,,,,,,,,,,,,,,,,,,,,,,,,,,,,,,,,,,,,,,,,,,,,,,,,,,,,,,,,1425.4355711722746,1425.4355711722746,1425.4355711722746,1425.4355711722746,1425.4355711722746,1425.4355711722746,l,1,0.4743584276875481,1425.925869872095,1426.9465399198234,,,,,,,,,,,,,,,,,,,,,,,,,,,,,,,,,,,,,,,572,2023-05-16_16h58.49.680,eb_02psyexp,2022.2.4,99.66661058375664,
262,0,262,0,,,,,,,,,,,,,,,,,,,,,,,,,,,,,,,,,,,,,,,,,,,,,,,,,,,,,,,,,,,1426.9465399198234,1426.9465399198234,1426.9465399198234,1426.9465399198234,1426.9465399198234,1426.9465399198234,l,1,0.45144687860738486,1427.416795504163,1428.4375250153244,,,,,,,,,,,,,,,,,,,,,,,,,,,,,,,,,,,,,,,572,2023-05-16_16h58.49.680,eb_02psyexp,2022.2.4,99.66661058375664,
263,0,263,0,,,,,,,,,,,,,,,,,,,,,,,,,,,,,,,,,,,,,,,,,,,,,,,,,,,,,,,,,,,1428.4375250153244,1428.4375250153244,1428.4375250153244,1428.4375250153244,1428.4375250153244,1428.4375250153244,l,1,0.44842148548923433,1428.8977511939593,1429.9184233545093,,,,,,,,,,,,,,,,,,,,,,,,,,,,,,,,,,,,,,,572,2023-05-16_16h58.49.680,eb_02psyexp,2022.2.4,99.66661058375664,
264,0,264,0,,,,,,,,,,,,,,,,,,,,,,,,,,,,,,,,,,,,,,,,,,,,,,,,,,,,,,,,,,,1429.9184233545093,1429.9184233545093,1429.9184233545093,1429.9184233545093,1429.9184233545093,1429.9184233545093,s,1,0.5115704900817946,1430.4487759880722,1431.469421888236,,,,,,,,,,,,,,,,,,,,,,,,,,,,,,,,,,,,,,,572,2023-05-16_16h58.49.680,eb_02psyexp,2022.2.4,99.66661058375664,
265,0,265,0,,,,,,,,,,,,,,,,,,,,,,,,,,,,,,,,,,,,,,,,,,,,,,,,,,,,,,,,,,,1431.469421888236,1431.469421888236,1431.469421888236,1431.469421888236,1431.469421888236,1431.469421888236,s,1,0.4725515831960365,1431.9597510744352,1432.9803987855557,,,,,,,,,,,,,,,,,,,,,,,,,,,,,,,,,,,,,,,572,2023-05-16_16h58.49.680,eb_02psyexp,2022.2.4,99.66661058375664,
266,0,266,0,,,,,,,,,,,,,,,,,,,,,,,,,,,,,,,,,,,,,,,,,,,,,,,,,,,,,,,,,,,1432.9803987855557,1432.9803987855557,1432.9803987855557,1432.9803987855557,1432.9803987855557,1432.9803987855557,l,1,0.5775743452832103,1433.5707926269388,1434.5914777669823,,,,,,,,,,,,,,,,,,,,,,,,,,,,,,,,,,,,,,,572,2023-05-16_16h58.49.680,eb_02psyexp,2022.2.4,99.66661058375664,
267,0,267,0,,,,,,,,,,,,,,,,,,,,,,,,,,,,,,,,,,,,,,,,,,,,,,,,,,,,,,,,,,,1434.5914777669823,1434.5914777669823,1434.5914777669823,1434.5914777669823,1434.5914777669823,1434.5914777669823,l,1,0.4535398721927777,1435.061733049457,1436.082394645433,,,,,,,,,,,,,,,,,,,,,,,,,,,,,,,,,,,,,,,572,2023-05-16_16h58.49.680,eb_02psyexp,2022.2.4,99.66661058375664,
268,0,268,0,,,,,,,,,,,,,,,,,,,,,,,,,,,,,,,,,,,,,,,,,,,,,,,,,,,,,,,,,,,1436.082394645433,1436.082394645433,1436.082394645433,1436.082394645433,1436.082394645433,1436.082394645433,l,1,0.4265896362485364,1436.5226764117833,1437.543339517084,,,,,,,,,,,,,,,,,,,,,,,,,,,,,,,,,,,,,,,572,2023-05-16_16h58.49.680,eb_02psyexp,2022.2.4,99.66661058375664,
269,0,269,0,,,,,,,,,,,,,,,,,,,,,,,,,,,,,,,,,,,,,,,,,,,,,,,,,,,,,,,,,,,1437.543339517084,1437.543339517084,1437.543339517084,1437.543339517084,1437.543339517084,1437.543339517084,s,1,0.6136590165551752,1438.1737417135155,1439.1944072336191,,,,,,,,,,,,,,,,,,,,,,,,,,,,,,,,,,,,,,,572,2023-05-16_16h58.49.680,eb_02psyexp,2022.2.4,99.66661058375664,
270,0,270,0,,,,,,,,,,,,,,,,,,,,,,,,,,,,,,,,,,,,,,,,,,,,,,,,,,,,,,,,,,,1439.1944072336191,1439.1944072336191,1439.1944072336191,1439.1944072336191,1439.1944072336191,1439.1944072336191,s,1,0.4905982955824584,1439.704728825367,,,,,,,,,,,,,,,,,,,,,,,,,,,,,,,,,,,,,,,,572,2023-05-16_16h58.49.680,eb_02psyexp,2022.2.4,99.66661058375664,
271,0,271,0,,,,,,,,,,,,,,,,,,,,,,,,,,,,,,,,,,,,,,,,,,,,,,,,,,,,,,,,,,,1440.7257251676638,1440.7257251676638,1440.7257251676638,1440.7257251676638,1440.7257251676638,1440.7257251676638,s,1,0.5992818345548585,1441.336119262618,1442.3664519742597,,,,,,,,,,,,,,,,,,,,,,,,,,,,,,,,,,,,,,,572,2023-05-16_16h58.49.680,eb_02psyexp,2022.2.4,99.66661058375664,
272,0,272,0,,,,,,,,,,,,,,,,,,,,,,,,,,,,,,,,,,,,,,,,,,,,,,,,,,,,,,,,,,,1442.3664519742597,1442.3664519742597,1442.3664519742597,1442.3664519742597,1442.3664519742597,1442.3664519742597,s,1,0.44657268456649035,1442.8267252406804,1443.847730034613,,,,,,,,,,,,,,,,,,,,,,,,,,,,,,,,,,,,,,,572,2023-05-16_16h58.49.680,eb_02psyexp,2022.2.4,99.66661058375664,
273,0,273,0,,,,,,,,,,,,,,,,,,,,,,,,,,,,,,,,,,,,,,,,,,,,,,,,,,,,,,,,,,,1443.847730034613,1443.847730034613,1443.847730034613,1443.847730034613,1443.847730034613,1443.847730034613,l,1,0.42127082438673824,1444.2880175359314,1445.3083537430502,,,,,,,,,,,,,,,,,,,,,,,,,,,,,,,,,,,,,,,572,2023-05-16_16h58.49.680,eb_02psyexp,2022.2.4,99.66661058375664,
