trials.thisRepN,trials.thisTrialN,trials.thisN,trials.thisIndex,image_loop.thisRepN,image_loop.thisTrialN,image_loop.thisN,image_loop.thisIndex,break_loop.thisRepN,break_loop.thisTrialN,break_loop.thisN,break_loop.thisIndex,test_trials.thisRepN,test_trials.thisTrialN,test_trials.thisN,test_trials.thisIndex,distance matrix,tools,welcome_text.started,instructions_0_keypress.started,instructions_0_keypress.keys,instructions_0_keypress.rt,consent_image_0.started,consent0_key_resp.started,consent0_text.started,consent0_key_resp.keys,consent0_key_resp.rt,consent_image_1.started,consent1_key_resp.started,consent1_text.started,consent1_key_resp.keys,consent1_key_resp.rt,consent2_text.started,consent_image_2.started,consent2_key_resp.started,consent2_key_resp.keys,consent2_key_resp.rt,agree_button.started,disagree_button.started,consent_image_3.started,agree_button.numClicks,agree_button.timesOn,agree_button.timesOff,disagree_button.numClicks,disagree_button.timesOn,disagree_button.timesOff,instructions_text1.started,instructions1_key_resp.started,instr1_cnt_text.started,instructions1_key_resp.keys,instructions1_key_resp.rt,instructions_text2.started,instr2_cnt_text.started,instructions2_key_resp.started,instructions2_key_resp.keys,instructions2_key_resp.rt,instructions_text3.started,instructions3_key_resp.started,instr3_cnt_text.started,instructions3_key_resp.keys,instructions3_key_resp.rt,text_countdown.started,image.started,small_large_keyresp.started,task_question_text.started,smalleroption_text.started,largeroption_text.started,accuracy_score_text.started,small_large_keyresp.keys,small_large_keyresp.corr,small_large_keyresp.rt,fb_2.started,fb_2.stopped,break_text.started,break_key_resp.started,break_key_resp.keys,break_key_resp.rt,reveal_seq_text.started,start_test_text.started,continue_to_test.started,continue_to_test.keys,continue_to_test.rt,test_structure_info.started,start_test_text_2.started,continue_to_test_2.started,continue_to_test_2.keys,continue_to_test_2.rt,test_cntdown_text.started,test_cntdown_text.stopped,parent index,left child index,right child index,left distance,right distance,parent_image.started,top_image_text.started,left_child_image.started,right_child_image.started,path_resp.started,child_choice_text.started,left_choice_text.started,right_choice_text.started,path_resp.keys,path_resp.rt,graph.started,debrief_text.started,debriefing_title.started,demo_scr_adv.started,demo_scr_adv_keypress.started,demo_scr_adv_keypress.keys,demo_scr_adv_keypress.rt,text_countdown_2.started,participant,date,expName,psychopyVersion,frameRate,
,,,,,,,,,,,,,,,,"[[0. 1. 1. 2. 2. 3. 4. 5. 5. 6. 6. 7.]
 [1. 0. 2. 1. 1. 2. 3. 4. 4. 5. 5. 6.]
 [1. 2. 0. 1. 1. 2. 3. 4. 4. 5. 5. 6.]
 [2. 1. 1. 0. 1. 1. 2. 3. 3. 4. 4. 5.]
 [2. 1. 1. 1. 0. 1. 2. 3. 3. 4. 4. 5.]
 [3. 2. 2. 1. 1. 0. 1. 2. 2. 3. 3. 4.]
 [4. 3. 3. 2. 2. 1. 0. 1. 1. 2. 2. 3.]
 [5. 4. 4. 3. 3. 2. 1. 0. 1. 1. 1. 2.]
 [5. 4. 4. 3. 3. 2. 1. 1. 0. 1. 1. 2.]
 [6. 5. 5. 4. 4. 3. 2. 1. 1. 0. 2. 1.]
 [6. 5. 5. 4. 4. 3. 2. 1. 1. 2. 0. 1.]
 [7. 6. 6. 5. 5. 4. 3. 2. 2. 1. 1. 0.]]",[ 2 10  0  5  8  6  7 11  3  9  1  4],16.63937816291582,16.63937816291582,return,677.6103937168373,,,,,,,,,,,,,,,,,,,,,,,,,,,,,,,,,,,,,,,,,,,,,,,,,,,,,,,,,,,,,,,,,,,,,,,,,,,,,,,,,,,,,,,,,,,573,2023-05-16_17h02.46.433,eb_02psyexp,2022.2.4,60.00137643786526,
,,,,,,,,,,,,,,,,,,,,,,694.2708823956782,694.2708823956782,694.2708823956782,space,47.29613075312227,,,,,,,,,,,,,,,,,,,,,,,,,,,,,,,,,,,,,,,,,,,,,,,,,,,,,,,,,,,,,,,,,,,,,,,,,,,,,,,,,,,,,,573,2023-05-16_17h02.46.433,eb_02psyexp,2022.2.4,60.00137643786526,
,,,,,,,,,,,,,,,,,,,,,,,,,,,741.5839201704366,741.5839201704366,741.5839201704366,space,4.535127444425598,,,,,,,,,,,,,,,,,,,,,,,,,,,,,,,,,,,,,,,,,,,,,,,,,,,,,,,,,,,,,,,,,,,,,,,,,,,,,,,,,573,2023-05-16_17h02.46.433,eb_02psyexp,2022.2.4,60.00137643786526,
,,,,,,,,,,,,,,,,,,,,,,,,,,,,,,,,746.1502753732493,746.1502753732493,746.1502753732493,space,2.248793600127101,,,,,,,,,,,,,,,,,,,,,,,,,,,,,,,,,,,,,,,,,,,,,,,,,,,,,,,,,,,,,,,,,,,,,,,,,,,,573,2023-05-16_17h02.46.433,eb_02psyexp,2022.2.4,60.00137643786526,
,,,,,,,,,,,,,,,,,,,,,,,,,,,,,,,,,,,,,748.4167644141708,748.4167644141708,748.4167644141708,1,[8.698722712346353],[8.698726636357605],0,,,757.1157841421664,759.0992991761304,759.0992991761304,space,6.481825832859613,,,,,,,,,,,,,,,,,,,,,,,,,,,,,,,,,,,,,,,,,,,,,,,,,,,,,,,,,,,,,,573,2023-05-16_17h02.46.433,eb_02psyexp,2022.2.4,60.00137643786526,
,,,,,,,,,,,,,,,,,,,,,,,,,,,,,,,,,,,,,,,,,,,,,,,,,,,765.5987881524488,768.5819104859838,768.5819104859838,space,7.287306614685804,,,,,,,,,,,,,,,,,,,,,,,,,,,,,,,,,,,,,,,,,,,,,,,,,,,,,,,,,573,2023-05-16_17h02.46.433,eb_02psyexp,2022.2.4,60.00137643786526,
,,,,,,,,,,,,,,,,,,,,,,,,,,,,,,,,,,,,,,,,,,,,,,,,,,,,,,,,775.898003234528,778.881128284731,778.881128284731,space,6.819140100036748,,,,,,,,,,,,,,,,,,,,,,,,,,,,,,,,,,,,,,,,,,,,,,,,,,,,573,2023-05-16_17h02.46.433,eb_02psyexp,2022.2.4,60.00137643786526,
0,0,0,0,,,,,,,,,,,,,,,,,,,,,,,,,,,,,,,,,,,,,,,,,,,,,,,,,,,,,,,,,,785.7472578885499,790.7968899696134,790.7968899696134,790.7968899696134,790.7968899696134,790.7968899696134,790.7968899696134,s,1,3.2714180945185944,794.0966218104586,795.1132181573194,,,,,,,,,,,,,,,,,,,,,,,,,,,,,,,,,,,,,,,,573,2023-05-16_17h02.46.433,eb_02psyexp,2022.2.4,60.00137643786526,
1,0,1,0,,,,,,,,,,,,,,,,,,,,,,,,,,,,,,,,,,,,,,,,,,,,,,,,,,,,,,,,,,,795.1132181573194,795.1132181573194,795.1132181573194,795.1132181573194,795.1132181573194,795.1132181573194,l,1,1.0420934245921671,796.179807893699,797.1963885446312,,,,,,,,,,,,,,,,,,,,,,,,,,,,,,,,,,,,,,,,573,2023-05-16_17h02.46.433,eb_02psyexp,2022.2.4,60.00137643786526,
2,0,2,0,,,,,,,,,,,,,,,,,,,,,,,,,,,,,,,,,,,,,,,,,,,,,,,,,,,,,,,,,,,797.1963885446312,797.1963885446312,797.1963885446312,797.1963885446312,797.1963885446312,797.1963885446312,s,0,3.1829602874349803,800.3961456801044,801.4294084017165,,,,,,,,,,,,,,,,,,,,,,,,,,,,,,,,,,,,,,,,573,2023-05-16_17h02.46.433,eb_02psyexp,2022.2.4,60.00137643786526,
3,0,3,0,,,,,,,,,,,,,,,,,,,,,,,,,,,,,,,,,,,,,,,,,,,,,,,,,,,,,,,,,,,801.4294084017165,801.4294084017165,801.4294084017165,801.4294084017165,801.4294084017165,801.4294084017165,l,1,1.4859342459822074,802.9459504164988,803.9792258157395,,,,,,,,,,,,,,,,,,,,,,,,,,,,,,,,,,,,,,,,573,2023-05-16_17h02.46.433,eb_02psyexp,2022.2.4,60.00137643786526,
4,0,4,0,,,,,,,,,,,,,,,,,,,,,,,,,,,,,,,,,,,,,,,,,,,,,,,,,,,,,,,,,,,803.9792258157395,803.9792258157395,803.9792258157395,803.9792258157395,803.9792258157395,803.9792258157395,s,1,0.7441370363812894,804.7458413296845,805.7790783945238,,,,,,,,,,,,,,,,,,,,,,,,,,,,,,,,,,,,,,,,573,2023-05-16_17h02.46.433,eb_02psyexp,2022.2.4,60.00137643786526,
5,0,5,0,,,,,,,,,,,,,,,,,,,,,,,,,,,,,,,,,,,,,,,,,,,,,,,,,,,,,,,,,,,805.7790783945238,805.7790783945238,805.7790783945238,805.7790783945238,805.7790783945238,805.7790783945238,l,1,3.392307945759967,809.1954781798413,810.228766860324,,,,,,,,,,,,,,,,,,,,,,,,,,,,,,,,,,,,,,,,573,2023-05-16_17h02.46.433,eb_02psyexp,2022.2.4,60.00137643786526,
6,0,6,0,,,,,,,,,,,,,,,,,,,,,,,,,,,,,,,,,,,,,,,,,,,,,,,,,,,,,,,,,,,810.228766860324,810.228766860324,810.228766860324,810.228766860324,810.228766860324,810.228766860324,s,1,0.8386275188531727,811.0952894663205,812.1119362213649,,,,,,,,,,,,,,,,,,,,,,,,,,,,,,,,,,,,,,,,573,2023-05-16_17h02.46.433,eb_02psyexp,2022.2.4,60.00137643786526,
7,0,7,0,,,,,,,,,,,,,,,,,,,,,,,,,,,,,,,,,,,,,,,,,,,,,,,,,,,,,,,,,,,812.1119362213649,812.1119362213649,812.1119362213649,812.1119362213649,812.1119362213649,812.1119362213649,s,1,1.0264819981530309,813.1618272854248,814.1784767570207,,,,,,,,,,,,,,,,,,,,,,,,,,,,,,,,,,,,,,,,573,2023-05-16_17h02.46.433,eb_02psyexp,2022.2.4,60.00137643786526,
8,0,8,0,,,,,,,,,,,,,,,,,,,,,,,,,,,,,,,,,,,,,,,,,,,,,,,,,,,,,,,,,,,814.1784767570207,814.1784767570207,814.1784767570207,814.1784767570207,814.1784767570207,814.1784767570207,s,0,1.4559770293999463,815.6616525171557,816.6949110130081,,,,,,,,,,,,,,,,,,,,,,,,,,,,,,,,,,,,,,,,573,2023-05-16_17h02.46.433,eb_02psyexp,2022.2.4,60.00137643786526,
9,0,9,0,,,,,,,,,,,,,,,,,,,,,,,,,,,,,,,,,,,,,,,,,,,,,,,,,,,,,,,,,,,816.6949110130081,816.6949110130081,816.6949110130081,816.6949110130081,816.6949110130081,816.6949110130081,l,1,1.3475289297057316,818.0614701423328,819.094718677341,,,,,,,,,,,,,,,,,,,,,,,,,,,,,,,,,,,,,,,,573,2023-05-16_17h02.46.433,eb_02psyexp,2022.2.4,60.00137643786526,
10,0,10,0,,,,,,,,,,,,,,,,,,,,,,,,,,,,,,,,,,,,,,,,,,,,,,,,,,,,,,,,,,,819.094718677341,819.094718677341,819.094718677341,819.094718677341,819.094718677341,819.094718677341,s,1,0.7237199348164722,819.8446666090749,820.8779199735727,,,,,,,,,,,,,,,,,,,,,,,,,,,,,,,,,,,,,,,,573,2023-05-16_17h02.46.433,eb_02psyexp,2022.2.4,60.00137643786526,
11,0,11,0,,,,,,,,,,,,,,,,,,,,,,,,,,,,,,,,,,,,,,,,,,,,,,,,,,,,,,,,,,,820.8779199735727,820.8779199735727,820.8779199735727,820.8779199735727,820.8779199735727,820.8779199735727,l,1,1.1165770129300654,822.0111549859866,823.0444672101876,,,,,,,,,,,,,,,,,,,,,,,,,,,,,,,,,,,,,,,,573,2023-05-16_17h02.46.433,eb_02psyexp,2022.2.4,60.00137643786526,
12,0,12,0,,,,,,,,,,,,,,,,,,,,,,,,,,,,,,,,,,,,,,,,,,,,,,,,,,,,,,,,,,,823.0444672101876,823.0444672101876,823.0444672101876,823.0444672101876,823.0444672101876,823.0444672101876,s,1,0.7579971577506512,823.8277312902501,824.8442877935013,,,,,,,,,,,,,,,,,,,,,,,,,,,,,,,,,,,,,,,,573,2023-05-16_17h02.46.433,eb_02psyexp,2022.2.4,60.00137643786526,
13,0,13,0,,,,,,,,,,,,,,,,,,,,,,,,,,,,,,,,,,,,,,,,,,,,,,,,,,,,,,,,,,,824.8442877935013,824.8442877935013,824.8442877935013,824.8442877935013,824.8442877935013,824.8442877935013,s,1,0.9982078698230907,825.8608756887261,826.8775314990198,,,,,,,,,,,,,,,,,,,,,,,,,,,,,,,,,,,,,,,,573,2023-05-16_17h02.46.433,eb_02psyexp,2022.2.4,60.00137643786526,
14,0,14,0,,,,,,,,,,,,,,,,,,,,,,,,,,,,,,,,,,,,,,,,,,,,,,,,,,,,,,,,,,,826.8775314990198,826.8775314990198,826.8775314990198,826.8775314990198,826.8775314990198,826.8775314990198,l,1,1.5239597809268162,828.4273492147913,829.4439519003499,,,,,,,,,,,,,,,,,,,,,,,,,,,,,,,,,,,,,,,,573,2023-05-16_17h02.46.433,eb_02psyexp,2022.2.4,60.00137643786526,
15,0,15,0,,,,,,,,,,,,,,,,,,,,,,,,,,,,,,,,,,,,,,,,,,,,,,,,,,,,,,,,,,,829.4439519003499,829.4439519003499,829.4439519003499,829.4439519003499,829.4439519003499,829.4439519003499,s,1,0.6615881479810923,830.1272319178097,831.1604970542248,,,,,,,,,,,,,,,,,,,,,,,,,,,,,,,,,,,,,,,,573,2023-05-16_17h02.46.433,eb_02psyexp,2022.2.4,60.00137643786526,
16,0,16,0,,,,,,,,,,,,,,,,,,,,,,,,,,,,,,,,,,,,,,,,,,,,,,,,,,,,,,,,,,,831.1604970542248,831.1604970542248,831.1604970542248,831.1604970542248,831.1604970542248,831.1604970542248,s,1,0.6490132828475907,831.827088662074,832.8437004029984,,,,,,,,,,,,,,,,,,,,,,,,,,,,,,,,,,,,,,,,573,2023-05-16_17h02.46.433,eb_02psyexp,2022.2.4,60.00137643786526,
17,0,17,0,,,,,,,,,,,,,,,,,,,,,,,,,,,,,,,,,,,,,,,,,,,,,,,,,,,,,,,,,,,832.8437004029984,832.8437004029984,832.8437004029984,832.8437004029984,832.8437004029984,832.8437004029984,s,1,0.5818355523515493,833.4436416036915,834.4602370449575,,,,,,,,,,,,,,,,,,,,,,,,,,,,,,,,,,,,,,,,573,2023-05-16_17h02.46.433,eb_02psyexp,2022.2.4,60.00137643786526,
18,0,18,0,,,,,,,,,,,,,,,,,,,,,,,,,,,,,,,,,,,,,,,,,,,,,,,,,,,,,,,,,,,834.4602370449575,834.4602370449575,834.4602370449575,834.4602370449575,834.4602370449575,834.4602370449575,l,1,0.9573175233090296,835.4434780036099,836.4600758596789,,,,,,,,,,,,,,,,,,,,,,,,,,,,,,,,,,,,,,,,573,2023-05-16_17h02.46.433,eb_02psyexp,2022.2.4,60.00137643786526,
19,0,19,0,,,,,,,,,,,,,,,,,,,,,,,,,,,,,,,,,,,,,,,,,,,,,,,,,,,,,,,,,,,836.4600758596789,836.4600758596789,836.4600758596789,836.4600758596789,836.4600758596789,836.4600758596789,l,1,0.7574855303391814,837.2433462784393,838.276597228134,,,,,,,,,,,,,,,,,,,,,,,,,,,,,,,,,,,,,,,,573,2023-05-16_17h02.46.433,eb_02psyexp,2022.2.4,60.00137643786526,
20,0,20,0,,,,,,,,,,,,,,,,,,,,,,,,,,,,,,,,,,,,,,,,,,,,,,,,,,,,,,,,,,,838.276597228134,838.276597228134,838.276597228134,838.276597228134,838.276597228134,838.276597228134,s,1,0.6449700683588162,838.9432123799343,839.9764639333589,,,,,,,,,,,,,,,,,,,,,,,,,,,,,,,,,,,,,,,,573,2023-05-16_17h02.46.433,eb_02psyexp,2022.2.4,60.00137643786526,
21,0,21,0,,,,,,,,,,,,,,,,,,,,,,,,,,,,,,,,,,,,,,,,,,,,,,,,,,,,,,,,,,,839.9764639333589,839.9764639333589,839.9764639333589,839.9764639333589,839.9764639333589,839.9764639333589,l,1,0.593101617298089,840.5930905251298,841.6097345635062,,,,,,,,,,,,,,,,,,,,,,,,,,,,,,,,,,,,,,,,573,2023-05-16_17h02.46.433,eb_02psyexp,2022.2.4,60.00137643786526,
22,0,22,0,,,,,,,,,,,,,,,,,,,,,,,,,,,,,,,,,,,,,,,,,,,,,,,,,,,,,,,,,,,841.6097345635062,841.6097345635062,841.6097345635062,841.6097345635062,841.6097345635062,841.6097345635062,l,1,0.6558709007222205,842.2929536082083,843.3262377609499,,,,,,,,,,,,,,,,,,,,,,,,,,,,,,,,,,,,,,,,573,2023-05-16_17h02.46.433,eb_02psyexp,2022.2.4,60.00137643786526,
23,0,23,0,,,,,,,,,,,,,,,,,,,,,,,,,,,,,,,,,,,,,,,,,,,,,,,,,,,,,,,,,,,843.3262377609499,843.3262377609499,843.3262377609499,843.3262377609499,843.3262377609499,843.3262377609499,s,1,0.5303694606991485,843.8761722907657,844.8927789002191,,,,,,,,,,,,,,,,,,,,,,,,,,,,,,,,,,,,,,,,573,2023-05-16_17h02.46.433,eb_02psyexp,2022.2.4,60.00137643786526,
24,0,24,0,,,,,,,,,,,,,,,,,,,,,,,,,,,,,,,,,,,,,,,,,,,,,,,,,,,,,,,,,,,844.8927789002191,844.8927789002191,844.8927789002191,844.8927789002191,844.8927789002191,844.8927789002191,s,1,1.0038206786848605,845.9260521865217,846.9592744610272,,,,,,,,,,,,,,,,,,,,,,,,,,,,,,,,,,,,,,,,573,2023-05-16_17h02.46.433,eb_02psyexp,2022.2.4,60.00137643786526,
25,0,25,0,,,,,,,,,,,,,,,,,,,,,,,,,,,,,,,,,,,,,,,,,,,,,,,,,,,,,,,,,,,846.9592744610272,846.9592744610272,846.9592744610272,846.9592744610272,846.9592744610272,846.9592744610272,s,1,0.5853251829976216,847.5758814328583,848.5924898535013,,,,,,,,,,,,,,,,,,,,,,,,,,,,,,,,,,,,,,,,573,2023-05-16_17h02.46.433,eb_02psyexp,2022.2.4,60.00137643786526,
26,0,26,0,,,,,,,,,,,,,,,,,,,,,,,,,,,,,,,,,,,,,,,,,,,,,,,,,,,,,,,,,,,848.5924898535013,848.5924898535013,848.5924898535013,848.5924898535013,848.5924898535013,848.5924898535013,l,1,0.4241402238840237,849.0424626572058,850.0590466284193,,,,,,,,,,,,,,,,,,,,,,,,,,,,,,,,,,,,,,,,573,2023-05-16_17h02.46.433,eb_02psyexp,2022.2.4,60.00137643786526,
27,0,27,0,,,,,,,,,,,,,,,,,,,,,,,,,,,,,,,,,,,,,,,,,,,,,,,,,,,,,,,,,,,850.0590466284193,850.0590466284193,850.0590466284193,850.0590466284193,850.0590466284193,850.0590466284193,l,1,3.405564678949304,853.4921088645933,854.5087021930376,,,,,,,,,,,,,,,,,,,,,,,,,,,,,,,,,,,,,,,,573,2023-05-16_17h02.46.433,eb_02psyexp,2022.2.4,60.00137643786526,
28,0,28,0,,,,,,,,,,,,,,,,,,,,,,,,,,,,,,,,,,,,,,,,,,,,,,,,,,,,,,,,,,,854.5087021930376,854.5087021930376,854.5087021930376,854.5087021930376,854.5087021930376,854.5087021930376,s,1,1.1799708139151335,855.7086383225396,856.7252011646051,,,,,,,,,,,,,,,,,,,,,,,,,,,,,,,,,,,,,,,,573,2023-05-16_17h02.46.433,eb_02psyexp,2022.2.4,60.00137643786526,
29,0,29,0,,,,,,,,,,,,,,,,,,,,,,,,,,,,,,,,,,,,,,,,,,,,,,,,,,,,,,,,,,,856.7252011646051,856.7252011646051,856.7252011646051,856.7252011646051,856.7252011646051,856.7252011646051,l,1,0.8034369127126411,857.5584661803441,858.5750827507582,,,,,,,,,,,,,,,,,,,,,,,,,,,,,,,,,,,,,,,,573,2023-05-16_17h02.46.433,eb_02psyexp,2022.2.4,60.00137643786526,
30,0,30,0,,,,,,,,,,,,,,,,,,,,,,,,,,,,,,,,,,,,,,,,,,,,,,,,,,,,,,,,,,,858.5750827507582,858.5750827507582,858.5750827507582,858.5750827507582,858.5750827507582,858.5750827507582,l,1,1.9125765396747738,860.5082464069128,861.524840037222,,,,,,,,,,,,,,,,,,,,,,,,,,,,,,,,,,,,,,,,573,2023-05-16_17h02.46.433,eb_02psyexp,2022.2.4,60.00137643786526,
31,0,31,0,,,,,,,,,,,,,,,,,,,,,,,,,,,,,,,,,,,,,,,,,,,,,,,,,,,,,,,,,,,861.524840037222,861.524840037222,861.524840037222,861.524840037222,861.524840037222,861.524840037222,s,1,0.8668630111496896,862.4247551583685,863.4413638808765,,,,,,,,,,,,,,,,,,,,,,,,,,,,,,,,,,,,,,,,573,2023-05-16_17h02.46.433,eb_02psyexp,2022.2.4,60.00137643786526,
32,0,32,0,,,,,,,,,,,,,,,,,,,,,,,,,,,,,,,,,,,,,,,,,,,,,,,,,,,,,,,,,,,863.4413638808765,863.4413638808765,863.4413638808765,863.4413638808765,863.4413638808765,863.4413638808765,l,1,1.1023383778519928,864.5745994969038,865.5912127470365,,,,,,,,,,,,,,,,,,,,,,,,,,,,,,,,,,,,,,,,573,2023-05-16_17h02.46.433,eb_02psyexp,2022.2.4,60.00137643786526,
33,0,33,0,,,,,,,,,,,,,,,,,,,,,,,,,,,,,,,,,,,,,,,,,,,,,,,,,,,,,,,,,,,865.5912127470365,865.5912127470365,865.5912127470365,865.5912127470365,865.5912127470365,865.5912127470365,s,1,0.7045319462195039,866.3244692507433,867.3577232189709,,,,,,,,,,,,,,,,,,,,,,,,,,,,,,,,,,,,,,,,573,2023-05-16_17h02.46.433,eb_02psyexp,2022.2.4,60.00137643786526,
34,0,34,0,,,,,,,,,,,,,,,,,,,,,,,,,,,,,,,,,,,,,,,,,,,,,,,,,,,,,,,,,,,867.3577232189709,867.3577232189709,867.3577232189709,867.3577232189709,867.3577232189709,867.3577232189709,s,1,0.9459974282654002,868.3243294964777,869.3409192026593,,,,,,,,,,,,,,,,,,,,,,,,,,,,,,,,,,,,,,,,573,2023-05-16_17h02.46.433,eb_02psyexp,2022.2.4,60.00137643786526,
35,0,35,0,,,,,,,,,,,,,,,,,,,,,,,,,,,,,,,,,,,,,,,,,,,,,,,,,,,,,,,,,,,869.3409192026593,869.3409192026593,869.3409192026593,869.3409192026593,869.3409192026593,869.3409192026593,s,1,0.7948554577305913,870.1575075808214,871.1907778485911,,,,,,,,,,,,,,,,,,,,,,,,,,,,,,,,,,,,,,,,573,2023-05-16_17h02.46.433,eb_02psyexp,2022.2.4,60.00137643786526,
36,0,36,0,,,,,,,,,,,,,,,,,,,,,,,,,,,,,,,,,,,,,,,,,,,,,,,,,,,,,,,,,,,871.1907778485911,871.1907778485911,871.1907778485911,871.1907778485911,871.1907778485911,871.1907778485911,s,1,0.5689654827583581,871.7907320285449,872.8073123776121,,,,,,,,,,,,,,,,,,,,,,,,,,,,,,,,,,,,,,,,573,2023-05-16_17h02.46.433,eb_02psyexp,2022.2.4,60.00137643786526,
37,0,37,0,,,,,,,,,,,,,,,,,,,,,,,,,,,,,,,,,,,,,,,,,,,,,,,,,,,,,,,,,,,872.8073123776121,872.8073123776121,872.8073123776121,872.8073123776121,872.8073123776121,872.8073123776121,s,1,0.6244397747796029,873.4572539102519,874.473851162591,,,,,,,,,,,,,,,,,,,,,,,,,,,,,,,,,,,,,,,,573,2023-05-16_17h02.46.433,eb_02psyexp,2022.2.4,60.00137643786526,
38,0,38,0,,,,,,,,,,,,,,,,,,,,,,,,,,,,,,,,,,,,,,,,,,,,,,,,,,,,,,,,,,,874.473851162591,874.473851162591,874.473851162591,874.473851162591,874.473851162591,874.473851162591,l,1,0.6049116069916636,875.1071311498526,876.1237211578991,,,,,,,,,,,,,,,,,,,,,,,,,,,,,,,,,,,,,,,,573,2023-05-16_17h02.46.433,eb_02psyexp,2022.2.4,60.00137643786526,
39,0,39,0,,,,,,,,,,,,,,,,,,,,,,,,,,,,,,,,,,,,,,,,,,,,,,,,,,,,,,,,,,,876.1237211578991,876.1237211578991,876.1237211578991,876.1237211578991,876.1237211578991,876.1237211578991,s,1,0.8270577978109941,876.9736634149449,877.990241952939,,,,,,,,,,,,,,,,,,,,,,,,,,,,,,,,,,,,,,,,573,2023-05-16_17h02.46.433,eb_02psyexp,2022.2.4,60.00137643786526,
40,0,40,0,,,,,,,,,,,,,,,,,,,,,,,,,,,,,,,,,,,,,,,,,,,,,,,,,,,,,,,,,,,877.990241952939,877.990241952939,877.990241952939,877.990241952939,877.990241952939,877.990241952939,l,1,0.7205421100370586,878.7402261060197,879.7568088698899,,,,,,,,,,,,,,,,,,,,,,,,,,,,,,,,,,,,,,,,573,2023-05-16_17h02.46.433,eb_02psyexp,2022.2.4,60.00137643786526,
41,0,41,0,,,,,,,,,,,,,,,,,,,,,,,,,,,,,,,,,,,,,,,,,,,,,,,,,,,,,,,,,,,879.7568088698899,879.7568088698899,879.7568088698899,879.7568088698899,879.7568088698899,879.7568088698899,s,1,0.5139910458819941,880.2900694786804,881.3066914823139,,,,,,,,,,,,,,,,,,,,,,,,,,,,,,,,,,,,,,,,573,2023-05-16_17h02.46.433,eb_02psyexp,2022.2.4,60.00137643786526,
42,0,42,0,,,,,,,,,,,,,,,,,,,,,,,,,,,,,,,,,,,,,,,,,,,,,,,,,,,,,,,,,,,881.3066914823139,881.3066914823139,881.3066914823139,881.3066914823139,881.3066914823139,881.3066914823139,l,1,0.6761262133950368,882.0066197639098,883.023217016249,,,,,,,,,,,,,,,,,,,,,,,,,,,,,,,,,,,,,,,,573,2023-05-16_17h02.46.433,eb_02psyexp,2022.2.4,60.00137643786526,
43,0,43,0,,,,,,,,,,,,,,,,,,,,,,,,,,,,,,,,,,,,,,,,,,,,,,,,,,,,,,,,,,,883.023217016249,883.023217016249,883.023217016249,883.023217016249,883.023217016249,883.023217016249,s,1,0.5516060716472566,883.6064852013951,884.6231011681957,,,,,,,,,,,,,,,,,,,,,,,,,,,,,,,,,,,,,,,,573,2023-05-16_17h02.46.433,eb_02psyexp,2022.2.4,60.00137643786526,
44,0,44,0,,,,,,,,,,,,,,,,,,,,,,,,,,,,,,,,,,,,,,,,,,,,,,,,,,,,,,,,,,,884.6231011681957,884.6231011681957,884.6231011681957,884.6231011681957,884.6231011681957,884.6231011681957,l,1,0.6797172640217468,885.3230240165722,886.3396426999243,,,,,,,,,,,,,,,,,,,,,,,,,,,,,,,,,,,,,,,,573,2023-05-16_17h02.46.433,eb_02psyexp,2022.2.4,60.00137643786526,
45,0,45,0,,,,,,,,,,,,,,,,,,,,,,,,,,,,,,,,,,,,,,,,,,,,,,,,,,,,,,,,,,,886.3396426999243,886.3396426999243,886.3396426999243,886.3396426999243,886.3396426999243,886.3396426999243,s,1,0.9151820661500096,887.2728836283786,888.3061433316907,,,,,,,,,,,,,,,,,,,,,,,,,,,,,,,,,,,,,,,,573,2023-05-16_17h02.46.433,eb_02psyexp,2022.2.4,60.00137643786526,
46,0,46,0,,,,,,,,,,,,,,,,,,,,,,,,,,,,,,,,,,,,,,,,,,,,,,,,,,,,,,,,,,,888.3061433316907,888.3061433316907,888.3061433316907,888.3061433316907,888.3061433316907,888.3061433316907,s,1,1.2117143494542688,889.5393605955178,890.5559578478569,,,,,,,,,,,,,,,,,,,,,,,,,,,,,,,,,,,,,,,,573,2023-05-16_17h02.46.433,eb_02psyexp,2022.2.4,60.00137643786526,
47,0,47,0,,,,,,,,,,,,,,,,,,,,,,,,,,,,,,,,,,,,,,,,,,,,,,,,,,,,,,,,,,,890.5559578478569,890.5559578478569,890.5559578478569,890.5559578478569,890.5559578478569,890.5559578478569,s,1,0.5858923498308286,891.1725802137516,892.1891665997682,,,,,,,,,,,,,,,,,,,,,,,,,,,,,,,,,,,,,,,,573,2023-05-16_17h02.46.433,eb_02psyexp,2022.2.4,60.00137643786526,
48,0,48,0,,,,,,,,,,,,,,,,,,,,,,,,,,,,,,,,,,,,,,,,,,,,,,,,,,,,,,,,,,,892.1891665997682,892.1891665997682,892.1891665997682,892.1891665997682,892.1891665997682,892.1891665997682,l,1,1.48870397626888,893.7057327619987,894.7219916461036,,,,,,,,,,,,,,,,,,,,,,,,,,,,,,,,,,,,,,,,573,2023-05-16_17h02.46.433,eb_02psyexp,2022.2.4,60.00137643786526,
49,0,49,0,,,,,,,,,,,,,,,,,,,,,,,,,,,,,,,,,,,,,,,,,,,,,,,,,,,,,,,,,,,894.7219916461036,894.7219916461036,894.7219916461036,894.7219916461036,894.7219916461036,894.7219916461036,s,1,0.6278717531822622,895.372260680655,896.4055234022671,,,,,,,,,,,,,,,,,,,,,,,,,,,,,,,,,,,,,,,,573,2023-05-16_17h02.46.433,eb_02psyexp,2022.2.4,60.00137643786526,
50,0,50,0,,,,,,,,,,,,,,,,,,,,,,,,,,,,,,,,,,,,,,,,,,,,,,,,,,,,,,,,,,,896.4055234022671,896.4055234022671,896.4055234022671,896.4055234022671,896.4055234022671,896.4055234022671,s,1,0.544363601366058,896.9721336641815,897.9887254833011,,,,,,,,,,,,,,,,,,,,,,,,,,,,,,,,,,,,,,,,573,2023-05-16_17h02.46.433,eb_02psyexp,2022.2.4,60.00137643786526,
51,0,51,0,,,,,,,,,,,,,,,,,,,,,,,,,,,,,,,,,,,,,,,,,,,,,,,,,,,,,,,,,,,897.9887254833011,897.9887254833011,897.9887254833011,897.9887254833011,897.9887254833011,897.9887254833011,s,1,0.6891722587170079,898.705348211457,899.7219557265053,,,,,,,,,,,,,,,,,,,,,,,,,,,,,,,,,,,,,,,,573,2023-05-16_17h02.46.433,eb_02psyexp,2022.2.4,60.00137643786526,
52,0,52,0,,,,,,,,,,,,,,,,,,,,,,,,,,,,,,,,,,,,,,,,,,,,,,,,,,,,,,,,,,,899.7219557265053,899.7219557265053,899.7219557265053,899.7219557265053,899.7219557265053,899.7219557265053,l,1,0.5799493226222694,900.3219071899075,901.338499612757,,,,,,,,,,,,,,,,,,,,,,,,,,,,,,,,,,,,,,,,573,2023-05-16_17h02.46.433,eb_02psyexp,2022.2.4,60.00137643786526,
53,0,53,0,,,,,,,,,,,,,,,,,,,,,,,,,,,,,,,,,,,,,,,,,,,,,,,,,,,,,,,,,,,901.338499612757,901.338499612757,901.338499612757,901.338499612757,901.338499612757,901.338499612757,s,1,0.4674504620488733,901.838426868082,902.8550361942034,,,,,,,,,,,,,,,,,,,,,,,,,,,,,,,,,,,,,,,,573,2023-05-16_17h02.46.433,eb_02psyexp,2022.2.4,60.00137643786526,
54,0,54,0,,,,,,,,,,,,,,,,,,,,,,,,,,,,,,,,,,,,,,,,,,,,,,,,,,,,,,,,,,,902.8550361942034,902.8550361942034,902.8550361942034,902.8550361942034,902.8550361942034,902.8550361942034,l,1,0.5748798347776756,903.454988864949,904.47156498814,,,,,,,,,,,,,,,,,,,,,,,,,,,,,,,,,,,,,,,,573,2023-05-16_17h02.46.433,eb_02psyexp,2022.2.4,60.00137643786526,
55,0,55,0,,,,,,,,,,,,,,,,,,,,,,,,,,,,,,,,,,,,,,,,,,,,,,,,,,,,,,,,,,,904.47156498814,904.47156498814,904.47156498814,904.47156498814,904.47156498814,904.47156498814,l,1,1.2213582990225405,905.7214851500466,906.7377564097987,,,,,,,,,,,,,,,,,,,,,,,,,,,,,,,,,,,,,,,,573,2023-05-16_17h02.46.433,eb_02psyexp,2022.2.4,60.00137643786526,
56,0,56,0,,,,,,,,,,,,,,,,,,,,,,,,,,,,,,,,,,,,,,,,,,,,,,,,,,,,,,,,,,,906.7377564097987,906.7377564097987,906.7377564097987,906.7377564097987,906.7377564097987,906.7377564097987,s,1,0.5711900808382779,907.3380281307036,908.3712863248074,,,,,,,,,,,,,,,,,,,,,,,,,,,,,,,,,,,,,,,,573,2023-05-16_17h02.46.433,eb_02psyexp,2022.2.4,60.00137643786526,
57,0,57,0,,,,,,,,,,,,,,,,,,,,,,,,,,,,,,,,,,,,,,,,,,,,,,,,,,,,,,,,,,,908.3712863248074,908.3712863248074,908.3712863248074,908.3712863248074,908.3712863248074,908.3712863248074,s,1,0.5056776293786243,908.9045556870988,909.9211635040119,,,,,,,,,,,,,,,,,,,,,,,,,,,,,,,,,,,,,,,,573,2023-05-16_17h02.46.433,eb_02psyexp,2022.2.4,60.00137643786526,
58,0,58,0,,,,,,,,,,,,,,,,,,,,,,,,,,,,,,,,,,,,,,,,,,,,,,,,,,,,,,,,,,,909.9211635040119,909.9211635040119,909.9211635040119,909.9211635040119,909.9211635040119,909.9211635040119,s,1,0.6358305017929524,910.5877689967165,911.6043780210894,,,,,,,,,,,,,,,,,,,,,,,,,,,,,,,,,,,,,,,,573,2023-05-16_17h02.46.433,eb_02psyexp,2022.2.4,60.00137643786526,
59,0,59,0,,,,,,,,,,,,,,,,,,,,,,,,,,,,,,,,,,,,,,,,,,,,,,,,,,,,,,,,,,,911.6043780210894,911.6043780210894,911.6043780210894,911.6043780210894,911.6043780210894,911.6043780210894,l,1,0.528605779982172,912.1543167766649,913.1709242918296,,,,,,,,,,,,,,,,,,,,,,,,,,,,,,,,,,,,,,,,573,2023-05-16_17h02.46.433,eb_02psyexp,2022.2.4,60.00137643786526,
60,0,60,0,,,,,,,,,,,,,,,,,,,,,,,,,,,,,,,,,,,,,,,,,,,,,,,,,,,,,,,,,,,913.1709242918296,913.1709242918296,913.1709242918296,913.1709242918296,913.1709242918296,913.1709242918296,s,1,0.5300549381645396,913.7208754230523,914.7541333152913,,,,,,,,,,,,,,,,,,,,,,,,,,,,,,,,,,,,,,,,573,2023-05-16_17h02.46.433,eb_02psyexp,2022.2.4,60.00137643786526,
61,0,61,0,,,,,,,,,,,,,,,,,,,,,,,,,,,,,,,,,,,,,,,,,,,,,,,,,,,,,,,,,,,914.7541333152913,914.7541333152913,914.7541333152913,914.7541333152913,914.7541333152913,914.7541333152913,s,1,0.6748690287349746,915.4540760854725,916.4706528123934,,,,,,,,,,,,,,,,,,,,,,,,,,,,,,,,,,,,,,,,573,2023-05-16_17h02.46.433,eb_02psyexp,2022.2.4,60.00137643786526,
62,0,62,0,,,,,,,,,,,,,,,,,,,,,,,,,,,,,,,,,,,,,,,,,,,,,,,,,,,,,,,,,,,916.4706528123934,916.4706528123934,916.4706528123934,916.4706528123934,916.4706528123934,916.4706528123934,s,1,0.5503974839812145,917.0539463524474,918.0705469250679,,,,,,,,,,,,,,,,,,,,,,,,,,,,,,,,,,,,,,,,573,2023-05-16_17h02.46.433,eb_02psyexp,2022.2.4,60.00137643786526,
63,0,63,0,,,,,,,,,,,,,,,,,,,,,,,,,,,,,,,,,,,,,,,,,,,,,,,,,,,,,,,,,,,918.0705469250679,918.0705469250679,918.0705469250679,918.0705469250679,918.0705469250679,918.0705469250679,l,1,0.66246349865105,918.7538239241112,919.7704232893884,,,,,,,,,,,,,,,,,,,,,,,,,,,,,,,,,,,,,,,,573,2023-05-16_17h02.46.433,eb_02psyexp,2022.2.4,60.00137643786526,
64,0,64,0,,,,,,,,,,,,,,,,,,,,,,,,,,,,,,,,,,,,,,,,,,,,,,,,,,,,,,,,,,,919.7704232893884,919.7704232893884,919.7704232893884,919.7704232893884,919.7704232893884,919.7704232893884,l,1,0.9695875250035897,920.7703321321169,921.7866166729946,,,,,,,,,,,,,,,,,,,,,,,,,,,,,,,,,,,,,,,,573,2023-05-16_17h02.46.433,eb_02psyexp,2022.2.4,60.00137643786526,
65,0,65,0,,,,,,,,,,,,,,,,,,,,,,,,,,,,,,,,,,,,,,,,,,,,,,,,,,,,,,,,,,,921.7866166729946,921.7866166729946,921.7866166729946,921.7866166729946,921.7866166729946,921.7866166729946,s,1,0.7374701845692471,922.5535234675044,923.5701225309167,,,,,,,,,,,,,,,,,,,,,,,,,,,,,,,,,,,,,,,,573,2023-05-16_17h02.46.433,eb_02psyexp,2022.2.4,60.00137643786526,
66,0,66,0,,,,,,,,,,,,,,,,,,,,,,,,,,,,,,,,,,,,,,,,,,,,,,,,,,,,,,,,,,,923.5701225309167,923.5701225309167,923.5701225309167,923.5701225309167,923.5701225309167,923.5701225309167,l,1,1.4739208127139136,925.070012961165,926.0865899899509,,,,,,,,,,,,,,,,,,,,,,,,,,,,,,,,,,,,,,,,573,2023-05-16_17h02.46.433,eb_02psyexp,2022.2.4,60.00137643786526,
67,0,67,0,,,,,,,,,,,,,,,,,,,,,,,,,,,,,,,,,,,,,,,,,,,,,,,,,,,,,,,,,,,926.0865899899509,926.0865899899509,926.0865899899509,926.0865899899509,926.0865899899509,926.0865899899509,s,1,0.4934791650157422,926.6032132009277,927.6198346009478,,,,,,,,,,,,,,,,,,,,,,,,,,,,,,,,,,,,,,,,573,2023-05-16_17h02.46.433,eb_02psyexp,2022.2.4,60.00137643786526,
68,0,68,0,,,,,,,,,,,,,,,,,,,,,,,,,,,,,,,,,,,,,,,,,,,,,,,,,,,,,,,,,,,927.6198346009478,927.6198346009478,927.6198346009478,927.6198346009478,927.6198346009478,927.6198346009478,l,1,0.6322491102619097,928.26976858743,929.2863700656453,,,,,,,,,,,,,,,,,,,,,,,,,,,,,,,,,,,,,,,,573,2023-05-16_17h02.46.433,eb_02psyexp,2022.2.4,60.00137643786526,
69,0,69,0,,,,,,,,,,,,,,,,,,,,,,,,,,,,,,,,,,,,,,,,,,,,,,,,,,,,,,,,,,,929.2863700656453,929.2863700656453,929.2863700656453,929.2863700656453,929.2863700656453,929.2863700656453,s,1,0.5336897562956437,929.8529667444527,930.8695827112533,,,,,,,,,,,,,,,,,,,,,,,,,,,,,,,,,,,,,,,,573,2023-05-16_17h02.46.433,eb_02psyexp,2022.2.4,60.00137643786526,
70,0,70,0,,,,,,,,,,,,,,,,,,,,,,,,,,,,,,,,,,,,,,,,,,,,,,,,,,,,,,,,,,,930.8695827112533,930.8695827112533,930.8695827112533,930.8695827112533,930.8695827112533,930.8695827112533,l,1,0.5265191250946373,931.4195169392042,932.4361093620537,,,,,,,,,,,,,,,,,,,,,,,,,,,,,,,,,,,,,,,,573,2023-05-16_17h02.46.433,eb_02psyexp,2022.2.4,60.00137643786526,
71,0,71,0,,,,,,,,,,,,,,,,,,,,,,,,,,,,,,,,,,,,,,,,,,,,,,,,,,,,,,,,,,,932.4361093620537,932.4361093620537,932.4361093620537,932.4361093620537,932.4361093620537,932.4361093620537,s,1,0.49598991230595857,932.9527461561374,933.9693174498389,,,,,,,,,,,,,,,,,,,,,,,,,,,,,,,,,,,,,,,,573,2023-05-16_17h02.46.433,eb_02psyexp,2022.2.4,60.00137643786526,
72,0,72,0,,,,,,,,,,,,,,,,,,,,,,,,,,,,,,,,,,,,,,,,,,,,,,,,,,,,,,,,,,,933.9693174498389,933.9693174498389,933.9693174498389,933.9693174498389,933.9693174498389,933.9693174498389,l,1,0.8747834254754707,934.8692666795105,935.8855246580206,,,,,,,,,,,,,,,,,,,,,,,,,,,,,,,,,,,,,,,,573,2023-05-16_17h02.46.433,eb_02psyexp,2022.2.4,60.00137643786526,
73,0,73,0,,,,,,,,,,,,,,,,,,,,,,,,,,,,,,,,,,,,,,,,,,,,,,,,,,,,,,,,,,,935.8855246580206,935.8855246580206,935.8855246580206,935.8855246580206,935.8855246580206,935.8855246580206,s,1,0.437609757645987,936.3524892255664,937.3690949296579,,,,,,,,,,,,,,,,,,,,,,,,,,,,,,,,,,,,,,,,573,2023-05-16_17h02.46.433,eb_02psyexp,2022.2.4,60.00137643786526,
74,0,74,0,,,,,,,,,,,,,,,,,,,,,,,,,,,,,,,,,,,,,,,,,,,,,,,,,,,,,,,,,,,937.3690949296579,937.3690949296579,937.3690949296579,937.3690949296579,937.3690949296579,937.3690949296579,l,1,0.8340234762290493,938.2356721697142,939.252285117982,,,,,,,,,,,,,,,,,,,,,,,,,,,,,,,,,,,,,,,,573,2023-05-16_17h02.46.433,eb_02psyexp,2022.2.4,60.00137643786526,
75,0,75,0,,,,,,,,,,,,,,,,,,,,,,,,,,,,,,,,,,,,,,,,,,,,,,,,,,,,,,,,,,,939.252285117982,939.252285117982,939.252285117982,939.252285117982,939.252285117982,939.252285117982,l,1,0.7508503722492605,940.0355639883783,941.0521334710065,,,,,,,,,,,,,,,,,,,,,,,,,,,,,,,,,,,,,,,,573,2023-05-16_17h02.46.433,eb_02psyexp,2022.2.4,60.00137643786526,
76,0,76,0,,,,,,,,,,,,,,,,,,,,,,,,,,,,,,,,,,,,,,,,,,,,,,,,,,,,,,,,,,,941.0521334710065,941.0521334710065,941.0521334710065,941.0521334710065,941.0521334710065,941.0521334710065,l,1,0.8149924471508712,941.8853885259014,942.9019839671673,,,,,,,,,,,,,,,,,,,,,,,,,,,,,,,,,,,,,,,,573,2023-05-16_17h02.46.433,eb_02psyexp,2022.2.4,60.00137643786526,
77,0,77,0,,,,,,,,,,,,,,,,,,,,,,,,,,,,,,,,,,,,,,,,,,,,,,,,,,,,,,,,,,,942.9019839671673,942.9019839671673,942.9019839671673,942.9019839671673,942.9019839671673,942.9019839671673,l,1,0.8211561233038083,943.7519153577741,944.7685274005635,,,,,,,,,,,,,,,,,,,,,,,,,,,,,,,,,,,,,,,,573,2023-05-16_17h02.46.433,eb_02psyexp,2022.2.4,60.00137643786526,
78,0,78,0,,,,,,,,,,,,,,,,,,,,,,,,,,,,,,,,,,,,,,,,,,,,,,,,,,,,,,,,,,,944.7685274005635,944.7685274005635,944.7685274005635,944.7685274005635,944.7685274005635,944.7685274005635,l,1,0.5706229138886556,945.3684686011402,946.3850561945001,,,,,,,,,,,,,,,,,,,,,,,,,,,,,,,,,,,,,,,,573,2023-05-16_17h02.46.433,eb_02psyexp,2022.2.4,60.00137643786526,
79,0,79,0,,,,,,,,,,,,,,,,,,,,,,,,,,,,,,,,,,,,,,,,,,,,,,,,,,,,,,,,,,,946.3850561945001,946.3850561945001,946.3850561945001,946.3850561945001,946.3850561945001,946.3850561945001,l,1,1.42611217754893,947.8349459908204,948.8682153531117,,,,,,,,,,,,,,,,,,,,,,,,,,,,,,,,,,,,,,,,573,2023-05-16_17h02.46.433,eb_02psyexp,2022.2.4,60.00137643786526,
80,0,80,0,,,,,,,,,,,,,,,,,,,,,,,,,,,,,,,,,,,,,,,,,,,,,,,,,,,,,,,,,,,948.8682153531117,948.8682153531117,948.8682153531117,948.8682153531117,948.8682153531117,948.8682153531117,s,1,0.542981754639186,949.4348129375139,950.4514053603634,,,,,,,,,,,,,,,,,,,,,,,,,,,,,,,,,,,,,,,,573,2023-05-16_17h02.46.433,eb_02psyexp,2022.2.4,60.00137643786526,
81,0,81,0,,,,,,,,,,,,,,,,,,,,,,,,,,,,,,,,,,,,,,,,,,,,,,,,,,,,,,,,,,,950.4514053603634,950.4514053603634,950.4514053603634,950.4514053603634,950.4514053603634,950.4514053603634,s,1,0.5828373760450631,951.0513559181709,952.0679818458157,,,,,,,,,,,,,,,,,,,,,,,,,,,,,,,,,,,,,,,,573,2023-05-16_17h02.46.433,eb_02psyexp,2022.2.4,60.00137643786526,
82,0,82,0,,,,,,,,,,,,,,,,,,,,,,,,,,,,,,,,,,,,,,,,,,,,,,,,,,,,,,,,,,,952.0679818458157,952.0679818458157,952.0679818458157,952.0679818458157,952.0679818458157,952.0679818458157,l,1,0.5342373033054173,952.6345842597075,953.6512135076337,,,,,,,,,,,,,,,,,,,,,,,,,,,,,,,,,,,,,,,,573,2023-05-16_17h02.46.433,eb_02psyexp,2022.2.4,60.00137643786526,
83,0,83,0,,,,,,,,,,,,,,,,,,,,,,,,,,,,,,,,,,,,,,,,,,,,,,,,,,,,,,,,,,,953.6512135076337,953.6512135076337,953.6512135076337,953.6512135076337,953.6512135076337,953.6512135076337,s,1,0.4790186738828197,954.151114502456,955.1677078309003,,,,,,,,,,,,,,,,,,,,,,,,,,,,,,,,,,,,,,,,573,2023-05-16_17h02.46.433,eb_02psyexp,2022.2.4,60.00137643786526,
84,0,84,0,,,,,,,,,,,,,,,,,,,,,,,,,,,,,,,,,,,,,,,,,,,,,,,,,,,,,,,,,,,955.1677078309003,955.1677078309003,955.1677078309003,955.1677078309003,955.1677078309003,955.1677078309003,l,1,0.546513341832906,955.7343349960865,956.7509512646357,,,,,,,,,,,,,,,,,,,,,,,,,,,,,,,,,,,,,,,,573,2023-05-16_17h02.46.433,eb_02psyexp,2022.2.4,60.00137643786526,
85,0,85,0,,,,,,,,,,,,,,,,,,,,,,,,,,,,,,,,,,,,,,,,,,,,,,,,,,,,,,,,,,,956.7509512646357,956.7509512646357,956.7509512646357,956.7509512646357,956.7509512646357,956.7509512646357,l,1,0.6912724965950474,957.4675413934747,958.5008065300062,,,,,,,,,,,,,,,,,,,,,,,,,,,,,,,,,,,,,,,,573,2023-05-16_17h02.46.433,eb_02psyexp,2022.2.4,60.00137643786526,
86,0,86,0,,,,,,,,,,,,,,,,,,,,,,,,,,,,,,,,,,,,,,,,,,,,,,,,,,,,,,,,,,,958.5008065300062,958.5008065300062,958.5008065300062,958.5008065300062,958.5008065300062,958.5008065300062,s,1,0.8454271825030446,959.3673831663327,960.3839810224017,,,,,,,,,,,,,,,,,,,,,,,,,,,,,,,,,,,,,,,,573,2023-05-16_17h02.46.433,eb_02psyexp,2022.2.4,60.00137643786526,
87,0,87,0,,,,,,,,,,,,,,,,,,,,,,,,,,,,,,,,,,,,,,,,,,,,,,,,,,,,,,,,,,,960.3839810224017,960.3839810224017,960.3839810224017,960.3839810224017,960.3839810224017,960.3839810224017,l,1,0.6343146360013634,961.0506390361115,962.0671873895917,,,,,,,,,,,,,,,,,,,,,,,,,,,,,,,,,,,,,,,,573,2023-05-16_17h02.46.433,eb_02psyexp,2022.2.4,60.00137643786526,
88,0,88,0,,,,,,,,,,,,,,,,,,,,,,,,,,,,,,,,,,,,,,,,,,,,,,,,,,,,,,,,,,,962.0671873895917,962.0671873895917,962.0671873895917,962.0671873895917,962.0671873895917,962.0671873895917,l,1,1.0790745755657554,963.1671153090429,964.1836995820049,,,,,,,,,,,,,,,,,,,,,,,,,,,,,,,,,,,,,,,,573,2023-05-16_17h02.46.433,eb_02psyexp,2022.2.4,60.00137643786526,
89,0,89,0,,,,,,,,,,,,,,,,,,,,,,,,,,,,,,,,,,,,,,,,,,,,,,,,,,,,,,,,,,,964.1836995820049,964.1836995820049,964.1836995820049,964.1836995820049,964.1836995820049,964.1836995820049,l,1,0.5865630495827645,964.8003095722524,965.8169056172483,,,,,,,,,,,,,,,,,,,,,,,,,,,,,,,,,,,,,,,,573,2023-05-16_17h02.46.433,eb_02psyexp,2022.2.4,60.00137643786526,
90,0,90,0,,,,,,,,,,,,,,,,,,,,,,,,,,,,,,,,,,,,,,,,,,,,,,,,,,,,,,,,,,,965.8169056172483,965.8169056172483,965.8169056172483,965.8169056172483,965.8169056172483,965.8169056172483,s,1,0.5373568718787283,966.3835237270687,967.4001424104208,,,,,,,,,,,,,,,,,,,,,,,,,,,,,,,,,,,,,,,,573,2023-05-16_17h02.46.433,eb_02psyexp,2022.2.4,60.00137643786526,
91,0,91,0,,,,,,,,,,,,,,,,,,,,,,,,,,,,,,,,,,,,,,,,,,,,,,,,,,,,,,,,,,,967.4001424104208,967.4001424104208,967.4001424104208,967.4001424104208,967.4001424104208,967.4001424104208,l,1,0.545127269346267,967.9667520686053,968.9833538486855,,,,,,,,,,,,,,,,,,,,,,,,,,,,,,,,,,,,,,,,573,2023-05-16_17h02.46.433,eb_02psyexp,2022.2.4,60.00137643786526,
92,0,92,0,,,,,,,,,,,,,,,,,,,,,,,,,,,,,,,,,,,,,,,,,,,,,,,,,,,,,,,,,,,968.9833538486855,968.9833538486855,968.9833538486855,968.9833538486855,968.9833538486855,968.9833538486855,s,1,0.5059139741351828,969.5166096279863,970.5332370648393,,,,,,,,,,,,,,,,,,,,,,,,,,,,,,,,,,,,,,,,573,2023-05-16_17h02.46.433,eb_02psyexp,2022.2.4,60.00137643786526,
93,0,93,0,,,,,,,,,,,,,,,,,,,,,,,,,,,,,,,,,,,,,,,,,,,,,,,,,,,,,,,,,,,970.5332370648393,970.5332370648393,970.5332370648393,970.5332370648393,970.5332370648393,970.5332370648393,l,1,0.5000599910272285,971.0498391467845,972.0664303621743,,,,,,,,,,,,,,,,,,,,,,,,,,,,,,,,,,,,,,,,573,2023-05-16_17h02.46.433,eb_02psyexp,2022.2.4,60.00137643786526,
94,0,94,0,,,,,,,,,,,,,,,,,,,,,,,,,,,,,,,,,,,,,,,,,,,,,,,,,,,,,,,,,,,972.0664303621743,972.0664303621743,972.0664303621743,972.0664303621743,972.0664303621743,972.0664303621743,l,1,1.3428913821699098,973.4329861712176,974.4662292730063,,,,,,,,,,,,,,,,,,,,,,,,,,,,,,,,,,,,,,,,573,2023-05-16_17h02.46.433,eb_02psyexp,2022.2.4,60.00137643786526,
95,0,95,0,,,,,,,,,,,,,,,,,,,,,,,,,,,,,,,,,,,,,,,,,,,,,,,,,,,,,,,,,,,974.4662292730063,974.4662292730063,974.4662292730063,974.4662292730063,974.4662292730063,974.4662292730063,s,1,0.46308517875149846,974.9495438819285,975.9828250161372,,,,,,,,,,,,,,,,,,,,,,,,,,,,,,,,,,,,,,,,573,2023-05-16_17h02.46.433,eb_02psyexp,2022.2.4,60.00137643786526,
96,0,96,0,,,,,,,,,,,,,,,,,,,,,,,,,,,,,,,,,,,,,,,,,,,,,,,,,,,,,,,,,,,975.9828250161372,975.9828250161372,975.9828250161372,975.9828250161372,975.9828250161372,975.9828250161372,l,0,0.6825126511976123,976.6827795583522,977.6993620202411,,,,,,,,,,,,,,,,,,,,,,,,,,,,,,,,,,,,,,,,573,2023-05-16_17h02.46.433,eb_02psyexp,2022.2.4,60.00137643786526,
97,0,97,0,,,,,,,,,,,,,,,,,,,,,,,,,,,,,,,,,,,,,,,,,,,,,,,,,,,,,,,,,,,977.6993620202411,977.6993620202411,977.6993620202411,977.6993620202411,977.6993620202411,977.6993620202411,s,1,0.6219881892902777,978.3492836310761,979.3658775631338,,,,,,,,,,,,,,,,,,,,,,,,,,,,,,,,,,,,,,,,573,2023-05-16_17h02.46.433,eb_02psyexp,2022.2.4,60.00137643786526,
98,0,98,0,,,,,,,,,,,,,,,,,,,,,,,,,,,,,,,,,,,,,,,,,,,,,,,,,,,,,,,,,,,979.3658775631338,979.3658775631338,979.3658775631338,979.3658775631338,979.3658775631338,979.3658775631338,l,1,0.6835093435365707,980.0824939524755,981.0990727923345,,,,,,,,,,,,,,,,,,,,,,,,,,,,,,,,,,,,,,,,573,2023-05-16_17h02.46.433,eb_02psyexp,2022.2.4,60.00137643786526,
99,0,99,0,,,,,,,,,,,,,,,,,,,,,,,,,,,,,,,,,,,,,,,,,,,,,,,,,,,,,,,,,,,981.0990727923345,981.0990727923345,981.0990727923345,981.0990727923345,981.0990727923345,981.0990727923345,l,1,0.5343012943631038,981.6656957316445,982.682290871162,,,,,,,,,,,,,,,,,,,,,,,,,,,,,,,,,,,,,,,,573,2023-05-16_17h02.46.433,eb_02psyexp,2022.2.4,60.00137643786526,
100,0,100,0,,,,,,,,,,,,,,,,,,,,,,,,,,,,,,,,,,,,,,,,,,,,,,,,,,,,,,,,,,,982.682290871162,982.682290871162,982.682290871162,982.682290871162,982.682290871162,982.682290871162,l,1,0.6620433303760365,983.3655793402577,984.3821657261578,,,,,,,,,,,,,,,,,,,,,,,,,,,,,,,,,,,,,,,,573,2023-05-16_17h02.46.433,eb_02psyexp,2022.2.4,60.00137643786526,
101,0,101,0,,,,,,,,,,,,,,,,,,,,,,,,,,,,,,,,,,,,,,,,,,,,,,,,,,,,,,,,,,,984.3821657261578,984.3821657261578,984.3821657261578,984.3821657261578,984.3821657261578,984.3821657261578,s,1,0.5622186419786885,984.965442061075,985.9987014625221,,,,,,,,,,,,,,,,,,,,,,,,,,,,,,,,,,,,,,,,573,2023-05-16_17h02.46.433,eb_02psyexp,2022.2.4,60.00137643786526,
102,0,102,0,,,,,,,,,,,,,,,,,,,,,,,,,,,,,,,,,,,,,,,,,,,,,,,,,,,,,,,,,,,985.9987014625221,985.9987014625221,985.9987014625221,985.9987014625221,985.9987014625221,985.9987014625221,s,1,0.49768024461809546,986.5153421806172,987.5319068336394,,,,,,,,,,,,,,,,,,,,,,,,,,,,,,,,,,,,,,,,573,2023-05-16_17h02.46.433,eb_02psyexp,2022.2.4,60.00137643786526,
103,0,103,0,,,,,,,,,,,,,,,,,,,,,,,,,,,,,,,,,,,,,,,,,,,,,,,,,,,,,,,,,,,987.5319068336394,987.5319068336394,987.5319068336394,987.5319068336394,987.5319068336394,987.5319068336394,l,1,0.5004934405442327,988.0652069841744,989.081818121369,,,,,,,,,,,,,,,,,,,,,,,,,,,,,,,,,,,,,,,,573,2023-05-16_17h02.46.433,eb_02psyexp,2022.2.4,60.00137643786526,
104,0,104,0,,,,,,,,,,,,,,,,,,,,,,,,,,,,,,,,,,,,,,,,,,,,,,,,,,,,,,,,,,,989.081818121369,989.081818121369,989.081818121369,989.081818121369,989.081818121369,989.081818121369,l,1,0.7266300229821354,989.8317355668405,990.8483358375961,,,,,,,,,,,,,,,,,,,,,,,,,,,,,,,,,,,,,,,,573,2023-05-16_17h02.46.433,eb_02psyexp,2022.2.4,60.00137643786526,
105,0,105,0,,,,,,,,,,,,,,,,,,,,,,,,,,,,,,,,,,,,,,,,,,,,,,,,,,,,,,,,,,,990.8483358375961,990.8483358375961,990.8483358375961,990.8483358375961,990.8483358375961,990.8483358375961,s,1,0.48009746812749654,991.3482968995813,992.3815602250397,,,,,,,,,,,,,,,,,,,,,,,,,,,,,,,,,,,,,,,,573,2023-05-16_17h02.46.433,eb_02psyexp,2022.2.4,60.00137643786526,
106,0,106,0,,,,,,,,,,,,,,,,,,,,,,,,,,,,,,,,,,,,,,,,,,,,,,,,,,,,,,,,,,,992.3815602250397,992.3815602250397,992.3815602250397,992.3815602250397,992.3815602250397,992.3815602250397,s,1,0.5548717333003879,992.9648489356041,993.9814476971515,,,,,,,,,,,,,,,,,,,,,,,,,,,,,,,,,,,,,,,,573,2023-05-16_17h02.46.433,eb_02psyexp,2022.2.4,60.00137643786526,
107,0,107,0,,,,,,,,,,,,,,,,,,,,,,,,,,,,,,,,,,,,,,,,,,,,,,,,,,,,,,,,,,,993.9814476971515,993.9814476971515,993.9814476971515,993.9814476971515,993.9814476971515,993.9814476971515,s,1,0.5390357341384515,994.5480141915614,995.5646485708421,,,,,,,,,,,,,,,,,,,,,,,,,,,,,,,,,,,,,,,,573,2023-05-16_17h02.46.433,eb_02psyexp,2022.2.4,60.00137643786526,
108,0,108,0,,,,,,,,,,,,,,,,,,,,,,,,,,,,,,,,,,,,,,,,,,,,,,,,,,,,,,,,,,,995.5646485708421,995.5646485708421,995.5646485708421,995.5646485708421,995.5646485708421,995.5646485708421,l,1,0.4517985883867368,996.047935711802,997.0645293419948,,,,,,,,,,,,,,,,,,,,,,,,,,,,,,,,,,,,,,,,573,2023-05-16_17h02.46.433,eb_02psyexp,2022.2.4,60.00137643786526,
109,0,109,0,,,,,,,,,,,,,,,,,,,,,,,,,,,,,,,,,,,,,,,,,,,,,,,,,,,,,,,,,,,997.0645293419948,997.0645293419948,997.0645293419948,997.0645293419948,997.0645293419948,997.0645293419948,l,1,0.5429446275811642,997.63116737362,998.6644512244966,,,,,,,,,,,,,,,,,,,,,,,,,,,,,,,,,,,,,,,,573,2023-05-16_17h02.46.433,eb_02psyexp,2022.2.4,60.00137643786526,
110,0,110,0,,,,,,,,,,,,,,,,,,,,,,,,,,,,,,,,,,,,,,,,,,,,,,,,,,,,,,,,,,,998.6644512244966,998.6644512244966,998.6644512244966,998.6644512244966,998.6644512244966,998.6644512244966,s,1,0.6390164763433859,999.3310204958543,1000.347612013109,,,,,,,,,,,,,,,,,,,,,,,,,,,,,,,,,,,,,,,,573,2023-05-16_17h02.46.433,eb_02psyexp,2022.2.4,60.00137643786526,
111,0,111,0,,,,,,,,,,,,,,,,,,,,,,,,,,,,,,,,,,,,,,,,,,,,,,,,,,,,,,,,,,,1000.347612013109,1000.347612013109,1000.347612013109,1000.347612013109,1000.347612013109,1000.347612013109,l,1,1.1798621497582644,1001.5475182600785,1002.5807701153681,,,,,,,,,,,,,,,,,,,,,,,,,,,,,,,,,,,,,,,,573,2023-05-16_17h02.46.433,eb_02psyexp,2022.2.4,60.00137643786526,
112,0,112,0,,,,,,,,,,,,,,,,,,,,,,,,,,,,,,,,,,,,,,,,,,,,,,,,,,,,,,,,,,,1002.5807701153681,1002.5807701153681,1002.5807701153681,1002.5807701153681,1002.5807701153681,1002.5807701153681,l,1,0.8827089711558074,1003.4807244763942,1004.5139603338903,,,,,,,,,,,,,,,,,,,,,,,,,,,,,,,,,,,,,,,,573,2023-05-16_17h02.46.433,eb_02psyexp,2022.2.4,60.00137643786526,
113,0,113,0,,,,,,,,,,,,,,,,,,,,,,,,,,,,,,,,,,,,,,,,,,,,,,,,,,,,,,,,,,,1004.5139603338903,1004.5139603338903,1004.5139603338903,1004.5139603338903,1004.5139603338903,1004.5139603338903,s,1,0.5735284744296223,1005.1139329263242,1006.1471739152912,,,,,,,,,,,,,,,,,,,,,,,,,,,,,,,,,,,,,,,,573,2023-05-16_17h02.46.433,eb_02psyexp,2022.2.4,60.00137643786526,
114,0,114,0,,,,,,,,,,,,,,,,,,,,,,,,,,,,,,,,,,,,,,,,,,,,,,,,,,,,,,,,,,,1006.1471739152912,1006.1471739152912,1006.1471739152912,1006.1471739152912,1006.1471739152912,1006.1471739152912,l,1,0.7403108484577388,1006.9137915421743,1007.9303866815753,,,,,,,,,,,,,,,,,,,,,,,,,,,,,,,,,,,,,,,,573,2023-05-16_17h02.46.433,eb_02psyexp,2022.2.4,60.00137643786526,
115,0,115,0,,,,,,,,,,,,,,,,,,,,,,,,,,,,,,,,,,,,,,,,,,,,,,,,,,,,,,,,,,,1007.9303866815753,1007.9303866815753,1007.9303866815753,1007.9303866815753,1007.9303866815753,1007.9303866815753,l,1,0.6851302514551207,1008.6469725845382,1009.6635746664833,,,,,,,,,,,,,,,,,,,,,,,,,,,,,,,,,,,,,,,,573,2023-05-16_17h02.46.433,eb_02psyexp,2022.2.4,60.00137643786526,
116,0,116,0,,,,,,,,,,,,,,,,,,,,,,,,,,,,,,,,,,,,,,,,,,,,,,,,,,,,,,,,,,,1009.6635746664833,1009.6635746664833,1009.6635746664833,1009.6635746664833,1009.6635746664833,1009.6635746664833,s,1,0.7599440583726391,1010.446854744223,1011.4634526002919,,,,,,,,,,,,,,,,,,,,,,,,,,,,,,,,,,,,,,,,573,2023-05-16_17h02.46.433,eb_02psyexp,2022.2.4,60.00137643786526,
117,0,117,0,,,,,,,,,,,,,,,,,,,,,,,,,,,,,,,,,,,,,,,,,,,,,,,,,,,,,,,,,,,1011.4634526002919,1011.4634526002919,1011.4634526002919,1011.4634526002919,1011.4634526002919,1011.4634526002919,l,1,0.5361024038866162,1012.0300728230504,1013.0632727610646,,,,,,,,,,,,,,,,,,,,,,,,,,,,,,,,,,,,,,,,573,2023-05-16_17h02.46.433,eb_02psyexp,2022.2.4,60.00137643786526,
118,0,118,0,,,,,,,,,,,,,,,,,,,,,,,,,,,,,,,,,,,,,,,,,,,,,,,,,,,,,,,,,,,1013.0632727610646,1013.0632727610646,1013.0632727610646,1013.0632727610646,1013.0632727610646,1013.0632727610646,s,1,0.5522767712827772,1013.6465992023004,1014.6631786457729,,,,,,,,,,,,,,,,,,,,,,,,,,,,,,,,,,,,,,,,573,2023-05-16_17h02.46.433,eb_02psyexp,2022.2.4,60.00137643786526,
119,0,119,0,,,,,,,,,,,,,,,,,,,,,,,,,,,,,,,,,,,,,,,,,,,,,,,,,,,,,,,,,,,1014.6631786457729,1014.6631786457729,1014.6631786457729,1014.6631786457729,1014.6631786457729,1014.6631786457729,l,1,0.5673998123966157,1015.2631427865708,1016.2963686832227,,,,,,,,,,,,,,,,,,,,,,,,,,,,,,,,,,,,,,,,573,2023-05-16_17h02.46.433,eb_02psyexp,2022.2.4,60.00137643786526,
120,0,120,0,,,,,,,,,,,,,,,,,,,,,,,,,,,,,,,,,,,,,,,,,,,,,,,,,,,,,,,,,,,1016.2963686832227,1016.2963686832227,1016.2963686832227,1016.2963686832227,1016.2963686832227,1016.2963686832227,s,1,0.5422075219685212,1016.8630556137068,1017.8796247944701,,,,,,,,,,,,,,,,,,,,,,,,,,,,,,,,,,,,,,,,573,2023-05-16_17h02.46.433,eb_02psyexp,2022.2.4,60.00137643786526,
121,0,121,0,,,,,,,,,,,,,,,,,,,,,,,,,,,,,,,,,,,,,,,,,,,,,,,,,,,,,,,,,,,1017.8796247944701,1017.8796247944701,1017.8796247944701,1017.8796247944701,1017.8796247944701,1017.8796247944701,s,1,0.7829476702027023,1018.6795640029013,1019.6961521998746,,,,,,,,,,,,,,,,,,,,,,,,,,,,,,,,,,,,,,,,573,2023-05-16_17h02.46.433,eb_02psyexp,2022.2.4,60.00137643786526,
122,0,122,0,,,,,,,,,,,,,,,,,,,,,,,,,,,,,,,,,,,,,,,,,,,,,,,,,,,,,,,,,,,1019.6961521998746,1019.6961521998746,1019.6961521998746,1019.6961521998746,1019.6961521998746,1019.6961521998746,l,1,0.5984325028257445,1020.3127531347563,1021.3293573295232,,,,,,,,,,,,,,,,,,,,,,,,,,,,,,,,,,,,,,,,573,2023-05-16_17h02.46.433,eb_02psyexp,2022.2.4,60.00137643786526,
123,0,123,0,,,,,,,,,,,,,,,,,,,,,,,,,,,,,,,,,,,,,,,,,,,,,,,,,,,,,,,,,,,1021.3293573295232,1021.3293573295232,1021.3293573295232,1021.3293573295232,1021.3293573295232,1021.3293573295232,s,1,0.4692422142252326,1021.829309336259,1022.8625762837473,,,,,,,,,,,,,,,,,,,,,,,,,,,,,,,,,,,,,,,,573,2023-05-16_17h02.46.433,eb_02psyexp,2022.2.4,60.00137643786526,
124,0,124,0,,,,,,,,,,,,,,,,,,,,,,,,,,,,,,,,,,,,,,,,,,,,,,,,,,,,,,,,,,,1022.8625762837473,1022.8625762837473,1022.8625762837473,1022.8625762837473,1022.8625762837473,1022.8625762837473,s,1,0.5840118551859632,1023.4791980459122,1024.4957337218802,,,,,,,,,,,,,,,,,,,,,,,,,,,,,,,,,,,,,,,,573,2023-05-16_17h02.46.433,eb_02psyexp,2022.2.4,60.00137643786526,
125,0,125,0,,,,,,,,,,,,,,,,,,,,,,,,,,,,,,,,,,,,,,,,,,,,,,,,,,,,,,,,,,,1024.4957337218802,1024.4957337218802,1024.4957337218802,1024.4957337218802,1024.4957337218802,1024.4957337218802,s,1,0.4788931063376367,1024.995734627475,1026.029000065755,,,,,,,,,,,,,,,,,,,,,,,,,,,,,,,,,,,,,,,,573,2023-05-16_17h02.46.433,eb_02psyexp,2022.2.4,60.00137643786526,
126,0,126,0,,,,,,,,,,,,,,,,,,,,,,,,,,,,,,,,,,,,,,,,,,,,,,,,,,,,,,,,,,,1026.029000065755,1026.029000065755,1026.029000065755,1026.029000065755,1026.029000065755,1026.029000065755,s,1,0.4976135367760435,1026.5456244841916,1027.5622087572701,,,,,,,,,,,,,,,,,,,,,,,,,,,,,,,,,,,,,,,,573,2023-05-16_17h02.46.433,eb_02psyexp,2022.2.4,60.00137643786526,
127,0,127,0,,,,,,,,,,,,,,,,,,,,,,,,,,,,,,,,,,,,,,,,,,,,,,,,,,,,,,,,,,,1027.5622087572701,1027.5622087572701,1027.5622087572701,1027.5622087572701,1027.5622087572701,1027.5622087572701,l,1,0.460417170310393,1028.045512801502,1029.0620967727154,,,,,,,,,,,,,,,,,,,,,,,,,,,,,,,,,,,,,,,,573,2023-05-16_17h02.46.433,eb_02psyexp,2022.2.4,60.00137643786526,
128,0,128,0,,,,,,,,,,,,,,,,,,,,,,,,,,,,,,,,,,,,,,,,,,,,,,,,,,,,,,,,,,,1029.0620967727154,1029.0620967727154,1029.0620967727154,1029.0620967727154,1029.0620967727154,1029.0620967727154,l,1,0.6315319263376296,1029.7120796580566,1030.7286627236754,,,,,,,,,,,,,,,,,,,,,,,,,,,,,,,,,,,,,,,,573,2023-05-16_17h02.46.433,eb_02psyexp,2022.2.4,60.00137643786526,
129,0,129,0,,,,,,,,,,,,,,,,,,,,,,,,,,,,,,,,,,,,,,,,,,,,,,,,,,,,,,,,,,,1030.7286627236754,1030.7286627236754,1030.7286627236754,1030.7286627236754,1030.7286627236754,1030.7286627236754,s,1,0.47697910689748824,1031.2286141266814,1032.2452125864802,,,,,,,,,,,,,,,,,,,,,,,,,,,,,,,,,,,,,,,,573,2023-05-16_17h02.46.433,eb_02psyexp,2022.2.4,60.00137643786526,
130,0,130,0,,,,,,,,,,,,,,,,,,,,,,,,,,,,,,,,,,,,,,,,,,,,,,,,,,,,,,,,,,,1032.2452125864802,1032.2452125864802,1032.2452125864802,1032.2452125864802,1032.2452125864802,1032.2452125864802,l,1,0.5204444932751358,1032.795134136919,1033.811741953832,,,,,,,,,,,,,,,,,,,,,,,,,,,,,,,,,,,,,,,,573,2023-05-16_17h02.46.433,eb_02psyexp,2022.2.4,60.00137643786526,
131,0,131,0,,,,,,,,,,,,,,,,,,,,,,,,,,,,,,,,,,,,,,,,,,,,,,,,,,,,,,,,,,,1033.811741953832,1033.811741953832,1033.811741953832,1033.811741953832,1033.811741953832,1033.811741953832,l,1,0.7139135925099254,1034.5450443379814,1035.5616098965984,,,,,,,,,,,,,,,,,,,,,,,,,,,,,,,,,,,,,,,,573,2023-05-16_17h02.46.433,eb_02psyexp,2022.2.4,60.00137643786526,
132,0,132,0,,,,,,,,,,,,,,,,,,,,,,,,,,,,,,,,,,,,,,,,,,,,,,,,,,,,,,,,,,,1035.5616098965984,1035.5616098965984,1035.5616098965984,1035.5616098965984,1035.5616098965984,1035.5616098965984,l,1,0.532065829844214,1036.1115598204779,1037.1281718632672,,,,,,,,,,,,,,,,,,,,,,,,,,,,,,,,,,,,,,,,573,2023-05-16_17h02.46.433,eb_02psyexp,2022.2.4,60.00137643786526,
133,0,133,0,,,,,,,,,,,,,,,,,,,,,,,,,,,,,,,,,,,,,,,,,,,,,,,,,,,,,,,,,,,1037.1281718632672,1037.1281718632672,1037.1281718632672,1037.1281718632672,1037.1281718632672,1037.1281718632672,l,1,0.5495423568645492,1037.6947609960334,1038.7280379044823,,,,,,,,,,,,,,,,,,,,,,,,,,,,,,,,,,,,,,,,573,2023-05-16_17h02.46.433,eb_02psyexp,2022.2.4,60.00137643786526,
134,0,134,0,,,,,,,,,,,,,,,,,,,,,,,,,,,,,,,,,,,,,,,,,,,,,,,,,,,,,,,,,,,1038.7280379044823,1038.7280379044823,1038.7280379044823,1038.7280379044823,1038.7280379044823,1038.7280379044823,s,1,0.5096731523517519,1039.2613178313477,1040.294579043868,,,,,,,,,,,,,,,,,,,,,,,,,,,,,,,,,,,,,,,,573,2023-05-16_17h02.46.433,eb_02psyexp,2022.2.4,60.00137643786526,
135,0,135,0,,,,,,,,,,,,,,,,,,,,,,,,,,,,,,,,,,,,,,,,,,,,,,,,,,,,,,,,,,,1040.294579043868,1040.294579043868,1040.294579043868,1040.294579043868,1040.294579043868,1040.294579043868,l,1,0.6311241335934028,1040.9445338576334,1041.977744963835,,,,,,,,,,,,,,,,,,,,,,,,,,,,,,,,,,,,,,,,573,2023-05-16_17h02.46.433,eb_02psyexp,2022.2.4,60.00137643786526,
136,0,136,0,,,,,,,,,,,,,,,,,,,,,,,,,,,,,,,,,,,,,,,,,,,,,,,,,,,,,,,,,,,1041.977744963835,1041.977744963835,1041.977744963835,1041.977744963835,1041.977744963835,1041.977744963835,s,1,0.48396078299265355,1042.49440469814,1043.52768915263,,,,,,,,,,,,,,,,,,,,,,,,,,,,,,,,,,,,,,,,573,2023-05-16_17h02.46.433,eb_02psyexp,2022.2.4,60.00137643786526,
137,0,137,0,,,,,,,,,,,,,,,,,,,,,,,,,,,,,,,,,,,,,,,,,,,,,,,,,,,,,,,,,,,1043.52768915263,1043.52768915263,1043.52768915263,1043.52768915263,1043.52768915263,1043.52768915263,l,1,0.5020322465570644,1044.0609533835668,1045.0942010130966,,,,,,,,,,,,,,,,,,,,,,,,,,,,,,,,,,,,,,,,573,2023-05-16_17h02.46.433,eb_02psyexp,2022.2.4,60.00137643786526,
138,0,138,0,,,,,,,,,,,,,,,,,,,,,,,,,,,,,,,,,,,,,,,,,,,,,,,,,,,,,,,,,,,1045.0942010130966,1045.0942010130966,1045.0942010130966,1045.0942010130966,1045.0942010130966,1045.0942010130966,s,1,0.4865337102673948,1045.6108323739609,1046.6274296263,,,,,,,,,,,,,,,,,,,,,,,,,,,,,,,,,,,,,,,,573,2023-05-16_17h02.46.433,eb_02psyexp,2022.2.4,60.00137643786526,
139,0,139,0,,,,,,,,,,,,,,,,,,,,,,,,,,,,,,,,,,,,,,,,,,,,,,,,,,,,,,,,,,,1046.6274296263,1046.6274296263,1046.6274296263,1046.6274296263,1046.6274296263,1046.6274296263,l,1,0.49729810876306146,1047.1440428764326,1048.1606612579199,,,,,,,,,,,,,,,,,,,,,,,,,,,,,,,,,,,,,,,,573,2023-05-16_17h02.46.433,eb_02psyexp,2022.2.4,60.00137643786526,
140,0,140,0,,,,,,,,,,,,,,,,,,,,,,,,,,,,,,,,,,,,,,,,,,,,,,,,,,,,,,,,,,,1048.1606612579199,1048.1606612579199,1048.1606612579199,1048.1606612579199,1048.1606612579199,1048.1606612579199,l,1,0.5160773990210146,1048.693930922076,1049.727201793692,,,,,,,,,,,,,,,,,,,,,,,,,,,,,,,,,,,,,,,,573,2023-05-16_17h02.46.433,eb_02psyexp,2022.2.4,60.00137643786526,
141,0,141,0,,,,,,,,,,,,,,,,,,,,,,,,,,,,,,,,,,,,,,,,,,,,,,,,,,,,,,,,,,,1049.727201793692,1049.727201793692,1049.727201793692,1049.727201793692,1049.727201793692,1049.727201793692,s,1,0.5015643868828192,1050.2604805130977,1051.2770662953844,,,,,,,,,,,,,,,,,,,,,,,,,,,,,,,,,,,,,,,,573,2023-05-16_17h02.46.433,eb_02psyexp,2022.2.4,60.00137643786526,
142,0,142,0,,,,,,,,,,,,,,,,,,,,,,,,,,,,,,,,,,,,,,,,,,,,,,,,,,,,,,,,,,,1051.2770662953844,1051.2770662953844,1051.2770662953844,1051.2770662953844,1051.2770662953844,1051.2770662953844,l,1,0.4637214682297781,1051.760365510243,1052.7769854009384,,,,,,,,,,,,,,,,,,,,,,,,,,,,,,,,,,,,,,,,573,2023-05-16_17h02.46.433,eb_02psyexp,2022.2.4,60.00137643786526,
143,0,143,0,,,,,,,,,,,,,,,,,,,,,,,,,,,,,,,,,,,,,,,,,,,,,,,,,,,,,,,,,,,1052.7769854009384,1052.7769854009384,1052.7769854009384,1052.7769854009384,1052.7769854009384,1052.7769854009384,l,1,0.39580602827481925,1053.193589535309,1054.2101849766914,,,,,,,,,,,,,,,,,,,,,,,,,,,,,,,,,,,,,,,,573,2023-05-16_17h02.46.433,eb_02psyexp,2022.2.4,60.00137643786526,
144,0,144,0,,,,,,,,,,,,,,,,,,,,,,,,,,,,,,,,,,,,,,,,,,,,,,,,,,,,,,,,,,,1054.2101849766914,1054.2101849766914,1054.2101849766914,1054.2101849766914,1054.2101849766914,1054.2101849766914,l,1,0.4106160559458658,1054.6434841612354,1055.6600874505239,,,,,,,,,,,,,,,,,,,,,,,,,,,,,,,,,,,,,,,,573,2023-05-16_17h02.46.433,eb_02psyexp,2022.2.4,60.00137643786526,
145,0,145,0,,,,,,,,,,,,,,,,,,,,,,,,,,,,,,,,,,,,,,,,,,,,,,,,,,,,,,,,,,,1055.6600874505239,1055.6600874505239,1055.6600874505239,1055.6600874505239,1055.6600874505239,1055.6600874505239,l,1,0.4006992384092882,1056.0933715428691,1057.109966984135,,,,,,,,,,,,,,,,,,,,,,,,,,,,,,,,,,,,,,,,573,2023-05-16_17h02.46.433,eb_02psyexp,2022.2.4,60.00137643786526,
146,0,146,0,,,,,,,,,,,,,,,,,,,,,,,,,,,,,,,,,,,,,,,,,,,,,,,,,,,,,,,,,,,1057.109966984135,1057.109966984135,1057.109966984135,1057.109966984135,1057.109966984135,1057.109966984135,l,1,0.42283202742692083,1057.5599295251304,1058.5765310033457,,,,,,,,,,,,,,,,,,,,,,,,,,,,,,,,,,,,,,,,573,2023-05-16_17h02.46.433,eb_02psyexp,2022.2.4,60.00137643786526,
147,0,147,0,,,,,,,,,,,,,,,,,,,,,,,,,,,,,,,,,,,,,,,,,,,,,,,,,,,,,,,,,,,1058.5765310033457,1058.5765310033457,1058.5765310033457,1058.5765310033457,1058.5765310033457,1058.5765310033457,l,1,0.4602894898271188,1059.059813012951,1060.0764045303222,,,,,,,,,,,,,,,,,,,,,,,,,,,,,,,,,,,,,,,,573,2023-05-16_17h02.46.433,eb_02psyexp,2022.2.4,60.00137643786526,
148,0,148,0,,,,,,,,,,,,,,,,,,,,,,,,,,,,,,,,,,,,,,,,,,,,,,,,,,,,,,,,,,,1060.0764045303222,1060.0764045303222,1060.0764045303222,1060.0764045303222,1060.0764045303222,1060.0764045303222,l,1,0.3754230351187289,1060.4763679467142,1061.5096222166903,,,,,,,,,,,,,,,,,,,,,,,,,,,,,,,,,,,,,,,,573,2023-05-16_17h02.46.433,eb_02psyexp,2022.2.4,60.00137643786526,
149,0,149,0,,,,,,,,,,,,,,,,,,,,,,,,,,,,,,,,,,,,,,,,,,,,,,,,,,,,,,,,,,,1061.5096222166903,1061.5096222166903,1061.5096222166903,1061.5096222166903,1061.5096222166903,1061.5096222166903,s,1,0.4142291413154453,1061.9429349843413,1062.9595470271306,,,,,,,,,,,,,,,,,,,,,,,,,,,,,,,,,,,,,,,,573,2023-05-16_17h02.46.433,eb_02psyexp,2022.2.4,60.00137643786526,
150,0,150,0,,,,,,,,,,,,,,,,,,,,,,,,,,,,,,,,,,,,,,,,,,,,,,,,,,,,,,,,,,,1062.9595470271306,1062.9595470271306,1062.9595470271306,1062.9595470271306,1062.9595470271306,1062.9595470271306,s,1,0.49223858187906444,1063.4761515237624,1064.4927620573435,,,,,,,,,,,,,,,,,,,,,,,,,,,,,,,,,,,,,,,,573,2023-05-16_17h02.46.433,eb_02psyexp,2022.2.4,60.00137643786526,
151,0,151,0,,,,,,,,,,,,,,,,,,,,,,,,,,,,,,,,,,,,,,,,,,,,,,,,,,,,,,,,,,,1064.4927620573435,1064.4927620573435,1064.4927620573435,1064.4927620573435,1064.4927620573435,1064.4927620573435,l,1,0.47907330782618374,1064.9926527894568,1066.0093013554579,,,,,,,,,,,,,,,,,,,,,,,,,,,,,,,,,,,,,,,,573,2023-05-16_17h02.46.433,eb_02psyexp,2022.2.4,60.00137643786526,
152,0,152,0,,,,,,,,,,,,,,,,,,,,,,,,,,,,,,,,,,,,,,,,,,,,,,,,,,,,,,,,,,,1066.0093013554579,1066.0093013554579,1066.0093013554579,1066.0093013554579,1066.0093013554579,1066.0093013554579,l,1,0.4105294265318662,1066.4425775997806,1067.4758376049576,,,,,,,,,,,,,,,,,,,,,,,,,,,,,,,,,,,,,,,,573,2023-05-16_17h02.46.433,eb_02psyexp,2022.2.4,60.00137643786526,
153,0,153,0,,,,,,,,,,,,,,,,,,,,,,,,,,,,,,,,,,,,,,,,,,,,,,,,,,,,,,,,,,,1067.4758376049576,1067.4758376049576,1067.4758376049576,1067.4758376049576,1067.4758376049576,1067.4758376049576,s,1,0.440002785413526,1067.9424731613835,1068.9590628676815,,,,,,,,,,,,,,,,,,,,,,,,,,,,,,,,,,,,,,,,573,2023-05-16_17h02.46.433,eb_02psyexp,2022.2.4,60.00137643786526,
154,0,154,0,,,,,,,,,,,,,,,,,,,,,,,,,,,,,,,,,,,,,,,,,,,,,,,,,,,,,,,,,,,1068.9590628676815,1068.9590628676815,1068.9590628676815,1068.9590628676815,1068.9590628676815,1068.9590628676815,l,1,0.5168341245735064,1069.5090272801463,1070.5422860778635,,,,,,,,,,,,,,,,,,,,,,,,,,,,,,,,,,,,,,,,573,2023-05-16_17h02.46.433,eb_02psyexp,2022.2.4,60.00137643786526,
155,0,155,0,,,,,,,,,,,,,,,,,,,,,,,,,,,,,,,,,,,,,,,,,,,,,,,,,,,,,,,,,,,1070.5422860778635,1070.5422860778635,1070.5422860778635,1070.5422860778635,1070.5422860778635,1070.5422860778635,s,1,0.4695772622944787,1071.0422658541938,1072.0588302054675,,,,,,,,,,,,,,,,,,,,,,,,,,,,,,,,,,,,,,,,573,2023-05-16_17h02.46.433,eb_02psyexp,2022.2.4,60.00137643786526,
156,0,156,0,,,,,,,,,,,,,,,,,,,,,,,,,,,,,,,,,,,,,,,,,,,,,,,,,,,,,,,,,,,1072.0588302054675,1072.0588302054675,1072.0588302054675,1072.0588302054675,1072.0588302054675,1072.0588302054675,s,1,0.5050537156639621,1072.5921188858338,1073.6253299920354,,,,,,,,,,,,,,,,,,,,,,,,,,,,,,,,,,,,,,,,573,2023-05-16_17h02.46.433,eb_02psyexp,2022.2.4,60.00137643786526,
157,0,157,0,,,,,,,,,,,,,,,,,,,,,,,,,,,,,,,,,,,,,,,,,,,,,,,,,,,,,,,,,,,1073.6253299920354,1073.6253299920354,1073.6253299920354,1073.6253299920354,1073.6253299920354,1073.6253299920354,s,1,0.4425566963618621,1074.0920005625812,1075.1086062666727,,,,,,,,,,,,,,,,,,,,,,,,,,,,,,,,,,,,,,,,573,2023-05-16_17h02.46.433,eb_02psyexp,2022.2.4,60.00137643786526,
158,0,158,0,,,,,,,,,,,,,,,,,,,,,,,,,,,,,,,,,,,,,,,,,,,,,,,,,,,,,,,,,,,1075.1086062666727,1075.1086062666727,1075.1086062666727,1075.1086062666727,1075.1086062666727,1075.1086062666727,l,1,0.5352892332011834,1075.6752195470035,1076.6918376266258,,,,,,,,,,,,,,,,,,,,,,,,,,,,,,,,,,,,,,,,573,2023-05-16_17h02.46.433,eb_02psyexp,2022.2.4,60.00137643786526,
159,0,159,0,,,,,,,,,,,,,,,,,,,,,,,,,,,,,,,,,,,,,,,,,,,,,,,,,,,,,,,,,,,1076.6918376266258,1076.6918376266258,1076.6918376266258,1076.6918376266258,1076.6918376266258,1076.6918376266258,l,1,0.5110809577163309,1077.2250909911236,1078.2416903564008,,,,,,,,,,,,,,,,,,,,,,,,,,,,,,,,,,,,,,,,573,2023-05-16_17h02.46.433,eb_02psyexp,2022.2.4,60.00137643786526,
160,0,160,0,,,,,,,,,,,,,,,,,,,,,,,,,,,,,,,,,,,,,,,,,,,,,,,,,,,,,,,,,,,1078.2416903564008,1078.2416903564008,1078.2416903564008,1078.2416903564008,1078.2416903564008,1078.2416903564008,l,1,0.4812130874488503,1078.7416483999696,1079.7582507836632,,,,,,,,,,,,,,,,,,,,,,,,,,,,,,,,,,,,,,,,573,2023-05-16_17h02.46.433,eb_02psyexp,2022.2.4,60.00137643786526,
161,0,161,0,,,,,,,,,,,,,,,,,,,,,,,,,,,,,,,,,,,,,,,,,,,,,,,,,,,,,,,,,,,1079.7582507836632,1079.7582507836632,1079.7582507836632,1079.7582507836632,1079.7582507836632,1079.7582507836632,l,1,0.36466980492696166,1080.141531525529,1081.1747954547172,,,,,,,,,,,,,,,,,,,,,,,,,,,,,,,,,,,,,,,,573,2023-05-16_17h02.46.433,eb_02psyexp,2022.2.4,60.00137643786526,
162,0,162,0,,,,,,,,,,,,,,,,,,,,,,,,,,,,,,,,,,,,,,,,,,,,,,,,,,,,,,,,,,,1081.1747954547172,1081.1747954547172,1081.1747954547172,1081.1747954547172,1081.1747954547172,1081.1747954547172,l,1,0.5801370701519772,1081.774746918003,1082.8080099414801,,,,,,,,,,,,,,,,,,,,,,,,,,,,,,,,,,,,,,,,573,2023-05-16_17h02.46.433,eb_02psyexp,2022.2.4,60.00137643786526,
163,0,163,0,,,,,,,,,,,,,,,,,,,,,,,,,,,,,,,,,,,,,,,,,,,,,,,,,,,,,,,,,,,1082.8080099414801,1082.8080099414801,1082.8080099414801,1082.8080099414801,1082.8080099414801,1082.8080099414801,s,1,0.4269389312248677,1083.2579691623105,1084.2745766773587,,,,,,,,,,,,,,,,,,,,,,,,,,,,,,,,,,,,,,,,573,2023-05-16_17h02.46.433,eb_02psyexp,2022.2.4,60.00137643786526,
164,0,164,0,,,,,,,,,,,,,,,,,,,,,,,,,,,,,,,,,,,,,,,,,,,,,,,,,,,,,,,,,,,1084.2745766773587,1084.2745766773587,1084.2745766773587,1084.2745766773587,1084.2745766773587,1084.2745766773587,l,1,0.5843840301968157,1084.8911727827508,1085.9244665944716,,,,,,,,,,,,,,,,,,,,,,,,,,,,,,,,,,,,,,,,573,2023-05-16_17h02.46.433,eb_02psyexp,2022.2.4,60.00137643786526,
165,0,165,0,,,,,,,,,,,,,,,,,,,,,,,,,,,,,,,,,,,,,,,,,,,,,,,,,,,,,,,,,,,1085.9244665944716,1085.9244665944716,1085.9244665944716,1085.9244665944716,1085.9244665944716,1085.9244665944716,l,1,0.710494291735813,1086.6577119298745,1087.6909975918243,,,,,,,,,,,,,,,,,,,,,,,,,,,,,,,,,,,,,,,,573,2023-05-16_17h02.46.433,eb_02psyexp,2022.2.4,60.00137643786526,
166,0,166,0,,,,,,,,,,,,,,,,,,,,,,,,,,,,,,,,,,,,,,,,,,,,,,,,,,,,,,,,,,,1087.6909975918243,1087.6909975918243,1087.6909975918243,1087.6909975918243,1087.6909975918243,1087.6909975918243,s,1,0.4319854787318036,1088.1409344760468,1089.1575299173128,,,,,,,,,,,,,,,,,,,,,,,,,,,,,,,,,,,,,,,,573,2023-05-16_17h02.46.433,eb_02psyexp,2022.2.4,60.00137643786526,
167,0,167,0,,,,,,,,,,,,,,,,,,,,,,,,,,,,,,,,,,,,,,,,,,,,,,,,,,,,,,,,,,,1089.1575299173128,1089.1575299173128,1089.1575299173128,1089.1575299173128,1089.1575299173128,1089.1575299173128,s,1,0.5014442524407059,1089.6908261438366,1090.7240864507621,,,,,,,,,,,,,,,,,,,,,,,,,,,,,,,,,,,,,,,,573,2023-05-16_17h02.46.433,eb_02psyexp,2022.2.4,60.00137643786526,
168,0,168,0,,,,,,,,,,,,,,,,,,,,,,,,,,,,,,,,,,,,,,,,,,,,,,,,,,,,,,,,,,,1090.7240864507621,1090.7240864507621,1090.7240864507621,1090.7240864507621,1090.7240864507621,1090.7240864507621,s,1,0.4389028620207682,1091.1907020854997,1092.2239747681888,,,,,,,,,,,,,,,,,,,,,,,,,,,,,,,,,,,,,,,,573,2023-05-16_17h02.46.433,eb_02psyexp,2022.2.4,60.00137643786526,
169,0,169,0,,,,,,,,,,,,,,,,,,,,,,,,,,,,,,,,,,,,,,,,,,,,,,,,,,,,,,,,,,,1092.2239747681888,1092.2239747681888,1092.2239747681888,1092.2239747681888,1092.2239747681888,1092.2239747681888,l,1,0.4900109653826803,1092.7405834905803,1093.7738549658097,,,,,,,,,,,,,,,,,,,,,,,,,,,,,,,,,,,,,,,,573,2023-05-16_17h02.46.433,eb_02psyexp,2022.2.4,60.00137643786526,
170,0,170,0,,,,,,,,,,,,,,,,,,,,,,,,,,,,,,,,,,,,,,,,,,,,,,,,,,,,,,,,,,,1093.7738549658097,1093.7738549658097,1093.7738549658097,1093.7738549658097,1093.7738549658097,1093.7738549658097,s,1,0.5561476324219257,1094.3571388468845,1095.3737354956102,,,,,,,,,,,,,,,,,,,,,,,,,,,,,,,,,,,,,,,,573,2023-05-16_17h02.46.433,eb_02psyexp,2022.2.4,60.00137643786526,
171,0,171,0,,,,,,,,,,,,,,,,,,,,,,,,,,,,,,,,,,,,,,,,,,,,,,,,,,,,,,,,,,,1095.3737354956102,1095.3737354956102,1095.3737354956102,1095.3737354956102,1095.3737354956102,1095.3737354956102,l,1,0.492271784809418,1095.8903707803693,1096.9236039213138,,,,,,,,,,,,,,,,,,,,,,,,,,,,,,,,,,,,,,,,573,2023-05-16_17h02.46.433,eb_02psyexp,2022.2.4,60.00137643786526,
172,0,172,0,,,,,,,,,,,,,,,,,,,,,,,,,,,,,,,,,,,,,,,,,,,,,,,,,,,,,,,,,,,1096.9236039213138,1096.9236039213138,1096.9236039213138,1096.9236039213138,1096.9236039213138,1096.9236039213138,l,1,0.6224086594302207,1097.5735499815783,1098.6068157217233,,,,,,,,,,,,,,,,,,,,,,,,,,,,,,,,,,,,,,,,573,2023-05-16_17h02.46.433,eb_02psyexp,2022.2.4,60.00137643786526,
173,0,173,0,,,,,,,,,,,,,,,,,,,,,,,,,,,,,,,,,,,,,,,,,,,,,,,,,,,,,,,,,,,1098.6068157217233,1098.6068157217233,1098.6068157217233,1098.6068157217233,1098.6068157217233,1098.6068157217233,s,1,0.48320647224318236,1099.1067770855734,1100.1400123393396,,,,,,,,,,,,,,,,,,,,,,,,,,,,,,,,,,,,,,,,573,2023-05-16_17h02.46.433,eb_02psyexp,2022.2.4,60.00137643786526,
174,0,174,0,,,,,,,,,,,,,,,,,,,,,,,,,,,,,,,,,,,,,,,,,,,,,,,,,,,,,,,,,,,1100.1400123393396,1100.1400123393396,1100.1400123393396,1100.1400123393396,1100.1400123393396,1100.1400123393396,l,1,1.214027086389251,1101.3732516379096,1102.4065439404221,,,,,,,,,,,,,,,,,,,,,,,,,,,,,,,,,,,,,,,,573,2023-05-16_17h02.46.433,eb_02psyexp,2022.2.4,60.00137643786526,
175,0,175,0,,,,,,,,,,,,,,,,,,,,,,,,,,,,,,,,,,,,,,,,,,,,,,,,,,,,,,,,,,,1102.4065439404221,1102.4065439404221,1102.4065439404221,1102.4065439404221,1102.4065439404221,1102.4065439404221,s,1,0.45150428952183574,1102.8898217242677,1103.9231064806227,,,,,,,,,,,,,,,,,,,,,,,,,,,,,,,,,,,,,,,,573,2023-05-16_17h02.46.433,eb_02psyexp,2022.2.4,60.00137643786526,
176,0,176,0,,,,,,,,,,,,,,,,,,,,,,,,,,,,,,,,,,,,,,,,,,,,,,,,,,,,,,,,,,,1103.9231064806227,1103.9231064806227,1103.9231064806227,1103.9231064806227,1103.9231064806227,1103.9231064806227,l,1,0.6229700912954286,1104.5730250730412,1105.6062775320606,,,,,,,,,,,,,,,,,,,,,,,,,,,,,,,,,,,,,,,,573,2023-05-16_17h02.46.433,eb_02psyexp,2022.2.4,60.00137643786526,
177,0,177,0,,,,,,,,,,,,,,,,,,,,,,,,,,,,,,,,,,,,,,,,,,,,,,,,,,,,,,,,,,,1105.6062775320606,1105.6062775320606,1105.6062775320606,1105.6062775320606,1105.6062775320606,1105.6062775320606,s,1,0.4678009041817859,1106.1062349718995,1107.13953361311,,,,,,,,,,,,,,,,,,,,,,,,,,,,,,,,,,,,,,,,573,2023-05-16_17h02.46.433,eb_02psyexp,2022.2.4,60.00137643786526,
178,0,178,0,,,,,,,,,,,,,,,,,,,,,,,,,,,,,,,,,,,,,,,,,,,,,,,,,,,,,,,,,,,1107.13953361311,1107.13953361311,1107.13953361311,1107.13953361311,1107.13953361311,1107.13953361311,l,1,0.3575586372753605,1107.5227893018164,1108.5560897542164,,,,,,,,,,,,,,,,,,,,,,,,,,,,,,,,,,,,,,,,573,2023-05-16_17h02.46.433,eb_02psyexp,2022.2.4,60.00137643786526,
179,0,179,0,,,,,,,,,,,,,,,,,,,,,,,,,,,,,,,,,,,,,,,,,,,,,,,,,,,,,,,,,,,1108.5560897542164,1108.5560897542164,1108.5560897542164,1108.5560897542164,1108.5560897542164,1108.5560897542164,s,1,0.3249946867581457,1108.90601933375,1109.922635904164,,,,,,,,,,,,,,,,,,,,,,,,,,,,,,,,,,,,,,,,573,2023-05-16_17h02.46.433,eb_02psyexp,2022.2.4,60.00137643786526,
180,0,180,0,,,,,,,,,,,,,,,,,,,,,,,,,,,,,,,,,,,,,,,,,,,,,,,,,,,,,,,,,,,1109.922635904164,1109.922635904164,1109.922635904164,1109.922635904164,1109.922635904164,1109.922635904164,s,1,0.4704610646003857,1110.422563159489,1111.4558165241033,,,,,,,,,,,,,,,,,,,,,,,,,,,,,,,,,,,,,,,,573,2023-05-16_17h02.46.433,eb_02psyexp,2022.2.4,60.00137643786526,
181,0,181,0,,,,,,,,,,,,,,,,,,,,,,,,,,,,,,,,,,,,,,,,,,,,,,,,,,,,,,,,,,,1111.4558165241033,1111.4558165241033,1111.4558165241033,1111.4558165241033,1111.4558165241033,1111.4558165241033,s,1,0.5132862377213314,1111.989132068702,1113.0223866405431,,,,,,,,,,,,,,,,,,,,,,,,,,,,,,,,,,,,,,,,573,2023-05-16_17h02.46.433,eb_02psyexp,2022.2.4,60.00137643786526,
182,0,182,0,,,,,,,,,,,,,,,,,,,,,,,,,,,,,,,,,,,,,,,,,,,,,,,,,,,,,,,,,,,1113.0223866405431,1113.0223866405431,1113.0223866405431,1113.0223866405431,1113.0223866405431,1113.0223866405431,l,1,0.45073971583042294,1113.5056707630865,1114.522252621362,,,,,,,,,,,,,,,,,,,,,,,,,,,,,,,,,,,,,,,,573,2023-05-16_17h02.46.433,eb_02psyexp,2022.2.4,60.00137643786526,
183,0,183,0,,,,,,,,,,,,,,,,,,,,,,,,,,,,,,,,,,,,,,,,,,,,,,,,,,,,,,,,,,,1114.522252621362,1114.522252621362,1114.522252621362,1114.522252621362,1114.522252621362,1114.522252621362,l,1,0.49490055348724127,1115.0388981689466,1116.0721611924237,,,,,,,,,,,,,,,,,,,,,,,,,,,,,,,,,,,,,,,,573,2023-05-16_17h02.46.433,eb_02psyexp,2022.2.4,60.00137643786526,
184,0,184,0,,,,,,,,,,,,,,,,,,,,,,,,,,,,,,,,,,,,,,,,,,,,,,,,,,,,,,,,,,,1116.0721611924237,1116.0721611924237,1116.0721611924237,1116.0721611924237,1116.0721611924237,1116.0721611924237,s,1,0.4649590329499915,1116.5554021511925,1117.5720365304733,,,,,,,,,,,,,,,,,,,,,,,,,,,,,,,,,,,,,,,,573,2023-05-16_17h02.46.433,eb_02psyexp,2022.2.4,60.00137643786526,
185,0,185,0,,,,,,,,,,,,,,,,,,,,,,,,,,,,,,,,,,,,,,,,,,,,,,,,,,,,,,,,,,,1117.5720365304733,1117.5720365304733,1117.5720365304733,1117.5720365304733,1117.5720365304733,1117.5720365304733,l,1,0.4371014506323263,1118.0386609187117,1119.0552530396963,,,,,,,,,,,,,,,,,,,,,,,,,,,,,,,,,,,,,,,,573,2023-05-16_17h02.46.433,eb_02psyexp,2022.2.4,60.00137643786526,
186,0,186,0,,,,,,,,,,,,,,,,,,,,,,,,,,,,,,,,,,,,,,,,,,,,,,,,,,,,,,,,,,,1119.0552530396963,1119.0552530396963,1119.0552530396963,1119.0552530396963,1119.0552530396963,1119.0552530396963,l,1,0.5299076377414167,1119.6052086986601,1120.621804139926,,,,,,,,,,,,,,,,,,,,,,,,,,,,,,,,,,,,,,,,573,2023-05-16_17h02.46.433,eb_02psyexp,2022.2.4,60.00137643786526,
187,0,187,0,,,,,,,,,,,,,,,,,,,,,,,,,,,,,,,,,,,,,,,,,,,,,,,,,,,,,,,,,,,1120.621804139926,1120.621804139926,1120.621804139926,1120.621804139926,1120.621804139926,1120.621804139926,l,1,0.46736353065352887,1121.1217667111196,1122.1383802631171,,,,,,,,,,,,,,,,,,,,,,,,,,,,,,,,,,,,,,,,573,2023-05-16_17h02.46.433,eb_02psyexp,2022.2.4,60.00137643786526,
188,0,188,0,,,,,,,,,,,,,,,,,,,,,,,,,,,,,,,,,,,,,,,,,,,,,,,,,,,,,,,,,,,1122.1383802631171,1122.1383802631171,1122.1383802631171,1122.1383802631171,1122.1383802631171,1122.1383802631171,s,1,0.4458175285253674,1122.6049877480837,1123.6216055259574,,,,,,,,,,,,,,,,,,,,,,,,,,,,,,,,,,,,,,,,573,2023-05-16_17h02.46.433,eb_02psyexp,2022.2.4,60.00137643786526,
189,0,189,0,,,,,,,,,,,,,,,,,,,,,,,,,,,,,,,,,,,,,,,,,,,,,,,,,,,,,,,,,,,1123.6216055259574,1123.6216055259574,1123.6216055259574,1123.6216055259574,1123.6216055259574,1123.6216055259574,l,1,0.49059835576917976,1124.138194930274,1125.1547964084893,,,,,,,,,,,,,,,,,,,,,,,,,,,,,,,,,,,,,,,,573,2023-05-16_17h02.46.433,eb_02psyexp,2022.2.4,60.00137643786526,
190,0,190,0,,,,,,,,,,,,,,,,,,,,,,,,,,,,,,,,,,,,,,,,,,,,,,,,,,,,,,,,,,,1125.1547964084893,1125.1547964084893,1125.1547964084893,1125.1547964084893,1125.1547964084893,1125.1547964084893,s,1,0.4693870999617502,1125.6547472077655,1126.6713233309565,,,,,,,,,,,,,,,,,,,,,,,,,,,,,,,,,,,,,,,,573,2023-05-16_17h02.46.433,eb_02psyexp,2022.2.4,60.00137643786526,
191,0,191,0,,,,,,,,,,,,,,,,,,,,,,,,,,,,,,,,,,,,,,,,,,,,,,,,,,,,,,,,,,,1126.6713233309565,1126.6713233309565,1126.6713233309565,1126.6713233309565,1126.6713233309565,1126.6713233309565,l,1,0.46486334793735296,1127.1546542394208,1128.1712312682066,,,,,,,,,,,,,,,,,,,,,,,,,,,,,,,,,,,,,,,,573,2023-05-16_17h02.46.433,eb_02psyexp,2022.2.4,60.00137643786526,
192,0,192,0,,,,,,,,,,,,,,,,,,,,,,,,,,,,,,,,,,,,,,,,,,,,,,,,,,,,,,,,,,,1128.1712312682066,1128.1712312682066,1128.1712312682066,1128.1712312682066,1128.1712312682066,1128.1712312682066,l,1,0.4929865539306775,1128.6878596106544,1129.7044532408472,,,,,,,,,,,,,,,,,,,,,,,,,,,,,,,,,,,,,,,,573,2023-05-16_17h02.46.433,eb_02psyexp,2022.2.4,60.00137643786526,
193,0,193,0,,,,,,,,,,,,,,,,,,,,,,,,,,,,,,,,,,,,,,,,,,,,,,,,,,,,,,,,,,,1129.7044532408472,1129.7044532408472,1129.7044532408472,1129.7044532408472,1129.7044532408472,1129.7044532408472,l,1,0.41576915490441024,1130.137734616641,1131.154346659314,,,,,,,,,,,,,,,,,,,,,,,,,,,,,,,,,,,,,,,,573,2023-05-16_17h02.46.433,eb_02psyexp,2022.2.4,60.00137643786526,
194,0,194,0,,,,,,,,,,,,,,,,,,,,,,,,,,,,,,,,,,,,,,,,,,,,,,,,,,,,,,,,,,,1131.154346659314,1131.154346659314,1131.154346659314,1131.154346659314,1131.154346659314,1131.154346659314,l,1,0.3898738673888147,1131.5709619621048,1132.587577928789,,,,,,,,,,,,,,,,,,,,,,,,,,,,,,,,,,,,,,,,573,2023-05-16_17h02.46.433,eb_02psyexp,2022.2.4,60.00137643786526,
195,0,195,0,,,,,,,,,,,,,,,,,,,,,,,,,,,,,,,,,,,,,,,,,,,,,,,,,,,,,,,,,,,1132.587577928789,1132.587577928789,1132.587577928789,1132.587577928789,1132.587577928789,1132.587577928789,s,0,0.5086408423958346,1133.120864798082,1134.137462956016,,,,,,,,,,,,,,,,,,,,,,,,,,,,,,,,,,,,,,,,573,2023-05-16_17h02.46.433,eb_02psyexp,2022.2.4,60.00137643786526,
196,0,196,0,,,,,,,,,,,,,,,,,,,,,,,,,,,,,,,,,,,,,,,,,,,,,,,,,,,,,,,,,,,1134.137462956016,1134.137462956016,1134.137462956016,1134.137462956016,1134.137462956016,1134.137462956016,s,1,0.518766536610201,1134.6873941655504,1135.7040137544973,,,,,,,,,,,,,,,,,,,,,,,,,,,,,,,,,,,,,,,,573,2023-05-16_17h02.46.433,eb_02psyexp,2022.2.4,60.00137643786526,
197,0,197,0,,,,,,,,,,,,,,,,,,,,,,,,,,,,,,,,,,,,,,,,,,,,,,,,,,,,,,,,,,,1135.7040137544973,1135.7040137544973,1135.7040137544973,1135.7040137544973,1135.7040137544973,1135.7040137544973,l,1,0.8402442010119557,1136.5705828446662,1137.5871879450278,,,,,,,,,,,,,,,,,,,,,,,,,,,,,,,,,,,,,,,,573,2023-05-16_17h02.46.433,eb_02psyexp,2022.2.4,60.00137643786526,
198,0,198,0,,,,,,,,,,,,,,,,,,,,,,,,,,,,,,,,,,,,,,,,,,,,,,,,,,,,,,,,,,,1137.5871879450278,1137.5871879450278,1137.5871879450278,1137.5871879450278,1137.5871879450278,1137.5871879450278,s,1,0.5240992332110181,1138.1371351523558,1139.1537465914153,,,,,,,,,,,,,,,,,,,,,,,,,,,,,,,,,,,,,,,,573,2023-05-16_17h02.46.433,eb_02psyexp,2022.2.4,60.00137643786526,
199,0,199,0,,,,,0,0,0,0,,,,,,,,,,,,,,,,,,,,,,,,,,,,,,,,,,,,,,,,,,,,,,,,,,,1139.1537465914153,1139.1537465914153,1139.1537465914153,1139.1537465914153,1139.1537465914153,1139.1537465914153,l,1,0.6775143988197669,1139.8536978132324,1140.8535927711055,1140.8535927711055,1140.8535927711055,space,5.897723649861291,,,,,,,,,,,,,,,,,,,,,,,,,,,,,,,,,,,,573,2023-05-16_17h02.46.433,eb_02psyexp,2022.2.4,60.00137643786526,
199,0,199,0,,,,,,,,,,,,,,,,,,,,,,,,,,,,,,,,,,,,,,,,,,,,,,,,,,,,,,,,,,,,,,,,,,,,,,,,,,,,,,,,,,,,,,,,,,,,,,,,,,,,,,,,,,,,,573,2023-05-16_17h02.46.433,eb_02psyexp,2022.2.4,60.00137643786526,
200,0,200,0,,,,,,,,,,,,,,,,,,,,,,,,,,,,,,,,,,,,,,,,,,,,,,,,,,,,,,,,,,,1146.7864835594082,1146.7864835594082,1146.7864835594082,1146.7864835594082,1146.7864835594082,1146.7864835594082,l,1,0.4688184238038957,1147.286436471506,1148.3197097578086,,,,,,,,,,,,,,,,,,,,,,,,,,,,,,,,,,,,,,,,573,2023-05-16_17h02.46.433,eb_02psyexp,2022.2.4,60.00137643786526,
201,0,201,0,,,,,,,,,,,,,,,,,,,,,,,,,,,,,,,,,,,,,,,,,,,,,,,,,,,,,,,,,,,1148.3197097578086,1148.3197097578086,1148.3197097578086,1148.3197097578086,1148.3197097578086,1148.3197097578086,s,1,0.5996112078428268,1148.9363188425777,1149.9529139819788,,,,,,,,,,,,,,,,,,,,,,,,,,,,,,,,,,,,,,,,573,2023-05-16_17h02.46.433,eb_02psyexp,2022.2.4,60.00137643786526,
202,0,202,0,,,,,,,,,,,,,,,,,,,,,,,,,,,,,,,,,,,,,,,,,,,,,,,,,,,,,,,,,,,1149.9529139819788,1149.9529139819788,1149.9529139819788,1149.9529139819788,1149.9529139819788,1149.9529139819788,l,1,0.5584030186291784,1150.5361800541868,1151.569447605405,,,,,,,,,,,,,,,,,,,,,,,,,,,,,,,,,,,,,,,,573,2023-05-16_17h02.46.433,eb_02psyexp,2022.2.4,60.00137643786526,
203,0,203,0,,,,,,,,,,,,,,,,,,,,,,,,,,,,,,,,,,,,,,,,,,,,,,,,,,,,,,,,,,,1151.569447605405,1151.569447605405,1151.569447605405,1151.569447605405,1151.569447605405,1151.569447605405,s,1,0.5178999394411221,1152.1193975292845,1153.1359953853535,,,,,,,,,,,,,,,,,,,,,,,,,,,,,,,,,,,,,,,,573,2023-05-16_17h02.46.433,eb_02psyexp,2022.2.4,60.00137643786526,
204,0,204,0,,,,,,,,,,,,,,,,,,,,,,,,,,,,,,,,,,,,,,,,,,,,,,,,,,,,,,,,,,,1153.1359953853535,1153.1359953853535,1153.1359953853535,1153.1359953853535,1153.1359953853535,1153.1359953853535,l,1,0.4633435581345111,1153.619309088681,1154.6525573218241,,,,,,,,,,,,,,,,,,,,,,,,,,,,,,,,,,,,,,,,573,2023-05-16_17h02.46.433,eb_02psyexp,2022.2.4,60.00137643786526,
205,0,205,0,,,,,,,,,,,,,,,,,,,,,,,,,,,,,,,,,,,,,,,,,,,,,,,,,,,,,,,,,,,1154.6525573218241,1154.6525573218241,1154.6525573218241,1154.6525573218241,1154.6525573218241,1154.6525573218241,s,1,0.7218231405131519,1155.4024720506277,1156.4190774528543,,,,,,,,,,,,,,,,,,,,,,,,,,,,,,,,,,,,,,,,573,2023-05-16_17h02.46.433,eb_02psyexp,2022.2.4,60.00137643786526,
206,0,206,0,,,,,,,,,,,,,,,,,,,,,,,,,,,,,,,,,,,,,,,,,,,,,,,,,,,,,,,,,,,1156.4190774528543,1156.4190774528543,1156.4190774528543,1156.4190774528543,1156.4190774528543,1156.4190774528543,s,1,0.5472951205447316,1156.985699184821,1158.0023296400905,,,,,,,,,,,,,,,,,,,,,,,,,,,,,,,,,,,,,,,,573,2023-05-16_17h02.46.433,eb_02psyexp,2022.2.4,60.00137643786526,
207,0,207,0,,,,,,,,,,,,,,,,,,,,,,,,,,,,,,,,,,,,,,,,,,,,,,,,,,,,,,,,,,,1158.0023296400905,1158.0023296400905,1158.0023296400905,1158.0023296400905,1158.0023296400905,1158.0023296400905,l,1,0.5640348437009379,1158.5855664333794,1159.6021947757108,,,,,,,,,,,,,,,,,,,,,,,,,,,,,,,,,,,,,,,,573,2023-05-16_17h02.46.433,eb_02psyexp,2022.2.4,60.00137643786526,
208,0,208,0,,,,,,,,,,,,,,,,,,,,,,,,,,,,,,,,,,,,,,,,,,,,,,,,,,,,,,,,,,,1159.6021947757108,1159.6021947757108,1159.6021947757108,1159.6021947757108,1159.6021947757108,1159.6021947757108,l,1,0.4122239846037701,1160.0354547204915,1161.0520740075735,,,,,,,,,,,,,,,,,,,,,,,,,,,,,,,,,,,,,,,,573,2023-05-16_17h02.46.433,eb_02psyexp,2022.2.4,60.00137643786526,
209,0,209,0,,,,,,,,,,,,,,,,,,,,,,,,,,,,,,,,,,,,,,,,,,,,,,,,,,,,,,,,,,,1161.0520740075735,1161.0520740075735,1161.0520740075735,1161.0520740075735,1161.0520740075735,1161.0520740075735,l,1,0.47430958913173527,1161.5520112237427,1162.568634434836,,,,,,,,,,,,,,,,,,,,,,,,,,,,,,,,,,,,,,,,573,2023-05-16_17h02.46.433,eb_02psyexp,2022.2.4,60.00137643786526,
210,0,210,0,,,,,,,,,,,,,,,,,,,,,,,,,,,,,,,,,,,,,,,,,,,,,,,,,,,,,,,,,,,1162.568634434836,1162.568634434836,1162.568634434836,1162.568634434836,1162.568634434836,1162.568634434836,s,1,0.48578996409196407,1163.085231687175,1164.1018527853303,,,,,,,,,,,,,,,,,,,,,,,,,,,,,,,,,,,,,,,,573,2023-05-16_17h02.46.433,eb_02psyexp,2022.2.4,60.00137643786526,
211,0,211,0,,,,,,,,,,,,,,,,,,,,,,,,,,,,,,,,,,,,,,,,,,,,,,,,,,,,,,,,,,,1164.1018527853303,1164.1018527853303,1164.1018527853303,1164.1018527853303,1164.1018527853303,1164.1018527853303,l,1,0.4005709543125704,1164.5351338591427,1165.5517299041385,,,,,,,,,,,,,,,,,,,,,,,,,,,,,,,,,,,,,,,,573,2023-05-16_17h02.46.433,eb_02psyexp,2022.2.4,60.00137643786526,
212,0,212,0,,,,,,,,,,,,,,,,,,,,,,,,,,,,,,,,,,,,,,,,,,,,,,,,,,,,,,,,,,,1165.5517299041385,1165.5517299041385,1165.5517299041385,1165.5517299041385,1165.5517299041385,1165.5517299041385,l,1,0.4866695406381041,1166.0683389285114,1167.0849370864453,,,,,,,,,,,,,,,,,,,,,,,,,,,,,,,,,,,,,,,,573,2023-05-16_17h02.46.433,eb_02psyexp,2022.2.4,60.00137643786526,
213,0,213,0,,,,,,,,,,,,,,,,,,,,,,,,,,,,,,,,,,,,,,,,,,,,,,,,,,,,,,,,,,,1167.0849370864453,1167.0849370864453,1167.0849370864453,1167.0849370864453,1167.0849370864453,1167.0849370864453,s,1,0.46547428239136934,1167.5682347919792,1168.58483053511,,,,,,,,,,,,,,,,,,,,,,,,,,,,,,,,,,,,,,,,573,2023-05-16_17h02.46.433,eb_02psyexp,2022.2.4,60.00137643786526,
214,0,214,0,,,,,,,,,,,,,,,,,,,,,,,,,,,,,,,,,,,,,,,,,,,,,,,,,,,,,,,,,,,1168.58483053511,1168.58483053511,1168.58483053511,1168.58483053511,1168.58483053511,1168.58483053511,l,1,0.42159717925824225,1169.0347837188747,1170.051379462122,,,,,,,,,,,,,,,,,,,,,,,,,,,,,,,,,,,,,,,,573,2023-05-16_17h02.46.433,eb_02psyexp,2022.2.4,60.00137643786526,
215,0,215,0,,,,,,,,,,,,,,,,,,,,,,,,,,,,,,,,,,,,,,,,,,,,,,,,,,,,,,,,,,,1170.051379462122,1170.051379462122,1170.051379462122,1170.051379462122,1170.051379462122,1170.051379462122,s,1,0.6260480053024366,1170.701317976229,1171.717930622748,,,,,,,,,,,,,,,,,,,,,,,,,,,,,,,,,,,,,,,,573,2023-05-16_17h02.46.433,eb_02psyexp,2022.2.4,60.00137643786526,
216,0,216,0,,,,,,,,,,,,,,,,,,,,,,,,,,,,,,,,,,,,,,,,,,,,,,,,,,,,,,,,,,,1171.717930622748,1171.717930622748,1171.717930622748,1171.717930622748,1171.717930622748,1171.717930622748,l,1,0.4395270776003599,1172.1845344854519,1173.2011380766053,,,,,,,,,,,,,,,,,,,,,,,,,,,,,,,,,,,,,,,,573,2023-05-16_17h02.46.433,eb_02psyexp,2022.2.4,60.00137643786526,
217,0,217,0,,,,,,,,,,,,,,,,,,,,,,,,,,,,,,,,,,,,,,,,,,,,,,,,,,,,,,,,,,,1173.2011380766053,1173.2011380766053,1173.2011380766053,1173.2011380766053,1173.2011380766053,1173.2011380766053,s,1,0.44433396006934345,1173.6677567297593,1174.684339493513,,,,,,,,,,,,,,,,,,,,,,,,,,,,,,,,,,,,,,,,573,2023-05-16_17h02.46.433,eb_02psyexp,2022.2.4,60.00137643786526,
218,0,218,0,,,,,,,,,,,,,,,,,,,,,,,,,,,,,,,,,,,,,,,,,,,,,,,,,,,,,,,,,,,1174.684339493513,1174.684339493513,1174.684339493513,1174.684339493513,1174.684339493513,1174.684339493513,l,1,0.43311890703625977,1175.1343080714578,1176.150866687647,,,,,,,,,,,,,,,,,,,,,,,,,,,,,,,,,,,,,,,,573,2023-05-16_17h02.46.433,eb_02psyexp,2022.2.4,60.00137643786526,
219,0,219,0,,,,,,,,,,,,,,,,,,,,,,,,,,,,,,,,,,,,,,,,,,,,,,,,,,,,,,,,,,,1176.150866687647,1176.150866687647,1176.150866687647,1176.150866687647,1176.150866687647,1176.150866687647,l,1,0.4946476072072983,1176.6675318551715,1177.6841526514618,,,,,,,,,,,,,,,,,,,,,,,,,,,,,,,,,,,,,,,,573,2023-05-16_17h02.46.433,eb_02psyexp,2022.2.4,60.00137643786526,
220,0,220,0,,,,,,,,,,,,,,,,,,,,,,,,,,,,,,,,,,,,,,,,,,,,,,,,,,,,,,,,,,,1177.6841526514618,1177.6841526514618,1177.6841526514618,1177.6841526514618,1177.6841526514618,1177.6841526514618,s,1,0.5453216574387625,1178.2507508395938,1179.2673429605784,,,,,,,,,,,,,,,,,,,,,,,,,,,,,,,,,,,,,,,,573,2023-05-16_17h02.46.433,eb_02psyexp,2022.2.4,60.00137643786526,
221,0,221,0,,,,,,,,,,,,,,,,,,,,,,,,,,,,,,,,,,,,,,,,,,,,,,,,,,,,,,,,,,,1179.2673429605784,1179.2673429605784,1179.2673429605784,1179.2673429605784,1179.2673429605784,1179.2673429605784,l,1,0.40214718924835324,1179.7006527096964,1180.7172550935065,,,,,,,,,,,,,,,,,,,,,,,,,,,,,,,,,,,,,,,,573,2023-05-16_17h02.46.433,eb_02psyexp,2022.2.4,60.00137643786526,
222,0,222,0,,,,,,,,,,,,,,,,,,,,,,,,,,,,,,,,,,,,,,,,,,,,,,,,,,,,,,,,,,,1180.7172550935065,1180.7172550935065,1180.7172550935065,1180.7172550935065,1180.7172550935065,1180.7172550935065,l,1,0.4482651901198551,1181.1838592580752,1182.2004809598438,,,,,,,,,,,,,,,,,,,,,,,,,,,,,,,,,,,,,,,,573,2023-05-16_17h02.46.433,eb_02psyexp,2022.2.4,60.00137643786526,
223,0,223,0,,,,,,,,,,,,,,,,,,,,,,,,,,,,,,,,,,,,,,,,,,,,,,,,,,,,,,,,,,,1182.2004809598438,1182.2004809598438,1182.2004809598438,1182.2004809598438,1182.2004809598438,1182.2004809598438,l,1,0.46102267142850906,1182.683744556969,1183.7003493554657,,,,,,,,,,,,,,,,,,,,,,,,,,,,,,,,,,,,,,,,573,2023-05-16_17h02.46.433,eb_02psyexp,2022.2.4,60.00137643786526,
224,0,224,0,,,,,,,,,,,,,,,,,,,,,,,,,,,,,,,,,,,,,,,,,,,,,,,,,,,,,,,,,,,1183.7003493554657,1183.7003493554657,1183.7003493554657,1183.7003493554657,1183.7003493554657,1183.7003493554657,s,1,0.5291807948378846,1184.2502899221145,1185.2835589826573,,,,,,,,,,,,,,,,,,,,,,,,,,,,,,,,,,,,,,,,573,2023-05-16_17h02.46.433,eb_02psyexp,2022.2.4,60.00137643786526,
225,0,225,0,,,,,,,,,,,,,,,,,,,,,,,,,,,,,,,,,,,,,,,,,,,,,,,,,,,,,,,,,,,1185.2835589826573,1185.2835589826573,1185.2835589826573,1185.2835589826573,1185.2835589826573,1185.2835589826573,s,1,0.7289563429076225,1186.0335177807137,1187.0500945076346,,,,,,,,,,,,,,,,,,,,,,,,,,,,,,,,,,,,,,,,573,2023-05-16_17h02.46.433,eb_02psyexp,2022.2.4,60.00137643786526,
226,0,226,0,,,,,,,,,,,,,,,,,,,,,,,,,,,,,,,,,,,,,,,,,,,,,,,,,,,,,,,,,,,1187.0500945076346,1187.0500945076346,1187.0500945076346,1187.0500945076346,1187.0500945076346,1187.0500945076346,s,1,0.7144351807655767,1187.7833488984033,1188.8166092054453,,,,,,,,,,,,,,,,,,,,,,,,,,,,,,,,,,,,,,,,573,2023-05-16_17h02.46.433,eb_02psyexp,2022.2.4,60.00137643786526,
227,0,227,0,,,,,,,,,,,,,,,,,,,,,,,,,,,,,,,,,,,,,,,,,,,,,,,,,,,,,,,,,,,1188.8166092054453,1188.8166092054453,1188.8166092054453,1188.8166092054453,1188.8166092054453,1188.8166092054453,s,1,0.5079306008992717,1189.349919618573,1190.3665108340792,,,,,,,,,,,,,,,,,,,,,,,,,,,,,,,,,,,,,,,,573,2023-05-16_17h02.46.433,eb_02psyexp,2022.2.4,60.00137643786526,
228,0,228,0,,,,,,,,,,,,,,,,,,,,,,,,,,,,,,,,,,,,,,,,,,,,,,,,,,,,,,,,,,,1190.3665108340792,1190.3665108340792,1190.3665108340792,1190.3665108340792,1190.3665108340792,1190.3665108340792,l,1,0.5180276199243963,1190.9164625690319,1191.9330103188986,,,,,,,,,,,,,,,,,,,,,,,,,,,,,,,,,,,,,,,,573,2023-05-16_17h02.46.433,eb_02psyexp,2022.2.4,60.00137643786526,
229,0,229,0,,,,,,,,,,,,,,,,,,,,,,,,,,,,,,,,,,,,,,,,,,,,,,,,,,,,,,,,,,,1191.9330103188986,1191.9330103188986,1191.9330103188986,1191.9330103188986,1191.9330103188986,1191.9330103188986,l,1,0.47156310093123466,1192.4330127335852,1193.449589460506,,,,,,,,,,,,,,,,,,,,,,,,,,,,,,,,,,,,,,,,573,2023-05-16_17h02.46.433,eb_02psyexp,2022.2.4,60.00137643786526,
230,0,230,0,,,,,,,,,,,,,,,,,,,,,,,,,,,,,,,,,,,,,,,,,,,,,,,,,,,,,,,,,,,1193.449589460506,1193.449589460506,1193.449589460506,1193.449589460506,1193.449589460506,1193.449589460506,s,1,0.6029813078930601,1194.0828775975388,1195.0994989975588,,,,,,,,,,,,,,,,,,,,,,,,,,,,,,,,,,,,,,,,573,2023-05-16_17h02.46.433,eb_02psyexp,2022.2.4,60.00137643786526,
231,0,231,0,,,,,,,,,,,,,,,,,,,,,,,,,,,,,,,,,,,,,,,,,,,,,,,,,,,,,,,,,,,1195.0994989975588,1195.0994989975588,1195.0994989975588,1195.0994989975588,1195.0994989975588,1195.0994989975588,l,1,0.4490711165126413,1195.5660862588556,1196.5826910573523,,,,,,,,,,,,,,,,,,,,,,,,,,,,,,,,,,,,,,,,573,2023-05-16_17h02.46.433,eb_02psyexp,2022.2.4,60.00137643786526,
232,0,232,0,,,,,,,,,,,,,,,,,,,,,,,,,,,,,,,,,,,,,,,,,,,,,,,,,,,,,,,,,,,1196.5826910573523,1196.5826910573523,1196.5826910573523,1196.5826910573523,1196.5826910573523,1196.5826910573523,s,1,0.5978716748068109,1197.1993094992358,1198.232577050454,,,,,,,,,,,,,,,,,,,,,,,,,,,,,,,,,,,,,,,,573,2023-05-16_17h02.46.433,eb_02psyexp,2022.2.4,60.00137643786526,
233,0,233,0,,,,,,,,,,,,,,,,,,,,,,,,,,,,,,,,,,,,,,,,,,,,,,,,,,,,,,,,,,,1198.232577050454,1198.232577050454,1198.232577050454,1198.232577050454,1198.232577050454,1198.232577050454,s,1,0.6040184474550188,1198.8658461712766,1199.8824419144075,,,,,,,,,,,,,,,,,,,,,,,,,,,,,,,,,,,,,,,,573,2023-05-16_17h02.46.433,eb_02psyexp,2022.2.4,60.00137643786526,
234,0,234,0,,,,,,,,,,,,,,,,,,,,,,,,,,,,,,,,,,,,,,,,,,,,,,,,,,,,,,,,,,,1199.8824419144075,1199.8824419144075,1199.8824419144075,1199.8824419144075,1199.8824419144075,1199.8824419144075,s,1,0.5692117883590981,1200.4823888500687,1201.515649760724,,,,,,,,,,,,,,,,,,,,,,,,,,,,,,,,,,,,,,,,573,2023-05-16_17h02.46.433,eb_02psyexp,2022.2.4,60.00137643786526,
235,0,235,0,,,,,,,,,,,,,,,,,,,,,,,,,,,,,,,,,,,,,,,,,,,,,,,,,,,,,,,,,,,1201.515649760724,1201.515649760724,1201.515649760724,1201.515649760724,1201.515649760724,1201.515649760724,s,1,0.5599904217524454,1202.0989414897049,1203.1155616822653,,,,,,,,,,,,,,,,,,,,,,,,,,,,,,,,,,,,,,,,573,2023-05-16_17h02.46.433,eb_02psyexp,2022.2.4,60.00137643786526,
236,0,236,0,,,,,,,,,,,,,,,,,,,,,,,,,,,,,,,,,,,,,,,,,,,,,,,,,,,,,,,,,,,1203.1155616822653,1203.1155616822653,1203.1155616822653,1203.1155616822653,1203.1155616822653,1203.1155616822653,l,1,0.5840689038159326,1203.7321294142166,1204.765409341082,,,,,,,,,,,,,,,,,,,,,,,,,,,,,,,,,,,,,,,,573,2023-05-16_17h02.46.433,eb_02psyexp,2022.2.4,60.00137643786526,
237,0,237,0,,,,,,,,,,,,,,,,,,,,,,,,,,,,,,,,,,,,,,,,,,,,,,,,,,,,,,,,,,,1204.765409341082,1204.765409341082,1204.765409341082,1204.765409341082,1204.765409341082,1204.765409341082,s,1,0.6142193012638018,1205.3986775564263,1206.415284467861,,,,,,,,,,,,,,,,,,,,,,,,,,,,,,,,,,,,,,,,573,2023-05-16_17h02.46.433,eb_02psyexp,2022.2.4,60.00137643786526,
238,0,238,0,,,,,,,,,,,,,,,,,,,,,,,,,,,,,,,,,,,,,,,,,,,,,,,,,,,,,,,,,,,1206.415284467861,1206.415284467861,1206.415284467861,1206.415284467861,1206.415284467861,1206.415284467861,s,1,0.5963561106473207,1207.0318917414406,1208.0484892956447,,,,,,,,,,,,,,,,,,,,,,,,,,,,,,,,,,,,,,,,573,2023-05-16_17h02.46.433,eb_02psyexp,2022.2.4,60.00137643786526,
239,0,239,0,,,,,,,,,,,,,,,,,,,,,,,,,,,,,,,,,,,,,,,,,,,,,,,,,,,,,,,,,,,1208.0484892956447,1208.0484892956447,1208.0484892956447,1208.0484892956447,1208.0484892956447,1208.0484892956447,l,1,0.6431629220023751,1208.715125576593,1209.7313850643113,,,,,,,,,,,,,,,,,,,,,,,,,,,,,,,,,,,,,,,,573,2023-05-16_17h02.46.433,eb_02psyexp,2022.2.4,60.00137643786526,
240,0,240,0,,,,,,,,,,,,,,,,,,,,,,,,,,,,,,,,,,,,,,,,,,,,,,,,,,,,,,,,,,,1209.7313850643113,1209.7313850643113,1209.7313850643113,1209.7313850643113,1209.7313850643113,1209.7313850643113,s,1,0.7843032564269379,1210.5482918890193,1211.5648957819212,,,,,,,,,,,,,,,,,,,,,,,,,,,,,,,,,,,,,,,,573,2023-05-16_17h02.46.433,eb_02psyexp,2022.2.4,60.00137643786526,
241,0,241,0,,,,,,,,,,,,,,,,,,,,,,,,,,,,,,,,,,,,,,,,,,,,,,,,,,,,,,,,,,,1211.5648957819212,1211.5648957819212,1211.5648957819212,1211.5648957819212,1211.5648957819212,1211.5648957819212,l,1,0.6867695720866323,1212.2814946642611,1213.3147486324888,,,,,,,,,,,,,,,,,,,,,,,,,,,,,,,,,,,,,,,,573,2023-05-16_17h02.46.433,eb_02psyexp,2022.2.4,60.00137643786526,
242,0,242,0,,,,,,,,,,,,,,,,,,,,,,,,,,,,,,,,,,,,,,,,,,,,,,,,,,,,,,,,,,,1213.3147486324888,1213.3147486324888,1213.3147486324888,1213.3147486324888,1213.3147486324888,1213.3147486324888,s,1,0.6009580404497683,1213.9480452211574,1214.9646282867761,,,,,,,,,,,,,,,,,,,,,,,,,,,,,,,,,,,,,,,,573,2023-05-16_17h02.46.433,eb_02psyexp,2022.2.4,60.00137643786526,
243,0,243,0,,,,,,,,,,,,,,,,,,,,,,,,,,,,,,,,,,,,,,,,,,,,,,,,,,,,,,,,,,,1214.9646282867761,1214.9646282867761,1214.9646282867761,1214.9646282867761,1214.9646282867761,1214.9646282867761,s,1,0.6150756357237697,1215.5979070666945,1216.6311761271209,,,,,,,,,,,,,,,,,,,,,,,,,,,,,,,,,,,,,,,,573,2023-05-16_17h02.46.433,eb_02psyexp,2022.2.4,60.00137643786526,
244,0,244,0,,,,,,,,,,,,,,,,,,,,,,,,,,,,,,,,,,,,,,,,,,,,,,,,,,,,,,,,,,,1216.6311761271209,1216.6311761271209,1216.6311761271209,1216.6311761271209,1216.6311761271209,1216.6311761271209,s,1,0.5955538065172732,1217.24778521189,1218.264401782304,,,,,,,,,,,,,,,,,,,,,,,,,,,,,,,,,,,,,,,,573,2023-05-16_17h02.46.433,eb_02psyexp,2022.2.4,60.00137643786526,
245,0,245,0,,,,,,,,,,,,,,,,,,,,,,,,,,,,,,,,,,,,,,,,,,,,,,,,,,,,,,,,,,,1218.264401782304,1218.264401782304,1218.264401782304,1218.264401782304,1218.264401782304,1218.264401782304,s,1,0.6183062833733857,1218.9143300337018,1219.9309161178535,,,,,,,,,,,,,,,,,,,,,,,,,,,,,,,,,,,,,,,,573,2023-05-16_17h02.46.433,eb_02psyexp,2022.2.4,60.00137643786526,
246,0,246,0,,,,,,,,,,,,,,,,,,,,,,,,,,,,,,,,,,,,,,,,,,,,,,,,,,,,,,,,,,,1219.9309161178535,1219.9309161178535,1219.9309161178535,1219.9309161178535,1219.9309161178535,1219.9309161178535,l,1,1.1358027320820838,1221.0974763338454,1222.1141067891149,,,,,,,,,,,,,,,,,,,,,,,,,,,,,,,,,,,,,,,,573,2023-05-16_17h02.46.433,eb_02psyexp,2022.2.4,60.00137643786526,
247,0,247,0,,,,,,,,,,,,,,,,,,,,,,,,,,,,,,,,,,,,,,,,,,,,,,,,,,,,,,,,,,,1222.1141067891149,1222.1141067891149,1222.1141067891149,1222.1141067891149,1222.1141067891149,1222.1141067891149,s,1,0.5526244968641549,1222.6973689373117,1223.7139646804426,,,,,,,,,,,,,,,,,,,,,,,,,,,,,,,,,,,,,,,,573,2023-05-16_17h02.46.433,eb_02psyexp,2022.2.4,60.00137643786526,
248,0,248,0,,,,,,,,,,,,,,,,,,,,,,,,,,,,,,,,,,,,,,,,,,,,,,,,,,,,,,,,,,,1223.7139646804426,1223.7139646804426,1223.7139646804426,1223.7139646804426,1223.7139646804426,1223.7139646804426,l,1,0.4087880823062733,1224.147250281996,1225.1638737949543,,,,,,,,,,,,,,,,,,,,,,,,,,,,,,,,,,,,,,,,573,2023-05-16_17h02.46.433,eb_02psyexp,2022.2.4,60.00137643786526,
249,0,249,0,,,,,,,,,,,,,,,,,,,,,,,,,,,,,,,,,,,,,,,,,,,,,,,,,,,,,,,,,,,1225.1638737949543,1225.1638737949543,1225.1638737949543,1225.1638737949543,1225.1638737949543,1225.1638737949543,s,1,0.4628699632594362,1225.6471476546722,1226.6804112819955,,,,,,,,,,,,,,,,,,,,,,,,,,,,,,,,,,,,,,,,573,2023-05-16_17h02.46.433,eb_02psyexp,2022.2.4,60.00137643786526,
250,0,250,0,,,,,,,,,,,,,,,,,,,,,,,,,,,,,,,,,,,,,,,,,,,,,,,,,,,,,,,,,,,1226.6804112819955,1226.6804112819955,1226.6804112819955,1226.6804112819955,1226.6804112819955,1226.6804112819955,s,1,0.5943385782884434,1227.2970182537101,1228.3799688979052,,,,,,,,,,,,,,,,,,,,,,,,,,,,,,,,,,,,,,,,573,2023-05-16_17h02.46.433,eb_02psyexp,2022.2.4,60.00137643786526,
251,0,251,0,,,,,,,,,,,,,,,,,,,,,,,,,,,,,,,,,,,,,,,,,,,,,,,,,,,,,,,,,,,1228.3799688979052,1228.3799688979052,1228.3799688979052,1228.3799688979052,1228.3799688979052,1228.3799688979052,l,1,1.3827995246974751,1229.780173488427,1230.796765005798,,,,,,,,,,,,,,,,,,,,,,,,,,,,,,,,,,,,,,,,573,2023-05-16_17h02.46.433,eb_02psyexp,2022.2.4,60.00137643786526,
252,0,252,0,,,,,,,,,,,,,,,,,,,,,,,,,,,,,,,,,,,,,,,,,,,,,,,,,,,,,,,,,,,1230.796765005798,1230.796765005798,1230.796765005798,1230.796765005798,1230.796765005798,1230.796765005798,l,1,0.6140445328783244,1231.4300317118177,1232.4466159847798,,,,,,,,,,,,,,,,,,,,,,,,,,,,,,,,,,,,,,,,573,2023-05-16_17h02.46.433,eb_02psyexp,2022.2.4,60.00137643786526,
253,0,253,0,,,,,,,,,,,,,,,,,,,,,,,,,,,,,,,,,,,,,,,,,,,,,,,,,,,,,,,,,,,1232.4466159847798,1232.4466159847798,1232.4466159847798,1232.4466159847798,1232.4466159847798,1232.4466159847798,s,1,0.4751559626311064,1232.9465812726412,1233.9631996541284,,,,,,,,,,,,,,,,,,,,,,,,,,,,,,,,,,,,,,,,573,2023-05-16_17h02.46.433,eb_02psyexp,2022.2.4,60.00137643786526,
254,0,254,0,,,,,,,,,,,,,,,,,,,,,,,,,,,,,,,,,,,,,,,,,,,,,,,,,,,,,,,,,,,1233.9631996541284,1233.9631996541284,1233.9631996541284,1233.9631996541284,1233.9631996541284,1233.9631996541284,l,1,0.6146141145145521,1234.59646062518,1235.613080214127,,,,,,,,,,,,,,,,,,,,,,,,,,,,,,,,,,,,,,,,573,2023-05-16_17h02.46.433,eb_02psyexp,2022.2.4,60.00137643786526,
255,0,255,0,,,,,,,,,,,,,,,,,,,,,,,,,,,,,,,,,,,,,,,,,,,,,,,,,,,,,,,,,,,1235.613080214127,1235.613080214127,1235.613080214127,1235.613080214127,1235.613080214127,1235.613080214127,l,1,0.5487421656725928,1236.1796675357036,1237.1962916522752,,,,,,,,,,,,,,,,,,,,,,,,,,,,,,,,,,,,,,,,573,2023-05-16_17h02.46.433,eb_02psyexp,2022.2.4,60.00137643786526,
256,0,256,0,,,,,,,,,,,,,,,,,,,,,,,,,,,,,,,,,,,,,,,,,,,,,,,,,,,,,,,,,,,1237.1962916522752,1237.1962916522752,1237.1962916522752,1237.1962916522752,1237.1962916522752,1237.1962916522752,s,1,0.509577467571944,1237.7295540721389,1238.7461606817087,,,,,,,,,,,,,,,,,,,,,,,,,,,,,,,,,,,,,,,,573,2023-05-16_17h02.46.433,eb_02psyexp,2022.2.4,60.00137643786526,
257,0,257,0,,,,,,,,,,,,,,,,,,,,,,,,,,,,,,,,,,,,,,,,,,,,,,,,,,,,,,,,,,,1238.7461606817087,1238.7461606817087,1238.7461606817087,1238.7461606817087,1238.7461606817087,1238.7461606817087,l,1,0.4156580758281052,1239.179438737221,1240.196052892832,,,,,,,,,,,,,,,,,,,,,,,,,,,,,,,,,,,,,,,,573,2023-05-16_17h02.46.433,eb_02psyexp,2022.2.4,60.00137643786526,
258,0,258,0,,,,,,,,,,,,,,,,,,,,,,,,,,,,,,,,,,,,,,,,,,,,,,,,,,,,,,,,,,,1240.196052892832,1240.196052892832,1240.196052892832,1240.196052892832,1240.196052892832,1240.196052892832,s,1,0.6377783080097288,1240.862667139154,1241.8792746542022,,,,,,,,,,,,,,,,,,,,,,,,,,,,,,,,,,,,,,,,573,2023-05-16_17h02.46.433,eb_02psyexp,2022.2.4,60.00137643786526,
259,0,259,0,,,,,,,,,,,,,,,,,,,,,,,,,,,,,,,,,,,,,,,,,,,,,,,,,,,,,,,,,,,1241.8792746542022,1241.8792746542022,1241.8792746542022,1241.8792746542022,1241.8792746542022,1241.8792746542022,l,1,0.45856535085476935,1242.3625506269746,1243.3791578401579,,,,,,,,,,,,,,,,,,,,,,,,,,,,,,,,,,,,,,,,573,2023-05-16_17h02.46.433,eb_02psyexp,2022.2.4,60.00137643786526,
260,0,260,0,,,,,,,,,,,,,,,,,,,,,,,,,,,,,,,,,,,,,,,,,,,,,,,,,,,,,,,,,,,1243.3791578401579,1243.3791578401579,1243.3791578401579,1243.3791578401579,1243.3791578401579,1243.3791578401579,l,1,0.5426910778041929,1243.9457478784025,1244.962352978764,,,,,,,,,,,,,,,,,,,,,,,,,,,,,,,,,,,,,,,,573,2023-05-16_17h02.46.433,eb_02psyexp,2022.2.4,60.00137643786526,
261,0,261,0,,,,,,,,,,,,,,,,,,,,,,,,,,,,,,,,,,,,,,,,,,,,,,,,,,,,,,,,,,,1244.962352978764,1244.962352978764,1244.962352978764,1244.962352978764,1244.962352978764,1244.962352978764,l,1,0.4474969945149496,1245.4289299773518,1246.4455320591806,,,,,,,,,,,,,,,,,,,,,,,,,,,,,,,,,,,,,,,,573,2023-05-16_17h02.46.433,eb_02psyexp,2022.2.4,60.00137643786526,
262,0,262,0,,,,,,,,,,,,,,,,,,,,,,,,,,,,,,,,,,,,,,,,,,,,,,,,,,,,,,,,,,,1246.4455320591806,1246.4455320591806,1246.4455320591806,1246.4455320591806,1246.4455320591806,1246.4455320591806,s,1,0.4843350709415972,1246.9622062820708,1247.9954351971392,,,,,,,,,,,,,,,,,,,,,,,,,,,,,,,,,,,,,,,,573,2023-05-16_17h02.46.433,eb_02psyexp,2022.2.4,60.00137643786526,
263,0,263,0,,,,,,,,,,,,,,,,,,,,,,,,,,,,,,,,,,,,,,,,,,,,,,,,,,,,,,,,,,,1247.9954351971392,1247.9954351971392,1247.9954351971392,1247.9954351971392,1247.9954351971392,1247.9954351971392,s,1,0.6134384280303493,1248.6287281637779,1249.6452916094568,,,,,,,,,,,,,,,,,,,,,,,,,,,,,,,,,,,,,,,,573,2023-05-16_17h02.46.433,eb_02psyexp,2022.2.4,60.00137643786526,
264,0,264,0,,,,,,,,,,,,,,,,,,,,,,,,,,,,,,,,,,,,,,,,,,,,,,,,,,,,,,,,,,,1249.6452916094568,1249.6452916094568,1249.6452916094568,1249.6452916094568,1249.6452916094568,1249.6452916094568,s,1,0.6276037147035822,1250.2952820409555,1251.3118620881578,,,,,,,,,,,,,,,,,,,,,,,,,,,,,,,,,,,,,,,,573,2023-05-16_17h02.46.433,eb_02psyexp,2022.2.4,60.00137643786526,
265,0,265,0,,,,,,,,,,,,,,,,,,,,,,,,,,,,,,,,,,,,,,,,,,,,,,,,,,,,,,,,,,,1251.3118620881578,1251.3118620881578,1251.3118620881578,1251.3118620881578,1251.3118620881578,1251.3118620881578,l,1,0.4490342913195491,1251.7784882874694,1252.8117455759784,,,,,,,,,,,,,,,,,,,,,,,,,,,,,,,,,,,,,,,,573,2023-05-16_17h02.46.433,eb_02psyexp,2022.2.4,60.00137643786526,
266,0,266,0,,,,,,,,,,,,,,,,,,,,,,,,,,,,,,,,,,,,,,,,,,,,,,,,,,,,,,,,,,,1252.8117455759784,1252.8117455759784,1252.8117455759784,1252.8117455759784,1252.8117455759784,1252.8117455759784,s,1,0.7971597429132089,1253.6283544795588,1254.6449692388996,,,,,,,,,,,,,,,,,,,,,,,,,,,,,,,,,,,,,,,,573,2023-05-16_17h02.46.433,eb_02psyexp,2022.2.4,60.00137643786526,
267,0,267,0,,,,,,,,,,,,,,,,,,,,,,,,,,,,,,,,,,,,,,,,,,,,,,,,,,,,,,,,,,,1254.6449692388996,1254.6449692388996,1254.6449692388996,1254.6449692388996,1254.6449692388996,1254.6449692388996,s,1,0.5479443891672418,1255.211515207775,1256.2281405318063,,,,,,,,,,,,,,,,,,,,,,,,,,,,,,,,,,,,,,,,573,2023-05-16_17h02.46.433,eb_02psyexp,2022.2.4,60.00137643786526,
268,0,268,0,,,,,,,,,,,,,,,,,,,,,,,,,,,,,,,,,,,,,,,,,,,,,,,,,,,,,,,,,,,1256.2281405318063,1256.2281405318063,1256.2281405318063,1256.2281405318063,1256.2281405318063,1256.2281405318063,l,1,0.5007934744935483,1256.7614394748816,1257.778062082245,,,,,,,,,,,,,,,,,,,,,,,,,,,,,,,,,,,,,,,,573,2023-05-16_17h02.46.433,eb_02psyexp,2022.2.4,60.00137643786526,
269,0,269,0,,,,,,,,,,,,,,,,,,,,,,,,,,,,,,,,,,,,,,,,,,,,,,,,,,,,,,,,,,,1257.778062082245,1257.778062082245,1257.778062082245,1257.778062082245,1257.778062082245,1257.778062082245,l,1,0.5428685627412051,1258.344647592865,1259.361277444521,,,,,,,,,,,,,,,,,,,,,,,,,,,,,,,,,,,,,,,,573,2023-05-16_17h02.46.433,eb_02psyexp,2022.2.4,60.00137643786526,
270,0,270,0,,,,,,,,,,,,,,,,,,,,,,,,,,,,,,,,,,,,,,,,,,,,,,,,,,,,,,,,,,,1259.361277444521,1259.361277444521,1259.361277444521,1259.361277444521,1259.361277444521,1259.361277444521,s,1,0.5676778117194772,1259.9612035527825,1260.9777935609454,,,,,,,,,,,,,,,,,,,,,,,,,,,,,,,,,,,,,,,,573,2023-05-16_17h02.46.433,eb_02psyexp,2022.2.4,60.00137643786526,
271,0,271,0,,,,,,,,,,,,,,,,,,,,,,,,,,,,,,,,,,,,,,,,,,,,,,,,,,,,,,,,,,,1260.9777935609454,1260.9777935609454,1260.9777935609454,1260.9777935609454,1260.9777935609454,1260.9777935609454,l,1,0.5031569212442264,1261.511081033852,1262.5276903600898,,,,,,,,,,,,,,,,,,,,,,,,,,,,,,,,,,,,,,,,573,2023-05-16_17h02.46.433,eb_02psyexp,2022.2.4,60.00137643786526,
272,0,272,0,,,,,,,,,,,,,,,,,,,,,,,,,,,,,,,,,,,,,,,,,,,,,,,,,,,,,,,,,,,1262.5276903600898,1262.5276903600898,1262.5276903600898,1262.5276903600898,1262.5276903600898,1262.5276903600898,l,1,0.5442911584395915,1263.0942924721166,1264.1108879133826,,,,,,,,,,,,,,,,,,,,,,,,,,,,,,,,,,,,,,,,573,2023-05-16_17h02.46.433,eb_02psyexp,2022.2.4,60.00137643786526,
