trials.thisRepN,trials.thisTrialN,trials.thisN,trials.thisIndex,image_loop.thisRepN,image_loop.thisTrialN,image_loop.thisN,image_loop.thisIndex,break_loop.thisRepN,break_loop.thisTrialN,break_loop.thisN,break_loop.thisIndex,test_trials.thisRepN,test_trials.thisTrialN,test_trials.thisN,test_trials.thisIndex,distance matrix,tools,welcome_text.started,instructions_0_keypress.started,instructions_0_keypress.keys,instructions_0_keypress.rt,consent_image_0.started,consent0_key_resp.started,consent0_text.started,consent0_key_resp.keys,consent0_key_resp.rt,consent_image_1.started,consent1_key_resp.started,consent1_text.started,consent1_key_resp.keys,consent1_key_resp.rt,consent2_text.started,consent_image_2.started,consent2_key_resp.started,consent2_key_resp.keys,consent2_key_resp.rt,agree_button.started,disagree_button.started,consent_image_3.started,agree_button.numClicks,agree_button.timesOn,agree_button.timesOff,disagree_button.numClicks,disagree_button.timesOn,disagree_button.timesOff,instructions_text1.started,instructions1_key_resp.started,instr1_cnt_text.started,instructions1_key_resp.keys,instructions1_key_resp.rt,instructions_text2.started,instr2_cnt_text.started,instructions2_key_resp.started,instructions2_key_resp.keys,instructions2_key_resp.rt,instructions_text3.started,instructions3_key_resp.started,instr3_cnt_text.started,instructions3_key_resp.keys,instructions3_key_resp.rt,text_countdown.started,image.started,small_large_keyresp.started,task_question_text.started,smalleroption_text.started,largeroption_text.started,accuracy_score_text.started,small_large_keyresp.keys,small_large_keyresp.corr,small_large_keyresp.rt,fb_2.started,fb_2.stopped,break_text.started,break_key_resp.started,break_key_resp.keys,break_key_resp.rt,reveal_seq_text.started,start_test_text.started,continue_to_test.started,continue_to_test.keys,continue_to_test.rt,test_structure_info.started,start_test_text_2.started,continue_to_test_2.started,continue_to_test_2.keys,continue_to_test_2.rt,test_cntdown_text.started,parent index,left child index,right child index,left distance,right distance,parent_image.started,top_image_text.started,left_child_image.started,right_child_image.started,path_resp.started,child_choice_text.started,left_choice_text.started,right_choice_text.started,path_resp.keys,path_resp.rt,graph.started,debrief_text.started,debriefing_title.started,demo_scr_adv.started,demo_scr_adv_keypress.started,demo_scr_adv_keypress.keys,demo_scr_adv_keypress.rt,text_countdown_2.started,participant,date,expName,psychopyVersion,frameRate,
,,,,,,,,,,,,,,,,"[[0. 1. 1. 2. 2. 3. 4. 5. 5. 6. 6. 7.]
 [1. 0. 2. 1. 1. 2. 3. 4. 4. 5. 5. 6.]
 [1. 2. 0. 1. 1. 2. 3. 4. 4. 5. 5. 6.]
 [2. 1. 1. 0. 1. 1. 2. 3. 3. 4. 4. 5.]
 [2. 1. 1. 1. 0. 1. 2. 3. 3. 4. 4. 5.]
 [3. 2. 2. 1. 1. 0. 1. 2. 2. 3. 3. 4.]
 [4. 3. 3. 2. 2. 1. 0. 1. 1. 2. 2. 3.]
 [5. 4. 4. 3. 3. 2. 1. 0. 1. 1. 1. 2.]
 [5. 4. 4. 3. 3. 2. 1. 1. 0. 1. 1. 2.]
 [6. 5. 5. 4. 4. 3. 2. 1. 1. 0. 2. 1.]
 [6. 5. 5. 4. 4. 3. 2. 1. 1. 2. 0. 1.]
 [7. 6. 6. 5. 5. 4. 3. 2. 2. 1. 1. 0.]]",[11  5  3  9 10  4  1  7  0  2  6  8],246.45626953139435,246.45626953139435,return,11.679077046574093,,,,,,,,,,,,,,,,,,,,,,,,,,,,,,,,,,,,,,,,,,,,,,,,,,,,,,,,,,,,,,,,,,,,,,,,,,,,,,,,,,,,,,,,,,574,2010-12-30_07h00.01.808,eb_02psyexp,2022.2.4,119.96375296233471,
,,,,,,,,,,,,,,,,,,,,,,258.14855207747314,258.14855207747314,258.14855207747314,space,18.793170086690225,,,,,,,,,,,,,,,,,,,,,,,,,,,,,,,,,,,,,,,,,,,,,,,,,,,,,,,,,,,,,,,,,,,,,,,,,,,,,,,,,,,,,574,2010-12-30_07h00.01.808,eb_02psyexp,2022.2.4,119.96375296233471,
,,,,,,,,,,,,,,,,,,,,,,,,,,,276.9501101595815,276.9501101595815,276.9501101595815,space,1.4955702961888164,,,,,,,,,,,,,,,,,,,,,,,,,,,,,,,,,,,,,,,,,,,,,,,,,,,,,,,,,,,,,,,,,,,,,,,,,,,,,,,,574,2010-12-30_07h00.01.808,eb_02psyexp,2022.2.4,119.96375296233471,
,,,,,,,,,,,,,,,,,,,,,,,,,,,,,,,,278.45855180884246,278.45855180884246,278.45855180884246,space,0.155127925099805,,,,,,,,,,,,,,,,,,,,,,,,,,,,,,,,,,,,,,,,,,,,,,,,,,,,,,,,,,,,,,,,,,,,,,,,,,,574,2010-12-30_07h00.01.808,eb_02psyexp,2022.2.4,119.96375296233471,
,,,,,,,,,,,,,,,,,,,,,,,,,,,,,,,,,,,,,278.63359019637574,278.63359019637574,278.63359019637574,1,[4.7583831660449505],[4.758387693786062],0,,,283.38396712986287,285.375789145357,285.375789145357,space,1.2060612560017034,,,,,,,,,,,,,,,,,,,,,,,,,,,,,,,,,,,,,,,,,,,,,,,,,,,,,,,,,,,,,574,2010-12-30_07h00.01.808,eb_02psyexp,2022.2.4,119.96375296233471,
,,,,,,,,,,,,,,,,,,,,,,,,,,,,,,,,,,,,,,,,,,,,,,,,,,,286.5925574998837,289.5844809365226,289.5844809365226,space,9.9005690299673,,,,,,,,,,,,,,,,,,,,,,,,,,,,,,,,,,,,,,,,,,,,,,,,,,,,,,,,574,2010-12-30_07h00.01.808,eb_02psyexp,2022.2.4,119.96375296233471,
,,,,,,,,,,,,,,,,,,,,,,,,,,,,,,,,,,,,,,,,,,,,,,,,,,,,,,,,299.4936145434622,302.48552892473526,302.48552892473526,space,9.902754112146795,,,,,,,,,,,,,,,,,,,,,,,,,,,,,,,,,,,,,,,,,,,,,,,,,,,574,2010-12-30_07h00.01.808,eb_02psyexp,2022.2.4,119.96375296233471,
0,0,0,0,,,,,,,,,,,,,,,,,,,,,,,,,,,,,,,,,,,,,,,,,,,,,,,,,,,,,,,,,,312.4113813225413,317.4617704205448,317.4617704205448,317.4617704205448,317.4617704205448,317.4617704205448,317.4617704205448,s,1,1.0386098333401605,318.5118519347161,319.5369581930572,,,,,,,,,,,,,,,,,,,,,,,,,,,,,,,,,,,,,,,574,2010-12-30_07h00.01.808,eb_02psyexp,2022.2.4,119.96375296233471,
1,0,1,0,,,,,,,,,,,,,,,,,,,,,,,,,,,,,,,,,,,,,,,,,,,,,,,,,,,,,,,,,,,319.5369581930572,319.5369581930572,319.5369581930572,319.5369581930572,319.5369581930572,319.5369581930572,l,1,0.707483415841125,320.253660895396,321.2787544759922,,,,,,,,,,,,,,,,,,,,,,,,,,,,,,,,,,,,,,,574,2010-12-30_07h00.01.808,eb_02psyexp,2022.2.4,119.96375296233471,
2,0,2,0,,,,,,,,,,,,,,,,,,,,,,,,,,,,,,,,,,,,,,,,,,,,,,,,,,,,,,,,,,,321.2787544759922,321.2787544759922,321.2787544759922,321.2787544759922,321.2787544759922,321.2787544759922,s,1,0.5016809195512906,321.7954601364909,322.8205534152221,,,,,,,,,,,,,,,,,,,,,,,,,,,,,,,,,,,,,,,574,2010-12-30_07h00.01.808,eb_02psyexp,2022.2.4,119.96375296233471,
3,0,3,0,,,,,,,,,,,,,,,,,,,,,,,,,,,,,,,,,,,,,,,,,,,,,,,,,,,,,,,,,,,322.8205534152221,322.8205534152221,322.8205534152221,322.8205534152221,322.8205534152221,322.8205534152221,s,0,0.8469075913308188,323.67893480032217,324.71238536166493,,,,,,,,,,,,,,,,,,,,,,,,,,,,,,,,,,,,,,,574,2010-12-30_07h00.01.808,eb_02psyexp,2022.2.4,119.96375296233471,
4,0,4,0,,,,,,,,,,,,,,,,,,,,,,,,,,,,,,,,,,,,,,,,,,,,,,,,,,,,,,,,,,,324.71238536166493,324.71238536166493,324.71238536166493,324.71238536166493,324.71238536166493,324.71238536166493,s,1,0.7791000172728673,325.5040938217426,326.5208376661176,,,,,,,,,,,,,,,,,,,,,,,,,,,,,,,,,,,,,,,574,2010-12-30_07h00.01.808,eb_02psyexp,2022.2.4,119.96375296233471,
5,0,5,0,,,,,,,,,,,,,,,,,,,,,,,,,,,,,,,,,,,,,,,,,,,,,,,,,,,,,,,,,,,326.5208376661176,326.5208376661176,326.5208376661176,326.5208376661176,326.5208376661176,326.5208376661176,s,0,0.5466919807950035,327.07920084975194,328.11266861634795,,,,,,,,,,,,,,,,,,,,,,,,,,,,,,,,,,,,,,,574,2010-12-30_07h00.01.808,eb_02psyexp,2022.2.4,119.96375296233471,
6,0,6,0,,,,,,,,,,,,,,,,,,,,,,,,,,,,,,,,,,,,,,,,,,,,,,,,,,,,,,,,,,,328.11266861634795,328.11266861634795,328.11266861634795,328.11266861634795,328.11266861634795,328.11266861634795,s,1,0.6429186015157029,328.77103907451965,329.8044413400348,,,,,,,,,,,,,,,,,,,,,,,,,,,,,,,,,,,,,,,574,2010-12-30_07h00.01.808,eb_02psyexp,2022.2.4,119.96375296233471,
7,0,7,0,,,,,,,,,,,,,,,,,,,,,,,,,,,,,,,,,,,,,,,,,,,,,,,,,,,,,,,,,,,329.8044413400348,329.8044413400348,329.8044413400348,329.8044413400348,329.8044413400348,329.8044413400348,l,1,0.6871521007269621,330.5045067506144,331.52962387539446,,,,,,,,,,,,,,,,,,,,,,,,,,,,,,,,,,,,,,,574,2010-12-30_07h00.01.808,eb_02psyexp,2022.2.4,119.96375296233471,
8,0,8,0,,,,,,,,,,,,,,,,,,,,,,,,,,,,,,,,,,,,,,,,,,,,,,,,,,,,,,,,,,,331.52962387539446,331.52962387539446,331.52962387539446,331.52962387539446,331.52962387539446,331.52962387539446,s,1,0.6899915906833485,332.2296512530884,333.2630915514892,,,,,,,,,,,,,,,,,,,,,,,,,,,,,,,,,,,,,,,574,2010-12-30_07h00.01.808,eb_02psyexp,2022.2.4,119.96375296233471,
9,0,9,0,,,,,,,,,,,,,,,,,,,,,,,,,,,,,,,,,,,,,,,,,,,,,,,,,,,,,,,,,,,333.2630915514892,333.2630915514892,333.2630915514892,333.2630915514892,333.2630915514892,333.2630915514892,l,1,0.5165674893651158,333.7881167634623,334.8131940442836,,,,,,,,,,,,,,,,,,,,,,,,,,,,,,,,,,,,,,,574,2010-12-30_07h00.01.808,eb_02psyexp,2022.2.4,119.96375296233471,
10,0,10,0,,,,,,,,,,,,,,,,,,,,,,,,,,,,,,,,,,,,,,,,,,,,,,,,,,,,,,,,,,,334.8131940442836,334.8131940442836,334.8131940442836,334.8131940442836,334.8131940442836,334.8131940442836,s,1,0.6384859546087682,335.46322382159997,336.4883581517497,,,,,,,,,,,,,,,,,,,,,,,,,,,,,,,,,,,,,,,574,2010-12-30_07h00.01.808,eb_02psyexp,2022.2.4,119.96375296233471,
11,0,11,0,,,,,,,,,,,,,,,,,,,,,,,,,,,,,,,,,,,,,,,,,,,,,,,,,,,,,,,,,,,336.4883581517497,336.4883581517497,336.4883581517497,336.4883581517497,336.4883581517497,336.4883581517497,l,1,0.5153634152375162,337.01336706383154,338.03847664245404,,,,,,,,,,,,,,,,,,,,,,,,,,,,,,,,,,,,,,,574,2010-12-30_07h00.01.808,eb_02psyexp,2022.2.4,119.96375296233471,
12,0,12,0,,,,,,,,,,,,,,,,,,,,,,,,,,,,,,,,,,,,,,,,,,,,,,,,,,,,,,,,,,,338.03847664245404,338.03847664245404,338.03847664245404,338.03847664245404,338.03847664245404,338.03847664245404,s,1,0.972273469553329,339.02189307974186,340.0552884027129,,,,,,,,,,,,,,,,,,,,,,,,,,,,,,,,,,,,,,,574,2010-12-30_07h00.01.808,eb_02psyexp,2022.2.4,119.96375296233471,
13,0,13,0,,,,,,,,,,,,,,,,,,,,,,,,,,,,,,,,,,,,,,,,,,,,,,,,,,,,,,,,,,,340.0552884027129,340.0552884027129,340.0552884027129,340.0552884027129,340.0552884027129,340.0552884027129,l,1,0.523474691202864,340.58866908599157,341.60541262850165,,,,,,,,,,,,,,,,,,,,,,,,,,,,,,,,,,,,,,,574,2010-12-30_07h00.01.808,eb_02psyexp,2022.2.4,119.96375296233471,
14,0,14,0,,,,,,,,,,,,,,,,,,,,,,,,,,,,,,,,,,,,,,,,,,,,,,,,,,,,,,,,,,,341.60541262850165,341.60541262850165,341.60541262850165,341.60541262850165,341.60541262850165,341.60541262850165,l,1,0.693374709924683,342.31385524361394,343.34723245562054,,,,,,,,,,,,,,,,,,,,,,,,,,,,,,,,,,,,,,,574,2010-12-30_07h00.01.808,eb_02psyexp,2022.2.4,119.96375296233471,
15,0,15,0,,,,,,,,,,,,,,,,,,,,,,,,,,,,,,,,,,,,,,,,,,,,,,,,,,,,,,,,,,,343.34723245562054,343.34723245562054,343.34723245562054,343.34723245562054,343.34723245562054,343.34723245562054,s,1,0.5995888370089233,343.95562191528734,344.98070945893414,,,,,,,,,,,,,,,,,,,,,,,,,,,,,,,,,,,,,,,574,2010-12-30_07h00.01.808,eb_02psyexp,2022.2.4,119.96375296233471,
16,0,16,0,,,,,,,,,,,,,,,,,,,,,,,,,,,,,,,,,,,,,,,,,,,,,,,,,,,,,,,,,,,344.98070945893414,344.98070945893414,344.98070945893414,344.98070945893414,344.98070945893414,344.98070945893414,l,1,0.566141294199042,345.55574857094325,346.58082736097276,,,,,,,,,,,,,,,,,,,,,,,,,,,,,,,,,,,,,,,574,2010-12-30_07h00.01.808,eb_02psyexp,2022.2.4,119.96375296233471,
17,0,17,0,,,,,,,,,,,,,,,,,,,,,,,,,,,,,,,,,,,,,,,,,,,,,,,,,,,,,,,,,,,346.58082736097276,346.58082736097276,346.58082736097276,346.58082736097276,346.58082736097276,346.58082736097276,s,1,0.6940475304145366,347.2892388856271,348.31429684814066,,,,,,,,,,,,,,,,,,,,,,,,,,,,,,,,,,,,,,,574,2010-12-30_07h00.01.808,eb_02psyexp,2022.2.4,119.96375296233471,
18,0,18,0,,,,,,,,,,,,,,,,,,,,,,,,,,,,,,,,,,,,,,,,,,,,,,,,,,,,,,,,,,,348.31429684814066,348.31429684814066,348.31429684814066,348.31429684814066,348.31429684814066,348.31429684814066,l,1,0.5366153686773032,348.86437066516373,349.89775210316293,,,,,,,,,,,,,,,,,,,,,,,,,,,,,,,,,,,,,,,574,2010-12-30_07h00.01.808,eb_02psyexp,2022.2.4,119.96375296233471,
19,0,19,0,,,,,,,,,,,,,,,,,,,,,,,,,,,,,,,,,,,,,,,,,,,,,,,,,,,,,,,,,,,349.89775210316293,349.89775210316293,349.89775210316293,349.89775210316293,349.89775210316293,349.89775210316293,s,1,0.44918340910226107,350.3561659671832,351.38954257557634,,,,,,,,,,,,,,,,,,,,,,,,,,,,,,,,,,,,,,,574,2010-12-30_07h00.01.808,eb_02psyexp,2022.2.4,119.96375296233471,
20,0,20,0,,,,,,,,,,,,,,,,,,,,,,,,,,,,,,,,,,,,,,,,,,,,,,,,,,,,,,,,,,,351.38954257557634,351.38954257557634,351.38954257557634,351.38954257557634,351.38954257557634,351.38954257557634,l,1,0.4774225540459156,351.8812675467925,352.91470663785003,,,,,,,,,,,,,,,,,,,,,,,,,,,,,,,,,,,,,,,574,2010-12-30_07h00.01.808,eb_02psyexp,2022.2.4,119.96375296233471,
21,0,21,0,,,,,,,,,,,,,,,,,,,,,,,,,,,,,,,,,,,,,,,,,,,,,,,,,,,,,,,,,,,352.91470663785003,352.91470663785003,352.91470663785003,352.91470663785003,352.91470663785003,352.91470663785003,s,1,0.44828088174108416,353.3730655653635,354.39814556285273,,,,,,,,,,,,,,,,,,,,,,,,,,,,,,,,,,,,,,,574,2010-12-30_07h00.01.808,eb_02psyexp,2022.2.4,119.96375296233471,
22,0,22,0,,,,,,,,,,,,,,,,,,,,,,,,,,,,,,,,,,,,,,,,,,,,,,,,,,,,,,,,,,,354.39814556285273,354.39814556285273,354.39814556285273,354.39814556285273,354.39814556285273,354.39814556285273,l,1,0.5158599562710151,354.9231879800791,355.95662978780456,,,,,,,,,,,,,,,,,,,,,,,,,,,,,,,,,,,,,,,574,2010-12-30_07h00.01.808,eb_02psyexp,2022.2.4,119.96375296233471,
23,0,23,0,,,,,,,,,,,,,,,,,,,,,,,,,,,,,,,,,,,,,,,,,,,,,,,,,,,,,,,,,,,355.95662978780456,355.95662978780456,355.95662978780456,355.95662978780456,355.95662978780456,355.95662978780456,s,1,0.469446808216162,356.44000140053686,357.4650970940711,,,,,,,,,,,,,,,,,,,,,,,,,,,,,,,,,,,,,,,574,2010-12-30_07h00.01.808,eb_02psyexp,2022.2.4,119.96375296233471,
24,0,24,0,,,,,,,,,,,,,,,,,,,,,,,,,,,,,,,,,,,,,,,,,,,,,,,,,,,,,,,,,,,357.4650970940711,357.4650970940711,357.4650970940711,357.4650970940711,357.4650970940711,357.4650970940711,l,1,0.5529734503943473,358.0317771125119,359.06522767373826,,,,,,,,,,,,,,,,,,,,,,,,,,,,,,,,,,,,,,,574,2010-12-30_07h00.01.808,eb_02psyexp,2022.2.4,119.96375296233471,
25,0,25,0,,,,,,,,,,,,,,,,,,,,,,,,,,,,,,,,,,,,,,,,,,,,,,,,,,,,,,,,,,,359.06522767373826,359.06522767373826,359.06522767373826,359.06522767373826,359.06522767373826,359.06522767373826,s,1,0.4568570045521483,359.5318801938556,360.55699912970886,,,,,,,,,,,,,,,,,,,,,,,,,,,,,,,,,,,,,,,574,2010-12-30_07h00.01.808,eb_02psyexp,2022.2.4,119.96375296233471,
26,0,26,0,,,,,,,,,,,,,,,,,,,,,,,,,,,,,,,,,,,,,,,,,,,,,,,,,,,,,,,,,,,360.55699912970886,360.55699912970886,360.55699912970886,360.55699912970886,360.55699912970886,360.55699912970886,l,1,0.4051234727958217,360.9736887620529,362.00711940124165,,,,,,,,,,,,,,,,,,,,,,,,,,,,,,,,,,,,,,,574,2010-12-30_07h00.01.808,eb_02psyexp,2022.2.4,119.96375296233471,
27,0,27,0,,,,,,,,,,,,,,,,,,,,,,,,,,,,,,,,,,,,,,,,,,,,,,,,,,,,,,,,,,,362.00711940124165,362.00711940124165,362.00711940124165,362.00711940124165,362.00711940124165,362.00711940124165,s,1,0.38702463009394705,362.4071708363481,363.4238905326929,,,,,,,,,,,,,,,,,,,,,,,,,,,,,,,,,,,,,,,574,2010-12-30_07h00.01.808,eb_02psyexp,2022.2.4,119.96375296233471,
28,0,28,0,,,,,,,,,,,,,,,,,,,,,,,,,,,,,,,,,,,,,,,,,,,,,,,,,,,,,,,,,,,363.4238905326929,363.4238905326929,363.4238905326929,363.4238905326929,363.4238905326929,363.4238905326929,l,1,0.5942744903732091,364.0323035365436,365.05735485826153,,,,,,,,,,,,,,,,,,,,,,,,,,,,,,,,,,,,,,,574,2010-12-30_07h00.01.808,eb_02psyexp,2022.2.4,119.96375296233471,
29,0,29,0,,,,,,,,,,,,,,,,,,,,,,,,,,,,,,,,,,,,,,,,,,,,,,,,,,,,,,,,,,,365.05735485826153,365.05735485826153,365.05735485826153,365.05735485826153,365.05735485826153,365.05735485826153,l,0,0.696845063357614,365.76575129060075,366.782491512713,,,,,,,,,,,,,,,,,,,,,,,,,,,,,,,,,,,,,,,574,2010-12-30_07h00.01.808,eb_02psyexp,2022.2.4,119.96375296233471,
30,0,30,0,,,,,,,,,,,,,,,,,,,,,,,,,,,,,,,,,,,,,,,,,,,,,,,,,,,,,,,,,,,366.782491512713,366.782491512713,366.782491512713,366.782491512713,366.782491512713,366.782491512713,s,1,0.7157368623884395,367.50757021224126,368.52432371571194,,,,,,,,,,,,,,,,,,,,,,,,,,,,,,,,,,,,,,,574,2010-12-30_07h00.01.808,eb_02psyexp,2022.2.4,119.96375296233471,
31,0,31,0,,,,,,,,,,,,,,,,,,,,,,,,,,,,,,,,,,,,,,,,,,,,,,,,,,,,,,,,,,,368.52432371571194,368.52432371571194,368.52432371571194,368.52432371571194,368.52432371571194,368.52432371571194,l,1,0.6529565771343186,369.1910417971667,370.21612752974033,,,,,,,,,,,,,,,,,,,,,,,,,,,,,,,,,,,,,,,574,2010-12-30_07h00.01.808,eb_02psyexp,2022.2.4,119.96375296233471,
32,0,32,0,,,,,,,,,,,,,,,,,,,,,,,,,,,,,,,,,,,,,,,,,,,,,,,,,,,,,,,,,,,370.21612752974033,370.21612752974033,370.21612752974033,370.21612752974033,370.21612752974033,370.21612752974033,l,1,0.6891681475099176,370.91617603681516,371.94958524487447,,,,,,,,,,,,,,,,,,,,,,,,,,,,,,,,,,,,,,,574,2010-12-30_07h00.01.808,eb_02psyexp,2022.2.4,119.96375296233471,
33,0,33,0,,,,,,,,,,,,,,,,,,,,,,,,,,,,,,,,,,,,,,,,,,,,,,,,,,,,,,,,,,,371.94958524487447,371.94958524487447,371.94958524487447,371.94958524487447,371.94958524487447,371.94958524487447,s,1,0.6997340563684702,372.6579862048384,373.67472733254544,,,,,,,,,,,,,,,,,,,,,,,,,,,,,,,,,,,,,,,574,2010-12-30_07h00.01.808,eb_02psyexp,2022.2.4,119.96375296233471,
34,0,34,0,,,,,,,,,,,,,,,,,,,,,,,,,,,,,,,,,,,,,,,,,,,,,,,,,,,,,,,,,,,373.67472733254544,373.67472733254544,373.67472733254544,373.67472733254544,373.67472733254544,373.67472733254544,l,1,0.5666613793000579,374.24978636659216,375.27489262481686,,,,,,,,,,,,,,,,,,,,,,,,,,,,,,,,,,,,,,,574,2010-12-30_07h00.01.808,eb_02psyexp,2022.2.4,119.96375296233471,
35,0,35,0,,,,,,,,,,,,,,,,,,,,,,,,,,,,,,,,,,,,,,,,,,,,,,,,,,,,,,,,,,,375.27489262481686,375.27489262481686,375.27489262481686,375.27489262481686,375.27489262481686,375.27489262481686,s,1,1.4945108075626194,376.7833291426068,377.80843238241505,,,,,,,,,,,,,,,,,,,,,,,,,,,,,,,,,,,,,,,574,2010-12-30_07h00.01.808,eb_02psyexp,2022.2.4,119.96375296233471,
36,0,36,0,,,,,,,,,,,,,,,,,,,,,,,,,,,,,,,,,,,,,,,,,,,,,,,,,,,,,,,,,,,377.80843238241505,377.80843238241505,377.80843238241505,377.80843238241505,377.80843238241505,377.80843238241505,l,1,0.8329902573022991,378.6501725517446,379.67525828420185,,,,,,,,,,,,,,,,,,,,,,,,,,,,,,,,,,,,,,,574,2010-12-30_07h00.01.808,eb_02psyexp,2022.2.4,119.96375296233471,
37,0,37,0,,,,,,,,,,,,,,,,,,,,,,,,,,,,,,,,,,,,,,,,,,,,,,,,,,,,,,,,,,,379.67525828420185,379.67525828420185,379.67525828420185,379.67525828420185,379.67525828420185,379.67525828420185,s,1,0.6382019150769338,380.3252877597697,381.3586978733074,,,,,,,,,,,,,,,,,,,,,,,,,,,,,,,,,,,,,,,574,2010-12-30_07h00.01.808,eb_02psyexp,2022.2.4,119.96375296233471,
38,0,38,0,,,,,,,,,,,,,,,,,,,,,,,,,,,,,,,,,,,,,,,,,,,,,,,,,,,,,,,,,,,381.3586978733074,381.3586978733074,381.3586978733074,381.3586978733074,381.3586978733074,381.3586978733074,s,1,1.098817462916486,382.46714815543965,383.4922396230977,,,,,,,,,,,,,,,,,,,,,,,,,,,,,,,,,,,,,,,574,2010-12-30_07h00.01.808,eb_02psyexp,2022.2.4,119.96375296233471,
39,0,39,0,,,,,,,,,,,,,,,,,,,,,,,,,,,,,,,,,,,,,,,,,,,,,,,,,,,,,,,,,,,383.4922396230977,383.4922396230977,383.4922396230977,383.4922396230977,383.4922396230977,383.4922396230977,s,1,0.5812877557473257,384.0839305155678,385.1173412328353,,,,,,,,,,,,,,,,,,,,,,,,,,,,,,,,,,,,,,,574,2010-12-30_07h00.01.808,eb_02psyexp,2022.2.4,119.96375296233471,
40,0,40,0,,,,,,,,,,,,,,,,,,,,,,,,,,,,,,,,,,,,,,,,,,,,,,,,,,,,,,,,,,,385.1173412328353,385.1173412328353,385.1173412328353,385.1173412328353,385.1173412328353,385.1173412328353,s,1,0.6272185497218743,385.75908737874124,386.78416828170884,,,,,,,,,,,,,,,,,,,,,,,,,,,,,,,,,,,,,,,574,2010-12-30_07h00.01.808,eb_02psyexp,2022.2.4,119.96375296233471,
41,0,41,0,,,,,,,,,,,,,,,,,,,,,,,,,,,,,,,,,,,,,,,,,,,,,,,,,,,,,,,,,,,386.78416828170884,386.78416828170884,386.78416828170884,386.78416828170884,386.78416828170884,386.78416828170884,s,1,0.6244146779645234,387.41754959896207,388.4342705027666,,,,,,,,,,,,,,,,,,,,,,,,,,,,,,,,,,,,,,,574,2010-12-30_07h00.01.808,eb_02psyexp,2022.2.4,119.96375296233471,
42,0,42,0,,,,,,,,,,,,,,,,,,,,,,,,,,,,,,,,,,,,,,,,,,,,,,,,,,,,,,,,,,,388.4342705027666,388.4342705027666,388.4342705027666,388.4342705027666,388.4342705027666,388.4342705027666,l,1,0.44633999513462186,388.89268859266303,389.9177809659159,,,,,,,,,,,,,,,,,,,,,,,,,,,,,,,,,,,,,,,574,2010-12-30_07h00.01.808,eb_02psyexp,2022.2.4,119.96375296233471,
43,0,43,0,,,,,,,,,,,,,,,,,,,,,,,,,,,,,,,,,,,,,,,,,,,,,,,,,,,,,,,,,,,389.9177809659159,389.9177809659159,389.9177809659159,389.9177809659159,389.9177809659159,389.9177809659159,l,1,0.46688864124007523,390.40113567514345,391.4345518257469,,,,,,,,,,,,,,,,,,,,,,,,,,,,,,,,,,,,,,,574,2010-12-30_07h00.01.808,eb_02psyexp,2022.2.4,119.96375296233471,
44,0,44,0,,,,,,,,,,,,,,,,,,,,,,,,,,,,,,,,,,,,,,,,,,,,,,,,,,,,,,,,,,,391.4345518257469,391.4345518257469,391.4345518257469,391.4345518257469,391.4345518257469,391.4345518257469,s,1,0.5501161514548585,391.992908670567,393.01801553252153,,,,,,,,,,,,,,,,,,,,,,,,,,,,,,,,,,,,,,,574,2010-12-30_07h00.01.808,eb_02psyexp,2022.2.4,119.96375296233471,
45,0,45,0,,,,,,,,,,,,,,,,,,,,,,,,,,,,,,,,,,,,,,,,,,,,,,,,,,,,,,,,,,,393.01801553252153,393.01801553252153,393.01801553252153,393.01801553252153,393.01801553252153,393.01801553252153,l,1,0.5426716591464356,393.57638052722905,394.601490709465,,,,,,,,,,,,,,,,,,,,,,,,,,,,,,,,,,,,,,,574,2010-12-30_07h00.01.808,eb_02psyexp,2022.2.4,119.96375296233471,
46,0,46,0,,,,,,,,,,,,,,,,,,,,,,,,,,,,,,,,,,,,,,,,,,,,,,,,,,,,,,,,,,,394.601490709465,394.601490709465,394.601490709465,394.601490709465,394.601490709465,394.601490709465,l,1,0.7272593294037506,395.3431949286023,396.3682737186318,,,,,,,,,,,,,,,,,,,,,,,,,,,,,,,,,,,,,,,574,2010-12-30_07h00.01.808,eb_02psyexp,2022.2.4,119.96375296233471,
47,0,47,0,,,,,,,,,,,,,,,,,,,,,,,,,,,,,,,,,,,,,,,,,,,,,,,,,,,,,,,,,,,396.3682737186318,396.3682737186318,396.3682737186318,396.3682737186318,396.3682737186318,396.3682737186318,l,1,0.4404738692101091,396.8183408648474,397.8434247863479,,,,,,,,,,,,,,,,,,,,,,,,,,,,,,,,,,,,,,,574,2010-12-30_07h00.01.808,eb_02psyexp,2022.2.4,119.96375296233471,
48,0,48,0,,,,,,,,,,,,,,,,,,,,,,,,,,,,,,,,,,,,,,,,,,,,,,,,,,,,,,,,,,,397.8434247863479,397.8434247863479,397.8434247863479,397.8434247863479,397.8434247863479,397.8434247863479,l,1,0.3653443534858525,398.21844995301217,399.24351878196467,,,,,,,,,,,,,,,,,,,,,,,,,,,,,,,,,,,,,,,574,2010-12-30_07h00.01.808,eb_02psyexp,2022.2.4,119.96375296233471,
49,0,49,0,,,,,,,,,,,,,,,,,,,,,,,,,,,,,,,,,,,,,,,,,,,,,,,,,,,,,,,,,,,399.24351878196467,399.24351878196467,399.24351878196467,399.24351878196467,399.24351878196467,399.24351878196467,l,1,0.47632050479296595,399.73522503860295,400.7520090288017,,,,,,,,,,,,,,,,,,,,,,,,,,,,,,,,,,,,,,,574,2010-12-30_07h00.01.808,eb_02psyexp,2022.2.4,119.96375296233471,
50,0,50,0,,,,,,,,,,,,,,,,,,,,,,,,,,,,,,,,,,,,,,,,,,,,,,,,,,,,,,,,,,,400.7520090288017,400.7520090288017,400.7520090288017,400.7520090288017,400.7520090288017,400.7520090288017,l,1,0.4638288017595187,401.22703845158685,402.2604579223553,,,,,,,,,,,,,,,,,,,,,,,,,,,,,,,,,,,,,,,574,2010-12-30_07h00.01.808,eb_02psyexp,2022.2.4,119.96375296233471,
51,0,51,0,,,,,,,,,,,,,,,,,,,,,,,,,,,,,,,,,,,,,,,,,,,,,,,,,,,,,,,,,,,402.2604579223553,402.2604579223553,402.2604579223553,402.2604579223553,402.2604579223553,402.2604579223553,s,1,0.6834173278184608,402.9521606172202,403.96894339995924,,,,,,,,,,,,,,,,,,,,,,,,,,,,,,,,,,,,,,,574,2010-12-30_07h00.01.808,eb_02psyexp,2022.2.4,119.96375296233471,
52,0,52,0,,,,,,,,,,,,,,,,,,,,,,,,,,,,,,,,,,,,,,,,,,,,,,,,,,,,,,,,,,,403.96894339995924,403.96894339995924,403.96894339995924,403.96894339995924,403.96894339995924,403.96894339995924,l,1,0.4149359674192965,404.3939688835526,405.4190401274245,,,,,,,,,,,,,,,,,,,,,,,,,,,,,,,,,,,,,,,574,2010-12-30_07h00.01.808,eb_02psyexp,2022.2.4,119.96375296233471,
53,0,53,0,,,,,,,,,,,,,,,,,,,,,,,,,,,,,,,,,,,,,,,,,,,,,,,,,,,,,,,,,,,405.4190401274245,405.4190401274245,405.4190401274245,405.4190401274245,405.4190401274245,405.4190401274245,l,1,0.5248568559763953,405.95240602013655,406.98583605571184,,,,,,,,,,,,,,,,,,,,,,,,,,,,,,,,,,,,,,,574,2010-12-30_07h00.01.808,eb_02psyexp,2022.2.4,119.96375296233471,
54,0,54,0,,,,,,,,,,,,,,,,,,,,,,,,,,,,,,,,,,,,,,,,,,,,,,,,,,,,,,,,,,,406.98583605571184,406.98583605571184,406.98583605571184,406.98583605571184,406.98583605571184,406.98583605571184,s,1,0.41410226153675467,407.41088659269735,408.4276011576876,,,,,,,,,,,,,,,,,,,,,,,,,,,,,,,,,,,,,,,574,2010-12-30_07h00.01.808,eb_02psyexp,2022.2.4,119.96375296233471,
55,0,55,0,,,,,,,,,,,,,,,,,,,,,,,,,,,,,,,,,,,,,,,,,,,,,,,,,,,,,,,,,,,408.4276011576876,408.4276011576876,408.4276011576876,408.4276011576876,408.4276011576876,408.4276011576876,l,1,0.468353210715577,408.9110192551743,409.9360787268961,,,,,,,,,,,,,,,,,,,,,,,,,,,,,,,,,,,,,,,574,2010-12-30_07h00.01.808,eb_02psyexp,2022.2.4,119.96375296233471,
56,0,56,0,,,,,,,,,,,,,,,,,,,,,,,,,,,,,,,,,,,,,,,,,,,,,,,,,,,,,,,,,,,409.9360787268961,409.9360787268961,409.9360787268961,409.9360787268961,409.9360787268961,409.9360787268961,s,1,0.9279153067618608,410.8778143986128,411.90289318875875,,,,,,,,,,,,,,,,,,,,,,,,,,,,,,,,,,,,,,,574,2010-12-30_07h00.01.808,eb_02psyexp,2022.2.4,119.96375296233471,
57,0,57,0,,,,,,,,,,,,,,,,,,,,,,,,,,,,,,,,,,,,,,,,,,,,,,,,,,,,,,,,,,,411.90289318875875,411.90289318875875,411.90289318875875,411.90289318875875,411.90289318875875,411.90289318875875,l,1,0.4651158843189478,412.37795521109365,413.3946685686242,,,,,,,,,,,,,,,,,,,,,,,,,,,,,,,,,,,,,,,574,2010-12-30_07h00.01.808,eb_02psyexp,2022.2.4,119.96375296233471,
58,0,58,0,,,,,,,,,,,,,,,,,,,,,,,,,,,,,,,,,,,,,,,,,,,,,,,,,,,,,,,,,,,413.3946685686242,413.3946685686242,413.3946685686242,413.3946685686242,413.3946685686242,413.3946685686242,s,1,0.8693829369731247,414.2781136514386,415.311507465085,,,,,,,,,,,,,,,,,,,,,,,,,,,,,,,,,,,,,,,574,2010-12-30_07h00.01.808,eb_02psyexp,2022.2.4,119.96375296233471,
59,0,59,0,,,,,,,,,,,,,,,,,,,,,,,,,,,,,,,,,,,,,,,,,,,,,,,,,,,,,,,,,,,415.311507465085,415.311507465085,415.311507465085,415.311507465085,415.311507465085,415.311507465085,s,1,0.5045684033539146,415.82823666976765,416.8449687419925,,,,,,,,,,,,,,,,,,,,,,,,,,,,,,,,,,,,,,,574,2010-12-30_07h00.01.808,eb_02psyexp,2022.2.4,119.96375296233471,
60,0,60,0,,,,,,,,,,,,,,,,,,,,,,,,,,,,,,,,,,,,,,,,,,,,,,,,,,,,,,,,,,,416.8449687419925,416.8449687419925,416.8449687419925,416.8449687419925,416.8449687419925,416.8449687419925,l,1,0.38614262850023806,417.24502289365046,418.26173776050564,,,,,,,,,,,,,,,,,,,,,,,,,,,,,,,,,,,,,,,574,2010-12-30_07h00.01.808,eb_02psyexp,2022.2.4,119.96375296233471,
61,0,61,0,,,,,,,,,,,,,,,,,,,,,,,,,,,,,,,,,,,,,,,,,,,,,,,,,,,,,,,,,,,418.26173776050564,418.26173776050564,418.26173776050564,418.26173776050564,418.26173776050564,418.26173776050564,s,1,0.753378591616638,419.0285068847006,420.0619139797054,,,,,,,,,,,,,,,,,,,,,,,,,,,,,,,,,,,,,,,574,2010-12-30_07h00.01.808,eb_02psyexp,2022.2.4,119.96375296233471,
62,0,62,0,,,,,,,,,,,,,,,,,,,,,,,,,,,,,,,,,,,,,,,,,,,,,,,,,,,,,,,,,,,420.0619139797054,420.0619139797054,420.0619139797054,420.0619139797054,420.0619139797054,420.0619139797054,s,1,0.8253121342277154,420.9036598841194,421.9287217706442,,,,,,,,,,,,,,,,,,,,,,,,,,,,,,,,,,,,,,,574,2010-12-30_07h00.01.808,eb_02psyexp,2022.2.4,119.96375296233471,
63,0,63,0,,,,,,,,,,,,,,,,,,,,,,,,,,,,,,,,,,,,,,,,,,,,,,,,,,,,,,,,,,,421.9287217706442,421.9287217706442,421.9287217706442,421.9287217706442,421.9287217706442,421.9287217706442,s,1,0.7664745955262333,422.70379384455737,423.7372057692846,,,,,,,,,,,,,,,,,,,,,,,,,,,,,,,,,,,,,,,574,2010-12-30_07h00.01.808,eb_02psyexp,2022.2.4,119.96375296233471,
64,0,64,0,,,,,,,,,,,,,,,,,,,,,,,,,,,,,,,,,,,,,,,,,,,,,,,,,,,,,,,,,,,423.7372057692846,423.7372057692846,423.7372057692846,423.7372057692846,423.7372057692846,423.7372057692846,s,1,0.4620189175475389,424.21228801540565,425.2373396391049,,,,,,,,,,,,,,,,,,,,,,,,,,,,,,,,,,,,,,,574,2010-12-30_07h00.01.808,eb_02psyexp,2022.2.4,119.96375296233471,
65,0,65,0,,,,,,,,,,,,,,,,,,,,,,,,,,,,,,,,,,,,,,,,,,,,,,,,,,,,,,,,,,,425.2373396391049,425.2373396391049,425.2373396391049,425.2373396391049,425.2373396391049,425.2373396391049,l,1,0.4099189416738227,425.66238715755753,426.6791219464503,,,,,,,,,,,,,,,,,,,,,,,,,,,,,,,,,,,,,,,574,2010-12-30_07h00.01.808,eb_02psyexp,2022.2.4,119.96375296233471,
66,0,66,0,,,,,,,,,,,,,,,,,,,,,,,,,,,,,,,,,,,,,,,,,,,,,,,,,,,,,,,,,,,426.6791219464503,426.6791219464503,426.6791219464503,426.6791219464503,426.6791219464503,426.6791219464503,l,1,0.6161672683665529,427.3041725438088,428.3375871850876,,,,,,,,,,,,,,,,,,,,,,,,,,,,,,,,,,,,,,,574,2010-12-30_07h00.01.808,eb_02psyexp,2022.2.4,119.96375296233471,
67,0,67,0,,,,,,,,,,,,,,,,,,,,,,,,,,,,,,,,,,,,,,,,,,,,,,,,,,,,,,,,,,,428.3375871850876,428.3375871850876,428.3375871850876,428.3375871850876,428.3375871850876,428.3375871850876,s,1,0.5417323062429205,428.8876486264635,429.9127177572809,,,,,,,,,,,,,,,,,,,,,,,,,,,,,,,,,,,,,,,574,2010-12-30_07h00.01.808,eb_02psyexp,2022.2.4,119.96375296233471,
68,0,68,0,,,,,,,,,,,,,,,,,,,,,,,,,,,,,,,,,,,,,,,,,,,,,,,,,,,,,,,,,,,429.9127177572809,429.9127177572809,429.9127177572809,429.9127177572809,429.9127177572809,429.9127177572809,l,1,0.5106147328624502,430.4377825113479,431.4711995674297,,,,,,,,,,,,,,,,,,,,,,,,,,,,,,,,,,,,,,,574,2010-12-30_07h00.01.808,eb_02psyexp,2022.2.4,119.96375296233471,
69,0,69,0,,,,,,,,,,,,,,,,,,,,,,,,,,,,,,,,,,,,,,,,,,,,,,,,,,,,,,,,,,,431.4711995674297,431.4711995674297,431.4711995674297,431.4711995674297,431.4711995674297,431.4711995674297,s,1,0.5432029126677662,432.02958327683154,433.05467414075974,,,,,,,,,,,,,,,,,,,,,,,,,,,,,,,,,,,,,,,574,2010-12-30_07h00.01.808,eb_02psyexp,2022.2.4,119.96375296233471,
70,0,70,0,,,,,,,,,,,,,,,,,,,,,,,,,,,,,,,,,,,,,,,,,,,,,,,,,,,,,,,,,,,433.05467414075974,433.05467414075974,433.05467414075974,433.05467414075974,433.05467414075974,433.05467414075974,s,1,0.607743579079397,433.6714027719572,434.68811069626827,,,,,,,,,,,,,,,,,,,,,,,,,,,,,,,,,,,,,,,574,2010-12-30_07h00.01.808,eb_02psyexp,2022.2.4,119.96375296233471,
71,0,71,0,,,,,,,,,,,,,,,,,,,,,,,,,,,,,,,,,,,,,,,,,,,,,,,,,,,,,,,,,,,434.68811069626827,434.68811069626827,434.68811069626827,434.68811069626827,434.68811069626827,434.68811069626827,l,1,0.518336925888434,435.2215493345866,436.24661635246594,,,,,,,,,,,,,,,,,,,,,,,,,,,,,,,,,,,,,,,574,2010-12-30_07h00.01.808,eb_02psyexp,2022.2.4,119.96375296233471,
72,0,72,0,,,,,,,,,,,,,,,,,,,,,,,,,,,,,,,,,,,,,,,,,,,,,,,,,,,,,,,,,,,436.24661635246594,436.24661635246594,436.24661635246594,436.24661635246594,436.24661635246594,436.24661635246594,s,1,0.5198274543508887,436.7799768119585,437.8050492631737,,,,,,,,,,,,,,,,,,,,,,,,,,,,,,,,,,,,,,,574,2010-12-30_07h00.01.808,eb_02psyexp,2022.2.4,119.96375296233471,
73,0,73,0,,,,,,,,,,,,,,,,,,,,,,,,,,,,,,,,,,,,,,,,,,,,,,,,,,,,,,,,,,,437.8050492631737,437.8050492631737,437.8050492631737,437.8050492631737,437.8050492631737,437.8050492631737,l,1,0.7694266749313101,438.58846564008854,439.61353205435444,,,,,,,,,,,,,,,,,,,,,,,,,,,,,,,,,,,,,,,574,2010-12-30_07h00.01.808,eb_02psyexp,2022.2.4,119.96375296233471,
74,0,74,0,,,,,,,,,,,,,,,,,,,,,,,,,,,,,,,,,,,,,,,,,,,,,,,,,,,,,,,,,,,439.61353205435444,439.61353205435444,439.61353205435444,439.61353205435444,439.61353205435444,439.61353205435444,l,1,0.5529746578540653,440.1802322965814,441.2053500250913,,,,,,,,,,,,,,,,,,,,,,,,,,,,,,,,,,,,,,,574,2010-12-30_07h00.01.808,eb_02psyexp,2022.2.4,119.96375296233471,
75,0,75,0,,,,,,,,,,,,,,,,,,,,,,,,,,,,,,,,,,,,,,,,,,,,,,,,,,,,,,,,,,,441.2053500250913,441.2053500250913,441.2053500250913,441.2053500250913,441.2053500250913,441.2053500250913,l,1,0.7131768842227757,441.9303891824093,442.9555060053244,,,,,,,,,,,,,,,,,,,,,,,,,,,,,,,,,,,,,,,574,2010-12-30_07h00.01.808,eb_02psyexp,2022.2.4,119.96375296233471,
76,0,76,0,,,,,,,,,,,,,,,,,,,,,,,,,,,,,,,,,,,,,,,,,,,,,,,,,,,,,,,,,,,442.9555060053244,442.9555060053244,442.9555060053244,442.9555060053244,442.9555060053244,442.9555060053244,s,1,0.5950653336476535,443.5638719208073,444.5806082189083,,,,,,,,,,,,,,,,,,,,,,,,,,,,,,,,,,,,,,,574,2010-12-30_07h00.01.808,eb_02psyexp,2022.2.4,119.96375296233471,
77,0,77,0,,,,,,,,,,,,,,,,,,,,,,,,,,,,,,,,,,,,,,,,,,,,,,,,,,,,,,,,,,,444.5806082189083,444.5806082189083,444.5806082189083,444.5806082189083,444.5806082189083,444.5806082189083,l,1,0.4979687853483483,445.08897289668676,446.11406798649114,,,,,,,,,,,,,,,,,,,,,,,,,,,,,,,,,,,,,,,574,2010-12-30_07h00.01.808,eb_02psyexp,2022.2.4,119.96375296233471,
78,0,78,0,,,,,,,,,,,,,,,,,,,,,,,,,,,,,,,,,,,,,,,,,,,,,,,,,,,,,,,,,,,446.11406798649114,446.11406798649114,446.11406798649114,446.11406798649114,446.11406798649114,446.11406798649114,l,1,0.38054575154092163,446.5057730055414,447.53917708212975,,,,,,,,,,,,,,,,,,,,,,,,,,,,,,,,,,,,,,,574,2010-12-30_07h00.01.808,eb_02psyexp,2022.2.4,119.96375296233471,
79,0,79,0,,,,,,,,,,,,,,,,,,,,,,,,,,,,,,,,,,,,,,,,,,,,,,,,,,,,,,,,,,,447.53917708212975,447.53917708212975,447.53917708212975,447.53917708212975,447.53917708212975,447.53917708212975,s,1,0.4984840408433229,448.0475770762423,449.0726555644069,,,,,,,,,,,,,,,,,,,,,,,,,,,,,,,,,,,,,,,574,2010-12-30_07h00.01.808,eb_02psyexp,2022.2.4,119.96375296233471,
80,0,80,0,,,,,,,,,,,,,,,,,,,,,,,,,,,,,,,,,,,,,,,,,,,,,,,,,,,,,,,,,,,449.0726555644069,449.0726555644069,449.0726555644069,449.0726555644069,449.0726555644069,449.0726555644069,s,1,0.4450100500835106,449.53101781231817,450.5644584125839,,,,,,,,,,,,,,,,,,,,,,,,,,,,,,,,,,,,,,,574,2010-12-30_07h00.01.808,eb_02psyexp,2022.2.4,119.96375296233471,
81,0,81,0,,,,,,,,,,,,,,,,,,,,,,,,,,,,,,,,,,,,,,,,,,,,,,,,,,,,,,,,,,,450.5644584125839,450.5644584125839,450.5644584125839,450.5644584125839,450.5644584125839,450.5644584125839,s,1,0.4172288094414398,450.9977992217755,452.0229290241841,,,,,,,,,,,,,,,,,,,,,,,,,,,,,,,,,,,,,,,574,2010-12-30_07h00.01.808,eb_02psyexp,2022.2.4,119.96375296233471,
82,0,82,0,,,,,,,,,,,,,,,,,,,,,,,,,,,,,,,,,,,,,,,,,,,,,,,,,,,,,,,,,,,452.0229290241841,452.0229290241841,452.0229290241841,452.0229290241841,452.0229290241841,452.0229290241841,l,0,0.39877680398058146,452.4312553369673,453.44800159614533,,,,,,,,,,,,,,,,,,,,,,,,,,,,,,,,,,,,,,,574,2010-12-30_07h00.01.808,eb_02psyexp,2022.2.4,119.96375296233471,
83,0,83,0,,,,,,,,,,,,,,,,,,,,,,,,,,,,,,,,,,,,,,,,,,,,,,,,,,,,,,,,,,,453.44800159614533,453.44800159614533,453.44800159614533,453.44800159614533,453.44800159614533,453.44800159614533,l,1,0.6057453413959593,454.06473294389434,455.09815664065536,,,,,,,,,,,,,,,,,,,,,,,,,,,,,,,,,,,,,,,574,2010-12-30_07h00.01.808,eb_02psyexp,2022.2.4,119.96375296233471,
84,0,84,0,,,,,,,,,,,,,,,,,,,,,,,,,,,,,,,,,,,,,,,,,,,,,,,,,,,,,,,,,,,455.09815664065536,455.09815664065536,455.09815664065536,455.09815664065536,455.09815664065536,455.09815664065536,s,1,0.5876184266526252,455.6982030046638,456.71495952655096,,,,,,,,,,,,,,,,,,,,,,,,,,,,,,,,,,,,,,,574,2010-12-30_07h00.01.808,eb_02psyexp,2022.2.4,119.96375296233471,
85,0,85,0,,,,,,,,,,,,,,,,,,,,,,,,,,,,,,,,,,,,,,,,,,,,,,,,,,,,,,,,,,,456.71495952655096,456.71495952655096,456.71495952655096,456.71495952655096,456.71495952655096,456.71495952655096,s,1,0.6748369792476296,457.39834900875576,458.43177994992584,,,,,,,,,,,,,,,,,,,,,,,,,,,,,,,,,,,,,,,574,2010-12-30_07h00.01.808,eb_02psyexp,2022.2.4,119.96375296233471,
86,0,86,0,,,,,,,,,,,,,,,,,,,,,,,,,,,,,,,,,,,,,,,,,,,,,,,,,,,,,,,,,,,458.43177994992584,458.43177994992584,458.43177994992584,458.43177994992584,458.43177994992584,458.43177994992584,s,1,0.46204095252323896,458.90680605219677,459.9235335967969,,,,,,,,,,,,,,,,,,,,,,,,,,,,,,,,,,,,,,,574,2010-12-30_07h00.01.808,eb_02psyexp,2022.2.4,119.96375296233471,
87,0,87,0,,,,,,,,,,,,,,,,,,,,,,,,,,,,,,,,,,,,,,,,,,,,,,,,,,,,,,,,,,,459.9235335967969,459.9235335967969,459.9235335967969,459.9235335967969,459.9235335967969,459.9235335967969,s,1,0.45831583882682025,460.39024014770985,461.4153445948614,,,,,,,,,,,,,,,,,,,,,,,,,,,,,,,,,,,,,,,574,2010-12-30_07h00.01.808,eb_02psyexp,2022.2.4,119.96375296233471,
88,0,88,0,,,,,,,,,,,,,,,,,,,,,,,,,,,,,,,,,,,,,,,,,,,,,,,,,,,,,,,,,,,461.4153445948614,461.4153445948614,461.4153445948614,461.4153445948614,461.4153445948614,461.4153445948614,s,1,0.7025415503885597,462.1320847264724,463.1655041973572,,,,,,,,,,,,,,,,,,,,,,,,,,,,,,,,,,,,,,,574,2010-12-30_07h00.01.808,eb_02psyexp,2022.2.4,119.96375296233471,
89,0,89,0,,,,,,,,,,,,,,,,,,,,,,,,,,,,,,,,,,,,,,,,,,,,,,,,,,,,,,,,,,,463.1655041973572,463.1655041973572,463.1655041973572,463.1655041973572,463.1655041973572,463.1655041973572,l,1,0.8314061558339745,464.00719758006744,465.04062761564273,,,,,,,,,,,,,,,,,,,,,,,,,,,,,,,,,,,,,,,574,2010-12-30_07h00.01.808,eb_02psyexp,2022.2.4,119.96375296233471,
90,0,90,0,,,,,,,,,,,,,,,,,,,,,,,,,,,,,,,,,,,,,,,,,,,,,,,,,,,,,,,,,,,465.04062761564273,465.04062761564273,465.04062761564273,465.04062761564273,465.04062761564273,465.04062761564273,s,1,0.6123503926210105,465.66568394820206,466.6991330002202,,,,,,,,,,,,,,,,,,,,,,,,,,,,,,,,,,,,,,,574,2010-12-30_07h00.01.808,eb_02psyexp,2022.2.4,119.96375296233471,
91,0,91,0,,,,,,,,,,,,,,,,,,,,,,,,,,,,,,,,,,,,,,,,,,,,,,,,,,,,,,,,,,,466.6991330002202,466.6991330002202,466.6991330002202,466.6991330002202,466.6991330002202,466.6991330002202,l,1,0.7858448245096952,467.4991951206466,468.5159154207213,,,,,,,,,,,,,,,,,,,,,,,,,,,,,,,,,,,,,,,574,2010-12-30_07h00.01.808,eb_02psyexp,2022.2.4,119.96375296233471,
92,0,92,0,,,,,,,,,,,,,,,,,,,,,,,,,,,,,,,,,,,,,,,,,,,,,,,,,,,,,,,,,,,468.5159154207213,468.5159154207213,468.5159154207213,468.5159154207213,468.5159154207213,468.5159154207213,l,1,0.6810949046630412,469.20764467830304,470.2410722990753,,,,,,,,,,,,,,,,,,,,,,,,,,,,,,,,,,,,,,,574,2010-12-30_07h00.01.808,eb_02psyexp,2022.2.4,119.96375296233471,
93,0,93,0,,,,,,,,,,,,,,,,,,,,,,,,,,,,,,,,,,,,,,,,,,,,,,,,,,,,,,,,,,,470.2410722990753,470.2410722990753,470.2410722990753,470.2410722990753,470.2410722990753,470.2410722990753,l,1,0.5159616791643202,470.76614429743495,471.7912236911943,,,,,,,,,,,,,,,,,,,,,,,,,,,,,,,,,,,,,,,574,2010-12-30_07h00.01.808,eb_02psyexp,2022.2.4,119.96375296233471,
94,0,94,0,,,,,,,,,,,,,,,,,,,,,,,,,,,,,,,,,,,,,,,,,,,,,,,,,,,,,,,,,,,471.7912236911943,471.7912236911943,471.7912236911943,471.7912236911943,471.7912236911943,471.7912236911943,s,1,0.5818277628859505,472.38290975417476,473.39965450402815,,,,,,,,,,,,,,,,,,,,,,,,,,,,,,,,,,,,,,,574,2010-12-30_07h00.01.808,eb_02psyexp,2022.2.4,119.96375296233471,
95,0,95,0,,,,,,,,,,,,,,,,,,,,,,,,,,,,,,,,,,,,,,,,,,,,,,,,,,,,,,,,,,,473.39965450402815,473.39965450402815,473.39965450402815,473.39965450402815,473.39965450402815,473.39965450402815,l,1,0.5894382718252018,473.99970177351497,475.0247826764826,,,,,,,,,,,,,,,,,,,,,,,,,,,,,,,,,,,,,,,574,2010-12-30_07h00.01.808,eb_02psyexp,2022.2.4,119.96375296233471,
96,0,96,0,,,,,,,,,,,,,,,,,,,,,,,,,,,,,,,,,,,,,,,,,,,,,,,,,,,,,,,,,,,475.0247826764826,475.0247826764826,475.0247826764826,475.0247826764826,475.0247826764826,475.0247826764826,s,1,0.812342906720005,475.8498623117339,476.88331740070134,,,,,,,,,,,,,,,,,,,,,,,,,,,,,,,,,,,,,,,574,2010-12-30_07h00.01.808,eb_02psyexp,2022.2.4,119.96375296233471,
97,0,97,0,,,,,,,,,,,,,,,,,,,,,,,,,,,,,,,,,,,,,,,,,,,,,,,,,,,,,,,,,,,476.88331740070134,476.88331740070134,476.88331740070134,476.88331740070134,476.88331740070134,476.88331740070134,l,1,0.649833953124471,477.5416781997774,478.5584141960135,,,,,,,,,,,,,,,,,,,,,,,,,,,,,,,,,,,,,,,574,2010-12-30_07h00.01.808,eb_02psyexp,2022.2.4,119.96375296233471,
98,0,98,0,,,,,,,,,,,,,,,,,,,,,,,,,,,,,,,,,,,,,,,,,,,,,,,,,,,,,,,,,,,478.5584141960135,478.5584141960135,478.5584141960135,478.5584141960135,478.5584141960135,478.5584141960135,l,1,0.7977512431098148,479.3667976789875,480.3919196333736,,,,,,,,,,,,,,,,,,,,,,,,,,,,,,,,,,,,,,,574,2010-12-30_07h00.01.808,eb_02psyexp,2022.2.4,119.96375296233471,
99,0,99,0,,,,,,,,,,,,,,,,,,,,,,,,,,,,,,,,,,,,,,,,,,,,,,,,,,,,,,,,,,,480.3919196333736,480.3919196333736,480.3919196333736,480.3919196333736,480.3919196333736,480.3919196333736,s,1,0.6362528785830364,481.04198412329424,482.05870502709877,,,,,,,,,,,,,,,,,,,,,,,,,,,,,,,,,,,,,,,574,2010-12-30_07h00.01.808,eb_02psyexp,2022.2.4,119.96375296233471,
100,0,100,0,,,,,,,,,,,,,,,,,,,,,,,,,,,,,,,,,,,,,,,,,,,,,,,,,,,,,,,,,,,482.05870502709877,482.05870502709877,482.05870502709877,482.05870502709877,482.05870502709877,482.05870502709877,l,1,0.7135406119050458,482.7837725582067,483.8172201010166,,,,,,,,,,,,,,,,,,,,,,,,,,,,,,,,,,,,,,,574,2010-12-30_07h00.01.808,eb_02psyexp,2022.2.4,119.96375296233471,
101,0,101,0,,,,,,,,,,,,,,,,,,,,,,,,,,,,,,,,,,,,,,,,,,,,,,,,,,,,,,,,,,,483.8172201010166,483.8172201010166,483.8172201010166,483.8172201010166,483.8172201010166,483.8172201010166,s,1,0.5390443444484845,484.36723445390817,485.4006472841138,,,,,,,,,,,,,,,,,,,,,,,,,,,,,,,,,,,,,,,574,2010-12-30_07h00.01.808,eb_02psyexp,2022.2.4,119.96375296233471,
102,0,102,0,,,,,,,,,,,,,,,,,,,,,,,,,,,,,,,,,,,,,,,,,,,,,,,,,,,,,,,,,,,485.4006472841138,485.4006472841138,485.4006472841138,485.4006472841138,485.4006472841138,485.4006472841138,l,1,0.555652960552834,485.9674353643786,487.00080080435146,,,,,,,,,,,,,,,,,,,,,,,,,,,,,,,,,,,,,,,574,2010-12-30_07h00.01.808,eb_02psyexp,2022.2.4,119.96375296233471,
103,0,103,0,,,,,,,,,,,,,,,,,,,,,,,,,,,,,,,,,,,,,,,,,,,,,,,,,,,,,,,,,,,487.00080080435146,487.00080080435146,487.00080080435146,487.00080080435146,487.00080080435146,487.00080080435146,s,1,0.5395288113504648,487.5508480586577,488.5842747739516,,,,,,,,,,,,,,,,,,,,,,,,,,,,,,,,,,,,,,,574,2010-12-30_07h00.01.808,eb_02psyexp,2022.2.4,119.96375296233471,
104,0,104,0,,,,,,,,,,,,,,,,,,,,,,,,,,,,,,,,,,,,,,,,,,,,,,,,,,,,,,,,,,,488.5842747739516,488.5842747739516,488.5842747739516,488.5842747739516,488.5842747739516,488.5842747739516,l,1,0.3880702336318791,488.9843105127802,490.00936394755263,,,,,,,,,,,,,,,,,,,,,,,,,,,,,,,,,,,,,,,574,2010-12-30_07h00.01.808,eb_02psyexp,2022.2.4,119.96375296233471,
105,0,105,0,,,,,,,,,,,,,,,,,,,,,,,,,,,,,,,,,,,,,,,,,,,,,,,,,,,,,,,,,,,490.00936394755263,490.00936394755263,490.00936394755263,490.00936394755263,490.00936394755263,490.00936394755263,l,1,0.5950454117264599,490.6177555200411,491.6428321971325,,,,,,,,,,,,,,,,,,,,,,,,,,,,,,,,,,,,,,,574,2010-12-30_07h00.01.808,eb_02psyexp,2022.2.4,119.96375296233471,
106,0,106,0,,,,,,,,,,,,,,,,,,,,,,,,,,,,,,,,,,,,,,,,,,,,,,,,,,,,,,,,,,,491.6428321971325,491.6428321971325,491.6428321971325,491.6428321971325,491.6428321971325,491.6428321971325,s,1,0.5855776281096041,492.2428879183717,493.2763209724799,,,,,,,,,,,,,,,,,,,,,,,,,,,,,,,,,,,,,,,574,2010-12-30_07h00.01.808,eb_02psyexp,2022.2.4,119.96375296233471,
107,0,107,0,,,,,,,,,,,,,,,,,,,,,,,,,,,,,,,,,,,,,,,,,,,,,,,,,,,,,,,,,,,493.2763209724799,493.2763209724799,493.2763209724799,493.2763209724799,493.2763209724799,493.2763209724799,l,1,0.5761176927480847,493.86804054060485,494.89310242712963,,,,,,,,,,,,,,,,,,,,,,,,,,,,,,,,,,,,,,,574,2010-12-30_07h00.01.808,eb_02psyexp,2022.2.4,119.96375296233471,
108,0,108,0,,,,,,,,,,,,,,,,,,,,,,,,,,,,,,,,,,,,,,,,,,,,,,,,,,,,,,,,,,,494.89310242712963,494.89310242712963,494.89310242712963,494.89310242712963,494.89310242712963,494.89310242712963,s,1,0.582358714658767,495.48484131356236,496.5182544456329,,,,,,,,,,,,,,,,,,,,,,,,,,,,,,,,,,,,,,,574,2010-12-30_07h00.01.808,eb_02psyexp,2022.2.4,119.96375296233471,
109,0,109,0,,,,,,,,,,,,,,,,,,,,,,,,,,,,,,,,,,,,,,,,,,,,,,,,,,,,,,,,,,,496.5182544456329,496.5182544456329,496.5182544456329,496.5182544456329,496.5182544456329,496.5182544456329,l,1,0.5812433839309961,497.1099589213263,498.1350316744065,,,,,,,,,,,,,,,,,,,,,,,,,,,,,,,,,,,,,,,574,2010-12-30_07h00.01.808,eb_02psyexp,2022.2.4,119.96375296233471,
110,0,110,0,,,,,,,,,,,,,,,,,,,,,,,,,,,,,,,,,,,,,,,,,,,,,,,,,,,,,,,,,,,498.1350316744065,498.1350316744065,498.1350316744065,498.1350316744065,498.1350316744065,498.1350316744065,s,1,0.5804923846153542,498.7267747867154,499.7602027093526,,,,,,,,,,,,,,,,,,,,,,,,,,,,,,,,,,,,,,,574,2010-12-30_07h00.01.808,eb_02psyexp,2022.2.4,119.96375296233471,
111,0,111,0,,,,,,,,,,,,,,,,,,,,,,,,,,,,,,,,,,,,,,,,,,,,,,,,,,,,,,,,,,,499.7602027093526,499.7602027093526,499.7602027093526,499.7602027093526,499.7602027093526,499.7602027093526,l,1,0.4993328391574323,500.2685550113674,501.29368360643275,,,,,,,,,,,,,,,,,,,,,,,,,,,,,,,,,,,,,,,574,2010-12-30_07h00.01.808,eb_02psyexp,2022.2.4,119.96375296233471,
112,0,112,0,,,,,,,,,,,,,,,,,,,,,,,,,,,,,,,,,,,,,,,,,,,,,,,,,,,,,,,,,,,501.29368360643275,501.29368360643275,501.29368360643275,501.29368360643275,501.29368360643275,501.29368360643275,s,1,0.4698841868666932,501.7770268454915,502.80210291885305,,,,,,,,,,,,,,,,,,,,,,,,,,,,,,,,,,,,,,,574,2010-12-30_07h00.01.808,eb_02psyexp,2022.2.4,119.96375296233471,
113,0,113,0,,,,,,,,,,,,,,,,,,,,,,,,,,,,,,,,,,,,,,,,,,,,,,,,,,,,,,,,,,,502.80210291885305,502.80210291885305,502.80210291885305,502.80210291885305,502.80210291885305,502.80210291885305,l,1,0.625488655292429,503.4438152577495,504.46890732913744,,,,,,,,,,,,,,,,,,,,,,,,,,,,,,,,,,,,,,,574,2010-12-30_07h00.01.808,eb_02psyexp,2022.2.4,119.96375296233471,
114,0,114,0,,,,,,,,,,,,,,,,,,,,,,,,,,,,,,,,,,,,,,,,,,,,,,,,,,,,,,,,,,,504.46890732913744,504.46890732913744,504.46890732913744,504.46890732913744,504.46890732913744,504.46890732913744,s,1,0.4387246564729139,504.9189376498107,505.9440342489397,,,,,,,,,,,,,,,,,,,,,,,,,,,,,,,,,,,,,,,574,2010-12-30_07h00.01.808,eb_02psyexp,2022.2.4,119.96375296233471,
115,0,115,0,,,,,,,,,,,,,,,,,,,,,,,,,,,,,,,,,,,,,,,,,,,,,,,,,,,,,,,,,,,505.9440342489397,505.9440342489397,505.9440342489397,505.9440342489397,505.9440342489397,505.9440342489397,l,1,0.5076161688193679,506.46077130164485,507.494145495235,,,,,,,,,,,,,,,,,,,,,,,,,,,,,,,,,,,,,,,574,2010-12-30_07h00.01.808,eb_02psyexp,2022.2.4,119.96375296233471,
116,0,116,0,,,,,,,,,,,,,,,,,,,,,,,,,,,,,,,,,,,,,,,,,,,,,,,,,,,,,,,,,,,507.494145495235,507.494145495235,507.494145495235,507.494145495235,507.494145495235,507.494145495235,s,1,0.477543595363386,507.985858694301,509.0109558971599,,,,,,,,,,,,,,,,,,,,,,,,,,,,,,,,,,,,,,,574,2010-12-30_07h00.01.808,eb_02psyexp,2022.2.4,119.96375296233471,
117,0,117,0,,,,,,,,,,,,,,,,,,,,,,,,,,,,,,,,,,,,,,,,,,,,,,,,,,,,,,,,,,,509.0109558971599,509.0109558971599,509.0109558971599,509.0109558971599,509.0109558971599,509.0109558971599,l,1,0.46474461059551686,509.485998601187,510.5110770893516,,,,,,,,,,,,,,,,,,,,,,,,,,,,,,,,,,,,,,,574,2010-12-30_07h00.01.808,eb_02psyexp,2022.2.4,119.96375296233471,
118,0,118,0,,,,,,,,,,,,,,,,,,,,,,,,,,,,,,,,,,,,,,,,,,,,,,,,,,,,,,,,,,,510.5110770893516,510.5110770893516,510.5110770893516,510.5110770893516,510.5110770893516,510.5110770893516,s,1,0.4356506302719936,510.96112159697805,511.9945368418703,,,,,,,,,,,,,,,,,,,,,,,,,,,,,,,,,,,,,,,574,2010-12-30_07h00.01.808,eb_02psyexp,2022.2.4,119.96375296233471,
119,0,119,0,,,,,,,,,,,,,,,,,,,,,,,,,,,,,,,,,,,,,,,,,,,,,,,,,,,,,,,,,,,511.9945368418703,511.9945368418703,511.9945368418703,511.9945368418703,511.9945368418703,511.9945368418703,l,1,0.5682270681718364,512.5779459141195,513.6113291631918,,,,,,,,,,,,,,,,,,,,,,,,,,,,,,,,,,,,,,,574,2010-12-30_07h00.01.808,eb_02psyexp,2022.2.4,119.96375296233471,
120,0,120,0,,,,,,,,,,,,,,,,,,,,,,,,,,,,,,,,,,,,,,,,,,,,,,,,,,,,,,,,,,,513.6113291631918,513.6113291631918,513.6113291631918,513.6113291631918,513.6113291631918,513.6113291631918,s,1,0.44746226829010993,514.0697200866416,515.1031404631212,,,,,,,,,,,,,,,,,,,,,,,,,,,,,,,,,,,,,,,574,2010-12-30_07h00.01.808,eb_02psyexp,2022.2.4,119.96375296233471,
121,0,121,0,,,,,,,,,,,,,,,,,,,,,,,,,,,,,,,,,,,,,,,,,,,,,,,,,,,,,,,,,,,515.1031404631212,515.1031404631212,515.1031404631212,515.1031404631212,515.1031404631212,515.1031404631212,l,1,0.4117040743585676,515.5281671540579,516.561562175164,,,,,,,,,,,,,,,,,,,,,,,,,,,,,,,,,,,,,,,574,2010-12-30_07h00.01.808,eb_02psyexp,2022.2.4,119.96375296233471,
122,0,122,0,,,,,,,,,,,,,,,,,,,,,,,,,,,,,,,,,,,,,,,,,,,,,,,,,,,,,,,,,,,516.561562175164,516.561562175164,516.561562175164,516.561562175164,516.561562175164,516.561562175164,s,1,0.4812819904182106,517.0532786946278,518.0783734826837,,,,,,,,,,,,,,,,,,,,,,,,,,,,,,,,,,,,,,,574,2010-12-30_07h00.01.808,eb_02psyexp,2022.2.4,119.96375296233471,
123,0,123,0,,,,,,,,,,,,,,,,,,,,,,,,,,,,,,,,,,,,,,,,,,,,,,,,,,,,,,,,,,,518.0783734826837,518.0783734826837,518.0783734826837,518.0783734826837,518.0783734826837,518.0783734826837,l,1,0.3724945434369147,518.461741443025,519.4868226478575,,,,,,,,,,,,,,,,,,,,,,,,,,,,,,,,,,,,,,,574,2010-12-30_07h00.01.808,eb_02psyexp,2022.2.4,119.96375296233471,
124,0,124,0,,,,,,,,,,,,,,,,,,,,,,,,,,,,,,,,,,,,,,,,,,,,,,,,,,,,,,,,,,,519.4868226478575,519.4868226478575,519.4868226478575,519.4868226478575,519.4868226478575,519.4868226478575,s,1,0.4681026763282716,519.9701864125673,520.9869347846834,,,,,,,,,,,,,,,,,,,,,,,,,,,,,,,,,,,,,,,574,2010-12-30_07h00.01.808,eb_02psyexp,2022.2.4,119.96375296233471,
125,0,125,0,,,,,,,,,,,,,,,,,,,,,,,,,,,,,,,,,,,,,,,,,,,,,,,,,,,,,,,,,,,520.9869347846834,520.9869347846834,520.9869347846834,520.9869347846834,520.9869347846834,520.9869347846834,l,1,0.6080010558944196,521.6036453049164,522.628744620597,,,,,,,,,,,,,,,,,,,,,,,,,,,,,,,,,,,,,,,574,2010-12-30_07h00.01.808,eb_02psyexp,2022.2.4,119.96375296233471,
126,0,126,0,,,,,,,,,,,,,,,,,,,,,,,,,,,,,,,,,,,,,,,,,,,,,,,,,,,,,,,,,,,522.628744620597,522.628744620597,522.628744620597,522.628744620597,522.628744620597,522.628744620597,s,1,0.40623095526825637,523.0454336492112,524.0705362852896,,,,,,,,,,,,,,,,,,,,,,,,,,,,,,,,,,,,,,,574,2010-12-30_07h00.01.808,eb_02psyexp,2022.2.4,119.96375296233471,
127,0,127,0,,,,,,,,,,,,,,,,,,,,,,,,,,,,,,,,,,,,,,,,,,,,,,,,,,,,,,,,,,,524.0705362852896,524.0705362852896,524.0705362852896,524.0705362852896,524.0705362852896,524.0705362852896,l,1,0.4284364484483376,524.5122443379369,525.5456653180299,,,,,,,,,,,,,,,,,,,,,,,,,,,,,,,,,,,,,,,574,2010-12-30_07h00.01.808,eb_02psyexp,2022.2.4,119.96375296233471,
128,0,128,0,,,,,,,,,,,,,,,,,,,,,,,,,,,,,,,,,,,,,,,,,,,,,,,,,,,,,,,,,,,525.5456653180299,525.5456653180299,525.5456653180299,525.5456653180299,525.5456653180299,525.5456653180299,s,1,0.3763370761880651,525.9373621871928,526.9624358457513,,,,,,,,,,,,,,,,,,,,,,,,,,,,,,,,,,,,,,,574,2010-12-30_07h00.01.808,eb_02psyexp,2022.2.4,119.96375296233471,
129,0,129,0,,,,,,,,,,,,,,,,,,,,,,,,,,,,,,,,,,,,,,,,,,,,,,,,,,,,,,,,,,,526.9624358457513,526.9624358457513,526.9624358457513,526.9624358457513,526.9624358457513,526.9624358457513,l,1,0.39958002301864326,527.3707974748686,528.4042501491494,,,,,,,,,,,,,,,,,,,,,,,,,,,,,,,,,,,,,,,574,2010-12-30_07h00.01.808,eb_02psyexp,2022.2.4,119.96375296233471,
130,0,130,0,,,,,,,,,,,,,,,,,,,,,,,,,,,,,,,,,,,,,,,,,,,,,,,,,,,,,,,,,,,528.4042501491494,528.4042501491494,528.4042501491494,528.4042501491494,528.4042501491494,528.4042501491494,s,1,0.42979506903793663,528.8459117170423,529.8793655986665,,,,,,,,,,,,,,,,,,,,,,,,,,,,,,,,,,,,,,,574,2010-12-30_07h00.01.808,eb_02psyexp,2022.2.4,119.96375296233471,
131,0,131,0,,,,,,,,,,,,,,,,,,,,,,,,,,,,,,,,,,,,,,,,,,,,,,,,,,,,,,,,,,,529.8793655986665,529.8793655986665,529.8793655986665,529.8793655986665,529.8793655986665,529.8793655986665,l,1,0.39470788452308625,530.2877088150708,531.3127909253817,,,,,,,,,,,,,,,,,,,,,,,,,,,,,,,,,,,,,,,574,2010-12-30_07h00.01.808,eb_02psyexp,2022.2.4,119.96375296233471,
132,0,132,0,,,,,,,,,,,,,,,,,,,,,,,,,,,,,,,,,,,,,,,,,,,,,,,,,,,,,,,,,,,531.3127909253817,531.3127909253817,531.3127909253817,531.3127909253817,531.3127909253817,531.3127909253817,s,1,0.42530024133156985,531.7544869041303,532.7712500666967,,,,,,,,,,,,,,,,,,,,,,,,,,,,,,,,,,,,,,,574,2010-12-30_07h00.01.808,eb_02psyexp,2022.2.4,119.96375296233471,
133,0,133,0,,,,,,,,,,,,,,,,,,,,,,,,,,,,,,,,,,,,,,,,,,,,,,,,,,,,,,,,,,,532.7712500666967,532.7712500666967,532.7712500666967,532.7712500666967,532.7712500666967,532.7712500666967,l,1,0.3988709805998951,533.179613808752,534.2047073894646,,,,,,,,,,,,,,,,,,,,,,,,,,,,,,,,,,,,,,,574,2010-12-30_07h00.01.808,eb_02psyexp,2022.2.4,119.96375296233471,
134,0,134,0,,,,,,,,,,,,,,,,,,,,,,,,,,,,,,,,,,,,,,,,,,,,,,,,,,,,,,,,,,,534.2047073894646,534.2047073894646,534.2047073894646,534.2047073894646,534.2047073894646,534.2047073894646,s,1,0.3734281611396,534.5880780664738,535.6215065927245,,,,,,,,,,,,,,,,,,,,,,,,,,,,,,,,,,,,,,,574,2010-12-30_07h00.01.808,eb_02psyexp,2022.2.4,119.96375296233471,
135,0,135,0,,,,,,,,,,,,,,,,,,,,,,,,,,,,,,,,,,,,,,,,,,,,,,,,,,,,,,,,,,,535.6215065927245,535.6215065927245,535.6215065927245,535.6215065927245,535.6215065927245,535.6215065927245,l,1,0.42068890016525984,536.0548661164939,537.0799364547711,,,,,,,,,,,,,,,,,,,,,,,,,,,,,,,,,,,,,,,574,2010-12-30_07h00.01.808,eb_02psyexp,2022.2.4,119.96375296233471,
136,0,136,0,,,,,,,,,,,,,,,,,,,,,,,,,,,,,,,,,,,,,,,,,,,,,,,,,,,,,,,,,,,537.0799364547711,537.0799364547711,537.0799364547711,537.0799364547711,537.0799364547711,537.0799364547711,s,1,0.39426265796646476,537.4883545296034,538.521734156413,,,,,,,,,,,,,,,,,,,,,,,,,,,,,,,,,,,,,,,574,2010-12-30_07h00.01.808,eb_02psyexp,2022.2.4,119.96375296233471,
137,0,137,0,,,,,,,,,,,,,,,,,,,,,,,,,,,,,,,,,,,,,,,,,,,,,,,,,,,,,,,,,,,538.521734156413,538.521734156413,538.521734156413,538.521734156413,538.521734156413,538.521734156413,l,1,0.38451475894544274,538.9217665749602,539.946833291091,,,,,,,,,,,,,,,,,,,,,,,,,,,,,,,,,,,,,,,574,2010-12-30_07h00.01.808,eb_02psyexp,2022.2.4,119.96375296233471,
138,0,138,0,,,,,,,,,,,,,,,,,,,,,,,,,,,,,,,,,,,,,,,,,,,,,,,,,,,,,,,,,,,539.946833291091,539.946833291091,539.946833291091,539.946833291091,539.946833291091,539.946833291091,s,1,0.5835685238707811,540.5385549721541,541.5553066645516,,,,,,,,,,,,,,,,,,,,,,,,,,,,,,,,,,,,,,,574,2010-12-30_07h00.01.808,eb_02psyexp,2022.2.4,119.96375296233471,
139,0,139,0,,,,,,,,,,,,,,,,,,,,,,,,,,,,,,,,,,,,,,,,,,,,,,,,,,,,,,,,,,,541.5553066645516,541.5553066645516,541.5553066645516,541.5553066645516,541.5553066645516,541.5553066645516,l,1,0.38996644667349756,541.955397339887,542.9887839092407,,,,,,,,,,,,,,,,,,,,,,,,,,,,,,,,,,,,,,,574,2010-12-30_07h00.01.808,eb_02psyexp,2022.2.4,119.96375296233471,
140,0,140,0,,,,,,,,,,,,,,,,,,,,,,,,,,,,,,,,,,,,,,,,,,,,,,,,,,,,,,,,,,,542.9887839092407,542.9887839092407,542.9887839092407,542.9887839092407,542.9887839092407,542.9887839092407,l,1,0.620522943791002,543.6221591894282,544.6555883195251,,,,,,,,,,,,,,,,,,,,,,,,,,,,,,,,,,,,,,,574,2010-12-30_07h00.01.808,eb_02psyexp,2022.2.4,119.96375296233471,
141,0,141,0,,,,,,,,,,,,,,,,,,,,,,,,,,,,,,,,,,,,,,,,,,,,,,,,,,,,,,,,,,,544.6555883195251,544.6555883195251,544.6555883195251,544.6555883195251,544.6555883195251,544.6555883195251,s,1,0.6017494694096968,545.2723199691391,546.3057095570257,,,,,,,,,,,,,,,,,,,,,,,,,,,,,,,,,,,,,,,574,2010-12-30_07h00.01.808,eb_02psyexp,2022.2.4,119.96375296233471,
142,0,142,0,,,,,,,,,,,,,,,,,,,,,,,,,,,,,,,,,,,,,,,,,,,,,,,,,,,,,,,,,,,546.3057095570257,546.3057095570257,546.3057095570257,546.3057095570257,546.3057095570257,546.3057095570257,l,1,0.41563927475363016,546.730750736664,547.7558283193503,,,,,,,,,,,,,,,,,,,,,,,,,,,,,,,,,,,,,,,574,2010-12-30_07h00.01.808,eb_02psyexp,2022.2.4,119.96375296233471,
143,0,143,0,,,,,,,,,,,,,,,,,,,,,,,,,,,,,,,,,,,,,,,,,,,,,,,,,,,,,,,,,,,547.7558283193503,547.7558283193503,547.7558283193503,547.7558283193503,547.7558283193503,547.7558283193503,s,1,0.39755612809676677,548.1642047390342,549.1809283595067,,,,,,,,,,,,,,,,,,,,,,,,,,,,,,,,,,,,,,,574,2010-12-30_07h00.01.808,eb_02psyexp,2022.2.4,119.96375296233471,
144,0,144,0,,,,,,,,,,,,,,,,,,,,,,,,,,,,,,,,,,,,,,,,,,,,,,,,,,,,,,,,,,,549.1809283595067,549.1809283595067,549.1809283595067,549.1809283595067,549.1809283595067,549.1809283595067,l,1,0.436511502484791,549.6309665282024,550.6643989785807,,,,,,,,,,,,,,,,,,,,,,,,,,,,,,,,,,,,,,,574,2010-12-30_07h00.01.808,eb_02psyexp,2022.2.4,119.96375296233471,
145,0,145,0,,,,,,,,,,,,,,,,,,,,,,,,,,,,,,,,,,,,,,,,,,,,,,,,,,,,,,,,,,,550.6643989785807,550.6643989785807,550.6643989785807,550.6643989785807,550.6643989785807,550.6643989785807,s,1,0.5050329484511167,551.1811028280063,552.2061994271353,,,,,,,,,,,,,,,,,,,,,,,,,,,,,,,,,,,,,,,574,2010-12-30_07h00.01.808,eb_02psyexp,2022.2.4,119.96375296233471,
146,0,146,0,,,,,,,,,,,,,,,,,,,,,,,,,,,,,,,,,,,,,,,,,,,,,,,,,,,,,,,,,,,552.2061994271353,552.2061994271353,552.2061994271353,552.2061994271353,552.2061994271353,552.2061994271353,l,1,0.5712989814346656,552.7895964253694,553.8230134814512,,,,,,,,,,,,,,,,,,,,,,,,,,,,,,,,,,,,,,,574,2010-12-30_07h00.01.808,eb_02psyexp,2022.2.4,119.96375296233471,
147,0,147,0,,,,,,,,,,,,,,,,,,,,,,,,,,,,,,,,,,,,,,,,,,,,,,,,,,,,,,,,,,,553.8230134814512,553.8230134814512,553.8230134814512,553.8230134814512,553.8230134814512,553.8230134814512,s,1,0.49846894841175526,554.3313968738075,555.3564445734955,,,,,,,,,,,,,,,,,,,,,,,,,,,,,,,,,,,,,,,574,2010-12-30_07h00.01.808,eb_02psyexp,2022.2.4,119.96375296233471,
148,0,148,0,,,,,,,,,,,,,,,,,,,,,,,,,,,,,,,,,,,,,,,,,,,,,,,,,,,,,,,,,,,555.3564445734955,555.3564445734955,555.3564445734955,555.3564445734955,555.3564445734955,555.3564445734955,l,1,0.49210809264332056,555.864839738002,556.8982703771908,,,,,,,,,,,,,,,,,,,,,,,,,,,,,,,,,,,,,,,574,2010-12-30_07h00.01.808,eb_02psyexp,2022.2.4,119.96375296233471,
149,0,149,0,,,,,,,,,,,,,,,,,,,,,,,,,,,,,,,,,,,,,,,,,,,,,,,,,,,,,,,,,,,556.8982703771908,556.8982703771908,556.8982703771908,556.8982703771908,556.8982703771908,556.8982703771908,s,1,0.5263030127389356,557.4399787618313,558.4650500057032,,,,,,,,,,,,,,,,,,,,,,,,,,,,,,,,,,,,,,,574,2010-12-30_07h00.01.808,eb_02psyexp,2022.2.4,119.96375296233471,
150,0,150,0,,,,,,,,,,,,,,,,,,,,,,,,,,,,,,,,,,,,,,,,,,,,,,,,,,,,,,,,,,,558.4650500057032,558.4650500057032,558.4650500057032,558.4650500057032,558.4650500057032,558.4650500057032,l,1,0.6315383051987737,559.1067834739806,560.1401730618672,,,,,,,,,,,,,,,,,,,,,,,,,,,,,,,,,,,,,,,574,2010-12-30_07h00.01.808,eb_02psyexp,2022.2.4,119.96375296233471,
151,0,151,0,,,,,,,,,,,,,,,,,,,,,,,,,,,,,,,,,,,,,,,,,,,,,,,,,,,,,,,,,,,560.1401730618672,560.1401730618672,560.1401730618672,560.1401730618672,560.1401730618672,560.1401730618672,s,1,0.4524297908646986,560.6068850459997,561.6403283629334,,,,,,,,,,,,,,,,,,,,,,,,,,,,,,,,,,,,,,,574,2010-12-30_07h00.01.808,eb_02psyexp,2022.2.4,119.96375296233471,
152,0,152,0,,,,,,,,,,,,,,,,,,,,,,,,,,,,,,,,,,,,,,,,,,,,,,,,,,,,,,,,,,,561.6403283629334,561.6403283629334,561.6403283629334,561.6403283629334,561.6403283629334,561.6403283629334,l,1,0.49628658301662654,562.1486839852296,563.1654193778522,,,,,,,,,,,,,,,,,,,,,,,,,,,,,,,,,,,,,,,574,2010-12-30_07h00.01.808,eb_02psyexp,2022.2.4,119.96375296233471,
153,0,153,0,,,,,,,,,,,,,,,,,,,,,,,,,,,,,,,,,,,,,,,,,,,,,,,,,,,,,,,,,,,563.1654193778522,563.1654193778522,563.1654193778522,563.1654193778522,563.1654193778522,563.1654193778522,l,1,0.5952373874606565,563.773838116671,564.7989060402615,,,,,,,,,,,,,,,,,,,,,,,,,,,,,,,,,,,,,,,574,2010-12-30_07h00.01.808,eb_02psyexp,2022.2.4,119.96375296233471,
154,0,154,0,,,,,,,,,,,,,,,,,,,,,,,,,,,,,,,,,,,,,,,,,,,,,,,,,,,,,,,,,,,564.7989060402615,564.7989060402615,564.7989060402615,564.7989060402615,564.7989060402615,564.7989060402615,s,1,0.5537784806219861,565.3656117158243,566.3823567675427,,,,,,,,,,,,,,,,,,,,,,,,,,,,,,,,,,,,,,,574,2010-12-30_07h00.01.808,eb_02psyexp,2022.2.4,119.96375296233471,
155,0,155,0,,,,,,,,,,,,,,,,,,,,,,,,,,,,,,,,,,,,,,,,,,,,,,,,,,,,,,,,,,,566.3823567675427,566.3823567675427,566.3823567675427,566.3823567675427,566.3823567675427,566.3823567675427,l,1,0.5543577281059697,566.9490766299423,567.9824882528046,,,,,,,,,,,,,,,,,,,,,,,,,,,,,,,,,,,,,,,574,2010-12-30_07h00.01.808,eb_02psyexp,2022.2.4,119.96375296233471,
156,0,156,0,,,,,,,,,,,,,,,,,,,,,,,,,,,,,,,,,,,,,,,,,,,,,,,,,,,,,,,,,,,567.9824882528046,567.9824882528046,567.9824882528046,567.9824882528046,567.9824882528046,567.9824882528046,l,1,0.5782526679104194,568.5742105375975,569.5909516651882,,,,,,,,,,,,,,,,,,,,,,,,,,,,,,,,,,,,,,,574,2010-12-30_07h00.01.808,eb_02psyexp,2022.2.4,119.96375296233471,
157,0,157,0,,,,,,,,,,,,,,,,,,,,,,,,,,,,,,,,,,,,,,,,,,,,,,,,,,,,,,,,,,,569.5909516651882,569.5909516651882,569.5909516651882,569.5909516651882,569.5909516651882,569.5909516651882,l,1,0.5457840202143416,570.1493580131792,571.1744156738278,,,,,,,,,,,,,,,,,,,,,,,,,,,,,,,,,,,,,,,574,2010-12-30_07h00.01.808,eb_02psyexp,2022.2.4,119.96375296233471,
158,0,158,0,,,,,,,,,,,,,,,,,,,,,,,,,,,,,,,,,,,,,,,,,,,,,,,,,,,,,,,,,,,571.1744156738278,571.1744156738278,571.1744156738278,571.1744156738278,571.1744156738278,571.1744156738278,s,1,0.594381344737485,571.7828431663802,572.7995544109726,,,,,,,,,,,,,,,,,,,,,,,,,,,,,,,,,,,,,,,574,2010-12-30_07h00.01.808,eb_02psyexp,2022.2.4,119.96375296233471,
159,0,159,0,,,,,,,,,,,,,,,,,,,,,,,,,,,,,,,,,,,,,,,,,,,,,,,,,,,,,,,,,,,572.7995544109726,572.7995544109726,572.7995544109726,572.7995544109726,572.7995544109726,572.7995544109726,l,1,0.4722431336995214,573.2829842806095,574.3163771887776,,,,,,,,,,,,,,,,,,,,,,,,,,,,,,,,,,,,,,,574,2010-12-30_07h00.01.808,eb_02psyexp,2022.2.4,119.96375296233471,
160,0,160,0,,,,,,,,,,,,,,,,,,,,,,,,,,,,,,,,,,,,,,,,,,,,,,,,,,,,,,,,,,,574.3163771887776,574.3163771887776,574.3163771887776,574.3163771887776,574.3163771887776,574.3163771887776,l,1,0.4674775479361415,574.799706844613,575.8164706109092,,,,,,,,,,,,,,,,,,,,,,,,,,,,,,,,,,,,,,,574,2010-12-30_07h00.01.808,eb_02psyexp,2022.2.4,119.96375296233471,
161,0,161,0,,,,,,,,,,,,,,,,,,,,,,,,,,,,,,,,,,,,,,,,,,,,,,,,,,,,,,,,,,,575.8164706109092,575.8164706109092,575.8164706109092,575.8164706109092,575.8164706109092,575.8164706109092,l,1,0.47143327386584133,576.2998690882232,577.3249711205717,,,,,,,,,,,,,,,,,,,,,,,,,,,,,,,,,,,,,,,574,2010-12-30_07h00.01.808,eb_02psyexp,2022.2.4,119.96375296233471,
162,0,162,0,,,,,,,,,,,,,,,,,,,,,,,,,,,,,,,,,,,,,,,,,,,,,,,,,,,,,,,,,,,577.3249711205717,577.3249711205717,577.3249711205717,577.3249711205717,577.3249711205717,577.3249711205717,l,0,0.354925143183209,577.6916329676751,578.7167304723989,,,,,,,,,,,,,,,,,,,,,,,,,,,,,,,,,,,,,,,574,2010-12-30_07h00.01.808,eb_02psyexp,2022.2.4,119.96375296233471,
163,0,163,0,,,,,,,,,,,,,,,,,,,,,,,,,,,,,,,,,,,,,,,,,,,,,,,,,,,,,,,,,,,578.7167304723989,578.7167304723989,578.7167304723989,578.7167304723989,578.7167304723989,578.7167304723989,l,1,0.6912406402407214,579.4167762628058,580.4418553547002,,,,,,,,,,,,,,,,,,,,,,,,,,,,,,,,,,,,,,,574,2010-12-30_07h00.01.808,eb_02psyexp,2022.2.4,119.96375296233471,
164,0,164,0,,,,,,,,,,,,,,,,,,,,,,,,,,,,,,,,,,,,,,,,,,,,,,,,,,,,,,,,,,,580.4418553547002,580.4418553547002,580.4418553547002,580.4418553547002,580.4418553547002,580.4418553547002,s,1,0.5501206791959703,581.0002417806536,582.0253486426082,,,,,,,,,,,,,,,,,,,,,,,,,,,,,,,,,,,,,,,574,2010-12-30_07h00.01.808,eb_02psyexp,2022.2.4,119.96375296233471,
165,0,165,0,,,,,,,,,,,,,,,,,,,,,,,,,,,,,,,,,,,,,,,,,,,,,,,,,,,,,,,,,,,582.0253486426082,582.0253486426082,582.0253486426082,582.0253486426082,582.0253486426082,582.0253486426082,l,1,0.5826569410273805,582.6170715311309,583.6504529690137,,,,,,,,,,,,,,,,,,,,,,,,,,,,,,,,,,,,,,,574,2010-12-30_07h00.01.808,eb_02psyexp,2022.2.4,119.96375296233471,
166,0,166,0,,,,,,,,,,,,,,,,,,,,,,,,,,,,,,,,,,,,,,,,,,,,,,,,,,,,,,,,,,,583.6504529690137,583.6504529690137,583.6504529690137,583.6504529690137,583.6504529690137,583.6504529690137,l,1,0.7175880998838693,584.3838539365679,585.4006062326953,,,,,,,,,,,,,,,,,,,,,,,,,,,,,,,,,,,,,,,574,2010-12-30_07h00.01.808,eb_02psyexp,2022.2.4,119.96375296233471,
167,0,167,0,,,,,,,,,,,,,,,,,,,,,,,,,,,,,,,,,,,,,,,,,,,,,,,,,,,,,,,,,,,585.4006062326953,585.4006062326953,585.4006062326953,585.4006062326953,585.4006062326953,585.4006062326953,l,1,0.7194399411091581,586.1339984466322,587.1673979954794,,,,,,,,,,,,,,,,,,,,,,,,,,,,,,,,,,,,,,,574,2010-12-30_07h00.01.808,eb_02psyexp,2022.2.4,119.96375296233471,
168,0,168,0,,,,,,,,,,,,,,,,,,,,,,,,,,,,,,,,,,,,,,,,,,,,,,,,,,,,,,,,,,,587.1673979954794,587.1673979954794,587.1673979954794,587.1673979954794,587.1673979954794,587.1673979954794,l,1,0.4557235629763454,587.6341552570229,588.6592017492512,,,,,,,,,,,,,,,,,,,,,,,,,,,,,,,,,,,,,,,574,2010-12-30_07h00.01.808,eb_02psyexp,2022.2.4,119.96375296233471,
169,0,169,0,,,,,,,,,,,,,,,,,,,,,,,,,,,,,,,,,,,,,,,,,,,,,,,,,,,,,,,,,,,588.6592017492512,588.6592017492512,588.6592017492512,588.6592017492512,588.6592017492512,588.6592017492512,s,1,0.5159103649202734,589.1842903493671,590.200991331134,,,,,,,,,,,,,,,,,,,,,,,,,,,,,,,,,,,,,,,574,2010-12-30_07h00.01.808,eb_02psyexp,2022.2.4,119.96375296233471,
170,0,170,0,,,,,,,,,,,,,,,,,,,,,,,,,,,,,,,,,,,,,,,,,,,,,,,,,,,,,,,,,,,590.200991331134,590.200991331134,590.200991331134,590.200991331134,590.200991331134,590.200991331134,s,1,0.5501562972785905,590.7593961699167,591.792823790689,,,,,,,,,,,,,,,,,,,,,,,,,,,,,,,,,,,,,,,574,2010-12-30_07h00.01.808,eb_02psyexp,2022.2.4,119.96375296233471,
171,0,171,0,,,,,,,,,,,,,,,,,,,,,,,,,,,,,,,,,,,,,,,,,,,,,,,,,,,,,,,,,,,591.792823790689,591.792823790689,591.792823790689,591.792823790689,591.792823790689,591.792823790689,s,1,0.47832900541834533,592.2845225010533,593.3012757027755,,,,,,,,,,,,,,,,,,,,,,,,,,,,,,,,,,,,,,,574,2010-12-30_07h00.01.808,eb_02psyexp,2022.2.4,119.96375296233471,
172,0,172,0,,,,,,,,,,,,,,,,,,,,,,,,,,,,,,,,,,,,,,,,,,,,,,,,,,,,,,,,,,,593.3012757027755,593.3012757027755,593.3012757027755,593.3012757027755,593.3012757027755,593.3012757027755,l,1,0.4899012774694711,593.8012803813908,594.834710718831,,,,,,,,,,,,,,,,,,,,,,,,,,,,,,,,,,,,,,,574,2010-12-30_07h00.01.808,eb_02psyexp,2022.2.4,119.96375296233471,
173,0,173,0,,,,,,,,,,,,,,,,,,,,,,,,,,,,,,,,,,,,,,,,,,,,,,,,,,,,,,,,,,,594.834710718831,594.834710718831,594.834710718831,594.834710718831,594.834710718831,594.834710718831,s,1,1.0365095706656575,595.8848209086573,596.9015475475462,,,,,,,,,,,,,,,,,,,,,,,,,,,,,,,,,,,,,,,574,2010-12-30_07h00.01.808,eb_02psyexp,2022.2.4,119.96375296233471,
174,0,174,0,,,,,,,,,,,,,,,,,,,,,,,,,,,,,,,,,,,,,,,,,,,,,,,,,,,,,,,,,,,596.9015475475462,596.9015475475462,596.9015475475462,596.9015475475462,596.9015475475462,596.9015475475462,l,1,0.5136960034724325,597.4265914740972,598.4433884437894,,,,,,,,,,,,,,,,,,,,,,,,,,,,,,,,,,,,,,,574,2010-12-30_07h00.01.808,eb_02psyexp,2022.2.4,119.96375296233471,
175,0,175,0,,,,,,,,,,,,,,,,,,,,,,,,,,,,,,,,,,,,,,,,,,,,,,,,,,,,,,,,,,,598.4433884437894,598.4433884437894,598.4433884437894,598.4433884437894,598.4433884437894,598.4433884437894,s,1,0.4838923771167174,598.9434263258008,599.9601357593201,,,,,,,,,,,,,,,,,,,,,,,,,,,,,,,,,,,,,,,574,2010-12-30_07h00.01.808,eb_02psyexp,2022.2.4,119.96375296233471,
176,0,176,0,,,,,,,,,,,,,,,,,,,,,,,,,,,,,,,,,,,,,,,,,,,,,,,,,,,,,,,,,,,599.9601357593201,599.9601357593201,599.9601357593201,599.9601357593201,599.9601357593201,599.9601357593201,l,1,0.519192666746676,600.4935357610229,601.5269742483506,,,,,,,,,,,,,,,,,,,,,,,,,,,,,,,,,,,,,,,574,2010-12-30_07h00.01.808,eb_02psyexp,2022.2.4,119.96375296233471,
177,0,177,0,,,,,,,,,,,,,,,,,,,,,,,,,,,,,,,,,,,,,,,,,,,,,,,,,,,,,,,,,,,601.5269742483506,601.5269742483506,601.5269742483506,601.5269742483506,601.5269742483506,601.5269742483506,s,1,0.42434579611290246,601.9603373942664,602.9854309748625,,,,,,,,,,,,,,,,,,,,,,,,,,,,,,,,,,,,,,,574,2010-12-30_07h00.01.808,eb_02psyexp,2022.2.4,119.96375296233471,
178,0,178,0,,,,,,,,,,,,,,,,,,,,,,,,,,,,,,,,,,,,,,,,,,,,,,,,,,,,,,,,,,,602.9854309748625,602.9854309748625,602.9854309748625,602.9854309748625,602.9854309748625,602.9854309748625,l,0,0.412959462730214,603.4104664194165,604.427174041979,,,,,,,,,,,,,,,,,,,,,,,,,,,,,,,,,,,,,,,574,2010-12-30_07h00.01.808,eb_02psyexp,2022.2.4,119.96375296233471,
179,0,179,0,,,,,,,,,,,,,,,,,,,,,,,,,,,,,,,,,,,,,,,,,,,,,,,,,,,,,,,,,,,604.427174041979,604.427174041979,604.427174041979,604.427174041979,604.427174041979,604.427174041979,l,1,0.5312023174483329,604.9688914821018,605.9856359300902,,,,,,,,,,,,,,,,,,,,,,,,,,,,,,,,,,,,,,,574,2010-12-30_07h00.01.808,eb_02psyexp,2022.2.4,119.96375296233471,
180,0,180,0,,,,,,,,,,,,,,,,,,,,,,,,,,,,,,,,,,,,,,,,,,,,,,,,,,,,,,,,,,,605.9856359300902,605.9856359300902,605.9856359300902,605.9856359300902,605.9856359300902,605.9856359300902,s,1,0.5887642438756302,606.5857154973783,607.6191183665069,,,,,,,,,,,,,,,,,,,,,,,,,,,,,,,,,,,,,,,574,2010-12-30_07h00.01.808,eb_02psyexp,2022.2.4,119.96375296233471,
181,0,181,0,,,,,,,,,,,,,,,,,,,,,,,,,,,,,,,,,,,,,,,,,,,,,,,,,,,,,,,,,,,607.6191183665069,607.6191183665069,607.6191183665069,607.6191183665069,607.6191183665069,607.6191183665069,l,0,0.4113391393329948,608.0441456611734,609.0608931276947,,,,,,,,,,,,,,,,,,,,,,,,,,,,,,,,,,,,,,,574,2010-12-30_07h00.01.808,eb_02psyexp,2022.2.4,119.96375296233471,
182,0,182,0,,,,,,,,,,,,,,,,,,,,,,,,,,,,,,,,,,,,,,,,,,,,,,,,,,,,,,,,,,,609.0608931276947,609.0608931276947,609.0608931276947,609.0608931276947,609.0608931276947,609.0608931276947,l,1,0.47355406219139695,609.5442677589599,610.5610125088133,,,,,,,,,,,,,,,,,,,,,,,,,,,,,,,,,,,,,,,574,2010-12-30_07h00.01.808,eb_02psyexp,2022.2.4,119.96375296233471,
183,0,183,0,,,,,,,,,,,,,,,,,,,,,,,,,,,,,,,,,,,,,,,,,,,,,,,,,,,,,,,,,,,610.5610125088133,610.5610125088133,610.5610125088133,610.5610125088133,610.5610125088133,610.5610125088133,s,1,0.52545753470622,611.1027465506922,612.12782684993,,,,,,,,,,,,,,,,,,,,,,,,,,,,,,,,,,,,,,,574,2010-12-30_07h00.01.808,eb_02psyexp,2022.2.4,119.96375296233471,
184,0,184,0,,,,,,,,,,,,,,,,,,,,,,,,,,,,,,,,,,,,,,,,,,,,,,,,,,,,,,,,,,,612.12782684993,612.12782684993,612.12782684993,612.12782684993,612.12782684993,612.12782684993,s,1,0.582711877534166,612.7195651326329,613.7362757736119,,,,,,,,,,,,,,,,,,,,,,,,,,,,,,,,,,,,,,,574,2010-12-30_07h00.01.808,eb_02psyexp,2022.2.4,119.96375296233471,
185,0,185,0,,,,,,,,,,,,,,,,,,,,,,,,,,,,,,,,,,,,,,,,,,,,,,,,,,,,,,,,,,,613.7362757736119,613.7362757736119,613.7362757736119,613.7362757736119,613.7362757736119,613.7362757736119,s,1,0.6543109718477353,614.4030023069354,615.4364468313288,,,,,,,,,,,,,,,,,,,,,,,,,,,,,,,,,,,,,,,574,2010-12-30_07h00.01.808,eb_02psyexp,2022.2.4,119.96375296233471,
186,0,186,0,,,,,,,,,,,,,,,,,,,,,,,,,,,,,,,,,,,,,,,,,,,,,,,,,,,,,,,,,,,615.4364468313288,615.4364468313288,615.4364468313288,615.4364468313288,615.4364468313288,615.4364468313288,s,1,0.522120900102891,615.9698172517819,616.9865776977967,,,,,,,,,,,,,,,,,,,,,,,,,,,,,,,,,,,,,,,574,2010-12-30_07h00.01.808,eb_02psyexp,2022.2.4,119.96375296233471,
187,0,187,0,,,,,,,,,,,,,,,,,,,,,,,,,,,,,,,,,,,,,,,,,,,,,,,,,,,,,,,,,,,616.9865776977967,616.9865776977967,616.9865776977967,616.9865776977967,616.9865776977967,616.9865776977967,l,1,0.6360180403571576,617.6366283026291,618.6700477735139,,,,,,,,,,,,,,,,,,,,,,,,,,,,,,,,,,,,,,,574,2010-12-30_07h00.01.808,eb_02psyexp,2022.2.4,119.96375296233471,
188,0,188,0,,,,,,,,,,,,,,,,,,,,,,,,,,,,,,,,,,,,,,,,,,,,,,,,,,,,,,,,,,,618.6700477735139,618.6700477735139,618.6700477735139,618.6700477735139,618.6700477735139,618.6700477735139,s,1,0.6715525644831359,619.3534125041915,620.3785238937708,,,,,,,,,,,,,,,,,,,,,,,,,,,,,,,,,,,,,,,574,2010-12-30_07h00.01.808,eb_02psyexp,2022.2.4,119.96375296233471,
189,0,189,0,,,,,,,,,,,,,,,,,,,,,,,,,,,,,,,,,,,,,,,,,,,,,,,,,,,,,,,,,,,620.3785238937708,620.3785238937708,620.3785238937708,620.3785238937708,620.3785238937708,620.3785238937708,s,1,0.5311304774368182,620.9202256378485,621.9452875243733,,,,,,,,,,,,,,,,,,,,,,,,,,,,,,,,,,,,,,,574,2010-12-30_07h00.01.808,eb_02psyexp,2022.2.4,119.96375296233471,
190,0,190,0,,,,,,,,,,,,,,,,,,,,,,,,,,,,,,,,,,,,,,,,,,,,,,,,,,,,,,,,,,,621.9452875243733,621.9452875243733,621.9452875243733,621.9452875243733,621.9452875243733,621.9452875243733,l,1,0.6364044066285715,622.5953737474047,623.6204471040983,,,,,,,,,,,,,,,,,,,,,,,,,,,,,,,,,,,,,,,574,2010-12-30_07h00.01.808,eb_02psyexp,2022.2.4,119.96375296233471,
191,0,191,0,,,,,,,,,,,,,,,,,,,,,,,,,,,,,,,,,,,,,,,,,,,,,,,,,,,,,,,,,,,623.6204471040983,623.6204471040983,623.6204471040983,623.6204471040983,623.6204471040983,623.6204471040983,l,1,0.5292819566093385,624.1621455277782,625.1955574525055,,,,,,,,,,,,,,,,,,,,,,,,,,,,,,,,,,,,,,,574,2010-12-30_07h00.01.808,eb_02psyexp,2022.2.4,119.96375296233471,
192,0,192,0,,,,,,,,,,,,,,,,,,,,,,,,,,,,,,,,,,,,,,,,,,,,,,,,,,,,,,,,,,,625.1955574525055,625.1955574525055,625.1955574525055,625.1955574525055,625.1955574525055,625.1955574525055,s,1,0.6981798378983513,625.9039710900979,626.920709501137,,,,,,,,,,,,,,,,,,,,,,,,,,,,,,,,,,,,,,,574,2010-12-30_07h00.01.808,eb_02psyexp,2022.2.4,119.96375296233471,
193,0,193,0,,,,,,,,,,,,,,,,,,,,,,,,,,,,,,,,,,,,,,,,,,,,,,,,,,,,,,,,,,,626.920709501137,626.920709501137,626.920709501137,626.920709501137,626.920709501137,626.920709501137,l,1,0.6050592394312844,627.537427567644,628.5541702045593,,,,,,,,,,,,,,,,,,,,,,,,,,,,,,,,,,,,,,,574,2010-12-30_07h00.01.808,eb_02psyexp,2022.2.4,119.96375296233471,
194,0,194,0,,,,,,,,,,,,,,,,,,,,,,,,,,,,,,,,,,,,,,,,,,,,,,,,,,,,,,,,,,,628.5541702045593,628.5541702045593,628.5541702045593,628.5541702045593,628.5541702045593,628.5541702045593,s,1,0.8356329420348629,629.4042462251382,630.437658451614,,,,,,,,,,,,,,,,,,,,,,,,,,,,,,,,,,,,,,,574,2010-12-30_07h00.01.808,eb_02psyexp,2022.2.4,119.96375296233471,
195,0,195,0,,,,,,,,,,,,,,,,,,,,,,,,,,,,,,,,,,,,,,,,,,,,,,,,,,,,,,,,,,,630.437658451614,630.437658451614,630.437658451614,630.437658451614,630.437658451614,630.437658451614,s,1,0.6961776760872453,631.1460569967749,632.1711333720013,,,,,,,,,,,,,,,,,,,,,,,,,,,,,,,,,,,,,,,574,2010-12-30_07h00.01.808,eb_02psyexp,2022.2.4,119.96375296233471,
196,0,196,0,,,,,,,,,,,,,,,,,,,,,,,,,,,,,,,,,,,,,,,,,,,,,,,,,,,,,,,,,,,632.1711333720013,632.1711333720013,632.1711333720013,632.1711333720013,632.1711333720013,632.1711333720013,l,1,0.5547247760696337,632.7378568566637,633.771268479526,,,,,,,,,,,,,,,,,,,,,,,,,,,,,,,,,,,,,,,574,2010-12-30_07h00.01.808,eb_02psyexp,2022.2.4,119.96375296233471,
197,0,197,0,,,,,,,,,,,,,,,,,,,,,,,,,,,,,,,,,,,,,,,,,,,,,,,,,,,,,,,,,,,633.771268479526,633.771268479526,633.771268479526,633.771268479526,633.771268479526,633.771268479526,s,1,0.4176610567374155,634.2046433974756,635.2297215838917,,,,,,,,,,,,,,,,,,,,,,,,,,,,,,,,,,,,,,,574,2010-12-30_07h00.01.808,eb_02psyexp,2022.2.4,119.96375296233471,
198,0,198,0,,,,,,,,,,,,,,,,,,,,,,,,,,,,,,,,,,,,,,,,,,,,,,,,,,,,,,,,,,,635.2297215838917,635.2297215838917,635.2297215838917,635.2297215838917,635.2297215838917,635.2297215838917,s,1,0.5191736503038555,635.763119170675,636.7882130531361,,,,,,,,,,,,,,,,,,,,,,,,,,,,,,,,,,,,,,,574,2010-12-30_07h00.01.808,eb_02psyexp,2022.2.4,119.96375296233471,
199,0,199,0,,,,,0,0,0,0,,,,,,,,,,,,,,,,,,,,,,,,,,,,,,,,,,,,,,,,,,,,,,,,,,,636.7882130531361,636.7882130531361,636.7882130531361,636.7882130531361,636.7882130531361,636.7882130531361,l,1,0.4727269969880581,637.2715626310091,638.2716444319813,638.2716444319813,638.2716444319813,space,12.348500597290695,,,,,,,,,,,,,,,,,,,,,,,,,,,,,,,,,,,574,2010-12-30_07h00.01.808,eb_02psyexp,2022.2.4,119.96375296233471,
199,0,199,0,,,,,,,,,,,,,,,,,,,,,,,,,,,,,,,,,,,,,,,,,,,,,,,,,,,,,,,,,,,,,,,,,,,,,,,,,,,,,,,,,,,,,,,,,,,,,,,,,,,,,,,,,,,,574,2010-12-30_07h00.01.808,eb_02psyexp,2022.2.4,119.96375296233471,
200,0,200,0,,,,,,,,,,,,,,,,,,,,,,,,,,,,,,,,,,,,,,,,,,,,,,,,,,,,,,,,,,,650.656026603654,650.656026603654,650.656026603654,650.656026603654,650.656026603654,650.656026603654,s,1,0.6441507475683466,651.314413361717,652.339499999769,,,,,,,,,,,,,,,,,,,,,,,,,,,,,,,,,,,,,,,574,2010-12-30_07h00.01.808,eb_02psyexp,2022.2.4,119.96375296233471,
201,0,201,0,,,,,,,,,,,,,,,,,,,,,,,,,,,,,,,,,,,,,,,,,,,,,,,,,,,,,,,,,,,652.339499999769,652.339499999769,652.339499999769,652.339499999769,652.339499999769,652.339499999769,l,1,0.5207103615393862,652.8728701183572,653.8979486066382,,,,,,,,,,,,,,,,,,,,,,,,,,,,,,,,,,,,,,,574,2010-12-30_07h00.01.808,eb_02psyexp,2022.2.4,119.96375296233471,
202,0,202,0,,,,,,,,,,,,,,,,,,,,,,,,,,,,,,,,,,,,,,,,,,,,,,,,,,,,,,,,,,,653.8979486066382,653.8979486066382,653.8979486066382,653.8979486066382,653.8979486066382,653.8979486066382,l,1,0.5622906114440411,654.4729853038443,655.4980840159114,,,,,,,,,,,,,,,,,,,,,,,,,,,,,,,,,,,,,,,574,2010-12-30_07h00.01.808,eb_02psyexp,2022.2.4,119.96375296233471,
203,0,203,0,,,,,,,,,,,,,,,,,,,,,,,,,,,,,,,,,,,,,,,,,,,,,,,,,,,,,,,,,,,655.4980840159114,655.4980840159114,655.4980840159114,655.4980840159114,655.4980840159114,655.4980840159114,l,1,0.5141804706072435,656.023114962969,657.0482085435651,,,,,,,,,,,,,,,,,,,,,,,,,,,,,,,,,,,,,,,574,2010-12-30_07h00.01.808,eb_02psyexp,2022.2.4,119.96375296233471,
204,0,204,0,,,,,,,,,,,,,,,,,,,,,,,,,,,,,,,,,,,,,,,,,,,,,,,,,,,,,,,,,,,657.0482085435651,657.0482085435651,657.0482085435651,657.0482085435651,657.0482085435651,657.0482085435651,s,1,0.5320731507381424,657.5898870452074,658.6150198661489,,,,,,,,,,,,,,,,,,,,,,,,,,,,,,,,,,,,,,,574,2010-12-30_07h00.01.808,eb_02psyexp,2022.2.4,119.96375296233471,
205,0,205,0,,,,,,,,,,,,,,,,,,,,,,,,,,,,,,,,,,,,,,,,,,,,,,,,,,,,,,,,,,,658.6150198661489,658.6150198661489,658.6150198661489,658.6150198661489,658.6150198661489,658.6150198661489,l,1,0.5813034519087523,659.2067014013883,660.2318203372415,,,,,,,,,,,,,,,,,,,,,,,,,,,,,,,,,,,,,,,574,2010-12-30_07h00.01.808,eb_02psyexp,2022.2.4,119.96375296233471,
206,0,206,0,,,,,,,,,,,,,,,,,,,,,,,,,,,,,,,,,,,,,,,,,,,,,,,,,,,,,,,,,,,660.2318203372415,660.2318203372415,660.2318203372415,660.2318203372415,660.2318203372415,660.2318203372415,l,1,0.532547656679526,660.7735429088352,661.8069436650258,,,,,,,,,,,,,,,,,,,,,,,,,,,,,,,,,,,,,,,574,2010-12-30_07h00.01.808,eb_02psyexp,2022.2.4,119.96375296233471,
207,0,207,0,,,,,,,,,,,,,,,,,,,,,,,,,,,,,,,,,,,,,,,,,,,,,,,,,,,,,,,,,,,661.8069436650258,661.8069436650258,661.8069436650258,661.8069436650258,661.8069436650258,661.8069436650258,s,1,0.4774551537120715,662.2986351310974,663.3153804846806,,,,,,,,,,,,,,,,,,,,,,,,,,,,,,,,,,,,,,,574,2010-12-30_07h00.01.808,eb_02psyexp,2022.2.4,119.96375296233471,
208,0,208,0,,,,,,,,,,,,,,,,,,,,,,,,,,,,,,,,,,,,,,,,,,,,,,,,,,,,,,,,,,,663.3153804846806,663.3153804846806,663.3153804846806,663.3153804846806,663.3153804846806,663.3153804846806,s,1,0.5610231491737068,663.8904579314403,664.9155267605092,,,,,,,,,,,,,,,,,,,,,,,,,,,,,,,,,,,,,,,574,2010-12-30_07h00.01.808,eb_02psyexp,2022.2.4,119.96375296233471,
209,0,209,0,,,,,,,,,,,,,,,,,,,,,,,,,,,,,,,,,,,,,,,,,,,,,,,,,,,,,,,,,,,664.9155267605092,664.9155267605092,664.9155267605092,664.9155267605092,664.9155267605092,664.9155267605092,s,1,0.6159429948311299,665.540612070472,666.5740037712967,,,,,,,,,,,,,,,,,,,,,,,,,,,,,,,,,,,,,,,574,2010-12-30_07h00.01.808,eb_02psyexp,2022.2.4,119.96375296233471,
210,0,210,0,,,,,,,,,,,,,,,,,,,,,,,,,,,,,,,,,,,,,,,,,,,,,,,,,,,,,,,,,,,666.5740037712967,666.5740037712967,666.5740037712967,666.5740037712967,666.5740037712967,666.5740037712967,l,1,0.7734560519456863,667.3573848318774,668.3741307891905,,,,,,,,,,,,,,,,,,,,,,,,,,,,,,,,,,,,,,,574,2010-12-30_07h00.01.808,eb_02psyexp,2022.2.4,119.96375296233471,
211,0,211,0,,,,,,,,,,,,,,,,,,,,,,,,,,,,,,,,,,,,,,,,,,,,,,,,,,,,,,,,,,,668.3741307891905,668.3741307891905,668.3741307891905,668.3741307891905,668.3741307891905,668.3741307891905,l,1,0.5573578014736995,668.9408642348135,669.9742613688577,,,,,,,,,,,,,,,,,,,,,,,,,,,,,,,,,,,,,,,574,2010-12-30_07h00.01.808,eb_02psyexp,2022.2.4,119.96375296233471,
212,0,212,0,,,,,,,,,,,,,,,,,,,,,,,,,,,,,,,,,,,,,,,,,,,,,,,,,,,,,,,,,,,669.9742613688577,669.9742613688577,669.9742613688577,669.9742613688577,669.9742613688577,669.9742613688577,l,1,0.5172659670934081,670.5076465798775,671.5410566934152,,,,,,,,,,,,,,,,,,,,,,,,,,,,,,,,,,,,,,,574,2010-12-30_07h00.01.808,eb_02psyexp,2022.2.4,119.96375296233471,
213,0,213,0,,,,,,,,,,,,,,,,,,,,,,,,,,,,,,,,,,,,,,,,,,,,,,,,,,,,,,,,,,,671.5410566934152,671.5410566934152,671.5410566934152,671.5410566934152,671.5410566934152,671.5410566934152,s,1,0.5184824168682098,672.0744594116695,673.0911809192039,,,,,,,,,,,,,,,,,,,,,,,,,,,,,,,,,,,,,,,574,2010-12-30_07h00.01.808,eb_02psyexp,2022.2.4,119.96375296233471,
214,0,214,0,,,,,,,,,,,,,,,,,,,,,,,,,,,,,,,,,,,,,,,,,,,,,,,,,,,,,,,,,,,673.0911809192039,673.0911809192039,673.0911809192039,673.0911809192039,673.0911809192039,673.0911809192039,s,1,0.5044229123741388,673.6079167645657,674.6246687588282,,,,,,,,,,,,,,,,,,,,,,,,,,,,,,,,,,,,,,,574,2010-12-30_07h00.01.808,eb_02psyexp,2022.2.4,119.96375296233471,
215,0,215,0,,,,,,,,,,,,,,,,,,,,,,,,,,,,,,,,,,,,,,,,,,,,,,,,,,,,,,,,,,,674.6246687588282,674.6246687588282,674.6246687588282,674.6246687588282,674.6246687588282,674.6246687588282,l,1,0.45896300219465047,675.099733497831,676.1164353851927,,,,,,,,,,,,,,,,,,,,,,,,,,,,,,,,,,,,,,,574,2010-12-30_07h00.01.808,eb_02psyexp,2022.2.4,119.96375296233471,
216,0,216,0,,,,,,,,,,,,,,,,,,,,,,,,,,,,,,,,,,,,,,,,,,,,,,,,,,,,,,,,,,,676.1164353851927,676.1164353851927,676.1164353851927,676.1164353851927,676.1164353851927,676.1164353851927,s,1,0.42318850848823786,676.5498226790223,677.5832234352129,,,,,,,,,,,,,,,,,,,,,,,,,,,,,,,,,,,,,,,574,2010-12-30_07h00.01.808,eb_02psyexp,2022.2.4,119.96375296233471,
217,0,217,0,,,,,,,,,,,,,,,,,,,,,,,,,,,,,,,,,,,,,,,,,,,,,,,,,,,,,,,,,,,677.5832234352129,677.5832234352129,677.5832234352129,677.5832234352129,677.5832234352129,677.5832234352129,s,1,0.4844233288895339,678.0832872762112,679.1000154244248,,,,,,,,,,,,,,,,,,,,,,,,,,,,,,,,,,,,,,,574,2010-12-30_07h00.01.808,eb_02psyexp,2022.2.4,119.96375296233471,
218,0,218,0,,,,,,,,,,,,,,,,,,,,,,,,,,,,,,,,,,,,,,,,,,,,,,,,,,,,,,,,,,,679.1000154244248,679.1000154244248,679.1000154244248,679.1000154244248,679.1000154244248,679.1000154244248,s,1,0.47165996220428497,679.5833960926393,680.6168261282146,,,,,,,,,,,,,,,,,,,,,,,,,,,,,,,,,,,,,,,574,2010-12-30_07h00.01.808,eb_02psyexp,2022.2.4,119.96375296233471,
219,0,219,0,,,,,,,,,,,,,,,,,,,,,,,,,,,,,,,,,,,,,,,,,,,,,,,,,,,,,,,,,,,680.6168261282146,680.6168261282146,680.6168261282146,680.6168261282146,680.6168261282146,680.6168261282146,s,1,1.401893088943325,682.0336081262212,683.0587219307199,,,,,,,,,,,,,,,,,,,,,,,,,,,,,,,,,,,,,,,574,2010-12-30_07h00.01.808,eb_02psyexp,2022.2.4,119.96375296233471,
220,0,220,0,,,,,,,,,,,,,,,,,,,,,,,,,,,,,,,,,,,,,,,,,,,,,,,,,,,,,,,,,,,683.0587219307199,683.0587219307199,683.0587219307199,683.0587219307199,683.0587219307199,683.0587219307199,s,1,0.9840359061490744,684.0588091649115,685.0755062226672,,,,,,,,,,,,,,,,,,,,,,,,,,,,,,,,,,,,,,,574,2010-12-30_07h00.01.808,eb_02psyexp,2022.2.4,119.96375296233471,
221,0,221,0,,,,,,,,,,,,,,,,,,,,,,,,,,,,,,,,,,,,,,,,,,,,,,,,,,,,,,,,,,,685.0755062226672,685.0755062226672,685.0755062226672,685.0755062226672,685.0755062226672,685.0755062226672,l,1,0.45527471404056996,685.5422363178805,686.5673009209568,,,,,,,,,,,,,,,,,,,,,,,,,,,,,,,,,,,,,,,574,2010-12-30_07h00.01.808,eb_02psyexp,2022.2.4,119.96375296233471,
222,0,222,0,,,,,,,,,,,,,,,,,,,,,,,,,,,,,,,,,,,,,,,,,,,,,,,,,,,,,,,,,,,686.5673009209568,686.5673009209568,686.5673009209568,686.5673009209568,686.5673009209568,686.5673009209568,l,1,0.5715060496004298,687.1506900711684,688.1674610818736,,,,,,,,,,,,,,,,,,,,,,,,,,,,,,,,,,,,,,,574,2010-12-30_07h00.01.808,eb_02psyexp,2022.2.4,119.96375296233471,
223,0,223,0,,,,,,,,,,,,,,,,,,,,,,,,,,,,,,,,,,,,,,,,,,,,,,,,,,,,,,,,,,,688.1674610818736,688.1674610818736,688.1674610818736,688.1674610818736,688.1674610818736,688.1674610818736,l,1,0.4433713140897453,688.6258091428317,689.6425505724037,,,,,,,,,,,,,,,,,,,,,,,,,,,,,,,,,,,,,,,574,2010-12-30_07h00.01.808,eb_02psyexp,2022.2.4,119.96375296233471,
224,0,224,0,,,,,,,,,,,,,,,,,,,,,,,,,,,,,,,,,,,,,,,,,,,,,,,,,,,,,,,,,,,689.6425505724037,689.6425505724037,689.6425505724037,689.6425505724037,689.6425505724037,689.6425505724037,s,1,0.5602975051151589,690.2176102101803,691.2510375290876,,,,,,,,,,,,,,,,,,,,,,,,,,,,,,,,,,,,,,,574,2010-12-30_07h00.01.808,eb_02psyexp,2022.2.4,119.96375296233471,
225,0,225,0,,,,,,,,,,,,,,,,,,,,,,,,,,,,,,,,,,,,,,,,,,,,,,,,,,,,,,,,,,,691.2510375290876,691.2510375290876,691.2510375290876,691.2510375290876,691.2510375290876,691.2510375290876,s,1,0.5758801378542557,691.8427435141057,692.8594864528859,,,,,,,,,,,,,,,,,,,,,,,,,,,,,,,,,,,,,,,574,2010-12-30_07h00.01.808,eb_02psyexp,2022.2.4,119.96375296233471,
226,0,226,0,,,,,,,,,,,,,,,,,,,,,,,,,,,,,,,,,,,,,,,,,,,,,,,,,,,,,,,,,,,692.8594864528859,692.8594864528859,692.8594864528859,692.8594864528859,692.8594864528859,692.8594864528859,l,1,0.5834423510823399,693.45120028581,694.4763174107065,,,,,,,,,,,,,,,,,,,,,,,,,,,,,,,,,,,,,,,574,2010-12-30_07h00.01.808,eb_02psyexp,2022.2.4,119.96375296233471,
227,0,227,0,,,,,,,,,,,,,,,,,,,,,,,,,,,,,,,,,,,,,,,,,,,,,,,,,,,,,,,,,,,694.4763174107065,694.4763174107065,694.4763174107065,694.4763174107065,694.4763174107065,694.4763174107065,l,0,0.4937054755864665,694.9846700144699,696.018145025475,,,,,,,,,,,,,,,,,,,,,,,,,,,,,,,,,,,,,,,574,2010-12-30_07h00.01.808,eb_02psyexp,2022.2.4,119.96375296233471,
228,0,228,0,,,,,,,,,,,,,,,,,,,,,,,,,,,,,,,,,,,,,,,,,,,,,,,,,,,,,,,,,,,696.018145025475,696.018145025475,696.018145025475,696.018145025475,696.018145025475,696.018145025475,l,1,0.5758867784170434,696.6098051294684,697.6348972008564,,,,,,,,,,,,,,,,,,,,,,,,,,,,,,,,,,,,,,,574,2010-12-30_07h00.01.808,eb_02psyexp,2022.2.4,119.96375296233471,
229,0,229,0,,,,,,,,,,,,,,,,,,,,,,,,,,,,,,,,,,,,,,,,,,,,,,,,,,,,,,,,,,,697.6348972008564,697.6348972008564,697.6348972008564,697.6348972008564,697.6348972008564,697.6348972008564,s,1,0.5591012791264802,698.2099764588056,699.2433648392325,,,,,,,,,,,,,,,,,,,,,,,,,,,,,,,,,,,,,,,574,2010-12-30_07h00.01.808,eb_02psyexp,2022.2.4,119.96375296233471,
230,0,230,0,,,,,,,,,,,,,,,,,,,,,,,,,,,,,,,,,,,,,,,,,,,,,,,,,,,,,,,,,,,699.2433648392325,699.2433648392325,699.2433648392325,699.2433648392325,699.2433648392325,699.2433648392325,l,1,0.5666586627485231,699.8184024420334,700.851846060832,,,,,,,,,,,,,,,,,,,,,,,,,,,,,,,,,,,,,,,574,2010-12-30_07h00.01.808,eb_02psyexp,2022.2.4,119.96375296233471,
231,0,231,0,,,,,,,,,,,,,,,,,,,,,,,,,,,,,,,,,,,,,,,,,,,,,,,,,,,,,,,,,,,700.851846060832,700.851846060832,700.851846060832,700.851846060832,700.851846060832,700.851846060832,s,1,0.5582711953902617,701.4185354365036,702.451965170214,,,,,,,,,,,,,,,,,,,,,,,,,,,,,,,,,,,,,,,574,2010-12-30_07h00.01.808,eb_02psyexp,2022.2.4,119.96375296233471,
232,0,232,0,,,,,,,,,,,,,,,,,,,,,,,,,,,,,,,,,,,,,,,,,,,,,,,,,,,,,,,,,,,702.451965170214,702.451965170214,702.451965170214,702.451965170214,702.451965170214,702.451965170214,l,1,1.2941286070272326,703.7604100793833,704.7854909823509,,,,,,,,,,,,,,,,,,,,,,,,,,,,,,,,,,,,,,,574,2010-12-30_07h00.01.808,eb_02psyexp,2022.2.4,119.96375296233471,
233,0,233,0,,,,,,,,,,,,,,,,,,,,,,,,,,,,,,,,,,,,,,,,,,,,,,,,,,,,,,,,,,,704.7854909823509,704.7854909823509,704.7854909823509,704.7854909823509,704.7854909823509,704.7854909823509,s,1,0.6566324894083664,705.4522643021774,706.4856436272385,,,,,,,,,,,,,,,,,,,,,,,,,,,,,,,,,,,,,,,574,2010-12-30_07h00.01.808,eb_02psyexp,2022.2.4,119.96375296233471,
234,0,234,0,,,,,,,,,,,,,,,,,,,,,,,,,,,,,,,,,,,,,,,,,,,,,,,,,,,,,,,,,,,706.4856436272385,706.4856436272385,706.4856436272385,706.4856436272385,706.4856436272385,706.4856436272385,l,1,0.3965078078908846,706.8939892583294,707.910719821346,,,,,,,,,,,,,,,,,,,,,,,,,,,,,,,,,,,,,,,574,2010-12-30_07h00.01.808,eb_02psyexp,2022.2.4,119.96375296233471,
235,0,235,0,,,,,,,,,,,,,,,,,,,,,,,,,,,,,,,,,,,,,,,,,,,,,,,,,,,,,,,,,,,707.910719821346,707.910719821346,707.910719821346,707.910719821346,707.910719821346,707.910719821346,l,1,0.5954465685645118,708.5191602932755,709.5525347887306,,,,,,,,,,,,,,,,,,,,,,,,,,,,,,,,,,,,,,,574,2010-12-30_07h00.01.808,eb_02psyexp,2022.2.4,119.96375296233471,
236,0,236,0,,,,,,,,,,,,,,,,,,,,,,,,,,,,,,,,,,,,,,,,,,,,,,,,,,,,,,,,,,,709.5525347887306,709.5525347887306,709.5525347887306,709.5525347887306,709.5525347887306,709.5525347887306,s,1,0.5296725486405194,710.0942609824706,711.1193307170179,,,,,,,,,,,,,,,,,,,,,,,,,,,,,,,,,,,,,,,574,2010-12-30_07h00.01.808,eb_02psyexp,2022.2.4,119.96375296233471,
237,0,237,0,,,,,,,,,,,,,,,,,,,,,,,,,,,,,,,,,,,,,,,,,,,,,,,,,,,,,,,,,,,711.1193307170179,711.1193307170179,711.1193307170179,711.1193307170179,711.1193307170179,711.1193307170179,l,1,0.4749169086571783,711.602708064951,712.6278058714233,,,,,,,,,,,,,,,,,,,,,,,,,,,,,,,,,,,,,,,574,2010-12-30_07h00.01.808,eb_02psyexp,2022.2.4,119.96375296233471,
238,0,238,0,,,,,,,,,,,,,,,,,,,,,,,,,,,,,,,,,,,,,,,,,,,,,,,,,,,,,,,,,,,712.6278058714233,712.6278058714233,712.6278058714233,712.6278058714233,712.6278058714233,712.6278058714233,s,1,0.541448870440945,713.1778540314408,714.1945830851328,,,,,,,,,,,,,,,,,,,,,,,,,,,,,,,,,,,,,,,574,2010-12-30_07h00.01.808,eb_02psyexp,2022.2.4,119.96375296233471,
239,0,239,0,,,,,,,,,,,,,,,,,,,,,,,,,,,,,,,,,,,,,,,,,,,,,,,,,,,,,,,,,,,714.1945830851328,714.1945830851328,714.1945830851328,714.1945830851328,714.1945830851328,714.1945830851328,l,1,0.5506984174717218,714.7612878551008,715.7947245313553,,,,,,,,,,,,,,,,,,,,,,,,,,,,,,,,,,,,,,,574,2010-12-30_07h00.01.808,eb_02psyexp,2022.2.4,119.96375296233471,
240,0,240,0,,,,,,,,,,,,,,,,,,,,,,,,,,,,,,,,,,,,,,,,,,,,,,,,,,,,,,,,,,,715.7947245313553,715.7947245313553,715.7947245313553,715.7947245313553,715.7947245313553,715.7947245313553,s,0,0.3585986407706514,716.1697696200572,717.1948309028521,,,,,,,,,,,,,,,,,,,,,,,,,,,,,,,,,,,,,,,574,2010-12-30_07h00.01.808,eb_02psyexp,2022.2.4,119.96375296233471,
241,0,241,0,,,,,,,,,,,,,,,,,,,,,,,,,,,,,,,,,,,,,,,,,,,,,,,,,,,,,,,,,,,717.1948309028521,717.1948309028521,717.1948309028521,717.1948309028521,717.1948309028521,717.1948309028521,l,0,0.6625327243236825,717.8699089835864,718.9033601485426,,,,,,,,,,,,,,,,,,,,,,,,,,,,,,,,,,,,,,,574,2010-12-30_07h00.01.808,eb_02psyexp,2022.2.4,119.96375296233471,
242,0,242,0,,,,,,,,,,,,,,,,,,,,,,,,,,,,,,,,,,,,,,,,,,,,,,,,,,,,,,,,,,,718.9033601485426,718.9033601485426,718.9033601485426,718.9033601485426,718.9033601485426,718.9033601485426,l,1,0.7700134685728699,719.6867128353333,720.7201226471225,,,,,,,,,,,,,,,,,,,,,,,,,,,,,,,,,,,,,,,574,2010-12-30_07h00.01.808,eb_02psyexp,2022.2.4,119.96375296233471,
243,0,243,0,,,,,,,,,,,,,,,,,,,,,,,,,,,,,,,,,,,,,,,,,,,,,,,,,,,,,,,,,,,720.7201226471225,720.7201226471225,720.7201226471225,720.7201226471225,720.7201226471225,720.7201226471225,s,1,0.5532768082339317,721.2868449243251,722.3035905797733,,,,,,,,,,,,,,,,,,,,,,,,,,,,,,,,,,,,,,,574,2010-12-30_07h00.01.808,eb_02psyexp,2022.2.4,119.96375296233471,
244,0,244,0,,,,,,,,,,,,,,,,,,,,,,,,,,,,,,,,,,,,,,,,,,,,,,,,,,,,,,,,,,,722.3035905797733,722.3035905797733,722.3035905797733,722.3035905797733,722.3035905797733,722.3035905797733,l,1,0.513827005866915,722.8286568430485,723.8537350293482,,,,,,,,,,,,,,,,,,,,,,,,,,,,,,,,,,,,,,,574,2010-12-30_07h00.01.808,eb_02psyexp,2022.2.4,119.96375296233471,
245,0,245,0,,,,,,,,,,,,,,,,,,,,,,,,,,,,,,,,,,,,,,,,,,,,,,,,,,,,,,,,,,,723.8537350293482,723.8537350293482,723.8537350293482,723.8537350293482,723.8537350293482,723.8537350293482,s,1,0.6357092491816729,724.5038037452614,725.5288840444991,,,,,,,,,,,,,,,,,,,,,,,,,,,,,,,,,,,,,,,574,2010-12-30_07h00.01.808,eb_02psyexp,2022.2.4,119.96375296233471,
246,0,246,0,,,,,,,,,,,,,,,,,,,,,,,,,,,,,,,,,,,,,,,,,,,,,,,,,,,,,,,,,,,725.5288840444991,725.5288840444991,725.5288840444991,725.5288840444991,725.5288840444991,725.5288840444991,l,1,0.4646021380322054,726.0039216170553,727.0373314288445,,,,,,,,,,,,,,,,,,,,,,,,,,,,,,,,,,,,,,,574,2010-12-30_07h00.01.808,eb_02psyexp,2022.2.4,119.96375296233471,
247,0,247,0,,,,,,,,,,,,,,,,,,,,,,,,,,,,,,,,,,,,,,,,,,,,,,,,,,,,,,,,,,,727.0373314288445,727.0373314288445,727.0373314288445,727.0373314288445,727.0373314288445,727.0373314288445,s,1,0.47514178592246026,727.520683723269,728.5374357175315,,,,,,,,,,,,,,,,,,,,,,,,,,,,,,,,,,,,,,,574,2010-12-30_07h00.01.808,eb_02psyexp,2022.2.4,119.96375296233471,
248,0,248,0,,,,,,,,,,,,,,,,,,,,,,,,,,,,,,,,,,,,,,,,,,,,,,,,,,,,,,,,,,,728.5374357175315,728.5374357175315,728.5374357175315,728.5374357175315,728.5374357175315,728.5374357175315,l,1,1.1191152727697045,729.6708835923346,730.6959466862027,,,,,,,,,,,,,,,,,,,,,,,,,,,,,,,,,,,,,,,574,2010-12-30_07h00.01.808,eb_02psyexp,2022.2.4,119.96375296233471,
249,0,249,0,,,,,,,,,,,,,,,,,,,,,,,,,,,,,,,,,,,,,,,,,,,,,,,,,,,,,,,,,,,730.6959466862027,730.6959466862027,730.6959466862027,730.6959466862027,730.6959466862027,730.6959466862027,s,1,0.6006229703780264,731.3127027855953,732.4044282397954,,,,,,,,,,,,,,,,,,,,,,,,,,,,,,,,,,,,,,,574,2010-12-30_07h00.01.808,eb_02psyexp,2022.2.4,119.96375296233471,
250,0,250,0,,,,,,,,,,,,,,,,,,,,,,,,,,,,,,,,,,,,,,,,,,,,,,,,,,,,,,,,,,,732.4044282397954,732.4044282397954,732.4044282397954,732.4044282397954,732.4044282397954,732.4044282397954,l,1,0.8441915574949235,733.2628352820175,734.2879207127262,,,,,,,,,,,,,,,,,,,,,,,,,,,,,,,,,,,,,,,574,2010-12-30_07h00.01.808,eb_02psyexp,2022.2.4,119.96375296233471,
251,0,251,0,,,,,,,,,,,,,,,,,,,,,,,,,,,,,,,,,,,,,,,,,,,,,,,,,,,,,,,,,,,734.2879207127262,734.2879207127262,734.2879207127262,734.2879207127262,734.2879207127262,734.2879207127262,s,1,0.5367128658108413,734.8379779282259,735.8713928712532,,,,,,,,,,,,,,,,,,,,,,,,,,,,,,,,,,,,,,,574,2010-12-30_07h00.01.808,eb_02psyexp,2022.2.4,119.96375296233471,
252,0,252,0,,,,,,,,,,,,,,,,,,,,,,,,,,,,,,,,,,,,,,,,,,,,,,,,,,,,,,,,,,,735.8713928712532,735.8713928712532,735.8713928712532,735.8713928712532,735.8713928712532,735.8713928712532,l,1,0.5132710007019341,736.396411744412,737.4298372522462,,,,,,,,,,,,,,,,,,,,,,,,,,,,,,,,,,,,,,,574,2010-12-30_07h00.01.808,eb_02psyexp,2022.2.4,119.96375296233471,
253,0,253,0,,,,,,,,,,,,,,,,,,,,,,,,,,,,,,,,,,,,,,,,,,,,,,,,,,,,,,,,,,,737.4298372522462,737.4298372522462,737.4298372522462,737.4298372522462,737.4298372522462,737.4298372522462,s,1,0.6508608422009274,738.096572539187,739.1133112520911,,,,,,,,,,,,,,,,,,,,,,,,,,,,,,,,,,,,,,,574,2010-12-30_07h00.01.808,eb_02psyexp,2022.2.4,119.96375296233471,
254,0,254,0,,,,,,,,,,,,,,,,,,,,,,,,,,,,,,,,,,,,,,,,,,,,,,,,,,,,,,,,,,,739.1133112520911,739.1133112520911,739.1133112520911,739.1133112520911,739.1133112520911,739.1133112520911,l,1,0.6074015846243128,739.7300335443579,740.7550978456857,,,,,,,,,,,,,,,,,,,,,,,,,,,,,,,,,,,,,,,574,2010-12-30_07h00.01.808,eb_02psyexp,2022.2.4,119.96375296233471,
255,0,255,0,,,,,,,,,,,,,,,,,,,,,,,,,,,,,,,,,,,,,,,,,,,,,,,,,,,,,,,,,,,740.7550978456857,740.7550978456857,740.7550978456857,740.7550978456857,740.7550978456857,740.7550978456857,s,1,0.5336856258800253,741.3051644184161,742.3219100738643,,,,,,,,,,,,,,,,,,,,,,,,,,,,,,,,,,,,,,,574,2010-12-30_07h00.01.808,eb_02psyexp,2022.2.4,119.96375296233471,
256,0,256,0,,,,,,,,,,,,,,,,,,,,,,,,,,,,,,,,,,,,,,,,,,,,,,,,,,,,,,,,,,,742.3219100738643,742.3219100738643,742.3219100738643,742.3219100738643,742.3219100738643,742.3219100738643,s,1,0.6139194016577676,742.9469772728626,743.9637096469523,,,,,,,,,,,,,,,,,,,,,,,,,,,,,,,,,,,,,,,574,2010-12-30_07h00.01.808,eb_02psyexp,2022.2.4,119.96375296233471,
257,0,257,0,,,,,,,,,,,,,,,,,,,,,,,,,,,,,,,,,,,,,,,,,,,,,,,,,,,,,,,,,,,743.9637096469523,743.9637096469523,743.9637096469523,743.9637096469523,743.9637096469523,743.9637096469523,l,1,0.5080882600741461,744.4804273813497,745.4971896384377,,,,,,,,,,,,,,,,,,,,,,,,,,,,,,,,,,,,,,,574,2010-12-30_07h00.01.808,eb_02psyexp,2022.2.4,119.96375296233471,
258,0,258,0,,,,,,,,,,,,,,,,,,,,,,,,,,,,,,,,,,,,,,,,,,,,,,,,,,,,,,,,,,,745.4971896384377,745.4971896384377,745.4971896384377,745.4971896384377,745.4971896384377,745.4971896384377,s,1,0.5186354541219771,746.0305458720541,747.0472945459187,,,,,,,,,,,,,,,,,,,,,,,,,,,,,,,,,,,,,,,574,2010-12-30_07h00.01.808,eb_02psyexp,2022.2.4,119.96375296233471,
259,0,259,0,,,,,,,,,,,,,,,,,,,,,,,,,,,,,,,,,,,,,,,,,,,,,,,,,,,,,,,,,,,747.0472945459187,747.0472945459187,747.0472945459187,747.0472945459187,747.0472945459187,747.0472945459187,l,1,0.4245598067063838,747.4806748972042,748.514117610408,,,,,,,,,,,,,,,,,,,,,,,,,,,,,,,,,,,,,,,574,2010-12-30_07h00.01.808,eb_02psyexp,2022.2.4,119.96375296233471,
260,0,260,0,,,,,,,,,,,,,,,,,,,,,,,,,,,,,,,,,,,,,,,,,,,,,,,,,,,,,,,,,,,748.514117610408,748.514117610408,748.514117610408,748.514117610408,748.514117610408,748.514117610408,s,1,0.4617683831602335,748.9891606163001,750.0058724647388,,,,,,,,,,,,,,,,,,,,,,,,,,,,,,,,,,,,,,,574,2010-12-30_07h00.01.808,eb_02psyexp,2022.2.4,119.96375296233471,
261,0,261,0,,,,,,,,,,,,,,,,,,,,,,,,,,,,,,,,,,,,,,,,,,,,,,,,,,,,,,,,,,,750.0058724647388,750.0058724647388,750.0058724647388,750.0058724647388,750.0058724647388,750.0058724647388,l,1,0.41003183310385793,750.4309175683884,751.4643732610857,,,,,,,,,,,,,,,,,,,,,,,,,,,,,,,,,,,,,,,574,2010-12-30_07h00.01.808,eb_02psyexp,2022.2.4,119.96375296233471,
262,0,262,0,,,,,,,,,,,,,,,,,,,,,,,,,,,,,,,,,,,,,,,,,,,,,,,,,,,,,,,,,,,751.4643732610857,751.4643732610857,751.4643732610857,751.4643732610857,751.4643732610857,751.4643732610857,s,1,0.5035662660375237,751.981068356894,753.00616254122,,,,,,,,,,,,,,,,,,,,,,,,,,,,,,,,,,,,,,,574,2010-12-30_07h00.01.808,eb_02psyexp,2022.2.4,119.96375296233471,
263,0,263,0,,,,,,,,,,,,,,,,,,,,,,,,,,,,,,,,,,,,,,,,,,,,,,,,,,,,,,,,,,,753.00616254122,753.00616254122,753.00616254122,753.00616254122,753.00616254122,753.00616254122,l,1,0.34578607277944684,753.3644954796182,754.3812384183984,,,,,,,,,,,,,,,,,,,,,,,,,,,,,,,,,,,,,,,574,2010-12-30_07h00.01.808,eb_02psyexp,2022.2.4,119.96375296233471,
264,0,264,0,,,,,,,,,,,,,,,,,,,,,,,,,,,,,,,,,,,,,,,,,,,,,,,,,,,,,,,,,,,754.3812384183984,754.3812384183984,754.3812384183984,754.3812384183984,754.3812384183984,754.3812384183984,l,1,0.4907422277610749,754.8812636227813,755.9147114673397,,,,,,,,,,,,,,,,,,,,,,,,,,,,,,,,,,,,,,,574,2010-12-30_07h00.01.808,eb_02psyexp,2022.2.4,119.96375296233471,
265,0,265,0,,,,,,,,,,,,,,,,,,,,,,,,,,,,,,,,,,,,,,,,,,,,,,,,,,,,,,,,,,,755.9147114673397,755.9147114673397,755.9147114673397,755.9147114673397,755.9147114673397,755.9147114673397,s,1,0.4373110994929448,756.364728204906,757.3814859342529,,,,,,,,,,,,,,,,,,,,,,,,,,,,,,,,,,,,,,,574,2010-12-30_07h00.01.808,eb_02psyexp,2022.2.4,119.96375296233471,
266,0,266,0,,,,,,,,,,,,,,,,,,,,,,,,,,,,,,,,,,,,,,,,,,,,,,,,,,,,,,,,,,,757.3814859342529,757.3814859342529,757.3814859342529,757.3814859342529,757.3814859342529,757.3814859342529,l,1,0.442559945047833,757.8398647838039,758.8649411590304,,,,,,,,,,,,,,,,,,,,,,,,,,,,,,,,,,,,,,,574,2010-12-30_07h00.01.808,eb_02psyexp,2022.2.4,119.96375296233471,
267,0,267,0,,,,,,,,,,,,,,,,,,,,,,,,,,,,,,,,,,,,,,,,,,,,,,,,,,,,,,,,,,,758.8649411590304,758.8649411590304,758.8649411590304,758.8649411590304,758.8649411590304,758.8649411590304,s,1,0.6221079508541152,759.4983484352706,760.5234308474464,,,,,,,,,,,,,,,,,,,,,,,,,,,,,,,,,,,,,,,574,2010-12-30_07h00.01.808,eb_02psyexp,2022.2.4,119.96375296233471,
268,0,268,0,,,,,,,,,,,,,,,,,,,,,,,,,,,,,,,,,,,,,,,,,,,,,,,,,,,,,,,,,,,760.5234308474464,760.5234308474464,760.5234308474464,760.5234308474464,760.5234308474464,760.5234308474464,l,1,0.38766817131545395,760.9234514939599,761.9485496022971,,,,,,,,,,,,,,,,,,,,,,,,,,,,,,,,,,,,,,,574,2010-12-30_07h00.01.808,eb_02psyexp,2022.2.4,119.96375296233471,
269,0,269,0,,,,,,,,,,,,,,,,,,,,,,,,,,,,,,,,,,,,,,,,,,,,,,,,,,,,,,,,,,,761.9485496022971,761.9485496022971,761.9485496022971,761.9485496022971,761.9485496022971,761.9485496022971,s,1,0.5225652212975547,762.481916098739,763.5153189678676,,,,,,,,,,,,,,,,,,,,,,,,,,,,,,,,,,,,,,,574,2010-12-30_07h00.01.808,eb_02psyexp,2022.2.4,119.96375296233471,
270,0,270,0,,,,,,,,,,,,,,,,,,,,,,,,,,,,,,,,,,,,,,,,,,,,,,,,,,,,,,,,,,,763.5153189678676,763.5153189678676,763.5153189678676,763.5153189678676,763.5153189678676,763.5153189678676,s,1,0.4358266079798341,763.9653713235166,764.9904486043379,,,,,,,,,,,,,,,,,,,,,,,,,,,,,,,,,,,,,,,574,2010-12-30_07h00.01.808,eb_02psyexp,2022.2.4,119.96375296233471,
271,0,271,0,,,,,,,,,,,,,,,,,,,,,,,,,,,,,,,,,,,,,,,,,,,,,,,,,,,,,,,,,,,764.9904486043379,764.9904486043379,764.9904486043379,764.9904486043379,764.9904486043379,764.9904486043379,s,1,0.512727371416986,765.5155036993092,766.5489267923404,,,,,,,,,,,,,,,,,,,,,,,,,,,,,,,,,,,,,,,574,2010-12-30_07h00.01.808,eb_02psyexp,2022.2.4,119.96375296233471,
272,0,272,0,,,,,,,,,,,,,,,,,,,,,,,,,,,,,,,,,,,,,,,,,,,,,,,,,,,,,,,,,,,766.5489267923404,766.5489267923404,766.5489267923404,766.5489267923404,766.5489267923404,766.5489267923404,s,1,0.42630298249423504,766.9906239784323,768.0073512210511,,,,,,,,,,,,,,,,,,,,,,,,,,,,,,,,,,,,,,,574,2010-12-30_07h00.01.808,eb_02psyexp,2022.2.4,119.96375296233471,
273,0,273,0,,,,,,,,,,,,,,,,,,,,,,,,,,,,,,,,,,,,,,,,,,,,,,,,,,,,,,,,,,,768.0073512210511,768.0073512210511,768.0073512210511,768.0073512210511,768.0073512210511,768.0073512210511,s,1,0.4318615247029811,768.4490514255594,769.4825040998403,,,,,,,,,,,,,,,,,,,,,,,,,,,,,,,,,,,,,,,574,2010-12-30_07h00.01.808,eb_02psyexp,2022.2.4,119.96375296233471,
274,0,274,0,,,,,,,,,,,,,,,,,,,,,,,,,,,,,,,,,,,,,,,,,,,,,,,,,,,,,,,,,,,769.4825040998403,769.4825040998403,769.4825040998403,769.4825040998403,769.4825040998403,769.4825040998403,s,1,0.42874735256191343,769.9242184913019,770.9492891313275,,,,,,,,,,,,,,,,,,,,,,,,,,,,,,,,,,,,,,,574,2010-12-30_07h00.01.808,eb_02psyexp,2022.2.4,119.96375296233471,
