trials.thisRepN,trials.thisTrialN,trials.thisN,trials.thisIndex,image_loop.thisRepN,image_loop.thisTrialN,image_loop.thisN,image_loop.thisIndex,break_loop.thisRepN,break_loop.thisTrialN,break_loop.thisN,break_loop.thisIndex,test_trials.thisRepN,test_trials.thisTrialN,test_trials.thisN,test_trials.thisIndex,distance matrix,tools,welcome_text.started,instructions_0_keypress.started,instructions_0_keypress.keys,instructions_0_keypress.rt,consent_image_0.started,consent0_key_resp.started,consent0_text.started,consent0_key_resp.keys,consent0_key_resp.rt,consent_image_1.started,consent1_key_resp.started,consent1_text.started,consent1_key_resp.keys,consent1_key_resp.rt,consent2_text.started,consent_image_2.started,consent2_key_resp.started,consent2_key_resp.keys,consent2_key_resp.rt,agree_button.started,disagree_button.started,consent_image_3.started,agree_button.numClicks,agree_button.timesOn,agree_button.timesOff,disagree_button.numClicks,disagree_button.timesOn,disagree_button.timesOff,instructions_text1.started,instructions1_key_resp.started,instr1_cnt_text.started,instructions1_key_resp.keys,instructions1_key_resp.rt,instructions_text2.started,instr2_cnt_text.started,instructions2_key_resp.started,instructions2_key_resp.keys,instructions2_key_resp.rt,instructions_text3.started,instructions3_key_resp.started,instr3_cnt_text.started,instructions3_key_resp.keys,instructions3_key_resp.rt,text_countdown.started,image.started,small_large_keyresp.started,task_question_text.started,smalleroption_text.started,largeroption_text.started,accuracy_score_text.started,small_large_keyresp.keys,small_large_keyresp.corr,small_large_keyresp.rt,fb_2.started,fb_2.stopped,break_text.started,break_key_resp.started,break_key_resp.keys,break_key_resp.rt,reveal_seq_text.started,start_test_text.started,continue_to_test.started,continue_to_test.keys,continue_to_test.rt,test_structure_info.started,start_test_text_2.started,continue_to_test_2.started,continue_to_test_2.keys,continue_to_test_2.rt,test_cntdown_text.started,test_cntdown_text.stopped,parent index,left child index,right child index,left distance,right distance,parent_image.started,top_image_text.started,left_child_image.started,right_child_image.started,path_resp.started,child_choice_text.started,left_choice_text.started,right_choice_text.started,path_resp.keys,path_resp.rt,graph.started,debrief_text.started,debriefing_title.started,demo_scr_adv.started,demo_scr_adv_keypress.started,demo_scr_adv_keypress.keys,demo_scr_adv_keypress.rt,text_countdown_2.started,participant,date,expName,psychopyVersion,frameRate,
,,,,,,,,,,,,,,,,"[[0. 1. 1. 2. 2. 3. 4. 5. 5. 6. 6. 7.]
 [1. 0. 2. 1. 1. 2. 3. 4. 4. 5. 5. 6.]
 [1. 2. 0. 1. 1. 2. 3. 4. 4. 5. 5. 6.]
 [2. 1. 1. 0. 1. 1. 2. 3. 3. 4. 4. 5.]
 [2. 1. 1. 1. 0. 1. 2. 3. 3. 4. 4. 5.]
 [3. 2. 2. 1. 1. 0. 1. 2. 2. 3. 3. 4.]
 [4. 3. 3. 2. 2. 1. 0. 1. 1. 2. 2. 3.]
 [5. 4. 4. 3. 3. 2. 1. 0. 1. 1. 1. 2.]
 [5. 4. 4. 3. 3. 2. 1. 1. 0. 1. 1. 2.]
 [6. 5. 5. 4. 4. 3. 2. 1. 1. 0. 2. 1.]
 [6. 5. 5. 4. 4. 3. 2. 1. 1. 2. 0. 1.]
 [7. 6. 6. 5. 5. 4. 3. 2. 2. 1. 1. 0.]]",[ 2  4  0  8 10  7 11  3  5  1  6  9],143.2177069556201,143.2177069556201,return,11.224984903121367,,,,,,,,,,,,,,,,,,,,,,,,,,,,,,,,,,,,,,,,,,,,,,,,,,,,,,,,,,,,,,,,,,,,,,,,,,,,,,,,,,,,,,,,,,,575,2023-05-17_08h57.56.232,eb_02psyexp,2022.2.4,60.00094177748286,
,,,,,,,,,,,,,,,,,,,,,,154.46677410346456,154.46677410346456,154.46677410346456,space,6.655913396622054,,,,,,,,,,,,,,,,,,,,,,,,,,,,,,,,,,,,,,,,,,,,,,,,,,,,,,,,,,,,,,,,,,,,,,,,,,,,,,,,,,,,,,575,2023-05-17_08h57.56.232,eb_02psyexp,2022.2.4,60.00094177748286,
,,,,,,,,,,,,,,,,,,,,,,,,,,,161.14955849130638,161.14955849130638,161.14955849130638,space,0.7811452890746295,,,,,,,,,,,,,,,,,,,,,,,,,,,,,,,,,,,,,,,,,,,,,,,,,,,,,,,,,,,,,,,,,,,,,,,,,,,,,,,,,575,2023-05-17_08h57.56.232,eb_02psyexp,2022.2.4,60.00094177748286,
,,,,,,,,,,,,,,,,,,,,,,,,,,,,,,,,161.94949226651806,161.94949226651806,161.94949226651806,space,0.4532054237788543,,,,,,,,,,,,,,,,,,,,,,,,,,,,,,,,,,,,,,,,,,,,,,,,,,,,,,,,,,,,,,,,,,,,,,,,,,,,575,2023-05-17_08h57.56.232,eb_02psyexp,2022.2.4,60.00094177748286,
,,,,,,,,,,,,,,,,,,,,,,,,,,,,,,,,,,,,,162.43275254324544,162.43275254324544,162.43275254324544,1,[4.232316859997809],[4.232321689487435],0,,,166.66547266824637,168.64896295091603,168.64896295091603,space,3.2328229136765003,,,,,,,,,,,,,,,,,,,,,,,,,,,,,,,,,,,,,,,,,,,,,,,,,,,,,,,,,,,,,,575,2023-05-17_08h57.56.232,eb_02psyexp,2022.2.4,60.00094177748286,
,,,,,,,,,,,,,,,,,,,,,,,,,,,,,,,,,,,,,,,,,,,,,,,,,,,171.89871558896266,174.88183550781105,174.88183550781105,space,11.662969628465362,,,,,,,,,,,,,,,,,,,,,,,,,,,,,,,,,,,,,,,,,,,,,,,,,,,,,,,,,575,2023-05-17_08h57.56.232,eb_02psyexp,2022.2.4,60.00094177748286,
,,,,,,,,,,,,,,,,,,,,,,,,,,,,,,,,,,,,,,,,,,,,,,,,,,,,,,,,186.56419157749042,189.5472991206916,189.5472991206916,space,15.116639128769748,,,,,,,,,,,,,,,,,,,,,,,,,,,,,,,,,,,,,,,,,,,,,,,,,,,,575,2023-05-17_08h57.56.232,eb_02psyexp,2022.2.4,60.00094177748286,
0,0,0,0,,,,,,,,,,,,,,,,,,,,,,,,,,,,,,,,,,,,,,,,,,,,,,,,,,,,,,,,,,204.71275065967347,209.74569191643968,209.74569191643968,209.74569191643968,209.74569191643968,209.74569191643968,209.74569191643968,l,1,0.9492959267226979,210.71227283903863,211.74552288325503,,,,,,,,,,,,,,,,,,,,,,,,,,,,,,,,,,,,,,,,575,2023-05-17_08h57.56.232,eb_02psyexp,2022.2.4,60.00094177748286,
1,0,1,0,,,,,,,,,,,,,,,,,,,,,,,,,,,,,,,,,,,,,,,,,,,,,,,,,,,,,,,,,,,211.74552288325503,211.74552288325503,211.74552288325503,211.74552288325503,211.74552288325503,211.74552288325503,s,1,0.7814486433053389,212.545455451007,213.56206870113965,,,,,,,,,,,,,,,,,,,,,,,,,,,,,,,,,,,,,,,,575,2023-05-17_08h57.56.232,eb_02psyexp,2022.2.4,60.00094177748286,
2,0,2,0,,,,,,,,,,,,,,,,,,,,,,,,,,,,,,,,,,,,,,,,,,,,,,,,,,,,,,,,,,,213.56206870113965,213.56206870113965,213.56206870113965,213.56206870113965,213.56206870113965,213.56206870113965,s,1,0.7648794625420123,214.34533066826407,215.3615964947967,,,,,,,,,,,,,,,,,,,,,,,,,,,,,,,,,,,,,,,,575,2023-05-17_08h57.56.232,eb_02psyexp,2022.2.4,60.00094177748286,
3,0,3,0,,,,,,,,,,,,,,,,,,,,,,,,,,,,,,,,,,,,,,,,,,,,,,,,,,,,,,,,,,,215.3615964947967,215.3615964947967,215.3615964947967,215.3615964947967,215.3615964947967,215.3615964947967,s,1,0.6453895686427131,216.02856963477097,217.04509444430005,,,,,,,,,,,,,,,,,,,,,,,,,,,,,,,,,,,,,,,,575,2023-05-17_08h57.56.232,eb_02psyexp,2022.2.4,60.00094177748286,
4,0,4,0,,,,,,,,,,,,,,,,,,,,,,,,,,,,,,,,,,,,,,,,,,,,,,,,,,,,,,,,,,,217.04509444430005,217.04509444430005,217.04509444430005,217.04509444430005,217.04509444430005,217.04509444430005,l,1,0.6019066750304773,217.67840431421064,218.6949961334467,,,,,,,,,,,,,,,,,,,,,,,,,,,,,,,,,,,,,,,,575,2023-05-17_08h57.56.232,eb_02psyexp,2022.2.4,60.00094177748286,
5,0,5,0,,,,,,,,,,,,,,,,,,,,,,,,,,,,,,,,,,,,,,,,,,,,,,,,,,,,,,,,,,,218.6949961334467,218.6949961334467,218.6949961334467,218.6949961334467,218.6949961334467,218.6949961334467,l,1,0.5040300947148353,219.22832888318226,220.26151916210074,,,,,,,,,,,,,,,,,,,,,,,,,,,,,,,,,,,,,,,,575,2023-05-17_08h57.56.232,eb_02psyexp,2022.2.4,60.00094177748286,
6,0,6,0,,,,,,,,,,,,,,,,,,,,,,,,,,,,,,,,,,,,,,,,,,,,,,,,,,,,,,,,,,,220.26151916210074,220.26151916210074,220.26151916210074,220.26151916210074,220.26151916210074,220.26151916210074,s,1,0.5295024972874671,220.81147934868932,221.82808776933234,,,,,,,,,,,,,,,,,,,,,,,,,,,,,,,,,,,,,,,,575,2023-05-17_08h57.56.232,eb_02psyexp,2022.2.4,60.00094177748286,
7,0,7,0,,,,,,,,,,,,,,,,,,,,,,,,,,,,,,,,,,,,,,,,,,,,,,,,,,,,,,,,,,,221.82808776933234,221.82808776933234,221.82808776933234,221.82808776933234,221.82808776933234,221.82808776933234,l,1,0.7069433220895007,222.56133219925687,223.57793216826394,,,,,,,,,,,,,,,,,,,,,,,,,,,,,,,,,,,,,,,,575,2023-05-17_08h57.56.232,eb_02psyexp,2022.2.4,60.00094177748286,
8,0,8,0,,,,,,,,,,,,,,,,,,,,,,,,,,,,,,,,,,,,,,,,,,,,,,,,,,,,,,,,,,,223.57793216826394,223.57793216826394,223.57793216826394,223.57793216826394,223.57793216826394,223.57793216826394,l,1,0.6530733363470063,224.26120041368995,225.277797967894,,,,,,,,,,,,,,,,,,,,,,,,,,,,,,,,,,,,,,,,575,2023-05-17_08h57.56.232,eb_02psyexp,2022.2.4,60.00094177748286,
9,0,9,0,,,,,,,,,,,,,,,,,,,,,,,,,,,,,,,,,,,,,,,,,,,,,,,,,,,,,,,,,,,225.277797967894,225.277797967894,225.277797967894,225.277797967894,225.277797967894,225.277797967894,l,1,0.6962441221112385,225.99439534102567,227.010673844954,,,,,,,,,,,,,,,,,,,,,,,,,,,,,,,,,,,,,,,,575,2023-05-17_08h57.56.232,eb_02psyexp,2022.2.4,60.00094177748286,
10,0,10,0,,,,,,,,,,,,,,,,,,,,,,,,,,,,,,,,,,,,,,,,,,,,,,,,,,,,,,,,,,,227.010673844954,227.010673844954,227.010673844954,227.010673844954,227.010673844954,227.010673844954,s,1,0.8913818208966404,227.92757197655737,228.94417315290775,,,,,,,,,,,,,,,,,,,,,,,,,,,,,,,,,,,,,,,,575,2023-05-17_08h57.56.232,eb_02psyexp,2022.2.4,60.00094177748286,
11,0,11,0,,,,,,,,,,,,,,,,,,,,,,,,,,,,,,,,,,,,,,,,,,,,,,,,,,,,,,,,,,,228.94417315290775,228.94417315290775,228.94417315290775,228.94417315290775,228.94417315290775,228.94417315290775,l,1,0.7179054290754721,229.6941068978049,230.71070747054182,,,,,,,,,,,,,,,,,,,,,,,,,,,,,,,,,,,,,,,,575,2023-05-17_08h57.56.232,eb_02psyexp,2022.2.4,60.00094177748286,
12,0,12,0,,,,,,,,,,,,,,,,,,,,,,,,,,,,,,,,,,,,,,,,,,,,,,,,,,,,,,,,,,,230.71070747054182,230.71070747054182,230.71070747054182,230.71070747054182,230.71070747054182,230.71070747054182,l,0,0.4633640191750601,231.193990083877,232.21060423948802,,,,,,,,,,,,,,,,,,,,,,,,,,,,,,,,,,,,,,,,575,2023-05-17_08h57.56.232,eb_02psyexp,2022.2.4,60.00094177748286,
13,0,13,0,,,,,,,,,,,,,,,,,,,,,,,,,,,,,,,,,,,,,,,,,,,,,,,,,,,,,,,,,,,232.21060423948802,232.21060423948802,232.21060423948802,232.21060423948802,232.21060423948802,232.21060423948802,l,1,0.763479505199939,232.99384507746436,234.02711504348554,,,,,,,,,,,,,,,,,,,,,,,,,,,,,,,,,,,,,,,,575,2023-05-17_08h57.56.232,eb_02psyexp,2022.2.4,60.00094177748286,
14,0,14,0,,,,,,,,,,,,,,,,,,,,,,,,,,,,,,,,,,,,,,,,,,,,,,,,,,,,,,,,,,,234.02711504348554,234.02711504348554,234.02711504348554,234.02711504348554,234.02711504348554,234.02711504348554,l,1,0.7469604306388646,234.79370369319804,235.8102958141826,,,,,,,,,,,,,,,,,,,,,,,,,,,,,,,,,,,,,,,,575,2023-05-17_08h57.56.232,eb_02psyexp,2022.2.4,60.00094177748286,
15,0,15,0,,,,,,,,,,,,,,,,,,,,,,,,,,,,,,,,,,,,,,,,,,,,,,,,,,,,,,,,,,,235.8102958141826,235.8102958141826,235.8102958141826,235.8102958141826,235.8102958141826,235.8102958141826,l,1,0.6278261102270335,236.46024278004188,237.49349705013447,,,,,,,,,,,,,,,,,,,,,,,,,,,,,,,,,,,,,,,,575,2023-05-17_08h57.56.232,eb_02psyexp,2022.2.4,60.00094177748286,
16,0,16,0,,,,,,,,,,,,,,,,,,,,,,,,,,,,,,,,,,,,,,,,,,,,,,,,,,,,,,,,,,,237.49349705013447,237.49349705013447,237.49349705013447,237.49349705013447,237.49349705013447,237.49349705013447,s,1,0.4966089320369065,238.01011875190306,239.0267350205686,,,,,,,,,,,,,,,,,,,,,,,,,,,,,,,,,,,,,,,,575,2023-05-17_08h57.56.232,eb_02psyexp,2022.2.4,60.00094177748286,
17,0,17,0,,,,,,,,,,,,,,,,,,,,,,,,,,,,,,,,,,,,,,,,,,,,,,,,,,,,,,,,,,,239.0267350205686,239.0267350205686,239.0267350205686,239.0267350205686,239.0267350205686,239.0267350205686,s,1,0.5393942616647109,239.59332354960497,240.62656061444432,,,,,,,,,,,,,,,,,,,,,,,,,,,,,,,,,,,,,,,,575,2023-05-17_08h57.56.232,eb_02psyexp,2022.2.4,60.00094177748286,
18,0,18,0,,,,,,,,,,,,,,,,,,,,,,,,,,,,,,,,,,,,,,,,,,,,,,,,,,,,,,,,,,,240.62656061444432,240.62656061444432,240.62656061444432,240.62656061444432,240.62656061444432,240.62656061444432,l,1,0.7465810114517808,241.39318458014168,242.4097785121994,,,,,,,,,,,,,,,,,,,,,,,,,,,,,,,,,,,,,,,,575,2023-05-17_08h57.56.232,eb_02psyexp,2022.2.4,60.00094177748286,
19,0,19,0,,,,,,,,,,,,,,,,,,,,,,,,,,,,,,,,,,,,,,,,,,,,,,,,,,,,,,,,,,,242.4097785121994,242.4097785121994,242.4097785121994,242.4097785121994,242.4097785121994,242.4097785121994,l,1,0.6833514141617343,243.10971162328497,244.1429631767096,,,,,,,,,,,,,,,,,,,,,,,,,,,,,,,,,,,,,,,,575,2023-05-17_08h57.56.232,eb_02psyexp,2022.2.4,60.00094177748286,
20,0,20,0,,,,,,,,,,,,,,,,,,,,,,,,,,,,,,,,,,,,,,,,,,,,,,,,,,,,,,,,,,,244.1429631767096,244.1429631767096,244.1429631767096,244.1429631767096,244.1429631767096,244.1429631767096,l,1,0.7821881637210026,244.94289997045416,245.95949269505218,,,,,,,,,,,,,,,,,,,,,,,,,,,,,,,,,,,,,,,,575,2023-05-17_08h57.56.232,eb_02psyexp,2022.2.4,60.00094177748286,
21,0,21,0,,,,,,,,,,,,,,,,,,,,,,,,,,,,,,,,,,,,,,,,,,,,,,,,,,,,,,,,,,,245.95949269505218,245.95949269505218,245.95949269505218,245.95949269505218,245.95949269505218,245.95949269505218,l,1,0.5337247060379013,246.52612076583318,247.55936145281885,,,,,,,,,,,,,,,,,,,,,,,,,,,,,,,,,,,,,,,,575,2023-05-17_08h57.56.232,eb_02psyexp,2022.2.4,60.00094177748286,
22,0,22,0,,,,,,,,,,,,,,,,,,,,,,,,,,,,,,,,,,,,,,,,,,,,,,,,,,,,,,,,,,,247.55936145281885,247.55936145281885,247.55936145281885,247.55936145281885,247.55936145281885,247.55936145281885,s,1,0.6698387165088207,248.2592631720472,249.2759072104236,,,,,,,,,,,,,,,,,,,,,,,,,,,,,,,,,,,,,,,,575,2023-05-17_08h57.56.232,eb_02psyexp,2022.2.4,60.00094177748286,
23,0,23,0,,,,,,,,,,,,,,,,,,,,,,,,,,,,,,,,,,,,,,,,,,,,,,,,,,,,,,,,,,,249.2759072104236,249.2759072104236,249.2759072104236,249.2759072104236,249.2759072104236,249.2759072104236,l,1,0.5052516616415232,249.8091841188725,250.8257943505887,,,,,,,,,,,,,,,,,,,,,,,,,,,,,,,,,,,,,,,,575,2023-05-17_08h57.56.232,eb_02psyexp,2022.2.4,60.00094177748286,
24,0,24,0,,,,,,,,,,,,,,,,,,,,,,,,,,,,,,,,,,,,,,,,,,,,,,,,,,,,,,,,,,,250.8257943505887,250.8257943505887,250.8257943505887,250.8257943505887,250.8257943505887,250.8257943505887,l,0,0.5154027109965682,251.35906039259862,252.375661568949,,,,,,,,,,,,,,,,,,,,,,,,,,,,,,,,,,,,,,,,575,2023-05-17_08h57.56.232,eb_02psyexp,2022.2.4,60.00094177748286,
25,0,25,0,,,,,,,,,,,,,,,,,,,,,,,,,,,,,,,,,,,,,,,,,,,,,,,,,,,,,,,,,,,252.375661568949,252.375661568949,252.375661568949,252.375661568949,252.375661568949,252.375661568949,s,1,0.6775333507684991,253.07560947048478,254.09187408955768,,,,,,,,,,,,,,,,,,,,,,,,,,,,,,,,,,,,,,,,575,2023-05-17_08h57.56.232,eb_02psyexp,2022.2.4,60.00094177748286,
26,0,26,0,,,,,,,,,,,,,,,,,,,,,,,,,,,,,,,,,,,,,,,,,,,,,,,,,,,,,,,,,,,254.09187408955768,254.09187408955768,254.09187408955768,254.09187408955768,254.09187408955768,254.09187408955768,s,1,0.5533322591800243,254.6754676636774,255.69208393222652,,,,,,,,,,,,,,,,,,,,,,,,,,,,,,,,,,,,,,,,575,2023-05-17_08h57.56.232,eb_02psyexp,2022.2.4,60.00094177748286,
27,0,27,0,,,,,,,,,,,,,,,,,,,,,,,,,,,,,,,,,,,,,,,,,,,,,,,,,,,,,,,,,,,255.69208393222652,255.69208393222652,255.69208393222652,255.69208393222652,255.69208393222652,255.69208393222652,s,1,0.5931232857983559,256.3086755099939,257.3253192465054,,,,,,,,,,,,,,,,,,,,,,,,,,,,,,,,,,,,,,,,575,2023-05-17_08h57.56.232,eb_02psyexp,2022.2.4,60.00094177748286,
28,0,28,0,,,,,,,,,,,,,,,,,,,,,,,,,,,,,,,,,,,,,,,,,,,,,,,,,,,,,,,,,,,257.3253192465054,257.3253192465054,257.3253192465054,257.3253192465054,257.3253192465054,257.3253192465054,s,1,0.6868763607926667,258.04187194653787,259.0584695007419,,,,,,,,,,,,,,,,,,,,,,,,,,,,,,,,,,,,,,,,575,2023-05-17_08h57.56.232,eb_02psyexp,2022.2.4,60.00094177748286,
29,0,29,0,,,,,,,,,,,,,,,,,,,,,,,,,,,,,,,,,,,,,,,,,,,,,,,,,,,,,,,,,,,259.0584695007419,259.0584695007419,259.0584695007419,259.0584695007419,259.0584695007419,259.0584695007419,l,1,0.48977093410212547,259.57508244900964,260.6083364172373,,,,,,,,,,,,,,,,,,,,,,,,,,,,,,,,,,,,,,,,575,2023-05-17_08h57.56.232,eb_02psyexp,2022.2.4,60.00094177748286,
30,0,30,0,,,,,,,,,,,,,,,,,,,,,,,,,,,,,,,,,,,,,,,,,,,,,,,,,,,,,,,,,,,260.6083364172373,260.6083364172373,260.6083364172373,260.6083364172373,260.6083364172373,260.6083364172373,l,1,0.6119110276922584,261.24162123398855,262.25823508785106,,,,,,,,,,,,,,,,,,,,,,,,,,,,,,,,,,,,,,,,575,2023-05-17_08h57.56.232,eb_02psyexp,2022.2.4,60.00094177748286,
31,0,31,0,,,,,,,,,,,,,,,,,,,,,,,,,,,,,,,,,,,,,,,,,,,,,,,,,,,,,,,,,,,262.25823508785106,262.25823508785106,262.25823508785106,262.25823508785106,262.25823508785106,262.25823508785106,s,1,0.569989578681998,262.85815908329096,263.8914106367156,,,,,,,,,,,,,,,,,,,,,,,,,,,,,,,,,,,,,,,,575,2023-05-17_08h57.56.232,eb_02psyexp,2022.2.4,60.00094177748286,
32,0,32,0,,,,,,,,,,,,,,,,,,,,,,,,,,,,,,,,,,,,,,,,,,,,,,,,,,,,,,,,,,,263.8914106367156,263.8914106367156,263.8914106367156,263.8914106367156,263.8914106367156,263.8914106367156,l,1,0.5768453854834661,264.49136994802393,265.5079608615488,,,,,,,,,,,,,,,,,,,,,,,,,,,,,,,,,,,,,,,,575,2023-05-17_08h57.56.232,eb_02psyexp,2022.2.4,60.00094177748286,
33,0,33,0,,,,,,,,,,,,,,,,,,,,,,,,,,,,,,,,,,,,,,,,,,,,,,,,,,,,,,,,,,,265.5079608615488,265.5079608615488,265.5079608615488,265.5079608615488,265.5079608615488,265.5079608615488,s,1,0.5843199745286256,266.12457024818286,267.1578193868045,,,,,,,,,,,,,,,,,,,,,,,,,,,,,,,,,,,,,,,,575,2023-05-17_08h57.56.232,eb_02psyexp,2022.2.4,60.00094177748286,
34,0,34,0,,,,,,,,,,,,,,,,,,,,,,,,,,,,,,,,,,,,,,,,,,,,,,,,,,,,,,,,,,,267.1578193868045,267.1578193868045,267.1578193868045,267.1578193868045,267.1578193868045,267.1578193868045,l,1,0.6944692732067779,267.8744273245102,268.89103302848525,,,,,,,,,,,,,,,,,,,,,,,,,,,,,,,,,,,,,,,,575,2023-05-17_08h57.56.232,eb_02psyexp,2022.2.4,60.00094177748286,
35,0,35,0,,,,,,,,,,,,,,,,,,,,,,,,,,,,,,,,,,,,,,,,,,,,,,,,,,,,,,,,,,,268.89103302848525,268.89103302848525,268.89103302848525,268.89103302848525,268.89103302848525,268.89103302848525,l,1,0.6652633491903543,269.5743058016524,270.5908915839391,,,,,,,,,,,,,,,,,,,,,,,,,,,,,,,,,,,,,,,,575,2023-05-17_08h57.56.232,eb_02psyexp,2022.2.4,60.00094177748286,
36,0,36,0,,,,,,,,,,,,,,,,,,,,,,,,,,,,,,,,,,,,,,,,,,,,,,,,,,,,,,,,,,,270.5908915839391,270.5908915839391,270.5908915839391,270.5908915839391,270.5908915839391,270.5908915839391,s,1,0.5974097874714062,271.20750549819786,272.22409792104736,,,,,,,,,,,,,,,,,,,,,,,,,,,,,,,,,,,,,,,,575,2023-05-17_08h57.56.232,eb_02psyexp,2022.2.4,60.00094177748286,
37,0,37,0,,,,,,,,,,,,,,,,,,,,,,,,,,,,,,,,,,,,,,,,,,,,,,,,,,,,,,,,,,,272.22409792104736,272.22409792104736,272.22409792104736,272.22409792104736,272.22409792104736,272.22409792104736,s,1,0.4192128407303244,272.67405985831283,273.70731925975997,,,,,,,,,,,,,,,,,,,,,,,,,,,,,,,,,,,,,,,,575,2023-05-17_08h57.56.232,eb_02psyexp,2022.2.4,60.00094177748286,
38,0,38,0,,,,,,,,,,,,,,,,,,,,,,,,,,,,,,,,,,,,,,,,,,,,,,,,,,,,,,,,,,,273.70731925975997,273.70731925975997,273.70731925975997,273.70731925975997,273.70731925975997,273.70731925975997,l,1,0.5199687210842967,274.2572676744312,275.27385828620754,,,,,,,,,,,,,,,,,,,,,,,,,,,,,,,,,,,,,,,,575,2023-05-17_08h57.56.232,eb_02psyexp,2022.2.4,60.00094177748286,
39,0,39,0,,,,,,,,,,,,,,,,,,,,,,,,,,,,,,,,,,,,,,,,,,,,,,,,,,,,,,,,,,,275.27385828620754,275.27385828620754,275.27385828620754,275.27385828620754,275.27385828620754,275.27385828620754,l,1,0.5214670799905434,275.8238226986723,276.84041240485385,,,,,,,,,,,,,,,,,,,,,,,,,,,,,,,,,,,,,,,,575,2023-05-17_08h57.56.232,eb_02psyexp,2022.2.4,60.00094177748286,
40,0,40,0,,,,,,,,,,,,,,,,,,,,,,,,,,,,,,,,,,,,,,,,,,,,,,,,,,,,,,,,,,,276.84041240485385,276.84041240485385,276.84041240485385,276.84041240485385,276.84041240485385,276.84041240485385,s,1,0.40287457150407135,277.2736958935857,278.2903212175006,,,,,,,,,,,,,,,,,,,,,,,,,,,,,,,,,,,,,,,,575,2023-05-17_08h57.56.232,eb_02psyexp,2022.2.4,60.00094177748286,
41,0,41,0,,,,,,,,,,,,,,,,,,,,,,,,,,,,,,,,,,,,,,,,,,,,,,,,,,,,,,,,,,,278.2903212175006,278.2903212175006,278.2903212175006,278.2903212175006,278.2903212175006,278.2903212175006,l,1,0.4730094780679792,278.7903100491967,279.80685900640674,,,,,,,,,,,,,,,,,,,,,,,,,,,,,,,,,,,,,,,,575,2023-05-17_08h57.56.232,eb_02psyexp,2022.2.4,60.00094177748286,
42,0,42,0,,,,,,,,,,,,,,,,,,,,,,,,,,,,,,,,,,,,,,,,,,,,,,,,,,,,,,,,,,,279.80685900640674,279.80685900640674,279.80685900640674,279.80685900640674,279.80685900640674,279.80685900640674,l,1,0.5484960975591093,280.3734508557245,281.39005716342945,,,,,,,,,,,,,,,,,,,,,,,,,,,,,,,,,,,,,,,,575,2023-05-17_08h57.56.232,eb_02psyexp,2022.2.4,60.00094177748286,
43,0,43,0,,,,,,,,,,,,,,,,,,,,,,,,,,,,,,,,,,,,,,,,,,,,,,,,,,,,,,,,,,,281.39005716342945,281.39005716342945,281.39005716342945,281.39005716342945,281.39005716342945,281.39005716342945,l,1,0.41330180899240077,281.82335514063016,282.83994514879305,,,,,,,,,,,,,,,,,,,,,,,,,,,,,,,,,,,,,,,,575,2023-05-17_08h57.56.232,eb_02psyexp,2022.2.4,60.00094177748286,
44,0,44,0,,,,,,,,,,,,,,,,,,,,,,,,,,,,,,,,,,,,,,,,,,,,,,,,,,,,,,,,,,,282.83994514879305,282.83994514879305,282.83994514879305,282.83994514879305,282.83994514879305,282.83994514879305,l,1,0.5474302826914936,283.40654726081993,284.42314421129413,,,,,,,,,,,,,,,,,,,,,,,,,,,,,,,,,,,,,,,,575,2023-05-17_08h57.56.232,eb_02psyexp,2022.2.4,60.00094177748286,
45,0,45,0,,,,,,,,,,,,,,,,,,,,,,,,,,,,,,,,,,,,,,,,,,,,,,,,,,,,,,,,,,,284.42314421129413,284.42314421129413,284.42314421129413,284.42314421129413,284.42314421129413,284.42314421129413,l,1,0.4362338836072013,284.88978218263946,285.90637702017557,,,,,,,,,,,,,,,,,,,,,,,,,,,,,,,,,,,,,,,,575,2023-05-17_08h57.56.232,eb_02psyexp,2022.2.4,60.00094177748286,
46,0,46,0,,,,,,,,,,,,,,,,,,,,,,,,,,,,,,,,,,,,,,,,,,,,,,,,,,,,,,,,,,,285.90637702017557,285.90637702017557,285.90637702017557,285.90637702017557,285.90637702017557,285.90637702017557,l,1,0.4410090724704787,286.37297394056804,287.40624209551606,,,,,,,,,,,,,,,,,,,,,,,,,,,,,,,,,,,,,,,,575,2023-05-17_08h57.56.232,eb_02psyexp,2022.2.4,60.00094177748286,
47,0,47,0,,,,,,,,,,,,,,,,,,,,,,,,,,,,,,,,,,,,,,,,,,,,,,,,,,,,,,,,,,,287.40624209551606,287.40624209551606,287.40624209551606,287.40624209551606,287.40624209551606,287.40624209551606,s,1,0.5241634619887918,287.95619232126046,288.97280587325804,,,,,,,,,,,,,,,,,,,,,,,,,,,,,,,,,,,,,,,,575,2023-05-17_08h57.56.232,eb_02psyexp,2022.2.4,60.00094177748286,
48,0,48,0,,,,,,,,,,,,,,,,,,,,,,,,,,,,,,,,,,,,,,,,,,,,,,,,,,,,,,,,,,,288.97280587325804,288.97280587325804,288.97280587325804,288.97280587325804,288.97280587325804,288.97280587325804,l,1,0.48560547234956175,289.4894100680249,290.5060036982177,,,,,,,,,,,,,,,,,,,,,,,,,,,,,,,,,,,,,,,,575,2023-05-17_08h57.56.232,eb_02psyexp,2022.2.4,60.00094177748286,
49,0,49,0,,,,,,,,,,,,,,,,,,,,,,,,,,,,,,,,,,,,,,,,,,,,,,,,,,,,,,,,,,,290.5060036982177,290.5060036982177,290.5060036982177,290.5060036982177,290.5060036982177,290.5060036982177,s,1,0.46440961048938334,290.9892911410425,292.0058929211227,,,,,,,,,,,,,,,,,,,,,,,,,,,,,,,,,,,,,,,,575,2023-05-17_08h57.56.232,eb_02psyexp,2022.2.4,60.00094177748286,
50,0,50,0,,,,,,,,,,,,,,,,,,,,,,,,,,,,,,,,,,,,,,,,,,,,,,,,,,,,,,,,,,,292.0058929211227,292.0058929211227,292.0058929211227,292.0058929211227,292.0058929211227,292.0058929211227,s,1,0.6125295081874356,292.63915932527743,293.67242174514104,,,,,,,,,,,,,,,,,,,,,,,,,,,,,,,,,,,,,,,,575,2023-05-17_08h57.56.232,eb_02psyexp,2022.2.4,60.00094177748286,
51,0,51,0,,,,,,,,,,,,,,,,,,,,,,,,,,,,,,,,,,,,,,,,,,,,,,,,,,,,,,,,,,,293.67242174514104,293.67242174514104,293.67242174514104,293.67242174514104,293.67242174514104,293.67242174514104,l,1,0.48200868675485253,294.17238492006436,295.1889652691316,,,,,,,,,,,,,,,,,,,,,,,,,,,,,,,,,,,,,,,,575,2023-05-17_08h57.56.232,eb_02psyexp,2022.2.4,60.00094177748286,
52,0,52,0,,,,,,,,,,,,,,,,,,,,,,,,,,,,,,,,,,,,,,,,,,,,,,,,,,,,,,,,,,,295.1889652691316,295.1889652691316,295.1889652691316,295.1889652691316,295.1889652691316,295.1889652691316,s,1,0.4934797043679282,295.70558515994344,296.7388463723473,,,,,,,,,,,,,,,,,,,,,,,,,,,,,,,,,,,,,,,,575,2023-05-17_08h57.56.232,eb_02psyexp,2022.2.4,60.00094177748286,
53,0,53,0,,,,,,,,,,,,,,,,,,,,,,,,,,,,,,,,,,,,,,,,,,,,,,,,,,,,,,,,,,,296.7388463723473,296.7388463723473,296.7388463723473,296.7388463723473,296.7388463723473,296.7388463723473,s,1,0.519581152126193,297.28878693911247,298.3054110556841,,,,,,,,,,,,,,,,,,,,,,,,,,,,,,,,,,,,,,,,575,2023-05-17_08h57.56.232,eb_02psyexp,2022.2.4,60.00094177748286,
54,0,54,0,,,,,,,,,,,,,,,,,,,,,,,,,,,,,,,,,,,,,,,,,,,,,,,,,,,,,,,,,,,298.3054110556841,298.3054110556841,298.3054110556841,298.3054110556841,298.3054110556841,298.3054110556841,s,1,0.465044692507945,298.7886803877773,299.82192892278545,,,,,,,,,,,,,,,,,,,,,,,,,,,,,,,,,,,,,,,,575,2023-05-17_08h57.56.232,eb_02psyexp,2022.2.4,60.00094177748286,
55,0,55,0,,,,,,,,,,,,,,,,,,,,,,,,,,,,,,,,,,,,,,,,,,,,,,,,,,,,,,,,,,,299.82192892278545,299.82192892278545,299.82192892278545,299.82192892278545,299.82192892278545,299.82192892278545,s,1,0.4445391504559666,300.28856236638967,301.3051584113855,,,,,,,,,,,,,,,,,,,,,,,,,,,,,,,,,,,,,,,,575,2023-05-17_08h57.56.232,eb_02psyexp,2022.2.4,60.00094177748286,
56,0,56,0,,,,,,,,,,,,,,,,,,,,,,,,,,,,,,,,,,,,,,,,,,,,,,,,,,,,,,,,,,,301.3051584113855,301.3051584113855,301.3051584113855,301.3051584113855,301.3051584113855,301.3051584113855,l,1,0.48932058131322265,301.8217949036043,302.8550292518921,,,,,,,,,,,,,,,,,,,,,,,,,,,,,,,,,,,,,,,,575,2023-05-17_08h57.56.232,eb_02psyexp,2022.2.4,60.00094177748286,
57,0,57,0,,,,,,,,,,,,,,,,,,,,,,,,,,,,,,,,,,,,,,,,,,,,,,,,,,,,,,,,,,,302.8550292518921,302.8550292518921,302.8550292518921,302.8550292518921,302.8550292518921,302.8550292518921,s,0,0.47449878160841763,303.354986691731,304.3715999418637,,,,,,,,,,,,,,,,,,,,,,,,,,,,,,,,,,,,,,,,575,2023-05-17_08h57.56.232,eb_02psyexp,2022.2.4,60.00094177748286,
58,0,58,0,,,,,,,,,,,,,,,,,,,,,,,,,,,,,,,,,,,,,,,,,,,,,,,,,,,,,,,,,,,304.3715999418637,304.3715999418637,304.3715999418637,304.3715999418637,304.3715999418637,304.3715999418637,s,1,0.5098901146557182,304.90487896313425,305.93812568706926,,,,,,,,,,,,,,,,,,,,,,,,,,,,,,,,,,,,,,,,575,2023-05-17_08h57.56.232,eb_02psyexp,2022.2.4,60.00094177748286,
59,0,59,0,,,,,,,,,,,,,,,,,,,,,,,,,,,,,,,,,,,,,,,,,,,,,,,,,,,,,,,,,,,305.93812568706926,305.93812568706926,305.93812568706926,305.93812568706926,305.93812568706926,305.93812568706926,s,1,0.47937297564931214,306.43808523984626,307.45468400151003,,,,,,,,,,,,,,,,,,,,,,,,,,,,,,,,,,,,,,,,575,2023-05-17_08h57.56.232,eb_02psyexp,2022.2.4,60.00094177748286,
60,0,60,0,,,,,,,,,,,,,,,,,,,,,,,,,,,,,,,,,,,,,,,,,,,,,,,,,,,,,,,,,,,307.45468400151003,307.45468400151003,307.45468400151003,307.45468400151003,307.45468400151003,307.45468400151003,s,1,0.6348424986936152,308.12128466472495,309.1545093539171,,,,,,,,,,,,,,,,,,,,,,,,,,,,,,,,,,,,,,,,575,2023-05-17_08h57.56.232,eb_02psyexp,2022.2.4,60.00094177748286,
61,0,61,0,,,,,,,,,,,,,,,,,,,,,,,,,,,,,,,,,,,,,,,,,,,,,,,,,,,,,,,,,,,309.1545093539171,309.1545093539171,309.1545093539171,309.1545093539171,309.1545093539171,309.1545093539171,s,1,0.4549998927395791,309.63783573475666,310.6544299686793,,,,,,,,,,,,,,,,,,,,,,,,,,,,,,,,,,,,,,,,575,2023-05-17_08h57.56.232,eb_02psyexp,2022.2.4,60.00094177748286,
62,0,62,0,,,,,,,,,,,,,,,,,,,,,,,,,,,,,,,,,,,,,,,,,,,,,,,,,,,,,,,,,,,310.6544299686793,310.6544299686793,310.6544299686793,310.6544299686793,310.6544299686793,310.6544299686793,l,1,0.4751009624451399,311.15437744767405,312.187589761219,,,,,,,,,,,,,,,,,,,,,,,,,,,,,,,,,,,,,,,,575,2023-05-17_08h57.56.232,eb_02psyexp,2022.2.4,60.00094177748286,
63,0,63,0,,,,,,,,,,,,,,,,,,,,,,,,,,,,,,,,,,,,,,,,,,,,,,,,,,,,,,,,,,,312.187589761219,312.187589761219,312.187589761219,312.187589761219,312.187589761219,312.187589761219,l,1,0.5339402232784778,312.7542540533468,313.77085704077035,,,,,,,,,,,,,,,,,,,,,,,,,,,,,,,,,,,,,,,,575,2023-05-17_08h57.56.232,eb_02psyexp,2022.2.4,60.00094177748286,
64,0,64,0,,,,,,,,,,,,,,,,,,,,,,,,,,,,,,,,,,,,,,,,,,,,,,,,,,,,,,,,,,,313.77085704077035,313.77085704077035,313.77085704077035,313.77085704077035,313.77085704077035,313.77085704077035,s,1,0.4786754116648808,314.2708316857461,315.30405878974125,,,,,,,,,,,,,,,,,,,,,,,,,,,,,,,,,,,,,,,,575,2023-05-17_08h57.56.232,eb_02psyexp,2022.2.4,60.00094177748286,
65,0,65,0,,,,,,,,,,,,,,,,,,,,,,,,,,,,,,,,,,,,,,,,,,,,,,,,,,,,,,,,,,,315.30405878974125,315.30405878974125,315.30405878974125,315.30405878974125,315.30405878974125,315.30405878974125,s,1,0.4174902109662071,315.7540328009054,316.7706264312146,,,,,,,,,,,,,,,,,,,,,,,,,,,,,,,,,,,,,,,,575,2023-05-17_08h57.56.232,eb_02psyexp,2022.2.4,60.00094177748286,
66,0,66,0,,,,,,,,,,,,,,,,,,,,,,,,,,,,,,,,,,,,,,,,,,,,,,,,,,,,,,,,,,,316.7706264312146,316.7706264312146,316.7706264312146,316.7706264312146,316.7706264312146,316.7706264312146,s,1,0.3909305625129491,317.1872438468272,318.2205062666908,,,,,,,,,,,,,,,,,,,,,,,,,,,,,,,,,,,,,,,,575,2023-05-17_08h57.56.232,eb_02psyexp,2022.2.4,60.00094177748286,
67,0,67,0,,,,,,,,,,,,,,,,,,,,,,,,,,,,,,,,,,,,,,,,,,,,,,,,,,,,,,,,,,,318.2205062666908,318.2205062666908,318.2205062666908,318.2205062666908,318.2205062666908,318.2205062666908,l,1,0.3801082097925246,318.6204624387901,319.6370612003375,,,,,,,,,,,,,,,,,,,,,,,,,,,,,,,,,,,,,,,,575,2023-05-17_08h57.56.232,eb_02psyexp,2022.2.4,60.00094177748286,
68,0,68,0,,,,,,,,,,,,,,,,,,,,,,,,,,,,,,,,,,,,,,,,,,,,,,,,,,,,,,,,,,,319.6370612003375,319.6370612003375,319.6370612003375,319.6370612003375,319.6370612003375,319.6370612003375,l,1,0.41151941393036395,320.0703129952308,321.08695341146085,,,,,,,,,,,,,,,,,,,,,,,,,,,,,,,,,,,,,,,,575,2023-05-17_08h57.56.232,eb_02psyexp,2022.2.4,60.00094177748286,
69,0,69,0,,,,,,,,,,,,,,,,,,,,,,,,,,,,,,,,,,,,,,,,,,,,,,,,,,,,,,,,,,,321.08695341146085,321.08695341146085,321.08695341146085,321.08695341146085,321.08695341146085,321.08695341146085,s,1,0.4496409355197102,321.5535711591365,322.57017142989207,,,,,,,,,,,,,,,,,,,,,,,,,,,,,,,,,,,,,,,,575,2023-05-17_08h57.56.232,eb_02psyexp,2022.2.4,60.00094177748286,
70,0,70,0,,,,,,,,,,,,,,,,,,,,,,,,,,,,,,,,,,,,,,,,,,,,,,,,,,,,,,,,,,,322.57017142989207,322.57017142989207,322.57017142989207,322.57017142989207,322.57017142989207,322.57017142989207,l,1,0.4304239699849859,323.02012431190815,324.0367266956018,,,,,,,,,,,,,,,,,,,,,,,,,,,,,,,,,,,,,,,,575,2023-05-17_08h57.56.232,eb_02psyexp,2022.2.4,60.00094177748286,
71,0,71,0,,,,,,,,,,,,,,,,,,,,,,,,,,,,,,,,,,,,,,,,,,,,,,,,,,,,,,,,,,,324.0367266956018,324.0367266956018,324.0367266956018,324.0367266956018,324.0367266956018,324.0367266956018,l,1,0.5398766100406647,324.60333484457806,325.61994296335615,,,,,,,,,,,,,,,,,,,,,,,,,,,,,,,,,,,,,,,,575,2023-05-17_08h57.56.232,eb_02psyexp,2022.2.4,60.00094177748286,
72,0,72,0,,,,,,,,,,,,,,,,,,,,,,,,,,,,,,,,,,,,,,,,,,,,,,,,,,,,,,,,,,,325.61994296335615,325.61994296335615,325.61994296335615,325.61994296335615,325.61994296335615,325.61994296335615,l,1,0.4286675334442407,326.0698876956012,327.08648977742996,,,,,,,,,,,,,,,,,,,,,,,,,,,,,,,,,,,,,,,,575,2023-05-17_08h57.56.232,eb_02psyexp,2022.2.4,60.00094177748286,
73,0,73,0,,,,,,,,,,,,,,,,,,,,,,,,,,,,,,,,,,,,,,,,,,,,,,,,,,,,,,,,,,,327.08648977742996,327.08648977742996,327.08648977742996,327.08648977742996,327.08648977742996,327.08648977742996,l,1,0.37008635024540126,327.4864426292479,328.51969539013226,,,,,,,,,,,,,,,,,,,,,,,,,,,,,,,,,,,,,,,,575,2023-05-17_08h57.56.232,eb_02psyexp,2022.2.4,60.00094177748286,
74,0,74,0,,,,,,,,,,,,,,,,,,,,,,,,,,,,,,,,,,,,,,,,,,,,,,,,,,,,,,,,,,,328.51969539013226,328.51969539013226,328.51969539013226,328.51969539013226,328.51969539013226,328.51969539013226,s,1,0.6249326234683394,329.16964839282446,330.18624292861205,,,,,,,,,,,,,,,,,,,,,,,,,,,,,,,,,,,,,,,,575,2023-05-17_08h57.56.232,eb_02psyexp,2022.2.4,60.00094177748286,
75,0,75,0,,,,,,,,,,,,,,,,,,,,,,,,,,,,,,,,,,,,,,,,,,,,,,,,,,,,,,,,,,,330.18624292861205,330.18624292861205,330.18624292861205,330.18624292861205,330.18624292861205,330.18624292861205,l,1,0.49439580412581563,330.70285919716116,331.73612946504727,,,,,,,,,,,,,,,,,,,,,,,,,,,,,,,,,,,,,,,,575,2023-05-17_08h57.56.232,eb_02psyexp,2022.2.4,60.00094177748286,
76,0,76,0,,,,,,,,,,,,,,,,,,,,,,,,,,,,,,,,,,,,,,,,,,,,,,,,,,,,,,,,,,,331.73612946504727,331.73612946504727,331.73612946504727,331.73612946504727,331.73612946504727,331.73612946504727,s,1,0.47250569867901504,332.2360872067511,333.25268476095516,,,,,,,,,,,,,,,,,,,,,,,,,,,,,,,,,,,,,,,,575,2023-05-17_08h57.56.232,eb_02psyexp,2022.2.4,60.00094177748286,
77,0,77,0,,,,,,,,,,,,,,,,,,,,,,,,,,,,,,,,,,,,,,,,,,,,,,,,,,,,,,,,,,,333.25268476095516,333.25268476095516,333.25268476095516,333.25268476095516,333.25268476095516,333.25268476095516,s,1,0.4919590089702979,333.76928714464884,334.7855722892564,,,,,,,,,,,,,,,,,,,,,,,,,,,,,,,,,,,,,,,,575,2023-05-17_08h57.56.232,eb_02psyexp,2022.2.4,60.00094177748286,
78,0,78,0,,,,,,,,,,,,,,,,,,,,,,,,,,,,,,,,,,,,,,,,,,,,,,,,,,,,,,,,,,,334.7855722892564,334.7855722892564,334.7855722892564,334.7855722892564,334.7855722892564,334.7855722892564,s,1,0.3500613452633843,335.15250902669504,336.1691322377883,,,,,,,,,,,,,,,,,,,,,,,,,,,,,,,,,,,,,,,,575,2023-05-17_08h57.56.232,eb_02psyexp,2022.2.4,60.00094177748286,
79,0,79,0,,,,,,,,,,,,,,,,,,,,,,,,,,,,,,,,,,,,,,,,,,,,,,,,,,,,,,,,,,,336.1691322377883,336.1691322377883,336.1691322377883,336.1691322377883,336.1691322377883,336.1691322377883,s,1,0.43851975619327277,336.6357342894189,337.65201490640175,,,,,,,,,,,,,,,,,,,,,,,,,,,,,,,,,,,,,,,,575,2023-05-17_08h57.56.232,eb_02psyexp,2022.2.4,60.00094177748286,
80,0,80,0,,,,,,,,,,,,,,,,,,,,,,,,,,,,,,,,,,,,,,,,,,,,,,,,,,,,,,,,,,,337.65201490640175,337.65201490640175,337.65201490640175,337.65201490640175,337.65201490640175,337.65201490640175,s,1,0.26766820903867483,337.95229701069184,338.9688471752452,,,,,,,,,,,,,,,,,,,,,,,,,,,,,,,,,,,,,,,,575,2023-05-17_08h57.56.232,eb_02psyexp,2022.2.4,60.00094177748286,
81,0,81,0,,,,,,,,,,,,,,,,,,,,,,,,,,,,,,,,,,,,,,,,,,,,,,,,,,,,,,,,,,,338.9688471752452,338.9688471752452,338.9688471752452,338.9688471752452,338.9688471752452,338.9688471752452,l,1,0.5428395213093609,339.53550543054007,340.5520634429995,,,,,,,,,,,,,,,,,,,,,,,,,,,,,,,,,,,,,,,,575,2023-05-17_08h57.56.232,eb_02psyexp,2022.2.4,60.00094177748286,
82,0,82,0,,,,,,,,,,,,,,,,,,,,,,,,,,,,,,,,,,,,,,,,,,,,,,,,,,,,,,,,,,,340.5520634429995,340.5520634429995,340.5520634429995,340.5520634429995,340.5520634429995,340.5520634429995,l,1,0.47163397015538067,341.05205287842546,342.06866431760136,,,,,,,,,,,,,,,,,,,,,,,,,,,,,,,,,,,,,,,,575,2023-05-17_08h57.56.232,eb_02psyexp,2022.2.4,60.00094177748286,
83,0,83,0,,,,,,,,,,,,,,,,,,,,,,,,,,,,,,,,,,,,,,,,,,,,,,,,,,,,,,,,,,,342.06866431760136,342.06866431760136,342.06866431760136,342.06866431760136,342.06866431760136,342.06866431760136,l,1,0.6030165592674166,342.7019264958799,343.71851952245925,,,,,,,,,,,,,,,,,,,,,,,,,,,,,,,,,,,,,,,,575,2023-05-17_08h57.56.232,eb_02psyexp,2022.2.4,60.00094177748286,
84,0,84,0,,,,,,,,,,,,,,,,,,,,,,,,,,,,,,,,,,,,,,,,,,,,,,,,,,,,,,,,,,,343.71851952245925,343.71851952245925,343.71851952245925,343.71851952245925,343.71851952245925,343.71851952245925,l,1,0.48119310138281435,344.218477566028,345.2350642537931,,,,,,,,,,,,,,,,,,,,,,,,,,,,,,,,,,,,,,,,575,2023-05-17_08h57.56.232,eb_02psyexp,2022.2.4,60.00094177748286,
85,0,85,0,,,,,,,,,,,,,,,,,,,,,,,,,,,,,,,,,,,,,,,,,,,,,,,,,,,,,,,,,,,345.2350642537931,345.2350642537931,345.2350642537931,345.2350642537931,345.2350642537931,345.2350642537931,l,1,0.43665797589346766,345.70169377338607,346.7182931386633,,,,,,,,,,,,,,,,,,,,,,,,,,,,,,,,,,,,,,,,575,2023-05-17_08h57.56.232,eb_02psyexp,2022.2.4,60.00094177748286,
86,0,86,0,,,,,,,,,,,,,,,,,,,,,,,,,,,,,,,,,,,,,,,,,,,,,,,,,,,,,,,,,,,346.7182931386633,346.7182931386633,346.7182931386633,346.7182931386633,346.7182931386633,346.7182931386633,l,1,0.44943719008006155,347.18491360289045,348.21818960586097,,,,,,,,,,,,,,,,,,,,,,,,,,,,,,,,,,,,,,,,575,2023-05-17_08h57.56.232,eb_02psyexp,2022.2.4,60.00094177748286,
87,0,87,0,,,,,,,,,,,,,,,,,,,,,,,,,,,,,,,,,,,,,,,,,,,,,,,,,,,,,,,,,,,348.21818960586097,348.21818960586097,348.21818960586097,348.21818960586097,348.21818960586097,348.21818960586097,s,1,0.5175687510054559,348.7681292670313,349.7847289341735,,,,,,,,,,,,,,,,,,,,,,,,,,,,,,,,,,,,,,,,575,2023-05-17_08h57.56.232,eb_02psyexp,2022.2.4,60.00094177748286,
88,0,88,0,,,,,,,,,,,,,,,,,,,,,,,,,,,,,,,,,,,,,,,,,,,,,,,,,,,,,,,,,,,349.7847289341735,349.7847289341735,349.7847289341735,349.7847289341735,349.7847289341735,349.7847289341735,l,1,0.9502044802065939,350.7512998958118,351.7845608064672,,,,,,,,,,,,,,,,,,,,,,,,,,,,,,,,,,,,,,,,575,2023-05-17_08h57.56.232,eb_02psyexp,2022.2.4,60.00094177748286,
89,0,89,0,,,,,,,,,,,,,,,,,,,,,,,,,,,,,,,,,,,,,,,,,,,,,,,,,,,,,,,,,,,351.7845608064672,351.7845608064672,351.7845608064672,351.7845608064672,351.7845608064672,351.7845608064672,s,1,0.46219436964020133,352.26785096584354,353.28445908462163,,,,,,,,,,,,,,,,,,,,,,,,,,,,,,,,,,,,,,,,575,2023-05-17_08h57.56.232,eb_02psyexp,2022.2.4,60.00094177748286,
90,0,90,0,,,,,,,,,,,,,,,,,,,,,,,,,,,,,,,,,,,,,,,,,,,,,,,,,,,,,,,,,,,353.28445908462163,353.28445908462163,353.28445908462163,353.28445908462163,353.28445908462163,353.28445908462163,l,1,0.5623145643621683,353.8677490026457,354.9009806342656,,,,,,,,,,,,,,,,,,,,,,,,,,,,,,,,,,,,,,,,575,2023-05-17_08h57.56.232,eb_02psyexp,2022.2.4,60.00094177748286,
91,0,91,0,,,,,,,,,,,,,,,,,,,,,,,,,,,,,,,,,,,,,,,,,,,,,,,,,,,,,,,,,,,354.9009806342656,354.9009806342656,354.9009806342656,354.9009806342656,354.9009806342656,354.9009806342656,s,1,0.44979608384892344,355.3676083427854,356.3841953324154,,,,,,,,,,,,,,,,,,,,,,,,,,,,,,,,,,,,,,,,575,2023-05-17_08h57.56.232,eb_02psyexp,2022.2.4,60.00094177748286,
92,0,92,0,,,,,,,,,,,,,,,,,,,,,,,,,,,,,,,,,,,,,,,,,,,,,,,,,,,,,,,,,,,356.3841953324154,356.3841953324154,356.3841953324154,356.3841953324154,356.3841953324154,356.3841953324154,s,1,0.3746001411927864,356.78419346094597,357.8174223760143,,,,,,,,,,,,,,,,,,,,,,,,,,,,,,,,,,,,,,,,575,2023-05-17_08h57.56.232,eb_02psyexp,2022.2.4,60.00094177748286,
93,0,93,0,,,,,,,,,,,,,,,,,,,,,,,,,,,,,,,,,,,,,,,,,,,,,,,,,,,,,,,,,,,357.8174223760143,357.8174223760143,357.8174223760143,357.8174223760143,357.8174223760143,357.8174223760143,s,1,0.4053587563103065,358.25071763666347,359.2673251517117,,,,,,,,,,,,,,,,,,,,,,,,,,,,,,,,,,,,,,,,575,2023-05-17_08h57.56.232,eb_02psyexp,2022.2.4,60.00094177748286,
94,0,94,0,,,,,,,,,,,,,,,,,,,,,,,,,,,,,,,,,,,,,,,,,,,,,,,,,,,,,,,,,,,359.2673251517117,359.2673251517117,359.2673251517117,359.2673251517117,359.2673251517117,359.2673251517117,l,1,0.6354799953987822,359.9339197780937,360.95053423556965,,,,,,,,,,,,,,,,,,,,,,,,,,,,,,,,,,,,,,,,575,2023-05-17_08h57.56.232,eb_02psyexp,2022.2.4,60.00094177748286,
95,0,95,0,,,,,,,,,,,,,,,,,,,,,,,,,,,,,,,,,,,,,,,,,,,,,,,,,,,,,,,,,,,360.95053423556965,360.95053423556965,360.95053423556965,360.95053423556965,360.95053423556965,360.95053423556965,l,1,0.8722593327984214,361.8504412069451,362.86703634646256,,,,,,,,,,,,,,,,,,,,,,,,,,,,,,,,,,,,,,,,575,2023-05-17_08h57.56.232,eb_02psyexp,2022.2.4,60.00094177748286,
96,0,96,0,,,,,,,,,,,,,,,,,,,,,,,,,,,,,,,,,,,,,,,,,,,,,,,,,,,,,,,,,,,362.86703634646256,362.86703634646256,362.86703634646256,362.86703634646256,362.86703634646256,362.86703634646256,l,1,0.5637884737225249,363.45032505702693,364.46690450049937,,,,,,,,,,,,,,,,,,,,,,,,,,,,,,,,,,,,,,,,575,2023-05-17_08h57.56.232,eb_02psyexp,2022.2.4,60.00094177748286,
97,0,97,0,,,,,,,,,,,,,,,,,,,,,,,,,,,,,,,,,,,,,,,,,,,,,,,,,,,,,,,,,,,364.46690450049937,364.46690450049937,364.46690450049937,364.46690450049937,364.46690450049937,364.46690450049937,l,1,0.36392810731194913,364.85021935089026,365.8668193197809,,,,,,,,,,,,,,,,,,,,,,,,,,,,,,,,,,,,,,,,575,2023-05-17_08h57.56.232,eb_02psyexp,2022.2.4,60.00094177748286,
98,0,98,0,,,,,,,,,,,,,,,,,,,,,,,,,,,,,,,,,,,,,,,,,,,,,,,,,,,,,,,,,,,365.8668193197809,365.8668193197809,365.8668193197809,365.8668193197809,365.8668193197809,365.8668193197809,l,1,0.5870112251723185,366.4834139159648,367.500021431013,,,,,,,,,,,,,,,,,,,,,,,,,,,,,,,,,,,,,,,,575,2023-05-17_08h57.56.232,eb_02psyexp,2022.2.4,60.00094177748286,
99,0,99,0,,,,,,,,,,,,,,,,,,,,,,,,,,,,,,,,,,,,,,,,,,,,,,,,,,,,,,,,,,,367.500021431013,367.500021431013,367.500021431013,367.500021431013,367.500021431013,367.500021431013,l,1,0.5778269855072722,368.0999140345957,369.1332144868793,,,,,,,,,,,,,,,,,,,,,,,,,,,,,,,,,,,,,,,,575,2023-05-17_08h57.56.232,eb_02psyexp,2022.2.4,60.00094177748286,
100,0,100,0,,,,,,,,,,,,,,,,,,,,,,,,,,,,,,,,,,,,,,,,,,,,,,,,,,,,,,,,,,,369.1332144868793,369.1332144868793,369.1332144868793,369.1332144868793,369.1332144868793,369.1332144868793,s,1,0.47263519023545086,369.6331716249697,370.64976616064087,,,,,,,,,,,,,,,,,,,,,,,,,,,,,,,,,,,,,,,,575,2023-05-17_08h57.56.232,eb_02psyexp,2022.2.4,60.00094177748286,
101,0,101,0,,,,,,,,,,,,,,,,,,,,,,,,,,,,,,,,,,,,,,,,,,,,,,,,,,,,,,,,,,,370.64976616064087,370.64976616064087,370.64976616064087,370.64976616064087,370.64976616064087,370.64976616064087,l,1,0.604081166908145,371.2830425257562,372.3162937774323,,,,,,,,,,,,,,,,,,,,,,,,,,,,,,,,,,,,,,,,575,2023-05-17_08h57.56.232,eb_02psyexp,2022.2.4,60.00094177748286,
102,0,102,0,,,,,,,,,,,,,,,,,,,,,,,,,,,,,,,,,,,,,,,,,,,,,,,,,,,,,,,,,,,372.3162937774323,372.3162937774323,372.3162937774323,372.3162937774323,372.3162937774323,372.3162937774323,s,1,0.449575133388862,372.7829112231266,373.79952688806225,,,,,,,,,,,,,,,,,,,,,,,,,,,,,,,,,,,,,,,,575,2023-05-17_08h57.56.232,eb_02psyexp,2022.2.4,60.00094177748286,
103,0,103,0,,,,,,,,,,,,,,,,,,,,,,,,,,,,,,,,,,,,,,,,,,,,,,,,,,,,,,,,,,,373.79952688806225,373.79952688806225,373.79952688806225,373.79952688806225,373.79952688806225,373.79952688806225,l,1,0.5823646222706884,374.3994674850255,375.41606262442656,,,,,,,,,,,,,,,,,,,,,,,,,,,,,,,,,,,,,,,,575,2023-05-17_08h57.56.232,eb_02psyexp,2022.2.4,60.00094177748286,
104,0,104,0,,,,,,,,,,,,,,,,,,,,,,,,,,,,,,,,,,,,,,,,,,,,,,,,,,,,,,,,,,,375.41606262442656,375.41606262442656,375.41606262442656,375.41606262442656,375.41606262442656,375.41606262442656,l,1,0.5418011741712689,375.9826789231738,376.99929730477743,,,,,,,,,,,,,,,,,,,,,,,,,,,,,,,,,,,,,,,,575,2023-05-17_08h57.56.232,eb_02psyexp,2022.2.4,60.00094177748286,
105,0,105,0,,,,,,,,,,,,,,,,,,,,,,,,,,,,,,,,,,,,,,,,,,,,,,,,,,,,,,,,,,,376.99929730477743,376.99929730477743,376.99929730477743,376.99929730477743,376.99929730477743,376.99929730477743,l,1,0.43060115294065326,377.4492390184896,378.46582661173306,,,,,,,,,,,,,,,,,,,,,,,,,,,,,,,,,,,,,,,,575,2023-05-17_08h57.56.232,eb_02psyexp,2022.2.4,60.00094177748286,
106,0,106,0,,,,,,,,,,,,,,,,,,,,,,,,,,,,,,,,,,,,,,,,,,,,,,,,,,,,,,,,,,,378.46582661173306,378.46582661173306,378.46582661173306,378.46582661173306,378.46582661173306,378.46582661173306,l,1,0.6600698030088097,379.14909908315167,380.18234882550314,,,,,,,,,,,,,,,,,,,,,,,,,,,,,,,,,,,,,,,,575,2023-05-17_08h57.56.232,eb_02psyexp,2022.2.4,60.00094177748286,
107,0,107,0,,,,,,,,,,,,,,,,,,,,,,,,,,,,,,,,,,,,,,,,,,,,,,,,,,,,,,,,,,,380.18234882550314,380.18234882550314,380.18234882550314,380.18234882550314,380.18234882550314,380.18234882550314,s,1,0.47960962203796953,380.6823192446027,381.6989270616323,,,,,,,,,,,,,,,,,,,,,,,,,,,,,,,,,,,,,,,,575,2023-05-17_08h57.56.232,eb_02psyexp,2022.2.4,60.00094177748286,
108,0,108,0,,,,,,,,,,,,,,,,,,,,,,,,,,,,,,,,,,,,,,,,,,,,,,,,,,,,,,,,,,,381.6989270616323,381.6989270616323,381.6989270616323,381.6989270616323,381.6989270616323,381.6989270616323,s,1,0.5220067789778113,382.2488597803749,383.28206786804367,,,,,,,,,,,,,,,,,,,,,,,,,,,,,,,,,,,,,,,,575,2023-05-17_08h57.56.232,eb_02psyexp,2022.2.4,60.00094177748286,
109,0,109,0,,,,,,,,,,,,,,,,,,,,,,,,,,,,,,,,,,,,,,,,,,,,,,,,,,,,,,,,,,,383.28206786804367,383.28206786804367,383.28206786804367,383.28206786804367,383.28206786804367,383.28206786804367,s,1,0.5948785146465525,383.8987285683397,384.91534272395074,,,,,,,,,,,,,,,,,,,,,,,,,,,,,,,,,,,,,,,,575,2023-05-17_08h57.56.232,eb_02psyexp,2022.2.4,60.00094177748286,
110,0,110,0,,,,,,,,,,,,,,,,,,,,,,,,,,,,,,,,,,,,,,,,,,,,,,,,,,,,,,,,,,,384.91534272395074,384.91534272395074,384.91534272395074,384.91534272395074,384.91534272395074,384.91534272395074,l,1,0.46560702996794134,385.3986117542954,386.4318669298664,,,,,,,,,,,,,,,,,,,,,,,,,,,,,,,,,,,,,,,,575,2023-05-17_08h57.56.232,eb_02psyexp,2022.2.4,60.00094177748286,
111,0,111,0,,,,,,,,,,,,,,,,,,,,,,,,,,,,,,,,,,,,,,,,,,,,,,,,,,,,,,,,,,,386.4318669298664,386.4318669298664,386.4318669298664,386.4318669298664,386.4318669298664,386.4318669298664,s,1,0.5410755387274548,386.9984965098556,388.01509859168436,,,,,,,,,,,,,,,,,,,,,,,,,,,,,,,,,,,,,,,,575,2023-05-17_08h57.56.232,eb_02psyexp,2022.2.4,60.00094177748286,
112,0,112,0,,,,,,,,,,,,,,,,,,,,,,,,,,,,,,,,,,,,,,,,,,,,,,,,,,,,,,,,,,,388.01509859168436,388.01509859168436,388.01509859168436,388.01509859168436,388.01509859168436,388.01509859168436,l,1,0.6858226197073236,388.73168721131515,389.7649601957528,,,,,,,,,,,,,,,,,,,,,,,,,,,,,,,,,,,,,,,,575,2023-05-17_08h57.56.232,eb_02psyexp,2022.2.4,60.00094177748286,
113,0,113,0,,,,,,,,,,,,,,,,,,,,,,,,,,,,,,,,,,,,,,,,,,,,,,,,,,,,,,,,,,,389.7649601957528,389.7649601957528,389.7649601957528,389.7649601957528,389.7649601957528,389.7649601957528,s,1,0.4080122761661187,390.19824187329505,391.2148394274991,,,,,,,,,,,,,,,,,,,,,,,,,,,,,,,,,,,,,,,,575,2023-05-17_08h57.56.232,eb_02psyexp,2022.2.4,60.00094177748286,
114,0,114,0,,,,,,,,,,,,,,,,,,,,,,,,,,,,,,,,,,,,,,,,,,,,,,,,,,,,,,,,,,,391.2148394274991,391.2148394274991,391.2148394274991,391.2148394274991,391.2148394274991,391.2148394274991,l,1,0.5181488973321393,391.7647860310972,392.79804362147115,,,,,,,,,,,,,,,,,,,,,,,,,,,,,,,,,,,,,,,,575,2023-05-17_08h57.56.232,eb_02psyexp,2022.2.4,60.00094177748286,
115,0,115,0,,,,,,,,,,,,,,,,,,,,,,,,,,,,,,,,,,,,,,,,,,,,,,,,,,,,,,,,,,,392.79804362147115,392.79804362147115,392.79804362147115,392.79804362147115,392.79804362147115,392.79804362147115,s,1,0.43893871712498367,393.26467012264766,394.28124775504693,,,,,,,,,,,,,,,,,,,,,,,,,,,,,,,,,,,,,,,,575,2023-05-17_08h57.56.232,eb_02psyexp,2022.2.4,60.00094177748286,
116,0,116,0,,,,,,,,,,,,,,,,,,,,,,,,,,,,,,,,,,,,,,,,,,,,,,,,,,,,,,,,,,,394.28124775504693,394.28124775504693,394.28124775504693,394.28124775504693,394.28124775504693,394.28124775504693,l,1,0.4277638093335554,394.7312253883574,395.74782596097793,,,,,,,,,,,,,,,,,,,,,,,,,,,,,,,,,,,,,,,,575,2023-05-17_08h57.56.232,eb_02psyexp,2022.2.4,60.00094177748286,
117,0,117,0,,,,,,,,,,,,,,,,,,,,,,,,,,,,,,,,,,,,,,,,,,,,,,,,,,,,,,,,,,,395.74782596097793,395.74782596097793,395.74782596097793,395.74782596097793,395.74782596097793,395.74782596097793,l,1,0.4331885688006878,396.197770693223,397.2143939041998,,,,,,,,,,,,,,,,,,,,,,,,,,,,,,,,,,,,,,,,575,2023-05-17_08h57.56.232,eb_02psyexp,2022.2.4,60.00094177748286,
118,0,118,0,,,,,,,,,,,,,,,,,,,,,,,,,,,,,,,,,,,,,,,,,,,,,,,,,,,,,,,,,,,397.2143939041998,397.2143939041998,397.2143939041998,397.2143939041998,397.2143939041998,397.2143939041998,l,1,0.34961189795285463,397.58101249707397,398.61426133383065,,,,,,,,,,,,,,,,,,,,,,,,,,,,,,,,,,,,,,,,575,2023-05-17_08h57.56.232,eb_02psyexp,2022.2.4,60.00094177748286,
119,0,119,0,,,,,,,,,,,,,,,,,,,,,,,,,,,,,,,,,,,,,,,,,,,,,,,,,,,,,,,,,,,398.61426133383065,398.61426133383065,398.61426133383065,398.61426133383065,398.61426133383065,398.61426133383065,s,1,0.4457667542155832,399.080888438737,400.0975225161528,,,,,,,,,,,,,,,,,,,,,,,,,,,,,,,,,,,,,,,,575,2023-05-17_08h57.56.232,eb_02psyexp,2022.2.4,60.00094177748286,
120,0,120,0,,,,,,,,,,,,,,,,,,,,,,,,,,,,,,,,,,,,,,,,,,,,,,,,,,,,,,,,,,,400.0975225161528,400.0975225161528,400.0975225161528,400.0975225161528,400.0975225161528,400.0975225161528,s,1,0.51452766219154,400.6307698438177,401.66403618769255,,,,,,,,,,,,,,,,,,,,,,,,,,,,,,,,,,,,,,,,575,2023-05-17_08h57.56.232,eb_02psyexp,2022.2.4,60.00094177748286,
121,0,121,0,,,,,,,,,,,,,,,,,,,,,,,,,,,,,,,,,,,,,,,,,,,,,,,,,,,,,,,,,,,401.66403618769255,401.66403618769255,401.66403618769255,401.66403618769255,401.66403618769255,401.66403618769255,s,1,0.4040079995756969,402.09732178924605,403.1139271913562,,,,,,,,,,,,,,,,,,,,,,,,,,,,,,,,,,,,,,,,575,2023-05-17_08h57.56.232,eb_02psyexp,2022.2.4,60.00094177748286,
122,0,122,0,,,,,,,,,,,,,,,,,,,,,,,,,,,,,,,,,,,,,,,,,,,,,,,,,,,,,,,,,,,403.1139271913562,403.1139271913562,403.1139271913562,403.1139271913562,403.1139271913562,403.1139271913562,s,1,0.4341233830200508,403.58053829846904,404.6137992091244,,,,,,,,,,,,,,,,,,,,,,,,,,,,,,,,,,,,,,,,575,2023-05-17_08h57.56.232,eb_02psyexp,2022.2.4,60.00094177748286,
123,0,123,0,,,,,,,,,,,,,,,,,,,,,,,,,,,,,,,,,,,,,,,,,,,,,,,,,,,,,,,,,,,404.6137992091244,404.6137992091244,404.6137992091244,404.6137992091244,404.6137992091244,404.6137992091244,s,1,0.3742596599040553,405.0137686623493,406.0303619907936,,,,,,,,,,,,,,,,,,,,,,,,,,,,,,,,,,,,,,,,575,2023-05-17_08h57.56.232,eb_02psyexp,2022.2.4,60.00094177748286,
124,0,124,0,,,,,,,,,,,,,,,,,,,,,,,,,,,,,,,,,,,,,,,,,,,,,,,,,,,,,,,,,,,406.0303619907936,406.0303619907936,406.0303619907936,406.0303619907936,406.0303619907936,406.0303619907936,l,1,0.3336859489791095,406.39698752597906,407.41359021153767,,,,,,,,,,,,,,,,,,,,,,,,,,,,,,,,,,,,,,,,575,2023-05-17_08h57.56.232,eb_02psyexp,2022.2.4,60.00094177748286,
125,0,125,0,,,,,,,,,,,,,,,,,,,,,,,,,,,,,,,,,,,,,,,,,,,,,,,,,,,,,,,,,,,407.41359021153767,407.41359021153767,407.41359021153767,407.41359021153767,407.41359021153767,407.41359021153767,s,0,0.4544849449303001,407.8968710137997,408.91348426393233,,,,,,,,,,,,,,,,,,,,,,,,,,,,,,,,,,,,,,,,575,2023-05-17_08h57.56.232,eb_02psyexp,2022.2.4,60.00094177748286,
126,0,126,0,,,,,,,,,,,,,,,,,,,,,,,,,,,,,,,,,,,,,,,,,,,,,,,,,,,,,,,,,,,408.91348426393233,408.91348426393233,408.91348426393233,408.91348426393233,408.91348426393233,408.91348426393233,l,1,0.5386167088290676,409.48008999810554,410.51334577740636,,,,,,,,,,,,,,,,,,,,,,,,,,,,,,,,,,,,,,,,575,2023-05-17_08h57.56.232,eb_02psyexp,2022.2.4,60.00094177748286,
127,0,127,0,,,,,,,,,,,,,,,,,,,,,,,,,,,,,,,,,,,,,,,,,,,,,,,,,,,,,,,,,,,410.51334577740636,410.51334577740636,410.51334577740636,410.51334577740636,410.51334577740636,410.51334577740636,s,1,0.4507478013401851,410.9966347294394,412.01323590578977,,,,,,,,,,,,,,,,,,,,,,,,,,,,,,,,,,,,,,,,575,2023-05-17_08h57.56.232,eb_02psyexp,2022.2.4,60.00094177748286,
128,0,128,0,,,,,,,,,,,,,,,,,,,,,,,,,,,,,,,,,,,,,,,,,,,,,,,,,,,,,,,,,,,412.01323590578977,412.01323590578977,412.01323590578977,412.01323590578977,412.01323590578977,412.01323590578977,s,1,0.6138681910233572,412.64650080085266,413.67976322071627,,,,,,,,,,,,,,,,,,,,,,,,,,,,,,,,,,,,,,,,575,2023-05-17_08h57.56.232,eb_02psyexp,2022.2.4,60.00094177748286,
129,0,129,0,,,,,,,,,,,,,,,,,,,,,,,,,,,,,,,,,,,,,,,,,,,,,,,,,,,,,,,,,,,413.67976322071627,413.67976322071627,413.67976322071627,413.67976322071627,413.67976322071627,413.67976322071627,s,1,0.3553203917108476,414.06307354336604,415.0796662680805,,,,,,,,,,,,,,,,,,,,,,,,,,,,,,,,,,,,,,,,575,2023-05-17_08h57.56.232,eb_02psyexp,2022.2.4,60.00094177748286,
130,0,130,0,,,,,,,,,,,,,,,,,,,,,,,,,,,,,,,,,,,,,,,,,,,,,,,,,,,,,,,,,,,415.0796662680805,415.0796662680805,415.0796662680805,415.0796662680805,415.0796662680805,415.0796662680805,s,1,0.45143902651034296,415.56294767395593,416.5962010384537,,,,,,,,,,,,,,,,,,,,,,,,,,,,,,,,,,,,,,,,575,2023-05-17_08h57.56.232,eb_02psyexp,2022.2.4,60.00094177748286,
131,0,131,0,,,,,,,,,,,,,,,,,,,,,,,,,,,,,,,,,,,,,,,,,,,,,,,,,,,,,,,,,,,416.5962010384537,416.5962010384537,416.5962010384537,416.5962010384537,416.5962010384537,416.5962010384537,s,1,0.5669297752901912,417.196160651627,418.2127455283189,,,,,,,,,,,,,,,,,,,,,,,,,,,,,,,,,,,,,,,,575,2023-05-17_08h57.56.232,eb_02psyexp,2022.2.4,60.00094177748286,
132,0,132,0,,,,,,,,,,,,,,,,,,,,,,,,,,,,,,,,,,,,,,,,,,,,,,,,,,,,,,,,,,,418.2127455283189,418.2127455283189,418.2127455283189,418.2127455283189,418.2127455283189,418.2127455283189,l,1,0.43839056650176644,418.67937444429845,419.69597924279515,,,,,,,,,,,,,,,,,,,,,,,,,,,,,,,,,,,,,,,,575,2023-05-17_08h57.56.232,eb_02psyexp,2022.2.4,60.00094177748286,
133,0,133,0,,,,,,,,,,,,,,,,,,,,,,,,,,,,,,,,,,,,,,,,,,,,,,,,,,,,,,,,,,,419.69597924279515,419.69597924279515,419.69597924279515,419.69597924279515,419.69597924279515,419.69597924279515,l,1,0.5391494653886184,420.262594636064,421.27918645518366,,,,,,,,,,,,,,,,,,,,,,,,,,,,,,,,,,,,,,,,575,2023-05-17_08h57.56.232,eb_02psyexp,2022.2.4,60.00094177748286,
134,0,134,0,,,,,,,,,,,,,,,,,,,,,,,,,,,,,,,,,,,,,,,,,,,,,,,,,,,,,,,,,,,421.27918645518366,421.27918645518366,421.27918645518366,421.27918645518366,421.27918645518366,421.27918645518366,l,1,0.3079521486070007,421.61248225905,422.6290900760796,,,,,,,,,,,,,,,,,,,,,,,,,,,,,,,,,,,,,,,,575,2023-05-17_08h57.56.232,eb_02psyexp,2022.2.4,60.00094177748286,
135,0,135,0,,,,,,,,,,,,,,,,,,,,,,,,,,,,,,,,,,,,,,,,,,,,,,,,,,,,,,,,,,,422.6290900760796,422.6290900760796,422.6290900760796,422.6290900760796,422.6290900760796,422.6290900760796,l,1,0.6700623836368322,423.3290171502158,424.34563341888133,,,,,,,,,,,,,,,,,,,,,,,,,,,,,,,,,,,,,,,,575,2023-05-17_08h57.56.232,eb_02psyexp,2022.2.4,60.00094177748286,
136,0,136,0,,,,,,,,,,,,,,,,,,,,,,,,,,,,,,,,,,,,,,,,,,,,,,,,,,,,,,,,,,,424.34563341888133,424.34563341888133,424.34563341888133,424.34563341888133,424.34563341888133,424.34563341888133,l,1,0.7535071481252089,425.1288600701373,426.16213546926156,,,,,,,,,,,,,,,,,,,,,,,,,,,,,,,,,,,,,,,,575,2023-05-17_08h57.56.232,eb_02psyexp,2022.2.4,60.00094177748286,
137,0,137,0,,,,,,,,,,,,,,,,,,,,,,,,,,,,,,,,,,,,,,,,,,,,,,,,,,,,,,,,,,,426.16213546926156,426.16213546926156,426.16213546926156,426.16213546926156,426.16213546926156,426.16213546926156,s,1,0.43303311860654503,426.61209408636205,427.62869465898257,,,,,,,,,,,,,,,,,,,,,,,,,,,,,,,,,,,,,,,,575,2023-05-17_08h57.56.232,eb_02psyexp,2022.2.4,60.00094177748286,
138,0,138,0,,,,,,,,,,,,,,,,,,,,,,,,,,,,,,,,,,,,,,,,,,,,,,,,,,,,,,,,,,,427.62869465898257,427.62869465898257,427.62869465898257,427.62869465898257,427.62869465898257,427.62869465898257,s,1,0.4695014348253608,428.128649080405,429.1618945969967,,,,,,,,,,,,,,,,,,,,,,,,,,,,,,,,,,,,,,,,575,2023-05-17_08h57.56.232,eb_02psyexp,2022.2.4,60.00094177748286,
139,0,139,0,,,,,,,,,,,,,,,,,,,,,,,,,,,,,,,,,,,,,,,,,,,,,,,,,,,,,,,,,,,429.1618945969967,429.1618945969967,429.1618945969967,429.1618945969967,429.1618945969967,429.1618945969967,s,1,0.40828001277986914,429.59518714097794,430.6117901284015,,,,,,,,,,,,,,,,,,,,,,,,,,,,,,,,,,,,,,,,575,2023-05-17_08h57.56.232,eb_02psyexp,2022.2.4,60.00094177748286,
140,0,140,0,,,,,,,,,,,,,,,,,,,,,,,,,,,,,,,,,,,,,,,,,,,,,,,,,,,,,,,,,,,430.6117901284015,430.6117901284015,430.6117901284015,430.6117901284015,430.6117901284015,430.6117901284015,l,1,0.5504152284702286,431.1950725001516,432.22832797758747,,,,,,,,,,,,,,,,,,,,,,,,,,,,,,,,,,,,,,,,575,2023-05-17_08h57.56.232,eb_02psyexp,2022.2.4,60.00094177748286,
141,0,141,0,,,,,,,,,,,,,,,,,,,,,,,,,,,,,,,,,,,,,,,,,,,,,,,,,,,,,,,,,,,432.22832797758747,432.22832797758747,432.22832797758747,432.22832797758747,432.22832797758747,432.22832797758747,s,1,0.6058750320225954,432.8616248682374,433.87822664820123,,,,,,,,,,,,,,,,,,,,,,,,,,,,,,,,,,,,,,,,575,2023-05-17_08h57.56.232,eb_02psyexp,2022.2.4,60.00094177748286,
142,0,142,0,,,,,,,,,,,,,,,,,,,,,,,,,,,,,,,,,,,,,,,,,,,,,,,,,,,,,,,,,,,433.87822664820123,433.87822664820123,433.87822664820123,433.87822664820123,433.87822664820123,433.87822664820123,s,1,0.42000095814000815,434.32817198405974,435.3614190098597,,,,,,,,,,,,,,,,,,,,,,,,,,,,,,,,,,,,,,,,575,2023-05-17_08h57.56.232,eb_02psyexp,2022.2.4,60.00094177748286,
143,0,143,0,,,,,,,,,,,,,,,,,,,,,,,,,,,,,,,,,,,,,,,,,,,,,,,,,,,,,,,,,,,435.3614190098597,435.3614190098597,435.3614190098597,435.3614190098597,435.3614190098597,435.3614190098597,s,1,0.39279687055386603,435.77805212140083,436.79465480695944,,,,,,,,,,,,,,,,,,,,,,,,,,,,,,,,,,,,,,,,575,2023-05-17_08h57.56.232,eb_02psyexp,2022.2.4,60.00094177748286,
144,0,144,0,,,,,,,,,,,,,,,,,,,,,,,,,,,,,,,,,,,,,,,,,,,,,,,,,,,,,,,,,,,436.79465480695944,436.79465480695944,436.79465480695944,436.79465480695944,436.79465480695944,436.79465480695944,s,1,0.35158626665361226,437.1779412839096,438.211223625578,,,,,,,,,,,,,,,,,,,,,,,,,,,,,,,,,,,,,,,,575,2023-05-17_08h57.56.232,eb_02psyexp,2022.2.4,60.00094177748286,
145,0,145,0,,,,,,,,,,,,,,,,,,,,,,,,,,,,,,,,,,,,,,,,,,,,,,,,,,,,,,,,,,,438.211223625578,438.211223625578,438.211223625578,438.211223625578,438.211223625578,438.211223625578,s,1,0.38302825891878456,438.61116651643533,439.6277640706394,,,,,,,,,,,,,,,,,,,,,,,,,,,,,,,,,,,,,,,,575,2023-05-17_08h57.56.232,eb_02psyexp,2022.2.4,60.00094177748286,
146,0,146,0,,,,,,,,,,,,,,,,,,,,,,,,,,,,,,,,,,,,,,,,,,,,,,,,,,,,,,,,,,,439.6277640706394,439.6277640706394,439.6277640706394,439.6277640706394,439.6277640706394,439.6277640706394,l,1,0.5584898856468499,440.2110464425059,441.2276524483459,,,,,,,,,,,,,,,,,,,,,,,,,,,,,,,,,,,,,,,,575,2023-05-17_08h57.56.232,eb_02psyexp,2022.2.4,60.00094177748286,
147,0,147,0,,,,,,,,,,,,,,,,,,,,,,,,,,,,,,,,,,,,,,,,,,,,,,,,,,,,,,,,,,,441.2276524483459,441.2276524483459,441.2276524483459,441.2276524483459,441.2276524483459,441.2276524483459,l,1,0.4626091046957299,441.7109287229832,442.72754287859425,,,,,,,,,,,,,,,,,,,,,,,,,,,,,,,,,,,,,,,,575,2023-05-17_08h57.56.232,eb_02psyexp,2022.2.4,60.00094177748286,
148,0,148,0,,,,,,,,,,,,,,,,,,,,,,,,,,,,,,,,,,,,,,,,,,,,,,,,,,,,,,,,,,,442.72754287859425,442.72754287859425,442.72754287859425,442.72754287859425,442.72754287859425,442.72754287859425,l,1,0.2977346935076639,443.04416808183305,444.06076593790203,,,,,,,,,,,,,,,,,,,,,,,,,,,,,,,,,,,,,,,,575,2023-05-17_08h57.56.232,eb_02psyexp,2022.2.4,60.00094177748286,
149,0,149,0,,,,,,,,,,,,,,,,,,,,,,,,,,,,,,,,,,,,,,,,,,,,,,,,,,,,,,,,,,,444.06076593790203,444.06076593790203,444.06076593790203,444.06076593790203,444.06076593790203,444.06076593790203,l,1,0.37254397268407047,444.4607405225979,445.4773205698002,,,,,,,,,,,,,,,,,,,,,,,,,,,,,,,,,,,,,,,,575,2023-05-17_08h57.56.232,eb_02psyexp,2022.2.4,60.00094177748286,
150,0,150,0,,,,,,,,,,,,,,,,,,,,,,,,,,,,,,,,,,,,,,,,,,,,,,,,,,,,,,,,,,,445.4773205698002,445.4773205698002,445.4773205698002,445.4773205698002,445.4773205698002,445.4773205698002,l,1,0.4199713773559779,445.927267113002,446.9605180626968,,,,,,,,,,,,,,,,,,,,,,,,,,,,,,,,,,,,,,,,575,2023-05-17_08h57.56.232,eb_02psyexp,2022.2.4,60.00094177748286,
151,0,151,0,,,,,,,,,,,,,,,,,,,,,,,,,,,,,,,,,,,,,,,,,,,,,,,,,,,,,,,,,,,446.9605180626968,446.9605180626968,446.9605180626968,446.9605180626968,446.9605180626968,446.9605180626968,s,1,0.44078751804772764,447.42715060082264,448.4437720007263,,,,,,,,,,,,,,,,,,,,,,,,,,,,,,,,,,,,,,,,575,2023-05-17_08h57.56.232,eb_02psyexp,2022.2.4,60.00094177748286,
152,0,152,0,,,,,,,,,,,,,,,,,,,,,,,,,,,,,,,,,,,,,,,,,,,,,,,,,,,,,,,,,,,448.4437720007263,448.4437720007263,448.4437720007263,448.4437720007263,448.4437720007263,448.4437720007263,l,1,0.3575374436331913,448.82704700762406,449.8603142569773,,,,,,,,,,,,,,,,,,,,,,,,,,,,,,,,,,,,,,,,575,2023-05-17_08h57.56.232,eb_02psyexp,2022.2.4,60.00094177748286,
153,0,153,0,,,,,,,,,,,,,,,,,,,,,,,,,,,,,,,,,,,,,,,,,,,,,,,,,,,,,,,,,,,449.8603142569773,449.8603142569773,449.8603142569773,449.8603142569773,449.8603142569773,449.8603142569773,s,1,0.3409857698716223,450.2269358682679,451.2435451943893,,,,,,,,,,,,,,,,,,,,,,,,,,,,,,,,,,,,,,,,575,2023-05-17_08h57.56.232,eb_02psyexp,2022.2.4,60.00094177748286,
154,0,154,0,,,,,,,,,,,,,,,,,,,,,,,,,,,,,,,,,,,,,,,,,,,,,,,,,,,,,,,,,,,451.2435451943893,451.2435451943893,451.2435451943893,451.2435451943893,451.2435451943893,451.2435451943893,s,1,0.34981171949766576,451.6101652964717,452.6434198683128,,,,,,,,,,,,,,,,,,,,,,,,,,,,,,,,,,,,,,,,575,2023-05-17_08h57.56.232,eb_02psyexp,2022.2.4,60.00094177748286,
155,0,155,0,,,,,,,,,,,,,,,,,,,,,,,,,,,,,,,,,,,,,,,,,,,,,,,,,,,,,,,,,,,452.6434198683128,452.6434198683128,452.6434198683128,452.6434198683128,452.6434198683128,452.6434198683128,s,1,0.5259150688070804,453.1933749235468,454.209974288824,,,,,,,,,,,,,,,,,,,,,,,,,,,,,,,,,,,,,,,,575,2023-05-17_08h57.56.232,eb_02psyexp,2022.2.4,60.00094177748286,
156,0,156,0,,,,,,,,,,,,,,,,,,,,,,,,,,,,,,,,,,,,,,,,,,,,,,,,,,,,,,,,,,,454.209974288824,454.209974288824,454.209974288824,454.209974288824,454.209974288824,454.209974288824,l,1,0.4073596871457994,454.6432662291918,455.65986710367724,,,,,,,,,,,,,,,,,,,,,,,,,,,,,,,,,,,,,,,,575,2023-05-17_08h57.56.232,eb_02psyexp,2022.2.4,60.00094177748286,
157,0,157,0,,,,,,,,,,,,,,,,,,,,,,,,,,,,,,,,,,,,,,,,,,,,,,,,,,,,,,,,,,,455.65986710367724,455.65986710367724,455.65986710367724,455.65986710367724,455.65986710367724,455.65986710367724,l,1,0.4694615912158042,456.15981669561006,457.176409722073,,,,,,,,,,,,,,,,,,,,,,,,,,,,,,,,,,,,,,,,575,2023-05-17_08h57.56.232,eb_02psyexp,2022.2.4,60.00094177748286,
158,0,158,0,,,,,,,,,,,,,,,,,,,,,,,,,,,,,,,,,,,,,,,,,,,,,,,,,,,,,,,,,,,457.176409722073,457.176409722073,457.176409722073,457.176409722073,457.176409722073,457.176409722073,l,1,0.368924246635288,457.5764235466486,458.60962921963073,,,,,,,,,,,,,,,,,,,,,,,,,,,,,,,,,,,,,,,,575,2023-05-17_08h57.56.232,eb_02psyexp,2022.2.4,60.00094177748286,
159,0,159,0,,,,,,,,,,,,,,,,,,,,,,,,,,,,,,,,,,,,,,,,,,,,,,,,,,,,,,,,,,,458.60962921963073,458.60962921963073,458.60962921963073,458.60962921963073,458.60962921963073,458.60962921963073,l,0,0.38274361891672015,459.0095911268145,460.0262037732173,,,,,,,,,,,,,,,,,,,,,,,,,,,,,,,,,,,,,,,,575,2023-05-17_08h57.56.232,eb_02psyexp,2022.2.4,60.00094177748286,
160,0,160,0,,,,,,,,,,,,,,,,,,,,,,,,,,,,,,,,,,,,,,,,,,,,,,,,,,,,,,,,,,,460.0262037732173,460.0262037732173,460.0262037732173,460.0262037732173,460.0262037732173,460.0262037732173,l,1,0.5021505055483431,460.55947253177874,461.59273132961243,,,,,,,,,,,,,,,,,,,,,,,,,,,,,,,,,,,,,,,,575,2023-05-17_08h57.56.232,eb_02psyexp,2022.2.4,60.00094177748286,
161,0,161,0,,,,,,,,,,,,,,,,,,,,,,,,,,,,,,,,,,,,,,,,,,,,,,,,,,,,,,,,,,,461.59273132961243,461.59273132961243,461.59273132961243,461.59273132961243,461.59273132961243,461.59273132961243,s,1,0.41565348382573575,462.0260335325729,463.04263440705836,,,,,,,,,,,,,,,,,,,,,,,,,,,,,,,,,,,,,,,,575,2023-05-17_08h57.56.232,eb_02psyexp,2022.2.4,60.00094177748286,
162,0,162,0,,,,,,,,,,,,,,,,,,,,,,,,,,,,,,,,,,,,,,,,,,,,,,,,,,,,,,,,,,,463.04263440705836,463.04263440705836,463.04263440705836,463.04263440705836,463.04263440705836,463.04263440705836,l,1,0.46971121709793806,463.54257464176044,464.5758467207197,,,,,,,,,,,,,,,,,,,,,,,,,,,,,,,,,,,,,,,,575,2023-05-17_08h57.56.232,eb_02psyexp,2022.2.4,60.00094177748286,
163,0,163,0,,,,,,,,,,,,,,,,,,,,,,,,,,,,,,,,,,,,,,,,,,,,,,,,,,,,,,,,,,,464.5758467207197,464.5758467207197,464.5758467207197,464.5758467207197,464.5758467207197,464.5758467207197,s,1,0.5365409203805029,465.1424575862475,466.15905423497315,,,,,,,,,,,,,,,,,,,,,,,,,,,,,,,,,,,,,,,,575,2023-05-17_08h57.56.232,eb_02psyexp,2022.2.4,60.00094177748286,
164,0,164,0,,,,,,,,,,,,,,,,,,,,,,,,,,,,,,,,,,,,,,,,,,,,,,,,,,,,,,,,,,,466.15905423497315,466.15905423497315,466.15905423497315,466.15905423497315,466.15905423497315,466.15905423497315,l,1,0.5053899066988379,466.6923248046078,467.7089311123127,,,,,,,,,,,,,,,,,,,,,,,,,,,,,,,,,,,,,,,,575,2023-05-17_08h57.56.232,eb_02psyexp,2022.2.4,60.00094177748286,
165,0,165,0,,,,,,,,,,,,,,,,,,,,,,,,,,,,,,,,,,,,,,,,,,,,,,,,,,,,,,,,,,,467.7089311123127,467.7089311123127,467.7089311123127,467.7089311123127,467.7089311123127,467.7089311123127,l,1,0.5074735431699082,468.24221073742956,469.2588318354683,,,,,,,,,,,,,,,,,,,,,,,,,,,,,,,,,,,,,,,,575,2023-05-17_08h57.56.232,eb_02psyexp,2022.2.4,60.00094177748286,
166,0,166,0,,,,,,,,,,,,,,,,,,,,,,,,,,,,,,,,,,,,,,,,,,,,,,,,,,,,,,,,,,,469.2588318354683,469.2588318354683,469.2588318354683,469.2588318354683,469.2588318354683,469.2588318354683,l,1,0.4935916889226064,469.7754305971321,470.80869060219266,,,,,,,,,,,,,,,,,,,,,,,,,,,,,,,,,,,,,,,,575,2023-05-17_08h57.56.232,eb_02psyexp,2022.2.4,60.00094177748286,
167,0,167,0,,,,,,,,,,,,,,,,,,,,,,,,,,,,,,,,,,,,,,,,,,,,,,,,,,,,,,,,,,,470.80869060219266,470.80869060219266,470.80869060219266,470.80869060219266,470.80869060219266,470.80869060219266,s,1,0.5277400240302086,471.3586381113855,472.3752371747978,,,,,,,,,,,,,,,,,,,,,,,,,,,,,,,,,,,,,,,,575,2023-05-17_08h57.56.232,eb_02psyexp,2022.2.4,60.00094177748286,
168,0,168,0,,,,,,,,,,,,,,,,,,,,,,,,,,,,,,,,,,,,,,,,,,,,,,,,,,,,,,,,,,,472.3752371747978,472.3752371747978,472.3752371747978,472.3752371747978,472.3752371747978,472.3752371747978,s,1,0.48923697031568736,472.89185374521185,473.9251113355858,,,,,,,,,,,,,,,,,,,,,,,,,,,,,,,,,,,,,,,,575,2023-05-17_08h57.56.232,eb_02psyexp,2022.2.4,60.00094177748286,
169,0,169,0,,,,,,,,,,,,,,,,,,,,,,,,,,,,,,,,,,,,,,,,,,,,,,,,,,,,,,,,,,,473.9251113355858,473.9251113355858,473.9251113355858,473.9251113355858,473.9251113355858,473.9251113355858,s,1,0.3383675658842549,474.2917426058557,475.3083486118121,,,,,,,,,,,,,,,,,,,,,,,,,,,,,,,,,,,,,,,,575,2023-05-17_08h57.56.232,eb_02psyexp,2022.2.4,60.00094177748286,
170,0,170,0,,,,,,,,,,,,,,,,,,,,,,,,,,,,,,,,,,,,,,,,,,,,,,,,,,,,,,,,,,,475.3083486118121,475.3083486118121,475.3083486118121,475.3083486118121,475.3083486118121,475.3083486118121,s,1,0.4591131352353841,475.79163454531226,476.8249060205417,,,,,,,,,,,,,,,,,,,,,,,,,,,,,,,,,,,,,,,,575,2023-05-17_08h57.56.232,eb_02psyexp,2022.2.4,60.00094177748286,
171,0,171,0,,,,,,,,,,,,,,,,,,,,,,,,,,,,,,,,,,,,,,,,,,,,,,,,,,,,,,,,,,,476.8249060205417,476.8249060205417,476.8249060205417,476.8249060205417,476.8249060205417,476.8249060205417,s,1,0.3185589839704335,477.1748805750394,478.1914781292435,,,,,,,,,,,,,,,,,,,,,,,,,,,,,,,,,,,,,,,,575,2023-05-17_08h57.56.232,eb_02psyexp,2022.2.4,60.00094177748286,
172,0,172,0,,,,,,,,,,,,,,,,,,,,,,,,,,,,,,,,,,,,,,,,,,,,,,,,,,,,,,,,,,,478.1914781292435,478.1914781292435,478.1914781292435,478.1914781292435,478.1914781292435,478.1914781292435,s,1,0.431975151761435,478.6413685292937,479.67466656689066,,,,,,,,,,,,,,,,,,,,,,,,,,,,,,,,,,,,,,,,575,2023-05-17_08h57.56.232,eb_02psyexp,2022.2.4,60.00094177748286,
173,0,173,0,,,,,,,,,,,,,,,,,,,,,,,,,,,,,,,,,,,,,,,,,,,,,,,,,,,,,,,,,,,479.67466656689066,479.67466656689066,479.67466656689066,479.67466656689066,479.67466656689066,479.67466656689066,s,1,0.2767996257171035,479.9746438077418,480.9912440786138,,,,,,,,,,,,,,,,,,,,,,,,,,,,,,,,,,,,,,,,575,2023-05-17_08h57.56.232,eb_02psyexp,2022.2.4,60.00094177748286,
174,0,174,0,,,,,,,,,,,,,,,,,,,,,,,,,,,,,,,,,,,,,,,,,,,,,,,,,,,,,,,,,,,480.9912440786138,480.9912440786138,480.9912440786138,480.9912440786138,480.9912440786138,480.9912440786138,s,0,0.3042466987390071,481.32453958073165,482.35779294522945,,,,,,,,,,,,,,,,,,,,,,,,,,,,,,,,,,,,,,,,575,2023-05-17_08h57.56.232,eb_02psyexp,2022.2.4,60.00094177748286,
175,0,175,0,,,,,,,,,,,,,,,,,,,,,,,,,,,,,,,,,,,,,,,,,,,,,,,,,,,,,,,,,,,482.35779294522945,482.35779294522945,482.35779294522945,482.35779294522945,482.35779294522945,482.35779294522945,s,1,0.4177051247097552,482.8077639378607,483.82436662341934,,,,,,,,,,,,,,,,,,,,,,,,,,,,,,,,,,,,,,,,575,2023-05-17_08h57.56.232,eb_02psyexp,2022.2.4,60.00094177748286,
176,0,176,0,,,,,,,,,,,,,,,,,,,,,,,,,,,,,,,,,,,,,,,,,,,,,,,,,,,,,,,,,,,483.82436662341934,483.82436662341934,483.82436662341934,483.82436662341934,483.82436662341934,483.82436662341934,s,0,0.3591384298633784,484.2076742295176,485.2242512583034,,,,,,,,,,,,,,,,,,,,,,,,,,,,,,,,,,,,,,,,575,2023-05-17_08h57.56.232,eb_02psyexp,2022.2.4,60.00094177748286,
177,0,177,0,,,,,,,,,,,,,,,,,,,,,,,,,,,,,,,,,,,,,,,,,,,,,,,,,,,,,,,,,,,485.2242512583034,485.2242512583034,485.2242512583034,485.2242512583034,485.2242512583034,485.2242512583034,l,1,0.463261391967535,485.7075350789819,486.72413595346734,,,,,,,,,,,,,,,,,,,,,,,,,,,,,,,,,,,,,,,,575,2023-05-17_08h57.56.232,eb_02psyexp,2022.2.4,60.00094177748286,
178,0,178,0,,,,,,,,,,,,,,,,,,,,,,,,,,,,,,,,,,,,,,,,,,,,,,,,,,,,,,,,,,,486.72413595346734,486.72413595346734,486.72413595346734,486.72413595346734,486.72413595346734,486.72413595346734,l,1,0.4514142752159387,487.207424000022,488.22400344349444,,,,,,,,,,,,,,,,,,,,,,,,,,,,,,,,,,,,,,,,575,2023-05-17_08h57.56.232,eb_02psyexp,2022.2.4,60.00094177748286,
179,0,179,0,,,,,,,,,,,,,,,,,,,,,,,,,,,,,,,,,,,,,,,,,,,,,,,,,,,,,,,,,,,488.22400344349444,488.22400344349444,488.22400344349444,488.22400344349444,488.22400344349444,488.22400344349444,s,1,0.5675295414403081,488.8239875060972,489.84056030900683,,,,,,,,,,,,,,,,,,,,,,,,,,,,,,,,,,,,,,,,575,2023-05-17_08h57.56.232,eb_02psyexp,2022.2.4,60.00094177748286,
180,0,180,0,,,,,,,,,,,,,,,,,,,,,,,,,,,,,,,,,,,,,,,,,,,,,,,,,,,,,,,,,,,489.84056030900683,489.84056030900683,489.84056030900683,489.84056030900683,489.84056030900683,489.84056030900683,l,1,0.8459900591988117,490.7071490191156,491.74040268547833,,,,,,,,,,,,,,,,,,,,,,,,,,,,,,,,,,,,,,,,575,2023-05-17_08h57.56.232,eb_02psyexp,2022.2.4,60.00094177748286,
181,0,181,0,,,,,,,,,,,,,,,,,,,,,,,,,,,,,,,,,,,,,,,,,,,,,,,,,,,,,,,,,,,491.74040268547833,491.74040268547833,491.74040268547833,491.74040268547833,491.74040268547833,491.74040268547833,l,1,0.538147339830175,492.30703196360264,493.3236373658292,,,,,,,,,,,,,,,,,,,,,,,,,,,,,,,,,,,,,,,,575,2023-05-17_08h57.56.232,eb_02psyexp,2022.2.4,60.00094177748286,
182,0,182,0,,,,,,,,,,,,,,,,,,,,,,,,,,,,,,,,,,,,,,,,,,,,,,,,,,,,,,,,,,,493.3236373658292,493.3236373658292,493.3236373658292,493.3236373658292,493.3236373658292,493.3236373658292,s,1,0.698929637670517,494.0402265890734,495.0734820665093,,,,,,,,,,,,,,,,,,,,,,,,,,,,,,,,,,,,,,,,575,2023-05-17_08h57.56.232,eb_02psyexp,2022.2.4,60.00094177748286,
183,0,183,0,,,,,,,,,,,,,,,,,,,,,,,,,,,,,,,,,,,,,,,,,,,,,,,,,,,,,,,,,,,495.0734820665093,495.0734820665093,495.0734820665093,495.0734820665093,495.0734820665093,495.0734820665093,s,1,0.4290677800308913,495.5234440038912,496.5400497078663,,,,,,,,,,,,,,,,,,,,,,,,,,,,,,,,,,,,,,,,575,2023-05-17_08h57.56.232,eb_02psyexp,2022.2.4,60.00094177748286,
184,0,184,0,,,,,,,,,,,,,,,,,,,,,,,,,,,,,,,,,,,,,,,,,,,,,,,,,,,,,,,,,,,496.5400497078663,496.5400497078663,496.5400497078663,496.5400497078663,496.5400497078663,496.5400497078663,s,1,0.650528178899549,497.2233104072511,498.25658097688574,,,,,,,,,,,,,,,,,,,,,,,,,,,,,,,,,,,,,,,,575,2023-05-17_08h57.56.232,eb_02psyexp,2022.2.4,60.00094177748286,
185,0,185,0,,,,,,,,,,,,,,,,,,,,,,,,,,,,,,,,,,,,,,,,,,,,,,,,,,,,,,,,,,,498.25658097688574,498.25658097688574,498.25658097688574,498.25658097688574,498.25658097688574,498.25658097688574,l,1,0.6059990904759616,498.88980904687196,499.906452783267,,,,,,,,,,,,,,,,,,,,,,,,,,,,,,,,,,,,,,,,575,2023-05-17_08h57.56.232,eb_02psyexp,2022.2.4,60.00094177748286,
186,0,186,0,,,,,,,,,,,,,,,,,,,,,,,,,,,,,,,,,,,,,,,,,,,,,,,,,,,,,,,,,,,499.906452783267,499.906452783267,499.906452783267,499.906452783267,499.906452783267,499.906452783267,l,1,0.5401534020202234,500.4730717986822,501.50632003182545,,,,,,,,,,,,,,,,,,,,,,,,,,,,,,,,,,,,,,,,575,2023-05-17_08h57.56.232,eb_02psyexp,2022.2.4,60.00094177748286,
187,0,187,0,,,,,,,,,,,,,,,,,,,,,,,,,,,,,,,,,,,,,,,,,,,,,,,,,,,,,,,,,,,501.50632003182545,501.50632003182545,501.50632003182545,501.50632003182545,501.50632003182545,501.50632003182545,s,1,0.5482893337029964,502.0729429712519,503.0895477697486,,,,,,,,,,,,,,,,,,,,,,,,,,,,,,,,,,,,,,,,575,2023-05-17_08h57.56.232,eb_02psyexp,2022.2.4,60.00094177748286,
188,0,188,0,,,,,,,,,,,,,,,,,,,,,,,,,,,,,,,,,,,,,,,,,,,,,,,,,,,,,,,,,,,503.0895477697486,503.0895477697486,503.0895477697486,503.0895477697486,503.0895477697486,503.0895477697486,l,1,0.46904112107586116,503.58948890992906,504.60611695051193,,,,,,,,,,,,,,,,,,,,,,,,,,,,,,,,,,,,,,,,575,2023-05-17_08h57.56.232,eb_02psyexp,2022.2.4,60.00094177748286,
189,0,189,0,,,,,,,,,,,,,,,,,,,,,,,,,,,,,,,,,,,,,,,,,,,,,,,,,,,,,,,,,,,504.60611695051193,504.60611695051193,504.60611695051193,504.60611695051193,504.60611695051193,504.60611695051193,l,1,0.4635236953618005,505.0893579091644,506.10598323319573,,,,,,,,,,,,,,,,,,,,,,,,,,,,,,,,,,,,,,,,575,2023-05-17_08h57.56.232,eb_02psyexp,2022.2.4,60.00094177748286,
190,0,190,0,,,,,,,,,,,,,,,,,,,,,,,,,,,,,,,,,,,,,,,,,,,,,,,,,,,,,,,,,,,506.10598323319573,506.10598323319573,506.10598323319573,506.10598323319573,506.10598323319573,506.10598323319573,l,1,0.9476511728717014,507.0725541948341,508.0891571822576,,,,,,,,,,,,,,,,,,,,,,,,,,,,,,,,,,,,,,,,575,2023-05-17_08h57.56.232,eb_02psyexp,2022.2.4,60.00094177748286,
191,0,191,0,,,,,,,,,,,,,,,,,,,,,,,,,,,,,,,,,,,,,,,,,,,,,,,,,,,,,,,,,,,508.0891571822576,508.0891571822576,508.0891571822576,508.0891571822576,508.0891571822576,508.0891571822576,l,1,0.5164691294776276,508.6224352980498,509.6390476427041,,,,,,,,,,,,,,,,,,,,,,,,,,,,,,,,,,,,,,,,575,2023-05-17_08h57.56.232,eb_02psyexp,2022.2.4,60.00094177748286,
192,0,192,0,,,,,,,,,,,,,,,,,,,,,,,,,,,,,,,,,,,,,,,,,,,,,,,,,,,,,,,,,,,509.6390476427041,509.6390476427041,509.6390476427041,509.6390476427041,509.6390476427041,509.6390476427041,l,1,0.5586100199725479,510.22231250745244,511.2389148911461,,,,,,,,,,,,,,,,,,,,,,,,,,,,,,,,,,,,,,,,575,2023-05-17_08h57.56.232,eb_02psyexp,2022.2.4,60.00094177748286,
193,0,193,0,,,,,,,,,,,,,,,,,,,,,,,,,,,,,,,,,,,,,,,,,,,,,,,,,,,,,,,,,,,511.2389148911461,511.2389148911461,511.2389148911461,511.2389148911461,511.2389148911461,511.2389148911461,l,1,0.39073194842785597,511.65553623076994,512.6721546123736,,,,,,,,,,,,,,,,,,,,,,,,,,,,,,,,,,,,,,,,575,2023-05-17_08h57.56.232,eb_02psyexp,2022.2.4,60.00094177748286,
194,0,194,0,,,,,,,,,,,,,,,,,,,,,,,,,,,,,,,,,,,,,,,,,,,,,,,,,,,,,,,,,,,512.6721546123736,512.6721546123736,512.6721546123736,512.6721546123736,512.6721546123736,512.6721546123736,l,1,0.3095114801544696,513.0054317018948,514.0386935180286,,,,,,,,,,,,,,,,,,,,,,,,,,,,,,,,,,,,,,,,575,2023-05-17_08h57.56.232,eb_02psyexp,2022.2.4,60.00094177748286,
195,0,195,0,,,,,,,,,,,,,,,,,,,,,,,,,,,,,,,,,,,,,,,,,,,,,,,,,,,,,,,,,,,514.0386935180286,514.0386935180286,514.0386935180286,514.0386935180286,514.0386935180286,514.0386935180286,s,1,0.4309814777225256,514.4886663218495,515.505253613228,,,,,,,,,,,,,,,,,,,,,,,,,,,,,,,,,,,,,,,,575,2023-05-17_08h57.56.232,eb_02psyexp,2022.2.4,60.00094177748286,
196,0,196,0,,,,,,,,,,,,,,,,,,,,,,,,,,,,,,,,,,,,,,,,,,,,,,,,,,,,,,,,,,,515.505253613228,515.505253613228,515.505253613228,515.505253613228,515.505253613228,515.505253613228,s,1,0.4444196196272969,515.9718725682469,517.00514042133,,,,,,,,,,,,,,,,,,,,,,,,,,,,,,,,,,,,,,,,575,2023-05-17_08h57.56.232,eb_02psyexp,2022.2.4,60.00094177748286,
197,0,197,0,,,,,,,,,,,,,,,,,,,,,,,,,,,,,,,,,,,,,,,,,,,,,,,,,,,,,,,,,,,517.00514042133,517.00514042133,517.00514042133,517.00514042133,517.00514042133,517.00514042133,s,1,0.32855428114999086,517.3550989780342,518.3717055876041,,,,,,,,,,,,,,,,,,,,,,,,,,,,,,,,,,,,,,,,575,2023-05-17_08h57.56.232,eb_02psyexp,2022.2.4,60.00094177748286,
198,0,198,0,,,,,,,,,,,,,,,,,,,,,,,,,,,,,,,,,,,,,,,,,,,,,,,,,,,,,,,,,,,518.3717055876041,518.3717055876041,518.3717055876041,518.3717055876041,518.3717055876041,518.3717055876041,l,0,0.37000243726652116,518.7716943590203,519.787936037872,,,,,,,,,,,,,,,,,,,,,,,,,,,,,,,,,,,,,,,,575,2023-05-17_08h57.56.232,eb_02psyexp,2022.2.4,60.00094177748286,
199,0,199,0,,,,,0,0,0,0,,,,,,,,,,,,,,,,,,,,,,,,,,,,,,,,,,,,,,,,,,,,,,,,,,,519.787936037872,519.787936037872,519.787936037872,519.787936037872,519.787936037872,519.787936037872,s,1,0.7377843408612534,520.5548479637364,521.5547673710389,521.5547673710389,521.5547673710389,space,23.985098976409063,,,,,,,,,,,,,,,,,,,,,,,,,,,,,,,,,,,,575,2023-05-17_08h57.56.232,eb_02psyexp,2022.2.4,60.00094177748286,
199,0,199,0,,,,,,,,,,,,,,,,,,,,,,,,,,,,,,,,,,,,,,,,,,,,,,,,,,,,,,,,,,,,,,,,,,,,,,,,,,,,,,,,,,,,,,,,,,,,,,,,,,,,,,,,,,,,,575,2023-05-17_08h57.56.232,eb_02psyexp,2022.2.4,60.00094177748286,
200,0,200,0,,,,,,,,,,,,,,,,,,,,,,,,,,,,,,,,,,,,,,,,,,,,,,,,,,,,,,,,,,,545.5862685249886,545.5862685249886,545.5862685249886,545.5862685249886,545.5862685249886,545.5862685249886,l,1,3.5696358162676916,549.1859878695104,550.2025793867651,,,,,,,,,,,,,,,,,,,,,,,,,,,,,,,,,,,,,,,,575,2023-05-17_08h57.56.232,eb_02psyexp,2022.2.4,60.00094177748286,
201,0,201,0,,,,,,,,,,,,,,,,,,,,,,,,,,,,,,,,,,,,,,,,,,,,,,,,,,,,,,,,,,,550.2025793867651,550.2025793867651,550.2025793867651,550.2025793867651,550.2025793867651,550.2025793867651,l,1,1.2653041585581377,551.4858060380211,552.5024063088931,,,,,,,,,,,,,,,,,,,,,,,,,,,,,,,,,,,,,,,,575,2023-05-17_08h57.56.232,eb_02psyexp,2022.2.4,60.00094177748286,
202,0,202,0,,,,,,,,,,,,,,,,,,,,,,,,,,,,,,,,,,,,,,,,,,,,,,,,,,,,,,,,,,,552.5024063088931,552.5024063088931,552.5024063088931,552.5024063088931,552.5024063088931,552.5024063088931,l,1,0.6364963076775894,553.1690072738566,554.1856099595316,,,,,,,,,,,,,,,,,,,,,,,,,,,,,,,,,,,,,,,,575,2023-05-17_08h57.56.232,eb_02psyexp,2022.2.4,60.00094177748286,
203,0,203,0,,,,,,,,,,,,,,,,,,,,,,,,,,,,,,,,,,,,,,,,,,,,,,,,,,,,,,,,,,,554.1856099595316,554.1856099595316,554.1856099595316,554.1856099595316,554.1856099595316,554.1856099595316,l,1,0.553296037716791,554.768898368231,555.8021472049877,,,,,,,,,,,,,,,,,,,,,,,,,,,,,,,,,,,,,,,,575,2023-05-17_08h57.56.232,eb_02psyexp,2022.2.4,60.00094177748286,
204,0,204,0,,,,,,,,,,,,,,,,,,,,,,,,,,,,,,,,,,,,,,,,,,,,,,,,,,,,,,,,,,,555.8021472049877,555.8021472049877,555.8021472049877,555.8021472049877,555.8021472049877,555.8021472049877,s,1,0.3927694025915116,556.2187757889042,557.2353534214199,,,,,,,,,,,,,,,,,,,,,,,,,,,,,,,,,,,,,,,,575,2023-05-17_08h57.56.232,eb_02psyexp,2022.2.4,60.00094177748286,
205,0,205,0,,,,,,,,,,,,,,,,,,,,,,,,,,,,,,,,,,,,,,,,,,,,,,,,,,,,,,,,,,,557.2353534214199,557.2353534214199,557.2353534214199,557.2353534214199,557.2353534214199,557.2353534214199,l,1,0.4475720894988626,557.7019871667726,558.7352510958444,,,,,,,,,,,,,,,,,,,,,,,,,,,,,,,,,,,,,,,,575,2023-05-17_08h57.56.232,eb_02psyexp,2022.2.4,60.00094177748286,
206,0,206,0,,,,,,,,,,,,,,,,,,,,,,,,,,,,,,,,,,,,,,,,,,,,,,,,,,,,,,,,,,,558.7352510958444,558.7352510958444,558.7352510958444,558.7352510958444,558.7352510958444,558.7352510958444,s,1,0.6036806184565648,559.3685298757628,560.385139805614,,,,,,,,,,,,,,,,,,,,,,,,,,,,,,,,,,,,,,,,575,2023-05-17_08h57.56.232,eb_02psyexp,2022.2.4,60.00094177748286,
207,0,207,0,,,,,,,,,,,,,,,,,,,,,,,,,,,,,,,,,,,,,,,,,,,,,,,,,,,,,,,,,,,560.385139805614,560.385139805614,560.385139805614,560.385139805614,560.385139805614,560.385139805614,l,1,0.4738021231023595,560.8850836624624,561.9183554394403,,,,,,,,,,,,,,,,,,,,,,,,,,,,,,,,,,,,,,,,575,2023-05-17_08h57.56.232,eb_02psyexp,2022.2.4,60.00094177748286,
208,0,208,0,,,,,,,,,,,,,,,,,,,,,,,,,,,,,,,,,,,,,,,,,,,,,,,,,,,,,,,,,,,561.9183554394403,561.9183554394403,561.9183554394403,561.9183554394403,561.9183554394403,561.9183554394403,s,1,0.5085988214705139,562.4516266129212,563.4682353353128,,,,,,,,,,,,,,,,,,,,,,,,,,,,,,,,,,,,,,,,575,2023-05-17_08h57.56.232,eb_02psyexp,2022.2.4,60.00094177748286,
209,0,209,0,,,,,,,,,,,,,,,,,,,,,,,,,,,,,,,,,,,,,,,,,,,,,,,,,,,,,,,,,,,563.4682353353128,563.4682353353128,563.4682353353128,563.4682353353128,563.4682353353128,563.4682353353128,s,1,0.4707136445213109,563.9681764756097,565.0014470452443,,,,,,,,,,,,,,,,,,,,,,,,,,,,,,,,,,,,,,,,575,2023-05-17_08h57.56.232,eb_02psyexp,2022.2.4,60.00094177748286,
210,0,210,0,,,,,,,,,,,,,,,,,,,,,,,,,,,,,,,,,,,,,,,,,,,,,,,,,,,,,,,,,,,565.0014470452443,565.0014470452443,565.0014470452443,565.0014470452443,565.0014470452443,565.0014470452443,s,1,0.3295162614667788,565.3514116387814,566.3680158336647,,,,,,,,,,,,,,,,,,,,,,,,,,,,,,,,,,,,,,,,575,2023-05-17_08h57.56.232,eb_02psyexp,2022.2.4,60.00094177748286,
211,0,211,0,,,,,,,,,,,,,,,,,,,,,,,,,,,,,,,,,,,,,,,,,,,,,,,,,,,,,,,,,,,566.3680158336647,566.3680158336647,566.3680158336647,566.3680158336647,566.3680158336647,566.3680158336647,l,1,0.34694449324160814,566.7346329172142,567.7512292640749,,,,,,,,,,,,,,,,,,,,,,,,,,,,,,,,,,,,,,,,575,2023-05-17_08h57.56.232,eb_02psyexp,2022.2.4,60.00094177748286,
212,0,212,0,,,,,,,,,,,,,,,,,,,,,,,,,,,,,,,,,,,,,,,,,,,,,,,,,,,,,,,,,,,567.7512292640749,567.7512292640749,567.7512292640749,567.7512292640749,567.7512292640749,567.7512292640749,l,1,0.3227751557715237,568.1011950649554,569.1177989579737,,,,,,,,,,,,,,,,,,,,,,,,,,,,,,,,,,,,,,,,575,2023-05-17_08h57.56.232,eb_02psyexp,2022.2.4,60.00094177748286,
213,0,213,0,,,,,,,,,,,,,,,,,,,,,,,,,,,,,,,,,,,,,,,,,,,,,,,,,,,,,,,,,,,569.1177989579737,569.1177989579737,569.1177989579737,569.1177989579737,569.1177989579737,569.1177989579737,l,1,0.3881889038020745,569.5344308621716,570.5507105734432,,,,,,,,,,,,,,,,,,,,,,,,,,,,,,,,,,,,,,,,575,2023-05-17_08h57.56.232,eb_02psyexp,2022.2.4,60.00094177748286,
214,0,214,0,,,,,,,,,,,,,,,,,,,,,,,,,,,,,,,,,,,,,,,,,,,,,,,,,,,,,,,,,,,570.5507105734432,570.5507105734432,570.5507105734432,570.5507105734432,570.5507105734432,570.5507105734432,s,1,0.515291933901608,571.084297476802,572.1008983512875,,,,,,,,,,,,,,,,,,,,,,,,,,,,,,,,,,,,,,,,575,2023-05-17_08h57.56.232,eb_02psyexp,2022.2.4,60.00094177748286,
215,0,215,0,,,,,,,,,,,,,,,,,,,,,,,,,,,,,,,,,,,,,,,,,,,,,,,,,,,,,,,,,,,572.1008983512875,572.1008983512875,572.1008983512875,572.1008983512875,572.1008983512875,572.1008983512875,l,1,0.4771251353668049,572.6008479432203,573.6174379512668,,,,,,,,,,,,,,,,,,,,,,,,,,,,,,,,,,,,,,,,575,2023-05-17_08h57.56.232,eb_02psyexp,2022.2.4,60.00094177748286,
216,0,216,0,,,,,,,,,,,,,,,,,,,,,,,,,,,,,,,,,,,,,,,,,,,,,,,,,,,,,,,,,,,573.6174379512668,573.6174379512668,573.6174379512668,573.6174379512668,573.6174379512668,573.6174379512668,l,1,0.4965820679208264,574.1340653881198,575.1673187526176,,,,,,,,,,,,,,,,,,,,,,,,,,,,,,,,,,,,,,,,575,2023-05-17_08h57.56.232,eb_02psyexp,2022.2.4,60.00094177748286,
217,0,217,0,,,,,,,,,,,,,,,,,,,,,,,,,,,,,,,,,,,,,,,,,,,,,,,,,,,,,,,,,,,575.1673187526176,575.1673187526176,575.1673187526176,575.1673187526176,575.1673187526176,575.1673187526176,s,1,0.4507351238280535,575.6506164581515,576.6672118995339,,,,,,,,,,,,,,,,,,,,,,,,,,,,,,,,,,,,,,,,575,2023-05-17_08h57.56.232,eb_02psyexp,2022.2.4,60.00094177748286,
218,0,218,0,,,,,,,,,,,,,,,,,,,,,,,,,,,,,,,,,,,,,,,,,,,,,,,,,,,,,,,,,,,576.6672118995339,576.6672118995339,576.6672118995339,576.6672118995339,576.6672118995339,576.6672118995339,s,1,0.5188195969676599,577.2171639363514,578.2504245451419,,,,,,,,,,,,,,,,,,,,,,,,,,,,,,,,,,,,,,,,575,2023-05-17_08h57.56.232,eb_02psyexp,2022.2.4,60.00094177748286,
219,0,219,0,,,,,,,,,,,,,,,,,,,,,,,,,,,,,,,,,,,,,,,,,,,,,,,,,,,,,,,,,,,578.2504245451419,578.2504245451419,578.2504245451419,578.2504245451419,578.2504245451419,578.2504245451419,s,1,0.5596208990318701,578.8337066151435,579.8502782105934,,,,,,,,,,,,,,,,,,,,,,,,,,,,,,,,,,,,,,,,575,2023-05-17_08h57.56.232,eb_02psyexp,2022.2.4,60.00094177748286,
220,0,220,0,,,,,,,,,,,,,,,,,,,,,,,,,,,,,,,,,,,,,,,,,,,,,,,,,,,,,,,,,,,579.8502782105934,579.8502782105934,579.8502782105934,579.8502782105934,579.8502782105934,579.8502782105934,l,1,0.5837784645846114,580.4669072170509,581.4834917919943,,,,,,,,,,,,,,,,,,,,,,,,,,,,,,,,,,,,,,,,575,2023-05-17_08h57.56.232,eb_02psyexp,2022.2.4,60.00094177748286,
221,0,221,0,,,,,,,,,,,,,,,,,,,,,,,,,,,,,,,,,,,,,,,,,,,,,,,,,,,,,,,,,,,581.4834917919943,581.4834917919943,581.4834917919943,581.4834917919943,581.4834917919943,581.4834917919943,l,1,0.42255275626666844,581.9334606716875,582.9667092066957,,,,,,,,,,,,,,,,,,,,,,,,,,,,,,,,,,,,,,,,575,2023-05-17_08h57.56.232,eb_02psyexp,2022.2.4,60.00094177748286,
222,0,222,0,,,,,,,,,,,,,,,,,,,,,,,,,,,,,,,,,,,,,,,,,,,,,,,,,,,,,,,,,,,582.9667092066957,582.9667092066957,582.9667092066957,582.9667092066957,582.9667092066957,582.9667092066957,s,1,0.4663894122932106,583.4500268340344,584.4666108052479,,,,,,,,,,,,,,,,,,,,,,,,,,,,,,,,,,,,,,,,575,2023-05-17_08h57.56.232,eb_02psyexp,2022.2.4,60.00094177748286,
223,0,223,0,,,,,,,,,,,,,,,,,,,,,,,,,,,,,,,,,,,,,,,,,,,,,,,,,,,,,,,,,,,584.4666108052479,584.4666108052479,584.4666108052479,584.4666108052479,584.4666108052479,584.4666108052479,l,1,0.4544662305852398,584.9498870797688,585.9664523366373,,,,,,,,,,,,,,,,,,,,,,,,,,,,,,,,,,,,,,,,575,2023-05-17_08h57.56.232,eb_02psyexp,2022.2.4,60.00094177748286,
224,0,224,0,,,,,,,,,,,,,,,,,,,,,,,,,,,,,,,,,,,,,,,,,,,,,,,,,,,,,,,,,,,585.9664523366373,585.9664523366373,585.9664523366373,585.9664523366373,585.9664523366373,585.9664523366373,l,1,0.41865774767939,586.4164664931595,587.4330640473636,,,,,,,,,,,,,,,,,,,,,,,,,,,,,,,,,,,,,,,,575,2023-05-17_08h57.56.232,eb_02psyexp,2022.2.4,60.00094177748286,
225,0,225,0,,,,,,,,,,,,,,,,,,,,,,,,,,,,,,,,,,,,,,,,,,,,,,,,,,,,,,,,,,,587.4330640473636,587.4330640473636,587.4330640473636,587.4330640473636,587.4330640473636,587.4330640473636,l,1,0.41599909646902233,587.8663414990297,588.8995975801954,,,,,,,,,,,,,,,,,,,,,,,,,,,,,,,,,,,,,,,,575,2023-05-17_08h57.56.232,eb_02psyexp,2022.2.4,60.00094177748286,
226,0,226,0,,,,,,,,,,,,,,,,,,,,,,,,,,,,,,,,,,,,,,,,,,,,,,,,,,,,,,,,,,,588.8995975801954,588.8995975801954,588.8995975801954,588.8995975801954,588.8995975801954,588.8995975801954,s,1,0.33353170624468476,589.2662315671332,590.2828408932546,,,,,,,,,,,,,,,,,,,,,,,,,,,,,,,,,,,,,,,,575,2023-05-17_08h57.56.232,eb_02psyexp,2022.2.4,60.00094177748286,
227,0,227,0,,,,,,,,,,,,,,,,,,,,,,,,,,,,,,,,,,,,,,,,,,,,,,,,,,,,,,,,,,,590.2828408932546,590.2828408932546,590.2828408932546,590.2828408932546,590.2828408932546,590.2828408932546,s,1,0.42225966486148536,590.7327847199049,591.7660435176222,,,,,,,,,,,,,,,,,,,,,,,,,,,,,,,,,,,,,,,,575,2023-05-17_08h57.56.232,eb_02psyexp,2022.2.4,60.00094177748286,
228,0,228,0,,,,,,,,,,,,,,,,,,,,,,,,,,,,,,,,,,,,,,,,,,,,,,,,,,,,,,,,,,,591.7660435176222,591.7660435176222,591.7660435176222,591.7660435176222,591.7660435176222,591.7660435176222,s,1,0.5150688702706248,592.2993321979884,593.3159366947366,,,,,,,,,,,,,,,,,,,,,,,,,,,,,,,,,,,,,,,,575,2023-05-17_08h57.56.232,eb_02psyexp,2022.2.4,60.00094177748286,
229,0,229,0,,,,,,,,,,,,,,,,,,,,,,,,,,,,,,,,,,,,,,,,,,,,,,,,,,,,,,,,,,,593.3159366947366,593.3159366947366,593.3159366947366,593.3159366947366,593.3159366947366,593.3159366947366,s,1,0.40517976216506213,593.7492256165715,594.7824744533282,,,,,,,,,,,,,,,,,,,,,,,,,,,,,,,,,,,,,,,,575,2023-05-17_08h57.56.232,eb_02psyexp,2022.2.4,60.00094177748286,
230,0,230,0,,,,,,,,,,,,,,,,,,,,,,,,,,,,,,,,,,,,,,,,,,,,,,,,,,,,,,,,,,,594.7824744533282,594.7824744533282,594.7824744533282,594.7824744533282,594.7824744533282,594.7824744533282,s,1,0.4106497982284054,595.2157763545401,596.2323742106091,,,,,,,,,,,,,,,,,,,,,,,,,,,,,,,,,,,,,,,,575,2023-05-17_08h57.56.232,eb_02psyexp,2022.2.4,60.00094177748286,
231,0,231,0,,,,,,,,,,,,,,,,,,,,,,,,,,,,,,,,,,,,,,,,,,,,,,,,,,,,,,,,,,,596.2323742106091,596.2323742106091,596.2323742106091,596.2323742106091,596.2323742106091,596.2323742106091,l,1,0.344772718148306,596.5990060846088,597.6322519030655,,,,,,,,,,,,,,,,,,,,,,,,,,,,,,,,,,,,,,,,575,2023-05-17_08h57.56.232,eb_02psyexp,2022.2.4,60.00094177748286,
232,0,232,0,,,,,,,,,,,,,,,,,,,,,,,,,,,,,,,,,,,,,,,,,,,,,,,,,,,,,,,,,,,597.6322519030655,597.6322519030655,597.6322519030655,597.6322519030655,597.6322519030655,597.6322519030655,s,1,0.3289017048664391,597.9822291741148,598.998826124589,,,,,,,,,,,,,,,,,,,,,,,,,,,,,,,,,,,,,,,,575,2023-05-17_08h57.56.232,eb_02psyexp,2022.2.4,60.00094177748286,
233,0,233,0,,,,,,,,,,,,,,,,,,,,,,,,,,,,,,,,,,,,,,,,,,,,,,,,,,,,,,,,,,,598.998826124589,598.998826124589,598.998826124589,598.998826124589,598.998826124589,598.998826124589,s,1,0.5533241092925891,599.5821181554347,600.6153171878541,,,,,,,,,,,,,,,,,,,,,,,,,,,,,,,,,,,,,,,,575,2023-05-17_08h57.56.232,eb_02psyexp,2022.2.4,60.00094177748286,
234,0,234,0,,,,,,,,,,,,,,,,,,,,,,,,,,,,,,,,,,,,,,,,,,,,,,,,,,,,,,,,,,,600.6153171878541,600.6153171878541,600.6153171878541,600.6153171878541,600.6153171878541,600.6153171878541,s,1,0.4568462789757177,601.0986607738305,602.1152676852653,,,,,,,,,,,,,,,,,,,,,,,,,,,,,,,,,,,,,,,,575,2023-05-17_08h57.56.232,eb_02psyexp,2022.2.4,60.00094177748286,
235,0,235,0,,,,,,,,,,,,,,,,,,,,,,,,,,,,,,,,,,,,,,,,,,,,,,,,,,,,,,,,,,,602.1152676852653,602.1152676852653,602.1152676852653,602.1152676852653,602.1152676852653,602.1152676852653,l,1,0.5329426253447309,602.6652073464356,603.6984543722356,,,,,,,,,,,,,,,,,,,,,,,,,,,,,,,,,,,,,,,,575,2023-05-17_08h57.56.232,eb_02psyexp,2022.2.4,60.00094177748286,
236,0,236,0,,,,,,,,,,,,,,,,,,,,,,,,,,,,,,,,,,,,,,,,,,,,,,,,,,,,,,,,,,,603.6984543722356,603.6984543722356,603.6984543722356,603.6984543722356,603.6984543722356,603.6984543722356,s,1,0.5017019638326019,604.2317617670633,605.248353284318,,,,,,,,,,,,,,,,,,,,,,,,,,,,,,,,,,,,,,,,575,2023-05-17_08h57.56.232,eb_02psyexp,2022.2.4,60.00094177748286,
237,0,237,0,,,,,,,,,,,,,,,,,,,,,,,,,,,,,,,,,,,,,,,,,,,,,,,,,,,,,,,,,,,605.248353284318,605.248353284318,605.248353284318,605.248353284318,605.248353284318,605.248353284318,l,1,0.4798480797326192,605.7483131389599,606.7648992229952,,,,,,,,,,,,,,,,,,,,,,,,,,,,,,,,,,,,,,,,575,2023-05-17_08h57.56.232,eb_02psyexp,2022.2.4,60.00094177748286,
238,0,238,0,,,,,,,,,,,,,,,,,,,,,,,,,,,,,,,,,,,,,,,,,,,,,,,,,,,,,,,,,,,606.7648992229952,606.7648992229952,606.7648992229952,606.7648992229952,606.7648992229952,606.7648992229952,l,1,0.6833414533175528,607.464832636062,608.4980926411226,,,,,,,,,,,,,,,,,,,,,,,,,,,,,,,,,,,,,,,,575,2023-05-17_08h57.56.232,eb_02psyexp,2022.2.4,60.00094177748286,
239,0,239,0,,,,,,,,,,,,,,,,,,,,,,,,,,,,,,,,,,,,,,,,,,,,,,,,,,,,,,,,,,,608.4980926411226,608.4980926411226,608.4980926411226,608.4980926411226,608.4980926411226,608.4980926411226,s,1,0.5741034250240773,609.0980401803972,610.114628377487,,,,,,,,,,,,,,,,,,,,,,,,,,,,,,,,,,,,,,,,575,2023-05-17_08h57.56.232,eb_02psyexp,2022.2.4,60.00094177748286,
240,0,240,0,,,,,,,,,,,,,,,,,,,,,,,,,,,,,,,,,,,,,,,,,,,,,,,,,,,,,,,,,,,610.114628377487,610.114628377487,610.114628377487,610.114628377487,610.114628377487,610.114628377487,l,1,0.589598037302494,610.7312534599332,611.7478537308052,,,,,,,,,,,,,,,,,,,,,,,,,,,,,,,,,,,,,,,,575,2023-05-17_08h57.56.232,eb_02psyexp,2022.2.4,60.00094177748286,
241,0,241,0,,,,,,,,,,,,,,,,,,,,,,,,,,,,,,,,,,,,,,,,,,,,,,,,,,,,,,,,,,,611.7478537308052,611.7478537308052,611.7478537308052,611.7478537308052,611.7478537308052,611.7478537308052,l,1,0.5083754560910165,612.2811309410026,613.2977357394993,,,,,,,,,,,,,,,,,,,,,,,,,,,,,,,,,,,,,,,,575,2023-05-17_08h57.56.232,eb_02psyexp,2022.2.4,60.00094177748286,
242,0,242,0,,,,,,,,,,,,,,,,,,,,,,,,,,,,,,,,,,,,,,,,,,,,,,,,,,,,,,,,,,,613.2977357394993,613.2977357394993,613.2977357394993,613.2977357394993,613.2977357394993,613.2977357394993,s,0,0.4545048667350784,613.7810189565644,614.8142768486869,,,,,,,,,,,,,,,,,,,,,,,,,,,,,,,,,,,,,,,,575,2023-05-17_08h57.56.232,eb_02psyexp,2022.2.4,60.00094177748286,
243,0,243,0,,,,,,,,,,,,,,,,,,,,,,,,,,,,,,,,,,,,,,,,,,,,,,,,,,,,,,,,,,,614.8142768486869,614.8142768486869,614.8142768486869,614.8142768486869,614.8142768486869,614.8142768486869,s,1,0.5289778906153515,615.3642418648815,616.3807871998288,,,,,,,,,,,,,,,,,,,,,,,,,,,,,,,,,,,,,,,,575,2023-05-17_08h57.56.232,eb_02psyexp,2022.2.4,60.00094177748286,
244,0,244,0,,,,,,,,,,,,,,,,,,,,,,,,,,,,,,,,,,,,,,,,,,,,,,,,,,,,,,,,,,,616.3807871998288,616.3807871998288,616.3807871998288,616.3807871998288,616.3807871998288,616.3807871998288,s,1,0.5944743441650644,616.9974394483725,618.0973697826266,,,,,,,,,,,,,,,,,,,,,,,,,,,,,,,,,,,,,,,,575,2023-05-17_08h57.56.232,eb_02psyexp,2022.2.4,60.00094177748286,
245,0,245,0,,,,,,,,,,,,,,,,,,,,,,,,,,,,,,,,,,,,,,,,,,,,,,,,,,,,,,,,,,,618.0973697826266,618.0973697826266,618.0973697826266,618.0973697826266,618.0973697826266,618.0973697826266,s,1,0.4858674738788977,618.6139800142264,619.6305712297326,,,,,,,,,,,,,,,,,,,,,,,,,,,,,,,,,,,,,,,,575,2023-05-17_08h57.56.232,eb_02psyexp,2022.2.4,60.00094177748286,
246,0,246,0,,,,,,,,,,,,,,,,,,,,,,,,,,,,,,,,,,,,,,,,,,,,,,,,,,,,,,,,,,,619.6305712297326,619.6305712297326,619.6305712297326,619.6305712297326,619.6305712297326,619.6305712297326,l,1,0.3766991717275232,620.0305370609276,621.0638015936129,,,,,,,,,,,,,,,,,,,,,,,,,,,,,,,,,,,,,,,,575,2023-05-17_08h57.56.232,eb_02psyexp,2022.2.4,60.00094177748286,
247,0,247,0,,,,,,,,,,,,,,,,,,,,,,,,,,,,,,,,,,,,,,,,,,,,,,,,,,,,,,,,,,,621.0638015936129,621.0638015936129,621.0638015936129,621.0638015936129,621.0638015936129,621.0638015936129,l,0,0.3114822265924886,621.3970949827926,622.4137037053006,,,,,,,,,,,,,,,,,,,,,,,,,,,,,,,,,,,,,,,,575,2023-05-17_08h57.56.232,eb_02psyexp,2022.2.4,60.00094177748286,
248,0,248,0,,,,,,,,,,,,,,,,,,,,,,,,,,,,,,,,,,,,,,,,,,,,,,,,,,,,,,,,,,,622.4137037053006,622.4137037053006,622.4137037053006,622.4137037053006,622.4137037053006,622.4137037053006,l,1,0.7295756646199152,623.1636253765319,624.1801882185973,,,,,,,,,,,,,,,,,,,,,,,,,,,,,,,,,,,,,,,,575,2023-05-17_08h57.56.232,eb_02psyexp,2022.2.4,60.00094177748286,
249,0,249,0,,,,,,,,,,,,,,,,,,,,,,,,,,,,,,,,,,,,,,,,,,,,,,,,,,,,,,,,,,,624.1801882185973,624.1801882185973,624.1801882185973,624.1801882185973,624.1801882185973,624.1801882185973,l,1,0.483109213761054,624.6801803705748,625.6967513624113,,,,,,,,,,,,,,,,,,,,,,,,,,,,,,,,,,,,,,,,575,2023-05-17_08h57.56.232,eb_02psyexp,2022.2.4,60.00094177748286,
250,0,250,0,,,,,,,,,,,,,,,,,,,,,,,,,,,,,,,,,,,,,,,,,,,,,,,,,,,,,,,,,,,625.6967513624113,625.6967513624113,625.6967513624113,625.6967513624113,625.6967513624113,625.6967513624113,l,1,0.3825610027415678,626.096759753651,627.11333859351,,,,,,,,,,,,,,,,,,,,,,,,,,,,,,,,,,,,,,,,575,2023-05-17_08h57.56.232,eb_02psyexp,2022.2.4,60.00094177748286,
251,0,251,0,,,,,,,,,,,,,,,,,,,,,,,,,,,,,,,,,,,,,,,,,,,,,,,,,,,,,,,,,,,627.11333859351,627.11333859351,627.11333859351,627.11333859351,627.11333859351,627.11333859351,s,1,0.5979854059405625,627.7299479800276,628.7465530803893,,,,,,,,,,,,,,,,,,,,,,,,,,,,,,,,,,,,,,,,575,2023-05-17_08h57.56.232,eb_02psyexp,2022.2.4,60.00094177748286,
252,0,252,0,,,,,,,,,,,,,,,,,,,,,,,,,,,,,,,,,,,,,,,,,,,,,,,,,,,,,,,,,,,628.7465530803893,628.7465530803893,628.7465530803893,628.7465530803893,628.7465530803893,628.7465530803893,s,1,0.5247783203376457,629.296496363706,630.313091503107,,,,,,,,,,,,,,,,,,,,,,,,,,,,,,,,,,,,,,,,575,2023-05-17_08h57.56.232,eb_02psyexp,2022.2.4,60.00094177748286,
253,0,253,0,,,,,,,,,,,,,,,,,,,,,,,,,,,,,,,,,,,,,,,,,,,,,,,,,,,,,,,,,,,630.313091503107,630.313091503107,630.313091503107,630.313091503107,630.313091503107,630.313091503107,s,1,0.3892184974392876,630.7297264258377,631.7463297150098,,,,,,,,,,,,,,,,,,,,,,,,,,,,,,,,,,,,,,,,575,2023-05-17_08h57.56.232,eb_02psyexp,2022.2.4,60.00094177748286,
254,0,254,0,,,,,,,,,,,,,,,,,,,,,,,,,,,,,,,,,,,,,,,,,,,,,,,,,,,,,,,,,,,631.7463297150098,631.7463297150098,631.7463297150098,631.7463297150098,631.7463297150098,631.7463297150098,l,1,0.48399965662974864,632.2629345135065,633.2961800300982,,,,,,,,,,,,,,,,,,,,,,,,,,,,,,,,,,,,,,,,575,2023-05-17_08h57.56.232,eb_02psyexp,2022.2.4,60.00094177748286,
255,0,255,0,,,,,,,,,,,,,,,,,,,,,,,,,,,,,,,,,,,,,,,,,,,,,,,,,,,,,,,,,,,633.2961800300982,633.2961800300982,633.2961800300982,633.2961800300982,633.2961800300982,633.2961800300982,s,1,0.7501711564837024,634.0794573912863,635.0960624916479,,,,,,,,,,,,,,,,,,,,,,,,,,,,,,,,,,,,,,,,575,2023-05-17_08h57.56.232,eb_02psyexp,2022.2.4,60.00094177748286,
256,0,256,0,,,,,,,,,,,,,,,,,,,,,,,,,,,,,,,,,,,,,,,,,,,,,,,,,,,,,,,,,,,635.0960624916479,635.0960624916479,635.0960624916479,635.0960624916479,635.0960624916479,635.0960624916479,l,1,0.5183043475262821,635.646006680443,636.6626075549284,,,,,,,,,,,,,,,,,,,,,,,,,,,,,,,,,,,,,,,,575,2023-05-17_08h57.56.232,eb_02psyexp,2022.2.4,60.00094177748286,
257,0,257,0,,,,,,,,,,,,,,,,,,,,,,,,,,,,,,,,,,,,,,,,,,,,,,,,,,,,,,,,,,,636.6626075549284,636.6626075549284,636.6626075549284,636.6626075549284,636.6626075549284,636.6626075549284,s,1,0.6797685134224594,637.3625258756801,638.3791418424807,,,,,,,,,,,,,,,,,,,,,,,,,,,,,,,,,,,,,,,,575,2023-05-17_08h57.56.232,eb_02psyexp,2022.2.4,60.00094177748286,
258,0,258,0,,,,,,,,,,,,,,,,,,,,,,,,,,,,,,,,,,,,,,,,,,,,,,,,,,,,,,,,,,,638.3791418424807,638.3791418424807,638.3791418424807,638.3791418424807,638.3791418424807,638.3791418424807,l,1,0.4912650672486052,638.8957611295627,639.9123553634854,,,,,,,,,,,,,,,,,,,,,,,,,,,,,,,,,,,,,,,,575,2023-05-17_08h57.56.232,eb_02psyexp,2022.2.4,60.00094177748286,
259,0,259,0,,,,,,,,,,,,,,,,,,,,,,,,,,,,,,,,,,,,,,,,,,,,,,,,,,,,,,,,,,,639.9123553634854,639.9123553634854,639.9123553634854,639.9123553634854,639.9123553634854,639.9123553634854,l,1,0.6060688166180626,640.5456311248709,641.5622277734801,,,,,,,,,,,,,,,,,,,,,,,,,,,,,,,,,,,,,,,,575,2023-05-17_08h57.56.232,eb_02psyexp,2022.2.4,60.00094177748286,
260,0,260,0,,,,,,,,,,,,,,,,,,,,,,,,,,,,,,,,,,,,,,,,,,,,,,,,,,,,,,,,,,,641.5622277734801,641.5622277734801,641.5622277734801,641.5622277734801,641.5622277734801,641.5622277734801,l,1,0.6361733333906159,642.2288103260798,643.2620875362772,,,,,,,,,,,,,,,,,,,,,,,,,,,,,,,,,,,,,,,,575,2023-05-17_08h57.56.232,eb_02psyexp,2022.2.4,60.00094177748286,
261,0,261,0,,,,,,,,,,,,,,,,,,,,,,,,,,,,,,,,,,,,,,,,,,,,,,,,,,,,,,,,,,,643.2620875362772,643.2620875362772,643.2620875362772,643.2620875362772,643.2620875362772,643.2620875362772,s,1,0.4883133244002238,643.7787204063497,644.7953203753568,,,,,,,,,,,,,,,,,,,,,,,,,,,,,,,,,,,,,,,,575,2023-05-17_08h57.56.232,eb_02psyexp,2022.2.4,60.00094177748286,
262,0,262,0,,,,,,,,,,,,,,,,,,,,,,,,,,,,,,,,,,,,,,,,,,,,,,,,,,,,,,,,,,,644.7953203753568,644.7953203753568,644.7953203753568,644.7953203753568,644.7953203753568,644.7953203753568,l,1,0.435083853895776,645.261932387948,646.2951917893952,,,,,,,,,,,,,,,,,,,,,,,,,,,,,,,,,,,,,,,,575,2023-05-17_08h57.56.232,eb_02psyexp,2022.2.4,60.00094177748286,
263,0,263,0,,,,,,,,,,,,,,,,,,,,,,,,,,,,,,,,,,,,,,,,,,,,,,,,,,,,,,,,,,,646.2951917893952,646.2951917893952,646.2951917893952,646.2951917893952,646.2951917893952,646.2951917893952,s,1,0.5342396536143497,646.8618307264987,647.8784309973707,,,,,,,,,,,,,,,,,,,,,,,,,,,,,,,,,,,,,,,,575,2023-05-17_08h57.56.232,eb_02psyexp,2022.2.4,60.00094177748286,
264,0,264,0,,,,,,,,,,,,,,,,,,,,,,,,,,,,,,,,,,,,,,,,,,,,,,,,,,,,,,,,,,,647.8784309973707,647.8784309973707,647.8784309973707,647.8784309973707,647.8784309973707,647.8784309973707,l,1,0.5910100685432553,648.4950210658135,649.5116183181526,,,,,,,,,,,,,,,,,,,,,,,,,,,,,,,,,,,,,,,,575,2023-05-17_08h57.56.232,eb_02psyexp,2022.2.4,60.00094177748286,
265,0,265,0,,,,,,,,,,,,,,,,,,,,,,,,,,,,,,,,,,,,,,,,,,,,,,,,,,,,,,,,,,,649.5116183181526,649.5116183181526,649.5116183181526,649.5116183181526,649.5116183181526,649.5116183181526,l,1,0.4778006647247821,650.0115685136989,651.0281711992575,,,,,,,,,,,,,,,,,,,,,,,,,,,,,,,,,,,,,,,,575,2023-05-17_08h57.56.232,eb_02psyexp,2022.2.4,60.00094177748286,
266,0,266,0,,,,,,,,,,,,,,,,,,,,,,,,,,,,,,,,,,,,,,,,,,,,,,,,,,,,,,,,,,,651.0281711992575,651.0281711992575,651.0281711992575,651.0281711992575,651.0281711992575,651.0281711992575,l,1,0.4572839542524889,651.5114411350805,652.5447120066965,,,,,,,,,,,,,,,,,,,,,,,,,,,,,,,,,,,,,,,,575,2023-05-17_08h57.56.232,eb_02psyexp,2022.2.4,60.00094177748286,
267,0,267,0,,,,,,,,,,,,,,,,,,,,,,,,,,,,,,,,,,,,,,,,,,,,,,,,,,,,,,,,,,,652.5447120066965,652.5447120066965,652.5447120066965,652.5447120066965,652.5447120066965,652.5447120066965,s,1,0.5967553872615099,653.1613238079008,654.1779394728364,,,,,,,,,,,,,,,,,,,,,,,,,,,,,,,,,,,,,,,,575,2023-05-17_08h57.56.232,eb_02psyexp,2022.2.4,60.00094177748286,
268,0,268,0,,,,,,,,,,,,,,,,,,,,,,,,,,,,,,,,,,,,,,,,,,,,,,,,,,,,,,,,,,,654.1779394728364,654.1779394728364,654.1779394728364,654.1779394728364,654.1779394728364,654.1779394728364,l,1,0.49156842147931457,654.6945433658548,655.7278075967915,,,,,,,,,,,,,,,,,,,,,,,,,,,,,,,,,,,,,,,,575,2023-05-17_08h57.56.232,eb_02psyexp,2022.2.4,60.00094177748286,
269,0,269,0,,,,,,,,,,,,,,,,,,,,,,,,,,,,,,,,,,,,,,,,,,,,,,,,,,,,,,,,,,,655.7278075967915,655.7278075967915,655.7278075967915,655.7278075967915,655.7278075967915,655.7278075967915,s,1,0.5256823461968452,656.2777363915229,657.2943568859482,,,,,,,,,,,,,,,,,,,,,,,,,,,,,,,,,,,,,,,,575,2023-05-17_08h57.56.232,eb_02psyexp,2022.2.4,60.00094177748286,
270,0,270,0,,,,,,,,,,,,,,,,,,,,,,,,,,,,,,,,,,,,,,,,,,,,,,,,,,,,,,,,,,,657.2943568859482,657.2943568859482,657.2943568859482,657.2943568859482,657.2943568859482,657.2943568859482,s,1,0.5671510277315974,657.8942959735868,658.9275466215331,,,,,,,,,,,,,,,,,,,,,,,,,,,,,,,,,,,,,,,,575,2023-05-17_08h57.56.232,eb_02psyexp,2022.2.4,60.00094177748286,
271,0,271,0,,,,,,,,,,,,,,,,,,,,,,,,,,,,,,,,,,,,,,,,,,,,,,,,,,,,,,,,,,,658.9275466215331,658.9275466215331,658.9275466215331,658.9275466215331,658.9275466215331,658.9275466215331,s,1,0.4859486701898277,659.4441782842623,660.4607788568828,,,,,,,,,,,,,,,,,,,,,,,,,,,,,,,,,,,,,,,,575,2023-05-17_08h57.56.232,eb_02psyexp,2022.2.4,60.00094177748286,
272,0,272,0,,,,,,,,,,,,,,,,,,,,,,,,,,,,,,,,,,,,,,,,,,,,,,,,,,,,,,,,,,,660.4607788568828,660.4607788568828,660.4607788568828,660.4607788568828,660.4607788568828,660.4607788568828,s,1,0.5118131695780903,660.9940651225625,662.0273163741222,,,,,,,,,,,,,,,,,,,,,,,,,,,,,,,,,,,,,,,,575,2023-05-17_08h57.56.232,eb_02psyexp,2022.2.4,60.00094177748286,
273,0,273,0,,,,,,,,,,,,,,,,,,,,,,,,,,,,,,,,,,,,,,,,,,,,,,,,,,,,,,,,,,,662.0273163741222,662.0273163741222,662.0273163741222,662.0273163741222,662.0273163741222,662.0273163741222,s,1,0.40118906856514513,662.4606212937506,663.4772064723074,,,,,,,,,,,,,,,,,,,,,,,,,,,,,,,,,,,,,,,,575,2023-05-17_08h57.56.232,eb_02psyexp,2022.2.4,60.00094177748286,
