trials.thisRepN,trials.thisTrialN,trials.thisN,trials.thisIndex,image_loop.thisRepN,image_loop.thisTrialN,image_loop.thisN,image_loop.thisIndex,break_loop.thisRepN,break_loop.thisTrialN,break_loop.thisN,break_loop.thisIndex,test_trials.thisRepN,test_trials.thisTrialN,test_trials.thisN,test_trials.thisIndex,distance matrix,tools,welcome_text.started,instructions_0_keypress.started,instructions_0_keypress.keys,instructions_0_keypress.rt,consent_image_0.started,consent0_key_resp.started,consent0_text.started,consent0_key_resp.keys,consent0_key_resp.rt,consent_image_1.started,consent1_key_resp.started,consent1_text.started,consent1_key_resp.keys,consent1_key_resp.rt,consent2_text.started,consent_image_2.started,consent2_key_resp.started,consent2_key_resp.keys,consent2_key_resp.rt,agree_button.started,disagree_button.started,consent_image_3.started,agree_button.numClicks,agree_button.timesOn,agree_button.timesOff,disagree_button.numClicks,disagree_button.timesOn,disagree_button.timesOff,instructions_text1.started,instructions1_key_resp.started,instr1_cnt_text.started,instructions1_key_resp.keys,instructions1_key_resp.rt,instructions_text2.started,instr2_cnt_text.started,instructions2_key_resp.started,instructions2_key_resp.keys,instructions2_key_resp.rt,instructions_text3.started,instructions3_key_resp.started,instr3_cnt_text.started,instructions3_key_resp.keys,instructions3_key_resp.rt,text_countdown.started,image.started,small_large_keyresp.started,task_question_text.started,smalleroption_text.started,largeroption_text.started,accuracy_score_text.started,small_large_keyresp.keys,small_large_keyresp.corr,small_large_keyresp.rt,fb_2.started,fb_2.stopped,break_text.started,break_key_resp.started,break_key_resp.keys,break_key_resp.rt,reveal_seq_text.started,start_test_text.started,continue_to_test.started,continue_to_test.keys,continue_to_test.rt,test_structure_info.started,start_test_text_2.started,continue_to_test_2.started,continue_to_test_2.keys,continue_to_test_2.rt,test_cntdown_text.started,parent index,left child index,right child index,left distance,right distance,parent_image.started,top_image_text.started,left_child_image.started,right_child_image.started,path_resp.started,child_choice_text.started,left_choice_text.started,right_choice_text.started,path_resp.keys,path_resp.rt,graph.started,debrief_text.started,debriefing_title.started,demo_scr_adv.started,demo_scr_adv_keypress.started,demo_scr_adv_keypress.keys,demo_scr_adv_keypress.rt,text_countdown_2.started,participant,date,expName,psychopyVersion,frameRate,
,,,,,,,,,,,,,,,,"[[0. 1. 1. 2. 2. 3. 4. 5. 5. 6. 6. 7.]
 [1. 0. 2. 1. 1. 2. 3. 4. 4. 5. 5. 6.]
 [1. 2. 0. 1. 1. 2. 3. 4. 4. 5. 5. 6.]
 [2. 1. 1. 0. 1. 1. 2. 3. 3. 4. 4. 5.]
 [2. 1. 1. 1. 0. 1. 2. 3. 3. 4. 4. 5.]
 [3. 2. 2. 1. 1. 0. 1. 2. 2. 3. 3. 4.]
 [4. 3. 3. 2. 2. 1. 0. 1. 1. 2. 2. 3.]
 [5. 4. 4. 3. 3. 2. 1. 0. 1. 1. 1. 2.]
 [5. 4. 4. 3. 3. 2. 1. 1. 0. 1. 1. 2.]
 [6. 5. 5. 4. 4. 3. 2. 1. 1. 0. 2. 1.]
 [6. 5. 5. 4. 4. 3. 2. 1. 1. 2. 0. 1.]
 [7. 6. 6. 5. 5. 4. 3. 2. 2. 1. 1. 0.]]",[ 6  7  4  5  2  8 10  3  0  1 11  9],315.1795470996294,315.1795470996294,return,11.885170471156016,,,,,,,,,,,,,,,,,,,,,,,,,,,,,,,,,,,,,,,,,,,,,,,,,,,,,,,,,,,,,,,,,,,,,,,,,,,,,,,,,,,,,,,,,,576,2023-05-17_09h16.15.471,eb_02psyexp,2022.2.4,99.93930568780584,
,,,,,,,,,,,,,,,,,,,,,,327.076529192389,327.076529192389,327.076529192389,space,38.30638015747536,,,,,,,,,,,,,,,,,,,,,,,,,,,,,,,,,,,,,,,,,,,,,,,,,,,,,,,,,,,,,,,,,,,,,,,,,,,,,,,,,,,,,576,2023-05-17_09h16.15.471,eb_02psyexp,2022.2.4,99.93930568780584,
,,,,,,,,,,,,,,,,,,,,,,,,,,,365.3988541357685,365.3988541357685,365.3988541357685,space,38.2212670953013,,,,,,,,,,,,,,,,,,,,,,,,,,,,,,,,,,,,,,,,,,,,,,,,,,,,,,,,,,,,,,,,,,,,,,,,,,,,,,,,576,2023-05-17_09h16.15.471,eb_02psyexp,2022.2.4,99.93930568780584,
,,,,,,,,,,,,,,,,,,,,,,,,,,,,,,,,403.6314885368338,403.6314885368338,403.6314885368338,space,30.17078592418693,,,,,,,,,,,,,,,,,,,,,,,,,,,,,,,,,,,,,,,,,,,,,,,,,,,,,,,,,,,,,,,,,,,,,,,,,,,576,2023-05-17_09h16.15.471,eb_02psyexp,2022.2.4,99.93930568780584,
,,,,,,,,,,,,,,,,,,,,,,,,,,,,,,,,,,,,,433.8294427517103,433.8294427517103,433.8294427517103,1,[9.425410162075423],[9.425414086086676],0,,,443.2449768454535,445.2361892302288,445.2361892302288,space,3.5171673151198775,,,,,,,,,,,,,,,,,,,,,,,,,,,,,,,,,,,,,,,,,,,,,,,,,,,,,,,,,,,,,576,2023-05-17_09h16.15.471,eb_02psyexp,2022.2.4,99.93930568780584,
,,,,,,,,,,,,,,,,,,,,,,,,,,,,,,,,,,,,,,,,,,,,,,,,,,,448.7686122190207,451.76039448729716,451.76039448729716,space,19.296086637303233,,,,,,,,,,,,,,,,,,,,,,,,,,,,,,,,,,,,,,,,,,,,,,,,,,,,,,,,576,2023-05-17_09h16.15.471,eb_02psyexp,2022.2.4,99.93930568780584,
,,,,,,,,,,,,,,,,,,,,,,,,,,,,,,,,,,,,,,,,,,,,,,,,,,,,,,,,471.07185874378774,474.0636648577638,474.0636648577638,space,13.271920016501099,,,,,,,,,,,,,,,,,,,,,,,,,,,,,,,,,,,,,,,,,,,,,,,,,,,576,2023-05-17_09h16.15.471,eb_02psyexp,2022.2.4,99.93930568780584,
0,0,0,0,,,,,,,,,,,,,,,,,,,,,,,,,,,,,,,,,,,,,,,,,,,,,,,,,,,,,,,,,,487.36158170434646,492.39453533664346,492.39453533664346,492.39453533664346,492.39453533664346,492.39453533664346,492.39453533664346,l,1,1.7481086672050878,494.15527724765707,495.1858598871622,,,,,,,,,,,,,,,,,,,,,,,,,,,,,,,,,,,,,,,576,2023-05-17_09h16.15.471,eb_02psyexp,2022.2.4,99.93930568780584,
1,0,1,0,,,,,,,,,,,,,,,,,,,,,,,,,,,,,,,,,,,,,,,,,,,,,,,,,,,,,,,,,,,495.1858598871622,495.1858598871622,495.1858598871622,495.1858598871622,495.1858598871622,495.1858598871622,s,1,0.8367602588841692,496.0363841014914,497.0570520362817,,,,,,,,,,,,,,,,,,,,,,,,,,,,,,,,,,,,,,,576,2023-05-17_09h16.15.471,eb_02psyexp,2022.2.4,99.93930568780584,
2,0,2,0,,,,,,,,,,,,,,,,,,,,,,,,,,,,,,,,,,,,,,,,,,,,,,,,,,,,,,,,,,,497.0570520362817,497.0570520362817,497.0570520362817,497.0570520362817,497.0570520362817,497.0570520362817,l,1,1.1335853318450972,498.2076899254462,499.2282769657904,,,,,,,,,,,,,,,,,,,,,,,,,,,,,,,,,,,,,,,576,2023-05-17_09h16.15.471,eb_02psyexp,2022.2.4,99.93930568780584,
3,0,3,0,,,,,,,,,,,,,,,,,,,,,,,,,,,,,,,,,,,,,,,,,,,,,,,,,,,,,,,,,,,499.2282769657904,499.2282769657904,499.2282769657904,499.2282769657904,499.2282769657904,499.2282769657904,l,1,1.178403889760375,500.4189905214589,501.43965483410284,,,,,,,,,,,,,,,,,,,,,,,,,,,,,,,,,,,,,,,576,2023-05-17_09h16.15.471,eb_02psyexp,2022.2.4,99.93930568780584,
4,0,4,0,,,,,,,,,,,,,,,,,,,,,,,,,,,,,,,,,,,,,,,,,,,,,,,,,,,,,,,,,,,501.43965483410284,501.43965483410284,501.43965483410284,501.43965483410284,501.43965483410284,501.43965483410284,l,1,1.1110628610476851,502.5702707369346,503.60088567377534,,,,,,,,,,,,,,,,,,,,,,,,,,,,,,,,,,,,,,,576,2023-05-17_09h16.15.471,eb_02psyexp,2022.2.4,99.93930568780584,
5,0,5,0,,,,,,,,,,,,,,,,,,,,,,,,,,,,,,,,,,,,,,,,,,,,,,,,,,,,,,,,,,,503.60088567377534,503.60088567377534,503.60088567377534,503.60088567377534,503.60088567377534,503.60088567377534,s,1,0.7978026265045628,504.4113798001781,505.4419733060058,,,,,,,,,,,,,,,,,,,,,,,,,,,,,,,,,,,,,,,576,2023-05-17_09h16.15.471,eb_02psyexp,2022.2.4,99.93930568780584,
6,0,6,0,,,,,,,,,,,,,,,,,,,,,,,,,,,,,,,,,,,,,,,,,,,,,,,,,,,,,,,,,,,505.4419733060058,505.4419733060058,505.4419733060058,505.4419733060058,505.4419733060058,505.4419733060058,s,1,0.7007878137519583,506.1624001873424,507.18309438275173,,,,,,,,,,,,,,,,,,,,,,,,,,,,,,,,,,,,,,,576,2023-05-17_09h16.15.471,eb_02psyexp,2022.2.4,99.93930568780584,
7,0,7,0,,,,,,,,,,,,,,,,,,,,,,,,,,,,,,,,,,,,,,,,,,,,,,,,,,,,,,,,,,,507.18309438275173,507.18309438275173,507.18309438275173,507.18309438275173,507.18309438275173,507.18309438275173,s,1,1.1826107043307275,508.38374135736376,509.4143360706512,,,,,,,,,,,,,,,,,,,,,,,,,,,,,,,,,,,,,,,576,2023-05-17_09h16.15.471,eb_02psyexp,2022.2.4,99.93930568780584,
8,0,8,0,,,,,,,,,,,,,,,,,,,,,,,,,,,,,,,,,,,,,,,,,,,,,,,,,,,,,,,,,,,509.4143360706512,509.4143360706512,509.4143360706512,509.4143360706512,509.4143360706512,509.4143360706512,s,1,0.8953837006120011,510.32489696517587,511.3554669271689,,,,,,,,,,,,,,,,,,,,,,,,,,,,,,,,,,,,,,,576,2023-05-17_09h16.15.471,eb_02psyexp,2022.2.4,99.93930568780584,
9,0,9,0,,,,,,,,,,,,,,,,,,,,,,,,,,,,,,,,,,,,,,,,,,,,,,,,,,,,,,,,,,,511.3554669271689,511.3554669271689,511.3554669271689,511.3554669271689,511.3554669271689,511.3554669271689,s,1,0.6982852163491771,512.0659166219411,513.0965264274273,,,,,,,,,,,,,,,,,,,,,,,,,,,,,,,,,,,,,,,576,2023-05-17_09h16.15.471,eb_02psyexp,2022.2.4,99.93930568780584,
10,0,10,0,,,,,,,,,,,,,,,,,,,,,,,,,,,,,,,,,,,,,,,,,,,,,,,,,,,,,,,,,,,513.0965264274273,513.0965264274273,513.0965264274273,513.0965264274273,513.0965264274273,513.0965264274273,s,1,0.5892370485235006,513.6969007756561,514.717486910522,,,,,,,,,,,,,,,,,,,,,,,,,,,,,,,,,,,,,,,576,2023-05-17_09h16.15.471,eb_02psyexp,2022.2.4,99.93930568780584,
11,0,11,0,,,,,,,,,,,,,,,,,,,,,,,,,,,,,,,,,,,,,,,,,,,,,,,,,,,,,,,,,,,514.717486910522,514.717486910522,514.717486910522,514.717486910522,514.717486910522,514.717486910522,l,1,0.7922532050870359,515.5279728870373,516.558603519923,,,,,,,,,,,,,,,,,,,,,,,,,,,,,,,,,,,,,,,576,2023-05-17_09h16.15.471,eb_02psyexp,2022.2.4,99.93930568780584,
12,0,12,0,,,,,,,,,,,,,,,,,,,,,,,,,,,,,,,,,,,,,,,,,,,,,,,,,,,,,,,,,,,516.558603519923,516.558603519923,516.558603519923,516.558603519923,516.558603519923,516.558603519923,s,1,0.6231511519290507,517.1989780733129,518.2195593786892,,,,,,,,,,,,,,,,,,,,,,,,,,,,,,,,,,,,,,,576,2023-05-17_09h16.15.471,eb_02psyexp,2022.2.4,99.93930568780584,
13,0,13,0,,,,,,,,,,,,,,,,,,,,,,,,,,,,,,,,,,,,,,,,,,,,,,,,,,,,,,,,,,,518.2195593786892,518.2195593786892,518.2195593786892,518.2195593786892,518.2195593786892,518.2195593786892,l,1,0.6742366169346496,518.9099955387646,519.9406168143032,,,,,,,,,,,,,,,,,,,,,,,,,,,,,,,,,,,,,,,576,2023-05-17_09h16.15.471,eb_02psyexp,2022.2.4,99.93930568780584,
14,0,14,0,,,,,,,,,,,,,,,,,,,,,,,,,,,,,,,,,,,,,,,,,,,,,,,,,,,,,,,,,,,519.9406168143032,519.9406168143032,519.9406168143032,519.9406168143032,519.9406168143032,519.9406168143032,l,1,1.7212583419168368,521.6816301323706,522.7022310575703,,,,,,,,,,,,,,,,,,,,,,,,,,,,,,,,,,,,,,,576,2023-05-17_09h16.15.471,eb_02psyexp,2022.2.4,99.93930568780584,
15,0,15,0,,,,,,,,,,,,,,,,,,,,,,,,,,,,,,,,,,,,,,,,,,,,,,,,,,,,,,,,,,,522.7022310575703,522.7022310575703,522.7022310575703,522.7022310575703,522.7022310575703,522.7022310575703,l,1,0.6065427311696112,523.3226153183496,524.3532773430925,,,,,,,,,,,,,,,,,,,,,,,,,,,,,,,,,,,,,,,576,2023-05-17_09h16.15.471,eb_02psyexp,2022.2.4,99.93930568780584,
16,0,16,0,,,,,,,,,,,,,,,,,,,,,,,,,,,,,,,,,,,,,,,,,,,,,,,,,,,,,,,,,,,524.3532773430925,524.3532773430925,524.3532773430925,524.3532773430925,524.3532773430925,524.3532773430925,s,1,0.6675184513442218,525.0336333874147,526.0542617805768,,,,,,,,,,,,,,,,,,,,,,,,,,,,,,,,,,,,,,,576,2023-05-17_09h16.15.471,eb_02psyexp,2022.2.4,99.93930568780584,
17,0,17,0,,,,,,,,,,,,,,,,,,,,,,,,,,,,,,,,,,,,,,,,,,,,,,,,,,,,,,,,,,,526.0542617805768,526.0542617805768,526.0542617805768,526.0542617805768,526.0542617805768,526.0542617805768,l,1,0.6545511876465753,526.7246297718957,527.7552323332056,,,,,,,,,,,,,,,,,,,,,,,,,,,,,,,,,,,,,,,576,2023-05-17_09h16.15.471,eb_02psyexp,2022.2.4,99.93930568780584,
18,0,18,0,,,,,,,,,,,,,,,,,,,,,,,,,,,,,,,,,,,,,,,,,,,,,,,,,,,,,,,,,,,527.7552323332056,527.7552323332056,527.7552323332056,527.7552323332056,527.7552323332056,527.7552323332056,s,1,0.6735876500606537,528.4456549101742,529.4663125822553,,,,,,,,,,,,,,,,,,,,,,,,,,,,,,,,,,,,,,,576,2023-05-17_09h16.15.471,eb_02psyexp,2022.2.4,99.93930568780584,
19,0,19,0,,,,,,,,,,,,,,,,,,,,,,,,,,,,,,,,,,,,,,,,,,,,,,,,,,,,,,,,,,,529.4663125822553,529.4663125822553,529.4663125822553,529.4663125822553,529.4663125822553,529.4663125822553,l,1,0.6105651184916496,530.0966369027738,531.1172565423185,,,,,,,,,,,,,,,,,,,,,,,,,,,,,,,,,,,,,,,576,2023-05-17_09h16.15.471,eb_02psyexp,2022.2.4,99.93930568780584,
20,0,20,0,,,,,,,,,,,,,,,,,,,,,,,,,,,,,,,,,,,,,,,,,,,,,,,,,,,,,,,,,,,531.1172565423185,531.1172565423185,531.1172565423185,531.1172565423185,531.1172565423185,531.1172565423185,l,1,0.7275964843574911,531.8576912233839,532.8783416511724,,,,,,,,,,,,,,,,,,,,,,,,,,,,,,,,,,,,,,,576,2023-05-17_09h16.15.471,eb_02psyexp,2022.2.4,99.93930568780584,
21,0,21,0,,,,,,,,,,,,,,,,,,,,,,,,,,,,,,,,,,,,,,,,,,,,,,,,,,,,,,,,,,,532.8783416511724,532.8783416511724,532.8783416511724,532.8783416511724,532.8783416511724,532.8783416511724,l,1,0.5825418232707307,533.4786613654578,534.4992586685112,,,,,,,,,,,,,,,,,,,,,,,,,,,,,,,,,,,,,,,576,2023-05-17_09h16.15.471,eb_02psyexp,2022.2.4,99.93930568780584,
22,0,22,0,,,,,,,,,,,,,,,,,,,,,,,,,,,,,,,,,,,,,,,,,,,,,,,,,,,,,,,,,,,534.4992586685112,534.4992586685112,534.4992586685112,534.4992586685112,534.4992586685112,534.4992586685112,l,1,0.5616019261069596,535.0796016731765,536.1002276515355,,,,,,,,,,,,,,,,,,,,,,,,,,,,,,,,,,,,,,,576,2023-05-17_09h16.15.471,eb_02psyexp,2022.2.4,99.93930568780584,
23,0,23,0,,,,,,,,,,,,,,,,,,,,,,,,,,,,,,,,,,,,,,,,,,,,,,,,,,,,,,,,,,,536.1002276515355,536.1002276515355,536.1002276515355,536.1002276515355,536.1002276515355,536.1002276515355,s,1,1.8237232690444216,537.9413041155785,538.9619512230856,,,,,,,,,,,,,,,,,,,,,,,,,,,,,,,,,,,,,,,576,2023-05-17_09h16.15.471,eb_02psyexp,2022.2.4,99.93930568780584,
24,0,24,0,,,,,,,,,,,,,,,,,,,,,,,,,,,,,,,,,,,,,,,,,,,,,,,,,,,,,,,,,,,538.9619512230856,538.9619512230856,538.9619512230856,538.9619512230856,538.9619512230856,538.9619512230856,l,1,1.5219630292849615,540.5028388528153,541.5234301189194,,,,,,,,,,,,,,,,,,,,,,,,,,,,,,,,,,,,,,,576,2023-05-17_09h16.15.471,eb_02psyexp,2022.2.4,99.93930568780584,
25,0,25,0,,,,,,,,,,,,,,,,,,,,,,,,,,,,,,,,,,,,,,,,,,,,,,,,,,,,,,,,,,,541.5234301189194,541.5234301189194,541.5234301189194,541.5234301189194,541.5234301189194,541.5234301189194,s,1,0.8964914719108492,542.4339729027124,543.4646159112453,,,,,,,,,,,,,,,,,,,,,,,,,,,,,,,,,,,,,,,576,2023-05-17_09h16.15.471,eb_02psyexp,2022.2.4,99.93930568780584,
26,0,26,0,,,,,,,,,,,,,,,,,,,,,,,,,,,,,,,,,,,,,,,,,,,,,,,,,,,,,,,,,,,543.4646159112453,543.4646159112453,543.4646159112453,543.4646159112453,543.4646159112453,543.4646159112453,s,1,0.971293205046095,544.4551977417432,545.47575761599,,,,,,,,,,,,,,,,,,,,,,,,,,,,,,,,,,,,,,,576,2023-05-17_09h16.15.471,eb_02psyexp,2022.2.4,99.93930568780584,
27,0,27,0,,,,,,,,,,,,,,,,,,,,,,,,,,,,,,,,,,,,,,,,,,,,,,,,,,,,,,,,,,,545.47575761599,545.47575761599,545.47575761599,545.47575761599,545.47575761599,545.47575761599,l,1,1.0881917590741068,546.5764522218378,547.5970951034687,,,,,,,,,,,,,,,,,,,,,,,,,,,,,,,,,,,,,,,576,2023-05-17_09h16.15.471,eb_02psyexp,2022.2.4,99.93930568780584,
28,0,28,0,,,,,,,,,,,,,,,,,,,,,,,,,,,,,,,,,,,,,,,,,,,,,,,,,,,,,,,,,,,547.5970951034687,547.5970951034687,547.5970951034687,547.5970951034687,547.5970951034687,547.5970951034687,l,1,1.2868534987792373,548.897830579197,549.9184396541677,,,,,,,,,,,,,,,,,,,,,,,,,,,,,,,,,,,,,,,576,2023-05-17_09h16.15.471,eb_02psyexp,2022.2.4,99.93930568780584,
29,0,29,0,,,,,,,,,,,,,,,,,,,,,,,,,,,,,,,,,,,,,,,,,,,,,,,,,,,,,,,,,,,549.9184396541677,549.9184396541677,549.9184396541677,549.9184396541677,549.9184396541677,549.9184396541677,l,1,2.117496688500978,552.0497018072056,553.0703694402473,,,,,,,,,,,,,,,,,,,,,,,,,,,,,,,,,,,,,,,576,2023-05-17_09h16.15.471,eb_02psyexp,2022.2.4,99.93930568780584,
30,0,30,0,,,,,,,,,,,,,,,,,,,,,,,,,,,,,,,,,,,,,,,,,,,,,,,,,,,,,,,,,,,553.0703694402473,553.0703694402473,553.0703694402473,553.0703694402473,553.0703694402473,553.0703694402473,l,1,0.972608343930915,554.0608999570832,555.081521709566,,,,,,,,,,,,,,,,,,,,,,,,,,,,,,,,,,,,,,,576,2023-05-17_09h16.15.471,eb_02psyexp,2022.2.4,99.93930568780584,
31,0,31,0,,,,,,,,,,,,,,,,,,,,,,,,,,,,,,,,,,,,,,,,,,,,,,,,,,,,,,,,,,,555.081521709566,555.081521709566,555.081521709566,555.081521709566,555.081521709566,555.081521709566,s,1,0.785432412289083,555.881997598568,556.9026308211032,,,,,,,,,,,,,,,,,,,,,,,,,,,,,,,,,,,,,,,576,2023-05-17_09h16.15.471,eb_02psyexp,2022.2.4,99.93930568780584,
32,0,32,0,,,,,,,,,,,,,,,,,,,,,,,,,,,,,,,,,,,,,,,,,,,,,,,,,,,,,,,,,,,556.9026308211032,556.9026308211032,556.9026308211032,556.9026308211032,556.9026308211032,556.9026308211032,l,1,0.6123930922476575,557.5329783837078,558.5535663295304,,,,,,,,,,,,,,,,,,,,,,,,,,,,,,,,,,,,,,,576,2023-05-17_09h16.15.471,eb_02psyexp,2022.2.4,99.93930568780584,
33,0,33,0,,,,,,,,,,,,,,,,,,,,,,,,,,,,,,,,,,,,,,,,,,,,,,,,,,,,,,,,,,,558.5535663295304,558.5535663295304,558.5535663295304,558.5535663295304,558.5535663295304,558.5535663295304,s,1,0.9294218622380868,559.4941481298301,560.5148130462039,,,,,,,,,,,,,,,,,,,,,,,,,,,,,,,,,,,,,,,576,2023-05-17_09h16.15.471,eb_02psyexp,2022.2.4,99.93930568780584,
34,0,34,0,,,,,,,,,,,,,,,,,,,,,,,,,,,,,,,,,,,,,,,,,,,,,,,,,,,,,,,,,,,560.5148130462039,560.5148130462039,560.5148130462039,560.5148130462039,560.5148130462039,560.5148130462039,l,1,0.9282075396040455,561.4553003690671,562.4758662802633,,,,,,,,,,,,,,,,,,,,,,,,,,,,,,,,,,,,,,,576,2023-05-17_09h16.15.471,eb_02psyexp,2022.2.4,99.93930568780584,
35,0,35,0,,,,,,,,,,,,,,,,,,,,,,,,,,,,,,,,,,,,,,,,,,,,,,,,,,,,,,,,,,,562.4758662802633,562.4758662802633,562.4758662802633,562.4758662802633,562.4758662802633,562.4758662802633,l,1,1.6151576910633594,564.1068685447099,565.1275222927798,,,,,,,,,,,,,,,,,,,,,,,,,,,,,,,,,,,,,,,576,2023-05-17_09h16.15.471,eb_02psyexp,2022.2.4,99.93930568780584,
36,0,36,0,,,,,,,,,,,,,,,,,,,,,,,,,,,,,,,,,,,,,,,,,,,,,,,,,,,,,,,,,,,565.1275222927798,565.1275222927798,565.1275222927798,565.1275222927798,565.1275222927798,565.1275222927798,l,1,0.6195392739027739,565.7578577814857,566.7784590085503,,,,,,,,,,,,,,,,,,,,,,,,,,,,,,,,,,,,,,,576,2023-05-17_09h16.15.471,eb_02psyexp,2022.2.4,99.93930568780584,
37,0,37,0,,,,,,,,,,,,,,,,,,,,,,,,,,,,,,,,,,,,,,,,,,,,,,,,,,,,,,,,,,,566.7784590085503,566.7784590085503,566.7784590085503,566.7784590085503,566.7784590085503,566.7784590085503,s,1,0.6405721394112334,567.4288478755625,568.4494524229085,,,,,,,,,,,,,,,,,,,,,,,,,,,,,,,,,,,,,,,576,2023-05-17_09h16.15.471,eb_02psyexp,2022.2.4,99.93930568780584,
38,0,38,0,,,,,,,,,,,,,,,,,,,,,,,,,,,,,,,,,,,,,,,,,,,,,,,,,,,,,,,,,,,568.4494524229085,568.4494524229085,568.4494524229085,568.4494524229085,568.4494524229085,568.4494524229085,l,1,0.6886557552497834,569.1498675806215,570.1704763537273,,,,,,,,,,,,,,,,,,,,,,,,,,,,,,,,,,,,,,,576,2023-05-17_09h16.15.471,eb_02psyexp,2022.2.4,99.93930568780584,
39,0,39,0,,,,,,,,,,,,,,,,,,,,,,,,,,,,,,,,,,,,,,,,,,,,,,,,,,,,,,,,,,,570.1704763537273,570.1704763537273,570.1704763537273,570.1704763537273,570.1704763537273,570.1704763537273,s,1,0.6396128758788109,570.8208637115313,571.8514756299555,,,,,,,,,,,,,,,,,,,,,,,,,,,,,,,,,,,,,,,576,2023-05-17_09h16.15.471,eb_02psyexp,2022.2.4,99.93930568780584,
40,0,40,0,,,,,,,,,,,,,,,,,,,,,,,,,,,,,,,,,,,,,,,,,,,,,,,,,,,,,,,,,,,571.8514756299555,571.8514756299555,571.8514756299555,571.8514756299555,571.8514756299555,571.8514756299555,s,1,0.8865791821153834,572.7520176832331,573.7826247721678,,,,,,,,,,,,,,,,,,,,,,,,,,,,,,,,,,,,,,,576,2023-05-17_09h16.15.471,eb_02psyexp,2022.2.4,99.93930568780584,
41,0,41,0,,,,,,,,,,,,,,,,,,,,,,,,,,,,,,,,,,,,,,,,,,,,,,,,,,,,,,,,,,,573.7826247721678,573.7826247721678,573.7826247721678,573.7826247721678,573.7826247721678,573.7826247721678,s,1,0.6994838430546224,574.4930300957058,575.523693327792,,,,,,,,,,,,,,,,,,,,,,,,,,,,,,,,,,,,,,,576,2023-05-17_09h16.15.471,eb_02psyexp,2022.2.4,99.93930568780584,
42,0,42,0,,,,,,,,,,,,,,,,,,,,,,,,,,,,,,,,,,,,,,,,,,,,,,,,,,,,,,,,,,,575.523693327792,575.523693327792,575.523693327792,575.523693327792,575.523693327792,575.523693327792,s,1,0.6543954357039183,576.1941041812534,577.2246687099105,,,,,,,,,,,,,,,,,,,,,,,,,,,,,,,,,,,,,,,576,2023-05-17_09h16.15.471,eb_02psyexp,2022.2.4,99.93930568780584,
43,0,43,0,,,,,,,,,,,,,,,,,,,,,,,,,,,,,,,,,,,,,,,,,,,,,,,,,,,,,,,,,,,577.2246687099105,577.2246687099105,577.2246687099105,577.2246687099105,577.2246687099105,577.2246687099105,s,1,0.5054282589117065,577.7449913340388,578.7655961832497,,,,,,,,,,,,,,,,,,,,,,,,,,,,,,,,,,,,,,,576,2023-05-17_09h16.15.471,eb_02psyexp,2022.2.4,99.93930568780584,
44,0,44,0,,,,,,,,,,,,,,,,,,,,,,,,,,,,,,,,,,,,,,,,,,,,,,,,,,,,,,,,,,,578.7655961832497,578.7655961832497,578.7655961832497,578.7655961832497,578.7655961832497,578.7655961832497,s,1,0.5805955263786018,579.3659430635162,580.3865874544717,,,,,,,,,,,,,,,,,,,,,,,,,,,,,,,,,,,,,,,576,2023-05-17_09h16.15.471,eb_02psyexp,2022.2.4,99.93930568780584,
45,0,45,0,,,,,,,,,,,,,,,,,,,,,,,,,,,,,,,,,,,,,,,,,,,,,,,,,,,,,,,,,,,580.3865874544717,580.3865874544717,580.3865874544717,580.3865874544717,580.3865874544717,580.3865874544717,l,1,0.5755305662751198,580.9769139843993,,,,,,,,,,,,,,,,,,,,,,,,,,,,,,,,,,,,,,,,576,2023-05-17_09h16.15.471,eb_02psyexp,2022.2.4,99.93930568780584,
46,0,46,0,,,,,,,,,,,,,,,,,,,,,,,,,,,,,,,,,,,,,,,,,,,,,,,,,,,,,,,,,,,582.0078358977335,582.0078358977335,582.0078358977335,582.0078358977335,582.0078358977335,582.0078358977335,s,1,1.0263210682896897,583.0481527383672,584.0687424953794,,,,,,,,,,,,,,,,,,,,,,,,,,,,,,,,,,,,,,,576,2023-05-17_09h16.15.471,eb_02psyexp,2022.2.4,99.93930568780584,
47,0,47,0,,,,,,,,,,,,,,,,,,,,,,,,,,,,,,,,,,,,,,,,,,,,,,,,,,,,,,,,,,,584.0687424953794,584.0687424953794,584.0687424953794,584.0687424953794,584.0687424953794,584.0687424953794,l,1,1.300396682927385,585.3795303170336,586.4001348643797,,,,,,,,,,,,,,,,,,,,,,,,,,,,,,,,,,,,,,,576,2023-05-17_09h16.15.471,eb_02psyexp,2022.2.4,99.93930568780584,
48,0,48,0,,,,,,,,,,,,,,,,,,,,,,,,,,,,,,,,,,,,,,,,,,,,,,,,,,,,,,,,,,,586.4001348643797,586.4001348643797,586.4001348643797,586.4001348643797,586.4001348643797,586.4001348643797,s,1,0.6090441212290898,587.0205185215455,588.0410895640962,,,,,,,,,,,,,,,,,,,,,,,,,,,,,,,,,,,,,,,576,2023-05-17_09h16.15.471,eb_02psyexp,2022.2.4,99.93930568780584,
49,0,49,0,,,,,,,,,,,,,,,,,,,,,,,,,,,,,,,,,,,,,,,,,,,,,,,,,,,,,,,,,,,588.0410895640962,588.0410895640962,588.0410895640962,588.0410895640962,588.0410895640962,588.0410895640962,l,1,0.7280486483359709,588.7815375262871,589.8022018389311,,,,,,,,,,,,,,,,,,,,,,,,,,,,,,,,,,,,,,,576,2023-05-17_09h16.15.471,eb_02psyexp,2022.2.4,99.93930568780584,
50,0,50,0,,,,,,,,,,,,,,,,,,,,,,,,,,,,,,,,,,,,,,,,,,,,,,,,,,,,,,,,,,,589.8022018389311,589.8022018389311,589.8022018389311,589.8022018389311,589.8022018389311,589.8022018389311,l,1,0.646970349131152,590.4625703071943,591.4931840366917,,,,,,,,,,,,,,,,,,,,,,,,,,,,,,,,,,,,,,,576,2023-05-17_09h16.15.471,eb_02psyexp,2022.2.4,99.93930568780584,
51,0,51,0,,,,,,,,,,,,,,,,,,,,,,,,,,,,,,,,,,,,,,,,,,,,,,,,,,,,,,,,,,,591.4931840366917,591.4931840366917,591.4931840366917,591.4931840366917,591.4931840366917,591.4931840366917,s,1,0.5559957578079775,592.0634849581402,593.0841933401534,,,,,,,,,,,,,,,,,,,,,,,,,,,,,,,,,,,,,,,576,2023-05-17_09h16.15.471,eb_02psyexp,2022.2.4,99.93930568780584,
52,0,52,0,,,,,,,,,,,,,,,,,,,,,,,,,,,,,,,,,,,,,,,,,,,,,,,,,,,,,,,,,,,593.0841933401534,593.0841933401534,593.0841933401534,593.0841933401534,593.0841933401534,593.0841933401534,s,1,1.3010151634225622,594.4049031106988,595.4355002387892,,,,,,,,,,,,,,,,,,,,,,,,,,,,,,,,,,,,,,,576,2023-05-17_09h16.15.471,eb_02psyexp,2022.2.4,99.93930568780584,
53,0,53,0,,,,,,,,,,,,,,,,,,,,,,,,,,,,,,,,,,,,,,,,,,,,,,,,,,,,,,,,,,,595.4355002387892,595.4355002387892,595.4355002387892,595.4355002387892,595.4355002387892,595.4355002387892,l,1,0.957704140455462,596.4060772879748,597.4267328472342,,,,,,,,,,,,,,,,,,,,,,,,,,,,,,,,,,,,,,,576,2023-05-17_09h16.15.471,eb_02psyexp,2022.2.4,99.93930568780584,
54,0,54,0,,,,,,,,,,,,,,,,,,,,,,,,,,,,,,,,,,,,,,,,,,,,,,,,,,,,,,,,,,,597.4267328472342,597.4267328472342,597.4267328472342,597.4267328472342,597.4267328472342,597.4267328472342,s,1,0.5985073138726875,598.0370532919187,599.0676787933335,,,,,,,,,,,,,,,,,,,,,,,,,,,,,,,,,,,,,,,576,2023-05-17_09h16.15.471,eb_02psyexp,2022.2.4,99.93930568780584,
55,0,55,0,,,,,,,,,,,,,,,,,,,,,,,,,,,,,,,,,,,,,,,,,,,,,,,,,,,,,,,,,,,599.0676787933335,599.0676787933335,599.0676787933335,599.0676787933335,599.0676787933335,599.0676787933335,s,1,0.6375606312649325,599.718054681085,600.7386876018718,,,,,,,,,,,,,,,,,,,,,,,,,,,,,,,,,,,,,,,576,2023-05-17_09h16.15.471,eb_02psyexp,2022.2.4,99.93930568780584,
56,0,56,0,,,,,,,,,,,,,,,,,,,,,,,,,,,,,,,,,,,,,,,,,,,,,,,,,,,,,,,,,,,600.7386876018718,600.7386876018718,600.7386876018718,600.7386876018718,600.7386876018718,600.7386876018718,l,1,0.6615398064022884,601.4190460609971,602.4496724678902,,,,,,,,,,,,,,,,,,,,,,,,,,,,,,,,,,,,,,,576,2023-05-17_09h16.15.471,eb_02psyexp,2022.2.4,99.93930568780584,
57,0,57,0,,,,,,,,,,,,,,,,,,,,,,,,,,,,,,,,,,,,,,,,,,,,,,,,,,,,,,,,,,,602.4496724678902,602.4496724678902,602.4496724678902,602.4496724678902,602.4496724678902,602.4496724678902,s,1,0.9906106850830838,603.4502695174888,604.470918436069,,,,,,,,,,,,,,,,,,,,,,,,,,,,,,,,,,,,,,,576,2023-05-17_09h16.15.471,eb_02psyexp,2022.2.4,99.93930568780584,
58,0,58,0,,,,,,,,,,,,,,,,,,,,,,,,,,,,,,,,,,,,,,,,,,,,,,,,,,,,,,,,,,,604.470918436069,604.470918436069,604.470918436069,604.470918436069,604.470918436069,604.470918436069,l,1,0.6973344044527039,605.1813032341888,606.2119076064555,,,,,,,,,,,,,,,,,,,,,,,,,,,,,,,,,,,,,,,576,2023-05-17_09h16.15.471,eb_02psyexp,2022.2.4,99.93930568780584,
59,0,59,0,,,,,,,,,,,,,,,,,,,,,,,,,,,,,,,,,,,,,,,,,,,,,,,,,,,,,,,,,,,606.2119076064555,606.2119076064555,606.2119076064555,606.2119076064555,606.2119076064555,606.2119076064555,s,1,0.5483491169288754,606.77226454427,607.7929146701936,,,,,,,,,,,,,,,,,,,,,,,,,,,,,,,,,,,,,,,576,2023-05-17_09h16.15.471,eb_02psyexp,2022.2.4,99.93930568780584,
60,0,60,0,,,,,,,,,,,,,,,,,,,,,,,,,,,,,,,,,,,,,,,,,,,,,,,,,,,,,,,,,,,607.7929146701936,607.7929146701936,607.7929146701936,607.7929146701936,607.7929146701936,607.7929146701936,l,1,0.5673846737481654,608.3732102852082,609.4037923209835,,,,,,,,,,,,,,,,,,,,,,,,,,,,,,,,,,,,,,,576,2023-05-17_09h16.15.471,eb_02psyexp,2022.2.4,99.93930568780584,
61,0,61,0,,,,,,,,,,,,,,,,,,,,,,,,,,,,,,,,,,,,,,,,,,,,,,,,,,,,,,,,,,,609.4037923209835,609.4037923209835,609.4037923209835,609.4037923209835,609.4037923209835,609.4037923209835,s,1,0.6044944106834009,610.0241620931774,611.0548201939091,,,,,,,,,,,,,,,,,,,,,,,,,,,,,,,,,,,,,,,576,2023-05-17_09h16.15.471,eb_02psyexp,2022.2.4,99.93930568780584,
62,0,62,0,,,,,,,,,,,,,,,,,,,,,,,,,,,,,,,,,,,,,,,,,,,,,,,,,,,,,,,,,,,611.0548201939091,611.0548201939091,611.0548201939091,611.0548201939091,611.0548201939091,611.0548201939091,s,1,0.5774617709685117,611.6451464219717,612.6658077161992,,,,,,,,,,,,,,,,,,,,,,,,,,,,,,,,,,,,,,,576,2023-05-17_09h16.15.471,eb_02psyexp,2022.2.4,99.93930568780584,
63,0,63,0,,,,,,,,,,,,,,,,,,,,,,,,,,,,,,,,,,,,,,,,,,,,,,,,,,,,,,,,,,,612.6658077161992,612.6658077161992,612.6658077161992,612.6658077161992,612.6658077161992,612.6658077161992,l,1,0.6544908187352121,613.3361536728917,614.3667752504116,,,,,,,,,,,,,,,,,,,,,,,,,,,,,,,,,,,,,,,576,2023-05-17_09h16.15.471,eb_02psyexp,2022.2.4,99.93930568780584,
64,0,64,0,,,,,,,,,,,,,,,,,,,,,,,,,,,,,,,,,,,,,,,,,,,,,,,,,,,,,,,,,,,614.3667752504116,614.3667752504116,614.3667752504116,614.3667752504116,614.3667752504116,614.3667752504116,s,1,0.5455329025862738,614.9270769505529,,,,,,,,,,,,,,,,,,,,,,,,,,,,,,,,,,,,,,,,576,2023-05-17_09h16.15.471,eb_02psyexp,2022.2.4,99.93930568780584,
65,0,65,0,,,,,,,,,,,,,,,,,,,,,,,,,,,,,,,,,,,,,,,,,,,,,,,,,,,,,,,,,,,615.9576906800503,615.9576906800503,615.9576906800503,615.9576906800503,615.9576906800503,615.9576906800503,s,1,0.6816266895039007,616.6581200244837,617.6787453991128,,,,,,,,,,,,,,,,,,,,,,,,,,,,,,,,,,,,,,,576,2023-05-17_09h16.15.471,eb_02psyexp,2022.2.4,99.93930568780584,
66,0,66,0,,,,,,,,,,,,,,,,,,,,,,,,,,,,,,,,,,,,,,,,,,,,,,,,,,,,,,,,,,,617.6787453991128,617.6787453991128,617.6787453991128,617.6787453991128,617.6787453991128,617.6787453991128,l,1,0.5845669017871842,618.2790799038485,619.3097057071282,,,,,,,,,,,,,,,,,,,,,,,,,,,,,,,,,,,,,,,576,2023-05-17_09h16.15.471,eb_02psyexp,2022.2.4,99.93930568780584,
67,0,67,0,,,,,,,,,,,,,,,,,,,,,,,,,,,,,,,,,,,,,,,,,,,,,,,,,,,,,,,,,,,619.3097057071282,619.3097057071282,619.3097057071282,619.3097057071282,619.3097057071282,619.3097057071282,s,1,0.4336341100279242,619.7599673765944,620.7808903704863,,,,,,,,,,,,,,,,,,,,,,,,,,,,,,,,,,,,,,,576,2023-05-17_09h16.15.471,eb_02psyexp,2022.2.4,99.93930568780584,
68,0,68,0,,,,,,,,,,,,,,,,,,,,,,,,,,,,,,,,,,,,,,,,,,,,,,,,,,,,,,,,,,,620.7808903704863,620.7808903704863,620.7808903704863,620.7808903704863,620.7808903704863,620.7808903704863,s,1,0.6424487101612613,621.4412878159201,622.4715746472357,,,,,,,,,,,,,,,,,,,,,,,,,,,,,,,,,,,,,,,576,2023-05-17_09h16.15.471,eb_02psyexp,2022.2.4,99.93930568780584,
69,0,69,0,,,,,,,,,,,,,,,,,,,,,,,,,,,,,,,,,,,,,,,,,,,,,,,,,,,,,,,,,,,622.4715746472357,622.4715746472357,622.4715746472357,622.4715746472357,622.4715746472357,622.4715746472357,s,1,0.5517795860068873,623.041920241667,624.0625718767988,,,,,,,,,,,,,,,,,,,,,,,,,,,,,,,,,,,,,,,576,2023-05-17_09h16.15.471,eb_02psyexp,2022.2.4,99.93930568780584,
70,0,70,0,,,,,,,,,,,,,,,,,,,,,,,,,,,,,,,,,,,,,,,,,,,,,,,,,,,,,,,,,,,624.0625718767988,624.0625718767988,624.0625718767988,624.0625718767988,624.0625718767988,624.0625718767988,s,1,0.6088222650578246,624.6828942594584,625.7135324383853,,,,,,,,,,,,,,,,,,,,,,,,,,,,,,,,,,,,,,,576,2023-05-17_09h16.15.471,eb_02psyexp,2022.2.4,99.93930568780584,
71,0,71,0,,,,,,,,,,,,,,,,,,,,,,,,,,,,,,,,,,,,,,,,,,,,,,,,,,,,,,,,,,,625.7135324383853,625.7135324383853,625.7135324383853,625.7135324383853,625.7135324383853,625.7135324383853,s,1,0.5018326805438846,626.2338085783413,627.2544737964636,,,,,,,,,,,,,,,,,,,,,,,,,,,,,,,,,,,,,,,576,2023-05-17_09h16.15.471,eb_02psyexp,2022.2.4,99.93930568780584,
72,0,72,0,,,,,,,,,,,,,,,,,,,,,,,,,,,,,,,,,,,,,,,,,,,,,,,,,,,,,,,,,,,627.2544737964636,627.2544737964636,627.2544737964636,627.2544737964636,627.2544737964636,627.2544737964636,s,1,0.5369233759120107,627.8047418651404,628.8353667628253,,,,,,,,,,,,,,,,,,,,,,,,,,,,,,,,,,,,,,,576,2023-05-17_09h16.15.471,eb_02psyexp,2022.2.4,99.93930568780584,
73,0,73,0,,,,,,,,,,,,,,,,,,,,,,,,,,,,,,,,,,,,,,,,,,,,,,,,,,,,,,,,,,,628.8353667628253,628.8353667628253,628.8353667628253,628.8353667628253,628.8353667628253,628.8353667628253,s,1,0.5080389168579131,629.3557156474562,630.3763063099468,,,,,,,,,,,,,,,,,,,,,,,,,,,,,,,,,,,,,,,576,2023-05-17_09h16.15.471,eb_02psyexp,2022.2.4,99.93930568780584,
74,0,74,0,,,,,,,,,,,,,,,,,,,,,,,,,,,,,,,,,,,,,,,,,,,,,,,,,,,,,,,,,,,630.3763063099468,630.3763063099468,630.3763063099468,630.3763063099468,630.3763063099468,630.3763063099468,l,1,0.5830806167796254,630.9766320611816,,,,,,,,,,,,,,,,,,,,,,,,,,,,,,,,,,,,,,,,576,2023-05-17_09h16.15.471,eb_02psyexp,2022.2.4,99.93930568780584,
75,0,75,0,,,,,,,,,,,,,,,,,,,,,,,,,,,,,,,,,,,,,,,,,,,,,,,,,,,,,,,,,,,632.0072530348552,632.0072530348552,632.0072530348552,632.0072530348552,632.0072530348552,632.0072530348552,s,1,0.4951582826906815,632.5178806975018,633.5381903422531,,,,,,,,,,,,,,,,,,,,,,,,,,,,,,,,,,,,,,,576,2023-05-17_09h16.15.471,eb_02psyexp,2022.2.4,99.93930568780584,
76,0,76,0,,,,,,,,,,,,,,,,,,,,,,,,,,,,,,,,,,,,,,,,,,,,,,,,,,,,,,,,,,,633.5381903422531,633.5381903422531,633.5381903422531,633.5381903422531,633.5381903422531,633.5381903422531,l,1,0.5722313997102901,634.1285331718391,635.1591459958581,,,,,,,,,,,,,,,,,,,,,,,,,,,,,,,,,,,,,,,576,2023-05-17_09h16.15.471,eb_02psyexp,2022.2.4,99.93930568780584,
77,0,77,0,,,,,,,,,,,,,,,,,,,,,,,,,,,,,,,,,,,,,,,,,,,,,,,,,,,,,,,,,,,635.1591459958581,635.1591459958581,635.1591459958581,635.1591459958581,635.1591459958581,635.1591459958581,s,1,0.7753124530427158,635.9495997232152,636.9702398882946,,,,,,,,,,,,,,,,,,,,,,,,,,,,,,,,,,,,,,,576,2023-05-17_09h16.15.471,eb_02psyexp,2022.2.4,99.93930568780584,
78,0,78,0,,,,,,,,,,,,,,,,,,,,,,,,,,,,,,,,,,,,,,,,,,,,,,,,,,,,,,,,,,,636.9702398882946,636.9702398882946,636.9702398882946,636.9702398882946,636.9702398882946,636.9702398882946,s,1,0.5721975931664929,637.5605781902559,638.5911934289616,,,,,,,,,,,,,,,,,,,,,,,,,,,,,,,,,,,,,,,576,2023-05-17_09h16.15.471,eb_02psyexp,2022.2.4,99.93930568780584,
79,0,79,0,,,,,,,,,,,,,,,,,,,,,,,,,,,,,,,,,,,,,,,,,,,,,,,,,,,,,,,,,,,638.5911934289616,638.5911934289616,638.5911934289616,638.5911934289616,638.5911934289616,638.5911934289616,s,1,0.4312857553595677,639.0414264231222,640.0621100539574,,,,,,,,,,,,,,,,,,,,,,,,,,,,,,,,,,,,,,,576,2023-05-17_09h16.15.471,eb_02psyexp,2022.2.4,99.93930568780584,
80,0,80,0,,,,,,,,,,,,,,,,,,,,,,,,,,,,,,,,,,,,,,,,,,,,,,,,,,,,,,,,,,,640.0621100539574,640.0621100539574,640.0621100539574,640.0621100539574,640.0621100539574,640.0621100539574,l,1,0.4804382047150284,640.5623144030105,641.5929549967404,,,,,,,,,,,,,,,,,,,,,,,,,,,,,,,,,,,,,,,576,2023-05-17_09h16.15.471,eb_02psyexp,2022.2.4,99.93930568780584,
81,0,81,0,,,,,,,,,,,,,,,,,,,,,,,,,,,,,,,,,,,,,,,,,,,,,,,,,,,,,,,,,,,641.5929549967404,641.5929549967404,641.5929549967404,641.5929549967404,641.5929549967404,641.5929549967404,s,1,0.4935102085582912,642.1032454983797,643.1238198613282,,,,,,,,,,,,,,,,,,,,,,,,,,,,,,,,,,,,,,,576,2023-05-17_09h16.15.471,eb_02psyexp,2022.2.4,99.93930568780584,
82,0,82,0,,,,,,,,,,,,,,,,,,,,,,,,,,,,,,,,,,,,,,,,,,,,,,,,,,,,,,,,,,,643.1238198613282,643.1238198613282,643.1238198613282,643.1238198613282,643.1238198613282,643.1238198613282,l,1,0.5626559690572321,643.7041969744023,644.7348300219746,,,,,,,,,,,,,,,,,,,,,,,,,,,,,,,,,,,,,,,576,2023-05-17_09h16.15.471,eb_02psyexp,2022.2.4,99.93930568780584,
83,0,83,0,,,,,,,,,,,,,,,,,,,,,,,,,,,,,,,,,,,,,,,,,,,,,,,,,,,,,,,,,,,644.7348300219746,644.7348300219746,644.7348300219746,644.7348300219746,644.7348300219746,644.7348300219746,l,1,0.6636521180626005,645.415209308383,646.4358087243745,,,,,,,,,,,,,,,,,,,,,,,,,,,,,,,,,,,,,,,576,2023-05-17_09h16.15.471,eb_02psyexp,2022.2.4,99.93930568780584,
84,0,84,0,,,,,,,,,,,,,,,,,,,,,,,,,,,,,,,,,,,,,,,,,,,,,,,,,,,,,,,,,,,646.4358087243745,646.4358087243745,646.4358087243745,646.4358087243745,646.4358087243745,646.4358087243745,l,1,0.8016931074671447,647.2563020720845,648.2869405527599,,,,,,,,,,,,,,,,,,,,,,,,,,,,,,,,,,,,,,,576,2023-05-17_09h16.15.471,eb_02psyexp,2022.2.4,99.93930568780584,
85,0,85,0,,,,,,,,,,,,,,,,,,,,,,,,,,,,,,,,,,,,,,,,,,,,,,,,,,,,,,,,,,,648.2869405527599,648.2869405527599,648.2869405527599,648.2869405527599,648.2869405527599,648.2869405527599,s,1,0.6865464620059356,648.9873360905331,,,,,,,,,,,,,,,,,,,,,,,,,,,,,,,,,,,,,,,,576,2023-05-17_09h16.15.471,eb_02psyexp,2022.2.4,99.93930568780584,
86,0,86,0,,,,,,,,,,,,,,,,,,,,,,,,,,,,,,,,,,,,,,,,,,,,,,,,,,,,,,,,,,,650.0179341241019,650.0179341241019,650.0179341241019,650.0179341241019,650.0179341241019,650.0179341241019,s,1,0.5235803151736036,650.5585932570975,651.5889027267694,,,,,,,,,,,,,,,,,,,,,,,,,,,,,,,,,,,,,,,576,2023-05-17_09h16.15.471,eb_02psyexp,2022.2.4,99.93930568780584,
87,0,87,0,,,,,,,,,,,,,,,,,,,,,,,,,,,,,,,,,,,,,,,,,,,,,,,,,,,,,,,,,,,651.5889027267694,651.5889027267694,651.5889027267694,651.5889027267694,651.5889027267694,651.5889027267694,s,1,0.5926285797031596,652.1992630150635,653.2199001617264,,,,,,,,,,,,,,,,,,,,,,,,,,,,,,,,,,,,,,,576,2023-05-17_09h16.15.471,eb_02psyexp,2022.2.4,99.93930568780584,
88,0,88,0,,,,,,,,,,,,,,,,,,,,,,,,,,,,,,,,,,,,,,,,,,,,,,,,,,,,,,,,,,,653.2199001617264,653.2199001617264,653.2199001617264,653.2199001617264,653.2199001617264,653.2199001617264,s,1,0.609652339015156,653.8402222425211,654.8708278221311,,,,,,,,,,,,,,,,,,,,,,,,,,,,,,,,,,,,,,,576,2023-05-17_09h16.15.471,eb_02psyexp,2022.2.4,99.93930568780584,
89,0,89,0,,,,,,,,,,,,,,,,,,,,,,,,,,,,,,,,,,,,,,,,,,,,,,,,,,,,,,,,,,,654.8708278221311,654.8708278221311,654.8708278221311,654.8708278221311,654.8708278221311,654.8708278221311,l,1,0.8387150075286627,655.721350829117,656.7419055720093,,,,,,,,,,,,,,,,,,,,,,,,,,,,,,,,,,,,,,,576,2023-05-17_09h16.15.471,eb_02psyexp,2022.2.4,99.93930568780584,
90,0,90,0,,,,,,,,,,,,,,,,,,,,,,,,,,,,,,,,,,,,,,,,,,,,,,,,,,,,,,,,,,,656.7419055720093,656.7419055720093,656.7419055720093,656.7419055720093,656.7419055720093,656.7419055720093,l,1,0.5916590532287955,657.3523120426107,658.382932110806,,,,,,,,,,,,,,,,,,,,,,,,,,,,,,,,,,,,,,,576,2023-05-17_09h16.15.471,eb_02psyexp,2022.2.4,99.93930568780584,
91,0,91,0,,,,,,,,,,,,,,,,,,,,,,,,,,,,,,,,,,,,,,,,,,,,,,,,,,,,,,,,,,,658.382932110806,658.382932110806,658.382932110806,658.382932110806,658.382932110806,658.382932110806,s,1,0.5346281460952014,658.9332527004881,659.9541714685038,,,,,,,,,,,,,,,,,,,,,,,,,,,,,,,,,,,,,,,576,2023-05-17_09h16.15.471,eb_02psyexp,2022.2.4,99.93930568780584,
92,0,92,0,,,,,,,,,,,,,,,,,,,,,,,,,,,,,,,,,,,,,,,,,,,,,,,,,,,,,,,,,,,659.9541714685038,659.9541714685038,659.9541714685038,659.9541714685038,659.9541714685038,659.9541714685038,l,1,0.5714435841655359,660.5445073556621,661.5648145856103,,,,,,,,,,,,,,,,,,,,,,,,,,,,,,,,,,,,,,,576,2023-05-17_09h16.15.471,eb_02psyexp,2022.2.4,99.93930568780584,
93,0,93,0,,,,,,,,,,,,,,,,,,,,,,,,,,,,,,,,,,,,,,,,,,,,,,,,,,,,,,,,,,,661.5648145856103,661.5648145856103,661.5648145856103,661.5648145856103,661.5648145856103,661.5648145856103,l,1,0.5608204491436481,662.1451557792025,663.1657609302783,,,,,,,,,,,,,,,,,,,,,,,,,,,,,,,,,,,,,,,576,2023-05-17_09h16.15.471,eb_02psyexp,2022.2.4,99.93930568780584,
94,0,94,0,,,,,,,,,,,,,,,,,,,,,,,,,,,,,,,,,,,,,,,,,,,,,,,,,,,,,,,,,,,663.1657609302783,663.1657609302783,663.1657609302783,663.1657609302783,663.1657609302783,663.1657609302783,s,1,0.6388277767691761,663.816150400904,664.836717217695,,,,,,,,,,,,,,,,,,,,,,,,,,,,,,,,,,,,,,,576,2023-05-17_09h16.15.471,eb_02psyexp,2022.2.4,99.93930568780584,
95,0,95,0,,,,,,,,,,,,,,,,,,,,,,,,,,,,,,,,,,,,,,,,,,,,,,,,,,,,,,,,,,,664.836717217695,664.836717217695,664.836717217695,664.836717217695,664.836717217695,664.836717217695,s,1,0.7118794121779501,665.5671813527588,666.5878094440559,,,,,,,,,,,,,,,,,,,,,,,,,,,,,,,,,,,,,,,576,2023-05-17_09h16.15.471,eb_02psyexp,2022.2.4,99.93930568780584,
96,0,96,0,,,,,,,,,,,,,,,,,,,,,,,,,,,,,,,,,,,,,,,,,,,,,,,,,,,,,,,,,,,666.5878094440559,666.5878094440559,666.5878094440559,666.5878094440559,666.5878094440559,666.5878094440559,s,1,0.6007874516071752,667.2081731794169,668.2388016992481,,,,,,,,,,,,,,,,,,,,,,,,,,,,,,,,,,,,,,,576,2023-05-17_09h16.15.471,eb_02psyexp,2022.2.4,99.93930568780584,
97,0,97,0,,,,,,,,,,,,,,,,,,,,,,,,,,,,,,,,,,,,,,,,,,,,,,,,,,,,,,,,,,,668.2388016992481,668.2388016992481,668.2388016992481,668.2388016992481,668.2388016992481,668.2388016992481,s,1,0.5978269551414996,668.849130595685,669.8697855510982,,,,,,,,,,,,,,,,,,,,,,,,,,,,,,,,,,,,,,,576,2023-05-17_09h16.15.471,eb_02psyexp,2022.2.4,99.93930568780584,
98,0,98,0,,,,,,,,,,,,,,,,,,,,,,,,,,,,,,,,,,,,,,,,,,,,,,,,,,,,,,,,,,,669.8697855510982,669.8697855510982,669.8697855510982,669.8697855510982,669.8697855510982,669.8697855510982,s,1,0.5748408504296094,670.4601006109733,671.4907239995664,,,,,,,,,,,,,,,,,,,,,,,,,,,,,,,,,,,,,,,576,2023-05-17_09h16.15.471,eb_02psyexp,2022.2.4,99.93930568780584,
99,0,99,0,,,,,,,,,,,,,,,,,,,,,,,,,,,,,,,,,,,,,,,,,,,,,,,,,,,,,,,,,,,671.4907239995664,671.4907239995664,671.4907239995664,671.4907239995664,671.4907239995664,671.4907239995664,s,1,0.5219310338143259,672.0310293701477,673.0516432747245,,,,,,,,,,,,,,,,,,,,,,,,,,,,,,,,,,,,,,,576,2023-05-17_09h16.15.471,eb_02psyexp,2022.2.4,99.93930568780584,
100,0,100,0,,,,,,,,,,,,,,,,,,,,,,,,,,,,,,,,,,,,,,,,,,,,,,,,,,,,,,,,,,,673.0516432747245,673.0516432747245,673.0516432747245,673.0516432747245,673.0516432747245,673.0516432747245,l,1,0.8250142603646964,673.8921317445347,674.9227512090001,,,,,,,,,,,,,,,,,,,,,,,,,,,,,,,,,,,,,,,576,2023-05-17_09h16.15.471,eb_02psyexp,2022.2.4,99.93930568780584,
101,0,101,0,,,,,,,,,,,,,,,,,,,,,,,,,,,,,,,,,,,,,,,,,,,,,,,,,,,,,,,,,,,674.9227512090001,674.9227512090001,674.9227512090001,674.9227512090001,674.9227512090001,674.9227512090001,s,1,0.47390114632435143,675.4130197243067,676.4336843389319,,,,,,,,,,,,,,,,,,,,,,,,,,,,,,,,,,,,,,,576,2023-05-17_09h16.15.471,eb_02psyexp,2022.2.4,99.93930568780584,
102,0,102,0,,,,,,,,,,,,,,,,,,,,,,,,,,,,,,,,,,,,,,,,,,,,,,,,,,,,,,,,,,,676.4336843389319,676.4336843389319,676.4336843389319,676.4336843389319,676.4336843389319,676.4336843389319,s,1,0.6029682820662856,677.0540166823193,678.0746589603368,,,,,,,,,,,,,,,,,,,,,,,,,,,,,,,,,,,,,,,576,2023-05-17_09h16.15.471,eb_02psyexp,2022.2.4,99.93930568780584,
103,0,103,0,,,,,,,,,,,,,,,,,,,,,,,,,,,,,,,,,,,,,,,,,,,,,,,,,,,,,,,,,,,678.0746589603368,678.0746589603368,678.0746589603368,678.0746589603368,678.0746589603368,678.0746589603368,l,1,0.5690173537004739,678.6549400867661,679.6855849062558,,,,,,,,,,,,,,,,,,,,,,,,,,,,,,,,,,,,,,,576,2023-05-17_09h16.15.471,eb_02psyexp,2022.2.4,99.93930568780584,
104,0,104,0,,,,,,,,,,,,,,,,,,,,,,,,,,,,,,,,,,,,,,,,,,,,,,,,,,,,,,,,,,,679.6855849062558,679.6855849062558,679.6855849062558,679.6855849062558,679.6855849062558,679.6855849062558,s,1,0.5820863391272724,680.2859287682222,681.3165340459673,,,,,,,,,,,,,,,,,,,,,,,,,,,,,,,,,,,,,,,576,2023-05-17_09h16.15.471,eb_02psyexp,2022.2.4,99.93930568780584,
105,0,105,0,,,,,,,,,,,,,,,,,,,,,,,,,,,,,,,,,,,,,,,,,,,,,,,,,,,,,,,,,,,681.3165340459673,681.3165340459673,681.3165340459673,681.3165340459673,681.3165340459673,681.3165340459673,s,1,0.49514319037552923,681.8268308864208,,,,,,,,,,,,,,,,,,,,,,,,,,,,,,,,,,,,,,,,576,2023-05-17_09h16.15.471,eb_02psyexp,2022.2.4,99.93930568780584,
106,0,106,0,,,,,,,,,,,,,,,,,,,,,,,,,,,,,,,,,,,,,,,,,,,,,,,,,,,,,,,,,,,682.8477710855659,682.8477710855659,682.8477710855659,682.8477710855659,682.8477710855659,682.8477710855659,s,1,0.5319181812228635,683.3981399703771,684.4183681169525,,,,,,,,,,,,,,,,,,,,,,,,,,,,,,,,,,,,,,,576,2023-05-17_09h16.15.471,eb_02psyexp,2022.2.4,99.93930568780584,
107,0,107,0,,,,,,,,,,,,,,,,,,,,,,,,,,,,,,,,,,,,,,,,,,,,,,,,,,,,,,,,,,,684.4183681169525,684.4183681169525,684.4183681169525,684.4183681169525,684.4183681169525,684.4183681169525,l,1,0.5693958672927693,684.9987204787321,686.0293345100945,,,,,,,,,,,,,,,,,,,,,,,,,,,,,,,,,,,,,,,576,2023-05-17_09h16.15.471,eb_02psyexp,2022.2.4,99.93930568780584,
108,0,108,0,,,,,,,,,,,,,,,,,,,,,,,,,,,,,,,,,,,,,,,,,,,,,,,,,,,,,,,,,,,686.0293345100945,686.0293345100945,686.0293345100945,686.0293345100945,686.0293345100945,686.0293345100945,s,1,0.5584017648361623,686.5996559569612,687.6203272121493,,,,,,,,,,,,,,,,,,,,,,,,,,,,,,,,,,,,,,,576,2023-05-17_09h16.15.471,eb_02psyexp,2022.2.4,99.93930568780584,
109,0,109,0,,,,,,,,,,,,,,,,,,,,,,,,,,,,,,,,,,,,,,,,,,,,,,,,,,,,,,,,,,,687.6203272121493,687.6203272121493,687.6203272121493,687.6203272121493,687.6203272121493,687.6203272121493,l,1,0.5753947360208258,688.21063653694,689.23123625468,,,,,,,,,,,,,,,,,,,,,,,,,,,,,,,,,,,,,,,576,2023-05-17_09h16.15.471,eb_02psyexp,2022.2.4,99.93930568780584,
110,0,110,0,,,,,,,,,,,,,,,,,,,,,,,,,,,,,,,,,,,,,,,,,,,,,,,,,,,,,,,,,,,689.23123625468,689.23123625468,689.23123625468,689.23123625468,689.23123625468,689.23123625468,l,1,0.5244982260046527,689.7715543027734,690.7922098620329,,,,,,,,,,,,,,,,,,,,,,,,,,,,,,,,,,,,,,,576,2023-05-17_09h16.15.471,eb_02psyexp,2022.2.4,99.93930568780584,
111,0,111,0,,,,,,,,,,,,,,,,,,,,,,,,,,,,,,,,,,,,,,,,,,,,,,,,,,,,,,,,,,,690.7922098620329,690.7922098620329,690.7922098620329,690.7922098620329,690.7922098620329,690.7922098620329,l,1,0.6675027555320412,691.4725650007604,692.4931450986769,,,,,,,,,,,,,,,,,,,,,,,,,,,,,,,,,,,,,,,576,2023-05-17_09h16.15.471,eb_02psyexp,2022.2.4,99.93930568780584,
112,0,112,0,,,,,,,,,,,,,,,,,,,,,,,,,,,,,,,,,,,,,,,,,,,,,,,,,,,,,,,,,,,692.4931450986769,692.4931450986769,692.4931450986769,692.4931450986769,692.4931450986769,692.4931450986769,l,1,0.638625540654175,693.1435563022969,694.174191160826,,,,,,,,,,,,,,,,,,,,,,,,,,,,,,,,,,,,,,,576,2023-05-17_09h16.15.471,eb_02psyexp,2022.2.4,99.93930568780584,
113,0,113,0,,,,,,,,,,,,,,,,,,,,,,,,,,,,,,,,,,,,,,,,,,,,,,,,,,,,,,,,,,,694.174191160826,694.174191160826,694.174191160826,694.174191160826,694.174191160826,694.174191160826,s,1,0.6045743996510282,694.7945437279996,695.8151497845538,,,,,,,,,,,,,,,,,,,,,,,,,,,,,,,,,,,,,,,576,2023-05-17_09h16.15.471,eb_02psyexp,2022.2.4,99.93930568780584,
114,0,114,0,,,,,,,,,,,,,,,,,,,,,,,,,,,,,,,,,,,,,,,,,,,,,,,,,,,,,,,,,,,695.8151497845538,695.8151497845538,695.8151497845538,695.8151497845538,695.8151497845538,695.8151497845538,s,1,0.6436062860302627,696.4755354580702,697.4961907153483,,,,,,,,,,,,,,,,,,,,,,,,,,,,,,,,,,,,,,,576,2023-05-17_09h16.15.471,eb_02psyexp,2022.2.4,99.93930568780584,
115,0,115,0,,,,,,,,,,,,,,,,,,,,,,,,,,,,,,,,,,,,,,,,,,,,,,,,,,,,,,,,,,,697.4961907153483,697.4961907153483,697.4961907153483,697.4961907153483,697.4961907153483,697.4961907153483,l,1,0.6345919851446524,698.1465321927099,699.1771598070627,,,,,,,,,,,,,,,,,,,,,,,,,,,,,,,,,,,,,,,576,2023-05-17_09h16.15.471,eb_02psyexp,2022.2.4,99.93930568780584,
116,0,116,0,,,,,,,,,,,,,,,,,,,,,,,,,,,,,,,,,,,,,,,,,,,,,,,,,,,,,,,,,,,699.1771598070627,699.1771598070627,699.1771598070627,699.1771598070627,699.1771598070627,699.1771598070627,s,1,0.43363018601667136,699.6274127230281,700.6580158879515,,,,,,,,,,,,,,,,,,,,,,,,,,,,,,,,,,,,,,,576,2023-05-17_09h16.15.471,eb_02psyexp,2022.2.4,99.93930568780584,
117,0,117,0,,,,,,,,,,,,,,,,,,,,,,,,,,,,,,,,,,,,,,,,,,,,,,,,,,,,,,,,,,,700.6580158879515,700.6580158879515,700.6580158879515,700.6580158879515,700.6580158879515,700.6580158879515,s,1,0.4967800962040201,701.1683284243336,702.1889329716796,,,,,,,,,,,,,,,,,,,,,,,,,,,,,,,,,,,,,,,576,2023-05-17_09h16.15.471,eb_02psyexp,2022.2.4,99.93930568780584,
118,0,118,0,,,,,,,,,,,,,,,,,,,,,,,,,,,,,,,,,,,,,,,,,,,,,,,,,,,,,,,,,,,702.1889329716796,702.1889329716796,702.1889329716796,702.1889329716796,702.1889329716796,702.1889329716796,l,1,0.5178567292168736,702.7192367062671,703.7399046410574,,,,,,,,,,,,,,,,,,,,,,,,,,,,,,,,,,,,,,,576,2023-05-17_09h16.15.471,eb_02psyexp,2022.2.4,99.93930568780584,
119,0,119,0,,,,,,,,,,,,,,,,,,,,,,,,,,,,,,,,,,,,,,,,,,,,,,,,,,,,,,,,,,,703.7399046410574,703.7399046410574,703.7399046410574,703.7399046410574,703.7399046410574,703.7399046410574,l,1,0.6068949843756855,704.360216459143,705.3807941422565,,,,,,,,,,,,,,,,,,,,,,,,,,,,,,,,,,,,,,,576,2023-05-17_09h16.15.471,eb_02psyexp,2022.2.4,99.93930568780584,
120,0,120,0,,,,,,,,,,,,,,,,,,,,,,,,,,,,,,,,,,,,,,,,,,,,,,,,,,,,,,,,,,,705.3807941422565,705.3807941422565,705.3807941422565,705.3807941422565,705.3807941422565,705.3807941422565,l,1,0.5419998061843216,705.9411628519883,,,,,,,,,,,,,,,,,,,,,,,,,,,,,,,,,,,,,,,,576,2023-05-17_09h16.15.471,eb_02psyexp,2022.2.4,99.93930568780584,
121,0,121,0,,,,,,,,,,,,,,,,,,,,,,,,,,,,,,,,,,,,,,,,,,,,,,,,,,,,,,,,,,,706.9618452753639,706.9618452753639,706.9618452753639,706.9618452753639,706.9618452753639,706.9618452753639,l,1,0.4970101020298898,707.4723869122099,708.4926853886573,,,,,,,,,,,,,,,,,,,,,,,,,,,,,,,,,,,,,,,576,2023-05-17_09h16.15.471,eb_02psyexp,2022.2.4,99.93930568780584,
122,0,122,0,,,,,,,,,,,,,,,,,,,,,,,,,,,,,,,,,,,,,,,,,,,,,,,,,,,,,,,,,,,708.4926853886573,708.4926853886573,708.4926853886573,708.4926853886573,708.4926853886573,708.4926853886573,s,1,0.6051889561349526,709.1130279948702,710.1436528926715,,,,,,,,,,,,,,,,,,,,,,,,,,,,,,,,,,,,,,,576,2023-05-17_09h16.15.471,eb_02psyexp,2022.2.4,99.93930568780584,
123,0,123,0,,,,,,,,,,,,,,,,,,,,,,,,,,,,,,,,,,,,,,,,,,,,,,,,,,,,,,,,,,,710.1436528926715,710.1436528926715,710.1436528926715,710.1436528926715,710.1436528926715,710.1436528926715,s,1,0.5221743208821863,710.6840162174776,711.7045769973192,,,,,,,,,,,,,,,,,,,,,,,,,,,,,,,,,,,,,,,576,2023-05-17_09h16.15.471,eb_02psyexp,2022.2.4,99.93930568780584,
124,0,124,0,,,,,,,,,,,,,,,,,,,,,,,,,,,,,,,,,,,,,,,,,,,,,,,,,,,,,,,,,,,711.7045769973192,711.7045769973192,711.7045769973192,711.7045769973192,711.7045769973192,711.7045769973192,s,1,0.6012897217879072,712.3249642766314,713.3555746858474,,,,,,,,,,,,,,,,,,,,,,,,,,,,,,,,,,,,,,,576,2023-05-17_09h16.15.471,eb_02psyexp,2022.2.4,99.93930568780584,
125,0,125,0,,,,,,,,,,,,,,,,,,,,,,,,,,,,,,,,,,,,,,,,,,,,,,,,,,,,,,,,,,,713.3555746858474,713.3555746858474,713.3555746858474,713.3555746858474,713.3555746858474,713.3555746858474,s,1,0.5423170452704653,713.9158926856471,714.9368398271035,,,,,,,,,,,,,,,,,,,,,,,,,,,,,,,,,,,,,,,576,2023-05-17_09h16.15.471,eb_02psyexp,2022.2.4,99.93930568780584,
126,0,126,0,,,,,,,,,,,,,,,,,,,,,,,,,,,,,,,,,,,,,,,,,,,,,,,,,,,,,,,,,,,714.9368398271035,714.9368398271035,714.9368398271035,714.9368398271035,714.9368398271035,714.9368398271035,s,1,0.5530406946782023,715.5071615758352,716.5274371120613,,,,,,,,,,,,,,,,,,,,,,,,,,,,,,,,,,,,,,,576,2023-05-17_09h16.15.471,eb_02psyexp,2022.2.4,99.93930568780584,
127,0,127,0,,,,,,,,,,,,,,,,,,,,,,,,,,,,,,,,,,,,,,,,,,,,,,,,,,,,,,,,,,,716.5274371120613,716.5274371120613,716.5274371120613,716.5274371120613,716.5274371120613,716.5274371120613,l,1,0.538459767238237,717.0777634368278,718.1083744496573,,,,,,,,,,,,,,,,,,,,,,,,,,,,,,,,,,,,,,,576,2023-05-17_09h16.15.471,eb_02psyexp,2022.2.4,99.93930568780584,
128,0,128,0,,,,,,,,,,,,,,,,,,,,,,,,,,,,,,,,,,,,,,,,,,,,,,,,,,,,,,,,,,,718.1083744496573,718.1083744496573,718.1083744496573,718.1083744496573,718.1083744496573,718.1083744496573,s,1,0.44552499416749924,718.5686552621191,719.5892930125119,,,,,,,,,,,,,,,,,,,,,,,,,,,,,,,,,,,,,,,576,2023-05-17_09h16.15.471,eb_02psyexp,2022.2.4,99.93930568780584,
129,0,129,0,,,,,,,,,,,,,,,,,,,,,,,,,,,,,,,,,,,,,,,,,,,,,,,,,,,,,,,,,,,719.5892930125119,719.5892930125119,719.5892930125119,719.5892930125119,719.5892930125119,719.5892930125119,s,1,0.6126043836120516,720.2196342361858,721.2402384817833,,,,,,,,,,,,,,,,,,,,,,,,,,,,,,,,,,,,,,,576,2023-05-17_09h16.15.471,eb_02psyexp,2022.2.4,99.93930568780584,
130,0,130,0,,,,,,,,,,,,,,,,,,,,,,,,,,,,,,,,,,,,,,,,,,,,,,,,,,,,,,,,,,,721.2402384817833,721.2402384817833,721.2402384817833,721.2402384817833,721.2402384817833,721.2402384817833,l,1,0.529695997829549,721.780539022875,722.8011930728098,,,,,,,,,,,,,,,,,,,,,,,,,,,,,,,,,,,,,,,576,2023-05-17_09h16.15.471,eb_02psyexp,2022.2.4,99.93930568780584,
131,0,131,0,,,,,,,,,,,,,,,,,,,,,,,,,,,,,,,,,,,,,,,,,,,,,,,,,,,,,,,,,,,722.8011930728098,722.8011930728098,722.8011930728098,722.8011930728098,722.8011930728098,722.8011930728098,s,1,0.5367383449338377,723.3515142661054,724.3820953962859,,,,,,,,,,,,,,,,,,,,,,,,,,,,,,,,,,,,,,,576,2023-05-17_09h16.15.471,eb_02psyexp,2022.2.4,99.93930568780584,
132,0,132,0,,,,,,,,,,,,,,,,,,,,,,,,,,,,,,,,,,,,,,,,,,,,,,,,,,,,,,,,,,,724.3820953962859,724.3820953962859,724.3820953962859,724.3820953962859,724.3820953962859,724.3820953962859,s,1,0.4588792233262211,724.8523911259836,,,,,,,,,,,,,,,,,,,,,,,,,,,,,,,,,,,,,,,,576,2023-05-17_09h16.15.471,eb_02psyexp,2022.2.4,99.93930568780584,
133,0,133,0,,,,,,,,,,,,,,,,,,,,,,,,,,,,,,,,,,,,,,,,,,,,,,,,,,,,,,,,,,,725.8833205853589,725.8833205853589,725.8833205853589,725.8833205853589,725.8833205853589,725.8833205853589,s,1,0.5896831755526364,726.4836620325223,727.5139724076726,,,,,,,,,,,,,,,,,,,,,,,,,,,,,,,,,,,,,,,576,2023-05-17_09h16.15.471,eb_02psyexp,2022.2.4,99.93930568780584,
134,0,134,0,,,,,,,,,,,,,,,,,,,,,,,,,,,,,,,,,,,,,,,,,,,,,,,,,,,,,,,,,,,727.5139724076726,727.5139724076726,727.5139724076726,727.5139724076726,727.5139724076726,727.5139724076726,s,1,0.566971447900869,728.0943151105894,729.1249113329686,,,,,,,,,,,,,,,,,,,,,,,,,,,,,,,,,,,,,,,576,2023-05-17_09h16.15.471,eb_02psyexp,2022.2.4,99.93930568780584,
135,0,135,0,,,,,,,,,,,,,,,,,,,,,,,,,,,,,,,,,,,,,,,,,,,,,,,,,,,,,,,,,,,729.1249113329686,729.1249113329686,729.1249113329686,729.1249113329686,729.1249113329686,729.1249113329686,s,1,0.6200744452653453,729.7553210755577,730.7859022058547,,,,,,,,,,,,,,,,,,,,,,,,,,,,,,,,,,,,,,,576,2023-05-17_09h16.15.471,eb_02psyexp,2022.2.4,99.93930568780584,
136,0,136,0,,,,,,,,,,,,,,,,,,,,,,,,,,,,,,,,,,,,,,,,,,,,,,,,,,,,,,,,,,,730.7859022058547,730.7859022058547,730.7859022058547,730.7859022058547,730.7859022058547,730.7859022058547,s,1,0.4950622959295288,731.2961969333701,732.3168069139356,,,,,,,,,,,,,,,,,,,,,,,,,,,,,,,,,,,,,,,576,2023-05-17_09h16.15.471,eb_02psyexp,2022.2.4,99.93930568780584,
137,0,137,0,,,,,,,,,,,,,,,,,,,,,,,,,,,,,,,,,,,,,,,,,,,,,,,,,,,,,,,,,,,732.3168069139356,732.3168069139356,732.3168069139356,732.3168069139356,732.3168069139356,732.3168069139356,l,1,0.5561780722346157,732.8871513010236,733.918074421701,,,,,,,,,,,,,,,,,,,,,,,,,,,,,,,,,,,,,,,576,2023-05-17_09h16.15.471,eb_02psyexp,2022.2.4,99.93930568780584,
138,0,138,0,,,,,,,,,,,,,,,,,,,,,,,,,,,,,,,,,,,,,,,,,,,,,,,,,,,,,,,,,,,733.918074421701,733.918074421701,733.918074421701,733.918074421701,733.918074421701,733.918074421701,s,1,0.44291403447277844,734.3783374252962,735.3986304686405,,,,,,,,,,,,,,,,,,,,,,,,,,,,,,,,,,,,,,,576,2023-05-17_09h16.15.471,eb_02psyexp,2022.2.4,99.93930568780584,
139,0,139,0,,,,,,,,,,,,,,,,,,,,,,,,,,,,,,,,,,,,,,,,,,,,,,,,,,,,,,,,,,,735.3986304686405,735.3986304686405,735.3986304686405,735.3986304686405,735.3986304686405,735.3986304686405,l,1,0.6903717445675284,736.0990537761245,737.1197084297892,,,,,,,,,,,,,,,,,,,,,,,,,,,,,,,,,,,,,,,576,2023-05-17_09h16.15.471,eb_02psyexp,2022.2.4,99.93930568780584,
140,0,140,0,,,,,,,,,,,,,,,,,,,,,,,,,,,,,,,,,,,,,,,,,,,,,,,,,,,,,,,,,,,737.1197084297892,737.1197084297892,737.1197084297892,737.1197084297892,737.1197084297892,737.1197084297892,l,1,0.5132952466374263,737.6499868093524,738.6805772967637,,,,,,,,,,,,,,,,,,,,,,,,,,,,,,,,,,,,,,,576,2023-05-17_09h16.15.471,eb_02psyexp,2022.2.4,99.93930568780584,
141,0,141,0,,,,,,,,,,,,,,,,,,,,,,,,,,,,,,,,,,,,,,,,,,,,,,,,,,,,,,,,,,,738.6805772967637,738.6805772967637,738.6805772967637,738.6805772967637,738.6805772967637,738.6805772967637,s,1,0.4964202968403697,739.1908801741665,740.2114844196476,,,,,,,,,,,,,,,,,,,,,,,,,,,,,,,,,,,,,,,576,2023-05-17_09h16.15.471,eb_02psyexp,2022.2.4,99.93930568780584,
142,0,142,0,,,,,,,,,,,,,,,,,,,,,,,,,,,,,,,,,,,,,,,,,,,,,,,,,,,,,,,,,,,740.2114844196476,740.2114844196476,740.2114844196476,740.2114844196476,740.2114844196476,740.2114844196476,s,1,0.4765519496286288,740.701812700252,741.7224260012154,,,,,,,,,,,,,,,,,,,,,,,,,,,,,,,,,,,,,,,576,2023-05-17_09h16.15.471,eb_02psyexp,2022.2.4,99.93930568780584,
143,0,143,0,,,,,,,,,,,,,,,,,,,,,,,,,,,,,,,,,,,,,,,,,,,,,,,,,,,,,,,,,,,741.7224260012154,741.7224260012154,741.7224260012154,741.7224260012154,741.7224260012154,741.7224260012154,l,1,0.5096622395794839,742.2426903691376,743.2732986654155,,,,,,,,,,,,,,,,,,,,,,,,,,,,,,,,,,,,,,,576,2023-05-17_09h16.15.471,eb_02psyexp,2022.2.4,99.93930568780584,
144,0,144,0,,,,,,,,,,,,,,,,,,,,,,,,,,,,,,,,,,,,,,,,,,,,,,,,,,,,,,,,,,,743.2732986654155,743.2732986654155,743.2732986654155,743.2732986654155,743.2732986654155,743.2732986654155,s,1,0.4787677940912545,743.7635895173298,744.7842218343867,,,,,,,,,,,,,,,,,,,,,,,,,,,,,,,,,,,,,,,576,2023-05-17_09h16.15.471,eb_02psyexp,2022.2.4,99.93930568780584,
145,0,145,0,,,,,,,,,,,,,,,,,,,,,,,,,,,,,,,,,,,,,,,,,,,,,,,,,,,,,,,,,,,744.7842218343867,744.7842218343867,744.7842218343867,744.7842218343867,744.7842218343867,744.7842218343867,s,1,0.5118231483502313,745.3148425063118,746.3451208858751,,,,,,,,,,,,,,,,,,,,,,,,,,,,,,,,,,,,,,,576,2023-05-17_09h16.15.471,eb_02psyexp,2022.2.4,99.93930568780584,
146,0,146,0,,,,,,,,,,,,,,,,,,,,,,,,,,,,,,,,,,,,,,,,,,,,,,,,,,,,,,,,,,,746.3451208858751,746.3451208858751,746.3451208858751,746.3451208858751,746.3451208858751,746.3451208858751,s,1,0.47893260163255036,746.8354114359245,,,,,,,,,,,,,,,,,,,,,,,,,,,,,,,,,,,,,,,,576,2023-05-17_09h16.15.471,eb_02psyexp,2022.2.4,99.93930568780584,
147,0,147,0,,,,,,,,,,,,,,,,,,,,,,,,,,,,,,,,,,,,,,,,,,,,,,,,,,,,,,,,,,,747.8563543516211,747.8563543516211,747.8563543516211,747.8563543516211,747.8563543516211,747.8563543516211,l,1,0.551705030258745,748.4266652339138,749.4470089870738,,,,,,,,,,,,,,,,,,,,,,,,,,,,,,,,,,,,,,,576,2023-05-17_09h16.15.471,eb_02psyexp,2022.2.4,99.93930568780584,
148,0,148,0,,,,,,,,,,,,,,,,,,,,,,,,,,,,,,,,,,,,,,,,,,,,,,,,,,,,,,,,,,,749.4470089870738,749.4470089870738,749.4470089870738,749.4470089870738,749.4470089870738,749.4470089870738,l,1,0.5610776212997735,750.0273091298295,751.0479182048002,,,,,,,,,,,,,,,,,,,,,,,,,,,,,,,,,,,,,,,576,2023-05-17_09h16.15.471,eb_02psyexp,2022.2.4,99.93930568780584,
149,0,149,0,,,,,,,,,,,,,,,,,,,,,,,,,,,,,,,,,,,,,,,,,,,,,,,,,,,,,,,,,,,751.0479182048002,751.0479182048002,751.0479182048002,751.0479182048002,751.0479182048002,751.0479182048002,l,1,0.5441851643845439,751.6082319788402,752.6288467888953,,,,,,,,,,,,,,,,,,,,,,,,,,,,,,,,,,,,,,,576,2023-05-17_09h16.15.471,eb_02psyexp,2022.2.4,99.93930568780584,
150,0,150,0,,,,,,,,,,,,,,,,,,,,,,,,,,,,,,,,,,,,,,,,,,,,,,,,,,,,,,,,,,,752.6288467888953,752.6288467888953,752.6288467888953,752.6288467888953,752.6288467888953,752.6288467888953,s,1,0.5472591544967145,753.1892127820756,754.2097554511856,,,,,,,,,,,,,,,,,,,,,,,,,,,,,,,,,,,,,,,576,2023-05-17_09h16.15.471,eb_02psyexp,2022.2.4,99.93930568780584,
151,0,151,0,,,,,,,,,,,,,,,,,,,,,,,,,,,,,,,,,,,,,,,,,,,,,,,,,,,,,,,,,,,754.2097554511856,754.2097554511856,754.2097554511856,754.2097554511856,754.2097554511856,754.2097554511856,s,1,0.5263289163121954,754.7501124372939,755.770719097578,,,,,,,,,,,,,,,,,,,,,,,,,,,,,,,,,,,,,,,576,2023-05-17_09h16.15.471,eb_02psyexp,2022.2.4,99.93930568780584,
152,0,152,0,,,,,,,,,,,,,,,,,,,,,,,,,,,,,,,,,,,,,,,,,,,,,,,,,,,,,,,,,,,755.770719097578,755.770719097578,755.770719097578,755.770719097578,755.770719097578,755.770719097578,s,1,0.4764058565488085,756.2609990829369,757.2815936694387,,,,,,,,,,,,,,,,,,,,,,,,,,,,,,,,,,,,,,,576,2023-05-17_09h16.15.471,eb_02psyexp,2022.2.4,99.93930568780584,
153,0,153,0,,,,,,,,,,,,,,,,,,,,,,,,,,,,,,,,,,,,,,,,,,,,,,,,,,,,,,,,,,,757.2815936694387,757.2815936694387,757.2815936694387,757.2815936694387,757.2815936694387,757.2815936694387,s,1,0.949524441268295,758.2422010783339,759.2628246418899,,,,,,,,,,,,,,,,,,,,,,,,,,,,,,,,,,,,,,,576,2023-05-17_09h16.15.471,eb_02psyexp,2022.2.4,99.93930568780584,
154,0,154,0,,,,,,,,,,,,,,,,,,,,,,,,,,,,,,,,,,,,,,,,,,,,,,,,,,,,,,,,,,,759.2628246418899,759.2628246418899,759.2628246418899,759.2628246418899,759.2628246418899,759.2628246418899,l,1,0.6243078222032636,759.9031635776628,,,,,,,,,,,,,,,,,,,,,,,,,,,,,,,,,,,,,,,,576,2023-05-17_09h16.15.471,eb_02psyexp,2022.2.4,99.93930568780584,
155,0,155,0,,,,,,,,,,,,,,,,,,,,,,,,,,,,,,,,,,,,,,,,,,,,,,,,,,,,,,,,,,,760.934044741909,760.934044741909,760.934044741909,760.934044741909,760.934044741909,760.934044741909,s,1,0.5611123333219439,761.5144429841312,762.5347568547586,,,,,,,,,,,,,,,,,,,,,,,,,,,,,,,,,,,,,,,576,2023-05-17_09h16.15.471,eb_02psyexp,2022.2.4,99.93930568780584,
156,0,156,0,,,,,,,,,,,,,,,,,,,,,,,,,,,,,,,,,,,,,,,,,,,,,,,,,,,,,,,,,,,762.5347568547586,762.5347568547586,762.5347568547586,762.5347568547586,762.5347568547586,762.5347568547586,s,1,0.5443469532765448,763.0950730434852,764.1256614179583,,,,,,,,,,,,,,,,,,,,,,,,,,,,,,,,,,,,,,,576,2023-05-17_09h16.15.471,eb_02psyexp,2022.2.4,99.93930568780584,
157,0,157,0,,,,,,,,,,,,,,,,,,,,,,,,,,,,,,,,,,,,,,,,,,,,,,,,,,,,,,,,,,,764.1256614179583,764.1256614179583,764.1256614179583,764.1256614179583,764.1256614179583,764.1256614179583,s,1,0.6094986998941749,764.7460194182349,765.7666351338848,,,,,,,,,,,,,,,,,,,,,,,,,,,,,,,,,,,,,,,576,2023-05-17_09h16.15.471,eb_02psyexp,2022.2.4,99.93930568780584,
158,0,158,0,,,,,,,,,,,,,,,,,,,,,,,,,,,,,,,,,,,,,,,,,,,,,,,,,,,,,,,,,,,765.7666351338848,765.7666351338848,765.7666351338848,765.7666351338848,765.7666351338848,765.7666351338848,s,1,0.5205401317216456,766.3069607281359,767.3375810981961,,,,,,,,,,,,,,,,,,,,,,,,,,,,,,,,,,,,,,,576,2023-05-17_09h16.15.471,eb_02psyexp,2022.2.4,99.93930568780584,
159,0,159,0,,,,,,,,,,,,,,,,,,,,,,,,,,,,,,,,,,,,,,,,,,,,,,,,,,,,,,,,,,,767.3375810981961,767.3375810981961,767.3375810981961,767.3375810981961,767.3375810981961,767.3375810981961,s,1,0.44560045551043004,767.7978356501553,768.8187722271541,,,,,,,,,,,,,,,,,,,,,,,,,,,,,,,,,,,,,,,576,2023-05-17_09h16.15.471,eb_02psyexp,2022.2.4,99.93930568780584,
160,0,160,0,,,,,,,,,,,,,,,,,,,,,,,,,,,,,,,,,,,,,,,,,,,,,,,,,,,,,,,,,,,768.8187722271541,768.8187722271541,768.8187722271541,768.8187722271541,768.8187722271541,768.8187722271541,s,1,0.4844322185963392,769.3190695444355,770.3394187309314,,,,,,,,,,,,,,,,,,,,,,,,,,,,,,,,,,,,,,,576,2023-05-17_09h16.15.471,eb_02psyexp,2022.2.4,99.93930568780584,
161,0,161,0,,,,,,,,,,,,,,,,,,,,,,,,,,,,,,,,,,,,,,,,,,,,,,,,,,,,,,,,,,,770.3394187309314,770.3394187309314,770.3394187309314,770.3394187309314,770.3394187309314,770.3394187309314,l,1,0.5317654475802556,770.8896919308463,,,,,,,,,,,,,,,,,,,,,,,,,,,,,,,,,,,,,,,,576,2023-05-17_09h16.15.471,eb_02psyexp,2022.2.4,99.93930568780584,
162,0,162,0,,,,,,,,,,,,,,,,,,,,,,,,,,,,,,,,,,,,,,,,,,,,,,,,,,,,,,,,,,,771.9106203579577,771.9106203579577,771.9106203579577,771.9106203579577,771.9106203579577,771.9106203579577,s,1,0.47958368132822216,772.4008852512343,773.4212157232687,,,,,,,,,,,,,,,,,,,,,,,,,,,,,,,,,,,,,,,576,2023-05-17_09h16.15.471,eb_02psyexp,2022.2.4,99.93930568780584,
163,0,163,0,,,,,,,,,,,,,,,,,,,,,,,,,,,,,,,,,,,,,,,,,,,,,,,,,,,,,,,,,,,773.4212157232687,773.4212157232687,773.4212157232687,773.4212157232687,773.4212157232687,773.4212157232687,l,1,0.44100335519760847,773.8814597106539,774.9123755870387,,,,,,,,,,,,,,,,,,,,,,,,,,,,,,,,,,,,,,,576,2023-05-17_09h16.15.471,eb_02psyexp,2022.2.4,99.93930568780584,
164,0,164,0,,,,,,,,,,,,,,,,,,,,,,,,,,,,,,,,,,,,,,,,,,,,,,,,,,,,,,,,,,,774.9123755870387,774.9123755870387,774.9123755870387,774.9123755870387,774.9123755870387,774.9123755870387,s,1,0.4058525926666334,775.3326226894278,776.3629523827694,,,,,,,,,,,,,,,,,,,,,,,,,,,,,,,,,,,,,,,576,2023-05-17_09h16.15.471,eb_02psyexp,2022.2.4,99.93930568780584,
165,0,165,0,,,,,,,,,,,,,,,,,,,,,,,,,,,,,,,,,,,,,,,,,,,,,,,,,,,,,,,,,,,776.3629523827694,776.3629523827694,776.3629523827694,776.3629523827694,776.3629523827694,776.3629523827694,s,1,0.475270617287606,776.8531997689279,777.8841340577928,,,,,,,,,,,,,,,,,,,,,,,,,,,,,,,,,,,,,,,576,2023-05-17_09h16.15.471,eb_02psyexp,2022.2.4,99.93930568780584,
166,0,166,0,,,,,,,,,,,,,,,,,,,,,,,,,,,,,,,,,,,,,,,,,,,,,,,,,,,,,,,,,,,777.8841340577928,777.8841340577928,777.8841340577928,777.8841340577928,777.8841340577928,777.8841340577928,s,1,0.4660996588645503,778.3644244810566,779.3847504254663,,,,,,,,,,,,,,,,,,,,,,,,,,,,,,,,,,,,,,,576,2023-05-17_09h16.15.471,eb_02psyexp,2022.2.4,99.93930568780584,
167,0,167,0,,,,,,,,,,,,,,,,,,,,,,,,,,,,,,,,,,,,,,,,,,,,,,,,,,,,,,,,,,,779.3847504254663,779.3847504254663,779.3847504254663,779.3847504254663,779.3847504254663,779.3847504254663,l,1,0.5415183632867411,779.9450319019379,,,,,,,,,,,,,,,,,,,,,,,,,,,,,,,,,,,,,,,,576,2023-05-17_09h16.15.471,eb_02psyexp,2022.2.4,99.93930568780584,
168,0,168,0,,,,,,,,,,,,,,,,,,,,,,,,,,,,,,,,,,,,,,,,,,,,,,,,,,,,,,,,,,,780.9659941357095,780.9659941357095,780.9659941357095,780.9659941357095,780.9659941357095,780.9659941357095,s,1,0.456264037755318,781.4362590772798,782.4565696275095,,,,,,,,,,,,,,,,,,,,,,,,,,,,,,,,,,,,,,,576,2023-05-17_09h16.15.471,eb_02psyexp,2022.2.4,99.93930568780584,
169,0,169,0,,,,,,,,,,,,,,,,,,,,,,,,,,,,,,,,,,,,,,,,,,,,,,,,,,,,,,,,,,,782.4565696275095,782.4565696275095,782.4565696275095,782.4565696275095,782.4565696275095,782.4565696275095,l,1,0.5096888018306345,782.9768333918182,784.0077534939628,,,,,,,,,,,,,,,,,,,,,,,,,,,,,,,,,,,,,,,576,2023-05-17_09h16.15.471,eb_02psyexp,2022.2.4,99.93930568780584,
170,0,170,0,,,,,,,,,,,,,,,,,,,,,,,,,,,,,,,,,,,,,,,,,,,,,,,,,,,,,,,,,,,784.0077534939628,784.0077534939628,784.0077534939628,784.0077534939628,784.0077534939628,784.0077534939628,s,1,0.4065232924185693,784.4279849005397,785.4482990729157,,,,,,,,,,,,,,,,,,,,,,,,,,,,,,,,,,,,,,,576,2023-05-17_09h16.15.471,eb_02psyexp,2022.2.4,99.93930568780584,
171,0,171,0,,,,,,,,,,,,,,,,,,,,,,,,,,,,,,,,,,,,,,,,,,,,,,,,,,,,,,,,,,,785.4482990729157,785.4482990729157,785.4482990729157,785.4482990729157,785.4482990729157,785.4482990729157,s,1,0.47799356165342033,785.9385835860157,,,,,,,,,,,,,,,,,,,,,,,,,,,,,,,,,,,,,,,,576,2023-05-17_09h16.15.471,eb_02psyexp,2022.2.4,99.93930568780584,
172,0,172,0,,,,,,,,,,,,,,,,,,,,,,,,,,,,,,,,,,,,,,,,,,,,,,,,,,,,,,,,,,,786.9595086928457,786.9595086928457,786.9595086928457,786.9595086928457,786.9595086928457,786.9595086928457,l,1,0.49383016442880034,787.4698173052166,788.5001032310538,,,,,,,,,,,,,,,,,,,,,,,,,,,,,,,,,,,,,,,576,2023-05-17_09h16.15.471,eb_02psyexp,2022.2.4,99.93930568780584,
173,0,173,0,,,,,,,,,,,,,,,,,,,,,,,,,,,,,,,,,,,,,,,,,,,,,,,,,,,,,,,,,,,788.5001032310538,788.5001032310538,788.5001032310538,788.5001032310538,788.5001032310538,788.5001032310538,s,1,0.4251921074464917,788.9403846954228,789.9713011755375,,,,,,,,,,,,,,,,,,,,,,,,,,,,,,,,,,,,,,,576,2023-05-17_09h16.15.471,eb_02psyexp,2022.2.4,99.93930568780584,
174,0,174,0,,,,,,,,,,,,,,,,,,,,,,,,,,,,,,,,,,,,,,,,,,,,,,,,,,,,,,,,,,,789.9713011755375,789.9713011755375,789.9713011755375,789.9713011755375,789.9713011755375,789.9713011755375,s,1,0.5059679578989744,790.4915930114221,791.5118923934642,,,,,,,,,,,,,,,,,,,,,,,,,,,,,,,,,,,,,,,576,2023-05-17_09h16.15.471,eb_02psyexp,2022.2.4,99.93930568780584,
175,0,175,0,,,,,,,,,,,,,,,,,,,,,,,,,,,,,,,,,,,,,,,,,,,,,,,,,,,,,,,,,,,791.5118923934642,791.5118923934642,791.5118923934642,791.5118923934642,791.5118923934642,791.5118923934642,s,1,0.6853759069927037,792.2123178138863,793.2328752733301,,,,,,,,,,,,,,,,,,,,,,,,,,,,,,,,,,,,,,,576,2023-05-17_09h16.15.471,eb_02psyexp,2022.2.4,99.93930568780584,
176,0,176,0,,,,,,,,,,,,,,,,,,,,,,,,,,,,,,,,,,,,,,,,,,,,,,,,,,,,,,,,,,,793.2328752733301,793.2328752733301,793.2328752733301,793.2328752733301,793.2328752733301,793.2328752733301,l,1,0.5244444976560771,793.7732268263353,794.7938497861614,,,,,,,,,,,,,,,,,,,,,,,,,,,,,,,,,,,,,,,576,2023-05-17_09h16.15.471,eb_02psyexp,2022.2.4,99.93930568780584,
177,0,177,0,,,,,,,,,,,,,,,,,,,,,,,,,,,,,,,,,,,,,,,,,,,,,,,,,,,,,,,,,,,794.7938497861614,794.7938497861614,794.7938497861614,794.7938497861614,794.7938497861614,794.7938497861614,s,1,0.46746279124636203,795.2741151562659,796.2946991781937,,,,,,,,,,,,,,,,,,,,,,,,,,,,,,,,,,,,,,,576,2023-05-17_09h16.15.471,eb_02psyexp,2022.2.4,99.93930568780584,
178,0,178,0,,,,,,,,,,,,,,,,,,,,,,,,,,,,,,,,,,,,,,,,,,,,,,,,,,,,,,,,,,,796.2946991781937,796.2946991781937,796.2946991781937,796.2946991781937,796.2946991781937,796.2946991781937,s,1,0.5266476646065712,796.8350386573002,,,,,,,,,,,,,,,,,,,,,,,,,,,,,,,,,,,,,,,,576,2023-05-17_09h16.15.471,eb_02psyexp,2022.2.4,99.93930568780584,
179,0,179,0,,,,,,,,,,,,,,,,,,,,,,,,,,,,,,,,,,,,,,,,,,,,,,,,,,,,,,,,,,,797.8559586327756,797.8559586327756,797.8559586327756,797.8559586327756,797.8559586327756,797.8559586327756,l,1,0.5253901781979948,798.396236233646,799.4265912818955,,,,,,,,,,,,,,,,,,,,,,,,,,,,,,,,,,,,,,,576,2023-05-17_09h16.15.471,eb_02psyexp,2022.2.4,99.93930568780584,
180,0,180,0,,,,,,,,,,,,,,,,,,,,,,,,,,,,,,,,,,,,,,,,,,,,,,,,,,,,,,,,,,,799.4265912818955,799.4265912818955,799.4265912818955,799.4265912818955,799.4265912818955,799.4265912818955,s,1,0.4507641188101843,799.8968519974733,,,,,,,,,,,,,,,,,,,,,,,,,,,,,,,,,,,,,,,,576,2023-05-17_09h16.15.471,eb_02psyexp,2022.2.4,99.93930568780584,
181,0,181,0,,,,,,,,,,,,,,,,,,,,,,,,,,,,,,,,,,,,,,,,,,,,,,,,,,,,,,,,,,,800.9174740519375,800.9174740519375,800.9174740519375,800.9174740519375,800.9174740519375,800.9174740519375,l,1,0.5358919714344665,801.4681004105369,802.4884281660197,,,,,,,,,,,,,,,,,,,,,,,,,,,,,,,,,,,,,,,576,2023-05-17_09h16.15.471,eb_02psyexp,2022.2.4,99.93930568780584,
182,0,182,0,,,,,,,,,,,,,,,,,,,,,,,,,,,,,,,,,,,,,,,,,,,,,,,,,,,,,,,,,,,802.4884281660197,802.4884281660197,802.4884281660197,802.4884281660197,802.4884281660197,802.4884281660197,l,1,0.6199769492959604,803.1187527882867,804.1493674232624,,,,,,,,,,,,,,,,,,,,,,,,,,,,,,,,,,,,,,,576,2023-05-17_09h16.15.471,eb_02psyexp,2022.2.4,99.93930568780584,
183,0,183,0,,,,,,,,,,,,,,,,,,,,,,,,,,,,,,,,,,,,,,,,,,,,,,,,,,,,,,,,,,,804.1493674232624,804.1493674232624,804.1493674232624,804.1493674232624,804.1493674232624,804.1493674232624,s,1,0.4870015236083418,804.6496614203788,805.6702309537213,,,,,,,,,,,,,,,,,,,,,,,,,,,,,,,,,,,,,,,576,2023-05-17_09h16.15.471,eb_02psyexp,2022.2.4,99.93930568780584,
184,0,184,0,,,,,,,,,,,,,,,,,,,,,,,,,,,,,,,,,,,,,,,,,,,,,,,,,,,,,,,,,,,805.6702309537213,805.6702309537213,805.6702309537213,805.6702309537213,805.6702309537213,805.6702309537213,l,1,0.7181614115834236,806.4006950887851,807.4313233068679,,,,,,,,,,,,,,,,,,,,,,,,,,,,,,,,,,,,,,,576,2023-05-17_09h16.15.471,eb_02psyexp,2022.2.4,99.93930568780584,
185,0,185,0,,,,,,,,,,,,,,,,,,,,,,,,,,,,,,,,,,,,,,,,,,,,,,,,,,,,,,,,,,,807.4313233068679,807.4313233068679,807.4313233068679,807.4313233068679,807.4313233068679,807.4313233068679,s,1,0.7970622004941106,808.2417866450269,809.2624373746803,,,,,,,,,,,,,,,,,,,,,,,,,,,,,,,,,,,,,,,576,2023-05-17_09h16.15.471,eb_02psyexp,2022.2.4,99.93930568780584,
186,0,186,0,,,,,,,,,,,,,,,,,,,,,,,,,,,,,,,,,,,,,,,,,,,,,,,,,,,,,,,,,,,809.2624373746803,809.2624373746803,809.2624373746803,809.2624373746803,809.2624373746803,809.2624373746803,l,1,0.5019754533423111,809.7827011389891,810.8036298679654,,,,,,,,,,,,,,,,,,,,,,,,,,,,,,,,,,,,,,,576,2023-05-17_09h16.15.471,eb_02psyexp,2022.2.4,99.93930568780584,
187,0,187,0,,,,,,,,,,,,,,,,,,,,,,,,,,,,,,,,,,,,,,,,,,,,,,,,,,,,,,,,,,,810.8036298679654,810.8036298679654,810.8036298679654,810.8036298679654,810.8036298679654,810.8036298679654,l,1,0.5607896610163152,811.3839698540978,812.4042185262078,,,,,,,,,,,,,,,,,,,,,,,,,,,,,,,,,,,,,,,576,2023-05-17_09h16.15.471,eb_02psyexp,2022.2.4,99.93930568780584,
188,0,188,0,,,,,,,,,,,,,,,,,,,,,,,,,,,,,,,,,,,,,,,,,,,,,,,,,,,,,,,,,,,812.4042185262078,812.4042185262078,812.4042185262078,812.4042185262078,812.4042185262078,812.4042185262078,s,1,0.5282015629345551,812.9445616273442,813.9754968219204,,,,,,,,,,,,,,,,,,,,,,,,,,,,,,,,,,,,,,,576,2023-05-17_09h16.15.471,eb_02psyexp,2022.2.4,99.93930568780584,
189,0,189,0,,,,,,,,,,,,,,,,,,,,,,,,,,,,,,,,,,,,,,,,,,,,,,,,,,,,,,,,,,,813.9754968219204,813.9754968219204,813.9754968219204,813.9754968219204,813.9754968219204,813.9754968219204,s,1,0.5249057168839499,814.5158411305165,815.5361061021686,,,,,,,,,,,,,,,,,,,,,,,,,,,,,,,,,,,,,,,576,2023-05-17_09h16.15.471,eb_02psyexp,2022.2.4,99.93930568780584,
190,0,190,0,,,,,,,,,,,,,,,,,,,,,,,,,,,,,,,,,,,,,,,,,,,,,,,,,,,,,,,,,,,815.5361061021686,815.5361061021686,815.5361061021686,815.5361061021686,815.5361061021686,815.5361061021686,l,1,0.5803791034268215,816.1264549685875,817.1471002650214,,,,,,,,,,,,,,,,,,,,,,,,,,,,,,,,,,,,,,,576,2023-05-17_09h16.15.471,eb_02psyexp,2022.2.4,99.93930568780584,
191,0,191,0,,,,,,,,,,,,,,,,,,,,,,,,,,,,,,,,,,,,,,,,,,,,,,,,,,,,,,,,,,,817.1471002650214,817.1471002650214,817.1471002650214,817.1471002650214,817.1471002650214,817.1471002650214,l,1,0.4733569195959717,817.6373485567747,818.6579328805674,,,,,,,,,,,,,,,,,,,,,,,,,,,,,,,,,,,,,,,576,2023-05-17_09h16.15.471,eb_02psyexp,2022.2.4,99.93930568780584,
192,0,192,0,,,,,,,,,,,,,,,,,,,,,,,,,,,,,,,,,,,,,,,,,,,,,,,,,,,,,,,,,,,818.6579328805674,818.6579328805674,818.6579328805674,818.6579328805674,818.6579328805674,818.6579328805674,l,1,0.4735199159476906,819.148260255577,820.1788646279601,,,,,,,,,,,,,,,,,,,,,,,,,,,,,,,,,,,,,,,576,2023-05-17_09h16.15.471,eb_02psyexp,2022.2.4,99.93930568780584,
193,0,193,0,,,,,,,,,,,,,,,,,,,,,,,,,,,,,,,,,,,,,,,,,,,,,,,,,,,,,,,,,,,820.1788646279601,820.1788646279601,820.1788646279601,820.1788646279601,820.1788646279601,820.1788646279601,s,1,0.43260179995559156,820.629118147539,821.6597671929048,,,,,,,,,,,,,,,,,,,,,,,,,,,,,,,,,,,,,,,576,2023-05-17_09h16.15.471,eb_02psyexp,2022.2.4,99.93930568780584,
194,0,194,0,,,,,,,,,,,,,,,,,,,,,,,,,,,,,,,,,,,,,,,,,,,,,,,,,,,,,,,,,,,821.6597671929048,821.6597671929048,821.6597671929048,821.6597671929048,821.6597671929048,821.6597671929048,l,1,0.5437145879259333,822.2200589322019,823.2506630026037,,,,,,,,,,,,,,,,,,,,,,,,,,,,,,,,,,,,,,,576,2023-05-17_09h16.15.471,eb_02psyexp,2022.2.4,99.93930568780584,
195,0,195,0,,,,,,,,,,,,,,,,,,,,,,,,,,,,,,,,,,,,,,,,,,,,,,,,,,,,,,,,,,,823.2506630026037,823.2506630026037,823.2506630026037,823.2506630026037,823.2506630026037,823.2506630026037,s,1,0.49681329913437366,823.7609604467871,,,,,,,,,,,,,,,,,,,,,,,,,,,,,,,,,,,,,,,,576,2023-05-17_09h16.15.471,eb_02psyexp,2022.2.4,99.93930568780584,
196,0,196,0,,,,,,,,,,,,,,,,,,,,,,,,,,,,,,,,,,,,,,,,,,,,,,,,,,,,,,,,,,,824.7815432613716,824.7815432613716,824.7815432613716,824.7815432613716,824.7815432613716,824.7815432613716,s,1,0.509980384260416,825.3021822189912,826.3324941034662,,,,,,,,,,,,,,,,,,,,,,,,,,,,,,,,,,,,,,,576,2023-05-17_09h16.15.471,eb_02psyexp,2022.2.4,99.93930568780584,
197,0,197,0,,,,,,,,,,,,,,,,,,,,,,,,,,,,,,,,,,,,,,,,,,,,,,,,,,,,,,,,,,,826.3324941034662,826.3324941034662,826.3324941034662,826.3324941034662,826.3324941034662,826.3324941034662,s,1,0.3590400463435799,826.7027140096761,,,,,,,,,,,,,,,,,,,,,,,,,,,,,,,,,,,,,,,,576,2023-05-17_09h16.15.471,eb_02psyexp,2022.2.4,99.93930568780584,
198,0,198,0,,,,,,,,,,,,,,,,,,,,,,,,,,,,,,,,,,,,,,,,,,,,,,,,,,,,,,,,,,,827.7336667111376,827.7336667111376,827.7336667111376,827.7336667111376,827.7336667111376,827.7336667111376,s,1,0.48585934203583747,828.2339643304003,829.2642206753371,,,,,,,,,,,,,,,,,,,,,,,,,,,,,,,,,,,,,,,576,2023-05-17_09h16.15.471,eb_02psyexp,2022.2.4,99.93930568780584,
199,0,199,0,,,,,0,0,0,0,,,,,,,,,,,,,,,,,,,,,,,,,,,,,,,,,,,,,,,,,,,,,,,,,,,829.2642206753371,829.2642206753371,829.2642206753371,829.2642206753371,829.2642206753371,829.2642206753371,s,1,0.4273020044201985,829.7044927825918,,830.7054330299143,830.7054330299143,space,46.295355870504864,,,,,,,,,,,,,,,,,,,,,,,,,,,,,,,,,,,576,2023-05-17_09h16.15.471,eb_02psyexp,2022.2.4,99.93930568780584,
199,0,199,0,,,,,,,,,,,,,,,,,,,,,,,,,,,,,,,,,,,,,,,,,,,,,,,,,,,,,,,,,,,,,,,,,,,,,,,,,,,,,,,,,,,,,,,,,,,,,,,,,,,,,,,,,,,,576,2023-05-17_09h16.15.471,eb_02psyexp,2022.2.4,99.93930568780584,
200,0,200,0,,,,,,,,,,,,,,,,,,,,,,,,,,,,,,,,,,,,,,,,,,,,,,,,,,,,,,,,,,,877.0427964978153,877.0427964978153,877.0427964978153,877.0427964978153,877.0427964978153,877.0427964978153,l,1,1.0219874788308516,878.0830644397065,879.1037052083993,,,,,,,,,,,,,,,,,,,,,,,,,,,,,,,,,,,,,,,576,2023-05-17_09h16.15.471,eb_02psyexp,2022.2.4,99.93930568780584,
201,0,201,0,,,,,,,,,,,,,,,,,,,,,,,,,,,,,,,,,,,,,,,,,,,,,,,,,,,,,,,,,,,879.1037052083993,879.1037052083993,879.1037052083993,879.1037052083993,879.1037052083993,879.1037052083993,l,1,0.5771176676498726,879.6940175517229,880.7246291682823,,,,,,,,,,,,,,,,,,,,,,,,,,,,,,,,,,,,,,,576,2023-05-17_09h16.15.471,eb_02psyexp,2022.2.4,99.93930568780584,
202,0,202,0,,,,,,,,,,,,,,,,,,,,,,,,,,,,,,,,,,,,,,,,,,,,,,,,,,,,,,,,,,,880.7246291682823,880.7246291682823,880.7246291682823,880.7246291682823,880.7246291682823,880.7246291682823,s,1,0.4191926351049915,881.1549449162558,882.1754869817523,,,,,,,,,,,,,,,,,,,,,,,,,,,,,,,,,,,,,,,576,2023-05-17_09h16.15.471,eb_02psyexp,2022.2.4,99.93930568780584,
203,0,203,0,,,,,,,,,,,,,,,,,,,,,,,,,,,,,,,,,,,,,,,,,,,,,,,,,,,,,,,,,,,882.1754869817523,882.1754869817523,882.1754869817523,882.1754869817523,882.1754869817523,882.1754869817523,s,1,0.6083541034022346,882.7958534336649,883.8264762185281,,,,,,,,,,,,,,,,,,,,,,,,,,,,,,,,,,,,,,,576,2023-05-17_09h16.15.471,eb_02psyexp,2022.2.4,99.93930568780584,
204,0,204,0,,,,,,,,,,,,,,,,,,,,,,,,,,,,,,,,,,,,,,,,,,,,,,,,,,,,,,,,,,,883.8264762185281,883.8264762185281,883.8264762185281,883.8264762185281,883.8264762185281,883.8264762185281,s,1,0.5093395671574399,884.3467834484763,885.3773929520976,,,,,,,,,,,,,,,,,,,,,,,,,,,,,,,,,,,,,,,576,2023-05-17_09h16.15.471,eb_02psyexp,2022.2.4,99.93930568780584,
205,0,205,0,,,,,,,,,,,,,,,,,,,,,,,,,,,,,,,,,,,,,,,,,,,,,,,,,,,,,,,,,,,885.3773929520976,885.3773929520976,885.3773929520976,885.3773929520976,885.3773929520976,885.3773929520976,s,1,0.46245367254596204,885.8576637554215,886.8885871779639,,,,,,,,,,,,,,,,,,,,,,,,,,,,,,,,,,,,,,,576,2023-05-17_09h16.15.471,eb_02psyexp,2022.2.4,99.93930568780584,
206,0,206,0,,,,,,,,,,,,,,,,,,,,,,,,,,,,,,,,,,,,,,,,,,,,,,,,,,,,,,,,,,,886.8885871779639,886.8885871779639,886.8885871779639,886.8885871779639,886.8885871779639,886.8885871779639,s,1,0.3992615040624514,887.29884200159,888.3291339642601,,,,,,,,,,,,,,,,,,,,,,,,,,,,,,,,,,,,,,,576,2023-05-17_09h16.15.471,eb_02psyexp,2022.2.4,99.93930568780584,
207,0,207,0,,,,,,,,,,,,,,,,,,,,,,,,,,,,,,,,,,,,,,,,,,,,,,,,,,,,,,,,,,,888.3291339642601,888.3291339642601,888.3291339642601,888.3291339642601,888.3291339642601,888.3291339642601,s,1,0.39072653313633054,888.7393634328619,889.7703439041506,,,,,,,,,,,,,,,,,,,,,,,,,,,,,,,,,,,,,,,576,2023-05-17_09h16.15.471,eb_02psyexp,2022.2.4,99.93930568780584,
208,0,208,0,,,,,,,,,,,,,,,,,,,,,,,,,,,,,,,,,,,,,,,,,,,,,,,,,,,,,,,,,,,889.7703439041506,889.7703439041506,889.7703439041506,889.7703439041506,889.7703439041506,889.7703439041506,s,1,0.39749540854245424,890.1804903653683,891.2008117820369,,,,,,,,,,,,,,,,,,,,,,,,,,,,,,,,,,,,,,,576,2023-05-17_09h16.15.471,eb_02psyexp,2022.2.4,99.93930568780584,
209,0,209,0,,,,,,,,,,,,,,,,,,,,,,,,,,,,,,,,,,,,,,,,,,,,,,,,,,,,,,,,,,,891.2008117820369,891.2008117820369,891.2008117820369,891.2008117820369,891.2008117820369,891.2008117820369,s,1,0.5190782961435616,891.7311266849283,892.7518063917523,,,,,,,,,,,,,,,,,,,,,,,,,,,,,,,,,,,,,,,576,2023-05-17_09h16.15.471,eb_02psyexp,2022.2.4,99.93930568780584,
210,0,210,0,,,,,,,,,,,,,,,,,,,,,,,,,,,,,,,,,,,,,,,,,,,,,,,,,,,,,,,,,,,892.7518063917523,892.7518063917523,892.7518063917523,892.7518063917523,892.7518063917523,892.7518063917523,l,1,0.424080110155046,893.1919876437169,894.212591587333,,,,,,,,,,,,,,,,,,,,,,,,,,,,,,,,,,,,,,,576,2023-05-17_09h16.15.471,eb_02psyexp,2022.2.4,99.93930568780584,
211,0,211,0,,,,,,,,,,,,,,,,,,,,,,,,,,,,,,,,,,,,,,,,,,,,,,,,,,,,,,,,,,,894.212591587333,894.212591587333,894.212591587333,894.212591587333,894.212591587333,894.212591587333,s,1,0.50728822813835,894.7329009302193,895.7535492450697,,,,,,,,,,,,,,,,,,,,,,,,,,,,,,,,,,,,,,,576,2023-05-17_09h16.15.471,eb_02psyexp,2022.2.4,99.93930568780584,
212,0,212,0,,,,,,,,,,,,,,,,,,,,,,,,,,,,,,,,,,,,,,,,,,,,,,,,,,,,,,,,,,,895.7535492450697,895.7535492450697,895.7535492450697,895.7535492450697,895.7535492450697,895.7535492450697,l,1,0.3973849333124235,896.1637436997844,897.1843352677533,,,,,,,,,,,,,,,,,,,,,,,,,,,,,,,,,,,,,,,576,2023-05-17_09h16.15.471,eb_02psyexp,2022.2.4,99.93930568780584,
213,0,213,0,,,,,,,,,,,,,,,,,,,,,,,,,,,,,,,,,,,,,,,,,,,,,,,,,,,,,,,,,,,897.1843352677533,897.1843352677533,897.1843352677533,897.1843352677533,897.1843352677533,897.1843352677533,s,1,0.4385674656368792,897.6345948242815,898.6552606462501,,,,,,,,,,,,,,,,,,,,,,,,,,,,,,,,,,,,,,,576,2023-05-17_09h16.15.471,eb_02psyexp,2022.2.4,99.93930568780584,
214,0,214,0,,,,,,,,,,,,,,,,,,,,,,,,,,,,,,,,,,,,,,,,,,,,,,,,,,,,,,,,,,,898.6552606462501,898.6552606462501,898.6552606462501,898.6552606462501,898.6552606462501,898.6552606462501,l,1,0.48765109421219677,899.1555102721322,900.1761009345064,,,,,,,,,,,,,,,,,,,,,,,,,,,,,,,,,,,,,,,576,2023-05-17_09h16.15.471,eb_02psyexp,2022.2.4,99.93930568780584,
215,0,215,0,,,,,,,,,,,,,,,,,,,,,,,,,,,,,,,,,,,,,,,,,,,,,,,,,,,,,,,,,,,900.1761009345064,900.1761009345064,900.1761009345064,900.1761009345064,900.1761009345064,900.1761009345064,l,1,0.4628608614439145,900.6563820006559,901.6770755922189,,,,,,,,,,,,,,,,,,,,,,,,,,,,,,,,,,,,,,,576,2023-05-17_09h16.15.471,eb_02psyexp,2022.2.4,99.93930568780584,
216,0,216,0,,,,,,,,,,,,,,,,,,,,,,,,,,,,,,,,,,,,,,,,,,,,,,,,,,,,,,,,,,,901.6770755922189,901.6770755922189,901.6770755922189,901.6770755922189,901.6770755922189,901.6770755922189,l,1,0.4498788072960451,902.137281849049,903.1578694930067,,,,,,,,,,,,,,,,,,,,,,,,,,,,,,,,,,,,,,,576,2023-05-17_09h16.15.471,eb_02psyexp,2022.2.4,99.93930568780584,
217,0,217,0,,,,,,,,,,,,,,,,,,,,,,,,,,,,,,,,,,,,,,,,,,,,,,,,,,,,,,,,,,,903.1578694930067,903.1578694930067,903.1578694930067,903.1578694930067,903.1578694930067,903.1578694930067,s,1,0.42507438780739903,903.5981473353459,904.6287366154138,,,,,,,,,,,,,,,,,,,,,,,,,,,,,,,,,,,,,,,576,2023-05-17_09h16.15.471,eb_02psyexp,2022.2.4,99.93930568780584,
218,0,218,0,,,,,,,,,,,,,,,,,,,,,,,,,,,,,,,,,,,,,,,,,,,,,,,,,,,,,,,,,,,904.6287366154138,904.6287366154138,904.6287366154138,904.6287366154138,904.6287366154138,904.6287366154138,s,1,0.41023689217399806,905.0489716440206,906.0796098229475,,,,,,,,,,,,,,,,,,,,,,,,,,,,,,,,,,,,,,,576,2023-05-17_09h16.15.471,eb_02psyexp,2022.2.4,99.93930568780584,
219,0,219,0,,,,,,,,,,,,,,,,,,,,,,,,,,,,,,,,,,,,,,,,,,,,,,,,,,,,,,,,,,,906.0796098229475,906.0796098229475,906.0796098229475,906.0796098229475,906.0796098229475,906.0796098229475,s,1,0.5273648485308513,906.6199224379379,907.6405115911039,,,,,,,,,,,,,,,,,,,,,,,,,,,,,,,,,,,,,,,576,2023-05-17_09h16.15.471,eb_02psyexp,2022.2.4,99.93930568780584,
220,0,220,0,,,,,,,,,,,,,,,,,,,,,,,,,,,,,,,,,,,,,,,,,,,,,,,,,,,,,,,,,,,907.6405115911039,907.6405115911039,907.6405115911039,907.6405115911039,907.6405115911039,907.6405115911039,s,1,1.0064617764437571,908.6611291178269,909.6816971419612,,,,,,,,,,,,,,,,,,,,,,,,,,,,,,,,,,,,,,,576,2023-05-17_09h16.15.471,eb_02psyexp,2022.2.4,99.93930568780584,
221,0,221,0,,,,,,,,,,,,,,,,,,,,,,,,,,,,,,,,,,,,,,,,,,,,,,,,,,,,,,,,,,,909.6816971419612,909.6816971419612,909.6816971419612,909.6816971419612,909.6816971419612,909.6816971419612,s,1,0.59729631152004,910.2920836907579,911.3126831067493,,,,,,,,,,,,,,,,,,,,,,,,,,,,,,,,,,,,,,,576,2023-05-17_09h16.15.471,eb_02psyexp,2022.2.4,99.93930568780584,
222,0,222,0,,,,,,,,,,,,,,,,,,,,,,,,,,,,,,,,,,,,,,,,,,,,,,,,,,,,,,,,,,,911.3126831067493,911.3126831067493,911.3126831067493,911.3126831067493,911.3126831067493,911.3126831067493,s,1,0.44533543556462973,911.7729741819203,,,,,,,,,,,,,,,,,,,,,,,,,,,,,,,,,,,,,,,,576,2023-05-17_09h16.15.471,eb_02psyexp,2022.2.4,99.93930568780584,
223,0,223,0,,,,,,,,,,,,,,,,,,,,,,,,,,,,,,,,,,,,,,,,,,,,,,,,,,,,,,,,,,,912.7938863094896,912.7938863094896,912.7938863094896,912.7938863094896,912.7938863094896,912.7938863094896,l,1,0.4681470738723874,913.2741879009409,914.2944103124319,,,,,,,,,,,,,,,,,,,,,,,,,,,,,,,,,,,,,,,576,2023-05-17_09h16.15.471,eb_02psyexp,2022.2.4,99.93930568780584,
224,0,224,0,,,,,,,,,,,,,,,,,,,,,,,,,,,,,,,,,,,,,,,,,,,,,,,,,,,,,,,,,,,914.2944103124319,914.2944103124319,914.2944103124319,914.2944103124319,914.2944103124319,914.2944103124319,s,1,0.4235959507059306,914.734701436013,,,,,,,,,,,,,,,,,,,,,,,,,,,,,,,,,,,,,,,,576,2023-05-17_09h16.15.471,eb_02psyexp,2022.2.4,99.93930568780584,
225,0,225,0,,,,,,,,,,,,,,,,,,,,,,,,,,,,,,,,,,,,,,,,,,,,,,,,,,,,,,,,,,,915.7556256372482,915.7556256372482,915.7556256372482,915.7556256372482,915.7556256372482,915.7556256372482,s,1,0.45843883126508445,916.2258760902332,917.2462319171755,,,,,,,,,,,,,,,,,,,,,,,,,,,,,,,,,,,,,,,576,2023-05-17_09h16.15.471,eb_02psyexp,2022.2.4,99.93930568780584,
226,0,226,0,,,,,,,,,,,,,,,,,,,,,,,,,,,,,,,,,,,,,,,,,,,,,,,,,,,,,,,,,,,917.2462319171755,917.2462319171755,917.2462319171755,917.2462319171755,917.2462319171755,917.2462319171755,l,1,0.5037768646143377,917.7665222438518,918.787107171258,,,,,,,,,,,,,,,,,,,,,,,,,,,,,,,,,,,,,,,576,2023-05-17_09h16.15.471,eb_02psyexp,2022.2.4,99.93930568780584,
227,0,227,0,,,,,,,,,,,,,,,,,,,,,,,,,,,,,,,,,,,,,,,,,,,,,,,,,,,,,,,,,,,918.787107171258,918.787107171258,918.787107171258,918.787107171258,918.787107171258,918.787107171258,s,1,0.41895176260732114,919.2173459487967,920.237946270383,,,,,,,,,,,,,,,,,,,,,,,,,,,,,,,,,,,,,,,576,2023-05-17_09h16.15.471,eb_02psyexp,2022.2.4,99.93930568780584,
228,0,228,0,,,,,,,,,,,,,,,,,,,,,,,,,,,,,,,,,,,,,,,,,,,,,,,,,,,,,,,,,,,920.237946270383,920.237946270383,920.237946270383,920.237946270383,920.237946270383,920.237946270383,l,1,0.5040753893554211,920.7582725165412,921.7788984949002,,,,,,,,,,,,,,,,,,,,,,,,,,,,,,,,,,,,,,,576,2023-05-17_09h16.15.471,eb_02psyexp,2022.2.4,99.93930568780584,
229,0,229,0,,,,,,,,,,,,,,,,,,,,,,,,,,,,,,,,,,,,,,,,,,,,,,,,,,,,,,,,,,,921.7788984949002,921.7788984949002,921.7788984949002,921.7788984949002,921.7788984949002,921.7788984949002,l,1,0.5471803729888052,922.3392373220995,923.3697882677661,,,,,,,,,,,,,,,,,,,,,,,,,,,,,,,,,,,,,,,576,2023-05-17_09h16.15.471,eb_02psyexp,2022.2.4,99.93930568780584,
230,0,230,0,,,,,,,,,,,,,,,,,,,,,,,,,,,,,,,,,,,,,,,,,,,,,,,,,,,,,,,,,,,923.3697882677661,923.3697882677661,923.3697882677661,923.3697882677661,923.3697882677661,923.3697882677661,s,1,0.8362416890449822,924.2203118783655,925.2409378567245,,,,,,,,,,,,,,,,,,,,,,,,,,,,,,,,,,,,,,,576,2023-05-17_09h16.15.471,eb_02psyexp,2022.2.4,99.93930568780584,
231,0,231,0,,,,,,,,,,,,,,,,,,,,,,,,,,,,,,,,,,,,,,,,,,,,,,,,,,,,,,,,,,,925.2409378567245,925.2409378567245,925.2409378567245,925.2409378567245,925.2409378567245,925.2409378567245,s,1,0.4451313882600516,925.701217461843,926.7317626725417,,,,,,,,,,,,,,,,,,,,,,,,,,,,,,,,,,,,,,,576,2023-05-17_09h16.15.471,eb_02psyexp,2022.2.4,99.93930568780584,
232,0,232,0,,,,,,,,,,,,,,,,,,,,,,,,,,,,,,,,,,,,,,,,,,,,,,,,,,,,,,,,,,,926.7317626725417,926.7317626725417,926.7317626725417,926.7317626725417,926.7317626725417,926.7317626725417,l,1,0.6173681024229154,927.362154908129,928.3827135750325,,,,,,,,,,,,,,,,,,,,,,,,,,,,,,,,,,,,,,,576,2023-05-17_09h16.15.471,eb_02psyexp,2022.2.4,99.93930568780584,
233,0,233,0,,,,,,,,,,,,,,,,,,,,,,,,,,,,,,,,,,,,,,,,,,,,,,,,,,,,,,,,,,,928.3827135750325,928.3827135750325,928.3827135750325,928.3827135750325,928.3827135750325,928.3827135750325,l,1,0.5023618149571121,928.9030875127064,,,,,,,,,,,,,,,,,,,,,,,,,,,,,,,,,,,,,,,,576,2023-05-17_09h16.15.471,eb_02psyexp,2022.2.4,99.93930568780584,
234,0,234,0,,,,,,,,,,,,,,,,,,,,,,,,,,,,,,,,,,,,,,,,,,,,,,,,,,,,,,,,,,,929.9339840710163,929.9339840710163,929.9339840710163,929.9339840710163,929.9339840710163,929.9339840710163,s,1,0.5270910750841722,930.4742800844833,931.4946247432381,,,,,,,,,,,,,,,,,,,,,,,,,,,,,,,,,,,,,,,576,2023-05-17_09h16.15.471,eb_02psyexp,2022.2.4,99.93930568780584,
235,0,235,0,,,,,,,,,,,,,,,,,,,,,,,,,,,,,,,,,,,,,,,,,,,,,,,,,,,,,,,,,,,931.4946247432381,931.4946247432381,931.4946247432381,931.4946247432381,931.4946247432381,931.4946247432381,s,1,0.6624812610680237,932.1749750524759,933.2056102129864,,,,,,,,,,,,,,,,,,,,,,,,,,,,,,,,,,,,,,,576,2023-05-17_09h16.15.471,eb_02psyexp,2022.2.4,99.93930568780584,
236,0,236,0,,,,,,,,,,,,,,,,,,,,,,,,,,,,,,,,,,,,,,,,,,,,,,,,,,,,,,,,,,,933.2056102129864,933.2056102129864,933.2056102129864,933.2056102129864,933.2056102129864,933.2056102129864,s,1,0.43952039047144353,933.6558628270868,934.676499068155,,,,,,,,,,,,,,,,,,,,,,,,,,,,,,,,,,,,,,,576,2023-05-17_09h16.15.471,eb_02psyexp,2022.2.4,99.93930568780584,
237,0,237,0,,,,,,,,,,,,,,,,,,,,,,,,,,,,,,,,,,,,,,,,,,,,,,,,,,,,,,,,,,,934.676499068155,934.676499068155,934.676499068155,934.676499068155,934.676499068155,934.676499068155,l,1,0.5366336046718061,935.2267979249591,936.2473786266055,,,,,,,,,,,,,,,,,,,,,,,,,,,,,,,,,,,,,,,576,2023-05-17_09h16.15.471,eb_02psyexp,2022.2.4,99.93930568780584,
238,0,238,0,,,,,,,,,,,,,,,,,,,,,,,,,,,,,,,,,,,,,,,,,,,,,,,,,,,,,,,,,,,936.2473786266055,936.2473786266055,936.2473786266055,936.2473786266055,936.2473786266055,936.2473786266055,l,1,0.45372853928711265,936.717659263988,937.7382511338219,,,,,,,,,,,,,,,,,,,,,,,,,,,,,,,,,,,,,,,576,2023-05-17_09h16.15.471,eb_02psyexp,2022.2.4,99.93930568780584,
239,0,239,0,,,,,,,,,,,,,,,,,,,,,,,,,,,,,,,,,,,,,,,,,,,,,,,,,,,,,,,,,,,937.7382511338219,937.7382511338219,937.7382511338219,937.7382511338219,937.7382511338219,937.7382511338219,s,1,0.5548728941939771,938.3086145372363,939.3292752277339,,,,,,,,,,,,,,,,,,,,,,,,,,,,,,,,,,,,,,,576,2023-05-17_09h16.15.471,eb_02psyexp,2022.2.4,99.93930568780584,
240,0,240,0,,,,,,,,,,,,,,,,,,,,,,,,,,,,,,,,,,,,,,,,,,,,,,,,,,,,,,,,,,,939.3292752277339,939.3292752277339,939.3292752277339,939.3292752277339,939.3292752277339,939.3292752277339,l,1,0.5398893055971712,939.8795010379981,,,,,,,,,,,,,,,,,,,,,,,,,,,,,,,,,,,,,,,,576,2023-05-17_09h16.15.471,eb_02psyexp,2022.2.4,99.93930568780584,
241,0,241,0,,,,,,,,,,,,,,,,,,,,,,,,,,,,,,,,,,,,,,,,,,,,,,,,,,,,,,,,,,,940.9104754723376,940.9104754723376,940.9104754723376,940.9104754723376,940.9104754723376,940.9104754723376,l,1,0.46267613221425563,941.3907145819394,942.4910910431063,,,,,,,,,,,,,,,,,,,,,,,,,,,,,,,,,,,,,,,576,2023-05-17_09h16.15.471,eb_02psyexp,2022.2.4,99.93930568780584,
242,0,242,0,,,,,,,,,,,,,,,,,,,,,,,,,,,,,,,,,,,,,,,,,,,,,,,,,,,,,,,,,,,942.4910910431063,942.4910910431063,942.4910910431063,942.4910910431063,942.4910910431063,942.4910910431063,s,1,0.46507429133635014,942.9713742220774,,,,,,,,,,,,,,,,,,,,,,,,,,,,,,,,,,,,,,,,576,2023-05-17_09h16.15.471,eb_02psyexp,2022.2.4,99.93930568780584,
243,0,243,0,,,,,,,,,,,,,,,,,,,,,,,,,,,,,,,,,,,,,,,,,,,,,,,,,,,,,,,,,,,944.0022768172203,944.0022768172203,944.0022768172203,944.0022768172203,944.0022768172203,944.0022768172203,s,1,0.40986562275793403,944.4225239197258,945.4427940227324,,,,,,,,,,,,,,,,,,,,,,,,,,,,,,,,,,,,,,,576,2023-05-17_09h16.15.471,eb_02psyexp,2022.2.4,99.93930568780584,
244,0,244,0,,,,,,,,,,,,,,,,,,,,,,,,,,,,,,,,,,,,,,,,,,,,,,,,,,,,,,,,,,,945.4427940227324,945.4427940227324,945.4427940227324,945.4427940227324,945.4427940227324,945.4427940227324,l,1,0.5933916439535096,946.0531781568425,947.0738029277418,,,,,,,,,,,,,,,,,,,,,,,,,,,,,,,,,,,,,,,576,2023-05-17_09h16.15.471,eb_02psyexp,2022.2.4,99.93930568780584,
245,0,245,0,,,,,,,,,,,,,,,,,,,,,,,,,,,,,,,,,,,,,,,,,,,,,,,,,,,,,,,,,,,947.0738029277418,947.0738029277418,947.0738029277418,947.0738029277418,947.0738029277418,947.0738029277418,l,1,0.4583715198095888,947.5440545880701,948.5646334786434,,,,,,,,,,,,,,,,,,,,,,,,,,,,,,,,,,,,,,,576,2023-05-17_09h16.15.471,eb_02psyexp,2022.2.4,99.93930568780584,
246,0,246,0,,,,,,,,,,,,,,,,,,,,,,,,,,,,,,,,,,,,,,,,,,,,,,,,,,,,,,,,,,,948.5646334786434,948.5646334786434,948.5646334786434,948.5646334786434,948.5646334786434,948.5646334786434,l,1,0.47156396007630974,949.0549195009517,950.0755198224215,,,,,,,,,,,,,,,,,,,,,,,,,,,,,,,,,,,,,,,576,2023-05-17_09h16.15.471,eb_02psyexp,2022.2.4,99.93930568780584,
247,0,247,0,,,,,,,,,,,,,,,,,,,,,,,,,,,,,,,,,,,,,,,,,,,,,,,,,,,,,,,,,,,950.0755198224215,950.0755198224215,950.0755198224215,950.0755198224215,950.0755198224215,950.0755198224215,s,1,0.48076268821023405,950.5758283081232,951.6064317749115,,,,,,,,,,,,,,,,,,,,,,,,,,,,,,,,,,,,,,,576,2023-05-17_09h16.15.471,eb_02psyexp,2022.2.4,99.93930568780584,
248,0,248,0,,,,,,,,,,,,,,,,,,,,,,,,,,,,,,,,,,,,,,,,,,,,,,,,,,,,,,,,,,,951.6064317749115,951.6064317749115,951.6064317749115,951.6064317749115,951.6064317749115,951.6064317749115,s,1,0.4937894153408706,952.1167228802806,953.1373678748496,,,,,,,,,,,,,,,,,,,,,,,,,,,,,,,,,,,,,,,576,2023-05-17_09h16.15.471,eb_02psyexp,2022.2.4,99.93930568780584,
249,0,249,0,,,,,,,,,,,,,,,,,,,,,,,,,,,,,,,,,,,,,,,,,,,,,,,,,,,,,,,,,,,953.1373678748496,953.1373678748496,953.1373678748496,953.1373678748496,953.1373678748496,953.1373678748496,l,1,0.5148588040610775,953.6676459526643,954.6882876269519,,,,,,,,,,,,,,,,,,,,,,,,,,,,,,,,,,,,,,,576,2023-05-17_09h16.15.471,eb_02psyexp,2022.2.4,99.93930568780584,
250,0,250,0,,,,,,,,,,,,,,,,,,,,,,,,,,,,,,,,,,,,,,,,,,,,,,,,,,,,,,,,,,,954.6882876269519,954.6882876269519,954.6882876269519,954.6882876269519,954.6882876269519,954.6882876269519,l,1,0.41995328455232084,955.1185091993539,956.1390920138219,,,,,,,,,,,,,,,,,,,,,,,,,,,,,,,,,,,,,,,576,2023-05-17_09h16.15.471,eb_02psyexp,2022.2.4,99.93930568780584,
251,0,251,0,,,,,,,,,,,,,,,,,,,,,,,,,,,,,,,,,,,,,,,,,,,,,,,,,,,,,,,,,,,956.1390920138219,956.1390920138219,956.1390920138219,956.1390920138219,956.1390920138219,956.1390920138219,s,1,0.4971510637551546,956.6494093798101,957.6700426023453,,,,,,,,,,,,,,,,,,,,,,,,,,,,,,,,,,,,,,,576,2023-05-17_09h16.15.471,eb_02psyexp,2022.2.4,99.93930568780584,
252,0,252,0,,,,,,,,,,,,,,,,,,,,,,,,,,,,,,,,,,,,,,,,,,,,,,,,,,,,,,,,,,,957.6700426023453,957.6700426023453,957.6700426023453,957.6700426023453,957.6700426023453,957.6700426023453,l,1,0.5252292946679518,958.2103313715197,959.2309247506782,,,,,,,,,,,,,,,,,,,,,,,,,,,,,,,,,,,,,,,576,2023-05-17_09h16.15.471,eb_02psyexp,2022.2.4,99.93930568780584,
253,0,253,0,,,,,,,,,,,,,,,,,,,,,,,,,,,,,,,,,,,,,,,,,,,,,,,,,,,,,,,,,,,959.2309247506782,959.2309247506782,959.2309247506782,959.2309247506782,959.2309247506782,959.2309247506782,s,1,0.5323274830589071,959.781247453182,960.8118533346569,,,,,,,,,,,,,,,,,,,,,,,,,,,,,,,,,,,,,,,576,2023-05-17_09h16.15.471,eb_02psyexp,2022.2.4,99.93930568780584,
254,0,254,0,,,,,,,,,,,,,,,,,,,,,,,,,,,,,,,,,,,,,,,,,,,,,,,,,,,,,,,,,,,960.8118533346569,960.8118533346569,960.8118533346569,960.8118533346569,960.8118533346569,960.8118533346569,s,1,0.43141434143763036,961.2620974971214,962.2927323557669,,,,,,,,,,,,,,,,,,,,,,,,,,,,,,,,,,,,,,,576,2023-05-17_09h16.15.471,eb_02psyexp,2022.2.4,99.93930568780584,
255,0,255,0,,,,,,,,,,,,,,,,,,,,,,,,,,,,,,,,,,,,,,,,,,,,,,,,,,,,,,,,,,,962.2927323557669,962.2927323557669,962.2927323557669,962.2927323557669,962.2927323557669,962.2927323557669,s,1,0.4786041941260919,962.7830047950847,,,,,,,,,,,,,,,,,,,,,,,,,,,,,,,,,,,,,,,,576,2023-05-17_09h16.15.471,eb_02psyexp,2022.2.4,99.93930568780584,
256,0,256,0,,,,,,,,,,,,,,,,,,,,,,,,,,,,,,,,,,,,,,,,,,,,,,,,,,,,,,,,,,,963.803941673832,963.803941673832,963.803941673832,963.803941673832,963.803941673832,963.803941673832,s,1,0.5033422077540308,964.3242799938889,965.3545444885967,,,,,,,,,,,,,,,,,,,,,,,,,,,,,,,,,,,,,,,576,2023-05-17_09h16.15.471,eb_02psyexp,2022.2.4,99.93930568780584,
257,0,257,0,,,,,,,,,,,,,,,,,,,,,,,,,,,,,,,,,,,,,,,,,,,,,,,,,,,,,,,,,,,965.3545444885967,965.3545444885967,965.3545444885967,965.3545444885967,965.3545444885967,965.3545444885967,s,1,0.4807829117635265,965.8548324487638,,,,,,,,,,,,,,,,,,,,,,,,,,,,,,,,,,,,,,,,576,2023-05-17_09h16.15.471,eb_02psyexp,2022.2.4,99.93930568780584,
258,0,258,0,,,,,,,,,,,,,,,,,,,,,,,,,,,,,,,,,,,,,,,,,,,,,,,,,,,,,,,,,,,966.875389908324,966.875389908324,966.875389908324,966.875389908324,966.875389908324,966.875389908324,l,1,0.567914109909907,967.456047133659,968.476436163648,,,,,,,,,,,,,,,,,,,,,,,,,,,,,,,,,,,,,,,576,2023-05-17_09h16.15.471,eb_02psyexp,2022.2.4,99.93930568780584,
259,0,259,0,,,,,,,,,,,,,,,,,,,,,,,,,,,,,,,,,,,,,,,,,,,,,,,,,,,,,,,,,,,968.476436163648,968.476436163648,968.476436163648,968.476436163648,968.476436163648,968.476436163648,l,1,0.5028689147438854,968.9966842320282,,,,,,,,,,,,,,,,,,,,,,,,,,,,,,,,,,,,,,,,576,2023-05-17_09h16.15.471,eb_02psyexp,2022.2.4,99.93930568780584,
260,0,260,0,,,,,,,,,,,,,,,,,,,,,,,,,,,,,,,,,,,,,,,,,,,,,,,,,,,,,,,,,,,970.0172365602339,970.0172365602339,970.0172365602339,970.0172365602339,970.0172365602339,970.0172365602339,s,0,0.41811112430877984,970.4475157849956,971.4681813049829,,,,,,,,,,,,,,,,,,,,,,,,,,,,,,,,,,,,,,,576,2023-05-17_09h16.15.471,eb_02psyexp,2022.2.4,99.93930568780584,
261,0,261,0,,,,,,,,,,,,,,,,,,,,,,,,,,,,,,,,,,,,,,,,,,,,,,,,,,,,,,,,,,,971.4681813049829,971.4681813049829,971.4681813049829,971.4681813049829,971.4681813049829,971.4681813049829,l,1,0.5111627114238217,971.9984373481711,973.0290664717322,,,,,,,,,,,,,,,,,,,,,,,,,,,,,,,,,,,,,,,576,2023-05-17_09h16.15.471,eb_02psyexp,2022.2.4,99.93930568780584,
262,0,262,0,,,,,,,,,,,,,,,,,,,,,,,,,,,,,,,,,,,,,,,,,,,,,,,,,,,,,,,,,,,973.0290664717322,973.0290664717322,973.0290664717322,973.0290664717322,973.0290664717322,973.0290664717322,s,1,0.5333099886775017,973.5793644229416,974.600004286156,,,,,,,,,,,,,,,,,,,,,,,,,,,,,,,,,,,,,,,576,2023-05-17_09h16.15.471,eb_02psyexp,2022.2.4,99.93930568780584,
263,0,263,0,,,,,,,,,,,,,,,,,,,,,,,,,,,,,,,,,,,,,,,,,,,,,,,,,,,,,,,,,,,974.600004286156,974.600004286156,974.600004286156,974.600004286156,974.600004286156,974.600004286156,l,1,0.5304530253633857,975.1402815851616,976.1609081672505,,,,,,,,,,,,,,,,,,,,,,,,,,,,,,,,,,,,,,,576,2023-05-17_09h16.15.471,eb_02psyexp,2022.2.4,99.93930568780584,
264,0,264,0,,,,,,,,,,,,,,,,,,,,,,,,,,,,,,,,,,,,,,,,,,,,,,,,,,,,,,,,,,,976.1609081672505,976.1609081672505,976.1609081672505,976.1609081672505,976.1609081672505,976.1609081672505,s,1,0.553452713182196,976.7312166347401,977.7517843570095,,,,,,,,,,,,,,,,,,,,,,,,,,,,,,,,,,,,,,,576,2023-05-17_09h16.15.471,eb_02psyexp,2022.2.4,99.93930568780584,
265,0,265,0,,,,,,,,,,,,,,,,,,,,,,,,,,,,,,,,,,,,,,,,,,,,,,,,,,,,,,,,,,,977.7517843570095,977.7517843570095,977.7517843570095,977.7517843570095,977.7517843570095,977.7517843570095,s,1,0.45058572839479893,978.2221196284518,979.2427199499216,,,,,,,,,,,,,,,,,,,,,,,,,,,,,,,,,,,,,,,576,2023-05-17_09h16.15.471,eb_02psyexp,2022.2.4,99.93930568780584,
266,0,266,0,,,,,,,,,,,,,,,,,,,,,,,,,,,,,,,,,,,,,,,,,,,,,,,,,,,,,,,,,,,979.2427199499216,979.2427199499216,979.2427199499216,979.2427199499216,979.2427199499216,979.2427199499216,s,1,0.42365360318217427,979.6829507044749,980.703536235611,,,,,,,,,,,,,,,,,,,,,,,,,,,,,,,,,,,,,,,576,2023-05-17_09h16.15.471,eb_02psyexp,2022.2.4,99.93930568780584,
267,0,267,0,,,,,,,,,,,,,,,,,,,,,,,,,,,,,,,,,,,,,,,,,,,,,,,,,,,,,,,,,,,980.703536235611,980.703536235611,980.703536235611,980.703536235611,980.703536235611,980.703536235611,l,1,0.5628277189098299,981.2838964454131,982.3045043130405,,,,,,,,,,,,,,,,,,,,,,,,,,,,,,,,,,,,,,,576,2023-05-17_09h16.15.471,eb_02psyexp,2022.2.4,99.93930568780584,
268,0,268,0,,,,,,,,,,,,,,,,,,,,,,,,,,,,,,,,,,,,,,,,,,,,,,,,,,,,,,,,,,,982.3045043130405,982.3045043130405,982.3045043130405,982.3045043130405,982.3045043130405,982.3045043130405,s,1,0.4979108077241108,982.8147896834416,,,,,,,,,,,,,,,,,,,,,,,,,,,,,,,,,,,,,,,,576,2023-05-17_09h16.15.471,eb_02psyexp,2022.2.4,99.93930568780584,
269,0,269,0,,,,,,,,,,,,,,,,,,,,,,,,,,,,,,,,,,,,,,,,,,,,,,,,,,,,,,,,,,,983.8357099606656,983.8357099606656,983.8357099606656,983.8357099606656,983.8357099606656,983.8357099606656,l,1,0.47867180744651705,984.3259863239946,985.3563018306158,,,,,,,,,,,,,,,,,,,,,,,,,,,,,,,,,,,,,,,576,2023-05-17_09h16.15.471,eb_02psyexp,2022.2.4,99.93930568780584,
270,0,270,0,,,,,,,,,,,,,,,,,,,,,,,,,,,,,,,,,,,,,,,,,,,,,,,,,,,,,,,,,,,985.3563018306158,985.3563018306158,985.3563018306158,985.3563018306158,985.3563018306158,985.3563018306158,s,1,0.4781755740987137,985.8465848345077,,,,,,,,,,,,,,,,,,,,,,,,,,,,,,,,,,,,,,,,576,2023-05-17_09h16.15.471,eb_02psyexp,2022.2.4,99.93930568780584,
271,0,271,0,,,,,,,,,,,,,,,,,,,,,,,,,,,,,,,,,,,,,,,,,,,,,,,,,,,,,,,,,,,986.8775076533202,986.8775076533202,986.8775076533202,986.8775076533202,986.8775076533202,986.8775076533202,s,1,0.5009346915176138,987.3978000928182,988.4180551036261,,,,,,,,,,,,,,,,,,,,,,,,,,,,,,,,,,,,,,,576,2023-05-17_09h16.15.471,eb_02psyexp,2022.2.4,99.93930568780584,
272,0,272,0,,,,,,,,,,,,,,,,,,,,,,,,,,,,,,,,,,,,,,,,,,,,,,,,,,,,,,,,,,,988.4180551036261,988.4180551036261,988.4180551036261,988.4180551036261,988.4180551036261,988.4180551036261,s,1,0.5123489623656496,988.9484433548059,989.9693186571822,,,,,,,,,,,,,,,,,,,,,,,,,,,,,,,,,,,,,,,576,2023-05-17_09h16.15.471,eb_02psyexp,2022.2.4,99.93930568780584,
273,0,273,0,,,,,,,,,,,,,,,,,,,,,,,,,,,,,,,,,,,,,,,,,,,,,,,,,,,,,,,,,,,989.9693186571822,989.9693186571822,989.9693186571822,989.9693186571822,989.9693186571822,989.9693186571822,s,1,0.5121177491964772,990.4996326545952,991.5299110341584,,,,,,,,,,,,,,,,,,,,,,,,,,,,,,,,,,,,,,,576,2023-05-17_09h16.15.471,eb_02psyexp,2022.2.4,99.93930568780584,
274,0,274,0,,,,,,,,,,,,,,,,,,,,,,,,,,,,,,,,,,,,,,,,,,,,,,,,,,,,,,,,,,,991.5299110341584,991.5299110341584,991.5299110341584,991.5299110341584,991.5299110341584,991.5299110341584,s,1,0.439531558775343,991.9801642519888,,,,,,,,,,,,,,,,,,,,,,,,,,,,,,,,,,,,,,,,576,2023-05-17_09h16.15.471,eb_02psyexp,2022.2.4,99.93930568780584,
275,0,275,0,,,,,,,,,,,,,,,,,,,,,,,,,,,,,,,,,,,,,,,,,,,,,,,,,,,,,,,,,,,993.0010969049763,993.0010969049763,993.0010969049763,993.0010969049763,993.0010969049763,993.0010969049763,s,1,0.46434322255663574,993.4814105702098,994.5116672170116,,,,,,,,,,,,,,,,,,,,,,,,,,,,,,,,,,,,,,,576,2023-05-17_09h16.15.471,eb_02psyexp,2022.2.4,99.93930568780584,
276,0,276,0,,,,,,,,,,,,,,,,,,,,,,,,,,,,,,,,,,,,,,,,,,,,,,,,,,,,,,,,,,,994.5116672170116,994.5116672170116,994.5116672170116,994.5116672170116,994.5116672170116,994.5116672170116,s,1,0.40980917774140835,994.9319306190591,995.9628757744795,,,,,,,,,,,,,,,,,,,,,,,,,,,,,,,,,,,,,,,576,2023-05-17_09h16.15.471,eb_02psyexp,2022.2.4,99.93930568780584,
277,0,277,0,,,,,,,,,,,,,,,,,,,,,,,,,,,,,,,,,,,,,,,,,,,,,,,,,,,,,,,,,,,995.9628757744795,995.9628757744795,995.9628757744795,995.9628757744795,995.9628757744795,995.9628757744795,s,1,0.4145922145107761,996.3931157593615,997.4133710720344,,,,,,,,,,,,,,,,,,,,,,,,,,,,,,,,,,,,,,,576,2023-05-17_09h16.15.471,eb_02psyexp,2022.2.4,99.93930568780584,
