trials.thisRepN,trials.thisTrialN,trials.thisN,trials.thisIndex,image_loop.thisRepN,image_loop.thisTrialN,image_loop.thisN,image_loop.thisIndex,break_loop.thisRepN,break_loop.thisTrialN,break_loop.thisN,break_loop.thisIndex,test_trials.thisRepN,test_trials.thisTrialN,test_trials.thisN,test_trials.thisIndex,distance matrix,tools,welcome_text.started,instructions_0_keypress.started,instructions_0_keypress.keys,instructions_0_keypress.rt,consent_image_0.started,consent0_key_resp.started,consent0_text.started,consent0_key_resp.keys,consent0_key_resp.rt,consent_image_1.started,consent1_key_resp.started,consent1_text.started,consent1_key_resp.keys,consent1_key_resp.rt,consent2_text.started,consent_image_2.started,consent2_key_resp.started,consent2_key_resp.keys,consent2_key_resp.rt,agree_button.started,disagree_button.started,consent_image_3.started,agree_button.numClicks,agree_button.timesOn,agree_button.timesOff,disagree_button.numClicks,disagree_button.timesOn,disagree_button.timesOff,instructions_text1.started,instructions1_key_resp.started,instr1_cnt_text.started,instructions1_key_resp.keys,instructions1_key_resp.rt,instructions_text2.started,instr2_cnt_text.started,instructions2_key_resp.started,instructions2_key_resp.keys,instructions2_key_resp.rt,instructions_text3.started,instructions3_key_resp.started,instr3_cnt_text.started,instructions3_key_resp.keys,instructions3_key_resp.rt,text_countdown.started,image.started,small_large_keyresp.started,task_question_text.started,smalleroption_text.started,largeroption_text.started,accuracy_score_text.started,small_large_keyresp.keys,small_large_keyresp.corr,small_large_keyresp.rt,fb_2.started,fb_2.stopped,break_text.started,break_key_resp.started,break_key_resp.keys,break_key_resp.rt,reveal_seq_text.started,start_test_text.started,continue_to_test.started,continue_to_test.keys,continue_to_test.rt,test_structure_info.started,start_test_text_2.started,continue_to_test_2.started,continue_to_test_2.keys,continue_to_test_2.rt,test_cntdown_text.started,parent index,left child index,right child index,left distance,right distance,parent_image.started,top_image_text.started,left_child_image.started,right_child_image.started,path_resp.started,child_choice_text.started,left_choice_text.started,right_choice_text.started,path_resp.keys,path_resp.rt,graph.started,debrief_text.started,debriefing_title.started,demo_scr_adv.started,demo_scr_adv_keypress.started,demo_scr_adv_keypress.keys,demo_scr_adv_keypress.rt,text_countdown_2.started,participant,date,expName,psychopyVersion,frameRate,
,,,,,,,,,,,,,,,,"[[0. 1. 1. 2. 2. 3. 4. 5. 5. 6. 6. 7.]
 [1. 0. 2. 1. 1. 2. 3. 4. 4. 5. 5. 6.]
 [1. 2. 0. 1. 1. 2. 3. 4. 4. 5. 5. 6.]
 [2. 1. 1. 0. 1. 1. 2. 3. 3. 4. 4. 5.]
 [2. 1. 1. 1. 0. 1. 2. 3. 3. 4. 4. 5.]
 [3. 2. 2. 1. 1. 0. 1. 2. 2. 3. 3. 4.]
 [4. 3. 3. 2. 2. 1. 0. 1. 1. 2. 2. 3.]
 [5. 4. 4. 3. 3. 2. 1. 0. 1. 1. 1. 2.]
 [5. 4. 4. 3. 3. 2. 1. 1. 0. 1. 1. 2.]
 [6. 5. 5. 4. 4. 3. 2. 1. 1. 0. 2. 1.]
 [6. 5. 5. 4. 4. 3. 2. 1. 1. 2. 0. 1.]
 [7. 6. 6. 5. 5. 4. 3. 2. 2. 1. 1. 0.]]",[ 3 10  5  8  6  2  0  7  9  1  4 11],373.79162730043754,373.79162730043754,return,17.501164681627415,,,,,,,,,,,,,,,,,,,,,,,,,,,,,,,,,,,,,,,,,,,,,,,,,,,,,,,,,,,,,,,,,,,,,,,,,,,,,,,,,,,,,,,,,,577,2023-05-17_09h01.14.463,eb_02psyexp,2022.2.4,120.0247083432571,
,,,,,,,,,,,,,,,,,,,,,,391.3009798031999,391.3009798031999,391.3009798031999,space,40.3336116845021,,,,,,,,,,,,,,,,,,,,,,,,,,,,,,,,,,,,,,,,,,,,,,,,,,,,,,,,,,,,,,,,,,,,,,,,,,,,,,,,,,,,,577,2023-05-17_09h01.14.463,eb_02psyexp,2022.2.4,120.0247083432571,
,,,,,,,,,,,,,,,,,,,,,,,,,,,431.64589107455686,431.64589107455686,431.64589107455686,space,27.988228924339637,,,,,,,,,,,,,,,,,,,,,,,,,,,,,,,,,,,,,,,,,,,,,,,,,,,,,,,,,,,,,,,,,,,,,,,,,,,,,,,,577,2023-05-17_09h01.14.463,eb_02psyexp,2022.2.4,120.0247083432571,
,,,,,,,,,,,,,,,,,,,,,,,,,,,,,,,,459.64819841168355,459.64819841168355,459.64819841168355,space,21.440328136086464,,,,,,,,,,,,,,,,,,,,,,,,,,,,,,,,,,,,,,,,,,,,,,,,,,,,,,,,,,,,,,,,,,,,,,,,,,,577,2023-05-17_09h01.14.463,eb_02psyexp,2022.2.4,120.0247083432571,
,,,,,,,,,,,,,,,,,,,,,,,,,,,,,,,,,,,,,481.10831021668855,481.10831021668855,481.10831021668855,1,[5.641872553154826],[5.6418767790310085],0,,,486.742132747313,488.7339444778627,488.7339444778627,space,2.4988099542679265,,,,,,,,,,,,,,,,,,,,,,,,,,,,,,,,,,,,,,,,,,,,,,,,,,,,,,,,,,,,,577,2023-05-17_09h01.14.463,eb_02psyexp,2022.2.4,120.0247083432571,
,,,,,,,,,,,,,,,,,,,,,,,,,,,,,,,,,,,,,,,,,,,,,,,,,,,491.2424898352474,494.23441053333227,494.23441053333227,space,21.196835858980194,,,,,,,,,,,,,,,,,,,,,,,,,,,,,,,,,,,,,,,,,,,,,,,,,,,,,,,,577,2023-05-17_09h01.14.463,eb_02psyexp,2022.2.4,120.0247083432571,
,,,,,,,,,,,,,,,,,,,,,,,,,,,,,,,,,,,,,,,,,,,,,,,,,,,,,,,,515.4445315448102,518.4364637131803,518.4364637131803,space,7.281955285696313,,,,,,,,,,,,,,,,,,,,,,,,,,,,,,,,,,,,,,,,,,,,,,,,,,,577,2023-05-17_09h01.14.463,eb_02psyexp,2022.2.4,120.0247083432571,
0,0,0,0,,,,,,,,,,,,,,,,,,,,,,,,,,,,,,,,,,,,,,,,,,,,,,,,,,,,,,,,,,525.737072241609,530.779169672518,530.779169672518,530.779169672518,530.779169672518,530.779169672518,530.779169672518,l,1,1.2994290473870933,532.0876111937687,533.1127021259163,,,,,,,,,,,,,,,,,,,,,,,,,,,,,,,,,,,,,,,577,2023-05-17_09h01.14.463,eb_02psyexp,2022.2.4,120.0247083432571,
1,0,1,0,,,,,,,,,,,,,,,,,,,,,,,,,,,,,,,,,,,,,,,,,,,,,,,,,,,,,,,,,,,533.1127021259163,533.1127021259163,533.1127021259163,533.1127021259163,533.1127021259163,533.1127021259163,s,1,0.9659177234862,534.0878022644902,535.1128732746001,,,,,,,,,,,,,,,,,,,,,,,,,,,,,,,,,,,,,,,577,2023-05-17_09h01.14.463,eb_02psyexp,2022.2.4,120.0247083432571,
2,0,2,0,,,,,,,,,,,,,,,,,,,,,,,,,,,,,,,,,,,,,,,,,,,,,,,,,,,,,,,,,,,535.1128732746001,535.1128732746001,535.1128732746001,535.1128732746001,535.1128732746001,535.1128732746001,s,0,1.3337906812084839,536.4629790728213,537.4797558641294,,,,,,,,,,,,,,,,,,,,,,,,,,,,,,,,,,,,,,,577,2023-05-17_09h01.14.463,eb_02psyexp,2022.2.4,120.0247083432571,
3,0,3,0,,,,,,,,,,,,,,,,,,,,,,,,,,,,,,,,,,,,,,,,,,,,,,,,,,,,,,,,,,,537.4797558641294,537.4797558641294,537.4797558641294,537.4797558641294,537.4797558641294,537.4797558641294,l,1,1.1589881661348045,538.6548409102252,539.6882785828784,,,,,,,,,,,,,,,,,,,,,,,,,,,,,,,,,,,,,,,577,2023-05-17_09h01.14.463,eb_02psyexp,2022.2.4,120.0247083432571,
4,0,4,0,,,,,,,,,,,,,,,,,,,,,,,,,,,,,,,,,,,,,,,,,,,,,,,,,,,,,,,,,,,539.6882785828784,539.6882785828784,539.6882785828784,539.6882785828784,539.6882785828784,539.6882785828784,s,1,0.6944521539844573,540.3966473583132,541.4217485534027,,,,,,,,,,,,,,,,,,,,,,,,,,,,,,,,,,,,,,,577,2023-05-17_09h01.14.463,eb_02psyexp,2022.2.4,120.0247083432571,
5,0,5,0,,,,,,,,,,,,,,,,,,,,,,,,,,,,,,,,,,,,,,,,,,,,,,,,,,,,,,,,,,,541.4217485534027,541.4217485534027,541.4217485534027,541.4217485534027,541.4217485534027,541.4217485534027,s,1,0.9200215175515041,542.3551490985556,543.38857831934,,,,,,,,,,,,,,,,,,,,,,,,,,,,,,,,,,,,,,,577,2023-05-17_09h01.14.463,eb_02psyexp,2022.2.4,120.0247083432571,
6,0,6,0,,,,,,,,,,,,,,,,,,,,,,,,,,,,,,,,,,,,,,,,,,,,,,,,,,,,,,,,,,,543.38857831934,543.38857831934,543.38857831934,543.38857831934,543.38857831934,543.38857831934,s,1,0.7052263675723225,544.10529564647,545.1303929174319,,,,,,,,,,,,,,,,,,,,,,,,,,,,,,,,,,,,,,,577,2023-05-17_09h01.14.463,eb_02psyexp,2022.2.4,120.0247083432571,
7,0,7,0,,,,,,,,,,,,,,,,,,,,,,,,,,,,,,,,,,,,,,,,,,,,,,,,,,,,,,,,,,,545.1303929174319,545.1303929174319,545.1303929174319,545.1303929174319,545.1303929174319,545.1303929174319,s,1,0.6594463736983016,545.8054302713135,546.8388875641394,,,,,,,,,,,,,,,,,,,,,,,,,,,,,,,,,,,,,,,577,2023-05-17_09h01.14.463,eb_02psyexp,2022.2.4,120.0247083432571,
8,0,8,0,,,,,,,,,,,,,,,,,,,,,,,,,,,,,,,,,,,,,,,,,,,,,,,,,,,,,,,,,,,546.8388875641394,546.8388875641394,546.8388875641394,546.8388875641394,546.8388875641394,546.8388875641394,s,1,0.5110085953492671,547.3639072597725,548.3806873714784,,,,,,,,,,,,,,,,,,,,,,,,,,,,,,,,,,,,,,,577,2023-05-17_09h01.14.463,eb_02psyexp,2022.2.4,120.0247083432571,
9,0,9,0,,,,,,,,,,,,,,,,,,,,,,,,,,,,,,,,,,,,,,,,,,,,,,,,,,,,,,,,,,,548.3806873714784,548.3806873714784,548.3806873714784,548.3806873714784,548.3806873714784,548.3806873714784,l,1,0.761216418701224,549.1557425345527,550.189172359067,,,,,,,,,,,,,,,,,,,,,,,,,,,,,,,,,,,,,,,577,2023-05-17_09h01.14.463,eb_02psyexp,2022.2.4,120.0247083432571,
10,0,10,0,,,,,,,,,,,,,,,,,,,,,,,,,,,,,,,,,,,,,,,,,,,,,,,,,,,,,,,,,,,550.189172359067,550.189172359067,550.189172359067,550.189172359067,550.189172359067,550.189172359067,s,1,0.5127904125256464,550.714194771368,551.7392896275269,,,,,,,,,,,,,,,,,,,,,,,,,,,,,,,,,,,,,,,577,2023-05-17_09h01.14.463,eb_02psyexp,2022.2.4,120.0247083432571,
11,0,11,0,,,,,,,,,,,,,,,,,,,,,,,,,,,,,,,,,,,,,,,,,,,,,,,,,,,,,,,,,,,551.7392896275269,551.7392896275269,551.7392896275269,551.7392896275269,551.7392896275269,551.7392896275269,s,1,0.690710126538761,552.4393415456871,553.4727725775447,,,,,,,,,,,,,,,,,,,,,,,,,,,,,,,,,,,,,,,577,2023-05-17_09h01.14.463,eb_02psyexp,2022.2.4,120.0247083432571,
12,0,12,0,,,,,,,,,,,,,,,,,,,,,,,,,,,,,,,,,,,,,,,,,,,,,,,,,,,,,,,,,,,553.4727725775447,553.4727725775447,553.4727725775447,553.4727725775447,553.4727725775447,553.4727725775447,s,1,0.5412587379105389,554.0228149874602,555.0479065232212,,,,,,,,,,,,,,,,,,,,,,,,,,,,,,,,,,,,,,,577,2023-05-17_09h01.14.463,eb_02psyexp,2022.2.4,120.0247083432571,
13,0,13,0,,,,,,,,,,,,,,,,,,,,,,,,,,,,,,,,,,,,,,,,,,,,,,,,,,,,,,,,,,,555.0479065232212,555.0479065232212,555.0479065232212,555.0479065232212,555.0479065232212,555.0479065232212,s,1,0.5101175358286127,555.5729407076724,556.5980835579103,,,,,,,,,,,,,,,,,,,,,,,,,,,,,,,,,,,,,,,577,2023-05-17_09h01.14.463,eb_02psyexp,2022.2.4,120.0247083432571,
14,0,14,0,,,,,,,,,,,,,,,,,,,,,,,,,,,,,,,,,,,,,,,,,,,,,,,,,,,,,,,,,,,556.5980835579103,556.5980835579103,556.5980835579103,556.5980835579103,556.5980835579103,556.5980835579103,l,1,0.5750042969593778,557.1814096971648,558.2065102885244,,,,,,,,,,,,,,,,,,,,,,,,,,,,,,,,,,,,,,,577,2023-05-17_09h01.14.463,eb_02psyexp,2022.2.4,120.0247083432571,
15,0,15,0,,,,,,,,,,,,,,,,,,,,,,,,,,,,,,,,,,,,,,,,,,,,,,,,,,,,,,,,,,,558.2065102885244,558.2065102885244,558.2065102885244,558.2065102885244,558.2065102885244,558.2065102885244,l,1,0.5425923087168485,558.7648897796171,559.7899906728417,,,,,,,,,,,,,,,,,,,,,,,,,,,,,,,,,,,,,,,577,2023-05-17_09h01.14.463,eb_02psyexp,2022.2.4,120.0247083432571,
16,0,16,0,,,,,,,,,,,,,,,,,,,,,,,,,,,,,,,,,,,,,,,,,,,,,,,,,,,,,,,,,,,559.7899906728417,559.7899906728417,559.7899906728417,559.7899906728417,559.7899906728417,559.7899906728417,s,1,0.5911535434424877,560.3900193485897,561.415124769439,,,,,,,,,,,,,,,,,,,,,,,,,,,,,,,,,,,,,,,577,2023-05-17_09h01.14.463,eb_02psyexp,2022.2.4,120.0247083432571,
17,0,17,0,,,,,,,,,,,,,,,,,,,,,,,,,,,,,,,,,,,,,,,,,,,,,,,,,,,,,,,,,,,561.415124769439,561.415124769439,561.415124769439,561.415124769439,561.415124769439,561.415124769439,l,1,0.5500814949627966,561.973487055162,562.9985837225104,,,,,,,,,,,,,,,,,,,,,,,,,,,,,,,,,,,,,,,577,2023-05-17_09h01.14.463,eb_02psyexp,2022.2.4,120.0247083432571,
18,0,18,0,,,,,,,,,,,,,,,,,,,,,,,,,,,,,,,,,,,,,,,,,,,,,,,,,,,,,,,,,,,562.9985837225104,562.9985837225104,562.9985837225104,562.9985837225104,562.9985837225104,562.9985837225104,l,1,0.58266282081604,563.5903115387773,564.6153870766284,,,,,,,,,,,,,,,,,,,,,,,,,,,,,,,,,,,,,,,577,2023-05-17_09h01.14.463,eb_02psyexp,2022.2.4,120.0247083432571,
19,0,19,0,,,,,,,,,,,,,,,,,,,,,,,,,,,,,,,,,,,,,,,,,,,,,,,,,,,,,,,,,,,564.6153870766284,564.6153870766284,564.6153870766284,564.6153870766284,564.6153870766284,564.6153870766284,l,1,0.5178524274379015,565.1487586442381,566.1655227579176,,,,,,,,,,,,,,,,,,,,,,,,,,,,,,,,,,,,,,,577,2023-05-17_09h01.14.463,eb_02psyexp,2022.2.4,120.0247083432571,
20,0,20,0,,,,,,,,,,,,,,,,,,,,,,,,,,,,,,,,,,,,,,,,,,,,,,,,,,,,,,,,,,,566.1655227579176,566.1655227579176,566.1655227579176,566.1655227579176,566.1655227579176,566.1655227579176,l,1,0.7037382499547675,566.8822615162935,567.9073367522797,,,,,,,,,,,,,,,,,,,,,,,,,,,,,,,,,,,,,,,577,2023-05-17_09h01.14.463,eb_02psyexp,2022.2.4,120.0247083432571,
21,0,21,0,,,,,,,,,,,,,,,,,,,,,,,,,,,,,,,,,,,,,,,,,,,,,,,,,,,,,,,,,,,567.9073367522797,567.9073367522797,567.9073367522797,567.9073367522797,567.9073367522797,567.9073367522797,l,1,0.6339745074510574,568.557376143639,569.5741399554536,,,,,,,,,,,,,,,,,,,,,,,,,,,,,,,,,,,,,,,577,2023-05-17_09h01.14.463,eb_02psyexp,2022.2.4,120.0247083432571,
22,0,22,0,,,,,,,,,,,,,,,,,,,,,,,,,,,,,,,,,,,,,,,,,,,,,,,,,,,,,,,,,,,569.5741399554536,569.5741399554536,569.5741399554536,569.5741399554536,569.5741399554536,569.5741399554536,l,1,0.8311884372960776,570.4158754689852,571.4409733436769,,,,,,,,,,,,,,,,,,,,,,,,,,,,,,,,,,,,,,,577,2023-05-17_09h01.14.463,eb_02psyexp,2022.2.4,120.0247083432571,
23,0,23,0,,,,,,,,,,,,,,,,,,,,,,,,,,,,,,,,,,,,,,,,,,,,,,,,,,,,,,,,,,,571.4409733436769,571.4409733436769,571.4409733436769,571.4409733436769,571.4409733436769,571.4409733436769,l,1,0.48352882673498243,571.9326712768525,572.9577694534091,,,,,,,,,,,,,,,,,,,,,,,,,,,,,,,,,,,,,,,577,2023-05-17_09h01.14.463,eb_02psyexp,2022.2.4,120.0247083432571,
24,0,24,0,,,,,,,,,,,,,,,,,,,,,,,,,,,,,,,,,,,,,,,,,,,,,,,,,,,,,,,,,,,572.9577694534091,572.9577694534091,572.9577694534091,572.9577694534091,572.9577694534091,572.9577694534091,s,1,0.7346412928309292,573.7078323890455,574.7329209063901,,,,,,,,,,,,,,,,,,,,,,,,,,,,,,,,,,,,,,,577,2023-05-17_09h01.14.463,eb_02psyexp,2022.2.4,120.0247083432571,
25,0,25,0,,,,,,,,,,,,,,,,,,,,,,,,,,,,,,,,,,,,,,,,,,,,,,,,,,,,,,,,,,,574.7329209063901,574.7329209063901,574.7329209063901,574.7329209063901,574.7329209063901,574.7329209063901,l,1,0.5755123095586896,575.32462276367,576.3414158549858,,,,,,,,,,,,,,,,,,,,,,,,,,,,,,,,,,,,,,,577,2023-05-17_09h01.14.463,eb_02psyexp,2022.2.4,120.0247083432571,
26,0,26,0,,,,,,,,,,,,,,,,,,,,,,,,,,,,,,,,,,,,,,,,,,,,,,,,,,,,,,,,,,,576.3414158549858,576.3414158549858,576.3414158549858,576.3414158549858,576.3414158549858,576.3414158549858,l,1,0.711044515366666,577.0664488319308,578.0915521399584,,,,,,,,,,,,,,,,,,,,,,,,,,,,,,,,,,,,,,,577,2023-05-17_09h01.14.463,eb_02psyexp,2022.2.4,120.0247083432571,
27,0,27,0,,,,,,,,,,,,,,,,,,,,,,,,,,,,,,,,,,,,,,,,,,,,,,,,,,,,,,,,,,,578.0915521399584,578.0915521399584,578.0915521399584,578.0915521399584,578.0915521399584,578.0915521399584,l,1,0.5529523849254474,578.6582466773689,579.675007772632,,,,,,,,,,,,,,,,,,,,,,,,,,,,,,,,,,,,,,,577,2023-05-17_09h01.14.463,eb_02psyexp,2022.2.4,120.0247083432571,
28,0,28,0,,,,,,,,,,,,,,,,,,,,,,,,,,,,,,,,,,,,,,,,,,,,,,,,,,,,,,,,,,,579.675007772632,579.675007772632,579.675007772632,579.675007772632,579.675007772632,579.675007772632,l,1,0.6575199704384431,580.3417213265784,581.3668282567523,,,,,,,,,,,,,,,,,,,,,,,,,,,,,,,,,,,,,,,577,2023-05-17_09h01.14.463,eb_02psyexp,2022.2.4,120.0247083432571,
29,0,29,0,,,,,,,,,,,,,,,,,,,,,,,,,,,,,,,,,,,,,,,,,,,,,,,,,,,,,,,,,,,581.3668282567523,581.3668282567523,581.3668282567523,581.3668282567523,581.3668282567523,581.3668282567523,l,1,0.501731252996251,581.883522643242,582.908616895671,,,,,,,,,,,,,,,,,,,,,,,,,,,,,,,,,,,,,,,577,2023-05-17_09h01.14.463,eb_02psyexp,2022.2.4,120.0247083432571,
30,0,30,0,,,,,,,,,,,,,,,,,,,,,,,,,,,,,,,,,,,,,,,,,,,,,,,,,,,,,,,,,,,582.908616895671,582.908616895671,582.908616895671,582.908616895671,582.908616895671,582.908616895671,l,1,0.5439850420225412,583.4669900480658,584.4920818856917,,,,,,,,,,,,,,,,,,,,,,,,,,,,,,,,,,,,,,,577,2023-05-17_09h01.14.463,eb_02psyexp,2022.2.4,120.0247083432571,
31,0,31,0,,,,,,,,,,,,,,,,,,,,,,,,,,,,,,,,,,,,,,,,,,,,,,,,,,,,,,,,,,,584.4920818856917,584.4920818856917,584.4920818856917,584.4920818856917,584.4920818856917,584.4920818856917,l,1,0.4405659935437143,584.9421176548349,585.9672152276617,,,,,,,,,,,,,,,,,,,,,,,,,,,,,,,,,,,,,,,577,2023-05-17_09h01.14.463,eb_02psyexp,2022.2.4,120.0247083432571,
32,0,32,0,,,,,,,,,,,,,,,,,,,,,,,,,,,,,,,,,,,,,,,,,,,,,,,,,,,,,,,,,,,585.9672152276617,585.9672152276617,585.9672152276617,585.9672152276617,585.9672152276617,585.9672152276617,l,1,0.4684737845091149,586.4505860406207,587.4756857263856,,,,,,,,,,,,,,,,,,,,,,,,,,,,,,,,,,,,,,,577,2023-05-17_09h01.14.463,eb_02psyexp,2022.2.4,120.0247083432571,
33,0,33,0,,,,,,,,,,,,,,,,,,,,,,,,,,,,,,,,,,,,,,,,,,,,,,,,,,,,,,,,,,,587.4756857263856,587.4756857263856,587.4756857263856,587.4756857263856,587.4756857263856,587.4756857263856,l,1,0.46400037594139576,587.9507128173718,588.9758067680523,,,,,,,,,,,,,,,,,,,,,,,,,,,,,,,,,,,,,,,577,2023-05-17_09h01.14.463,eb_02psyexp,2022.2.4,120.0247083432571,
34,0,34,0,,,,,,,,,,,,,,,,,,,,,,,,,,,,,,,,,,,,,,,,,,,,,,,,,,,,,,,,,,,588.9758067680523,588.9758067680523,588.9758067680523,588.9758067680523,588.9758067680523,588.9758067680523,l,1,0.47595633007586,589.4675098326989,590.4926016704412,,,,,,,,,,,,,,,,,,,,,,,,,,,,,,,,,,,,,,,577,2023-05-17_09h01.14.463,eb_02psyexp,2022.2.4,120.0247083432571,
35,0,35,0,,,,,,,,,,,,,,,,,,,,,,,,,,,,,,,,,,,,,,,,,,,,,,,,,,,,,,,,,,,590.4926016704412,590.4926016704412,590.4926016704412,590.4926016704412,590.4926016704412,590.4926016704412,s,1,0.6311621762579307,591.1343151489273,592.1594118161593,,,,,,,,,,,,,,,,,,,,,,,,,,,,,,,,,,,,,,,577,2023-05-17_09h01.14.463,eb_02psyexp,2022.2.4,120.0247083432571,
36,0,36,0,,,,,,,,,,,,,,,,,,,,,,,,,,,,,,,,,,,,,,,,,,,,,,,,,,,,,,,,,,,592.1594118161593,592.1594118161593,592.1594118161593,592.1594118161593,592.1594118161593,592.1594118161593,l,1,0.46837055205833167,592.6428070790134,593.6678919740953,,,,,,,,,,,,,,,,,,,,,,,,,,,,,,,,,,,,,,,577,2023-05-17_09h01.14.463,eb_02psyexp,2022.2.4,120.0247083432571,
37,0,37,0,,,,,,,,,,,,,,,,,,,,,,,,,,,,,,,,,,,,,,,,,,,,,,,,,,,,,,,,,,,593.6678919740953,593.6678919740953,593.6678919740953,593.6678919740953,593.6678919740953,593.6678919740953,s,1,0.5439621014520526,594.2262663338333,595.2513340235455,,,,,,,,,,,,,,,,,,,,,,,,,,,,,,,,,,,,,,,577,2023-05-17_09h01.14.463,eb_02psyexp,2022.2.4,120.0247083432571,
38,0,38,0,,,,,,,,,,,,,,,,,,,,,,,,,,,,,,,,,,,,,,,,,,,,,,,,,,,,,,,,,,,595.2513340235455,595.2513340235455,595.2513340235455,595.2513340235455,595.2513340235455,595.2513340235455,l,1,0.4645056718727574,595.7263746977551,596.7514623095049,,,,,,,,,,,,,,,,,,,,,,,,,,,,,,,,,,,,,,,577,2023-05-17_09h01.14.463,eb_02psyexp,2022.2.4,120.0247083432571,
39,0,39,0,,,,,,,,,,,,,,,,,,,,,,,,,,,,,,,,,,,,,,,,,,,,,,,,,,,,,,,,,,,596.7514623095049,596.7514623095049,596.7514623095049,596.7514623095049,596.7514623095049,596.7514623095049,s,1,0.5724274084204808,597.3348427817691,598.3599388452712,,,,,,,,,,,,,,,,,,,,,,,,,,,,,,,,,,,,,,,577,2023-05-17_09h01.14.463,eb_02psyexp,2022.2.4,120.0247083432571,
40,0,40,0,,,,,,,,,,,,,,,,,,,,,,,,,,,,,,,,,,,,,,,,,,,,,,,,,,,,,,,,,,,598.3599388452712,598.3599388452712,598.3599388452712,598.3599388452712,598.3599388452712,598.3599388452712,l,1,0.4519822408910841,598.8266523992643,599.8517297481885,,,,,,,,,,,,,,,,,,,,,,,,,,,,,,,,,,,,,,,577,2023-05-17_09h01.14.463,eb_02psyexp,2022.2.4,120.0247083432571,
41,0,41,0,,,,,,,,,,,,,,,,,,,,,,,,,,,,,,,,,,,,,,,,,,,,,,,,,,,,,,,,,,,599.8517297481885,599.8517297481885,599.8517297481885,599.8517297481885,599.8517297481885,599.8517297481885,l,1,0.496183562441729,600.3601096920902,601.3851918706205,,,,,,,,,,,,,,,,,,,,,,,,,,,,,,,,,,,,,,,577,2023-05-17_09h01.14.463,eb_02psyexp,2022.2.4,120.0247083432571,
42,0,42,0,,,,,,,,,,,,,,,,,,,,,,,,,,,,,,,,,,,,,,,,,,,,,,,,,,,,,,,,,,,601.3851918706205,601.3851918706205,601.3851918706205,601.3851918706205,601.3851918706205,601.3851918706205,s,1,0.6267717763548717,602.0269138008589,603.0520032237982,,,,,,,,,,,,,,,,,,,,,,,,,,,,,,,,,,,,,,,577,2023-05-17_09h01.14.463,eb_02psyexp,2022.2.4,120.0247083432571,
43,0,43,0,,,,,,,,,,,,,,,,,,,,,,,,,,,,,,,,,,,,,,,,,,,,,,,,,,,,,,,,,,,603.0520032237982,603.0520032237982,603.0520032237982,603.0520032237982,603.0520032237982,603.0520032237982,l,1,0.6389876229222864,603.7020709889475,604.7271459230687,,,,,,,,,,,,,,,,,,,,,,,,,,,,,,,,,,,,,,,577,2023-05-17_09h01.14.463,eb_02psyexp,2022.2.4,120.0247083432571,
44,0,44,0,,,,,,,,,,,,,,,,,,,,,,,,,,,,,,,,,,,,,,,,,,,,,,,,,,,,,,,,,,,604.7271459230687,604.7271459230687,604.7271459230687,604.7271459230687,604.7271459230687,604.7271459230687,s,1,0.547877088538371,605.2855396011146,606.3189591628034,,,,,,,,,,,,,,,,,,,,,,,,,,,,,,,,,,,,,,,577,2023-05-17_09h01.14.463,eb_02psyexp,2022.2.4,120.0247083432571,
45,0,45,0,,,,,,,,,,,,,,,,,,,,,,,,,,,,,,,,,,,,,,,,,,,,,,,,,,,,,,,,,,,606.3189591628034,606.3189591628034,606.3189591628034,606.3189591628034,606.3189591628034,606.3189591628034,s,1,0.5801118912640959,606.9106649440946,607.9357640261296,,,,,,,,,,,,,,,,,,,,,,,,,,,,,,,,,,,,,,,577,2023-05-17_09h01.14.463,eb_02psyexp,2022.2.4,120.0247083432571,
46,0,46,0,,,,,,,,,,,,,,,,,,,,,,,,,,,,,,,,,,,,,,,,,,,,,,,,,,,,,,,,,,,607.9357640261296,607.9357640261296,607.9357640261296,607.9357640261296,607.9357640261296,607.9357640261296,s,1,0.4753459906205535,608.4274619594216,609.4525622489164,,,,,,,,,,,,,,,,,,,,,,,,,,,,,,,,,,,,,,,577,2023-05-17_09h01.14.463,eb_02psyexp,2022.2.4,120.0247083432571,
47,0,47,0,,,,,,,,,,,,,,,,,,,,,,,,,,,,,,,,,,,,,,,,,,,,,,,,,,,,,,,,,,,609.4525622489164,609.4525622489164,609.4525622489164,609.4525622489164,609.4525622489164,609.4525622489164,l,1,0.6145752482116222,610.0776124313707,611.0943590378156,,,,,,,,,,,,,,,,,,,,,,,,,,,,,,,,,,,,,,,577,2023-05-17_09h01.14.463,eb_02psyexp,2022.2.4,120.0247083432571,
48,0,48,0,,,,,,,,,,,,,,,,,,,,,,,,,,,,,,,,,,,,,,,,,,,,,,,,,,,,,,,,,,,611.0943590378156,611.0943590378156,611.0943590378156,611.0943590378156,611.0943590378156,611.0943590378156,l,1,0.6288270690711215,611.7360773459077,612.7612084239954,,,,,,,,,,,,,,,,,,,,,,,,,,,,,,,,,,,,,,,577,2023-05-17_09h01.14.463,eb_02psyexp,2022.2.4,120.0247083432571,
49,0,49,0,,,,,,,,,,,,,,,,,,,,,,,,,,,,,,,,,,,,,,,,,,,,,,,,,,,,,,,,,,,612.7612084239954,612.7612084239954,612.7612084239954,612.7612084239954,612.7612084239954,612.7612084239954,s,0,0.48998689535073936,613.2612108387984,614.277982498752,,,,,,,,,,,,,,,,,,,,,,,,,,,,,,,,,,,,,,,577,2023-05-17_09h01.14.463,eb_02psyexp,2022.2.4,120.0247083432571,
50,0,50,0,,,,,,,,,,,,,,,,,,,,,,,,,,,,,,,,,,,,,,,,,,,,,,,,,,,,,,,,,,,614.277982498752,614.277982498752,614.277982498752,614.277982498752,614.277982498752,614.277982498752,l,1,0.9012817991897464,615.1947170312051,616.2198058504146,,,,,,,,,,,,,,,,,,,,,,,,,,,,,,,,,,,,,,,577,2023-05-17_09h01.14.463,eb_02psyexp,2022.2.4,120.0247083432571,
51,0,51,0,,,,,,,,,,,,,,,,,,,,,,,,,,,,,,,,,,,,,,,,,,,,,,,,,,,,,,,,,,,616.2198058504146,616.2198058504146,616.2198058504146,616.2198058504146,616.2198058504146,616.2198058504146,l,1,0.5834923030342907,616.8115140465088,617.8366161470767,,,,,,,,,,,,,,,,,,,,,,,,,,,,,,,,,,,,,,,577,2023-05-17_09h01.14.463,eb_02psyexp,2022.2.4,120.0247083432571,
52,0,52,0,,,,,,,,,,,,,,,,,,,,,,,,,,,,,,,,,,,,,,,,,,,,,,,,,,,,,,,,,,,617.8366161470767,617.8366161470767,617.8366161470767,617.8366161470767,617.8366161470767,617.8366161470767,l,1,0.5346793258795515,618.3866636884632,619.4117452632636,,,,,,,,,,,,,,,,,,,,,,,,,,,,,,,,,,,,,,,577,2023-05-17_09h01.14.463,eb_02psyexp,2022.2.4,120.0247083432571,
53,0,53,0,,,,,,,,,,,,,,,,,,,,,,,,,,,,,,,,,,,,,,,,,,,,,,,,,,,,,,,,,,,619.4117452632636,619.4117452632636,619.4117452632636,619.4117452632636,619.4117452632636,619.4117452632636,l,1,0.44660147291142493,619.8701169062406,620.8952081402531,,,,,,,,,,,,,,,,,,,,,,,,,,,,,,,,,,,,,,,577,2023-05-17_09h01.14.463,eb_02psyexp,2022.2.4,120.0247083432571,
54,0,54,0,,,,,,,,,,,,,,,,,,,,,,,,,,,,,,,,,,,,,,,,,,,,,,,,,,,,,,,,,,,620.8952081402531,620.8952081402531,620.8952081402531,620.8952081402531,620.8952081402531,620.8952081402531,l,1,0.42714878625702113,621.3369164873147,622.362001080648,,,,,,,,,,,,,,,,,,,,,,,,,,,,,,,,,,,,,,,577,2023-05-17_09h01.14.463,eb_02psyexp,2022.2.4,120.0247083432571,
55,0,55,0,,,,,,,,,,,,,,,,,,,,,,,,,,,,,,,,,,,,,,,,,,,,,,,,,,,,,,,,,,,622.362001080648,622.362001080648,622.362001080648,622.362001080648,622.362001080648,622.362001080648,s,1,0.648405626998283,623.0203917401377,624.0538082832936,,,,,,,,,,,,,,,,,,,,,,,,,,,,,,,,,,,,,,,577,2023-05-17_09h01.14.463,eb_02psyexp,2022.2.4,120.0247083432571,
56,0,56,0,,,,,,,,,,,,,,,,,,,,,,,,,,,,,,,,,,,,,,,,,,,,,,,,,,,,,,,,,,,624.0538082832936,624.0538082832936,624.0538082832936,624.0538082832936,624.0538082832936,624.0538082832936,s,1,0.5406124783912674,624.6038476746762,625.6206238623708,,,,,,,,,,,,,,,,,,,,,,,,,,,,,,,,,,,,,,,577,2023-05-17_09h01.14.463,eb_02psyexp,2022.2.4,120.0247083432571,
57,0,57,0,,,,,,,,,,,,,,,,,,,,,,,,,,,,,,,,,,,,,,,,,,,,,,,,,,,,,,,,,,,625.6206238623708,625.6206238623708,625.6206238623708,625.6206238623708,625.6206238623708,625.6206238623708,l,1,0.5978057011961937,626.2289585289545,627.2624441955704,,,,,,,,,,,,,,,,,,,,,,,,,,,,,,,,,,,,,,,577,2023-05-17_09h01.14.463,eb_02psyexp,2022.2.4,120.0247083432571,
58,0,58,0,,,,,,,,,,,,,,,,,,,,,,,,,,,,,,,,,,,,,,,,,,,,,,,,,,,,,,,,,,,627.2624441955704,627.2624441955704,627.2624441955704,627.2624441955704,627.2624441955704,627.2624441955704,s,1,0.5800503138452768,627.8541294510942,628.8792258165777,,,,,,,,,,,,,,,,,,,,,,,,,,,,,,,,,,,,,,,577,2023-05-17_09h01.14.463,eb_02psyexp,2022.2.4,120.0247083432571,
59,0,59,0,,,,,,,,,,,,,,,,,,,,,,,,,,,,,,,,,,,,,,,,,,,,,,,,,,,,,,,,,,,628.8792258165777,628.8792258165777,628.8792258165777,628.8792258165777,628.8792258165777,628.8792258165777,s,1,0.515310553368181,629.4042639250401,630.4293584794505,,,,,,,,,,,,,,,,,,,,,,,,,,,,,,,,,,,,,,,577,2023-05-17_09h01.14.463,eb_02psyexp,2022.2.4,120.0247083432571,
60,0,60,0,,,,,,,,,,,,,,,,,,,,,,,,,,,,,,,,,,,,,,,,,,,,,,,,,,,,,,,,,,,630.4293584794505,630.4293584794505,630.4293584794505,630.4293584794505,630.4293584794505,630.4293584794505,l,1,0.5412080272799358,630.9793987763114,632.0044972546166,,,,,,,,,,,,,,,,,,,,,,,,,,,,,,,,,,,,,,,577,2023-05-17_09h01.14.463,eb_02psyexp,2022.2.4,120.0247083432571,
61,0,61,0,,,,,,,,,,,,,,,,,,,,,,,,,,,,,,,,,,,,,,,,,,,,,,,,,,,,,,,,,,,632.0044972546166,632.0044972546166,632.0044972546166,632.0044972546166,632.0044972546166,632.0044972546166,s,1,0.6620990264927968,632.6795666045509,633.7046418405371,,,,,,,,,,,,,,,,,,,,,,,,,,,,,,,,,,,,,,,577,2023-05-17_09h01.14.463,eb_02psyexp,2022.2.4,120.0247083432571,
62,0,62,0,,,,,,,,,,,,,,,,,,,,,,,,,,,,,,,,,,,,,,,,,,,,,,,,,,,,,,,,,,,633.7046418405371,633.7046418405371,633.7046418405371,633.7046418405371,633.7046418405371,633.7046418405371,l,1,0.6009941366501153,634.3213522250298,635.3464497978566,,,,,,,,,,,,,,,,,,,,,,,,,,,,,,,,,,,,,,,577,2023-05-17_09h01.14.463,eb_02psyexp,2022.2.4,120.0247083432571,
63,0,63,0,,,,,,,,,,,,,,,,,,,,,,,,,,,,,,,,,,,,,,,,,,,,,,,,,,,,,,,,,,,635.3464497978566,635.3464497978566,635.3464497978566,635.3464497978566,635.3464497978566,635.3464497978566,s,1,0.599212923203595,635.9548327602679,636.9799209758639,,,,,,,,,,,,,,,,,,,,,,,,,,,,,,,,,,,,,,,577,2023-05-17_09h01.14.463,eb_02psyexp,2022.2.4,120.0247083432571,
64,0,64,0,,,,,,,,,,,,,,,,,,,,,,,,,,,,,,,,,,,,,,,,,,,,,,,,,,,,,,,,,,,636.9799209758639,636.9799209758639,636.9799209758639,636.9799209758639,636.9799209758639,636.9799209758639,l,1,0.5338015478337184,637.5299594616517,638.5467383660143,,,,,,,,,,,,,,,,,,,,,,,,,,,,,,,,,,,,,,,577,2023-05-17_09h01.14.463,eb_02psyexp,2022.2.4,120.0247083432571,
65,0,65,0,,,,,,,,,,,,,,,,,,,,,,,,,,,,,,,,,,,,,,,,,,,,,,,,,,,,,,,,,,,638.5467383660143,638.5467383660143,638.5467383660143,638.5467383660143,638.5467383660143,638.5467383660143,l,1,0.6789739188970998,639.2384495806182,640.2635513793211,,,,,,,,,,,,,,,,,,,,,,,,,,,,,,,,,,,,,,,577,2023-05-17_09h01.14.463,eb_02psyexp,2022.2.4,120.0247083432571,
66,0,66,0,,,,,,,,,,,,,,,,,,,,,,,,,,,,,,,,,,,,,,,,,,,,,,,,,,,,,,,,,,,640.2635513793211,640.2635513793211,640.2635513793211,640.2635513793211,640.2635513793211,640.2635513793211,l,1,0.4742246199166402,640.74691042013,641.7720013522776,,,,,,,,,,,,,,,,,,,,,,,,,,,,,,,,,,,,,,,577,2023-05-17_09h01.14.463,eb_02psyexp,2022.2.4,120.0247083432571,
67,0,67,0,,,,,,,,,,,,,,,,,,,,,,,,,,,,,,,,,,,,,,,,,,,,,,,,,,,,,,,,,,,641.7720013522776,641.7720013522776,641.7720013522776,641.7720013522776,641.7720013522776,641.7720013522776,l,1,0.565776759875007,642.3470420264639,643.3638088568114,,,,,,,,,,,,,,,,,,,,,,,,,,,,,,,,,,,,,,,577,2023-05-17_09h01.14.463,eb_02psyexp,2022.2.4,120.0247083432571,
68,0,68,0,,,,,,,,,,,,,,,,,,,,,,,,,,,,,,,,,,,,,,,,,,,,,,,,,,,,,,,,,,,643.3638088568114,643.3638088568114,643.3638088568114,643.3638088568114,643.3638088568114,643.3638088568114,l,1,0.5900677910540253,643.9638474936364,644.9972791292239,,,,,,,,,,,,,,,,,,,,,,,,,,,,,,,,,,,,,,,577,2023-05-17_09h01.14.463,eb_02psyexp,2022.2.4,120.0247083432571,
69,0,69,0,,,,,,,,,,,,,,,,,,,,,,,,,,,,,,,,,,,,,,,,,,,,,,,,,,,,,,,,,,,644.9972791292239,644.9972791292239,644.9972791292239,644.9972791292239,644.9972791292239,644.9972791292239,s,1,0.5566101962467656,645.5639772888971,646.5807561931433,,,,,,,,,,,,,,,,,,,,,,,,,,,,,,,,,,,,,,,577,2023-05-17_09h01.14.463,eb_02psyexp,2022.2.4,120.0247083432571,
70,0,70,0,,,,,,,,,,,,,,,,,,,,,,,,,,,,,,,,,,,,,,,,,,,,,,,,,,,,,,,,,,,646.5807561931433,646.5807561931433,646.5807561931433,646.5807561931433,646.5807561931433,646.5807561931433,l,1,0.6051264555426314,647.1974590314785,648.2225695837988,,,,,,,,,,,,,,,,,,,,,,,,,,,,,,,,,,,,,,,577,2023-05-17_09h01.14.463,eb_02psyexp,2022.2.4,120.0247083432571,
71,0,71,0,,,,,,,,,,,,,,,,,,,,,,,,,,,,,,,,,,,,,,,,,,,,,,,,,,,,,,,,,,,648.2225695837988,648.2225695837988,648.2225695837988,648.2225695837988,648.2225695837988,648.2225695837988,l,1,0.555345447268337,648.789262913866,649.8060128407087,,,,,,,,,,,,,,,,,,,,,,,,,,,,,,,,,,,,,,,577,2023-05-17_09h01.14.463,eb_02psyexp,2022.2.4,120.0247083432571,
72,0,72,0,,,,,,,,,,,,,,,,,,,,,,,,,,,,,,,,,,,,,,,,,,,,,,,,,,,,,,,,,,,649.8060128407087,649.8060128407087,649.8060128407087,649.8060128407087,649.8060128407087,649.8060128407087,l,1,0.6029268787242472,650.4227431472391,651.4478437385987,,,,,,,,,,,,,,,,,,,,,,,,,,,,,,,,,,,,,,,577,2023-05-17_09h01.14.463,eb_02psyexp,2022.2.4,120.0247083432571,
73,0,73,0,,,,,,,,,,,,,,,,,,,,,,,,,,,,,,,,,,,,,,,,,,,,,,,,,,,,,,,,,,,651.4478437385987,651.4478437385987,651.4478437385987,651.4478437385987,651.4478437385987,651.4478437385987,l,1,0.593130657216534,652.0562097973889,653.0729841740103,,,,,,,,,,,,,,,,,,,,,,,,,,,,,,,,,,,,,,,577,2023-05-17_09h01.14.463,eb_02psyexp,2022.2.4,120.0247083432571,
74,0,74,0,,,,,,,,,,,,,,,,,,,,,,,,,,,,,,,,,,,,,,,,,,,,,,,,,,,,,,,,,,,653.0729841740103,653.0729841740103,653.0729841740103,653.0729841740103,653.0729841740103,653.0729841740103,l,1,0.504034967860207,653.5896758438321,654.6147716055857,,,,,,,,,,,,,,,,,,,,,,,,,,,,,,,,,,,,,,,577,2023-05-17_09h01.14.463,eb_02psyexp,2022.2.4,120.0247083432571,
75,0,75,0,,,,,,,,,,,,,,,,,,,,,,,,,,,,,,,,,,,,,,,,,,,,,,,,,,,,,,,,,,,654.6147716055857,654.6147716055857,654.6147716055857,654.6147716055857,654.6147716055857,654.6147716055857,l,1,0.554286559461616,655.1815014594467,656.206576393568,,,,,,,,,,,,,,,,,,,,,,,,,,,,,,,,,,,,,,,577,2023-05-17_09h01.14.463,eb_02psyexp,2022.2.4,120.0247083432571,
76,0,76,0,,,,,,,,,,,,,,,,,,,,,,,,,,,,,,,,,,,,,,,,,,,,,,,,,,,,,,,,,,,656.206576393568,656.206576393568,656.206576393568,656.206576393568,656.206576393568,656.206576393568,s,1,0.5144819767447188,656.7316329148598,657.7567120748572,,,,,,,,,,,,,,,,,,,,,,,,,,,,,,,,,,,,,,,577,2023-05-17_09h01.14.463,eb_02psyexp,2022.2.4,120.0247083432571,
77,0,77,0,,,,,,,,,,,,,,,,,,,,,,,,,,,,,,,,,,,,,,,,,,,,,,,,,,,,,,,,,,,657.7567120748572,657.7567120748572,657.7567120748572,657.7567120748572,657.7567120748572,657.7567120748572,l,1,0.5163923817453906,658.28173297795,659.2985112785827,,,,,,,,,,,,,,,,,,,,,,,,,,,,,,,,,,,,,,,577,2023-05-17_09h01.14.463,eb_02psyexp,2022.2.4,120.0247083432571,
78,0,78,0,,,,,,,,,,,,,,,,,,,,,,,,,,,,,,,,,,,,,,,,,,,,,,,,,,,,,,,,,,,659.2985112785827,659.2985112785827,659.2985112785827,659.2985112785827,659.2985112785827,659.2985112785827,l,1,0.6306544656399637,659.9402347181458,660.9653005967848,,,,,,,,,,,,,,,,,,,,,,,,,,,,,,,,,,,,,,,577,2023-05-17_09h01.14.463,eb_02psyexp,2022.2.4,120.0247083432571,
79,0,79,0,,,,,,,,,,,,,,,,,,,,,,,,,,,,,,,,,,,,,,,,,,,,,,,,,,,,,,,,,,,660.9653005967848,660.9653005967848,660.9653005967848,660.9653005967848,660.9653005967848,660.9653005967848,l,1,0.747883427538909,661.7237211393658,662.7488051289693,,,,,,,,,,,,,,,,,,,,,,,,,,,,,,,,,,,,,,,577,2023-05-17_09h01.14.463,eb_02psyexp,2022.2.4,120.0247083432571,
80,0,80,0,,,,,,,,,,,,,,,,,,,,,,,,,,,,,,,,,,,,,,,,,,,,,,,,,,,,,,,,,,,662.7488051289693,662.7488051289693,662.7488051289693,662.7488051289693,662.7488051289693,662.7488051289693,l,1,0.5724138251971453,663.332186204847,664.3572780425893,,,,,,,,,,,,,,,,,,,,,,,,,,,,,,,,,,,,,,,577,2023-05-17_09h01.14.463,eb_02psyexp,2022.2.4,120.0247083432571,
81,0,81,0,,,,,,,,,,,,,,,,,,,,,,,,,,,,,,,,,,,,,,,,,,,,,,,,,,,,,,,,,,,664.3572780425893,664.3572780425893,664.3572780425893,664.3572780425893,664.3572780425893,664.3572780425893,s,1,0.5799790775636211,664.9489952941658,665.9824048947776,,,,,,,,,,,,,,,,,,,,,,,,,,,,,,,,,,,,,,,577,2023-05-17_09h01.14.463,eb_02psyexp,2022.2.4,120.0247083432571,
82,0,82,0,,,,,,,,,,,,,,,,,,,,,,,,,,,,,,,,,,,,,,,,,,,,,,,,,,,,,,,,,,,665.9824048947776,665.9824048947776,665.9824048947776,665.9824048947776,665.9824048947776,665.9824048947776,s,1,0.48186563642229885,666.474139351747,667.4991946656955,,,,,,,,,,,,,,,,,,,,,,,,,,,,,,,,,,,,,,,577,2023-05-17_09h01.14.463,eb_02psyexp,2022.2.4,120.0247083432571,
83,0,83,0,,,,,,,,,,,,,,,,,,,,,,,,,,,,,,,,,,,,,,,,,,,,,,,,,,,,,,,,,,,667.4991946656955,667.4991946656955,667.4991946656955,667.4991946656955,667.4991946656955,667.4991946656955,s,1,1.9251514485804364,669.4327050840948,670.4661394363502,,,,,,,,,,,,,,,,,,,,,,,,,,,,,,,,,,,,,,,577,2023-05-17_09h01.14.463,eb_02psyexp,2022.2.4,120.0247083432571,
84,0,84,0,,,,,,,,,,,,,,,,,,,,,,,,,,,,,,,,,,,,,,,,,,,,,,,,,,,,,,,,,,,670.4661394363502,670.4661394363502,670.4661394363502,670.4661394363502,670.4661394363502,670.4661394363502,s,1,0.7742200922220945,671.2495286620688,672.266301529482,,,,,,,,,,,,,,,,,,,,,,,,,,,,,,,,,,,,,,,577,2023-05-17_09h01.14.463,eb_02psyexp,2022.2.4,120.0247083432571,
85,0,85,0,,,,,,,,,,,,,,,,,,,,,,,,,,,,,,,,,,,,,,,,,,,,,,,,,,,,,,,,,,,672.266301529482,672.266301529482,672.266301529482,672.266301529482,672.266301529482,672.266301529482,l,1,0.5741087096976116,672.8496678146766,673.8747662930982,,,,,,,,,,,,,,,,,,,,,,,,,,,,,,,,,,,,,,,577,2023-05-17_09h01.14.463,eb_02psyexp,2022.2.4,120.0247083432571,
86,0,86,0,,,,,,,,,,,,,,,,,,,,,,,,,,,,,,,,,,,,,,,,,,,,,,,,,,,,,,,,,,,673.8747662930982,673.8747662930982,673.8747662930982,673.8747662930982,673.8747662930982,673.8747662930982,l,1,0.7736806871835142,674.6581570281414,675.6832524880301,,,,,,,,,,,,,,,,,,,,,,,,,,,,,,,,,,,,,,,577,2023-05-17_09h01.14.463,eb_02psyexp,2022.2.4,120.0247083432571,
87,0,87,0,,,,,,,,,,,,,,,,,,,,,,,,,,,,,,,,,,,,,,,,,,,,,,,,,,,,,,,,,,,675.6832524880301,675.6832524880301,675.6832524880301,675.6832524880301,675.6832524880301,675.6832524880301,s,1,0.661229700082913,676.3583094620844,677.3834163922584,,,,,,,,,,,,,,,,,,,,,,,,,,,,,,,,,,,,,,,577,2023-05-17_09h01.14.463,eb_02psyexp,2022.2.4,120.0247083432571,
88,0,88,0,,,,,,,,,,,,,,,,,,,,,,,,,,,,,,,,,,,,,,,,,,,,,,,,,,,,,,,,,,,677.3834163922584,677.3834163922584,677.3834163922584,677.3834163922584,677.3834163922584,677.3834163922584,l,1,0.6410809486405924,678.0334467281355,679.0585654303432,,,,,,,,,,,,,,,,,,,,,,,,,,,,,,,,,,,,,,,577,2023-05-17_09h01.14.463,eb_02psyexp,2022.2.4,120.0247083432571,
89,0,89,0,,,,,,,,,,,,,,,,,,,,,,,,,,,,,,,,,,,,,,,,,,,,,,,,,,,,,,,,,,,679.0585654303432,679.0585654303432,679.0585654303432,679.0585654303432,679.0585654303432,679.0585654303432,s,1,0.7339751112740487,679.808615386486,680.8420361555181,,,,,,,,,,,,,,,,,,,,,,,,,,,,,,,,,,,,,,,577,2023-05-17_09h01.14.463,eb_02psyexp,2022.2.4,120.0247083432571,
90,0,90,0,,,,,,,,,,,,,,,,,,,,,,,,,,,,,,,,,,,,,,,,,,,,,,,,,,,,,,,,,,,680.8420361555181,680.8420361555181,680.8420361555181,680.8420361555181,680.8420361555181,680.8420361555181,s,1,0.7175285429693758,681.5754182878882,682.5921923626447,,,,,,,,,,,,,,,,,,,,,,,,,,,,,,,,,,,,,,,577,2023-05-17_09h01.14.463,eb_02psyexp,2022.2.4,120.0247083432571,
91,0,91,0,,,,,,,,,,,,,,,,,,,,,,,,,,,,,,,,,,,,,,,,,,,,,,,,,,,,,,,,,,,682.5921923626447,682.5921923626447,682.5921923626447,682.5921923626447,682.5921923626447,682.5921923626447,l,1,0.7674384410493076,683.3755824939581,684.4006698038429,,,,,,,,,,,,,,,,,,,,,,,,,,,,,,,,,,,,,,,577,2023-05-17_09h01.14.463,eb_02psyexp,2022.2.4,120.0247083432571,
92,0,92,0,,,,,,,,,,,,,,,,,,,,,,,,,,,,,,,,,,,,,,,,,,,,,,,,,,,,,,,,,,,684.4006698038429,684.4006698038429,684.4006698038429,684.4006698038429,684.4006698038429,684.4006698038429,l,1,0.926987296785228,685.3424204098992,686.3591766754398,,,,,,,,,,,,,,,,,,,,,,,,,,,,,,,,,,,,,,,577,2023-05-17_09h01.14.463,eb_02psyexp,2022.2.4,120.0247083432571,
93,0,93,0,,,,,,,,,,,,,,,,,,,,,,,,,,,,,,,,,,,,,,,,,,,,,,,,,,,,,,,,,,,686.3591766754398,686.3591766754398,686.3591766754398,686.3591766754398,686.3591766754398,686.3591766754398,l,1,1.3525192310335115,687.7259484863607,688.7510403241031,,,,,,,,,,,,,,,,,,,,,,,,,,,,,,,,,,,,,,,577,2023-05-17_09h01.14.463,eb_02psyexp,2022.2.4,120.0247083432571,
94,0,94,0,,,,,,,,,,,,,,,,,,,,,,,,,,,,,,,,,,,,,,,,,,,,,,,,,,,,,,,,,,,688.7510403241031,688.7510403241031,688.7510403241031,688.7510403241031,688.7510403241031,688.7510403241031,l,1,1.096700630383566,689.8594661491225,690.8762317720102,,,,,,,,,,,,,,,,,,,,,,,,,,,,,,,,,,,,,,,577,2023-05-17_09h01.14.463,eb_02psyexp,2022.2.4,120.0247083432571,
95,0,95,0,,,,,,,,,,,,,,,,,,,,,,,,,,,,,,,,,,,,,,,,,,,,,,,,,,,,,,,,,,,690.8762317720102,690.8762317720102,690.8762317720102,690.8762317720102,690.8762317720102,690.8762317720102,l,1,0.5555398382712156,691.4429561925353,692.476371226483,,,,,,,,,,,,,,,,,,,,,,,,,,,,,,,,,,,,,,,577,2023-05-17_09h01.14.463,eb_02psyexp,2022.2.4,120.0247083432571,
96,0,96,0,,,,,,,,,,,,,,,,,,,,,,,,,,,,,,,,,,,,,,,,,,,,,,,,,,,,,,,,,,,692.476371226483,692.476371226483,692.476371226483,692.476371226483,692.476371226483,692.476371226483,s,1,0.4194326092256233,692.9097316256957,693.9348276891978,,,,,,,,,,,,,,,,,,,,,,,,,,,,,,,,,,,,,,,577,2023-05-17_09h01.14.463,eb_02psyexp,2022.2.4,120.0247083432571,
97,0,97,0,,,,,,,,,,,,,,,,,,,,,,,,,,,,,,,,,,,,,,,,,,,,,,,,,,,,,,,,,,,693.9348276891978,693.9348276891978,693.9348276891978,693.9348276891978,693.9348276891978,693.9348276891978,s,1,0.4649889328284189,694.4098843614338,695.4349426939152,,,,,,,,,,,,,,,,,,,,,,,,,,,,,,,,,,,,,,,577,2023-05-17_09h01.14.463,eb_02psyexp,2022.2.4,120.0247083432571,
98,0,98,0,,,,,,,,,,,,,,,,,,,,,,,,,,,,,,,,,,,,,,,,,,,,,,,,,,,,,,,,,,,695.4349426939152,695.4349426939152,695.4349426939152,695.4349426939152,695.4349426939152,695.4349426939152,l,1,0.4529659681720659,695.9016622848576,696.9183892710134,,,,,,,,,,,,,,,,,,,,,,,,,,,,,,,,,,,,,,,577,2023-05-17_09h01.14.463,eb_02psyexp,2022.2.4,120.0247083432571,
99,0,99,0,,,,,,,,,,,,,,,,,,,,,,,,,,,,,,,,,,,,,,,,,,,,,,,,,,,,,,,,,,,696.9183892710134,696.9183892710134,696.9183892710134,696.9183892710134,696.9183892710134,696.9183892710134,l,1,0.5605112983612344,697.493448961759,698.5185598159442,,,,,,,,,,,,,,,,,,,,,,,,,,,,,,,,,,,,,,,577,2023-05-17_09h01.14.463,eb_02psyexp,2022.2.4,120.0247083432571,
100,0,100,0,,,,,,,,,,,,,,,,,,,,,,,,,,,,,,,,,,,,,,,,,,,,,,,,,,,,,,,,,,,698.5185598159442,698.5185598159442,698.5185598159442,698.5185598159442,698.5185598159442,698.5185598159442,l,1,0.5363666642224416,699.0685964906588,700.0937013078947,,,,,,,,,,,,,,,,,,,,,,,,,,,,,,,,,,,,,,,577,2023-05-17_09h01.14.463,eb_02psyexp,2022.2.4,120.0247083432571,
101,0,101,0,,,,,,,,,,,,,,,,,,,,,,,,,,,,,,,,,,,,,,,,,,,,,,,,,,,,,,,,,,,700.0937013078947,700.0937013078947,700.0937013078947,700.0937013078947,700.0937013078947,700.0937013078947,l,1,0.4732448166469112,700.577052500681,701.6021579215303,,,,,,,,,,,,,,,,,,,,,,,,,,,,,,,,,,,,,,,577,2023-05-17_09h01.14.463,eb_02psyexp,2022.2.4,120.0247083432571,
102,0,102,0,,,,,,,,,,,,,,,,,,,,,,,,,,,,,,,,,,,,,,,,,,,,,,,,,,,,,,,,,,,701.6021579215303,701.6021579215303,701.6021579215303,701.6021579215303,701.6021579215303,701.6021579215303,l,1,0.40482309681829065,702.0188511007,703.0439522956731,,,,,,,,,,,,,,,,,,,,,,,,,,,,,,,,,,,,,,,577,2023-05-17_09h01.14.463,eb_02psyexp,2022.2.4,120.0247083432571,
103,0,103,0,,,,,,,,,,,,,,,,,,,,,,,,,,,,,,,,,,,,,,,,,,,,,,,,,,,,,,,,,,,703.0439522956731,703.0439522956731,703.0439522956731,703.0439522956731,703.0439522956731,703.0439522956731,s,1,0.4750797593733296,703.5273294475628,704.560747499927,,,,,,,,,,,,,,,,,,,,,,,,,,,,,,,,,,,,,,,577,2023-05-17_09h01.14.463,eb_02psyexp,2022.2.4,120.0247083432571,
104,0,104,0,,,,,,,,,,,,,,,,,,,,,,,,,,,,,,,,,,,,,,,,,,,,,,,,,,,,,,,,,,,704.560747499927,704.560747499927,704.560747499927,704.560747499927,704.560747499927,704.560747499927,s,1,0.6543049721512944,705.2274613557383,706.2442194324685,,,,,,,,,,,,,,,,,,,,,,,,,,,,,,,,,,,,,,,577,2023-05-17_09h01.14.463,eb_02psyexp,2022.2.4,120.0247083432571,
105,0,105,0,,,,,,,,,,,,,,,,,,,,,,,,,,,,,,,,,,,,,,,,,,,,,,,,,,,,,,,,,,,706.2442194324685,706.2442194324685,706.2442194324685,706.2442194324685,706.2442194324685,706.2442194324685,l,1,0.5788607252761722,706.835931854439,707.8693794881692,,,,,,,,,,,,,,,,,,,,,,,,,,,,,,,,,,,,,,,577,2023-05-17_09h01.14.463,eb_02psyexp,2022.2.4,120.0247083432571,
106,0,106,0,,,,,,,,,,,,,,,,,,,,,,,,,,,,,,,,,,,,,,,,,,,,,,,,,,,,,,,,,,,707.8693794881692,707.8693794881692,707.8693794881692,707.8693794881692,707.8693794881692,707.8693794881692,s,1,0.60174966591876,708.4860759875737,709.5111747677438,,,,,,,,,,,,,,,,,,,,,,,,,,,,,,,,,,,,,,,577,2023-05-17_09h01.14.463,eb_02psyexp,2022.2.4,120.0247083432571,
107,0,107,0,,,,,,,,,,,,,,,,,,,,,,,,,,,,,,,,,,,,,,,,,,,,,,,,,,,,,,,,,,,709.5111747677438,709.5111747677438,709.5111747677438,709.5111747677438,709.5111747677438,709.5111747677438,s,1,0.5599676675628871,710.0862217808608,711.1113066759426,,,,,,,,,,,,,,,,,,,,,,,,,,,,,,,,,,,,,,,577,2023-05-17_09h01.14.463,eb_02psyexp,2022.2.4,120.0247083432571,
108,0,108,0,,,,,,,,,,,,,,,,,,,,,,,,,,,,,,,,,,,,,,,,,,,,,,,,,,,,,,,,,,,711.1113066759426,711.1113066759426,711.1113066759426,711.1113066759426,711.1113066759426,711.1113066759426,l,1,0.710917436867021,711.8363734601298,712.861455940525,,,,,,,,,,,,,,,,,,,,,,,,,,,,,,,,,,,,,,,577,2023-05-17_09h01.14.463,eb_02psyexp,2022.2.4,120.0247083432571,
109,0,109,0,,,,,,,,,,,,,,,,,,,,,,,,,,,,,,,,,,,,,,,,,,,,,,,,,,,,,,,,,,,712.861455940525,712.861455940525,712.861455940525,712.861455940525,712.861455940525,712.861455940525,s,1,0.600768655189313,713.4781747768866,714.5032708403887,,,,,,,,,,,,,,,,,,,,,,,,,,,,,,,,,,,,,,,577,2023-05-17_09h01.14.463,eb_02psyexp,2022.2.4,120.0247083432571,
110,0,110,0,,,,,,,,,,,,,,,,,,,,,,,,,,,,,,,,,,,,,,,,,,,,,,,,,,,,,,,,,,,714.5032708403887,714.5032708403887,714.5032708403887,714.5032708403887,714.5032708403887,714.5032708403887,l,1,0.6869880212470889,715.2033360399073,716.2284151999047,,,,,,,,,,,,,,,,,,,,,,,,,,,,,,,,,,,,,,,577,2023-05-17_09h01.14.463,eb_02psyexp,2022.2.4,120.0247083432571,
111,0,111,0,,,,,,,,,,,,,,,,,,,,,,,,,,,,,,,,,,,,,,,,,,,,,,,,,,,,,,,,,,,716.2284151999047,716.2284151999047,716.2284151999047,716.2284151999047,716.2284151999047,716.2284151999047,s,1,0.6978826727718115,716.9368038974935,717.970235533081,,,,,,,,,,,,,,,,,,,,,,,,,,,,,,,,,,,,,,,577,2023-05-17_09h01.14.463,eb_02psyexp,2022.2.4,120.0247083432571,
112,0,112,0,,,,,,,,,,,,,,,,,,,,,,,,,,,,,,,,,,,,,,,,,,,,,,,,,,,,,,,,,,,717.970235533081,717.970235533081,717.970235533081,717.970235533081,717.970235533081,717.970235533081,s,1,0.79608666873537,718.7786302675959,719.7954227551818,,,,,,,,,,,,,,,,,,,,,,,,,,,,,,,,,,,,,,,577,2023-05-17_09h01.14.463,eb_02psyexp,2022.2.4,120.0247083432571,
113,0,113,0,,,,,,,,,,,,,,,,,,,,,,,,,,,,,,,,,,,,,,,,,,,,,,,,,,,,,,,,,,,719.7954227551818,719.7954227551818,719.7954227551818,719.7954227551818,719.7954227551818,719.7954227551818,l,1,0.8109367551514879,720.6204496952705,721.6538900845917,,,,,,,,,,,,,,,,,,,,,,,,,,,,,,,,,,,,,,,577,2023-05-17_09h01.14.463,eb_02psyexp,2022.2.4,120.0247083432571,
114,0,114,0,,,,,,,,,,,,,,,,,,,,,,,,,,,,,,,,,,,,,,,,,,,,,,,,,,,,,,,,,,,721.6538900845917,721.6538900845917,721.6538900845917,721.6538900845917,721.6538900845917,721.6538900845917,l,1,1.3765153551939875,723.0456722337985,724.0791011527181,,,,,,,,,,,,,,,,,,,,,,,,,,,,,,,,,,,,,,,577,2023-05-17_09h01.14.463,eb_02psyexp,2022.2.4,120.0247083432571,
115,0,115,0,,,,,,,,,,,,,,,,,,,,,,,,,,,,,,,,,,,,,,,,,,,,,,,,,,,,,,,,,,,724.0791011527181,724.0791011527181,724.0791011527181,724.0791011527181,724.0791011527181,724.0791011527181,s,1,0.6793424771167338,724.7708132729167,725.7875647089677,,,,,,,,,,,,,,,,,,,,,,,,,,,,,,,,,,,,,,,577,2023-05-17_09h01.14.463,eb_02psyexp,2022.2.4,120.0247083432571,
116,0,116,0,,,,,,,,,,,,,,,,,,,,,,,,,,,,,,,,,,,,,,,,,,,,,,,,,,,,,,,,,,,725.7875647089677,725.7875647089677,725.7875647089677,725.7875647089677,725.7875647089677,725.7875647089677,l,1,0.7069248743355274,726.5042989396024,727.537732688128,,,,,,,,,,,,,,,,,,,,,,,,,,,,,,,,,,,,,,,577,2023-05-17_09h01.14.463,eb_02psyexp,2022.2.4,120.0247083432571,
117,0,117,0,,,,,,,,,,,,,,,,,,,,,,,,,,,,,,,,,,,,,,,,,,,,,,,,,,,,,,,,,,,727.537732688128,727.537732688128,727.537732688128,727.537732688128,727.537732688128,727.537732688128,l,1,0.4277636535698548,727.9794196039438,728.9961888490943,,,,,,,,,,,,,,,,,,,,,,,,,,,,,,,,,,,,,,,577,2023-05-17_09h01.14.463,eb_02psyexp,2022.2.4,120.0247083432571,
118,0,118,0,,,,,,,,,,,,,,,,,,,,,,,,,,,,,,,,,,,,,,,,,,,,,,,,,,,,,,,,,,,728.9961888490943,728.9961888490943,728.9961888490943,728.9961888490943,728.9961888490943,728.9961888490943,l,1,0.6493661118438467,729.6545716605615,730.6880045036087,,,,,,,,,,,,,,,,,,,,,,,,,,,,,,,,,,,,,,,577,2023-05-17_09h01.14.463,eb_02psyexp,2022.2.4,120.0247083432571,
119,0,119,0,,,,,,,,,,,,,,,,,,,,,,,,,,,,,,,,,,,,,,,,,,,,,,,,,,,,,,,,,,,730.6880045036087,730.6880045036087,730.6880045036087,730.6880045036087,730.6880045036087,730.6880045036087,s,1,0.6375843248097226,731.3380583836697,732.3714833786944,,,,,,,,,,,,,,,,,,,,,,,,,,,,,,,,,,,,,,,577,2023-05-17_09h01.14.463,eb_02psyexp,2022.2.4,120.0247083432571,
120,0,120,0,,,,,,,,,,,,,,,,,,,,,,,,,,,,,,,,,,,,,,,,,,,,,,,,,,,,,,,,,,,732.3714833786944,732.3714833786944,732.3714833786944,732.3714833786944,732.3714833786944,732.3714833786944,l,1,0.5861268448643386,732.971524430206,733.9883036363171,,,,,,,,,,,,,,,,,,,,,,,,,,,,,,,,,,,,,,,577,2023-05-17_09h01.14.463,eb_02psyexp,2022.2.4,120.0247083432571,
121,0,121,0,,,,,,,,,,,,,,,,,,,,,,,,,,,,,,,,,,,,,,,,,,,,,,,,,,,,,,,,,,,733.9883036363171,733.9883036363171,733.9883036363171,733.9883036363171,733.9883036363171,733.9883036363171,s,1,0.8013285859487951,734.8050158319529,735.8301128011663,,,,,,,,,,,,,,,,,,,,,,,,,,,,,,,,,,,,,,,577,2023-05-17_09h01.14.463,eb_02psyexp,2022.2.4,120.0247083432571,
122,0,122,0,,,,,,,,,,,,,,,,,,,,,,,,,,,,,,,,,,,,,,,,,,,,,,,,,,,,,,,,,,,735.8301128011663,735.8301128011663,735.8301128011663,735.8301128011663,735.8301128011663,735.8301128011663,l,1,0.6715858521638438,736.5135053473059,737.5469230978051,,,,,,,,,,,,,,,,,,,,,,,,,,,,,,,,,,,,,,,577,2023-05-17_09h01.14.463,eb_02psyexp,2022.2.4,120.0247083432571,
123,0,123,0,,,,,,,,,,,,,,,,,,,,,,,,,,,,,,,,,,,,,,,,,,,,,,,,,,,,,,,,,,,737.5469230978051,737.5469230978051,737.5469230978051,737.5469230978051,737.5469230978051,737.5469230978051,s,1,0.6588055471656844,738.2219933532178,739.2470870020334,,,,,,,,,,,,,,,,,,,,,,,,,,,,,,,,,,,,,,,577,2023-05-17_09h01.14.463,eb_02psyexp,2022.2.4,120.0247083432571,
124,0,124,0,,,,,,,,,,,,,,,,,,,,,,,,,,,,,,,,,,,,,,,,,,,,,,,,,,,,,,,,,,,739.2470870020334,739.2470870020334,739.2470870020334,739.2470870020334,739.2470870020334,739.2470870020334,l,1,0.6466624464374036,739.9054574377369,740.9389177490957,,,,,,,,,,,,,,,,,,,,,,,,,,,,,,,,,,,,,,,577,2023-05-17_09h01.14.463,eb_02psyexp,2022.2.4,120.0247083432571,
125,0,125,0,,,,,,,,,,,,,,,,,,,,,,,,,,,,,,,,,,,,,,,,,,,,,,,,,,,,,,,,,,,740.9389177490957,740.9389177490957,740.9389177490957,740.9389177490957,740.9389177490957,740.9389177490957,s,1,0.7948868172243237,741.747292259708,742.7807097083423,,,,,,,,,,,,,,,,,,,,,,,,,,,,,,,,,,,,,,,577,2023-05-17_09h01.14.463,eb_02psyexp,2022.2.4,120.0247083432571,
126,0,126,0,,,,,,,,,,,,,,,,,,,,,,,,,,,,,,,,,,,,,,,,,,,,,,,,,,,,,,,,,,,742.7807097083423,742.7807097083423,742.7807097083423,742.7807097083423,742.7807097083423,742.7807097083423,l,1,0.6560994670726359,743.4474413732532,744.4725401535397,,,,,,,,,,,,,,,,,,,,,,,,,,,,,,,,,,,,,,,577,2023-05-17_09h01.14.463,eb_02psyexp,2022.2.4,120.0247083432571,
127,0,127,0,,,,,,,,,,,,,,,,,,,,,,,,,,,,,,,,,,,,,,,,,,,,,,,,,,,,,,,,,,,744.4725401535397,744.4725401535397,744.4725401535397,744.4725401535397,744.4725401535397,744.4725401535397,l,1,0.5643278826028109,745.0475892794784,746.0643337729853,,,,,,,,,,,,,,,,,,,,,,,,,,,,,,,,,,,,,,,577,2023-05-17_09h01.14.463,eb_02psyexp,2022.2.4,120.0247083432571,
128,0,128,0,,,,,,,,,,,,,,,,,,,,,,,,,,,,,,,,,,,,,,,,,,,,,,,,,,,,,,,,,,,746.0643337729853,746.0643337729853,746.0643337729853,746.0643337729853,746.0643337729853,746.0643337729853,s,1,0.6525617918232456,746.7310621176148,747.7644732274348,,,,,,,,,,,,,,,,,,,,,,,,,,,,,,,,,,,,,,,577,2023-05-17_09h01.14.463,eb_02psyexp,2022.2.4,120.0247083432571,
129,0,129,0,,,,,,,,,,,,,,,,,,,,,,,,,,,,,,,,,,,,,,,,,,,,,,,,,,,,,,,,,,,747.7644732274348,747.7644732274348,747.7644732274348,747.7644732274348,747.7644732274348,747.7644732274348,l,1,0.6164590904954821,748.3895234098891,749.4062881272985,,,,,,,,,,,,,,,,,,,,,,,,,,,,,,,,,,,,,,,577,2023-05-17_09h01.14.463,eb_02psyexp,2022.2.4,120.0247083432571,
130,0,130,0,,,,,,,,,,,,,,,,,,,,,,,,,,,,,,,,,,,,,,,,,,,,,,,,,,,,,,,,,,,749.4062881272985,749.4062881272985,749.4062881272985,749.4062881272985,749.4062881272985,749.4062881272985,s,1,0.9666632916778326,750.3813623068854,751.4064613889204,,,,,,,,,,,,,,,,,,,,,,,,,,,,,,,,,,,,,,,577,2023-05-17_09h01.14.463,eb_02psyexp,2022.2.4,120.0247083432571,
131,0,131,0,,,,,,,,,,,,,,,,,,,,,,,,,,,,,,,,,,,,,,,,,,,,,,,,,,,,,,,,,,,751.4064613889204,751.4064613889204,751.4064613889204,751.4064613889204,751.4064613889204,751.4064613889204,l,1,0.614542648429051,752.0315182120539,753.0482687426265,,,,,,,,,,,,,,,,,,,,,,,,,,,,,,,,,,,,,,,577,2023-05-17_09h01.14.463,eb_02psyexp,2022.2.4,120.0247083432571,
132,0,132,0,,,,,,,,,,,,,,,,,,,,,,,,,,,,,,,,,,,,,,,,,,,,,,,,,,,,,,,,,,,753.0482687426265,753.0482687426265,753.0482687426265,753.0482687426265,753.0482687426265,753.0482687426265,s,1,1.5487992386333644,754.606730638654,755.6318339465652,,,,,,,,,,,,,,,,,,,,,,,,,,,,,,,,,,,,,,,577,2023-05-17_09h01.14.463,eb_02psyexp,2022.2.4,120.0247083432571,
133,0,133,0,,,,,,,,,,,,,,,,,,,,,,,,,,,,,,,,,,,,,,,,,,,,,,,,,,,,,,,,,,,755.6318339465652,755.6318339465652,755.6318339465652,755.6318339465652,755.6318339465652,755.6318339465652,l,1,0.605247798957862,756.2485440293094,757.2736068894155,,,,,,,,,,,,,,,,,,,,,,,,,,,,,,,,,,,,,,,577,2023-05-17_09h01.14.463,eb_02psyexp,2022.2.4,120.0247083432571,
134,0,134,0,,,,,,,,,,,,,,,,,,,,,,,,,,,,,,,,,,,,,,,,,,,,,,,,,,,,,,,,,,,757.2736068894155,757.2736068894155,757.2736068894155,757.2736068894155,757.2736068894155,757.2736068894155,s,1,0.5635171149624512,757.8486816725926,758.8737650584662,,,,,,,,,,,,,,,,,,,,,,,,,,,,,,,,,,,,,,,577,2023-05-17_09h01.14.463,eb_02psyexp,2022.2.4,120.0247083432571,
135,0,135,0,,,,,,,,,,,,,,,,,,,,,,,,,,,,,,,,,,,,,,,,,,,,,,,,,,,,,,,,,,,758.8737650584662,758.8737650584662,758.8737650584662,758.8737650584662,758.8737650584662,758.8737650584662,l,1,0.5943812193581834,759.482145304326,760.5155814676546,,,,,,,,,,,,,,,,,,,,,,,,,,,,,,,,,,,,,,,577,2023-05-17_09h01.14.463,eb_02psyexp,2022.2.4,120.0247083432571,
136,0,136,0,,,,,,,,,,,,,,,,,,,,,,,,,,,,,,,,,,,,,,,,,,,,,,,,,,,,,,,,,,,760.5155814676546,760.5155814676546,760.5155814676546,760.5155814676546,760.5155814676546,760.5155814676546,s,1,0.6566086871316656,761.1822784198448,762.199074831442,,,,,,,,,,,,,,,,,,,,,,,,,,,,,,,,,,,,,,,577,2023-05-17_09h01.14.463,eb_02psyexp,2022.2.4,120.0247083432571,
137,0,137,0,,,,,,,,,,,,,,,,,,,,,,,,,,,,,,,,,,,,,,,,,,,,,,,,,,,,,,,,,,,762.199074831442,762.199074831442,762.199074831442,762.199074831442,762.199074831442,762.199074831442,l,1,0.5571317921858281,762.765766350436,763.799218511791,,,,,,,,,,,,,,,,,,,,,,,,,,,,,,,,,,,,,,,577,2023-05-17_09h01.14.463,eb_02psyexp,2022.2.4,120.0247083432571,
138,0,138,0,,,,,,,,,,,,,,,,,,,,,,,,,,,,,,,,,,,,,,,,,,,,,,,,,,,,,,,,,,,763.799218511791,763.799218511791,763.799218511791,763.799218511791,763.799218511791,763.799218511791,s,1,0.605022920994088,764.4159225574695,765.4410089618759,,,,,,,,,,,,,,,,,,,,,,,,,,,,,,,,,,,,,,,577,2023-05-17_09h01.14.463,eb_02psyexp,2022.2.4,120.0247083432571,
139,0,139,0,,,,,,,,,,,,,,,,,,,,,,,,,,,,,,,,,,,,,,,,,,,,,,,,,,,,,,,,,,,765.4410089618759,765.4410089618759,765.4410089618759,765.4410089618759,765.4410089618759,765.4410089618759,l,1,0.45927975268568844,765.9160375621868,766.9494737255154,,,,,,,,,,,,,,,,,,,,,,,,,,,,,,,,,,,,,,,577,2023-05-17_09h01.14.463,eb_02psyexp,2022.2.4,120.0247083432571,
140,0,140,0,,,,,,,,,,,,,,,,,,,,,,,,,,,,,,,,,,,,,,,,,,,,,,,,,,,,,,,,,,,766.9494737255154,766.9494737255154,766.9494737255154,766.9494737255154,766.9494737255154,766.9494737255154,l,1,0.5348356838803738,767.4995100983651,768.5162965490017,,,,,,,,,,,,,,,,,,,,,,,,,,,,,,,,,,,,,,,577,2023-05-17_09h01.14.463,eb_02psyexp,2022.2.4,120.0247083432571,
141,0,141,0,,,,,,,,,,,,,,,,,,,,,,,,,,,,,,,,,,,,,,,,,,,,,,,,,,,,,,,,,,,768.5162965490017,768.5162965490017,768.5162965490017,768.5162965490017,768.5162965490017,768.5162965490017,l,1,0.640032927505672,769.1663326199632,770.1830855652224,,,,,,,,,,,,,,,,,,,,,,,,,,,,,,,,,,,,,,,577,2023-05-17_09h01.14.463,eb_02psyexp,2022.2.4,120.0247083432571,
142,0,142,0,,,,,,,,,,,,,,,,,,,,,,,,,,,,,,,,,,,,,,,,,,,,,,,,,,,,,,,,,,,770.1830855652224,770.1830855652224,770.1830855652224,770.1830855652224,770.1830855652224,770.1830855652224,s,1,0.5652910841163248,770.7581328802044,771.7748906550696,,,,,,,,,,,,,,,,,,,,,,,,,,,,,,,,,,,,,,,577,2023-05-17_09h01.14.463,eb_02psyexp,2022.2.4,120.0247083432571,
143,0,143,0,,,,,,,,,,,,,,,,,,,,,,,,,,,,,,,,,,,,,,,,,,,,,,,,,,,,,,,,,,,771.7748906550696,771.7748906550696,771.7748906550696,771.7748906550696,771.7748906550696,771.7748906550696,l,1,0.5495454103220254,772.3332671276294,773.366694839322,,,,,,,,,,,,,,,,,,,,,,,,,,,,,,,,,,,,,,,577,2023-05-17_09h01.14.463,eb_02psyexp,2022.2.4,120.0247083432571,
144,0,144,0,,,,,,,,,,,,,,,,,,,,,,,,,,,,,,,,,,,,,,,,,,,,,,,,,,,,,,,,,,,773.366694839322,773.366694839322,773.366694839322,773.366694839322,773.366694839322,773.366694839322,s,1,0.5807826006785035,773.9584102798253,774.9835015137214,,,,,,,,,,,,,,,,,,,,,,,,,,,,,,,,,,,,,,,577,2023-05-17_09h01.14.463,eb_02psyexp,2022.2.4,120.0247083432571,
145,0,145,0,,,,,,,,,,,,,,,,,,,,,,,,,,,,,,,,,,,,,,,,,,,,,,,,,,,,,,,,,,,774.9835015137214,774.9835015137214,774.9835015137214,774.9835015137214,774.9835015137214,774.9835015137214,s,1,0.7559509571874514,775.7502259343164,776.7836554569658,,,,,,,,,,,,,,,,,,,,,,,,,,,,,,,,,,,,,,,577,2023-05-17_09h01.14.463,eb_02psyexp,2022.2.4,120.0247083432571,
146,0,146,0,,,,,,,,,,,,,,,,,,,,,,,,,,,,,,,,,,,,,,,,,,,,,,,,,,,,,,,,,,,776.7836554569658,776.7836554569658,776.7836554569658,776.7836554569658,776.7836554569658,776.7836554569658,s,1,0.5878196164267138,777.3836717568338,778.4171308607329,,,,,,,,,,,,,,,,,,,,,,,,,,,,,,,,,,,,,,,577,2023-05-17_09h01.14.463,eb_02psyexp,2022.2.4,120.0247083432571,
147,0,147,0,,,,,,,,,,,,,,,,,,,,,,,,,,,,,,,,,,,,,,,,,,,,,,,,,,,,,,,,,,,778.4171308607329,778.4171308607329,778.4171308607329,778.4171308607329,778.4171308607329,778.4171308607329,l,1,0.5703712101094425,779.0005200866144,780.0172706170706,,,,,,,,,,,,,,,,,,,,,,,,,,,,,,,,,,,,,,,577,2023-05-17_09h01.14.463,eb_02psyexp,2022.2.4,120.0247083432571,
148,0,148,0,,,,,,,,,,,,,,,,,,,,,,,,,,,,,,,,,,,,,,,,,,,,,,,,,,,,,,,,,,,780.0172706170706,780.0172706170706,780.0172706170706,780.0172706170706,780.0172706170706,780.0172706170706,s,1,0.6903005169006065,780.7173183092382,781.7507586985594,,,,,,,,,,,,,,,,,,,,,,,,,,,,,,,,,,,,,,,577,2023-05-17_09h01.14.463,eb_02psyexp,2022.2.4,120.0247083432571,
149,0,149,0,,,,,,,,,,,,,,,,,,,,,,,,,,,,,,,,,,,,,,,,,,,,,,,,,,,,,,,,,,,781.7507586985594,781.7507586985594,781.7507586985594,781.7507586985594,781.7507586985594,781.7507586985594,l,1,0.5728747493121773,782.334127398557,783.3592249713838,,,,,,,,,,,,,,,,,,,,,,,,,,,,,,,,,,,,,,,577,2023-05-17_09h01.14.463,eb_02psyexp,2022.2.4,120.0247083432571,
150,0,150,0,,,,,,,,,,,,,,,,,,,,,,,,,,,,,,,,,,,,,,,,,,,,,,,,,,,,,,,,,,,783.3592249713838,783.3592249713838,783.3592249713838,783.3592249713838,783.3592249713838,783.3592249713838,s,1,0.6284141390351579,784.0009360350668,785.0260348153533,,,,,,,,,,,,,,,,,,,,,,,,,,,,,,,,,,,,,,,577,2023-05-17_09h01.14.463,eb_02psyexp,2022.2.4,120.0247083432571,
151,0,151,0,,,,,,,,,,,,,,,,,,,,,,,,,,,,,,,,,,,,,,,,,,,,,,,,,,,,,,,,,,,785.0260348153533,785.0260348153533,785.0260348153533,785.0260348153533,785.0260348153533,785.0260348153533,l,1,0.5216376193566248,785.5594145328505,786.5845015409868,,,,,,,,,,,,,,,,,,,,,,,,,,,,,,,,,,,,,,,577,2023-05-17_09h01.14.463,eb_02psyexp,2022.2.4,120.0247083432571,
152,0,152,0,,,,,,,,,,,,,,,,,,,,,,,,,,,,,,,,,,,,,,,,,,,,,,,,,,,,,,,,,,,786.5845015409868,786.5845015409868,786.5845015409868,786.5845015409868,786.5845015409868,786.5845015409868,s,1,0.6032121264142916,787.201214943896,788.2346480888082,,,,,,,,,,,,,,,,,,,,,,,,,,,,,,,,,,,,,,,577,2023-05-17_09h01.14.463,eb_02psyexp,2022.2.4,120.0247083432571,
153,0,153,0,,,,,,,,,,,,,,,,,,,,,,,,,,,,,,,,,,,,,,,,,,,,,,,,,,,,,,,,,,,788.2346480888082,788.2346480888082,788.2346480888082,788.2346480888082,788.2346480888082,788.2346480888082,l,1,0.6490992768667638,788.893032107735,789.9097929011332,,,,,,,,,,,,,,,,,,,,,,,,,,,,,,,,,,,,,,,577,2023-05-17_09h01.14.463,eb_02psyexp,2022.2.4,120.0247083432571,
154,0,154,0,,,,,,,,,,,,,,,,,,,,,,,,,,,,,,,,,,,,,,,,,,,,,,,,,,,,,,,,,,,789.9097929011332,789.9097929011332,789.9097929011332,789.9097929011332,789.9097929011332,789.9097929011332,l,1,0.628956260625273,790.5515024554916,791.5682689840905,,,,,,,,,,,,,,,,,,,,,,,,,,,,,,,,,,,,,,,577,2023-05-17_09h01.14.463,eb_02psyexp,2022.2.4,120.0247083432571,
155,0,155,0,,,,,,,,,,,,,,,,,,,,,,,,,,,,,,,,,,,,,,,,,,,,,,,,,,,,,,,,,,,791.5682689840905,791.5682689840905,791.5682689840905,791.5682689840905,791.5682689840905,791.5682689840905,s,1,0.5545334721682593,792.1349716713885,793.1684063255088,,,,,,,,,,,,,,,,,,,,,,,,,,,,,,,,,,,,,,,577,2023-05-17_09h01.14.463,eb_02psyexp,2022.2.4,120.0247083432571,
156,0,156,0,,,,,,,,,,,,,,,,,,,,,,,,,,,,,,,,,,,,,,,,,,,,,,,,,,,,,,,,,,,793.1684063255088,793.1684063255088,793.1684063255088,793.1684063255088,793.1684063255088,793.1684063255088,l,1,0.538438860559836,793.7184596019797,794.735209830571,,,,,,,,,,,,,,,,,,,,,,,,,,,,,,,,,,,,,,,577,2023-05-17_09h01.14.463,eb_02psyexp,2022.2.4,120.0247083432571,
157,0,157,0,,,,,,,,,,,,,,,,,,,,,,,,,,,,,,,,,,,,,,,,,,,,,,,,,,,,,,,,,,,794.735209830571,794.735209830571,794.735209830571,794.735209830571,794.735209830571,794.735209830571,l,1,0.5476670013740659,795.2935811717762,796.3186808576575,,,,,,,,,,,,,,,,,,,,,,,,,,,,,,,,,,,,,,,577,2023-05-17_09h01.14.463,eb_02psyexp,2022.2.4,120.0247083432571,
158,0,158,0,,,,,,,,,,,,,,,,,,,,,,,,,,,,,,,,,,,,,,,,,,,,,,,,,,,,,,,,,,,796.3186808576575,796.3186808576575,796.3186808576575,796.3186808576575,796.3186808576575,796.3186808576575,s,1,0.6042227182770148,796.9353879217524,797.9604885131121,,,,,,,,,,,,,,,,,,,,,,,,,,,,,,,,,,,,,,,577,2023-05-17_09h01.14.463,eb_02psyexp,2022.2.4,120.0247083432571,
159,0,159,0,,,,,,,,,,,,,,,,,,,,,,,,,,,,,,,,,,,,,,,,,,,,,,,,,,,,,,,,,,,797.9604885131121,797.9604885131121,797.9604885131121,797.9604885131121,797.9604885131121,797.9604885131121,l,1,0.5464393796864897,798.518858646974,799.5356230625184,,,,,,,,,,,,,,,,,,,,,,,,,,,,,,,,,,,,,,,577,2023-05-17_09h01.14.463,eb_02psyexp,2022.2.4,120.0247083432571,
160,0,160,0,,,,,,,,,,,,,,,,,,,,,,,,,,,,,,,,,,,,,,,,,,,,,,,,,,,,,,,,,,,799.5356230625184,799.5356230625184,799.5356230625184,799.5356230625184,799.5356230625184,799.5356230625184,s,1,0.5793623990612105,800.1273333715508,801.1607650071383,,,,,,,,,,,,,,,,,,,,,,,,,,,,,,,,,,,,,,,577,2023-05-17_09h01.14.463,eb_02psyexp,2022.2.4,120.0247083432571,
161,0,161,0,,,,,,,,,,,,,,,,,,,,,,,,,,,,,,,,,,,,,,,,,,,,,,,,,,,,,,,,,,,801.1607650071383,801.1607650071383,801.1607650071383,801.1607650071383,801.1607650071383,801.1607650071383,l,1,0.5702450369717553,801.7441337072523,802.7692367132986,,,,,,,,,,,,,,,,,,,,,,,,,,,,,,,,,,,,,,,577,2023-05-17_09h01.14.463,eb_02psyexp,2022.2.4,120.0247083432571,
162,0,162,0,,,,,,,,,,,,,,,,,,,,,,,,,,,,,,,,,,,,,,,,,,,,,,,,,,,,,,,,,,,802.7692367132986,802.7692367132986,802.7692367132986,802.7692367132986,802.7692367132986,802.7692367132986,s,1,0.5617923474637792,803.3442930837628,804.3693758659065,,,,,,,,,,,,,,,,,,,,,,,,,,,,,,,,,,,,,,,577,2023-05-17_09h01.14.463,eb_02psyexp,2022.2.4,120.0247083432571,
163,0,163,0,,,,,,,,,,,,,,,,,,,,,,,,,,,,,,,,,,,,,,,,,,,,,,,,,,,,,,,,,,,804.3693758659065,804.3693758659065,804.3693758659065,804.3693758659065,804.3693758659065,804.3693758659065,l,1,0.5776823051273823,804.9610822509276,805.9861771070864,,,,,,,,,,,,,,,,,,,,,,,,,,,,,,,,,,,,,,,577,2023-05-17_09h01.14.463,eb_02psyexp,2022.2.4,120.0247083432571,
164,0,164,0,,,,,,,,,,,,,,,,,,,,,,,,,,,,,,,,,,,,,,,,,,,,,,,,,,,,,,,,,,,805.9861771070864,805.9861771070864,805.9861771070864,805.9861771070864,805.9861771070864,805.9861771070864,s,1,0.6079445218201727,806.6029013767838,807.6279926106799,,,,,,,,,,,,,,,,,,,,,,,,,,,,,,,,,,,,,,,577,2023-05-17_09h01.14.463,eb_02psyexp,2022.2.4,120.0247083432571,
165,0,165,0,,,,,,,,,,,,,,,,,,,,,,,,,,,,,,,,,,,,,,,,,,,,,,,,,,,,,,,,,,,807.6279926106799,807.6279926106799,807.6279926106799,807.6279926106799,807.6279926106799,807.6279926106799,l,1,0.8061497251037508,808.4447174840607,809.4698171698255,,,,,,,,,,,,,,,,,,,,,,,,,,,,,,,,,,,,,,,577,2023-05-17_09h01.14.463,eb_02psyexp,2022.2.4,120.0247083432571,
166,0,166,0,,,,,,,,,,,,,,,,,,,,,,,,,,,,,,,,,,,,,,,,,,,,,,,,,,,,,,,,,,,809.4698171698255,809.4698171698255,809.4698171698255,809.4698171698255,809.4698171698255,809.4698171698255,s,1,0.7723610014654696,810.253219375154,811.2866410496645,,,,,,,,,,,,,,,,,,,,,,,,,,,,,,,,,,,,,,,577,2023-05-17_09h01.14.463,eb_02psyexp,2022.2.4,120.0247083432571,
167,0,167,0,,,,,,,,,,,,,,,,,,,,,,,,,,,,,,,,,,,,,,,,,,,,,,,,,,,,,,,,,,,811.2866410496645,811.2866410496645,811.2866410496645,811.2866410496645,811.2866410496645,811.2866410496645,l,1,0.6915103293722495,811.9867023251718,813.003460100037,,,,,,,,,,,,,,,,,,,,,,,,,,,,,,,,,,,,,,,577,2023-05-17_09h01.14.463,eb_02psyexp,2022.2.4,120.0247083432571,
168,0,168,0,,,,,,,,,,,,,,,,,,,,,,,,,,,,,,,,,,,,,,,,,,,,,,,,,,,,,,,,,,,813.003460100037,813.003460100037,813.003460100037,813.003460100037,813.003460100037,813.003460100037,s,1,0.6707928937394172,813.6868378554936,814.7119375412585,,,,,,,,,,,,,,,,,,,,,,,,,,,,,,,,,,,,,,,577,2023-05-17_09h01.14.463,eb_02psyexp,2022.2.4,120.0247083432571,
169,0,169,0,,,,,,,,,,,,,,,,,,,,,,,,,,,,,,,,,,,,,,,,,,,,,,,,,,,,,,,,,,,814.7119375412585,814.7119375412585,814.7119375412585,814.7119375412585,814.7119375412585,814.7119375412585,l,1,0.5383301947731525,815.2619769326411,816.2787395371124,,,,,,,,,,,,,,,,,,,,,,,,,,,,,,,,,,,,,,,577,2023-05-17_09h01.14.463,eb_02psyexp,2022.2.4,120.0247083432571,
170,0,170,0,,,,,,,,,,,,,,,,,,,,,,,,,,,,,,,,,,,,,,,,,,,,,,,,,,,,,,,,,,,816.2787395371124,816.2787395371124,816.2787395371124,816.2787395371124,816.2787395371124,816.2787395371124,s,1,0.49957031290978193,816.7871077089803,817.8205432685791,,,,,,,,,,,,,,,,,,,,,,,,,,,,,,,,,,,,,,,577,2023-05-17_09h01.14.463,eb_02psyexp,2022.2.4,120.0247083432571,
171,0,171,0,,,,,,,,,,,,,,,,,,,,,,,,,,,,,,,,,,,,,,,,,,,,,,,,,,,,,,,,,,,817.8205432685791,817.8205432685791,817.8205432685791,817.8205432685791,817.8205432685791,817.8205432685791,l,1,0.509780369931832,818.3455910362536,819.3706768369302,,,,,,,,,,,,,,,,,,,,,,,,,,,,,,,,,,,,,,,577,2023-05-17_09h01.14.463,eb_02psyexp,2022.2.4,120.0247083432571,
172,0,172,0,,,,,,,,,,,,,,,,,,,,,,,,,,,,,,,,,,,,,,,,,,,,,,,,,,,,,,,,,,,819.3706768369302,819.3706768369302,819.3706768369302,819.3706768369302,819.3706768369302,819.3706768369302,s,1,0.5356865974608809,819.9207132097799,820.937479436514,,,,,,,,,,,,,,,,,,,,,,,,,,,,,,,,,,,,,,,577,2023-05-17_09h01.14.463,eb_02psyexp,2022.2.4,120.0247083432571,
173,0,173,0,,,,,,,,,,,,,,,,,,,,,,,,,,,,,,,,,,,,,,,,,,,,,,,,,,,,,,,,,,,820.937479436514,820.937479436514,820.937479436514,820.937479436514,820.937479436514,820.937479436514,l,1,0.575892639812082,821.5291873307433,822.545927598374,,,,,,,,,,,,,,,,,,,,,,,,,,,,,,,,,,,,,,,577,2023-05-17_09h01.14.463,eb_02psyexp,2022.2.4,120.0247083432571,
174,0,174,0,,,,,,,,,,,,,,,,,,,,,,,,,,,,,,,,,,,,,,,,,,,,,,,,,,,,,,,,,,,822.545927598374,822.545927598374,822.545927598374,822.545927598374,822.545927598374,822.545927598374,s,1,0.6075101604219526,823.1626579050208,824.1960943702143,,,,,,,,,,,,,,,,,,,,,,,,,,,,,,,,,,,,,,,577,2023-05-17_09h01.14.463,eb_02psyexp,2022.2.4,120.0247083432571,
175,0,175,0,,,,,,,,,,,,,,,,,,,,,,,,,,,,,,,,,,,,,,,,,,,,,,,,,,,,,,,,,,,824.1960943702143,824.1960943702143,824.1960943702143,824.1960943702143,824.1960943702143,824.1960943702143,l,1,0.5413704222301021,824.7461286301259,825.7628960642032,,,,,,,,,,,,,,,,,,,,,,,,,,,,,,,,,,,,,,,577,2023-05-17_09h01.14.463,eb_02psyexp,2022.2.4,120.0247083432571,
176,0,176,0,,,,,,,,,,,,,,,,,,,,,,,,,,,,,,,,,,,,,,,,,,,,,,,,,,,,,,,,,,,825.7628960642032,825.7628960642032,825.7628960642032,825.7628960642032,825.7628960642032,825.7628960642032,l,1,0.5746194389648736,826.3462780455593,827.3797126996797,,,,,,,,,,,,,,,,,,,,,,,,,,,,,,,,,,,,,,,577,2023-05-17_09h01.14.463,eb_02psyexp,2022.2.4,120.0247083432571,
177,0,177,0,,,,,,,,,,,,,,,,,,,,,,,,,,,,,,,,,,,,,,,,,,,,,,,,,,,,,,,,,,,827.3797126996797,827.3797126996797,827.3797126996797,827.3797126996797,827.3797126996797,827.3797126996797,l,1,0.5177950761280954,827.9130580064375,828.9381691624876,,,,,,,,,,,,,,,,,,,,,,,,,,,,,,,,,,,,,,,577,2023-05-17_09h01.14.463,eb_02psyexp,2022.2.4,120.0247083432571,
178,0,178,0,,,,,,,,,,,,,,,,,,,,,,,,,,,,,,,,,,,,,,,,,,,,,,,,,,,,,,,,,,,828.9381691624876,828.9381691624876,828.9381691624876,828.9381691624876,828.9381691624876,828.9381691624876,s,1,0.49538275587838143,829.4465545396088,830.4799719883595,,,,,,,,,,,,,,,,,,,,,,,,,,,,,,,,,,,,,,,577,2023-05-17_09h01.14.463,eb_02psyexp,2022.2.4,120.0247083432571,
179,0,179,0,,,,,,,,,,,,,,,,,,,,,,,,,,,,,,,,,,,,,,,,,,,,,,,,,,,,,,,,,,,830.4799719883595,830.4799719883595,830.4799719883595,830.4799719883595,830.4799719883595,830.4799719883595,l,1,0.4896388628985733,830.9800051917555,831.996750892722,,,,,,,,,,,,,,,,,,,,,,,,,,,,,,,,,,,,,,,577,2023-05-17_09h01.14.463,eb_02psyexp,2022.2.4,120.0247083432571,
180,0,180,0,,,,,,,,,,,,,,,,,,,,,,,,,,,,,,,,,,,,,,,,,,,,,,,,,,,,,,,,,,,831.996750892722,831.996750892722,831.996750892722,831.996750892722,831.996750892722,831.996750892722,l,1,0.7648754374822602,832.7718365425244,833.796927474672,,,,,,,,,,,,,,,,,,,,,,,,,,,,,,,,,,,,,,,577,2023-05-17_09h01.14.463,eb_02psyexp,2022.2.4,120.0247083432571,
181,0,181,0,,,,,,,,,,,,,,,,,,,,,,,,,,,,,,,,,,,,,,,,,,,,,,,,,,,,,,,,,,,833.796927474672,833.796927474672,833.796927474672,833.796927474672,833.796927474672,833.796927474672,s,1,0.6127255149185658,834.4219698089873,835.4554098964436,,,,,,,,,,,,,,,,,,,,,,,,,,,,,,,,,,,,,,,577,2023-05-17_09h01.14.463,eb_02psyexp,2022.2.4,120.0247083432571,
182,0,182,0,,,,,,,,,,,,,,,,,,,,,,,,,,,,,,,,,,,,,,,,,,,,,,,,,,,,,,,,,,,835.4554098964436,835.4554098964436,835.4554098964436,835.4554098964436,835.4554098964436,835.4554098964436,l,1,0.6022736764280125,836.072114545852,837.0888750373852,,,,,,,,,,,,,,,,,,,,,,,,,,,,,,,,,,,,,,,577,2023-05-17_09h01.14.463,eb_02psyexp,2022.2.4,120.0247083432571,
183,0,183,0,,,,,,,,,,,,,,,,,,,,,,,,,,,,,,,,,,,,,,,,,,,,,,,,,,,,,,,,,,,837.0888750373852,837.0888750373852,837.0888750373852,837.0888750373852,837.0888750373852,837.0888750373852,s,1,0.5598424000199884,837.6639157115715,838.6973485546187,,,,,,,,,,,,,,,,,,,,,,,,,,,,,,,,,,,,,,,577,2023-05-17_09h01.14.463,eb_02psyexp,2022.2.4,120.0247083432571,
184,0,184,0,,,,,,,,,,,,,,,,,,,,,,,,,,,,,,,,,,,,,,,,,,,,,,,,,,,,,,,,,,,838.6973485546187,838.6973485546187,838.6973485546187,838.6973485546187,838.6973485546187,838.6973485546187,l,1,0.5194205353036523,839.2307267629076,840.2474845377728,,,,,,,,,,,,,,,,,,,,,,,,,,,,,,,,,,,,,,,577,2023-05-17_09h01.14.463,eb_02psyexp,2022.2.4,120.0247083432571,
185,0,185,0,,,,,,,,,,,,,,,,,,,,,,,,,,,,,,,,,,,,,,,,,,,,,,,,,,,,,,,,,,,840.2474845377728,840.2474845377728,840.2474845377728,840.2474845377728,840.2474845377728,840.2474845377728,l,1,0.5133074806071818,840.7725271739764,841.7892852507066,,,,,,,,,,,,,,,,,,,,,,,,,,,,,,,,,,,,,,,577,2023-05-17_09h01.14.463,eb_02psyexp,2022.2.4,120.0247083432571,
186,0,186,0,,,,,,,,,,,,,,,,,,,,,,,,,,,,,,,,,,,,,,,,,,,,,,,,,,,,,,,,,,,841.7892852507066,841.7892852507066,841.7892852507066,841.7892852507066,841.7892852507066,841.7892852507066,s,1,0.5395297444192693,842.3393225291511,843.3560845298925,,,,,,,,,,,,,,,,,,,,,,,,,,,,,,,,,,,,,,,577,2023-05-17_09h01.14.463,eb_02psyexp,2022.2.4,120.0247083432571,
187,0,187,0,,,,,,,,,,,,,,,,,,,,,,,,,,,,,,,,,,,,,,,,,,,,,,,,,,,,,,,,,,,843.3560845298925,843.3560845298925,843.3560845298925,843.3560845298925,843.3560845298925,843.3560845298925,l,1,0.4287585492711514,843.7977789918659,844.831212136778,,,,,,,,,,,,,,,,,,,,,,,,,,,,,,,,,,,,,,,577,2023-05-17_09h01.14.463,eb_02psyexp,2022.2.4,120.0247083432571,
188,0,188,0,,,,,,,,,,,,,,,,,,,,,,,,,,,,,,,,,,,,,,,,,,,,,,,,,,,,,,,,,,,844.831212136778,844.831212136778,844.831212136778,844.831212136778,844.831212136778,844.831212136778,l,1,0.6096834762720391,845.4562743932474,846.4813565716613,,,,,,,,,,,,,,,,,,,,,,,,,,,,,,,,,,,,,,,577,2023-05-17_09h01.14.463,eb_02psyexp,2022.2.4,120.0247083432571,
189,0,189,0,,,,,,,,,,,,,,,,,,,,,,,,,,,,,,,,,,,,,,,,,,,,,,,,,,,,,,,,,,,846.4813565716613,846.4813565716613,846.4813565716613,846.4813565716613,846.4813565716613,846.4813565716613,s,1,0.5995760480873287,847.0897425526055,848.1064985163976,,,,,,,,,,,,,,,,,,,,,,,,,,,,,,,,,,,,,,,577,2023-05-17_09h01.14.463,eb_02psyexp,2022.2.4,120.0247083432571,
190,0,190,0,,,,,,,,,,,,,,,,,,,,,,,,,,,,,,,,,,,,,,,,,,,,,,,,,,,,,,,,,,,848.1064985163976,848.1064985163976,848.1064985163976,848.1064985163976,848.1064985163976,848.1064985163976,l,1,0.49444309854879975,848.6148657826707,849.6399868996814,,,,,,,,,,,,,,,,,,,,,,,,,,,,,,,,,,,,,,,577,2023-05-17_09h01.14.463,eb_02psyexp,2022.2.4,120.0247083432571,
191,0,191,0,,,,,,,,,,,,,,,,,,,,,,,,,,,,,,,,,,,,,,,,,,,,,,,,,,,,,,,,,,,849.6399868996814,849.6399868996814,849.6399868996814,849.6399868996814,849.6399868996814,849.6399868996814,s,1,0.6249781870283186,850.2733409600332,851.3067762178835,,,,,,,,,,,,,,,,,,,,,,,,,,,,,,,,,,,,,,,577,2023-05-17_09h01.14.463,eb_02psyexp,2022.2.4,120.0247083432571,
192,0,192,0,,,,,,,,,,,,,,,,,,,,,,,,,,,,,,,,,,,,,,,,,,,,,,,,,,,,,,,,,,,851.3067762178835,851.3067762178835,851.3067762178835,851.3067762178835,851.3067762178835,851.3067762178835,l,1,0.49324837839230895,851.8151531432522,852.8485748178791,,,,,,,,,,,,,,,,,,,,,,,,,,,,,,,,,,,,,,,577,2023-05-17_09h01.14.463,eb_02psyexp,2022.2.4,120.0247083432571,
193,0,193,0,,,,,,,,,,,,,,,,,,,,,,,,,,,,,,,,,,,,,,,,,,,,,,,,,,,,,,,,,,,852.8485748178791,852.8485748178791,852.8485748178791,852.8485748178791,852.8485748178791,852.8485748178791,s,1,0.47145575506146997,853.3319552900502,854.3653721350711,,,,,,,,,,,,,,,,,,,,,,,,,,,,,,,,,,,,,,,577,2023-05-17_09h01.14.463,eb_02psyexp,2022.2.4,120.0247083432571,
194,0,194,0,,,,,,,,,,,,,,,,,,,,,,,,,,,,,,,,,,,,,,,,,,,,,,,,,,,,,,,,,,,854.3653721350711,854.3653721350711,854.3653721350711,854.3653721350711,854.3653721350711,854.3653721350711,l,1,0.5146839139051735,854.8904093380552,855.9071592647815,,,,,,,,,,,,,,,,,,,,,,,,,,,,,,,,,,,,,,,577,2023-05-17_09h01.14.463,eb_02psyexp,2022.2.4,120.0247083432571,
195,0,195,0,,,,,,,,,,,,,,,,,,,,,,,,,,,,,,,,,,,,,,,,,,,,,,,,,,,,,,,,,,,855.9071592647815,855.9071592647815,855.9071592647815,855.9071592647815,855.9071592647815,855.9071592647815,s,1,0.6529397072736174,856.573887609411,857.5906526286853,,,,,,,,,,,,,,,,,,,,,,,,,,,,,,,,,,,,,,,577,2023-05-17_09h01.14.463,eb_02psyexp,2022.2.4,120.0247083432571,
196,0,196,0,,,,,,,,,,,,,,,,,,,,,,,,,,,,,,,,,,,,,,,,,,,,,,,,,,,,,,,,,,,857.5906526286853,857.5906526286853,857.5906526286853,857.5906526286853,857.5906526286853,857.5906526286853,l,1,0.44946783501654863,858.0490179328481,859.0824504740303,,,,,,,,,,,,,,,,,,,,,,,,,,,,,,,,,,,,,,,577,2023-05-17_09h01.14.463,eb_02psyexp,2022.2.4,120.0247083432571,
197,0,197,0,,,,,,,,,,,,,,,,,,,,,,,,,,,,,,,,,,,,,,,,,,,,,,,,,,,,,,,,,,,859.0824504740303,859.0824504740303,859.0824504740303,859.0824504740303,859.0824504740303,859.0824504740303,l,1,0.6377132144989446,859.732510693022,860.7575913622277,,,,,,,,,,,,,,,,,,,,,,,,,,,,,,,,,,,,,,,577,2023-05-17_09h01.14.463,eb_02psyexp,2022.2.4,120.0247083432571,
198,0,198,0,,,,,,,,,,,,,,,,,,,,,,,,,,,,,,,,,,,,,,,,,,,,,,,,,,,,,,,,,,,860.7575913622277,860.7575913622277,860.7575913622277,860.7575913622277,860.7575913622277,860.7575913622277,s,1,0.586607992881909,861.3576423748164,862.3827336088289,,,,,,,,,,,,,,,,,,,,,,,,,,,,,,,,,,,,,,,577,2023-05-17_09h01.14.463,eb_02psyexp,2022.2.4,120.0247083432571,
199,0,199,0,,,,,0,0,0,0,,,,,,,,,,,,,,,,,,,,,,,,,,,,,,,,,,,,,,,,,,,,,,,,,,,862.3827336088289,862.3827336088289,862.3827336088289,862.3827336088289,862.3827336088289,862.3827336088289,l,1,0.5774933473439887,862.9744351642439,863.9745009674225,863.9745009674225,863.9745009674225,space,43.33565550693311,,,,,,,,,,,,,,,,,,,,,,,,,,,,,,,,,,,577,2023-05-17_09h01.14.463,eb_02psyexp,2022.2.4,120.0247083432571,
199,0,199,0,,,,,,,,,,,,,,,,,,,,,,,,,,,,,,,,,,,,,,,,,,,,,,,,,,,,,,,,,,,,,,,,,,,,,,,,,,,,,,,,,,,,,,,,,,,,,,,,,,,,,,,,,,,,577,2023-05-17_09h01.14.463,eb_02psyexp,2022.2.4,120.0247083432571,
200,0,200,0,,,,,,,,,,,,,,,,,,,,,,,,,,,,,,,,,,,,,,,,,,,,,,,,,,,,,,,,,,,907.3532957429998,907.3532957429998,907.3532957429998,907.3532957429998,907.3532957429998,907.3532957429998,s,1,1.9408750872826204,909.3034588926239,910.336889622733,,,,,,,,,,,,,,,,,,,,,,,,,,,,,,,,,,,,,,,577,2023-05-17_09h01.14.463,eb_02psyexp,2022.2.4,120.0247083432571,
201,0,201,0,,,,,,,,,,,,,,,,,,,,,,,,,,,,,,,,,,,,,,,,,,,,,,,,,,,,,,,,,,,910.336889622733,910.336889622733,910.336889622733,910.336889622733,910.336889622733,910.336889622733,l,1,0.5653155340114608,910.9119468986755,911.9370438677724,,,,,,,,,,,,,,,,,,,,,,,,,,,,,,,,,,,,,,,577,2023-05-17_09h01.14.463,eb_02psyexp,2022.2.4,120.0247083432571,
202,0,202,0,,,,,,,,,,,,,,,,,,,,,,,,,,,,,,,,,,,,,,,,,,,,,,,,,,,,,,,,,,,911.9370438677724,911.9370438677724,911.9370438677724,911.9370438677724,911.9370438677724,911.9370438677724,s,1,0.533195735886693,912.4787344057113,913.4954994249856,,,,,,,,,,,,,,,,,,,,,,,,,,,,,,,,,,,,,,,577,2023-05-17_09h01.14.463,eb_02psyexp,2022.2.4,120.0247083432571,
203,0,203,0,,,,,,,,,,,,,,,,,,,,,,,,,,,,,,,,,,,,,,,,,,,,,,,,,,,,,,,,,,,913.4954994249856,913.4954994249856,913.4954994249856,913.4954994249856,913.4954994249856,913.4954994249856,l,1,0.4867546916939318,913.9955447023967,915.0206323141465,,,,,,,,,,,,,,,,,,,,,,,,,,,,,,,,,,,,,,,577,2023-05-17_09h01.14.463,eb_02psyexp,2022.2.4,120.0247083432571,
204,0,204,0,,,,,,,,,,,,,,,,,,,,,,,,,,,,,,,,,,,,,,,,,,,,,,,,,,,,,,,,,,,915.0206323141465,915.0206323141465,915.0206323141465,915.0206323141465,915.0206323141465,915.0206323141465,s,1,0.48866630403790623,915.5206609899178,916.5540983605897,,,,,,,,,,,,,,,,,,,,,,,,,,,,,,,,,,,,,,,577,2023-05-17_09h01.14.463,eb_02psyexp,2022.2.4,120.0247083432571,
205,0,205,0,,,,,,,,,,,,,,,,,,,,,,,,,,,,,,,,,,,,,,,,,,,,,,,,,,,,,,,,,,,916.5540983605897,916.5540983605897,916.5540983605897,916.5540983605897,916.5540983605897,916.5540983605897,l,1,0.4512451245682314,917.0208022553707,918.0375645580934,,,,,,,,,,,,,,,,,,,,,,,,,,,,,,,,,,,,,,,577,2023-05-17_09h01.14.463,eb_02psyexp,2022.2.4,120.0247083432571,
206,0,206,0,,,,,,,,,,,,,,,,,,,,,,,,,,,,,,,,,,,,,,,,,,,,,,,,,,,,,,,,,,,918.0375645580934,918.0375645580934,918.0375645580934,918.0375645580934,918.0375645580934,918.0375645580934,s,1,0.4557970140594989,918.5042563788593,919.5210213981336,,,,,,,,,,,,,,,,,,,,,,,,,,,,,,,,,,,,,,,577,2023-05-17_09h01.14.463,eb_02psyexp,2022.2.4,120.0247083432571,
207,0,207,0,,,,,,,,,,,,,,,,,,,,,,,,,,,,,,,,,,,,,,,,,,,,,,,,,,,,,,,,,,,919.5210213981336,919.5210213981336,919.5210213981336,919.5210213981336,919.5210213981336,919.5210213981336,l,1,0.48436977935489267,920.0210521867266,921.0544874445768,,,,,,,,,,,,,,,,,,,,,,,,,,,,,,,,,,,,,,,577,2023-05-17_09h01.14.463,eb_02psyexp,2022.2.4,120.0247083432571,
208,0,208,0,,,,,,,,,,,,,,,,,,,,,,,,,,,,,,,,,,,,,,,,,,,,,,,,,,,,,,,,,,,921.0544874445768,921.0544874445768,921.0544874445768,921.0544874445768,921.0544874445768,921.0544874445768,l,1,0.5509752711514011,921.6212034133496,922.6546012418112,,,,,,,,,,,,,,,,,,,,,,,,,,,,,,,,,,,,,,,577,2023-05-17_09h01.14.463,eb_02psyexp,2022.2.4,120.0247083432571,
209,0,209,0,,,,,,,,,,,,,,,,,,,,,,,,,,,,,,,,,,,,,,,,,,,,,,,,,,,,,,,,,,,922.6546012418112,922.6546012418112,922.6546012418112,922.6546012418112,922.6546012418112,922.6546012418112,s,1,0.47883687913417816,923.1463393210433,924.1714335734723,,,,,,,,,,,,,,,,,,,,,,,,,,,,,,,,,,,,,,,577,2023-05-17_09h01.14.463,eb_02psyexp,2022.2.4,120.0247083432571,
210,0,210,0,,,,,,,,,,,,,,,,,,,,,,,,,,,,,,,,,,,,,,,,,,,,,,,,,,,,,,,,,,,924.1714335734723,924.1714335734723,924.1714335734723,924.1714335734723,924.1714335734723,924.1714335734723,l,1,0.5860233104322106,924.7714697953779,925.8048969033407,,,,,,,,,,,,,,,,,,,,,,,,,,,,,,,,,,,,,,,577,2023-05-17_09h01.14.463,eb_02psyexp,2022.2.4,120.0247083432571,
211,0,211,0,,,,,,,,,,,,,,,,,,,,,,,,,,,,,,,,,,,,,,,,,,,,,,,,,,,,,,,,,,,925.8048969033407,925.8048969033407,925.8048969033407,925.8048969033407,925.8048969033407,925.8048969033407,s,1,0.5286254336824641,926.3466224557487,927.3633814380737,,,,,,,,,,,,,,,,,,,,,,,,,,,,,,,,,,,,,,,577,2023-05-17_09h01.14.463,eb_02psyexp,2022.2.4,120.0247083432571,
212,0,212,0,,,,,,,,,,,,,,,,,,,,,,,,,,,,,,,,,,,,,,,,,,,,,,,,,,,,,,,,,,,927.3633814380737,927.3633814380737,927.3633814380737,927.3633814380737,927.3633814380737,927.3633814380737,l,1,0.4661676548421383,927.8383979643695,928.8718446923885,,,,,,,,,,,,,,,,,,,,,,,,,,,,,,,,,,,,,,,577,2023-05-17_09h01.14.463,eb_02psyexp,2022.2.4,120.0247083432571,
213,0,213,0,,,,,,,,,,,,,,,,,,,,,,,,,,,,,,,,,,,,,,,,,,,,,,,,,,,,,,,,,,,928.8718446923885,928.8718446923885,928.8718446923885,928.8718446923885,928.8718446923885,928.8718446923885,s,1,0.5097568257478997,929.3968818953726,930.4136592904106,,,,,,,,,,,,,,,,,,,,,,,,,,,,,,,,,,,,,,,577,2023-05-17_09h01.14.463,eb_02psyexp,2022.2.4,120.0247083432571,
214,0,214,0,,,,,,,,,,,,,,,,,,,,,,,,,,,,,,,,,,,,,,,,,,,,,,,,,,,,,,,,,,,930.4136592904106,930.4136592904106,930.4136592904106,930.4136592904106,930.4136592904106,930.4136592904106,l,1,0.5509293901268393,930.9803523186129,931.9971022454556,,,,,,,,,,,,,,,,,,,,,,,,,,,,,,,,,,,,,,,577,2023-05-17_09h01.14.463,eb_02psyexp,2022.2.4,120.0247083432571,
215,0,215,0,,,,,,,,,,,,,,,,,,,,,,,,,,,,,,,,,,,,,,,,,,,,,,,,,,,,,,,,,,,931.9971022454556,931.9971022454556,931.9971022454556,931.9971022454556,931.9971022454556,931.9971022454556,s,1,0.5275270035490394,932.5388377589406,933.5555710840272,,,,,,,,,,,,,,,,,,,,,,,,,,,,,,,,,,,,,,,577,2023-05-17_09h01.14.463,eb_02psyexp,2022.2.4,120.0247083432571,
216,0,216,0,,,,,,,,,,,,,,,,,,,,,,,,,,,,,,,,,,,,,,,,,,,,,,,,,,,,,,,,,,,933.5555710840272,933.5555710840272,933.5555710840272,933.5555710840272,933.5555710840272,933.5555710840272,l,1,0.5690922740614042,934.1389449154958,935.1723783622729,,,,,,,,,,,,,,,,,,,,,,,,,,,,,,,,,,,,,,,577,2023-05-17_09h01.14.463,eb_02psyexp,2022.2.4,120.0247083432571,
217,0,217,0,,,,,,,,,,,,,,,,,,,,,,,,,,,,,,,,,,,,,,,,,,,,,,,,,,,,,,,,,,,935.1723783622729,935.1723783622729,935.1723783622729,935.1723783622729,935.1723783622729,935.1723783622729,l,1,0.5443188875215128,935.7307889438234,936.7641813390655,,,,,,,,,,,,,,,,,,,,,,,,,,,,,,,,,,,,,,,577,2023-05-17_09h01.14.463,eb_02psyexp,2022.2.4,120.0247083432571,
218,0,218,0,,,,,,,,,,,,,,,,,,,,,,,,,,,,,,,,,,,,,,,,,,,,,,,,,,,,,,,,,,,936.7641813390655,936.7641813390655,936.7641813390655,936.7641813390655,936.7641813390655,936.7641813390655,s,1,0.40859017765615135,937.1892309178365,938.222634481499,,,,,,,,,,,,,,,,,,,,,,,,,,,,,,,,,,,,,,,577,2023-05-17_09h01.14.463,eb_02psyexp,2022.2.4,120.0247083432571,
219,0,219,0,,,,,,,,,,,,,,,,,,,,,,,,,,,,,,,,,,,,,,,,,,,,,,,,,,,,,,,,,,,938.222634481499,938.222634481499,938.222634481499,938.222634481499,938.222634481499,938.222634481499,l,1,0.5101066692732275,938.7476910027908,939.7644566256786,,,,,,,,,,,,,,,,,,,,,,,,,,,,,,,,,,,,,,,577,2023-05-17_09h01.14.463,eb_02psyexp,2022.2.4,120.0247083432571,
220,0,220,0,,,,,,,,,,,,,,,,,,,,,,,,,,,,,,,,,,,,,,,,,,,,,,,,,,,,,,,,,,,939.7644566256786,939.7644566256786,939.7644566256786,939.7644566256786,939.7644566256786,939.7644566256786,l,1,1.1203438927186653,940.897879205877,941.9229432734428,,,,,,,,,,,,,,,,,,,,,,,,,,,,,,,,,,,,,,,577,2023-05-17_09h01.14.463,eb_02psyexp,2022.2.4,120.0247083432571,
221,0,221,0,,,,,,,,,,,,,,,,,,,,,,,,,,,,,,,,,,,,,,,,,,,,,,,,,,,,,,,,,,,941.9229432734428,941.9229432734428,941.9229432734428,941.9229432734428,941.9229432734428,941.9229432734428,s,1,0.8739046594128013,942.8063617786393,943.8231352496659,,,,,,,,,,,,,,,,,,,,,,,,,,,,,,,,,,,,,,,577,2023-05-17_09h01.14.463,eb_02psyexp,2022.2.4,120.0247083432571,
222,0,222,0,,,,,,,,,,,,,,,,,,,,,,,,,,,,,,,,,,,,,,,,,,,,,,,,,,,,,,,,,,,943.8231352496659,943.8231352496659,943.8231352496659,943.8231352496659,943.8231352496659,943.8231352496659,l,1,0.47773120482452214,944.3148346921662,945.3482572722714,,,,,,,,,,,,,,,,,,,,,,,,,,,,,,,,,,,,,,,577,2023-05-17_09h01.14.463,eb_02psyexp,2022.2.4,120.0247083432571,
223,0,223,0,,,,,,,,,,,,,,,,,,,,,,,,,,,,,,,,,,,,,,,,,,,,,,,,,,,,,,,,,,,945.3482572722714,945.3482572722714,945.3482572722714,945.3482572722714,945.3482572722714,945.3482572722714,l,1,0.5516351140104234,945.914966600365,946.9400421382161,,,,,,,,,,,,,,,,,,,,,,,,,,,,,,,,,,,,,,,577,2023-05-17_09h01.14.463,eb_02psyexp,2022.2.4,120.0247083432571,
224,0,224,0,,,,,,,,,,,,,,,,,,,,,,,,,,,,,,,,,,,,,,,,,,,,,,,,,,,,,,,,,,,946.9400421382161,946.9400421382161,946.9400421382161,946.9400421382161,946.9400421382161,946.9400421382161,s,1,0.6159187800949439,947.5651158648543,948.5818697157083,,,,,,,,,,,,,,,,,,,,,,,,,,,,,,,,,,,,,,,577,2023-05-17_09h01.14.463,eb_02psyexp,2022.2.4,120.0247083432571,
225,0,225,0,,,,,,,,,,,,,,,,,,,,,,,,,,,,,,,,,,,,,,,,,,,,,,,,,,,,,,,,,,,948.5818697157083,948.5818697157083,948.5818697157083,948.5818697157083,948.5818697157083,948.5818697157083,l,1,0.5261068020481616,949.1235762516735,950.1570075855125,,,,,,,,,,,,,,,,,,,,,,,,,,,,,,,,,,,,,,,577,2023-05-17_09h01.14.463,eb_02psyexp,2022.2.4,120.0247083432571,
226,0,226,0,,,,,,,,,,,,,,,,,,,,,,,,,,,,,,,,,,,,,,,,,,,,,,,,,,,,,,,,,,,950.1570075855125,950.1570075855125,950.1570075855125,950.1570075855125,950.1570075855125,950.1570075855125,s,1,0.5269957486307248,950.6987123102881,951.7154788388871,,,,,,,,,,,,,,,,,,,,,,,,,,,,,,,,,,,,,,,577,2023-05-17_09h01.14.463,eb_02psyexp,2022.2.4,120.0247083432571,
227,0,227,0,,,,,,,,,,,,,,,,,,,,,,,,,,,,,,,,,,,,,,,,,,,,,,,,,,,,,,,,,,,951.7154788388871,951.7154788388871,951.7154788388871,951.7154788388871,951.7154788388871,951.7154788388871,l,1,0.5685746022500098,952.2988593110349,953.3323087557219,,,,,,,,,,,,,,,,,,,,,,,,,,,,,,,,,,,,,,,577,2023-05-17_09h01.14.463,eb_02psyexp,2022.2.4,120.0247083432571,
228,0,228,0,,,,,,,,,,,,,,,,,,,,,,,,,,,,,,,,,,,,,,,,,,,,,,,,,,,,,,,,,,,953.3323087557219,953.3323087557219,953.3323087557219,953.3323087557219,953.3323087557219,953.3323087557219,s,1,0.5677632309962064,953.9156593447551,954.9407711045351,,,,,,,,,,,,,,,,,,,,,,,,,,,,,,,,,,,,,,,577,2023-05-17_09h01.14.463,eb_02psyexp,2022.2.4,120.0247083432571,
229,0,229,0,,,,,,,,,,,,,,,,,,,,,,,,,,,,,,,,,,,,,,,,,,,,,,,,,,,,,,,,,,,954.9407711045351,954.9407711045351,954.9407711045351,954.9407711045351,954.9407711045351,954.9407711045351,s,1,1.159329256042838,956.1158470951486,957.1492802400608,,,,,,,,,,,,,,,,,,,,,,,,,,,,,,,,,,,,,,,577,2023-05-17_09h01.14.463,eb_02psyexp,2022.2.4,120.0247083432571,
230,0,230,0,,,,,,,,,,,,,,,,,,,,,,,,,,,,,,,,,,,,,,,,,,,,,,,,,,,,,,,,,,,957.1492802400608,957.1492802400608,957.1492802400608,957.1492802400608,957.1492802400608,957.1492802400608,s,1,1.142882687970996,958.3077038011979,959.3411484163953,,,,,,,,,,,,,,,,,,,,,,,,,,,,,,,,,,,,,,,577,2023-05-17_09h01.14.463,eb_02psyexp,2022.2.4,120.0247083432571,
231,0,231,0,,,,,,,,,,,,,,,,,,,,,,,,,,,,,,,,,,,,,,,,,,,,,,,,,,,,,,,,,,,959.3411484163953,959.3411484163953,959.3411484163953,959.3411484163953,959.3411484163953,959.3411484163953,l,1,2.4380630580708385,961.7913154900307,962.8081040534889,,,,,,,,,,,,,,,,,,,,,,,,,,,,,,,,,,,,,,,577,2023-05-17_09h01.14.463,eb_02psyexp,2022.2.4,120.0247083432571,
232,0,232,0,,,,,,,,,,,,,,,,,,,,,,,,,,,,,,,,,,,,,,,,,,,,,,,,,,,,,,,,,,,962.8081040534889,962.8081040534889,962.8081040534889,962.8081040534889,962.8081040534889,962.8081040534889,s,1,0.515133065986447,963.3331557452912,964.3665719865821,,,,,,,,,,,,,,,,,,,,,,,,,,,,,,,,,,,,,,,577,2023-05-17_09h01.14.463,eb_02psyexp,2022.2.4,120.0247083432571,
233,0,233,0,,,,,,,,,,,,,,,,,,,,,,,,,,,,,,,,,,,,,,,,,,,,,,,,,,,,,,,,,,,964.3665719865821,964.3665719865821,964.3665719865821,964.3665719865821,964.3665719865821,964.3665719865821,l,1,0.6447061602957547,965.0249596276553,966.0500517671462,,,,,,,,,,,,,,,,,,,,,,,,,,,,,,,,,,,,,,,577,2023-05-17_09h01.14.463,eb_02psyexp,2022.2.4,120.0247083432571,
234,0,234,0,,,,,,,,,,,,,,,,,,,,,,,,,,,,,,,,,,,,,,,,,,,,,,,,,,,,,,,,,,,966.0500517671462,966.0500517671462,966.0500517671462,966.0500517671462,966.0500517671462,966.0500517671462,s,1,0.553262987989001,966.6167435880052,967.6418595735449,,,,,,,,,,,,,,,,,,,,,,,,,,,,,,,,,,,,,,,577,2023-05-17_09h01.14.463,eb_02psyexp,2022.2.4,120.0247083432571,
235,0,235,0,,,,,,,,,,,,,,,,,,,,,,,,,,,,,,,,,,,,,,,,,,,,,,,,,,,,,,,,,,,967.6418595735449,967.6418595735449,967.6418595735449,967.6418595735449,967.6418595735449,967.6418595735449,l,1,0.545460180263035,968.2002300092718,969.2336622485891,,,,,,,,,,,,,,,,,,,,,,,,,,,,,,,,,,,,,,,577,2023-05-17_09h01.14.463,eb_02psyexp,2022.2.4,120.0247083432571,
236,0,236,0,,,,,,,,,,,,,,,,,,,,,,,,,,,,,,,,,,,,,,,,,,,,,,,,,,,,,,,,,,,969.2336622485891,969.2336622485891,969.2336622485891,969.2336622485891,969.2336622485891,969.2336622485891,s,1,0.521719420561567,969.7670292884577,970.7921310871607,,,,,,,,,,,,,,,,,,,,,,,,,,,,,,,,,,,,,,,577,2023-05-17_09h01.14.463,eb_02psyexp,2022.2.4,120.0247083432571,
237,0,237,0,,,,,,,,,,,,,,,,,,,,,,,,,,,,,,,,,,,,,,,,,,,,,,,,,,,,,,,,,,,970.7921310871607,970.7921310871607,970.7921310871607,970.7921310871607,970.7921310871607,970.7921310871607,s,1,0.7793005199637264,971.58386675152,972.608954967116,,,,,,,,,,,,,,,,,,,,,,,,,,,,,,,,,,,,,,,577,2023-05-17_09h01.14.463,eb_02psyexp,2022.2.4,120.0247083432571,
238,0,238,0,,,,,,,,,,,,,,,,,,,,,,,,,,,,,,,,,,,,,,,,,,,,,,,,,,,,,,,,,,,972.608954967116,972.608954967116,972.608954967116,972.608954967116,972.608954967116,972.608954967116,l,1,0.5704958739224821,973.1923426835565,974.2174278806197,,,,,,,,,,,,,,,,,,,,,,,,,,,,,,,,,,,,,,,577,2023-05-17_09h01.14.463,eb_02psyexp,2022.2.4,120.0247083432571,
239,0,239,0,,,,,,,,,,,,,,,,,,,,,,,,,,,,,,,,,,,,,,,,,,,,,,,,,,,,,,,,,,,974.2174278806197,974.2174278806197,974.2174278806197,974.2174278806197,974.2174278806197,974.2174278806197,l,1,0.4980640843277797,974.7257954487577,975.7508942289278,,,,,,,,,,,,,,,,,,,,,,,,,,,,,,,,,,,,,,,577,2023-05-17_09h01.14.463,eb_02psyexp,2022.2.4,120.0247083432571,
240,0,240,0,,,,,,,,,,,,,,,,,,,,,,,,,,,,,,,,,,,,,,,,,,,,,,,,,,,,,,,,,,,975.7508942289278,975.7508942289278,975.7508942289278,975.7508942289278,975.7508942289278,975.7508942289278,s,1,0.5156673394376412,976.2759507502196,977.301040173159,,,,,,,,,,,,,,,,,,,,,,,,,,,,,,,,,,,,,,,577,2023-05-17_09h01.14.463,eb_02psyexp,2022.2.4,120.0247083432571,
241,0,241,0,,,,,,,,,,,,,,,,,,,,,,,,,,,,,,,,,,,,,,,,,,,,,,,,,,,,,,,,,,,977.301040173159,977.301040173159,977.301040173159,977.301040173159,977.301040173159,977.301040173159,l,1,0.469518787227571,977.7843989121029,978.8011639313772,,,,,,,,,,,,,,,,,,,,,,,,,,,,,,,,,,,,,,,577,2023-05-17_09h01.14.463,eb_02psyexp,2022.2.4,120.0247083432571,
242,0,242,0,,,,,,,,,,,,,,,,,,,,,,,,,,,,,,,,,,,,,,,,,,,,,,,,,,,,,,,,,,,978.8011639313772,978.8011639313772,978.8011639313772,978.8011639313772,978.8011639313772,978.8011639313772,l,1,0.6814222196117043,979.4928727311781,980.5179730206728,,,,,,,,,,,,,,,,,,,,,,,,,,,,,,,,,,,,,,,577,2023-05-17_09h01.14.463,eb_02psyexp,2022.2.4,120.0247083432571,
243,0,243,0,,,,,,,,,,,,,,,,,,,,,,,,,,,,,,,,,,,,,,,,,,,,,,,,,,,,,,,,,,,980.5179730206728,980.5179730206728,980.5179730206728,980.5179730206728,980.5179730206728,980.5179730206728,l,1,0.5166368797654286,981.0430238068802,982.0681198703824,,,,,,,,,,,,,,,,,,,,,,,,,,,,,,,,,,,,,,,577,2023-05-17_09h01.14.463,eb_02psyexp,2022.2.4,120.0247083432571,
244,0,244,0,,,,,,,,,,,,,,,,,,,,,,,,,,,,,,,,,,,,,,,,,,,,,,,,,,,,,,,,,,,982.0681198703824,982.0681198703824,982.0681198703824,982.0681198703824,982.0681198703824,982.0681198703824,l,1,0.5345296085579321,982.6181462822715,983.6432438550983,,,,,,,,,,,,,,,,,,,,,,,,,,,,,,,,,,,,,,,577,2023-05-17_09h01.14.463,eb_02psyexp,2022.2.4,120.0247083432571,
245,0,245,0,,,,,,,,,,,,,,,,,,,,,,,,,,,,,,,,,,,,,,,,,,,,,,,,,,,,,,,,,,,983.6432438550983,983.6432438550983,983.6432438550983,983.6432438550983,983.6432438550983,983.6432438550983,s,1,0.5594309791922569,984.2182836238062,985.2433691226179,,,,,,,,,,,,,,,,,,,,,,,,,,,,,,,,,,,,,,,577,2023-05-17_09h01.14.463,eb_02psyexp,2022.2.4,120.0247083432571,
246,0,246,0,,,,,,,,,,,,,,,,,,,,,,,,,,,,,,,,,,,,,,,,,,,,,,,,,,,,,,,,,,,985.2433691226179,985.2433691226179,985.2433691226179,985.2433691226179,985.2433691226179,985.2433691226179,l,1,0.6073314654640853,985.8600942977937,986.8851982094347,,,,,,,,,,,,,,,,,,,,,,,,,,,,,,,,,,,,,,,577,2023-05-17_09h01.14.463,eb_02psyexp,2022.2.4,120.0247083432571,
247,0,247,0,,,,,,,,,,,,,,,,,,,,,,,,,,,,,,,,,,,,,,,,,,,,,,,,,,,,,,,,,,,986.8851982094347,986.8851982094347,986.8851982094347,986.8851982094347,986.8851982094347,986.8851982094347,s,1,0.5575480425031856,987.4519048208604,988.4770102417096,,,,,,,,,,,,,,,,,,,,,,,,,,,,,,,,,,,,,,,577,2023-05-17_09h01.14.463,eb_02psyexp,2022.2.4,120.0247083432571,
248,0,248,0,,,,,,,,,,,,,,,,,,,,,,,,,,,,,,,,,,,,,,,,,,,,,,,,,,,,,,,,,,,988.4770102417096,988.4770102417096,988.4770102417096,988.4770102417096,988.4770102417096,988.4770102417096,l,1,0.6537556062685326,989.1437355678063,990.1604773446452,,,,,,,,,,,,,,,,,,,,,,,,,,,,,,,,,,,,,,,577,2023-05-17_09h01.14.463,eb_02psyexp,2022.2.4,120.0247083432571,
249,0,249,0,,,,,,,,,,,,,,,,,,,,,,,,,,,,,,,,,,,,,,,,,,,,,,,,,,,,,,,,,,,990.1604773446452,990.1604773446452,990.1604773446452,990.1604773446452,990.1604773446452,990.1604773446452,l,1,0.842326077632606,991.0188903411618,992.0439682936994,,,,,,,,,,,,,,,,,,,,,,,,,,,,,,,,,,,,,,,577,2023-05-17_09h01.14.463,eb_02psyexp,2022.2.4,120.0247083432571,
250,0,250,0,,,,,,,,,,,,,,,,,,,,,,,,,,,,,,,,,,,,,,,,,,,,,,,,,,,,,,,,,,,992.0439682936994,992.0439682936994,992.0439682936994,992.0439682936994,992.0439682936994,992.0439682936994,s,0,0.5179034400498495,992.5773425779771,993.602439848939,,,,,,,,,,,,,,,,,,,,,,,,,,,,,,,,,,,,,,,577,2023-05-17_09h01.14.463,eb_02psyexp,2022.2.4,120.0247083432571,
251,0,251,0,,,,,,,,,,,,,,,,,,,,,,,,,,,,,,,,,,,,,,,,,,,,,,,,,,,,,,,,,,,993.602439848939,993.602439848939,993.602439848939,993.602439848939,993.602439848939,993.602439848939,s,1,1.2954446348594502,994.9108831812628,995.9359925262397,,,,,,,,,,,,,,,,,,,,,,,,,,,,,,,,,,,,,,,577,2023-05-17_09h01.14.463,eb_02psyexp,2022.2.4,120.0247083432571,
252,0,252,0,,,,,,,,,,,,,,,,,,,,,,,,,,,,,,,,,,,,,,,,,,,,,,,,,,,,,,,,,,,995.9359925262397,995.9359925262397,995.9359925262397,995.9359925262397,995.9359925262397,995.9359925262397,l,1,0.5939299545716494,996.5443597924896,997.5694519319804,,,,,,,,,,,,,,,,,,,,,,,,,,,,,,,,,,,,,,,577,2023-05-17_09h01.14.463,eb_02psyexp,2022.2.4,120.0247083432571,
253,0,253,0,,,,,,,,,,,,,,,,,,,,,,,,,,,,,,,,,,,,,,,,,,,,,,,,,,,,,,,,,,,997.5694519319804,997.5694519319804,997.5694519319804,997.5694519319804,997.5694519319804,997.5694519319804,s,1,0.8004927647998556,998.3861734849634,999.4112780003343,,,,,,,,,,,,,,,,,,,,,,,,,,,,,,,,,,,,,,,577,2023-05-17_09h01.14.463,eb_02psyexp,2022.2.4,120.0247083432571,
254,0,254,0,,,,,,,,,,,,,,,,,,,,,,,,,,,,,,,,,,,,,,,,,,,,,,,,,,,,,,,,,,,999.4112780003343,999.4112780003343,999.4112780003343,999.4112780003343,999.4112780003343,999.4112780003343,l,1,0.5907080136239529,1000.011321164784,1001.0280768267112,,,,,,,,,,,,,,,,,,,,,,,,,,,,,,,,,,,,,,,577,2023-05-17_09h01.14.463,eb_02psyexp,2022.2.4,120.0247083432571,
255,0,255,0,,,,,,,,,,,,,,,,,,,,,,,,,,,,,,,,,,,,,,,,,,,,,,,,,,,,,,,,,,,1001.0280768267112,1001.0280768267112,1001.0280768267112,1001.0280768267112,1001.0280768267112,1001.0280768267112,l,1,0.6779627231881022,1001.7198100762907,1002.744897386292,,,,,,,,,,,,,,,,,,,,,,,,,,,,,,,,,,,,,,,577,2023-05-17_09h01.14.463,eb_02psyexp,2022.2.4,120.0247083432571,
256,0,256,0,,,,,,,,,,,,,,,,,,,,,,,,,,,,,,,,,,,,,,,,,,,,,,,,,,,,,,,,,,,1002.744897386292,1002.744897386292,1002.744897386292,1002.744897386292,1002.744897386292,1002.744897386292,l,1,0.5771610111696646,1003.3366092045326,1004.3533751294017,,,,,,,,,,,,,,,,,,,,,,,,,,,,,,,,,,,,,,,577,2023-05-17_09h01.14.463,eb_02psyexp,2022.2.4,120.0247083432571,
257,0,257,0,,,,,,,,,,,,,,,,,,,,,,,,,,,,,,,,,,,,,,,,,,,,,,,,,,,,,,,,,,,1004.3533751294017,1004.3533751294017,1004.3533751294017,1004.3533751294017,1004.3533751294017,1004.3533751294017,l,1,0.5767079351935536,1004.9450884569669,1005.9785134518752,,,,,,,,,,,,,,,,,,,,,,,,,,,,,,,,,,,,,,,577,2023-05-17_09h01.14.463,eb_02psyexp,2022.2.4,120.0247083432571,
258,0,258,0,,,,,,,,,,,,,,,,,,,,,,,,,,,,,,,,,,,,,,,,,,,,,,,,,,,,,,,,,,,1005.9785134518752,1005.9785134518752,1005.9785134518752,1005.9785134518752,1005.9785134518752,1005.9785134518752,s,1,0.7836202871985734,1006.7785744254943,1007.8036741112592,,,,,,,,,,,,,,,,,,,,,,,,,,,,,,,,,,,,,,,577,2023-05-17_09h01.14.463,eb_02psyexp,2022.2.4,120.0247083432571,
259,0,259,0,,,,,,,,,,,,,,,,,,,,,,,,,,,,,,,,,,,,,,,,,,,,,,,,,,,,,,,,,,,1007.8036741112592,1007.8036741112592,1007.8036741112592,1007.8036741112592,1007.8036741112592,1007.8036741112592,l,1,0.9735113497590646,1008.787081448012,1009.8788717471762,,,,,,,,,,,,,,,,,,,,,,,,,,,,,,,,,,,,,,,577,2023-05-17_09h01.14.463,eb_02psyexp,2022.2.4,120.0247083432571,
260,0,260,0,,,,,,,,,,,,,,,,,,,,,,,,,,,,,,,,,,,,,,,,,,,,,,,,,,,,,,,,,,,1009.8788717471762,1009.8788717471762,1009.8788717471762,1009.8788717471762,1009.8788717471762,1009.8788717471762,l,1,0.530336014344357,1010.4205562481657,1011.4456562357955,,,,,,,,,,,,,,,,,,,,,,,,,,,,,,,,,,,,,,,577,2023-05-17_09h01.14.463,eb_02psyexp,2022.2.4,120.0247083432571,
261,0,261,0,,,,,,,,,,,,,,,,,,,,,,,,,,,,,,,,,,,,,,,,,,,,,,,,,,,,,,,,,,,1011.4456562357955,1011.4456562357955,1011.4456562357955,1011.4456562357955,1011.4456562357955,1011.4456562357955,s,1,0.8275810346240178,1012.2873823918635,1013.3208185553085,,,,,,,,,,,,,,,,,,,,,,,,,,,,,,,,,,,,,,,577,2023-05-17_09h01.14.463,eb_02psyexp,2022.2.4,120.0247083432571,
262,0,262,0,,,,,,,,,,,,,,,,,,,,,,,,,,,,,,,,,,,,,,,,,,,,,,,,,,,,,,,,,,,1013.3208185553085,1013.3208185553085,1013.3208185553085,1013.3208185553085,1013.3208185553085,1013.3208185553085,s,1,0.58446908777114,1013.92086021055,1014.9459580851253,,,,,,,,,,,,,,,,,,,,,,,,,,,,,,,,,,,,,,,577,2023-05-17_09h01.14.463,eb_02psyexp,2022.2.4,120.0247083432571,
263,0,263,0,,,,,,,,,,,,,,,,,,,,,,,,,,,,,,,,,,,,,,,,,,,,,,,,,,,,,,,,,,,1014.9459580851253,1014.9459580851253,1014.9459580851253,1014.9459580851253,1014.9459580851253,1014.9459580851253,s,1,0.6393595013068989,1015.5960029098205,1016.6211022937205,,,,,,,,,,,,,,,,,,,,,,,,,,,,,,,,,,,,,,,577,2023-05-17_09h01.14.463,eb_02psyexp,2022.2.4,120.0247083432571,
264,0,264,0,,,,,,,,,,,,,,,,,,,,,,,,,,,,,,,,,,,,,,,,,,,,,,,,,,,,,,,,,,,1016.6211022937205,1016.6211022937205,1016.6211022937205,1016.6211022937205,1016.6211022937205,1016.6211022937205,l,1,0.45221345755271614,1017.0878013588954,1018.1128992335871,,,,,,,,,,,,,,,,,,,,,,,,,,,,,,,,,,,,,,,577,2023-05-17_09h01.14.463,eb_02psyexp,2022.2.4,120.0247083432571,
265,0,265,0,,,,,,,,,,,,,,,,,,,,,,,,,,,,,,,,,,,,,,,,,,,,,,,,,,,,,,,,,,,1018.1128992335871,1018.1128992335871,1018.1128992335871,1018.1128992335871,1018.1128992335871,1018.1128992335871,l,1,0.5684755955589935,1018.6962748761289,1019.71303808433,,,,,,,,,,,,,,,,,,,,,,,,,,,,,,,,,,,,,,,577,2023-05-17_09h01.14.463,eb_02psyexp,2022.2.4,120.0247083432571,
266,0,266,0,,,,,,,,,,,,,,,,,,,,,,,,,,,,,,,,,,,,,,,,,,,,,,,,,,,,,,,,,,,1019.71303808433,1019.71303808433,1019.71303808433,1019.71303808433,1019.71303808433,1019.71303808433,l,1,0.9924004834610969,1020.7214379502693,1021.7465551433852,,,,,,,,,,,,,,,,,,,,,,,,,,,,,,,,,,,,,,,577,2023-05-17_09h01.14.463,eb_02psyexp,2022.2.4,120.0247083432571,
267,0,267,0,,,,,,,,,,,,,,,,,,,,,,,,,,,,,,,,,,,,,,,,,,,,,,,,,,,,,,,,,,,1021.7465551433852,1021.7465551433852,1021.7465551433852,1021.7465551433852,1021.7465551433852,1021.7465551433852,l,1,1.0069046504795551,1022.7633065794362,1023.7800389989279,,,,,,,,,,,,,,,,,,,,,,,,,,,,,,,,,,,,,,,577,2023-05-17_09h01.14.463,eb_02psyexp,2022.2.4,120.0247083432571,
268,0,268,0,,,,,,,,,,,,,,,,,,,,,,,,,,,,,,,,,,,,,,,,,,,,,,,,,,,,,,,,,,,1023.7800389989279,1023.7800389989279,1023.7800389989279,1023.7800389989279,1023.7800389989279,1023.7800389989279,l,1,0.6444447586545721,1024.438426941866,1025.463539003511,,,,,,,,,,,,,,,,,,,,,,,,,,,,,,,,,,,,,,,577,2023-05-17_09h01.14.463,eb_02psyexp,2022.2.4,120.0247083432571,
269,0,269,0,,,,,,,,,,,,,,,,,,,,,,,,,,,,,,,,,,,,,,,,,,,,,,,,,,,,,,,,,,,1025.463539003511,1025.463539003511,1025.463539003511,1025.463539003511,1025.463539003511,1025.463539003511,l,1,0.48098272690549493,1025.9552345218835,1026.9803351132432,,,,,,,,,,,,,,,,,,,,,,,,,,,,,,,,,,,,,,,577,2023-05-17_09h01.14.463,eb_02psyexp,2022.2.4,120.0247083432571,
270,0,270,0,,,,,,,,,,,,,,,,,,,,,,,,,,,,,,,,,,,,,,,,,,,,,,,,,,,,,,,,,,,1026.9803351132432,1026.9803351132432,1026.9803351132432,1026.9803351132432,1026.9803351132432,1026.9803351132432,s,1,0.46819940337445587,1027.4637128687464,1028.4971085842699,,,,,,,,,,,,,,,,,,,,,,,,,,,,,,,,,,,,,,,577,2023-05-17_09h01.14.463,eb_02psyexp,2022.2.4,120.0247083432571,
271,0,271,0,,,,,,,,,,,,,,,,,,,,,,,,,,,,,,,,,,,,,,,,,,,,,,,,,,,,,,,,,,,1028.4971085842699,1028.4971085842699,1028.4971085842699,1028.4971085842699,1028.4971085842699,1028.4971085842699,s,1,0.5434728035470471,1029.0555203732802,1030.0889504996594,,,,,,,,,,,,,,,,,,,,,,,,,,,,,,,,,,,,,,,577,2023-05-17_09h01.14.463,eb_02psyexp,2022.2.4,120.0247083432571,
272,0,272,0,,,,,,,,,,,,,,,,,,,,,,,,,,,,,,,,,,,,,,,,,,,,,,,,,,,,,,,,,,,1030.0889504996594,1030.0889504996594,1030.0889504996594,1030.0889504996594,1030.0889504996594,1030.0889504996594,l,1,0.5196568834362552,1030.622322972864,1031.6557715120725,,,,,,,,,,,,,,,,,,,,,,,,,,,,,,,,,,,,,,,577,2023-05-17_09h01.14.463,eb_02psyexp,2022.2.4,120.0247083432571,
273,0,273,0,,,,,,,,,,,,,,,,,,,,,,,,,,,,,,,,,,,,,,,,,,,,,,,,,,,,,,,,,,,1031.6557715120725,1031.6557715120725,1031.6557715120725,1031.6557715120725,1031.6557715120725,1031.6557715120725,s,1,0.5128667805111036,1032.1807915095706,1033.1975417382782,,,,,,,,,,,,,,,,,,,,,,,,,,,,,,,,,,,,,,,577,2023-05-17_09h01.14.463,eb_02psyexp,2022.2.4,120.0247083432571,
274,0,274,0,,,,,,,,,,,,,,,,,,,,,,,,,,,,,,,,,,,,,,,,,,,,,,,,,,,,,,,,,,,1033.1975417382782,1033.1975417382782,1033.1975417382782,1033.1975417382782,1033.1975417382782,1033.1975417382782,l,1,0.6031273066764697,1033.814251820906,1034.8310147272423,,,,,,,,,,,,,,,,,,,,,,,,,,,,,,,,,,,,,,,577,2023-05-17_09h01.14.463,eb_02psyexp,2022.2.4,120.0247083432571,
275,0,275,0,,,,,,,,,,,,,,,,,,,,,,,,,,,,,,,,,,,,,,,,,,,,,,,,,,,,,,,,,,,1034.8310147272423,1034.8310147272423,1034.8310147272423,1034.8310147272423,1034.8310147272423,1034.8310147272423,s,1,0.5296885473653674,1035.3727209613426,1036.3978242692538,,,,,,,,,,,,,,,,,,,,,,,,,,,,,,,,,,,,,,,577,2023-05-17_09h01.14.463,eb_02psyexp,2022.2.4,120.0247083432571,
276,0,276,0,,,,,,,,,,,,,,,,,,,,,,,,,,,,,,,,,,,,,,,,,,,,,,,,,,,,,,,,,,,1036.3978242692538,1036.3978242692538,1036.3978242692538,1036.3978242692538,1036.3978242692538,1036.3978242692538,l,1,0.5789147564209998,1036.9895339746727,1038.0062926551327,,,,,,,,,,,,,,,,,,,,,,,,,,,,,,,,,,,,,,,577,2023-05-17_09h01.14.463,eb_02psyexp,2022.2.4,120.0247083432571,
