trials.thisRepN,trials.thisTrialN,trials.thisN,trials.thisIndex,image_loop.thisRepN,image_loop.thisTrialN,image_loop.thisN,image_loop.thisIndex,break_loop.thisRepN,break_loop.thisTrialN,break_loop.thisN,break_loop.thisIndex,test_trials.thisRepN,test_trials.thisTrialN,test_trials.thisN,test_trials.thisIndex,distance matrix,tools,welcome_text.started,instructions_0_keypress.started,instructions_0_keypress.keys,instructions_0_keypress.rt,consent_image_0.started,consent0_key_resp.started,consent0_text.started,consent0_key_resp.keys,consent0_key_resp.rt,consent_image_1.started,consent1_key_resp.started,consent1_text.started,consent1_key_resp.keys,consent1_key_resp.rt,consent2_text.started,consent_image_2.started,consent2_key_resp.started,consent2_key_resp.keys,consent2_key_resp.rt,agree_button.started,disagree_button.started,consent_image_3.started,agree_button.numClicks,agree_button.timesOn,agree_button.timesOff,disagree_button.numClicks,disagree_button.timesOn,disagree_button.timesOff,instructions_text1.started,instructions1_key_resp.started,instr1_cnt_text.started,instructions1_key_resp.keys,instructions1_key_resp.rt,instructions_text2.started,instr2_cnt_text.started,instructions2_key_resp.started,instructions2_key_resp.keys,instructions2_key_resp.rt,instructions_text3.started,instructions3_key_resp.started,instr3_cnt_text.started,instructions3_key_resp.keys,instructions3_key_resp.rt,text_countdown.started,image.started,small_large_keyresp.started,task_question_text.started,smalleroption_text.started,largeroption_text.started,accuracy_score_text.started,small_large_keyresp.keys,small_large_keyresp.corr,small_large_keyresp.rt,fb_2.started,fb_2.stopped,break_text.started,break_key_resp.started,break_key_resp.keys,break_key_resp.rt,reveal_seq_text.started,start_test_text.started,continue_to_test.started,continue_to_test.keys,continue_to_test.rt,test_structure_info.started,start_test_text_2.started,continue_to_test_2.started,continue_to_test_2.keys,continue_to_test_2.rt,test_cntdown_text.started,parent index,left child index,right child index,left distance,right distance,parent_image.started,top_image_text.started,left_child_image.started,right_child_image.started,path_resp.started,child_choice_text.started,left_choice_text.started,right_choice_text.started,path_resp.keys,path_resp.rt,graph.started,debrief_text.started,debriefing_title.started,demo_scr_adv.started,demo_scr_adv_keypress.started,demo_scr_adv_keypress.keys,demo_scr_adv_keypress.rt,text_countdown_2.started,participant,date,expName,psychopyVersion,frameRate,
,,,,,,,,,,,,,,,,"[[0. 1. 1. 2. 2. 3. 4. 5. 5. 6. 6. 7.]
 [1. 0. 2. 1. 1. 2. 3. 4. 4. 5. 5. 6.]
 [1. 2. 0. 1. 1. 2. 3. 4. 4. 5. 5. 6.]
 [2. 1. 1. 0. 1. 1. 2. 3. 3. 4. 4. 5.]
 [2. 1. 1. 1. 0. 1. 2. 3. 3. 4. 4. 5.]
 [3. 2. 2. 1. 1. 0. 1. 2. 2. 3. 3. 4.]
 [4. 3. 3. 2. 2. 1. 0. 1. 1. 2. 2. 3.]
 [5. 4. 4. 3. 3. 2. 1. 0. 1. 1. 1. 2.]
 [5. 4. 4. 3. 3. 2. 1. 1. 0. 1. 1. 2.]
 [6. 5. 5. 4. 4. 3. 2. 1. 1. 0. 2. 1.]
 [6. 5. 5. 4. 4. 3. 2. 1. 1. 2. 0. 1.]
 [7. 6. 6. 5. 5. 4. 3. 2. 2. 1. 1. 0.]]",[ 5  8 10  3  6  2  1  0  7  9  4 11],427.0044814936118,427.0044814936118,return,9.557867185329087,,,,,,,,,,,,,,,,,,,,,,,,,,,,,,,,,,,,,,,,,,,,,,,,,,,,,,,,,,,,,,,,,,,,,,,,,,,,,,,,,,,,,,,,,,578,2023-05-17_09h02.12.492,eb_02psyexp,2022.2.4,99.91067338556135,
,,,,,,,,,,,,,,,,,,,,,,436.5805705958046,436.5805705958046,436.5805705958046,space,40.37897629686631,,,,,,,,,,,,,,,,,,,,,,,,,,,,,,,,,,,,,,,,,,,,,,,,,,,,,,,,,,,,,,,,,,,,,,,,,,,,,,,,,,,,,578,2023-05-17_09h02.12.492,eb_02psyexp,2022.2.4,99.91067338556135,
,,,,,,,,,,,,,,,,,,,,,,,,,,,476.97623332380317,476.97623332380317,476.97623332380317,space,4.167337936232798,,,,,,,,,,,,,,,,,,,,,,,,,,,,,,,,,,,,,,,,,,,,,,,,,,,,,,,,,,,,,,,,,,,,,,,,,,,,,,,,578,2023-05-17_09h02.12.492,eb_02psyexp,2022.2.4,99.91067338556135,
,,,,,,,,,,,,,,,,,,,,,,,,,,,,,,,,481.15890059573576,481.15890059573576,481.15890059573576,space,4.11270126409363,,,,,,,,,,,,,,,,,,,,,,,,,,,,,,,,,,,,,,,,,,,,,,,,,,,,,,,,,,,,,,,,,,,,,,,,,,,578,2023-05-17_09h02.12.492,eb_02psyexp,2022.2.4,99.91067338556135,
,,,,,,,,,,,,,,,,,,,,,,,,,,,,,,,,,,,,,485.29160405893344,485.29160405893344,485.29160405893344,1,[9.585880955914035],[9.58588699286338],0,,,494.86771791253705,496.8593365807319,496.8593365807319,space,1.9233245801879093,,,,,,,,,,,,,,,,,,,,,,,,,,,,,,,,,,,,,,,,,,,,,,,,,,,,,,,,,,,,,578,2023-05-17_09h02.12.492,eb_02psyexp,2022.2.4,99.91067338556135,
,,,,,,,,,,,,,,,,,,,,,,,,,,,,,,,,,,,,,,,,,,,,,,,,,,,498.80058666609693,501.7925141218584,501.7925141218584,space,9.373233392718248,,,,,,,,,,,,,,,,,,,,,,,,,,,,,,,,,,,,,,,,,,,,,,,,,,,,,,,,578,2023-05-17_09h02.12.492,eb_02psyexp,2022.2.4,99.91067338556135,
,,,,,,,,,,,,,,,,,,,,,,,,,,,,,,,,,,,,,,,,,,,,,,,,,,,,,,,,511.17855161463376,514.1704784666654,514.1704784666654,space,28.48145631630905,,,,,,,,,,,,,,,,,,,,,,,,,,,,,,,,,,,,,,,,,,,,,,,,,,,578,2023-05-17_09h02.12.492,eb_02psyexp,2022.2.4,99.91067338556135,
0,0,0,0,,,,,,,,,,,,,,,,,,,,,,,,,,,,,,,,,,,,,,,,,,,,,,,,,,,,,,,,,,542.6785066396696,547.7120917319553,547.7120917319553,547.7120917319553,547.7120917319553,547.7120917319553,547.7120917319553,l,1,1.0678615770302713,548.7924606952583,549.8131228949642,,,,,,,,,,,,,,,,,,,,,,,,,,,,,,,,,,,,,,,578,2023-05-17_09h02.12.492,eb_02psyexp,2022.2.4,99.91067338556135,
1,0,1,0,,,,,,,,,,,,,,,,,,,,,,,,,,,,,,,,,,,,,,,,,,,,,,,,,,,,,,,,,,,549.8131228949642,549.8131228949642,549.8131228949642,549.8131228949642,549.8131228949642,549.8131228949642,l,1,0.9418400578433648,550.773758979165,551.7944051810773,,,,,,,,,,,,,,,,,,,,,,,,,,,,,,,,,,,,,,,578,2023-05-17_09h02.12.492,eb_02psyexp,2022.2.4,99.91067338556135,
2,0,2,0,,,,,,,,,,,,,,,,,,,,,,,,,,,,,,,,,,,,,,,,,,,,,,,,,,,,,,,,,,,551.7944051810773,551.7944051810773,551.7944051810773,551.7944051810773,551.7944051810773,551.7944051810773,l,1,0.6965683097951114,552.5048609127989,553.5255360918818,,,,,,,,,,,,,,,,,,,,,,,,,,,,,,,,,,,,,,,578,2023-05-17_09h02.12.492,eb_02psyexp,2022.2.4,99.91067338556135,
3,0,3,0,,,,,,,,,,,,,,,,,,,,,,,,,,,,,,,,,,,,,,,,,,,,,,,,,,,,,,,,,,,553.5255360918818,553.5255360918818,553.5255360918818,553.5255360918818,553.5255360918818,553.5255360918818,s,1,0.989464869373478,554.5261841532774,555.546823714627,,,,,,,,,,,,,,,,,,,,,,,,,,,,,,,,,,,,,,,578,2023-05-17_09h02.12.492,eb_02psyexp,2022.2.4,99.91067338556135,
4,0,4,0,,,,,,,,,,,,,,,,,,,,,,,,,,,,,,,,,,,,,,,,,,,,,,,,,,,,,,,,,,,555.546823714627,555.546823714627,555.546823714627,555.546823714627,555.546823714627,555.546823714627,l,1,0.6161866689799353,556.1772349664243,557.1978890163591,,,,,,,,,,,,,,,,,,,,,,,,,,,,,,,,,,,,,,,578,2023-05-17_09h02.12.492,eb_02psyexp,2022.2.4,99.91067338556135,
5,0,5,0,,,,,,,,,,,,,,,,,,,,,,,,,,,,,,,,,,,,,,,,,,,,,,,,,,,,,,,,,,,557.1978890163591,557.1978890163591,557.1978890163591,557.1978890163591,557.1978890163591,557.1978890163591,l,1,0.6771162068471313,557.888339363155,558.9189829753013,,,,,,,,,,,,,,,,,,,,,,,,,,,,,,,,,,,,,,,578,2023-05-17_09h02.12.492,eb_02psyexp,2022.2.4,99.91067338556135,
6,0,6,0,,,,,,,,,,,,,,,,,,,,,,,,,,,,,,,,,,,,,,,,,,,,,,,,,,,,,,,,,,,558.9189829753013,558.9189829753013,558.9189829753013,558.9189829753013,558.9189829753013,558.9189829753013,s,1,0.7480138760292903,559.6794803919038,560.7001169348368,,,,,,,,,,,,,,,,,,,,,,,,,,,,,,,,,,,,,,,578,2023-05-17_09h02.12.492,eb_02psyexp,2022.2.4,99.91067338556135,
7,0,7,0,,,,,,,,,,,,,,,,,,,,,,,,,,,,,,,,,,,,,,,,,,,,,,,,,,,,,,,,,,,560.7001169348368,560.7001169348368,560.7001169348368,560.7001169348368,560.7001169348368,560.7001169348368,l,1,0.5269042211584747,561.240490824217,562.2611300837016,,,,,,,,,,,,,,,,,,,,,,,,,,,,,,,,,,,,,,,578,2023-05-17_09h02.12.492,eb_02psyexp,2022.2.4,99.91067338556135,
8,0,8,0,,,,,,,,,,,,,,,,,,,,,,,,,,,,,,,,,,,,,,,,,,,,,,,,,,,,,,,,,,,562.2611300837016,562.2611300837016,562.2611300837016,562.2611300837016,562.2611300837016,562.2611300837016,l,1,0.5418983744457364,562.8215268651256,563.8421703504864,,,,,,,,,,,,,,,,,,,,,,,,,,,,,,,,,,,,,,,578,2023-05-17_09h02.12.492,eb_02psyexp,2022.2.4,99.91067338556135,
9,0,9,0,,,,,,,,,,,,,,,,,,,,,,,,,,,,,,,,,,,,,,,,,,,,,,,,,,,,,,,,,,,563.8421703504864,563.8421703504864,563.8421703504864,563.8421703504864,563.8421703504864,563.8421703504864,s,1,0.6888697516405955,564.5426359162666,565.5732906967169,,,,,,,,,,,,,,,,,,,,,,,,,,,,,,,,,,,,,,,578,2023-05-17_09h02.12.492,eb_02psyexp,2022.2.4,99.91067338556135,
10,0,10,0,,,,,,,,,,,,,,,,,,,,,,,,,,,,,,,,,,,,,,,,,,,,,,,,,,,,,,,,,,,565.5732906967169,565.5732906967169,565.5732906967169,565.5732906967169,565.5732906967169,565.5732906967169,s,1,0.42876412998884916,566.0135775944218,,,,,,,,,,,,,,,,,,,,,,,,,,,,,,,,,,,,,,,,578,2023-05-17_09h02.12.492,eb_02psyexp,2022.2.4,99.91067338556135,
11,0,11,0,,,,,,,,,,,,,,,,,,,,,,,,,,,,,,,,,,,,,,,,,,,,,,,,,,,,,,,,,,,567.0342189668445,567.0342189668445,567.0342189668445,567.0342189668445,567.0342189668445,567.0342189668445,l,1,0.43983580672647804,567.4848434540909,568.5051530988421,,,,,,,,,,,,,,,,,,,,,,,,,,,,,,,,,,,,,,,578,2023-05-17_09h02.12.492,eb_02psyexp,2022.2.4,99.91067338556135,
12,0,12,0,,,,,,,,,,,,,,,,,,,,,,,,,,,,,,,,,,,,,,,,,,,,,,,,,,,,,,,,,,,568.5051530988421,568.5051530988421,568.5051530988421,568.5051530988421,568.5051530988421,568.5051530988421,l,1,0.4809452925110236,569.0055150110275,570.0361767339054,,,,,,,,,,,,,,,,,,,,,,,,,,,,,,,,,,,,,,,578,2023-05-17_09h02.12.492,eb_02psyexp,2022.2.4,99.91067338556135,
13,0,13,0,,,,,,,,,,,,,,,,,,,,,,,,,,,,,,,,,,,,,,,,,,,,,,,,,,,,,,,,,,,570.0361767339054,570.0361767339054,570.0361767339054,570.0361767339054,570.0361767339054,570.0361767339054,s,1,0.5099317753920332,570.556826859829,571.5771654817509,,,,,,,,,,,,,,,,,,,,,,,,,,,,,,,,,,,,,,,578,2023-05-17_09h02.12.492,eb_02psyexp,2022.2.4,99.91067338556135,
14,0,14,0,,,,,,,,,,,,,,,,,,,,,,,,,,,,,,,,,,,,,,,,,,,,,,,,,,,,,,,,,,,571.5771654817509,571.5771654817509,571.5771654817509,571.5771654817509,571.5771654817509,571.5771654817509,l,1,0.6329143184702843,572.2275803074008,573.2482222835533,,,,,,,,,,,,,,,,,,,,,,,,,,,,,,,,,,,,,,,578,2023-05-17_09h02.12.492,eb_02psyexp,2022.2.4,99.91067338556135,
15,0,15,0,,,,,,,,,,,,,,,,,,,,,,,,,,,,,,,,,,,,,,,,,,,,,,,,,,,,,,,,,,,573.2482222835533,573.2482222835533,573.2482222835533,573.2482222835533,573.2482222835533,573.2482222835533,l,1,0.4898868487216532,573.7485585389659,574.7692156073172,,,,,,,,,,,,,,,,,,,,,,,,,,,,,,,,,,,,,,,578,2023-05-17_09h02.12.492,eb_02psyexp,2022.2.4,99.91067338556135,
16,0,16,0,,,,,,,,,,,,,,,,,,,,,,,,,,,,,,,,,,,,,,,,,,,,,,,,,,,,,,,,,,,574.7692156073172,574.7692156073172,574.7692156073172,574.7692156073172,574.7692156073172,574.7692156073172,l,1,0.4408708333503455,575.2295166434487,576.2601868179627,,,,,,,,,,,,,,,,,,,,,,,,,,,,,,,,,,,,,,,578,2023-05-17_09h02.12.492,eb_02psyexp,2022.2.4,99.91067338556135,
17,0,17,0,,,,,,,,,,,,,,,,,,,,,,,,,,,,,,,,,,,,,,,,,,,,,,,,,,,,,,,,,,,576.2601868179627,576.2601868179627,576.2601868179627,576.2601868179627,576.2601868179627,576.2601868179627,s,1,0.4779241253854707,576.750496686087,577.7711540563032,,,,,,,,,,,,,,,,,,,,,,,,,,,,,,,,,,,,,,,578,2023-05-17_09h02.12.492,eb_02psyexp,2022.2.4,99.91067338556135,
18,0,18,0,,,,,,,,,,,,,,,,,,,,,,,,,,,,,,,,,,,,,,,,,,,,,,,,,,,,,,,,,,,577.7711540563032,577.7711540563032,577.7711540563032,577.7711540563032,577.7711540563032,577.7711540563032,l,1,0.43096669332589954,578.2214359494392,579.2421183728147,,,,,,,,,,,,,,,,,,,,,,,,,,,,,,,,,,,,,,,578,2023-05-17_09h02.12.492,eb_02psyexp,2022.2.4,99.91067338556135,
19,0,19,0,,,,,,,,,,,,,,,,,,,,,,,,,,,,,,,,,,,,,,,,,,,,,,,,,,,,,,,,,,,579.2421183728147,579.2421183728147,579.2421183728147,579.2421183728147,579.2421183728147,579.2421183728147,s,1,0.5279941835906357,579.7824433633359,580.803160800715,,,,,,,,,,,,,,,,,,,,,,,,,,,,,,,,,,,,,,,578,2023-05-17_09h02.12.492,eb_02psyexp,2022.2.4,99.91067338556135,
20,0,20,0,,,,,,,,,,,,,,,,,,,,,,,,,,,,,,,,,,,,,,,,,,,,,,,,,,,,,,,,,,,580.803160800715,580.803160800715,580.803160800715,580.803160800715,580.803160800715,580.803160800715,l,1,0.534007842768915,581.3534617704572,582.3741399679566,,,,,,,,,,,,,,,,,,,,,,,,,,,,,,,,,,,,,,,578,2023-05-17_09h02.12.492,eb_02psyexp,2022.2.4,99.91067338556135,
21,0,21,0,,,,,,,,,,,,,,,,,,,,,,,,,,,,,,,,,,,,,,,,,,,,,,,,,,,,,,,,,,,582.3741399679566,582.3741399679566,582.3741399679566,582.3741399679566,582.3741399679566,582.3741399679566,s,1,0.6189877911238,583.0045364294201,,,,,,,,,,,,,,,,,,,,,,,,,,,,,,,,,,,,,,,,578,2023-05-17_09h02.12.492,eb_02psyexp,2022.2.4,99.91067338556135,
22,0,22,0,,,,,,,,,,,,,,,,,,,,,,,,,,,,,,,,,,,,,,,,,,,,,,,,,,,,,,,,,,,584.025510736974,584.025510736974,584.025510736974,584.025510736974,584.025510736974,584.025510736974,l,1,0.48766013770364225,584.5258349184878,585.5461916511413,,,,,,,,,,,,,,,,,,,,,,,,,,,,,,,,,,,,,,,578,2023-05-17_09h02.12.492,eb_02psyexp,2022.2.4,99.91067338556135,
23,0,23,0,,,,,,,,,,,,,,,,,,,,,,,,,,,,,,,,,,,,,,,,,,,,,,,,,,,,,,,,,,,585.5461916511413,585.5461916511413,585.5461916511413,585.5461916511413,585.5461916511413,585.5461916511413,s,1,0.6149663093965501,586.1765672852052,587.197229786776,,,,,,,,,,,,,,,,,,,,,,,,,,,,,,,,,,,,,,,578,2023-05-17_09h02.12.492,eb_02psyexp,2022.2.4,99.91067338556135,
24,0,24,0,,,,,,,,,,,,,,,,,,,,,,,,,,,,,,,,,,,,,,,,,,,,,,,,,,,,,,,,,,,587.197229786776,587.197229786776,587.197229786776,587.197229786776,587.197229786776,587.197229786776,l,1,0.5399544921237975,587.7475890126079,588.7782567723189,,,,,,,,,,,,,,,,,,,,,,,,,,,,,,,,,,,,,,,578,2023-05-17_09h02.12.492,eb_02psyexp,2022.2.4,99.91067338556135,
25,0,25,0,,,,,,,,,,,,,,,,,,,,,,,,,,,,,,,,,,,,,,,,,,,,,,,,,,,,,,,,,,,588.7782567723189,588.7782567723189,588.7782567723189,588.7782567723189,588.7782567723189,588.7782567723189,l,1,0.5349091519601643,589.3286006040871,590.3493074768921,,,,,,,,,,,,,,,,,,,,,,,,,,,,,,,,,,,,,,,578,2023-05-17_09h02.12.492,eb_02psyexp,2022.2.4,99.91067338556135,
26,0,26,0,,,,,,,,,,,,,,,,,,,,,,,,,,,,,,,,,,,,,,,,,,,,,,,,,,,,,,,,,,,590.3493074768921,590.3493074768921,590.3493074768921,590.3493074768921,590.3493074768921,590.3493074768921,s,1,0.547878528595902,590.9096290988382,,,,,,,,,,,,,,,,,,,,,,,,,,,,,,,,,,,,,,,,578,2023-05-17_09h02.12.492,eb_02psyexp,2022.2.4,99.91067338556135,
27,0,27,0,,,,,,,,,,,,,,,,,,,,,,,,,,,,,,,,,,,,,,,,,,,,,,,,,,,,,,,,,,,591.930274999002,591.930274999002,591.930274999002,591.930274999002,591.930274999002,591.930274999002,l,1,0.5189421521499753,592.4609521159437,593.4812952654902,,,,,,,,,,,,,,,,,,,,,,,,,,,,,,,,,,,,,,,578,2023-05-17_09h02.12.492,eb_02psyexp,2022.2.4,99.91067338556135,
28,0,28,0,,,,,,,,,,,,,,,,,,,,,,,,,,,,,,,,,,,,,,,,,,,,,,,,,,,,,,,,,,,593.4812952654902,593.4812952654902,593.4812952654902,593.4812952654902,593.4812952654902,593.4812952654902,l,1,0.7439048591768369,594.2417721564416,595.2724462549668,,,,,,,,,,,,,,,,,,,,,,,,,,,,,,,,,,,,,,,578,2023-05-17_09h02.12.492,eb_02psyexp,2022.2.4,99.91067338556135,
29,0,29,0,,,,,,,,,,,,,,,,,,,,,,,,,,,,,,,,,,,,,,,,,,,,,,,,,,,,,,,,,,,595.2724462549668,595.2724462549668,595.2724462549668,595.2724462549668,595.2724462549668,595.2724462549668,s,1,0.5607673126505688,595.8528260847088,596.8734783235705,,,,,,,,,,,,,,,,,,,,,,,,,,,,,,,,,,,,,,,578,2023-05-17_09h02.12.492,eb_02psyexp,2022.2.4,99.91067338556135,
30,0,30,0,,,,,,,,,,,,,,,,,,,,,,,,,,,,,,,,,,,,,,,,,,,,,,,,,,,,,,,,,,,596.8734783235705,596.8734783235705,596.8734783235705,596.8734783235705,596.8734783235705,596.8734783235705,l,1,0.5187489712843671,597.4038200906944,598.4344860393321,,,,,,,,,,,,,,,,,,,,,,,,,,,,,,,,,,,,,,,578,2023-05-17_09h02.12.492,eb_02psyexp,2022.2.4,99.91067338556135,
31,0,31,0,,,,,,,,,,,,,,,,,,,,,,,,,,,,,,,,,,,,,,,,,,,,,,,,,,,,,,,,,,,598.4344860393321,598.4344860393321,598.4344860393321,598.4344860393321,598.4344860393321,598.4344860393321,s,1,0.4777650530450046,598.9248001333326,,,,,,,,,,,,,,,,,,,,,,,,,,,,,,,,,,,,,,,,578,2023-05-17_09h02.12.492,eb_02psyexp,2022.2.4,99.91067338556135,
32,0,32,0,,,,,,,,,,,,,,,,,,,,,,,,,,,,,,,,,,,,,,,,,,,,,,,,,,,,,,,,,,,599.9457837980008,599.9457837980008,599.9457837980008,599.9457837980008,599.9457837980008,599.9457837980008,l,1,0.4464582873042673,600.4060760806315,601.4364531636238,,,,,,,,,,,,,,,,,,,,,,,,,,,,,,,,,,,,,,,578,2023-05-17_09h02.12.492,eb_02psyexp,2022.2.4,99.91067338556135,
33,0,33,0,,,,,,,,,,,,,,,,,,,,,,,,,,,,,,,,,,,,,,,,,,,,,,,,,,,,,,,,,,,601.4364531636238,601.4364531636238,601.4364531636238,601.4364531636238,601.4364531636238,601.4364531636238,s,1,0.5318206733791158,601.9867761679925,,,,,,,,,,,,,,,,,,,,,,,,,,,,,,,,,,,,,,,,578,2023-05-17_09h02.12.492,eb_02psyexp,2022.2.4,99.91067338556135,
34,0,34,0,,,,,,,,,,,,,,,,,,,,,,,,,,,,,,,,,,,,,,,,,,,,,,,,,,,,,,,,,,,603.0074344438035,603.0074344438035,603.0074344438035,603.0074344438035,603.0074344438035,603.0074344438035,l,1,0.4488437686813995,603.468053624616,604.488453521044,,,,,,,,,,,,,,,,,,,,,,,,,,,,,,,,,,,,,,,578,2023-05-17_09h02.12.492,eb_02psyexp,2022.2.4,99.91067338556135,
35,0,35,0,,,,,,,,,,,,,,,,,,,,,,,,,,,,,,,,,,,,,,,,,,,,,,,,,,,,,,,,,,,604.488453521044,604.488453521044,604.488453521044,604.488453521044,604.488453521044,604.488453521044,s,0,0.47182564774993807,604.9787081514951,,,,,,,,,,,,,,,,,,,,,,,,,,,,,,,,,,,,,,,,578,2023-05-17_09h02.12.492,eb_02psyexp,2022.2.4,99.91067338556135,
36,0,36,0,,,,,,,,,,,,,,,,,,,,,,,,,,,,,,,,,,,,,,,,,,,,,,,,,,,,,,,,,,,606.009682887583,606.009682887583,606.009682887583,606.009682887583,606.009682887583,606.009682887583,s,1,0.614600473199971,606.6401116464986,607.6604330631671,,,,,,,,,,,,,,,,,,,,,,,,,,,,,,,,,,,,,,,578,2023-05-17_09h02.12.492,eb_02psyexp,2022.2.4,99.91067338556135,
37,0,37,0,,,,,,,,,,,,,,,,,,,,,,,,,,,,,,,,,,,,,,,,,,,,,,,,,,,,,,,,,,,607.6604330631671,607.6604330631671,607.6604330631671,607.6604330631671,607.6604330631671,607.6604330631671,l,1,0.6438598239328712,608.3208609949797,609.3415862802649,,,,,,,,,,,,,,,,,,,,,,,,,,,,,,,,,,,,,,,578,2023-05-17_09h02.12.492,eb_02psyexp,2022.2.4,99.91067338556135,
38,0,38,0,,,,,,,,,,,,,,,,,,,,,,,,,,,,,,,,,,,,,,,,,,,,,,,,,,,,,,,,,,,609.3415862802649,609.3415862802649,609.3415862802649,609.3415862802649,609.3415862802649,609.3415862802649,l,1,0.6827196584781632,610.0419709515991,,,,,,,,,,,,,,,,,,,,,,,,,,,,,,,,,,,,,,,,578,2023-05-17_09h02.12.492,eb_02psyexp,2022.2.4,99.91067338556135,
39,0,39,0,,,,,,,,,,,,,,,,,,,,,,,,,,,,,,,,,,,,,,,,,,,,,,,,,,,,,,,,,,,611.0730060568312,611.0730060568312,611.0730060568312,611.0730060568312,611.0730060568312,611.0730060568312,s,1,0.7033015675842762,611.7931153972168,612.8137625047239,,,,,,,,,,,,,,,,,,,,,,,,,,,,,,,,,,,,,,,578,2023-05-17_09h02.12.492,eb_02psyexp,2022.2.4,99.91067338556135,
40,0,40,0,,,,,,,,,,,,,,,,,,,,,,,,,,,,,,,,,,,,,,,,,,,,,,,,,,,,,,,,,,,612.8137625047239,612.8137625047239,612.8137625047239,612.8137625047239,612.8137625047239,612.8137625047239,l,1,0.4895376139320433,613.3140966471983,614.3347440565703,,,,,,,,,,,,,,,,,,,,,,,,,,,,,,,,,,,,,,,578,2023-05-17_09h02.12.492,eb_02psyexp,2022.2.4,99.91067338556135,
41,0,41,0,,,,,,,,,,,,,,,,,,,,,,,,,,,,,,,,,,,,,,,,,,,,,,,,,,,,,,,,,,,614.3347440565703,614.3347440565703,614.3347440565703,614.3347440565703,614.3347440565703,614.3347440565703,l,1,0.5206376158166677,614.8750898743747,,,,,,,,,,,,,,,,,,,,,,,,,,,,,,,,,,,,,,,,578,2023-05-17_09h02.12.492,eb_02psyexp,2022.2.4,99.91067338556135,
42,0,42,0,,,,,,,,,,,,,,,,,,,,,,,,,,,,,,,,,,,,,,,,,,,,,,,,,,,,,,,,,,,615.8957520740805,615.8957520740805,615.8957520740805,615.8957520740805,615.8957520740805,615.8957520740805,l,1,0.48756747134029865,616.3963974189246,617.4167348333867,,,,,,,,,,,,,,,,,,,,,,,,,,,,,,,,,,,,,,,578,2023-05-17_09h02.12.492,eb_02psyexp,2022.2.4,99.91067338556135,
43,0,43,0,,,,,,,,,,,,,,,,,,,,,,,,,,,,,,,,,,,,,,,,,,,,,,,,,,,,,,,,,,,617.4167348333867,617.4167348333867,617.4167348333867,617.4167348333867,617.4167348333867,617.4167348333867,s,1,0.5186101226136088,617.9470759967808,,,,,,,,,,,,,,,,,,,,,,,,,,,,,,,,,,,,,,,,578,2023-05-17_09h02.12.492,eb_02psyexp,2022.2.4,99.91067338556135,
44,0,44,0,,,,,,,,,,,,,,,,,,,,,,,,,,,,,,,,,,,,,,,,,,,,,,,,,,,,,,,,,,,618.9677339707268,618.9677339707268,618.9677339707268,618.9677339707268,618.9677339707268,618.9677339707268,l,1,0.49562130111735314,619.4783954399172,620.5087302646134,,,,,,,,,,,,,,,,,,,,,,,,,,,,,,,,,,,,,,,578,2023-05-17_09h02.12.492,eb_02psyexp,2022.2.4,99.91067338556135,
45,0,45,0,,,,,,,,,,,,,,,,,,,,,,,,,,,,,,,,,,,,,,,,,,,,,,,,,,,,,,,,,,,620.5087302646134,620.5087302646134,620.5087302646134,620.5087302646134,620.5087302646134,620.5087302646134,s,1,0.6986404760973528,621.2191862981999,622.2398445738945,,,,,,,,,,,,,,,,,,,,,,,,,,,,,,,,,,,,,,,578,2023-05-17_09h02.12.492,eb_02psyexp,2022.2.4,99.91067338556135,
46,0,46,0,,,,,,,,,,,,,,,,,,,,,,,,,,,,,,,,,,,,,,,,,,,,,,,,,,,,,,,,,,,622.2398445738945,622.2398445738945,622.2398445738945,622.2398445738945,622.2398445738945,622.2398445738945,l,1,0.5115418167551979,622.7701872466132,623.7908328447957,,,,,,,,,,,,,,,,,,,,,,,,,,,,,,,,,,,,,,,578,2023-05-17_09h02.12.492,eb_02psyexp,2022.2.4,99.91067338556135,
47,0,47,0,,,,,,,,,,,,,,,,,,,,,,,,,,,,,,,,,,,,,,,,,,,,,,,,,,,,,,,,,,,623.7908328447957,623.7908328447957,623.7908328447957,623.7908328447957,623.7908328447957,623.7908328447957,l,1,0.48053659428842366,624.2911697039381,625.3118832173059,,,,,,,,,,,,,,,,,,,,,,,,,,,,,,,,,,,,,,,578,2023-05-17_09h02.12.492,eb_02psyexp,2022.2.4,99.91067338556135,
48,0,48,0,,,,,,,,,,,,,,,,,,,,,,,,,,,,,,,,,,,,,,,,,,,,,,,,,,,,,,,,,,,625.3118832173059,625.3118832173059,625.3118832173059,625.3118832173059,625.3118832173059,625.3118832173059,l,1,0.7995183019666001,626.122375230887,627.14301177382,,,,,,,,,,,,,,,,,,,,,,,,,,,,,,,,,,,,,,,578,2023-05-17_09h02.12.492,eb_02psyexp,2022.2.4,99.91067338556135,
49,0,49,0,,,,,,,,,,,,,,,,,,,,,,,,,,,,,,,,,,,,,,,,,,,,,,,,,,,,,,,,,,,627.14301177382,627.14301177382,627.14301177382,627.14301177382,627.14301177382,627.14301177382,l,1,0.4483973399037495,627.6032983213663,628.6240278325276,,,,,,,,,,,,,,,,,,,,,,,,,,,,,,,,,,,,,,,578,2023-05-17_09h02.12.492,eb_02psyexp,2022.2.4,99.91067338556135,
50,0,50,0,,,,,,,,,,,,,,,,,,,,,,,,,,,,,,,,,,,,,,,,,,,,,,,,,,,,,,,,,,,628.6240278325276,628.6240278325276,628.6240278325276,628.6240278325276,628.6240278325276,628.6240278325276,l,1,0.6623481354909018,629.3044044023845,630.3350504292175,,,,,,,,,,,,,,,,,,,,,,,,,,,,,,,,,,,,,,,578,2023-05-17_09h02.12.492,eb_02psyexp,2022.2.4,99.91067338556135,
51,0,51,0,,,,,,,,,,,,,,,,,,,,,,,,,,,,,,,,,,,,,,,,,,,,,,,,,,,,,,,,,,,630.3350504292175,630.3350504292175,630.3350504292175,630.3350504292175,630.3350504292175,630.3350504292175,l,0,0.4073762947227806,630.7553416010924,631.7760004805168,,,,,,,,,,,,,,,,,,,,,,,,,,,,,,,,,,,,,,,578,2023-05-17_09h02.12.492,eb_02psyexp,2022.2.4,99.91067338556135,
52,0,52,0,,,,,,,,,,,,,,,,,,,,,,,,,,,,,,,,,,,,,,,,,,,,,,,,,,,,,,,,,,,631.7760004805168,631.7760004805168,631.7760004805168,631.7760004805168,631.7760004805168,631.7760004805168,s,1,0.5424480342771858,632.3363513814984,633.367026083637,,,,,,,,,,,,,,,,,,,,,,,,,,,,,,,,,,,,,,,578,2023-05-17_09h02.12.492,eb_02psyexp,2022.2.4,99.91067338556135,
53,0,53,0,,,,,,,,,,,,,,,,,,,,,,,,,,,,,,,,,,,,,,,,,,,,,,,,,,,,,,,,,,,633.367026083637,633.367026083637,633.367026083637,633.367026083637,633.367026083637,633.367026083637,s,1,0.5354017631616443,633.9173747448949,,,,,,,,,,,,,,,,,,,,,,,,,,,,,,,,,,,,,,,,578,2023-05-17_09h02.12.492,eb_02psyexp,2022.2.4,99.91067338556135,
54,0,54,0,,,,,,,,,,,,,,,,,,,,,,,,,,,,,,,,,,,,,,,,,,,,,,,,,,,,,,,,,,,634.9383641446475,634.9383641446475,634.9383641446475,634.9383641446475,634.9383641446475,634.9383641446475,l,1,1.7640765607357025,636.7191953535657,637.7498579819221,,,,,,,,,,,,,,,,,,,,,,,,,,,,,,,,,,,,,,,578,2023-05-17_09h02.12.492,eb_02psyexp,2022.2.4,99.91067338556135,
55,0,55,0,,,,,,,,,,,,,,,,,,,,,,,,,,,,,,,,,,,,,,,,,,,,,,,,,,,,,,,,,,,637.7498579819221,637.7498579819221,637.7498579819221,637.7498579819221,637.7498579819221,637.7498579819221,s,1,0.6565961760934442,638.4202890589368,639.4409935169388,,,,,,,,,,,,,,,,,,,,,,,,,,,,,,,,,,,,,,,578,2023-05-17_09h02.12.492,eb_02psyexp,2022.2.4,99.91067338556135,
56,0,56,0,,,,,,,,,,,,,,,,,,,,,,,,,,,,,,,,,,,,,,,,,,,,,,,,,,,,,,,,,,,639.4409935169388,639.4409935169388,639.4409935169388,639.4409935169388,639.4409935169388,639.4409935169388,l,1,0.8454799470491707,640.3015003510518,641.3321693182224,,,,,,,,,,,,,,,,,,,,,,,,,,,,,,,,,,,,,,,578,2023-05-17_09h02.12.492,eb_02psyexp,2022.2.4,99.91067338556135,
57,0,57,0,,,,,,,,,,,,,,,,,,,,,,,,,,,,,,,,,,,,,,,,,,,,,,,,,,,,,,,,,,,641.3321693182224,641.3321693182224,641.3321693182224,641.3321693182224,641.3321693182224,641.3321693182224,s,1,0.5463563239900395,641.892534405808,,,,,,,,,,,,,,,,,,,,,,,,,,,,,,,,,,,,,,,,578,2023-05-17_09h02.12.492,eb_02psyexp,2022.2.4,99.91067338556135,
58,0,58,0,,,,,,,,,,,,,,,,,,,,,,,,,,,,,,,,,,,,,,,,,,,,,,,,,,,,,,,,,,,642.9135075060185,642.9135075060185,642.9135075060185,642.9135075060185,642.9135075060185,642.9135075060185,l,1,0.5089776430977508,643.4338403927395,644.4541684500873,,,,,,,,,,,,,,,,,,,,,,,,,,,,,,,,,,,,,,,578,2023-05-17_09h02.12.492,eb_02psyexp,2022.2.4,99.91067338556135,
59,0,59,0,,,,,,,,,,,,,,,,,,,,,,,,,,,,,,,,,,,,,,,,,,,,,,,,,,,,,,,,,,,644.4541684500873,644.4541684500873,644.4541684500873,644.4541684500873,644.4541684500873,644.4541684500873,l,1,0.5193236842751503,644.9845265167532,,,,,,,,,,,,,,,,,,,,,,,,,,,,,,,,,,,,,,,,578,2023-05-17_09h02.12.492,eb_02psyexp,2022.2.4,99.91067338556135,
60,0,60,0,,,,,,,,,,,,,,,,,,,,,,,,,,,,,,,,,,,,,,,,,,,,,,,,,,,,,,,,,,,646.0151927672559,646.0151927672559,646.0151927672559,646.0151927672559,646.0151927672559,646.0151927672559,s,1,0.5983219691552222,646.625935191405,647.6562525090994,,,,,,,,,,,,,,,,,,,,,,,,,,,,,,,,,,,,,,,578,2023-05-17_09h02.12.492,eb_02psyexp,2022.2.4,99.91067338556135,
61,0,61,0,,,,,,,,,,,,,,,,,,,,,,,,,,,,,,,,,,,,,,,,,,,,,,,,,,,,,,,,,,,647.6562525090994,647.6562525090994,647.6562525090994,647.6562525090994,647.6562525090994,647.6562525090994,l,1,0.48524899943731725,648.1565857459791,649.1872393190861,,,,,,,,,,,,,,,,,,,,,,,,,,,,,,,,,,,,,,,578,2023-05-17_09h02.12.492,eb_02psyexp,2022.2.4,99.91067338556135,
62,0,62,0,,,,,,,,,,,,,,,,,,,,,,,,,,,,,,,,,,,,,,,,,,,,,,,,,,,,,,,,,,,649.1872393190861,649.1872393190861,649.1872393190861,649.1872393190861,649.1872393190861,649.1872393190861,s,1,0.5302743210922927,649.7276204527589,650.748248544056,,,,,,,,,,,,,,,,,,,,,,,,,,,,,,,,,,,,,,,578,2023-05-17_09h02.12.492,eb_02psyexp,2022.2.4,99.91067338556135,
63,0,63,0,,,,,,,,,,,,,,,,,,,,,,,,,,,,,,,,,,,,,,,,,,,,,,,,,,,,,,,,,,,650.748248544056,650.748248544056,650.748248544056,650.748248544056,650.748248544056,650.748248544056,s,1,0.8332784642698243,651.5988464085385,652.6294559121598,,,,,,,,,,,,,,,,,,,,,,,,,,,,,,,,,,,,,,,578,2023-05-17_09h02.12.492,eb_02psyexp,2022.2.4,99.91067338556135,
64,0,64,0,,,,,,,,,,,,,,,,,,,,,,,,,,,,,,,,,,,,,,,,,,,,,,,,,,,,,,,,,,,652.6294559121598,652.6294559121598,652.6294559121598,652.6294559121598,652.6294559121598,652.6294559121598,s,1,0.45607416529674083,653.0997573769419,654.1204262173269,,,,,,,,,,,,,,,,,,,,,,,,,,,,,,,,,,,,,,,578,2023-05-17_09h02.12.492,eb_02psyexp,2022.2.4,99.91067338556135,
65,0,65,0,,,,,,,,,,,,,,,,,,,,,,,,,,,,,,,,,,,,,,,,,,,,,,,,,,,,,,,,,,,654.1204262173269,654.1204262173269,654.1204262173269,654.1204262173269,654.1204262173269,654.1204262173269,l,1,0.4611306737642735,654.6007217719452,655.6314121700125,,,,,,,,,,,,,,,,,,,,,,,,,,,,,,,,,,,,,,,578,2023-05-17_09h02.12.492,eb_02psyexp,2022.2.4,99.91067338556135,
66,0,66,0,,,,,,,,,,,,,,,,,,,,,,,,,,,,,,,,,,,,,,,,,,,,,,,,,,,,,,,,,,,655.6314121700125,655.6314121700125,655.6314121700125,655.6314121700125,655.6314121700125,655.6314121700125,s,1,0.6621323162689805,656.3118430719478,657.3325571890455,,,,,,,,,,,,,,,,,,,,,,,,,,,,,,,,,,,,,,,578,2023-05-17_09h02.12.492,eb_02psyexp,2022.2.4,99.91067338556135,
67,0,67,0,,,,,,,,,,,,,,,,,,,,,,,,,,,,,,,,,,,,,,,,,,,,,,,,,,,,,,,,,,,657.3325571890455,657.3325571890455,657.3325571890455,657.3325571890455,657.3325571890455,657.3325571890455,l,1,0.5850118094822392,657.9328832421452,,,,,,,,,,,,,,,,,,,,,,,,,,,,,,,,,,,,,,,,578,2023-05-17_09h02.12.492,eb_02psyexp,2022.2.4,99.91067338556135,
68,0,68,0,,,,,,,,,,,,,,,,,,,,,,,,,,,,,,,,,,,,,,,,,,,,,,,,,,,,,,,,,,,658.9635600572219,658.9635600572219,658.9635600572219,658.9635600572219,658.9635600572219,658.9635600572219,s,1,0.5450568810338154,659.524231517571,660.5445716487011,,,,,,,,,,,,,,,,,,,,,,,,,,,,,,,,,,,,,,,578,2023-05-17_09h02.12.492,eb_02psyexp,2022.2.4,99.91067338556135,
69,0,69,0,,,,,,,,,,,,,,,,,,,,,,,,,,,,,,,,,,,,,,,,,,,,,,,,,,,,,,,,,,,660.5445716487011,660.5445716487011,660.5445716487011,660.5445716487011,660.5445716487011,660.5445716487011,s,1,0.5559972551418468,661.1149432017701,662.1355996665079,,,,,,,,,,,,,,,,,,,,,,,,,,,,,,,,,,,,,,,578,2023-05-17_09h02.12.492,eb_02psyexp,2022.2.4,99.91067338556135,
70,0,70,0,,,,,,,,,,,,,,,,,,,,,,,,,,,,,,,,,,,,,,,,,,,,,,,,,,,,,,,,,,,662.1355996665079,662.1355996665079,662.1355996665079,662.1355996665079,662.1355996665079,662.1355996665079,l,1,0.5489953552605584,662.6959581135307,663.7266240622848,,,,,,,,,,,,,,,,,,,,,,,,,,,,,,,,,,,,,,,578,2023-05-17_09h02.12.492,eb_02psyexp,2022.2.4,99.91067338556135,
71,0,71,0,,,,,,,,,,,,,,,,,,,,,,,,,,,,,,,,,,,,,,,,,,,,,,,,,,,,,,,,,,,663.7266240622848,663.7266240622848,663.7266240622848,663.7266240622848,663.7266240622848,663.7266240622848,s,1,0.5099755428964272,664.2469521195162,665.2676152248168,,,,,,,,,,,,,,,,,,,,,,,,,,,,,,,,,,,,,,,578,2023-05-17_09h02.12.492,eb_02psyexp,2022.2.4,99.91067338556135,
72,0,72,0,,,,,,,,,,,,,,,,,,,,,,,,,,,,,,,,,,,,,,,,,,,,,,,,,,,,,,,,,,,665.2676152248168,665.2676152248168,665.2676152248168,665.2676152248168,665.2676152248168,665.2676152248168,l,1,0.4810615028254688,665.7679472543532,666.7886357146781,,,,,,,,,,,,,,,,,,,,,,,,,,,,,,,,,,,,,,,578,2023-05-17_09h02.12.492,eb_02psyexp,2022.2.4,99.91067338556135,
73,0,73,0,,,,,,,,,,,,,,,,,,,,,,,,,,,,,,,,,,,,,,,,,,,,,,,,,,,,,,,,,,,666.7886357146781,666.7886357146781,666.7886357146781,666.7886357146781,666.7886357146781,666.7886357146781,s,1,0.5279987113317475,667.3289492351469,668.3596157875145,,,,,,,,,,,,,,,,,,,,,,,,,,,,,,,,,,,,,,,578,2023-05-17_09h02.12.492,eb_02psyexp,2022.2.4,99.91067338556135,
74,0,74,0,,,,,,,,,,,,,,,,,,,,,,,,,,,,,,,,,,,,,,,,,,,,,,,,,,,,,,,,,,,668.3596157875145,668.3596157875145,668.3596157875145,668.3596157875145,668.3596157875145,668.3596157875145,s,1,0.5570274522760883,668.9299825110938,,,,,,,,,,,,,,,,,,,,,,,,,,,,,,,,,,,,,,,,578,2023-05-17_09h02.12.492,eb_02psyexp,2022.2.4,99.91067338556135,
75,0,75,0,,,,,,,,,,,,,,,,,,,,,,,,,,,,,,,,,,,,,,,,,,,,,,,,,,,,,,,,,,,669.9509634592105,669.9509634592105,669.9509634592105,669.9509634592105,669.9509634592105,669.9509634592105,l,1,0.4456843566149473,670.4112614769256,671.4316182094626,,,,,,,,,,,,,,,,,,,,,,,,,,,,,,,,,,,,,,,578,2023-05-17_09h02.12.492,eb_02psyexp,2022.2.4,99.91067338556135,
76,0,76,0,,,,,,,,,,,,,,,,,,,,,,,,,,,,,,,,,,,,,,,,,,,,,,,,,,,,,,,,,,,671.4316182094626,671.4316182094626,671.4316182094626,671.4316182094626,671.4316182094626,671.4316182094626,s,1,0.6290153858717531,672.0720051386161,673.0926649236353,,,,,,,,,,,,,,,,,,,,,,,,,,,,,,,,,,,,,,,578,2023-05-17_09h02.12.492,eb_02psyexp,2022.2.4,99.91067338556135,
77,0,77,0,,,,,,,,,,,,,,,,,,,,,,,,,,,,,,,,,,,,,,,,,,,,,,,,,,,,,,,,,,,673.0926649236353,673.0926649236353,673.0926649236353,673.0926649236353,673.0926649236353,673.0926649236353,l,1,0.45602315349970013,673.5629745381884,674.5836494154064,,,,,,,,,,,,,,,,,,,,,,,,,,,,,,,,,,,,,,,578,2023-05-17_09h02.12.492,eb_02psyexp,2022.2.4,99.91067338556135,
78,0,78,0,,,,,,,,,,,,,,,,,,,,,,,,,,,,,,,,,,,,,,,,,,,,,,,,,,,,,,,,,,,674.5836494154064,674.5836494154064,674.5836494154064,674.5836494154064,674.5836494154064,674.5836494154064,s,1,0.548004699870944,675.1440078624291,676.164664327167,,,,,,,,,,,,,,,,,,,,,,,,,,,,,,,,,,,,,,,578,2023-05-17_09h02.12.492,eb_02psyexp,2022.2.4,99.91067338556135,
79,0,79,0,,,,,,,,,,,,,,,,,,,,,,,,,,,,,,,,,,,,,,,,,,,,,,,,,,,,,,,,,,,676.164664327167,676.164664327167,676.164664327167,676.164664327167,676.164664327167,676.164664327167,l,1,0.49500553717371076,676.6749838059768,677.6956707570935,,,,,,,,,,,,,,,,,,,,,,,,,,,,,,,,,,,,,,,578,2023-05-17_09h02.12.492,eb_02psyexp,2022.2.4,99.91067338556135,
80,0,80,0,,,,,,,,,,,,,,,,,,,,,,,,,,,,,,,,,,,,,,,,,,,,,,,,,,,,,,,,,,,677.6956707570935,677.6956707570935,677.6956707570935,677.6956707570935,677.6956707570935,677.6956707570935,s,1,0.6600115529727191,678.3660749698756,679.3867326419568,,,,,,,,,,,,,,,,,,,,,,,,,,,,,,,,,,,,,,,578,2023-05-17_09h02.12.492,eb_02psyexp,2022.2.4,99.91067338556135,
81,0,81,0,,,,,,,,,,,,,,,,,,,,,,,,,,,,,,,,,,,,,,,,,,,,,,,,,,,,,,,,,,,679.3867326419568,679.3867326419568,679.3867326419568,679.3867326419568,679.3867326419568,679.3867326419568,l,1,0.5449633090756834,679.9470956167206,680.9777648856398,,,,,,,,,,,,,,,,,,,,,,,,,,,,,,,,,,,,,,,578,2023-05-17_09h02.12.492,eb_02psyexp,2022.2.4,99.91067338556135,
82,0,82,0,,,,,,,,,,,,,,,,,,,,,,,,,,,,,,,,,,,,,,,,,,,,,,,,,,,,,,,,,,,680.9777648856398,680.9777648856398,680.9777648856398,680.9777648856398,680.9777648856398,680.9777648856398,s,1,0.7459263155469671,681.7382577745011,682.7589021653403,,,,,,,,,,,,,,,,,,,,,,,,,,,,,,,,,,,,,,,578,2023-05-17_09h02.12.492,eb_02psyexp,2022.2.4,99.91067338556135,
83,0,83,0,,,,,,,,,,,,,,,,,,,,,,,,,,,,,,,,,,,,,,,,,,,,,,,,,,,,,,,,,,,682.7589021653403,682.7589021653403,682.7589021653403,682.7589021653403,682.7589021653403,682.7589021653403,l,1,0.740878258831799,683.5194019966293,684.5401082658209,,,,,,,,,,,,,,,,,,,,,,,,,,,,,,,,,,,,,,,578,2023-05-17_09h02.12.492,eb_02psyexp,2022.2.4,99.91067338556135,
84,0,84,0,,,,,,,,,,,,,,,,,,,,,,,,,,,,,,,,,,,,,,,,,,,,,,,,,,,,,,,,,,,684.5401082658209,684.5401082658209,684.5401082658209,684.5401082658209,684.5401082658209,684.5401082658209,l,1,0.9036071554291993,685.4606472523883,686.4913234638516,,,,,,,,,,,,,,,,,,,,,,,,,,,,,,,,,,,,,,,578,2023-05-17_09h02.12.492,eb_02psyexp,2022.2.4,99.91067338556135,
85,0,85,0,,,,,,,,,,,,,,,,,,,,,,,,,,,,,,,,,,,,,,,,,,,,,,,,,,,,,,,,,,,686.4913234638516,686.4913234638516,686.4913234638516,686.4913234638516,686.4913234638516,686.4913234638516,l,1,0.5604715044610202,687.0616989409318,688.0923546268605,,,,,,,,,,,,,,,,,,,,,,,,,,,,,,,,,,,,,,,578,2023-05-17_09h02.12.492,eb_02psyexp,2022.2.4,99.91067338556135,
86,0,86,0,,,,,,,,,,,,,,,,,,,,,,,,,,,,,,,,,,,,,,,,,,,,,,,,,,,,,,,,,,,688.0923546268605,688.0923546268605,688.0923546268605,688.0923546268605,688.0923546268605,688.0923546268605,s,1,0.4873833457240835,688.592709898483,689.6133506672923,,,,,,,,,,,,,,,,,,,,,,,,,,,,,,,,,,,,,,,578,2023-05-17_09h02.12.492,eb_02psyexp,2022.2.4,99.91067338556135,
87,0,87,0,,,,,,,,,,,,,,,,,,,,,,,,,,,,,,,,,,,,,,,,,,,,,,,,,,,,,,,,,,,689.6133506672923,689.6133506672923,689.6133506672923,689.6133506672923,689.6133506672923,689.6133506672923,l,1,0.4944217688171193,690.1236586760497,691.1443414012901,,,,,,,,,,,,,,,,,,,,,,,,,,,,,,,,,,,,,,,578,2023-05-17_09h02.12.492,eb_02psyexp,2022.2.4,99.91067338556135,
88,0,88,0,,,,,,,,,,,,,,,,,,,,,,,,,,,,,,,,,,,,,,,,,,,,,,,,,,,,,,,,,,,691.1443414012901,691.1443414012901,691.1443414012901,691.1443414012901,691.1443414012901,691.1443414012901,s,1,0.5384159878594801,691.6946704426082,692.7153423014097,,,,,,,,,,,,,,,,,,,,,,,,,,,,,,,,,,,,,,,578,2023-05-17_09h02.12.492,eb_02psyexp,2022.2.4,99.91067338556135,
89,0,89,0,,,,,,,,,,,,,,,,,,,,,,,,,,,,,,,,,,,,,,,,,,,,,,,,,,,,,,,,,,,692.7153423014097,692.7153423014097,692.7153423014097,692.7153423014097,692.7153423014097,692.7153423014097,l,1,0.4474220785778016,693.1756382060703,694.2063020418864,,,,,,,,,,,,,,,,,,,,,,,,,,,,,,,,,,,,,,,578,2023-05-17_09h02.12.492,eb_02psyexp,2022.2.4,99.91067338556135,
90,0,90,0,,,,,,,,,,,,,,,,,,,,,,,,,,,,,,,,,,,,,,,,,,,,,,,,,,,,,,,,,,,694.2063020418864,694.2063020418864,694.2063020418864,694.2063020418864,694.2063020418864,694.2063020418864,s,1,0.6524744818452746,694.876749720308,695.897376000532,,,,,,,,,,,,,,,,,,,,,,,,,,,,,,,,,,,,,,,578,2023-05-17_09h02.12.492,eb_02psyexp,2022.2.4,99.91067338556135,
91,0,91,0,,,,,,,,,,,,,,,,,,,,,,,,,,,,,,,,,,,,,,,,,,,,,,,,,,,,,,,,,,,695.897376000532,695.897376000532,695.897376000532,695.897376000532,695.897376000532,695.897376000532,l,1,0.5134105395991355,696.4277352746576,697.4483977762284,,,,,,,,,,,,,,,,,,,,,,,,,,,,,,,,,,,,,,,578,2023-05-17_09h02.12.492,eb_02psyexp,2022.2.4,99.91067338556135,
92,0,92,0,,,,,,,,,,,,,,,,,,,,,,,,,,,,,,,,,,,,,,,,,,,,,,,,,,,,,,,,,,,697.4483977762284,697.4483977762284,697.4483977762284,697.4483977762284,697.4483977762284,697.4483977762284,l,1,0.49040572030935436,697.9487104876898,,,,,,,,,,,,,,,,,,,,,,,,,,,,,,,,,,,,,,,,578,2023-05-17_09h02.12.492,eb_02psyexp,2022.2.4,99.91067338556135,
93,0,93,0,,,,,,,,,,,,,,,,,,,,,,,,,,,,,,,,,,,,,,,,,,,,,,,,,,,,,,,,,,,698.9696968691424,698.9696968691424,698.9696968691424,698.9696968691424,698.9696968691424,698.9696968691424,s,1,0.5291070862440392,699.5100565718021,700.5404055832187,,,,,,,,,,,,,,,,,,,,,,,,,,,,,,,,,,,,,,,578,2023-05-17_09h02.12.492,eb_02psyexp,2022.2.4,99.91067338556135,
94,0,94,0,,,,,,,,,,,,,,,,,,,,,,,,,,,,,,,,,,,,,,,,,,,,,,,,,,,,,,,,,,,700.5404055832187,700.5404055832187,700.5404055832187,700.5404055832187,700.5404055832187,700.5404055832187,s,1,0.3824131047585979,700.9406629966106,,,,,,,,,,,,,,,,,,,,,,,,,,,,,,,,,,,,,,,,578,2023-05-17_09h02.12.492,eb_02psyexp,2022.2.4,99.91067338556135,
95,0,95,0,,,,,,,,,,,,,,,,,,,,,,,,,,,,,,,,,,,,,,,,,,,,,,,,,,,,,,,,,,,701.9616312673315,701.9616312673315,701.9616312673315,701.9616312673315,701.9616312673315,701.9616312673315,l,1,0.5372037781635299,702.5119986429345,703.5323399814079,,,,,,,,,,,,,,,,,,,,,,,,,,,,,,,,,,,,,,,578,2023-05-17_09h02.12.492,eb_02psyexp,2022.2.4,99.91067338556135,
96,0,96,0,,,,,,,,,,,,,,,,,,,,,,,,,,,,,,,,,,,,,,,,,,,,,,,,,,,,,,,,,,,703.5323399814079,703.5323399814079,703.5323399814079,703.5323399814079,703.5323399814079,703.5323399814079,l,1,0.44648847181815654,703.9926195865264,,,,,,,,,,,,,,,,,,,,,,,,,,,,,,,,,,,,,,,,578,2023-05-17_09h02.12.492,eb_02psyexp,2022.2.4,99.91067338556135,
97,0,97,0,,,,,,,,,,,,,,,,,,,,,,,,,,,,,,,,,,,,,,,,,,,,,,,,,,,,,,,,,,,705.013638868928,705.013638868928,705.013638868928,705.013638868928,705.013638868928,705.013638868928,s,1,0.5162617680616677,705.5439444145886,706.5642830365105,,,,,,,,,,,,,,,,,,,,,,,,,,,,,,,,,,,,,,,578,2023-05-17_09h02.12.492,eb_02psyexp,2022.2.4,99.91067338556135,
98,0,98,0,,,,,,,,,,,,,,,,,,,,,,,,,,,,,,,,,,,,,,,,,,,,,,,,,,,,,,,,,,,706.5642830365105,706.5642830365105,706.5642830365105,706.5642830365105,706.5642830365105,706.5642830365105,l,1,0.5175621164962649,707.0946238980396,708.1153295635013,,,,,,,,,,,,,,,,,,,,,,,,,,,,,,,,,,,,,,,578,2023-05-17_09h02.12.492,eb_02psyexp,2022.2.4,99.91067338556135,
99,0,99,0,,,,,,,,,,,,,,,,,,,,,,,,,,,,,,,,,,,,,,,,,,,,,,,,,,,,,,,,,,,708.1153295635013,708.1153295635013,708.1153295635013,708.1153295635013,708.1153295635013,708.1153295635013,l,1,0.6545315558323637,708.785717476625,709.8163828216493,,,,,,,,,,,,,,,,,,,,,,,,,,,,,,,,,,,,,,,578,2023-05-17_09h02.12.492,eb_02psyexp,2022.2.4,99.91067338556135,
100,0,100,0,,,,,,,,,,,,,,,,,,,,,,,,,,,,,,,,,,,,,,,,,,,,,,,,,,,,,,,,,,,709.8163828216493,709.8163828216493,709.8163828216493,709.8163828216493,709.8163828216493,709.8163828216493,s,1,0.633472429937683,710.4668230023235,711.4874637710163,,,,,,,,,,,,,,,,,,,,,,,,,,,,,,,,,,,,,,,578,2023-05-17_09h02.12.492,eb_02psyexp,2022.2.4,99.91067338556135,
101,0,101,0,,,,,,,,,,,,,,,,,,,,,,,,,,,,,,,,,,,,,,,,,,,,,,,,,,,,,,,,,,,711.4874637710163,711.4874637710163,711.4874637710163,711.4874637710163,711.4874637710163,711.4874637710163,l,1,0.46641235845163465,711.9677816622425,,,,,,,,,,,,,,,,,,,,,,,,,,,,,,,,,,,,,,,,578,2023-05-17_09h02.12.492,eb_02psyexp,2022.2.4,99.91067338556135,
102,0,102,0,,,,,,,,,,,,,,,,,,,,,,,,,,,,,,,,,,,,,,,,,,,,,,,,,,,,,,,,,,,712.9887544604717,712.9887544604717,712.9887544604717,712.9887544604717,712.9887544604717,712.9887544604717,s,1,0.5251215242315084,713.5290909211617,714.5494853843702,,,,,,,,,,,,,,,,,,,,,,,,,,,,,,,,,,,,,,,578,2023-05-17_09h02.12.492,eb_02psyexp,2022.2.4,99.91067338556135,
103,0,103,0,,,,,,,,,,,,,,,,,,,,,,,,,,,,,,,,,,,,,,,,,,,,,,,,,,,,,,,,,,,714.5494853843702,714.5494853843702,714.5494853843702,714.5494853843702,714.5494853843702,714.5494853843702,s,1,0.6363979121670127,715.1998944749357,716.220567239332,,,,,,,,,,,,,,,,,,,,,,,,,,,,,,,,,,,,,,,578,2023-05-17_09h02.12.492,eb_02psyexp,2022.2.4,99.91067338556135,
104,0,104,0,,,,,,,,,,,,,,,,,,,,,,,,,,,,,,,,,,,,,,,,,,,,,,,,,,,,,,,,,,,716.220567239332,716.220567239332,716.220567239332,716.220567239332,716.220567239332,716.220567239332,l,1,0.6373481204500422,716.8709718022728,717.9016024350422,,,,,,,,,,,,,,,,,,,,,,,,,,,,,,,,,,,,,,,578,2023-05-17_09h02.12.492,eb_02psyexp,2022.2.4,99.91067338556135,
105,0,105,0,,,,,,,,,,,,,,,,,,,,,,,,,,,,,,,,,,,,,,,,,,,,,,,,,,,,,,,,,,,717.9016024350422,717.9016024350422,717.9016024350422,717.9016024350422,717.9016024350422,717.9016024350422,s,1,0.6763030362781137,718.5920545929112,719.6127548251534,,,,,,,,,,,,,,,,,,,,,,,,,,,,,,,,,,,,,,,578,2023-05-17_09h02.12.492,eb_02psyexp,2022.2.4,99.91067338556135,
106,0,106,0,,,,,,,,,,,,,,,,,,,,,,,,,,,,,,,,,,,,,,,,,,,,,,,,,,,,,,,,,,,719.6127548251534,719.6127548251534,719.6127548251534,719.6127548251534,719.6127548251534,719.6127548251534,l,1,0.5812103729695082,720.2130772559904,721.2437598061515,,,,,,,,,,,,,,,,,,,,,,,,,,,,,,,,,,,,,,,578,2023-05-17_09h02.12.492,eb_02psyexp,2022.2.4,99.91067338556135,
107,0,107,0,,,,,,,,,,,,,,,,,,,,,,,,,,,,,,,,,,,,,,,,,,,,,,,,,,,,,,,,,,,721.2437598061515,721.2437598061515,721.2437598061515,721.2437598061515,721.2437598061515,721.2437598061515,l,1,0.8371432883432135,722.0943024330772,723.1149730845354,,,,,,,,,,,,,,,,,,,,,,,,,,,,,,,,,,,,,,,578,2023-05-17_09h02.12.492,eb_02psyexp,2022.2.4,99.91067338556135,
108,0,108,0,,,,,,,,,,,,,,,,,,,,,,,,,,,,,,,,,,,,,,,,,,,,,,,,,,,,,,,,,,,723.1149730845354,723.1149730845354,723.1149730845354,723.1149730845354,723.1149730845354,723.1149730845354,l,1,0.4779799666721374,723.6052865746897,724.6359525234438,,,,,,,,,,,,,,,,,,,,,,,,,,,,,,,,,,,,,,,578,2023-05-17_09h02.12.492,eb_02psyexp,2022.2.4,99.91067338556135,
109,0,109,0,,,,,,,,,,,,,,,,,,,,,,,,,,,,,,,,,,,,,,,,,,,,,,,,,,,,,,,,,,,724.6359525234438,724.6359525234438,724.6359525234438,724.6359525234438,724.6359525234438,724.6359525234438,s,1,0.7169811856001616,725.3664293360198,726.3871196073014,,,,,,,,,,,,,,,,,,,,,,,,,,,,,,,,,,,,,,,578,2023-05-17_09h02.12.492,eb_02psyexp,2022.2.4,99.91067338556135,
110,0,110,0,,,,,,,,,,,,,,,,,,,,,,,,,,,,,,,,,,,,,,,,,,,,,,,,,,,,,,,,,,,726.3871196073014,726.3871196073014,726.3871196073014,726.3871196073014,726.3871196073014,726.3871196073014,l,1,0.9498543459922075,727.3477019630373,728.3684227206977,,,,,,,,,,,,,,,,,,,,,,,,,,,,,,,,,,,,,,,578,2023-05-17_09h02.12.492,eb_02psyexp,2022.2.4,99.91067338556135,
111,0,111,0,,,,,,,,,,,,,,,,,,,,,,,,,,,,,,,,,,,,,,,,,,,,,,,,,,,,,,,,,,,728.3684227206977,728.3684227206977,728.3684227206977,728.3684227206977,728.3684227206977,728.3684227206977,s,1,0.616591745056212,728.9987696795724,,,,,,,,,,,,,,,,,,,,,,,,,,,,,,,,,,,,,,,,578,2023-05-17_09h02.12.492,eb_02psyexp,2022.2.4,99.91067338556135,
112,0,112,0,,,,,,,,,,,,,,,,,,,,,,,,,,,,,,,,,,,,,,,,,,,,,,,,,,,,,,,,,,,730.0197071620496,730.0197071620496,730.0197071620496,730.0197071620496,730.0197071620496,730.0197071620496,l,1,0.49327415390871465,730.5300782563863,731.5504781528143,,,,,,,,,,,,,,,,,,,,,,,,,,,,,,,,,,,,,,,578,2023-05-17_09h02.12.492,eb_02psyexp,2022.2.4,99.91067338556135,
113,0,113,0,,,,,,,,,,,,,,,,,,,,,,,,,,,,,,,,,,,,,,,,,,,,,,,,,,,,,,,,,,,731.5504781528143,731.5504781528143,731.5504781528143,731.5504781528143,731.5504781528143,731.5504781528143,s,1,0.6265215419698507,732.1908430472249,733.2115357333096,,,,,,,,,,,,,,,,,,,,,,,,,,,,,,,,,,,,,,,578,2023-05-17_09h02.12.492,eb_02psyexp,2022.2.4,99.91067338556135,
114,0,114,0,,,,,,,,,,,,,,,,,,,,,,,,,,,,,,,,,,,,,,,,,,,,,,,,,,,,,,,,,,,733.2115357333096,733.2115357333096,733.2115357333096,733.2115357333096,733.2115357333096,733.2115357333096,l,1,0.49346461810637265,733.7218168778345,734.7425240525045,,,,,,,,,,,,,,,,,,,,,,,,,,,,,,,,,,,,,,,578,2023-05-17_09h02.12.492,eb_02psyexp,2022.2.4,99.91067338556135,
115,0,115,0,,,,,,,,,,,,,,,,,,,,,,,,,,,,,,,,,,,,,,,,,,,,,,,,,,,,,,,,,,,734.7425240525045,734.7425240525045,734.7425240525045,734.7425240525045,734.7425240525045,734.7425240525045,s,1,0.5944885369390249,735.3528719651513,736.3735815546243,,,,,,,,,,,,,,,,,,,,,,,,,,,,,,,,,,,,,,,578,2023-05-17_09h02.12.492,eb_02psyexp,2022.2.4,99.91067338556135,
116,0,116,0,,,,,,,,,,,,,,,,,,,,,,,,,,,,,,,,,,,,,,,,,,,,,,,,,,,,,,,,,,,736.3735815546243,736.3735815546243,736.3735815546243,736.3735815546243,736.3735815546243,736.3735815546243,l,1,0.7305445931851864,737.1140337426914,738.1446767511079,,,,,,,,,,,,,,,,,,,,,,,,,,,,,,,,,,,,,,,578,2023-05-17_09h02.12.492,eb_02psyexp,2022.2.4,99.91067338556135,
117,0,117,0,,,,,,,,,,,,,,,,,,,,,,,,,,,,,,,,,,,,,,,,,,,,,,,,,,,,,,,,,,,738.1446767511079,738.1446767511079,738.1446767511079,738.1446767511079,738.1446767511079,738.1446767511079,s,1,0.6233364728977904,738.7850823946064,739.8157395898597,,,,,,,,,,,,,,,,,,,,,,,,,,,,,,,,,,,,,,,578,2023-05-17_09h02.12.492,eb_02psyexp,2022.2.4,99.91067338556135,
118,0,118,0,,,,,,,,,,,,,,,,,,,,,,,,,,,,,,,,,,,,,,,,,,,,,,,,,,,,,,,,,,,739.8157395898597,739.8157395898597,739.8157395898597,739.8157395898597,739.8157395898597,739.8157395898597,s,1,0.7123101332690567,740.5462263632799,741.5768838602817,,,,,,,,,,,,,,,,,,,,,,,,,,,,,,,,,,,,,,,578,2023-05-17_09h02.12.492,eb_02psyexp,2022.2.4,99.91067338556135,
119,0,119,0,,,,,,,,,,,,,,,,,,,,,,,,,,,,,,,,,,,,,,,,,,,,,,,,,,,,,,,,,,,741.5768838602817,741.5768838602817,741.5768838602817,741.5768838602817,741.5768838602817,741.5768838602817,l,1,1.3671789845684543,742.9577842520084,743.9784434332978,,,,,,,,,,,,,,,,,,,,,,,,,,,,,,,,,,,,,,,578,2023-05-17_09h02.12.492,eb_02psyexp,2022.2.4,99.91067338556135,
120,0,120,0,,,,,,,,,,,,,,,,,,,,,,,,,,,,,,,,,,,,,,,,,,,,,,,,,,,,,,,,,,,743.9784434332978,743.9784434332978,743.9784434332978,743.9784434332978,743.9784434332978,743.9784434332978,l,1,1.269634735537693,745.2592894325498,746.2899348557694,,,,,,,,,,,,,,,,,,,,,,,,,,,,,,,,,,,,,,,578,2023-05-17_09h02.12.492,eb_02psyexp,2022.2.4,99.91067338556135,
121,0,121,0,,,,,,,,,,,,,,,,,,,,,,,,,,,,,,,,,,,,,,,,,,,,,,,,,,,,,,,,,,,746.2899348557694,746.2899348557694,746.2899348557694,746.2899348557694,746.2899348557694,746.2899348557694,l,1,1.0141268179286271,747.3205938620958,748.3512679605046,,,,,,,,,,,,,,,,,,,,,,,,,,,,,,,,,,,,,,,578,2023-05-17_09h02.12.492,eb_02psyexp,2022.2.4,99.91067338556135,
122,0,122,0,,,,,,,,,,,,,,,,,,,,,,,,,,,,,,,,,,,,,,,,,,,,,,,,,,,,,,,,,,,748.3512679605046,748.3512679605046,748.3512679605046,748.3512679605046,748.3512679605046,748.3512679605046,s,1,0.5208072528475896,748.8916071377462,,,,,,,,,,,,,,,,,,,,,,,,,,,,,,,,,,,,,,,,578,2023-05-17_09h02.12.492,eb_02psyexp,2022.2.4,99.91067338556135,
123,0,123,0,,,,,,,,,,,,,,,,,,,,,,,,,,,,,,,,,,,,,,,,,,,,,,,,,,,,,,,,,,,749.9226051160367,749.9226051160367,749.9226051160367,749.9226051160367,749.9226051160367,749.9226051160367,s,0,0.8134786358568817,750.7528245151043,751.7734761503525,,,,,,,,,,,,,,,,,,,,,,,,,,,,,,,,,,,,,,,578,2023-05-17_09h02.12.492,eb_02psyexp,2022.2.4,99.91067338556135,
124,0,124,0,,,,,,,,,,,,,,,,,,,,,,,,,,,,,,,,,,,,,,,,,,,,,,,,,,,,,,,,,,,751.7734761503525,751.7734761503525,751.7734761503525,751.7734761503525,751.7734761503525,751.7734761503525,l,1,0.530711091007106,752.3238311503083,753.3544983064057,,,,,,,,,,,,,,,,,,,,,,,,,,,,,,,,,,,,,,,578,2023-05-17_09h02.12.492,eb_02psyexp,2022.2.4,99.91067338556135,
125,0,125,0,,,,,,,,,,,,,,,,,,,,,,,,,,,,,,,,,,,,,,,,,,,,,,,,,,,,,,,,,,,753.3544983064057,753.3544983064057,753.3544983064057,753.3544983064057,753.3544983064057,753.3544983064057,s,1,0.5406478302320465,753.9148573570419,,,,,,,,,,,,,,,,,,,,,,,,,,,,,,,,,,,,,,,,578,2023-05-17_09h02.12.492,eb_02psyexp,2022.2.4,99.91067338556135,
126,0,126,0,,,,,,,,,,,,,,,,,,,,,,,,,,,,,,,,,,,,,,,,,,,,,,,,,,,,,,,,,,,754.9455266260775,754.9455266260775,754.9455266260775,754.9455266260775,754.9455266260775,754.9455266260775,s,1,0.6455854721134529,755.6062733061844,756.6266605251003,,,,,,,,,,,,,,,,,,,,,,,,,,,,,,,,,,,,,,,578,2023-05-17_09h02.12.492,eb_02psyexp,2022.2.4,99.91067338556135,
127,0,127,0,,,,,,,,,,,,,,,,,,,,,,,,,,,,,,,,,,,,,,,,,,,,,,,,,,,,,,,,,,,756.6266605251003,756.6266605251003,756.6266605251003,756.6266605251003,756.6266605251003,756.6266605251003,l,1,0.47647828748449683,757.1169211925007,758.1375888254261,,,,,,,,,,,,,,,,,,,,,,,,,,,,,,,,,,,,,,,578,2023-05-17_09h02.12.492,eb_02psyexp,2022.2.4,99.91067338556135,
128,0,128,0,,,,,,,,,,,,,,,,,,,,,,,,,,,,,,,,,,,,,,,,,,,,,,,,,,,,,,,,,,,758.1375888254261,758.1375888254261,758.1375888254261,758.1375888254261,758.1375888254261,758.1375888254261,s,1,0.5655781192472205,758.7179605053971,759.7486270577647,,,,,,,,,,,,,,,,,,,,,,,,,,,,,,,,,,,,,,,578,2023-05-17_09h02.12.492,eb_02psyexp,2022.2.4,99.91067338556135,
129,0,129,0,,,,,,,,,,,,,,,,,,,,,,,,,,,,,,,,,,,,,,,,,,,,,,,,,,,,,,,,,,,759.7486270577647,759.7486270577647,759.7486270577647,759.7486270577647,759.7486270577647,759.7486270577647,s,1,1.2105156644247472,760.9694288306637,761.9901456644293,,,,,,,,,,,,,,,,,,,,,,,,,,,,,,,,,,,,,,,578,2023-05-17_09h02.12.492,eb_02psyexp,2022.2.4,99.91067338556135,
130,0,130,0,,,,,,,,,,,,,,,,,,,,,,,,,,,,,,,,,,,,,,,,,,,,,,,,,,,,,,,,,,,761.9901456644293,761.9901456644293,761.9901456644293,761.9901456644293,761.9901456644293,761.9901456644293,s,1,0.6249942058930174,762.6304891278269,763.6611704706447,,,,,,,,,,,,,,,,,,,,,,,,,,,,,,,,,,,,,,,578,2023-05-17_09h02.12.492,eb_02psyexp,2022.2.4,99.91067338556135,
131,0,131,0,,,,,,,,,,,,,,,,,,,,,,,,,,,,,,,,,,,,,,,,,,,,,,,,,,,,,,,,,,,763.6611704706447,763.6611704706447,763.6611704706447,763.6611704706447,763.6611704706447,763.6611704706447,s,1,1.8260030928067863,765.5023441286758,766.533001625794,,,,,,,,,,,,,,,,,,,,,,,,,,,,,,,,,,,,,,,578,2023-05-17_09h02.12.492,eb_02psyexp,2022.2.4,99.91067338556135,
132,0,132,0,,,,,,,,,,,,,,,,,,,,,,,,,,,,,,,,,,,,,,,,,,,,,,,,,,,,,,,,,,,766.533001625794,766.533001625794,766.533001625794,766.533001625794,766.533001625794,766.533001625794,s,1,0.48217561293859035,767.0333342589438,,,,,,,,,,,,,,,,,,,,,,,,,,,,,,,,,,,,,,,,578,2023-05-17_09h02.12.492,eb_02psyexp,2022.2.4,99.91067338556135,
133,0,133,0,,,,,,,,,,,,,,,,,,,,,,,,,,,,,,,,,,,,,,,,,,,,,,,,,,,,,,,,,,,768.0643183523789,768.0643183523789,768.0643183523789,768.0643183523789,768.0643183523789,768.0643183523789,l,1,0.533870805054903,768.6146754652727,769.6450256840326,,,,,,,,,,,,,,,,,,,,,,,,,,,,,,,,,,,,,,,578,2023-05-17_09h02.12.492,eb_02psyexp,2022.2.4,99.91067338556135,
134,0,134,0,,,,,,,,,,,,,,,,,,,,,,,,,,,,,,,,,,,,,,,,,,,,,,,,,,,,,,,,,,,769.6450256840326,769.6450256840326,769.6450256840326,769.6450256840326,769.6450256840326,769.6450256840326,s,1,0.6331796402810141,770.2954386986094,771.316099087242,,,,,,,,,,,,,,,,,,,,,,,,,,,,,,,,,,,,,,,578,2023-05-17_09h02.12.492,eb_02psyexp,2022.2.4,99.91067338556135,
135,0,135,0,,,,,,,,,,,,,,,,,,,,,,,,,,,,,,,,,,,,,,,,,,,,,,,,,,,,,,,,,,,771.316099087242,771.316099087242,771.316099087242,771.316099087242,771.316099087242,771.316099087242,l,1,0.5221124307718128,771.8564527530689,,,,,,,,,,,,,,,,,,,,,,,,,,,,,,,,,,,,,,,,578,2023-05-17_09h02.12.492,eb_02psyexp,2022.2.4,99.91067338556135,
136,0,136,0,,,,,,,,,,,,,,,,,,,,,,,,,,,,,,,,,,,,,,,,,,,,,,,,,,,,,,,,,,,772.8874362427741,772.8874362427741,772.8874362427741,772.8874362427741,772.8874362427741,772.8874362427741,l,1,2.342796846292913,775.248638829682,776.2793204743648,,,,,,,,,,,,,,,,,,,,,,,,,,,,,,,,,,,,,,,578,2023-05-17_09h02.12.492,eb_02psyexp,2022.2.4,99.91067338556135,
137,0,137,0,,,,,,,,,,,,,,,,,,,,,,,,,,,,,,,,,,,,,,,,,,,,,,,,,,,,,,,,,,,776.2793204743648,776.2793204743648,776.2793204743648,776.2793204743648,776.2793204743648,776.2793204743648,s,1,0.5109191105002537,776.8096386975376,777.830370321637,,,,,,,,,,,,,,,,,,,,,,,,,,,,,,,,,,,,,,,578,2023-05-17_09h02.12.492,eb_02psyexp,2022.2.4,99.91067338556135,
138,0,138,0,,,,,,,,,,,,,,,,,,,,,,,,,,,,,,,,,,,,,,,,,,,,,,,,,,,,,,,,,,,777.830370321637,777.830370321637,777.830370321637,777.830370321637,777.830370321637,777.830370321637,s,1,0.5199068490182981,778.3606613787124,779.3813290117541,,,,,,,,,,,,,,,,,,,,,,,,,,,,,,,,,,,,,,,578,2023-05-17_09h02.12.492,eb_02psyexp,2022.2.4,99.91067338556135,
139,0,139,0,,,,,,,,,,,,,,,,,,,,,,,,,,,,,,,,,,,,,,,,,,,,,,,,,,,,,,,,,,,779.3813290117541,779.3813290117541,779.3813290117541,779.3813290117541,779.3813290117541,779.3813290117541,s,1,0.60092387360055,780.0017214224208,,,,,,,,,,,,,,,,,,,,,,,,,,,,,,,,,,,,,,,,578,2023-05-17_09h02.12.492,eb_02psyexp,2022.2.4,99.91067338556135,
140,0,140,0,,,,,,,,,,,,,,,,,,,,,,,,,,,,,,,,,,,,,,,,,,,,,,,,,,,,,,,,,,,781.0324045761954,781.0324045761954,781.0324045761954,781.0324045761954,781.0324045761954,781.0324045761954,s,1,0.7658728406531736,781.8128762876149,782.8335798401386,,,,,,,,,,,,,,,,,,,,,,,,,,,,,,,,,,,,,,,578,2023-05-17_09h02.12.492,eb_02psyexp,2022.2.4,99.91067338556135,
141,0,141,0,,,,,,,,,,,,,,,,,,,,,,,,,,,,,,,,,,,,,,,,,,,,,,,,,,,,,,,,,,,782.8335798401386,782.8335798401386,782.8335798401386,782.8335798401386,782.8335798401386,782.8335798401386,l,1,0.7167119396617636,783.5640080556041,784.5946743062232,,,,,,,,,,,,,,,,,,,,,,,,,,,,,,,,,,,,,,,578,2023-05-17_09h02.12.492,eb_02psyexp,2022.2.4,99.91067338556135,
142,0,142,0,,,,,,,,,,,,,,,,,,,,,,,,,,,,,,,,,,,,,,,,,,,,,,,,,,,,,,,,,,,784.5946743062232,784.5946743062232,784.5946743062232,784.5946743062232,784.5946743062232,784.5946743062232,s,1,0.634622459532693,785.2450924521545,786.2657462002244,,,,,,,,,,,,,,,,,,,,,,,,,,,,,,,,,,,,,,,578,2023-05-17_09h02.12.492,eb_02psyexp,2022.2.4,99.91067338556135,
143,0,143,0,,,,,,,,,,,,,,,,,,,,,,,,,,,,,,,,,,,,,,,,,,,,,,,,,,,,,,,,,,,786.2657462002244,786.2657462002244,786.2657462002244,786.2657462002244,786.2657462002244,786.2657462002244,l,1,0.5395424736198038,786.8161096518161,787.8467759024352,,,,,,,,,,,,,,,,,,,,,,,,,,,,,,,,,,,,,,,578,2023-05-17_09h02.12.492,eb_02psyexp,2022.2.4,99.91067338556135,
144,0,144,0,,,,,,,,,,,,,,,,,,,,,,,,,,,,,,,,,,,,,,,,,,,,,,,,,,,,,,,,,,,787.8467759024352,787.8467759024352,787.8467759024352,787.8467759024352,787.8467759024352,787.8467759024352,s,1,0.5106033805059269,788.3771173675777,789.3977786618052,,,,,,,,,,,,,,,,,,,,,,,,,,,,,,,,,,,,,,,578,2023-05-17_09h02.12.492,eb_02psyexp,2022.2.4,99.91067338556135,
145,0,145,0,,,,,,,,,,,,,,,,,,,,,,,,,,,,,,,,,,,,,,,,,,,,,,,,,,,,,,,,,,,789.3977786618052,789.3977786618052,789.3977786618052,789.3977786618052,789.3977786618052,789.3977786618052,l,1,0.5595415198476985,789.9681447817711,,,,,,,,,,,,,,,,,,,,,,,,,,,,,,,,,,,,,,,,578,2023-05-17_09h02.12.492,eb_02psyexp,2022.2.4,99.91067338556135,
146,0,146,0,,,,,,,,,,,,,,,,,,,,,,,,,,,,,,,,,,,,,,,,,,,,,,,,,,,,,,,,,,,790.9888045667903,790.9888045667903,790.9888045667903,790.9888045667903,790.9888045667903,790.9888045667903,s,1,0.6005538115277886,791.5995207304368,792.6199188157916,,,,,,,,,,,,,,,,,,,,,,,,,,,,,,,,,,,,,,,578,2023-05-17_09h02.12.492,eb_02psyexp,2022.2.4,99.91067338556135,
147,0,147,0,,,,,,,,,,,,,,,,,,,,,,,,,,,,,,,,,,,,,,,,,,,,,,,,,,,,,,,,,,,792.6199188157916,792.6199188157916,792.6199188157916,792.6199188157916,792.6199188157916,792.6199188157916,l,1,0.9854240694548935,793.620498660137,794.6511863416526,,,,,,,,,,,,,,,,,,,,,,,,,,,,,,,,,,,,,,,578,2023-05-17_09h02.12.492,eb_02psyexp,2022.2.4,99.91067338556135,
148,0,148,0,,,,,,,,,,,,,,,,,,,,,,,,,,,,,,,,,,,,,,,,,,,,,,,,,,,,,,,,,,,794.6511863416526,794.6511863416526,794.6511863416526,794.6511863416526,794.6511863416526,794.6511863416526,s,1,0.4981558941071853,795.1614994817646,796.1822166172788,,,,,,,,,,,,,,,,,,,,,,,,,,,,,,,,,,,,,,,578,2023-05-17_09h02.12.492,eb_02psyexp,2022.2.4,99.91067338556135,
149,0,149,0,,,,,,,,,,,,,,,,,,,,,,,,,,,,,,,,,,,,,,,,,,,,,,,,,,,,,,,,,,,796.1822166172788,796.1822166172788,796.1822166172788,796.1822166172788,796.1822166172788,796.1822166172788,l,1,0.5991505339043215,796.7925533617381,797.8232334970962,,,,,,,,,,,,,,,,,,,,,,,,,,,,,,,,,,,,,,,578,2023-05-17_09h02.12.492,eb_02psyexp,2022.2.4,99.91067338556135,
150,0,150,0,,,,,,,,,,,,,,,,,,,,,,,,,,,,,,,,,,,,,,,,,,,,,,,,,,,,,,,,,,,797.8232334970962,797.8232334970962,797.8232334970962,797.8232334970962,797.8232334970962,797.8232334970962,s,1,0.5101228432031348,798.3435512916185,799.3642026250018,,,,,,,,,,,,,,,,,,,,,,,,,,,,,,,,,,,,,,,578,2023-05-17_09h02.12.492,eb_02psyexp,2022.2.4,99.91067338556135,
151,0,151,0,,,,,,,,,,,,,,,,,,,,,,,,,,,,,,,,,,,,,,,,,,,,,,,,,,,,,,,,,,,799.3642026250018,799.3642026250018,799.3642026250018,799.3642026250018,799.3642026250018,799.3642026250018,l,1,0.528173781465739,799.9045834568096,,,,,,,,,,,,,,,,,,,,,,,,,,,,,,,,,,,,,,,,578,2023-05-17_09h02.12.492,eb_02psyexp,2022.2.4,99.91067338556135,
152,0,152,0,,,,,,,,,,,,,,,,,,,,,,,,,,,,,,,,,,,,,,,,,,,,,,,,,,,,,,,,,,,800.9356131288223,800.9356131288223,800.9356131288223,800.9356131288223,800.9356131288223,800.9356131288223,s,1,0.6928003778448328,801.6460214708932,802.6663745812839,,,,,,,,,,,,,,,,,,,,,,,,,,,,,,,,,,,,,,,578,2023-05-17_09h02.12.492,eb_02psyexp,2022.2.4,99.91067338556135,
153,0,153,0,,,,,,,,,,,,,,,,,,,,,,,,,,,,,,,,,,,,,,,,,,,,,,,,,,,,,,,,,,,802.6663745812839,802.6663745812839,802.6663745812839,802.6663745812839,802.6663745812839,802.6663745812839,s,1,0.6020340597024187,803.2867479756242,804.3174154335866,,,,,,,,,,,,,,,,,,,,,,,,,,,,,,,,,,,,,,,578,2023-05-17_09h02.12.492,eb_02psyexp,2022.2.4,99.91067338556135,
154,0,154,0,,,,,,,,,,,,,,,,,,,,,,,,,,,,,,,,,,,,,,,,,,,,,,,,,,,,,,,,,,,804.3174154335866,804.3174154335866,804.3174154335866,804.3174154335866,804.3174154335866,804.3174154335866,s,1,0.5669832079438493,804.897800998413,,,,,,,,,,,,,,,,,,,,,,,,,,,,,,,,,,,,,,,,578,2023-05-17_09h02.12.492,eb_02psyexp,2022.2.4,99.91067338556135,
155,0,155,0,,,,,,,,,,,,,,,,,,,,,,,,,,,,,,,,,,,,,,,,,,,,,,,,,,,,,,,,,,,805.9188082070323,805.9188082070323,805.9188082070323,805.9188082070323,805.9188082070323,805.9188082070323,l,1,0.8536019938765094,806.7890072859591,807.8096854834585,,,,,,,,,,,,,,,,,,,,,,,,,,,,,,,,,,,,,,,578,2023-05-17_09h02.12.492,eb_02psyexp,2022.2.4,99.91067338556135,
156,0,156,0,,,,,,,,,,,,,,,,,,,,,,,,,,,,,,,,,,,,,,,,,,,,,,,,,,,,,,,,,,,807.8096854834585,807.8096854834585,807.8096854834585,807.8096854834585,807.8096854834585,807.8096854834585,s,1,0.6187891770387068,808.4400879817549,809.4607347875135,,,,,,,,,,,,,,,,,,,,,,,,,,,,,,,,,,,,,,,578,2023-05-17_09h02.12.492,eb_02psyexp,2022.2.4,99.91067338556135,
157,0,157,0,,,,,,,,,,,,,,,,,,,,,,,,,,,,,,,,,,,,,,,,,,,,,,,,,,,,,,,,,,,809.4607347875135,809.4607347875135,809.4607347875135,809.4607347875135,809.4607347875135,809.4607347875135,l,1,0.6556996962754056,810.1311661662767,811.1518205180764,,,,,,,,,,,,,,,,,,,,,,,,,,,,,,,,,,,,,,,578,2023-05-17_09h02.12.492,eb_02psyexp,2022.2.4,99.91067338556135,
158,0,158,0,,,,,,,,,,,,,,,,,,,,,,,,,,,,,,,,,,,,,,,,,,,,,,,,,,,,,,,,,,,811.1518205180764,811.1518205180764,811.1518205180764,811.1518205180764,811.1518205180764,811.1518205180764,s,1,0.6926253077108413,811.8623094527284,812.8830078738974,,,,,,,,,,,,,,,,,,,,,,,,,,,,,,,,,,,,,,,578,2023-05-17_09h02.12.492,eb_02psyexp,2022.2.4,99.91067338556135,
159,0,159,0,,,,,,,,,,,,,,,,,,,,,,,,,,,,,,,,,,,,,,,,,,,,,,,,,,,,,,,,,,,812.8830078738974,812.8830078738974,812.8830078738974,812.8830078738974,812.8830078738974,812.8830078738974,l,1,1.1214324343018234,814.0236948371166,815.0443582441658,,,,,,,,,,,,,,,,,,,,,,,,,,,,,,,,,,,,,,,578,2023-05-17_09h02.12.492,eb_02psyexp,2022.2.4,99.91067338556135,
160,0,160,0,,,,,,,,,,,,,,,,,,,,,,,,,,,,,,,,,,,,,,,,,,,,,,,,,,,,,,,,,,,815.0443582441658,815.0443582441658,815.0443582441658,815.0443582441658,815.0443582441658,815.0443582441658,s,1,0.7110961123835295,815.7748112110421,816.7954779384891,,,,,,,,,,,,,,,,,,,,,,,,,,,,,,,,,,,,,,,578,2023-05-17_09h02.12.492,eb_02psyexp,2022.2.4,99.91067338556135,
161,0,161,0,,,,,,,,,,,,,,,,,,,,,,,,,,,,,,,,,,,,,,,,,,,,,,,,,,,,,,,,,,,816.7954779384891,816.7954779384891,816.7954779384891,816.7954779384891,816.7954779384891,816.7954779384891,l,1,0.5279887503711507,817.3358222470852,818.356484446791,,,,,,,,,,,,,,,,,,,,,,,,,,,,,,,,,,,,,,,578,2023-05-17_09h02.12.492,eb_02psyexp,2022.2.4,99.91067338556135,
162,0,162,0,,,,,,,,,,,,,,,,,,,,,,,,,,,,,,,,,,,,,,,,,,,,,,,,,,,,,,,,,,,818.356484446791,818.356484446791,818.356484446791,818.356484446791,818.356484446791,818.356484446791,l,1,0.6950020358199254,819.0669516486814,820.09757292422,,,,,,,,,,,,,,,,,,,,,,,,,,,,,,,,,,,,,,,578,2023-05-17_09h02.12.492,eb_02psyexp,2022.2.4,99.91067338556135,
163,0,163,0,,,,,,,,,,,,,,,,,,,,,,,,,,,,,,,,,,,,,,,,,,,,,,,,,,,,,,,,,,,820.09757292422,820.09757292422,820.09757292422,820.09757292422,820.09757292422,820.09757292422,s,1,0.505898823379539,820.6179314679466,821.6386003082152,,,,,,,,,,,,,,,,,,,,,,,,,,,,,,,,,,,,,,,578,2023-05-17_09h02.12.492,eb_02psyexp,2022.2.4,99.91067338556135,
164,0,164,0,,,,,,,,,,,,,,,,,,,,,,,,,,,,,,,,,,,,,,,,,,,,,,,,,,,,,,,,,,,821.6386003082152,821.6386003082152,821.6386003082152,821.6386003082152,821.6386003082152,821.6386003082152,s,1,1.2928879733663052,822.9494409527397,823.9701568809105,,,,,,,,,,,,,,,,,,,,,,,,,,,,,,,,,,,,,,,578,2023-05-17_09h02.12.492,eb_02psyexp,2022.2.4,99.91067338556135,
165,0,165,0,,,,,,,,,,,,,,,,,,,,,,,,,,,,,,,,,,,,,,,,,,,,,,,,,,,,,,,,,,,823.9701568809105,823.9701568809105,823.9701568809105,823.9701568809105,823.9701568809105,823.9701568809105,s,1,0.4973415160784498,824.4804292719346,825.5011455019703,,,,,,,,,,,,,,,,,,,,,,,,,,,,,,,,,,,,,,,578,2023-05-17_09h02.12.492,eb_02psyexp,2022.2.4,99.91067338556135,
166,0,166,0,,,,,,,,,,,,,,,,,,,,,,,,,,,,,,,,,,,,,,,,,,,,,,,,,,,,,,,,,,,825.5011455019703,825.5011455019703,825.5011455019703,825.5011455019703,825.5011455019703,825.5011455019703,l,1,0.46238121774513274,825.9814135887427,,,,,,,,,,,,,,,,,,,,,,,,,,,,,,,,,,,,,,,,578,2023-05-17_09h02.12.492,eb_02psyexp,2022.2.4,99.91067338556135,
167,0,167,0,,,,,,,,,,,,,,,,,,,,,,,,,,,,,,,,,,,,,,,,,,,,,,,,,,,,,,,,,,,827.0124016060727,827.0124016060727,827.0124016060727,827.0124016060727,827.0124016060727,827.0124016060727,s,1,0.5271378491306677,827.5527591959108,828.5730827255175,,,,,,,,,,,,,,,,,,,,,,,,,,,,,,,,,,,,,,,578,2023-05-17_09h02.12.492,eb_02psyexp,2022.2.4,99.91067338556135,
168,0,168,0,,,,,,,,,,,,,,,,,,,,,,,,,,,,,,,,,,,,,,,,,,,,,,,,,,,,,,,,,,,828.5730827255175,828.5730827255175,828.5730827255175,828.5730827255175,828.5730827255175,828.5730827255175,l,1,0.4784671446541324,829.063404667424,830.094050694257,,,,,,,,,,,,,,,,,,,,,,,,,,,,,,,,,,,,,,,578,2023-05-17_09h02.12.492,eb_02psyexp,2022.2.4,99.91067338556135,
169,0,169,0,,,,,,,,,,,,,,,,,,,,,,,,,,,,,,,,,,,,,,,,,,,,,,,,,,,,,,,,,,,830.094050694257,830.094050694257,830.094050694257,830.094050694257,830.094050694257,830.094050694257,l,1,0.6854860684834421,830.7945310504874,831.8152258495102,,,,,,,,,,,,,,,,,,,,,,,,,,,,,,,,,,,,,,,578,2023-05-17_09h02.12.492,eb_02psyexp,2022.2.4,99.91067338556135,
170,0,170,0,,,,,,,,,,,,,,,,,,,,,,,,,,,,,,,,,,,,,,,,,,,,,,,,,,,,,,,,,,,831.8152258495102,831.8152258495102,831.8152258495102,831.8152258495102,831.8152258495102,831.8152258495102,l,1,0.5713300785282627,832.4055553979706,833.4362210447434,,,,,,,,,,,,,,,,,,,,,,,,,,,,,,,,,,,,,,,578,2023-05-17_09h02.12.492,eb_02psyexp,2022.2.4,99.91067338556135,
171,0,171,0,,,,,,,,,,,,,,,,,,,,,,,,,,,,,,,,,,,,,,,,,,,,,,,,,,,,,,,,,,,833.4362210447434,833.4362210447434,833.4362210447434,833.4362210447434,833.4362210447434,833.4362210447434,s,1,0.8943827705224976,834.3468100108439,835.3675186947221,,,,,,,,,,,,,,,,,,,,,,,,,,,,,,,,,,,,,,,578,2023-05-17_09h02.12.492,eb_02psyexp,2022.2.4,99.91067338556135,
172,0,172,0,,,,,,,,,,,,,,,,,,,,,,,,,,,,,,,,,,,,,,,,,,,,,,,,,,,,,,,,,,,835.3675186947221,835.3675186947221,835.3675186947221,835.3675186947221,835.3675186947221,835.3675186947221,l,1,0.4910420096712187,835.8777886710595,,,,,,,,,,,,,,,,,,,,,,,,,,,,,,,,,,,,,,,,578,2023-05-17_09h02.12.492,eb_02psyexp,2022.2.4,99.91067338556135,
173,0,173,0,,,,,,,,,,,,,,,,,,,,,,,,,,,,,,,,,,,,,,,,,,,,,,,,,,,,,,,,,,,836.9087875548285,836.9087875548285,836.9087875548285,836.9087875548285,836.9087875548285,836.9087875548285,s,1,0.541849173605442,837.4691402667668,838.4895323152887,,,,,,,,,,,,,,,,,,,,,,,,,,,,,,,,,,,,,,,578,2023-05-17_09h02.12.492,eb_02psyexp,2022.2.4,99.91067338556135,
174,0,174,0,,,,,,,,,,,,,,,,,,,,,,,,,,,,,,,,,,,,,,,,,,,,,,,,,,,,,,,,,,,838.4895323152887,838.4895323152887,838.4895323152887,838.4895323152887,838.4895323152887,838.4895323152887,l,1,0.4810895745176822,838.9898305381648,,,,,,,,,,,,,,,,,,,,,,,,,,,,,,,,,,,,,,,,578,2023-05-17_09h02.12.492,eb_02psyexp,2022.2.4,99.91067338556135,
175,0,175,0,,,,,,,,,,,,,,,,,,,,,,,,,,,,,,,,,,,,,,,,,,,,,,,,,,,,,,,,,,,840.0208037650445,840.0208037650445,840.0208037650445,840.0208037650445,840.0208037650445,840.0208037650445,l,1,1.1338050632039085,841.171217987081,842.201898726169,,,,,,,,,,,,,,,,,,,,,,,,,,,,,,,,,,,,,,,578,2023-05-17_09h02.12.492,eb_02psyexp,2022.2.4,99.91067338556135,
176,0,176,0,,,,,,,,,,,,,,,,,,,,,,,,,,,,,,,,,,,,,,,,,,,,,,,,,,,,,,,,,,,842.201898726169,842.201898726169,842.201898726169,842.201898726169,842.201898726169,842.201898726169,s,1,0.5127220310969278,842.7322232880397,843.7529467623681,,,,,,,,,,,,,,,,,,,,,,,,,,,,,,,,,,,,,,,578,2023-05-17_09h02.12.492,eb_02psyexp,2022.2.4,99.91067338556135,
177,0,177,0,,,,,,,,,,,,,,,,,,,,,,,,,,,,,,,,,,,,,,,,,,,,,,,,,,,,,,,,,,,843.7529467623681,843.7529467623681,843.7529467623681,843.7529467623681,843.7529467623681,843.7529467623681,s,1,0.46567132882773876,844.2331934181275,845.2638638943899,,,,,,,,,,,,,,,,,,,,,,,,,,,,,,,,,,,,,,,578,2023-05-17_09h02.12.492,eb_02psyexp,2022.2.4,99.91067338556135,
178,0,178,0,,,,,,,,,,,,,,,,,,,,,,,,,,,,,,,,,,,,,,,,,,,,,,,,,,,,,,,,,,,845.2638638943899,845.2638638943899,845.2638638943899,845.2638638943899,845.2638638943899,845.2638638943899,s,1,1.9057578014908358,847.1850947099738,848.2058341819793,,,,,,,,,,,,,,,,,,,,,,,,,,,,,,,,,,,,,,,578,2023-05-17_09h02.12.492,eb_02psyexp,2022.2.4,99.91067338556135,
179,0,179,0,,,,,,,,,,,,,,,,,,,,,,,,,,,,,,,,,,,,,,,,,,,,,,,,,,,,,,,,,,,848.2058341819793,848.2058341819793,848.2058341819793,848.2058341819793,848.2058341819793,848.2058341819793,s,1,0.5558116204338148,848.7761372163659,849.7968419762328,,,,,,,,,,,,,,,,,,,,,,,,,,,,,,,,,,,,,,,578,2023-05-17_09h02.12.492,eb_02psyexp,2022.2.4,99.91067338556135,
180,0,180,0,,,,,,,,,,,,,,,,,,,,,,,,,,,,,,,,,,,,,,,,,,,,,,,,,,,,,,,,,,,849.7968419762328,849.7968419762328,849.7968419762328,849.7968419762328,849.7968419762328,849.7968419762328,l,1,0.5088101191213354,850.3171256623464,851.3478024774231,,,,,,,,,,,,,,,,,,,,,,,,,,,,,,,,,,,,,,,578,2023-05-17_09h02.12.492,eb_02psyexp,2022.2.4,99.91067338556135,
181,0,181,0,,,,,,,,,,,,,,,,,,,,,,,,,,,,,,,,,,,,,,,,,,,,,,,,,,,,,,,,,,,851.3478024774231,851.3478024774231,851.3478024774231,851.3478024774231,851.3478024774231,851.3478024774231,s,0,0.5738550125388429,851.9381715675117,852.958855198347,,,,,,,,,,,,,,,,,,,,,,,,,,,,,,,,,,,,,,,578,2023-05-17_09h02.12.492,eb_02psyexp,2022.2.4,99.91067338556135,
182,0,182,0,,,,,,,,,,,,,,,,,,,,,,,,,,,,,,,,,,,,,,,,,,,,,,,,,,,,,,,,,,,852.958855198347,852.958855198347,852.958855198347,852.958855198347,852.958855198347,852.958855198347,l,1,0.4348049551481381,853.4091156603536,854.4398069640156,,,,,,,,,,,,,,,,,,,,,,,,,,,,,,,,,,,,,,,578,2023-05-17_09h02.12.492,eb_02psyexp,2022.2.4,99.91067338556135,
183,0,183,0,,,,,,,,,,,,,,,,,,,,,,,,,,,,,,,,,,,,,,,,,,,,,,,,,,,,,,,,,,,854.4398069640156,854.4398069640156,854.4398069640156,854.4398069640156,854.4398069640156,854.4398069640156,l,1,0.8258902027737349,855.2803313534241,856.3010373207508,,,,,,,,,,,,,,,,,,,,,,,,,,,,,,,,,,,,,,,578,2023-05-17_09h02.12.492,eb_02psyexp,2022.2.4,99.91067338556135,
184,0,184,0,,,,,,,,,,,,,,,,,,,,,,,,,,,,,,,,,,,,,,,,,,,,,,,,,,,,,,,,,,,856.3010373207508,856.3010373207508,856.3010373207508,856.3010373207508,856.3010373207508,856.3010373207508,l,1,0.5007125217234716,856.8213258363539,857.8519945015432,,,,,,,,,,,,,,,,,,,,,,,,,,,,,,,,,,,,,,,578,2023-05-17_09h02.12.492,eb_02psyexp,2022.2.4,99.91067338556135,
185,0,185,0,,,,,,,,,,,,,,,,,,,,,,,,,,,,,,,,,,,,,,,,,,,,,,,,,,,,,,,,,,,857.8519945015432,857.8519945015432,857.8519945015432,857.8519945015432,857.8519945015432,857.8519945015432,s,1,0.4937142439885065,858.362319413689,859.3929877771297,,,,,,,,,,,,,,,,,,,,,,,,,,,,,,,,,,,,,,,578,2023-05-17_09h02.12.492,eb_02psyexp,2022.2.4,99.91067338556135,
186,0,186,0,,,,,,,,,,,,,,,,,,,,,,,,,,,,,,,,,,,,,,,,,,,,,,,,,,,,,,,,,,,859.3929877771297,859.3929877771297,859.3929877771297,859.3929877771297,859.3929877771297,859.3929877771297,s,1,0.6167218402260914,860.023407782428,,,,,,,,,,,,,,,,,,,,,,,,,,,,,,,,,,,,,,,,578,2023-05-17_09h02.12.492,eb_02psyexp,2022.2.4,99.91067338556135,
187,0,187,0,,,,,,,,,,,,,,,,,,,,,,,,,,,,,,,,,,,,,,,,,,,,,,,,,,,,,,,,,,,861.0543888573302,861.0543888573302,861.0543888573302,861.0543888573302,861.0543888573302,861.0543888573302,s,1,0.5464079394005239,861.6147485118126,862.6350841152016,,,,,,,,,,,,,,,,,,,,,,,,,,,,,,,,,,,,,,,578,2023-05-17_09h02.12.492,eb_02psyexp,2022.2.4,99.91067338556135,
188,0,188,0,,,,,,,,,,,,,,,,,,,,,,,,,,,,,,,,,,,,,,,,,,,,,,,,,,,,,,,,,,,862.6350841152016,862.6350841152016,862.6350841152016,862.6350841152016,862.6350841152016,862.6350841152016,l,1,0.5016554855974391,863.1554163983092,864.1860853653634,,,,,,,,,,,,,,,,,,,,,,,,,,,,,,,,,,,,,,,578,2023-05-17_09h02.12.492,eb_02psyexp,2022.2.4,99.91067338556135,
189,0,189,0,,,,,,,,,,,,,,,,,,,,,,,,,,,,,,,,,,,,,,,,,,,,,,,,,,,,,,,,,,,864.1860853653634,864.1860853653634,864.1860853653634,864.1860853653634,864.1860853653634,864.1860853653634,l,1,0.558668282115832,864.7564535982674,865.7771577545209,,,,,,,,,,,,,,,,,,,,,,,,,,,,,,,,,,,,,,,578,2023-05-17_09h02.12.492,eb_02psyexp,2022.2.4,99.91067338556135,
190,0,190,0,,,,,,,,,,,,,,,,,,,,,,,,,,,,,,,,,,,,,,,,,,,,,,,,,,,,,,,,,,,865.7771577545209,865.7771577545209,865.7771577545209,865.7771577545209,865.7771577545209,865.7771577545209,l,1,0.623615377699025,866.4175241581397,867.4481916161021,,,,,,,,,,,,,,,,,,,,,,,,,,,,,,,,,,,,,,,578,2023-05-17_09h02.12.492,eb_02psyexp,2022.2.4,99.91067338556135,
191,0,191,0,,,,,,,,,,,,,,,,,,,,,,,,,,,,,,,,,,,,,,,,,,,,,,,,,,,,,,,,,,,867.4481916161021,867.4481916161021,867.4481916161021,867.4481916161021,867.4481916161021,867.4481916161021,s,1,0.6485755492467433,868.1086153220385,869.1293237040518,,,,,,,,,,,,,,,,,,,,,,,,,,,,,,,,,,,,,,,578,2023-05-17_09h02.12.492,eb_02psyexp,2022.2.4,99.91067338556135,
192,0,192,0,,,,,,,,,,,,,,,,,,,,,,,,,,,,,,,,,,,,,,,,,,,,,,,,,,,,,,,,,,,869.1293237040518,869.1293237040518,869.1293237040518,869.1293237040518,869.1293237040518,869.1293237040518,l,1,0.47946655354462564,869.6195943322964,870.6403009033529,,,,,,,,,,,,,,,,,,,,,,,,,,,,,,,,,,,,,,,578,2023-05-17_09h02.12.492,eb_02psyexp,2022.2.4,99.91067338556135,
193,0,193,0,,,,,,,,,,,,,,,,,,,,,,,,,,,,,,,,,,,,,,,,,,,,,,,,,,,,,,,,,,,870.6403009033529,870.6403009033529,870.6403009033529,870.6403009033529,870.6403009033529,870.6403009033529,s,1,0.5924809655407444,871.2506460993318,872.2713559906697,,,,,,,,,,,,,,,,,,,,,,,,,,,,,,,,,,,,,,,578,2023-05-17_09h02.12.492,eb_02psyexp,2022.2.4,99.91067338556135,
194,0,194,0,,,,,,,,,,,,,,,,,,,,,,,,,,,,,,,,,,,,,,,,,,,,,,,,,,,,,,,,,,,872.2713559906697,872.2713559906697,872.2713559906697,872.2713559906697,872.2713559906697,872.2713559906697,l,1,0.6174263465218246,872.901705364231,873.9224237072049,,,,,,,,,,,,,,,,,,,,,,,,,,,,,,,,,,,,,,,578,2023-05-17_09h02.12.492,eb_02psyexp,2022.2.4,99.91067338556135,
195,0,195,0,,,,,,,,,,,,,,,,,,,,,,,,,,,,,,,,,,,,,,,,,,,,,,,,,,,,,,,,,,,873.9224237072049,873.9224237072049,873.9224237072049,873.9224237072049,873.9224237072049,873.9224237072049,s,1,0.606370365829207,874.542778689065,875.5734398082132,,,,,,,,,,,,,,,,,,,,,,,,,,,,,,,,,,,,,,,578,2023-05-17_09h02.12.492,eb_02psyexp,2022.2.4,99.91067338556135,
196,0,196,0,,,,,,,,,,,,,,,,,,,,,,,,,,,,,,,,,,,,,,,,,,,,,,,,,,,,,,,,,,,875.5734398082132,875.5734398082132,875.5734398082132,875.5734398082132,875.5734398082132,875.5734398082132,s,1,0.5553537214873359,876.1438062299276,877.1744875727454,,,,,,,,,,,,,,,,,,,,,,,,,,,,,,,,,,,,,,,578,2023-05-17_09h02.12.492,eb_02psyexp,2022.2.4,99.91067338556135,
197,0,197,0,,,,,,,,,,,,,,,,,,,,,,,,,,,,,,,,,,,,,,,,,,,,,,,,,,,,,,,,,,,877.1744875727454,877.1744875727454,877.1744875727454,877.1744875727454,877.1744875727454,877.1744875727454,l,1,1.38533466309309,878.5753782570828,879.5960510214791,,,,,,,,,,,,,,,,,,,,,,,,,,,,,,,,,,,,,,,578,2023-05-17_09h02.12.492,eb_02psyexp,2022.2.4,99.91067338556135,
198,0,198,0,,,,,,,,,,,,,,,,,,,,,,,,,,,,,,,,,,,,,,,,,,,,,,,,,,,,,,,,,,,879.5960510214791,879.5960510214791,879.5960510214791,879.5960510214791,879.5960510214791,879.5960510214791,l,1,0.5317473250906914,880.1464023992885,881.1770617073635,,,,,,,,,,,,,,,,,,,,,,,,,,,,,,,,,,,,,,,578,2023-05-17_09h02.12.492,eb_02psyexp,2022.2.4,99.91067338556135,
199,0,199,0,,,,,0,0,0,0,,,,,,,,,,,,,,,,,,,,,,,,,,,,,,,,,,,,,,,,,,,,,,,,,,,881.1770617073635,881.1770617073635,881.1770617073635,881.1770617073635,881.1770617073635,881.1770617073635,l,1,0.39075851684901863,881.5873234734172,882.5879670071881,882.5879670071881,882.5879670071881,space,8.995921636931598,,,,,,,,,,,,,,,,,,,,,,,,,,,,,,,,,,,578,2023-05-17_09h02.12.492,eb_02psyexp,2022.2.4,99.91067338556135,
199,0,199,0,,,,,,,,,,,,,,,,,,,,,,,,,,,,,,,,,,,,,,,,,,,,,,,,,,,,,,,,,,,,,,,,,,,,,,,,,,,,,,,,,,,,,,,,,,,,,,,,,,,,,,,,,,,,578,2023-05-17_09h02.12.492,eb_02psyexp,2022.2.4,99.91067338556135,
200,0,200,0,,,,,,,,,,,,,,,,,,,,,,,,,,,,,,,,,,,,,,,,,,,,,,,,,,,,,,,,,,,891.6140799249988,891.6140799249988,891.6140799249988,891.6140799249988,891.6140799249988,891.6140799249988,l,1,1.9288169528590515,893.5550556330709,894.5857221854385,,,,,,,,,,,,,,,,,,,,,,,,,,,,,,,,,,,,,,,578,2023-05-17_09h02.12.492,eb_02psyexp,2022.2.4,99.91067338556135,
201,0,201,0,,,,,,,,,,,,,,,,,,,,,,,,,,,,,,,,,,,,,,,,,,,,,,,,,,,,,,,,,,,894.5857221854385,894.5857221854385,894.5857221854385,894.5857221854385,894.5857221854385,894.5857221854385,l,0,0.7891840327065438,895.3862487843726,896.4169068849878,,,,,,,,,,,,,,,,,,,,,,,,,,,,,,,,,,,,,,,578,2023-05-17_09h02.12.492,eb_02psyexp,2022.2.4,99.91067338556135,
202,0,202,0,,,,,,,,,,,,,,,,,,,,,,,,,,,,,,,,,,,,,,,,,,,,,,,,,,,,,,,,,,,896.4169068849878,896.4169068849878,896.4169068849878,896.4169068849878,896.4169068849878,896.4169068849878,s,1,0.5500379281584173,896.9772752929712,897.997969790129,,,,,,,,,,,,,,,,,,,,,,,,,,,,,,,,,,,,,,,578,2023-05-17_09h02.12.492,eb_02psyexp,2022.2.4,99.91067338556135,
203,0,203,0,,,,,,,,,,,,,,,,,,,,,,,,,,,,,,,,,,,,,,,,,,,,,,,,,,,,,,,,,,,897.997969790129,897.997969790129,897.997969790129,897.997969790129,897.997969790129,897.997969790129,l,1,0.4649478063220158,898.4782421026612,899.5089143901132,,,,,,,,,,,,,,,,,,,,,,,,,,,,,,,,,,,,,,,578,2023-05-17_09h02.12.492,eb_02psyexp,2022.2.4,99.91067338556135,
204,0,204,0,,,,,,,,,,,,,,,,,,,,,,,,,,,,,,,,,,,,,,,,,,,,,,,,,,,,,,,,,,,899.5089143901132,899.5089143901132,899.5089143901132,899.5089143901132,899.5089143901132,899.5089143901132,l,1,0.8900105447974056,900.4094851186965,901.4401510674506,,,,,,,,,,,,,,,,,,,,,,,,,,,,,,,,,,,,,,,578,2023-05-17_09h02.12.492,eb_02psyexp,2022.2.4,99.91067338556135,
205,0,205,0,,,,,,,,,,,,,,,,,,,,,,,,,,,,,,,,,,,,,,,,,,,,,,,,,,,,,,,,,,,901.4401510674506,901.4401510674506,901.4401510674506,901.4401510674506,901.4401510674506,901.4401510674506,s,1,0.7108926689252257,902.1706170135876,903.201287791715,,,,,,,,,,,,,,,,,,,,,,,,,,,,,,,,,,,,,,,578,2023-05-17_09h02.12.492,eb_02psyexp,2022.2.4,99.91067338556135,
206,0,206,0,,,,,,,,,,,,,,,,,,,,,,,,,,,,,,,,,,,,,,,,,,,,,,,,,,,,,,,,,,,903.201287791715,903.201287791715,903.201287791715,903.201287791715,903.201287791715,903.201287791715,s,1,0.5256766172824427,903.7416342132492,904.7622976204148,,,,,,,,,,,,,,,,,,,,,,,,,,,,,,,,,,,,,,,578,2023-05-17_09h02.12.492,eb_02psyexp,2022.2.4,99.91067338556135,
207,0,207,0,,,,,,,,,,,,,,,,,,,,,,,,,,,,,,,,,,,,,,,,,,,,,,,,,,,,,,,,,,,904.7622976204148,904.7622976204148,904.7622976204148,904.7622976204148,904.7622976204148,904.7622976204148,l,1,0.5007146345451474,905.2826292999089,906.3133121518185,,,,,,,,,,,,,,,,,,,,,,,,,,,,,,,,,,,,,,,578,2023-05-17_09h02.12.492,eb_02psyexp,2022.2.4,99.91067338556135,
208,0,208,0,,,,,,,,,,,,,,,,,,,,,,,,,,,,,,,,,,,,,,,,,,,,,,,,,,,,,,,,,,,906.3133121518185,906.3133121518185,906.3133121518185,906.3133121518185,906.3133121518185,906.3133121518185,s,0,1.3487208574078977,907.6741766723571,908.6948862617137,,,,,,,,,,,,,,,,,,,,,,,,,,,,,,,,,,,,,,,578,2023-05-17_09h02.12.492,eb_02psyexp,2022.2.4,99.91067338556135,
209,0,209,0,,,,,,,,,,,,,,,,,,,,,,,,,,,,,,,,,,,,,,,,,,,,,,,,,,,,,,,,,,,908.6948862617137,908.6948862617137,908.6948862617137,908.6948862617137,908.6948862617137,908.6948862617137,l,1,0.447077673394233,909.1551387008512,910.1857995181344,,,,,,,,,,,,,,,,,,,,,,,,,,,,,,,,,,,,,,,578,2023-05-17_09h02.12.492,eb_02psyexp,2022.2.4,99.91067338556135,
210,0,210,0,,,,,,,,,,,,,,,,,,,,,,,,,,,,,,,,,,,,,,,,,,,,,,,,,,,,,,,,,,,910.1857995181344,910.1857995181344,910.1857995181344,910.1857995181344,910.1857995181344,910.1857995181344,s,1,0.6522127821808681,910.8562302932842,911.8769625211135,,,,,,,,,,,,,,,,,,,,,,,,,,,,,,,,,,,,,,,578,2023-05-17_09h02.12.492,eb_02psyexp,2022.2.4,99.91067338556135,
211,0,211,0,,,,,,,,,,,,,,,,,,,,,,,,,,,,,,,,,,,,,,,,,,,,,,,,,,,,,,,,,,,911.8769625211135,911.8769625211135,911.8769625211135,911.8769625211135,911.8769625211135,911.8769625211135,s,1,0.4970155234914273,912.3872545320773,913.4178999552969,,,,,,,,,,,,,,,,,,,,,,,,,,,,,,,,,,,,,,,578,2023-05-17_09h02.12.492,eb_02psyexp,2022.2.4,99.91067338556135,
212,0,212,0,,,,,,,,,,,,,,,,,,,,,,,,,,,,,,,,,,,,,,,,,,,,,,,,,,,,,,,,,,,913.4178999552969,913.4178999552969,913.4178999552969,913.4178999552969,913.4178999552969,913.4178999552969,s,1,0.5481559243053198,913.9782514598919,,,,,,,,,,,,,,,,,,,,,,,,,,,,,,,,,,,,,,,,578,2023-05-17_09h02.12.492,eb_02psyexp,2022.2.4,99.91067338556135,
213,0,213,0,,,,,,,,,,,,,,,,,,,,,,,,,,,,,,,,,,,,,,,,,,,,,,,,,,,,,,,,,,,914.9992465947289,914.9992465947289,914.9992465947289,914.9992465947289,914.9992465947289,914.9992465947289,s,1,0.47877804504241794,915.4895452945493,916.5099448891124,,,,,,,,,,,,,,,,,,,,,,,,,,,,,,,,,,,,,,,578,2023-05-17_09h02.12.492,eb_02psyexp,2022.2.4,99.91067338556135,
214,0,214,0,,,,,,,,,,,,,,,,,,,,,,,,,,,,,,,,,,,,,,,,,,,,,,,,,,,,,,,,,,,916.5099448891124,916.5099448891124,916.5099448891124,916.5099448891124,916.5099448891124,916.5099448891124,l,1,0.4960828222101554,917.020203395281,,,,,,,,,,,,,,,,,,,,,,,,,,,,,,,,,,,,,,,,578,2023-05-17_09h02.12.492,eb_02psyexp,2022.2.4,99.91067338556135,
215,0,215,0,,,,,,,,,,,,,,,,,,,,,,,,,,,,,,,,,,,,,,,,,,,,,,,,,,,,,,,,,,,918.0411961154314,918.0411961154314,918.0411961154314,918.0411961154314,918.0411961154314,918.0411961154314,s,1,0.5488595250062644,918.6015554679325,919.6319017626811,,,,,,,,,,,,,,,,,,,,,,,,,,,,,,,,,,,,,,,578,2023-05-17_09h02.12.492,eb_02psyexp,2022.2.4,99.91067338556135,
216,0,216,0,,,,,,,,,,,,,,,,,,,,,,,,,,,,,,,,,,,,,,,,,,,,,,,,,,,,,,,,,,,919.6319017626811,919.6319017626811,919.6319017626811,919.6319017626811,919.6319017626811,919.6319017626811,s,1,0.5341566522838548,920.1822561590234,921.2129242205992,,,,,,,,,,,,,,,,,,,,,,,,,,,,,,,,,,,,,,,578,2023-05-17_09h02.12.492,eb_02psyexp,2022.2.4,99.91067338556135,
217,0,217,0,,,,,,,,,,,,,,,,,,,,,,,,,,,,,,,,,,,,,,,,,,,,,,,,,,,,,,,,,,,921.2129242205992,921.2129242205992,921.2129242205992,921.2129242205992,921.2129242205992,921.2129242205992,s,0,3.58416181395296,924.8152312827297,925.8359091784805,,,,,,,,,,,,,,,,,,,,,,,,,,,,,,,,,,,,,,,578,2023-05-17_09h02.12.492,eb_02psyexp,2022.2.4,99.91067338556135,
218,0,218,0,,,,,,,,,,,,,,,,,,,,,,,,,,,,,,,,,,,,,,,,,,,,,,,,,,,,,,,,,,,925.8359091784805,925.8359091784805,925.8359091784805,925.8359091784805,925.8359091784805,925.8359091784805,l,1,0.5771913059288636,926.4262897386216,927.456957196584,,,,,,,,,,,,,,,,,,,,,,,,,,,,,,,,,,,,,,,578,2023-05-17_09h02.12.492,eb_02psyexp,2022.2.4,99.91067338556135,
219,0,219,0,,,,,,,,,,,,,,,,,,,,,,,,,,,,,,,,,,,,,,,,,,,,,,,,,,,,,,,,,,,927.456957196584,927.456957196584,927.456957196584,927.456957196584,927.456957196584,927.456957196584,s,1,0.5001589378807694,927.9672863344895,,,,,,,,,,,,,,,,,,,,,,,,,,,,,,,,,,,,,,,,578,2023-05-17_09h02.12.492,eb_02psyexp,2022.2.4,99.91067338556135,
220,0,220,0,,,,,,,,,,,,,,,,,,,,,,,,,,,,,,,,,,,,,,,,,,,,,,,,,,,,,,,,,,,928.9879458176438,928.9879458176438,928.9879458176438,928.9879458176438,928.9879458176438,928.9879458176438,l,1,0.4891548743471503,929.4885703350883,930.5189332312439,,,,,,,,,,,,,,,,,,,,,,,,,,,,,,,,,,,,,,,578,2023-05-17_09h02.12.492,eb_02psyexp,2022.2.4,99.91067338556135,
221,0,221,0,,,,,,,,,,,,,,,,,,,,,,,,,,,,,,,,,,,,,,,,,,,,,,,,,,,,,,,,,,,930.5189332312439,930.5189332312439,930.5189332312439,930.5189332312439,930.5189332312439,930.5189332312439,s,1,0.6221641066949815,931.1593400822021,932.1800538974348,,,,,,,,,,,,,,,,,,,,,,,,,,,,,,,,,,,,,,,578,2023-05-17_09h02.12.492,eb_02psyexp,2022.2.4,99.91067338556135,
222,0,222,0,,,,,,,,,,,,,,,,,,,,,,,,,,,,,,,,,,,,,,,,,,,,,,,,,,,,,,,,,,,932.1800538974348,932.1800538974348,932.1800538974348,932.1800538974348,932.1800538974348,932.1800538974348,l,1,0.5450855563394725,932.7403607290471,933.7610775626963,,,,,,,,,,,,,,,,,,,,,,,,,,,,,,,,,,,,,,,578,2023-05-17_09h02.12.492,eb_02psyexp,2022.2.4,99.91067338556135,
223,0,223,0,,,,,,,,,,,,,,,,,,,,,,,,,,,,,,,,,,,,,,,,,,,,,,,,,,,,,,,,,,,933.7610775626963,933.7610775626963,933.7610775626963,933.7610775626963,933.7610775626963,933.7610775626963,s,1,0.5480445434805006,934.3213895256631,935.3420471977443,,,,,,,,,,,,,,,,,,,,,,,,,,,,,,,,,,,,,,,578,2023-05-17_09h02.12.492,eb_02psyexp,2022.2.4,99.91067338556135,
224,0,224,0,,,,,,,,,,,,,,,,,,,,,,,,,,,,,,,,,,,,,,,,,,,,,,,,,,,,,,,,,,,935.3420471977443,935.3420471977443,935.3420471977443,935.3420471977443,935.3420471977443,935.3420471977443,s,1,0.6790797089925036,936.0324857725063,,,,,,,,,,,,,,,,,,,,,,,,,,,,,,,,,,,,,,,,578,2023-05-17_09h02.12.492,eb_02psyexp,2022.2.4,99.91067338556135,
225,0,225,0,,,,,,,,,,,,,,,,,,,,,,,,,,,,,,,,,,,,,,,,,,,,,,,,,,,,,,,,,,,937.053468833561,937.053468833561,937.053468833561,937.053468833561,937.053468833561,937.053468833561,s,1,0.543689523008652,937.6138366378145,938.6441838381579,,,,,,,,,,,,,,,,,,,,,,,,,,,,,,,,,,,,,,,578,2023-05-17_09h02.12.492,eb_02psyexp,2022.2.4,99.91067338556135,
226,0,226,0,,,,,,,,,,,,,,,,,,,,,,,,,,,,,,,,,,,,,,,,,,,,,,,,,,,,,,,,,,,938.6441838381579,938.6441838381579,938.6441838381579,938.6441838381579,938.6441838381579,938.6441838381579,s,1,0.472978695994243,939.1344985357719,940.165157240117,,,,,,,,,,,,,,,,,,,,,,,,,,,,,,,,,,,,,,,578,2023-05-17_09h02.12.492,eb_02psyexp,2022.2.4,99.91067338556135,
227,0,227,0,,,,,,,,,,,,,,,,,,,,,,,,,,,,,,,,,,,,,,,,,,,,,,,,,,,,,,,,,,,940.165157240117,940.165157240117,940.165157240117,940.165157240117,940.165157240117,940.165157240117,s,1,0.45501619833521545,940.6354614214506,941.6661494048312,,,,,,,,,,,,,,,,,,,,,,,,,,,,,,,,,,,,,,,578,2023-05-17_09h02.12.492,eb_02psyexp,2022.2.4,99.91067338556135,
228,0,228,0,,,,,,,,,,,,,,,,,,,,,,,,,,,,,,,,,,,,,,,,,,,,,,,,,,,,,,,,,,,941.6661494048312,941.6661494048312,941.6661494048312,941.6661494048312,941.6661494048312,941.6661494048312,s,1,0.34602477739099413,942.0263655621093,,,,,,,,,,,,,,,,,,,,,,,,,,,,,,,,,,,,,,,,578,2023-05-17_09h02.12.492,eb_02psyexp,2022.2.4,99.91067338556135,
229,0,229,0,,,,,,,,,,,,,,,,,,,,,,,,,,,,,,,,,,,,,,,,,,,,,,,,,,,,,,,,,,,943.0473196461098,943.0473196461098,943.0473196461098,943.0473196461098,943.0473196461098,943.0473196461098,s,1,0.4688902045600116,943.5276556479512,944.5480102675501,,,,,,,,,,,,,,,,,,,,,,,,,,,,,,,,,,,,,,,578,2023-05-17_09h02.12.492,eb_02psyexp,2022.2.4,99.91067338556135,
230,0,230,0,,,,,,,,,,,,,,,,,,,,,,,,,,,,,,,,,,,,,,,,,,,,,,,,,,,,,,,,,,,944.5480102675501,944.5480102675501,944.5480102675501,944.5480102675501,944.5480102675501,944.5480102675501,s,1,0.5122007445897907,945.0783414701,946.0990006513894,,,,,,,,,,,,,,,,,,,,,,,,,,,,,,,,,,,,,,,578,2023-05-17_09h02.12.492,eb_02psyexp,2022.2.4,99.91067338556135,
231,0,231,0,,,,,,,,,,,,,,,,,,,,,,,,,,,,,,,,,,,,,,,,,,,,,,,,,,,,,,,,,,,946.0990006513894,946.0990006513894,946.0990006513894,946.0990006513894,946.0990006513894,946.0990006513894,l,1,0.49722319282591343,946.60929145501,947.6399900028482,,,,,,,,,,,,,,,,,,,,,,,,,,,,,,,,,,,,,,,578,2023-05-17_09h02.12.492,eb_02psyexp,2022.2.4,99.91067338556135,
232,0,232,0,,,,,,,,,,,,,,,,,,,,,,,,,,,,,,,,,,,,,,,,,,,,,,,,,,,,,,,,,,,947.6399900028482,947.6399900028482,947.6399900028482,947.6399900028482,947.6399900028482,947.6399900028482,s,1,0.468229767633602,948.1203166475752,949.1409616421442,,,,,,,,,,,,,,,,,,,,,,,,,,,,,,,,,,,,,,,578,2023-05-17_09h02.12.492,eb_02psyexp,2022.2.4,99.91067338556135,
233,0,233,0,,,,,,,,,,,,,,,,,,,,,,,,,,,,,,,,,,,,,,,,,,,,,,,,,,,,,,,,,,,949.1409616421442,949.1409616421442,949.1409616421442,949.1409616421442,949.1409616421442,949.1409616421442,l,1,0.6552955257939175,949.8113951338455,950.8420761747984,,,,,,,,,,,,,,,,,,,,,,,,,,,,,,,,,,,,,,,578,2023-05-17_09h02.12.492,eb_02psyexp,2022.2.4,99.91067338556135,
234,0,234,0,,,,,,,,,,,,,,,,,,,,,,,,,,,,,,,,,,,,,,,,,,,,,,,,,,,,,,,,,,,950.8420761747984,950.8420761747984,950.8420761747984,950.8420761747984,950.8420761747984,950.8420761747984,s,1,0.6501505767228082,951.5024817701196,952.5231475919718,,,,,,,,,,,,,,,,,,,,,,,,,,,,,,,,,,,,,,,578,2023-05-17_09h02.12.492,eb_02psyexp,2022.2.4,99.91067338556135,
235,0,235,0,,,,,,,,,,,,,,,,,,,,,,,,,,,,,,,,,,,,,,,,,,,,,,,,,,,,,,,,,,,952.5231475919718,952.5231475919718,952.5231475919718,952.5231475919718,952.5231475919718,952.5231475919718,l,1,0.5610667428700253,953.1035087073687,954.1241823772434,,,,,,,,,,,,,,,,,,,,,,,,,,,,,,,,,,,,,,,578,2023-05-17_09h02.12.492,eb_02psyexp,2022.2.4,99.91067338556135,
236,0,236,0,,,,,,,,,,,,,,,,,,,,,,,,,,,,,,,,,,,,,,,,,,,,,,,,,,,,,,,,,,,954.1241823772434,954.1241823772434,954.1241823772434,954.1241823772434,954.1241823772434,954.1241823772434,s,1,0.5120893637649715,954.6545235406375,955.6752551647369,,,,,,,,,,,,,,,,,,,,,,,,,,,,,,,,,,,,,,,578,2023-05-17_09h02.12.492,eb_02psyexp,2022.2.4,99.91067338556135,
237,0,237,0,,,,,,,,,,,,,,,,,,,,,,,,,,,,,,,,,,,,,,,,,,,,,,,,,,,,,,,,,,,955.6752551647369,955.6752551647369,955.6752551647369,955.6752551647369,955.6752551647369,955.6752551647369,l,1,0.7280045670922846,956.415662075975,957.4463256099261,,,,,,,,,,,,,,,,,,,,,,,,,,,,,,,,,,,,,,,578,2023-05-17_09h02.12.492,eb_02psyexp,2022.2.4,99.91067338556135,
238,0,238,0,,,,,,,,,,,,,,,,,,,,,,,,,,,,,,,,,,,,,,,,,,,,,,,,,,,,,,,,,,,957.4463256099261,957.4463256099261,957.4463256099261,957.4463256099261,957.4463256099261,957.4463256099261,s,1,0.7889407456386834,958.2468347018585,959.2675213509938,,,,,,,,,,,,,,,,,,,,,,,,,,,,,,,,,,,,,,,578,2023-05-17_09h02.12.492,eb_02psyexp,2022.2.4,99.91067338556135,
239,0,239,0,,,,,,,,,,,,,,,,,,,,,,,,,,,,,,,,,,,,,,,,,,,,,,,,,,,,,,,,,,,959.2675213509938,959.2675213509938,959.2675213509938,959.2675213509938,959.2675213509938,959.2675213509938,l,1,0.5357512996997684,959.8178669938352,960.8485250944505,,,,,,,,,,,,,,,,,,,,,,,,,,,,,,,,,,,,,,,578,2023-05-17_09h02.12.492,eb_02psyexp,2022.2.4,99.91067338556135,
240,0,240,0,,,,,,,,,,,,,,,,,,,,,,,,,,,,,,,,,,,,,,,,,,,,,,,,,,,,,,,,,,,960.8485250944505,960.8485250944505,960.8485250944505,960.8485250944505,960.8485250944505,960.8485250944505,s,1,0.482751231524162,961.3488387115067,962.3695597710321,,,,,,,,,,,,,,,,,,,,,,,,,,,,,,,,,,,,,,,578,2023-05-17_09h02.12.492,eb_02psyexp,2022.2.4,99.91067338556135,
241,0,241,0,,,,,,,,,,,,,,,,,,,,,,,,,,,,,,,,,,,,,,,,,,,,,,,,,,,,,,,,,,,962.3695597710321,962.3695597710321,962.3695597710321,962.3695597710321,962.3695597710321,962.3695597710321,l,1,0.7457412844523787,963.1299968186067,964.2307176849572,,,,,,,,,,,,,,,,,,,,,,,,,,,,,,,,,,,,,,,578,2023-05-17_09h02.12.492,eb_02psyexp,2022.2.4,99.91067338556135,
242,0,242,0,,,,,,,,,,,,,,,,,,,,,,,,,,,,,,,,,,,,,,,,,,,,,,,,,,,,,,,,,,,964.2307176849572,964.2307176849572,964.2307176849572,964.2307176849572,964.2307176849572,964.2307176849572,s,1,0.7165818444918841,964.9611833292292,965.9819043887546,,,,,,,,,,,,,,,,,,,,,,,,,,,,,,,,,,,,,,,578,2023-05-17_09h02.12.492,eb_02psyexp,2022.2.4,99.91067338556135,
243,0,243,0,,,,,,,,,,,,,,,,,,,,,,,,,,,,,,,,,,,,,,,,,,,,,,,,,,,,,,,,,,,965.9819043887546,965.9819043887546,965.9819043887546,965.9819043887546,965.9819043887546,965.9819043887546,l,1,0.5413888598559424,966.5421967317816,967.562866477645,,,,,,,,,,,,,,,,,,,,,,,,,,,,,,,,,,,,,,,578,2023-05-17_09h02.12.492,eb_02psyexp,2022.2.4,99.91067338556135,
244,0,244,0,,,,,,,,,,,,,,,,,,,,,,,,,,,,,,,,,,,,,,,,,,,,,,,,,,,,,,,,,,,967.562866477645,967.562866477645,967.562866477645,967.562866477645,967.562866477645,967.562866477645,s,1,0.79245512757916,968.3733983347192,969.3940493661212,,,,,,,,,,,,,,,,,,,,,,,,,,,,,,,,,,,,,,,578,2023-05-17_09h02.12.492,eb_02psyexp,2022.2.4,99.91067338556135,
245,0,245,0,,,,,,,,,,,,,,,,,,,,,,,,,,,,,,,,,,,,,,,,,,,,,,,,,,,,,,,,,,,969.3940493661212,969.3940493661212,969.3940493661212,969.3940493661212,969.3940493661212,969.3940493661212,l,1,0.50530026468914,969.9143931193976,,,,,,,,,,,,,,,,,,,,,,,,,,,,,,,,,,,,,,,,578,2023-05-17_09h02.12.492,eb_02psyexp,2022.2.4,99.91067338556135,
246,0,246,0,,,,,,,,,,,,,,,,,,,,,,,,,,,,,,,,,,,,,,,,,,,,,,,,,,,,,,,,,,,970.9450524274725,970.9450524274725,970.9450524274725,970.9450524274725,970.9450524274725,970.9450524274725,s,1,0.5852985623059794,971.5457748030312,972.5661571924575,,,,,,,,,,,,,,,,,,,,,,,,,,,,,,,,,,,,,,,578,2023-05-17_09h02.12.492,eb_02psyexp,2022.2.4,99.91067338556135,
247,0,247,0,,,,,,,,,,,,,,,,,,,,,,,,,,,,,,,,,,,,,,,,,,,,,,,,,,,,,,,,,,,972.5661571924575,972.5661571924575,972.5661571924575,972.5661571924575,972.5661571924575,972.5661571924575,l,1,0.5721888276748359,973.1564610840287,974.1771389797796,,,,,,,,,,,,,,,,,,,,,,,,,,,,,,,,,,,,,,,578,2023-05-17_09h02.12.492,eb_02psyexp,2022.2.4,99.91067338556135,
248,0,248,0,,,,,,,,,,,,,,,,,,,,,,,,,,,,,,,,,,,,,,,,,,,,,,,,,,,,,,,,,,,974.1771389797796,974.1771389797796,974.1771389797796,974.1771389797796,974.1771389797796,974.1771389797796,l,1,0.5052275200141594,974.6974495300092,975.7281378152547,,,,,,,,,,,,,,,,,,,,,,,,,,,,,,,,,,,,,,,578,2023-05-17_09h02.12.492,eb_02psyexp,2022.2.4,99.91067338556135,
249,0,249,0,,,,,,,,,,,,,,,,,,,,,,,,,,,,,,,,,,,,,,,,,,,,,,,,,,,,,,,,,,,975.7281378152547,975.7281378152547,975.7281378152547,975.7281378152547,975.7281378152547,975.7281378152547,s,1,0.5142185788135976,976.2584822989302,977.2791405746248,,,,,,,,,,,,,,,,,,,,,,,,,,,,,,,,,,,,,,,578,2023-05-17_09h02.12.492,eb_02psyexp,2022.2.4,99.91067338556135,
250,0,250,0,,,,,,,,,,,,,,,,,,,,,,,,,,,,,,,,,,,,,,,,,,,,,,,,,,,,,,,,,,,977.2791405746248,977.2791405746248,977.2791405746248,977.2791405746248,977.2791405746248,977.2791405746248,s,1,0.5312598452437669,977.8294659937965,978.8501550578512,,,,,,,,,,,,,,,,,,,,,,,,,,,,,,,,,,,,,,,578,2023-05-17_09h02.12.492,eb_02psyexp,2022.2.4,99.91067338556135,
251,0,251,0,,,,,,,,,,,,,,,,,,,,,,,,,,,,,,,,,,,,,,,,,,,,,,,,,,,,,,,,,,,978.8501550578512,978.8501550578512,978.8501550578512,978.8501550578512,978.8501550578512,978.8501550578512,l,1,0.5202461227308959,979.3805098042358,980.4012046032585,,,,,,,,,,,,,,,,,,,,,,,,,,,,,,,,,,,,,,,578,2023-05-17_09h02.12.492,eb_02psyexp,2022.2.4,99.91067338556135,
252,0,252,0,,,,,,,,,,,,,,,,,,,,,,,,,,,,,,,,,,,,,,,,,,,,,,,,,,,,,,,,,,,980.4012046032585,980.4012046032585,980.4012046032585,980.4012046032585,980.4012046032585,980.4012046032585,l,1,0.649188898387365,981.0615929933265,,,,,,,,,,,,,,,,,,,,,,,,,,,,,,,,,,,,,,,,578,2023-05-17_09h02.12.492,eb_02psyexp,2022.2.4,99.91067338556135,
253,0,253,0,,,,,,,,,,,,,,,,,,,,,,,,,,,,,,,,,,,,,,,,,,,,,,,,,,,,,,,,,,,982.0822603245033,982.0822603245033,982.0822603245033,982.0822603245033,982.0822603245033,982.0822603245033,s,1,0.6321597058558837,982.7326808852376,983.7533264834201,,,,,,,,,,,,,,,,,,,,,,,,,,,,,,,,,,,,,,,578,2023-05-17_09h02.12.492,eb_02psyexp,2022.2.4,99.91067338556135,
254,0,254,0,,,,,,,,,,,,,,,,,,,,,,,,,,,,,,,,,,,,,,,,,,,,,,,,,,,,,,,,,,,983.7533264834201,983.7533264834201,983.7533264834201,983.7533264834201,983.7533264834201,983.7533264834201,l,1,0.5370812291512266,984.3036778613459,985.3243379481137,,,,,,,,,,,,,,,,,,,,,,,,,,,,,,,,,,,,,,,578,2023-05-17_09h02.12.492,eb_02psyexp,2022.2.4,99.91067338556135,
255,0,255,0,,,,,,,,,,,,,,,,,,,,,,,,,,,,,,,,,,,,,,,,,,,,,,,,,,,,,,,,,,,985.3243379481137,985.3243379481137,985.3243379481137,985.3243379481137,985.3243379481137,985.3243379481137,l,1,0.5740874331677333,985.914719112101,,,,,,,,,,,,,,,,,,,,,,,,,,,,,,,,,,,,,,,,578,2023-05-17_09h02.12.492,eb_02psyexp,2022.2.4,99.91067338556135,
256,0,256,0,,,,,,,,,,,,,,,,,,,,,,,,,,,,,,,,,,,,,,,,,,,,,,,,,,,,,,,,,,,986.9356994564878,986.9356994564878,986.9356994564878,986.9356994564878,986.9356994564878,986.9356994564878,s,1,0.8737447182647884,987.8259537247941,988.8566127310041,,,,,,,,,,,,,,,,,,,,,,,,,,,,,,,,,,,,,,,578,2023-05-17_09h02.12.492,eb_02psyexp,2022.2.4,99.91067338556135,
257,0,257,0,,,,,,,,,,,,,,,,,,,,,,,,,,,,,,,,,,,,,,,,,,,,,,,,,,,,,,,,,,,988.8566127310041,988.8566127310041,988.8566127310041,988.8566127310041,988.8566127310041,988.8566127310041,s,1,0.43281821091659367,989.3069106218172,990.32756738842,,,,,,,,,,,,,,,,,,,,,,,,,,,,,,,,,,,,,,,578,2023-05-17_09h02.12.492,eb_02psyexp,2022.2.4,99.91067338556135,
258,0,258,0,,,,,,,,,,,,,,,,,,,,,,,,,,,,,,,,,,,,,,,,,,,,,,,,,,,,,,,,,,,990.32756738842,990.32756738842,990.32756738842,990.32756738842,990.32756738842,990.32756738842,s,1,0.5138708533486351,990.8579115702305,,,,,,,,,,,,,,,,,,,,,,,,,,,,,,,,,,,,,,,,578,2023-05-17_09h02.12.492,eb_02psyexp,2022.2.4,99.91067338556135,
259,0,259,0,,,,,,,,,,,,,,,,,,,,,,,,,,,,,,,,,,,,,,,,,,,,,,,,,,,,,,,,,,,991.8785933899926,991.8785933899926,991.8785933899926,991.8785933899926,991.8785933899926,991.8785933899926,l,1,0.48286080127581954,992.3792191147804,993.4095675224671,,,,,,,,,,,,,,,,,,,,,,,,,,,,,,,,,,,,,,,578,2023-05-17_09h02.12.492,eb_02psyexp,2022.2.4,99.91067338556135,
260,0,260,0,,,,,,,,,,,,,,,,,,,,,,,,,,,,,,,,,,,,,,,,,,,,,,,,,,,,,,,,,,,993.4095675224671,993.4095675224671,993.4095675224671,993.4095675224671,993.4095675224671,993.4095675224671,s,1,0.37588842201512307,993.7998033781769,,,,,,,,,,,,,,,,,,,,,,,,,,,,,,,,,,,,,,,,578,2023-05-17_09h02.12.492,eb_02psyexp,2022.2.4,99.91067338556135,
261,0,261,0,,,,,,,,,,,,,,,,,,,,,,,,,,,,,,,,,,,,,,,,,,,,,,,,,,,,,,,,,,,994.8207973056706,994.8207973056706,994.8207973056706,994.8207973056706,994.8207973056706,994.8207973056706,l,1,0.4526684475131333,995.2910882057622,996.3114373922581,,,,,,,,,,,,,,,,,,,,,,,,,,,,,,,,,,,,,,,578,2023-05-17_09h02.12.492,eb_02psyexp,2022.2.4,99.91067338556135,
262,0,262,0,,,,,,,,,,,,,,,,,,,,,,,,,,,,,,,,,,,,,,,,,,,,,,,,,,,,,,,,,,,996.3114373922581,996.3114373922581,996.3114373922581,996.3114373922581,996.3114373922581,996.3114373922581,l,1,0.4900211696512997,996.8117600645637,997.8424423128599,,,,,,,,,,,,,,,,,,,,,,,,,,,,,,,,,,,,,,,578,2023-05-17_09h02.12.492,eb_02psyexp,2022.2.4,99.91067338556135,
263,0,263,0,,,,,,,,,,,,,,,,,,,,,,,,,,,,,,,,,,,,,,,,,,,,,,,,,,,,,,,,,,,997.8424423128599,997.8424423128599,997.8424423128599,997.8424423128599,997.8424423128599,997.8424423128599,s,1,0.4950372308958322,998.3527566603152,999.3734176527942,,,,,,,,,,,,,,,,,,,,,,,,,,,,,,,,,,,,,,,578,2023-05-17_09h02.12.492,eb_02psyexp,2022.2.4,99.91067338556135,
264,0,264,0,,,,,,,,,,,,,,,,,,,,,,,,,,,,,,,,,,,,,,,,,,,,,,,,,,,,,,,,,,,999.3734176527942,999.3734176527942,999.3734176527942,999.3734176527942,999.3734176527942,999.3734176527942,l,1,0.5480792556190863,999.9337767034303,,,,,,,,,,,,,,,,,,,,,,,,,,,,,,,,,,,,,,,,578,2023-05-17_09h02.12.492,eb_02psyexp,2022.2.4,99.91067338556135,
265,0,265,0,,,,,,,,,,,,,,,,,,,,,,,,,,,,,,,,,,,,,,,,,,,,,,,,,,,,,,,,,,,1000.9647861518897,1000.9647861518897,1000.9647861518897,1000.9647861518897,1000.9647861518897,1000.9647861518897,s,1,0.37271753954701126,1001.3550096318359,1002.3753551961854,,,,,,,,,,,,,,,,,,,,,,,,,,,,,,,,,,,,,,,578,2023-05-17_09h02.12.492,eb_02psyexp,2022.2.4,99.91067338556135,
266,0,266,0,,,,,,,,,,,,,,,,,,,,,,,,,,,,,,,,,,,,,,,,,,,,,,,,,,,,,,,,,,,1002.3753551961854,1002.3753551961854,1002.3753551961854,1002.3753551961854,1002.3753551961854,1002.3753551961854,s,1,0.5531668540788814,1002.9457225234946,,,,,,,,,,,,,,,,,,,,,,,,,,,,,,,,,,,,,,,,578,2023-05-17_09h02.12.492,eb_02psyexp,2022.2.4,99.91067338556135,
267,0,267,0,,,,,,,,,,,,,,,,,,,,,,,,,,,,,,,,,,,,,,,,,,,,,,,,,,,,,,,,,,,1003.9667076974874,1003.9667076974874,1003.9667076974874,1003.9667076974874,1003.9667076974874,1003.9667076974874,s,1,0.6498339412501082,1004.627130799694,1005.6475361293415,,,,,,,,,,,,,,,,,,,,,,,,,,,,,,,,,,,,,,,578,2023-05-17_09h02.12.492,eb_02psyexp,2022.2.4,99.91067338556135,
268,0,268,0,,,,,,,,,,,,,,,,,,,,,,,,,,,,,,,,,,,,,,,,,,,,,,,,,,,,,,,,,,,1005.6475361293415,1005.6475361293415,1005.6475361293415,1005.6475361293415,1005.6475361293415,1005.6475361293415,l,1,0.5049969104584306,1006.1678107600892,1007.1885318196146,,,,,,,,,,,,,,,,,,,,,,,,,,,,,,,,,,,,,,,578,2023-05-17_09h02.12.492,eb_02psyexp,2022.2.4,99.91067338556135,
269,0,269,0,,,,,,,,,,,,,,,,,,,,,,,,,,,,,,,,,,,,,,,,,,,,,,,,,,,,,,,,,,,1007.1885318196146,1007.1885318196146,1007.1885318196146,1007.1885318196146,1007.1885318196146,1007.1885318196146,s,1,0.37201605166774243,1007.5787278317148,1008.5994371193228,,,,,,,,,,,,,,,,,,,,,,,,,,,,,,,,,,,,,,,578,2023-05-17_09h02.12.492,eb_02psyexp,2022.2.4,99.91067338556135,
270,0,270,0,,,,,,,,,,,,,,,,,,,,,,,,,,,,,,,,,,,,,,,,,,,,,,,,,,,,,,,,,,,1008.5994371193228,1008.5994371193228,1008.5994371193228,1008.5994371193228,1008.5994371193228,1008.5994371193228,l,1,0.4811348512303084,1009.1000073046889,1010.1204081065953,,,,,,,,,,,,,,,,,,,,,,,,,,,,,,,,,,,,,,,578,2023-05-17_09h02.12.492,eb_02psyexp,2022.2.4,99.91067338556135,
271,0,271,0,,,,,,,,,,,,,,,,,,,,,,,,,,,,,,,,,,,,,,,,,,,,,,,,,,,,,,,,,,,1010.1204081065953,1010.1204081065953,1010.1204081065953,1010.1204081065953,1010.1204081065953,1010.1204081065953,s,1,0.5601615095511079,1010.6907192907529,1011.7213948984863,,,,,,,,,,,,,,,,,,,,,,,,,,,,,,,,,,,,,,,578,2023-05-17_09h02.12.492,eb_02psyexp,2022.2.4,99.91067338556135,
272,0,272,0,,,,,,,,,,,,,,,,,,,,,,,,,,,,,,,,,,,,,,,,,,,,,,,,,,,,,,,,,,,1011.7213948984863,1011.7213948984863,1011.7213948984863,1011.7213948984863,1011.7213948984863,1011.7213948984863,s,1,0.5271695428527892,1012.2617536956677,1013.2924214553786,,,,,,,,,,,,,,,,,,,,,,,,,,,,,,,,,,,,,,,578,2023-05-17_09h02.12.492,eb_02psyexp,2022.2.4,99.91067338556135,
273,0,273,0,,,,,,,,,,,,,,,,,,,,,,,,,,,,,,,,,,,,,,,,,,,,,,,,,,,,,,,,,,,1013.2924214553786,1013.2924214553786,1013.2924214553786,1013.2924214553786,1013.2924214553786,1013.2924214553786,s,0,0.7561558445449919,1014.0628954548156,1015.0835667098872,,,,,,,,,,,,,,,,,,,,,,,,,,,,,,,,,,,,,,,578,2023-05-17_09h02.12.492,eb_02psyexp,2022.2.4,99.91067338556135,
274,0,274,0,,,,,,,,,,,,,,,,,,,,,,,,,,,,,,,,,,,,,,,,,,,,,,,,,,,,,,,,,,,1015.0835667098872,1015.0835667098872,1015.0835667098872,1015.0835667098872,1015.0835667098872,1015.0835667098872,l,1,0.5650314778322354,1015.6639377861284,1016.6946031311527,,,,,,,,,,,,,,,,,,,,,,,,,,,,,,,,,,,,,,,578,2023-05-17_09h02.12.492,eb_02psyexp,2022.2.4,99.91067338556135,
275,0,275,0,,,,,,,,,,,,,,,,,,,,,,,,,,,,,,,,,,,,,,,,,,,,,,,,,,,,,,,,,,,1016.6946031311527,1016.6946031311527,1016.6946031311527,1016.6946031311527,1016.6946031311527,1016.6946031311527,l,1,0.46501149551477283,1017.1749140798347,1018.1956079732627,,,,,,,,,,,,,,,,,,,,,,,,,,,,,,,,,,,,,,,578,2023-05-17_09h02.12.492,eb_02psyexp,2022.2.4,99.91067338556135,
276,0,276,0,,,,,,,,,,,,,,,,,,,,,,,,,,,,,,,,,,,,,,,,,,,,,,,,,,,,,,,,,,,1018.1956079732627,1018.1956079732627,1018.1956079732627,1018.1956079732627,1018.1956079732627,1018.1956079732627,l,1,0.4840087180491537,1018.6958992538275,1019.7265751633095,,,,,,,,,,,,,,,,,,,,,,,,,,,,,,,,,,,,,,,578,2023-05-17_09h02.12.492,eb_02psyexp,2022.2.4,99.91067338556135,
277,0,277,0,,,,,,,,,,,,,,,,,,,,,,,,,,,,,,,,,,,,,,,,,,,,,,,,,,,,,,,,,,,1019.7265751633095,1019.7265751633095,1019.7265751633095,1019.7265751633095,1019.7265751633095,1019.7265751633095,s,1,0.6170454181265086,1020.3569713229081,1021.3776778938482,,,,,,,,,,,,,,,,,,,,,,,,,,,,,,,,,,,,,,,578,2023-05-17_09h02.12.492,eb_02psyexp,2022.2.4,99.91067338556135,
278,0,278,0,,,,,,,,,,,,,,,,,,,,,,,,,,,,,,,,,,,,,,,,,,,,,,,,,,,,,,,,,,,1021.3776778938482,1021.3776778938482,1021.3776778938482,1021.3776778938482,1021.3776778938482,1021.3776778938482,l,1,0.5019781580194831,1021.8979649002431,,,,,,,,,,,,,,,,,,,,,,,,,,,,,,,,,,,,,,,,578,2023-05-17_09h02.12.492,eb_02psyexp,2022.2.4,99.91067338556135,
