trials.thisRepN,trials.thisTrialN,trials.thisN,trials.thisIndex,image_loop.thisRepN,image_loop.thisTrialN,image_loop.thisN,image_loop.thisIndex,break_loop.thisRepN,break_loop.thisTrialN,break_loop.thisN,break_loop.thisIndex,test_trials.thisRepN,test_trials.thisTrialN,test_trials.thisN,test_trials.thisIndex,distance matrix,tools,welcome_text.started,instructions_0_keypress.started,instructions_0_keypress.keys,instructions_0_keypress.rt,consent_image_0.started,consent0_key_resp.started,consent0_text.started,consent0_key_resp.keys,consent0_key_resp.rt,consent_image_1.started,consent1_key_resp.started,consent1_text.started,consent1_key_resp.keys,consent1_key_resp.rt,consent2_text.started,consent_image_2.started,consent2_key_resp.started,consent2_key_resp.keys,consent2_key_resp.rt,agree_button.started,disagree_button.started,consent_image_3.started,agree_button.numClicks,agree_button.timesOn,agree_button.timesOff,disagree_button.numClicks,disagree_button.timesOn,disagree_button.timesOff,instructions_text1.started,instructions1_key_resp.started,instr1_cnt_text.started,instructions1_key_resp.keys,instructions1_key_resp.rt,instructions_text2.started,instr2_cnt_text.started,instructions2_key_resp.started,instructions2_key_resp.keys,instructions2_key_resp.rt,instructions_text3.started,instructions3_key_resp.started,instr3_cnt_text.started,instructions3_key_resp.keys,instructions3_key_resp.rt,text_countdown.started,image.started,small_large_keyresp.started,task_question_text.started,smalleroption_text.started,largeroption_text.started,accuracy_score_text.started,small_large_keyresp.keys,small_large_keyresp.corr,small_large_keyresp.rt,fb_2.started,fb_2.stopped,break_text.started,break_key_resp.started,break_key_resp.keys,break_key_resp.rt,reveal_seq_text.started,start_test_text.started,continue_to_test.started,continue_to_test.keys,continue_to_test.rt,test_structure_info.started,start_test_text_2.started,continue_to_test_2.started,continue_to_test_2.keys,continue_to_test_2.rt,test_cntdown_text.started,parent index,left child index,right child index,left distance,right distance,parent_image.started,top_image_text.started,left_child_image.started,right_child_image.started,path_resp.started,child_choice_text.started,left_choice_text.started,right_choice_text.started,path_resp.keys,path_resp.rt,graph.started,debrief_text.started,debriefing_title.started,demo_scr_adv.started,demo_scr_adv_keypress.started,demo_scr_adv_keypress.keys,demo_scr_adv_keypress.rt,text_countdown_2.started,participant,date,expName,psychopyVersion,frameRate,
,,,,,,,,,,,,,,,,"[[0. 1. 1. 2. 2. 3. 4. 5. 5. 6. 6. 7.]
 [1. 0. 2. 1. 1. 2. 3. 4. 4. 5. 5. 6.]
 [1. 2. 0. 1. 1. 2. 3. 4. 4. 5. 5. 6.]
 [2. 1. 1. 0. 1. 1. 2. 3. 3. 4. 4. 5.]
 [2. 1. 1. 1. 0. 1. 2. 3. 3. 4. 4. 5.]
 [3. 2. 2. 1. 1. 0. 1. 2. 2. 3. 3. 4.]
 [4. 3. 3. 2. 2. 1. 0. 1. 1. 2. 2. 3.]
 [5. 4. 4. 3. 3. 2. 1. 0. 1. 1. 1. 2.]
 [5. 4. 4. 3. 3. 2. 1. 1. 0. 1. 1. 2.]
 [6. 5. 5. 4. 4. 3. 2. 1. 1. 0. 2. 1.]
 [6. 5. 5. 4. 4. 3. 2. 1. 1. 2. 0. 1.]
 [7. 6. 6. 5. 5. 4. 3. 2. 2. 1. 1. 0.]]",[11  4 10  5  3  6  0  2  8  7  9  1],11.578118873410858,11.578118873410858,return,6.835038942634128,,,,,,,,,,,,,,,,,,,,,,,,,,,,,,,,,,,,,,,,,,,,,,,,,,,,,,,,,,,,,,,,,,,,,,,,,,,,,,,,,,,,,,,,,,579,2010-12-30_08h00.31.349,eb_02psyexp,2022.2.4,119.99286468661035,
,,,,,,,,,,,,,,,,,,,,,,18.428345214691944,18.428345214691944,18.428345214691944,space,2.1368311083642766,,,,,,,,,,,,,,,,,,,,,,,,,,,,,,,,,,,,,,,,,,,,,,,,,,,,,,,,,,,,,,,,,,,,,,,,,,,,,,,,,,,,,579,2010-12-30_08h00.31.349,eb_02psyexp,2022.2.4,119.99286468661035,
,,,,,,,,,,,,,,,,,,,,,,,,,,,20.57851489877794,20.57851489877794,20.57851489877794,space,1.4106877888552845,,,,,,,,,,,,,,,,,,,,,,,,,,,,,,,,,,,,,,,,,,,,,,,,,,,,,,,,,,,,,,,,,,,,,,,,,,,,,,,,579,2010-12-30_08h00.31.349,eb_02psyexp,2022.2.4,119.99286468661035,
,,,,,,,,,,,,,,,,,,,,,,,,,,,,,,,,22.0036288240226,22.0036288240226,22.0036288240226,space,1.1846282322658226,,,,,,,,,,,,,,,,,,,,,,,,,,,,,,,,,,,,,,,,,,,,,,,,,,,,,,,,,,,,,,,,,,,,,,,,,,,579,2010-12-30_08h00.31.349,eb_02psyexp,2022.2.4,119.99286468661035,
,,,,,,,,,,,,,,,,,,,,,,,,,,,,,,,,,,,,,23.212043518200517,23.212043518200517,23.212043518200517,1,[2.258330191485584],[2.2583347192266956],0,,,25.46226756530814,27.45408052543644,27.45408052543644,space,1.3582572888117284,,,,,,,,,,,,,,,,,,,,,,,,,,,,,,,,,,,,,,,,,,,,,,,,,,,,,,,,,,,,,579,2010-12-30_08h00.31.349,eb_02psyexp,2022.2.4,119.99286468661035,
,,,,,,,,,,,,,,,,,,,,,,,,,,,,,,,,,,,,,,,,,,,,,,,,,,,28.8208534528967,31.812766324845143,31.812766324845143,space,6.383765609352849,,,,,,,,,,,,,,,,,,,,,,,,,,,,,,,,,,,,,,,,,,,,,,,,,,,,,,,,579,2010-12-30_08h00.31.349,eb_02psyexp,2022.2.4,119.99286468661035,
,,,,,,,,,,,,,,,,,,,,,,,,,,,,,,,,,,,,,,,,,,,,,,,,,,,,,,,,38.20494041661732,41.196865362580866,41.196865362580866,space,7.086796078830957,,,,,,,,,,,,,,,,,,,,,,,,,,,,,,,,,,,,,,,,,,,,,,,,,,,579,2010-12-30_08h00.31.349,eb_02psyexp,2022.2.4,119.99286468661035,
0,0,0,0,,,,,,,,,,,,,,,,,,,,,,,,,,,,,,,,,,,,,,,,,,,,,,,,,,,,,,,,,,48.30578622664325,53.33948279451579,53.33948279451579,53.33948279451579,53.33948279451579,53.33948279451579,53.33948279451579,l,1,0.9193579374114051,54.27295596420299,55.29801090830006,,,,,,,,,,,,,,,,,,,,,,,,,,,,,,,,,,,,,,,579,2010-12-30_08h00.31.349,eb_02psyexp,2022.2.4,119.99286468661035,
1,0,1,0,,,,,,,,,,,,,,,,,,,,,,,,,,,,,,,,,,,,,,,,,,,,,,,,,,,,,,,,,,,55.29801090830006,55.29801090830006,55.29801090830006,55.29801090830006,55.29801090830006,55.29801090830006,l,1,0.8247794101480395,56.13142609281931,57.15649341267999,,,,,,,,,,,,,,,,,,,,,,,,,,,,,,,,,,,,,,,579,2010-12-30_08h00.31.349,eb_02psyexp,2022.2.4,119.99286468661035,
2,0,2,0,,,,,,,,,,,,,,,,,,,,,,,,,,,,,,,,,,,,,,,,,,,,,,,,,,,,,,,,,,,57.15649341267999,57.15649341267999,57.15649341267999,57.15649341267999,57.15649341267999,57.15649341267999,s,1,0.6463292277185246,57.8149157888256,58.84830266004428,,,,,,,,,,,,,,,,,,,,,,,,,,,,,,,,,,,,,,,579,2010-12-30_08h00.31.349,eb_02psyexp,2022.2.4,119.99286468661035,
3,0,3,0,,,,,,,,,,,,,,,,,,,,,,,,,,,,,,,,,,,,,,,,,,,,,,,,,,,,,,,,,,,58.84830266004428,58.84830266004428,58.84830266004428,58.84830266004428,58.84830266004428,58.84830266004428,l,1,0.8505503390915692,59.71507513464894,60.740141850779764,,,,,,,,,,,,,,,,,,,,,,,,,,,,,,,,,,,,,,,579,2010-12-30_08h00.31.349,eb_02psyexp,2022.2.4,119.99286468661035,
4,0,4,0,,,,,,,,,,,,,,,,,,,,,,,,,,,,,,,,,,,,,,,,,,,,,,,,,,,,,,,,,,,60.740141850779764,60.740141850779764,60.740141850779764,60.740141850779764,60.740141850779764,60.740141850779764,s,1,0.5987590940203518,61.34852134936955,62.3652525159996,,,,,,,,,,,,,,,,,,,,,,,,,,,,,,,,,,,,,,,579,2010-12-30_08h00.31.349,eb_02psyexp,2022.2.4,119.99286468661035,
5,0,5,0,,,,,,,,,,,,,,,,,,,,,,,,,,,,,,,,,,,,,,,,,,,,,,,,,,,,,,,,,,,62.3652525159996,62.3652525159996,62.3652525159996,62.3652525159996,62.3652525159996,62.3652525159996,l,1,0.5096751169767231,62.89032089232933,63.91538428806234,,,,,,,,,,,,,,,,,,,,,,,,,,,,,,,,,,,,,,,579,2010-12-30_08h00.31.349,eb_02psyexp,2022.2.4,119.99286468661035,
6,0,6,0,,,,,,,,,,,,,,,,,,,,,,,,,,,,,,,,,,,,,,,,,,,,,,,,,,,,,,,,,,,63.91538428806234,63.91538428806234,63.91538428806234,63.91538428806234,63.91538428806234,63.91538428806234,s,1,0.45558444946072996,64.38212615530938,65.41550608398393,,,,,,,,,,,,,,,,,,,,,,,,,,,,,,,,,,,,,,,579,2010-12-30_08h00.31.349,eb_02psyexp,2022.2.4,119.99286468661035,
7,0,7,0,,,,,,,,,,,,,,,,,,,,,,,,,,,,,,,,,,,,,,,,,,,,,,,,,,,,,,,,,,,65.41550608398393,65.41550608398393,65.41550608398393,65.41550608398393,65.41550608398393,65.41550608398393,s,1,0.5874467135872692,66.01553886465263,67.04063999152277,,,,,,,,,,,,,,,,,,,,,,,,,,,,,,,,,,,,,,,579,2010-12-30_08h00.31.349,eb_02psyexp,2022.2.4,119.99286468661035,
8,0,8,0,,,,,,,,,,,,,,,,,,,,,,,,,,,,,,,,,,,,,,,,,,,,,,,,,,,,,,,,,,,67.04063999152277,67.04063999152277,67.04063999152277,67.04063999152277,67.04063999152277,67.04063999152277,l,1,0.45047475618775934,67.50736797368154,68.54079680191353,,,,,,,,,,,,,,,,,,,,,,,,,,,,,,,,,,,,,,,579,2010-12-30_08h00.31.349,eb_02psyexp,2022.2.4,119.99286468661035,
9,0,9,0,,,,,,,,,,,,,,,,,,,,,,,,,,,,,,,,,,,,,,,,,,,,,,,,,,,,,,,,,,,68.54079680191353,68.54079680191353,68.54079680191353,68.54079680191353,68.54079680191353,68.54079680191353,l,0,0.3822379535995424,68.9324511103332,69.9575594816124,,,,,,,,,,,,,,,,,,,,,,,,,,,,,,,,,,,,,,,579,2010-12-30_08h00.31.349,eb_02psyexp,2022.2.4,119.99286468661035,
10,0,10,0,,,,,,,,,,,,,,,,,,,,,,,,,,,,,,,,,,,,,,,,,,,,,,,,,,,,,,,,,,,69.9575594816124,69.9575594816124,69.9575594816124,69.9575594816124,69.9575594816124,69.9575594816124,l,1,0.5564984773518518,70.52429202164058,71.54097881657071,,,,,,,,,,,,,,,,,,,,,,,,,,,,,,,,,,,,,,,579,2010-12-30_08h00.31.349,eb_02psyexp,2022.2.4,119.99286468661035,
11,0,11,0,,,,,,,,,,,,,,,,,,,,,,,,,,,,,,,,,,,,,,,,,,,,,,,,,,,,,,,,,,,71.54097881657071,71.54097881657071,71.54097881657071,71.54097881657071,71.54097881657071,71.54097881657071,l,1,0.48506630526389927,72.04105684452225,73.05779434996657,,,,,,,,,,,,,,,,,,,,,,,,,,,,,,,,,,,,,,,579,2010-12-30_08h00.31.349,eb_02psyexp,2022.2.4,119.99286468661035,
12,0,12,0,,,,,,,,,,,,,,,,,,,,,,,,,,,,,,,,,,,,,,,,,,,,,,,,,,,,,,,,,,,73.05779434996657,73.05779434996657,73.05779434996657,73.05779434996657,73.05779434996657,73.05779434996657,s,1,0.6243588746292517,73.69118834484834,74.70792102080304,,,,,,,,,,,,,,,,,,,,,,,,,,,,,,,,,,,,,,,579,2010-12-30_08h00.31.349,eb_02psyexp,2022.2.4,119.99286468661035,
13,0,13,0,,,,,,,,,,,,,,,,,,,,,,,,,,,,,,,,,,,,,,,,,,,,,,,,,,,,,,,,,,,74.70792102080304,74.70792102080304,74.70792102080304,74.70792102080304,74.70792102080304,74.70792102080304,l,1,0.4461863930337131,75.16633458295837,76.18305639235768,,,,,,,,,,,,,,,,,,,,,,,,,,,,,,,,,,,,,,,579,2010-12-30_08h00.31.349,eb_02psyexp,2022.2.4,119.99286468661035,
14,0,14,0,,,,,,,,,,,,,,,,,,,,,,,,,,,,,,,,,,,,,,,,,,,,,,,,,,,,,,,,,,,76.18305639235768,76.18305639235768,76.18305639235768,76.18305639235768,76.18305639235768,76.18305639235768,s,1,0.4911035792902112,76.68313924979884,77.71653879864607,,,,,,,,,,,,,,,,,,,,,,,,,,,,,,,,,,,,,,,579,2010-12-30_08h00.31.349,eb_02psyexp,2022.2.4,119.99286468661035,
15,0,15,0,,,,,,,,,,,,,,,,,,,,,,,,,,,,,,,,,,,,,,,,,,,,,,,,,,,,,,,,,,,77.71653879864607,77.71653879864607,77.71653879864607,77.71653879864607,77.71653879864607,77.71653879864607,l,1,0.6296445457264781,78.35824781714473,79.38333686999977,,,,,,,,,,,,,,,,,,,,,,,,,,,,,,,,,,,,,,,579,2010-12-30_08h00.31.349,eb_02psyexp,2022.2.4,119.99286468661035,
16,0,16,0,,,,,,,,,,,,,,,,,,,,,,,,,,,,,,,,,,,,,,,,,,,,,,,,,,,,,,,,,,,79.38333686999977,79.38333686999977,79.38333686999977,79.38333686999977,79.38333686999977,79.38333686999977,s,1,0.6989106520777568,80.09173209487926,81.10845692281146,,,,,,,,,,,,,,,,,,,,,,,,,,,,,,,,,,,,,,,579,2010-12-30_08h00.31.349,eb_02psyexp,2022.2.4,119.99286468661035,
17,0,17,0,,,,,,,,,,,,,,,,,,,,,,,,,,,,,,,,,,,,,,,,,,,,,,,,,,,,,,,,,,,81.10845692281146,81.10845692281146,81.10845692281146,81.10845692281146,81.10845692281146,81.10845692281146,l,1,0.557764430413954,81.6752166292863,82.69191549811512,,,,,,,,,,,,,,,,,,,,,,,,,,,,,,,,,,,,,,,579,2010-12-30_08h00.31.349,eb_02psyexp,2022.2.4,119.99286468661035,
18,0,18,0,,,,,,,,,,,,,,,,,,,,,,,,,,,,,,,,,,,,,,,,,,,,,,,,,,,,,,,,,,,82.69191549811512,82.69191549811512,82.69191549811512,82.69191549811512,82.69191549811512,82.69191549811512,s,1,0.5503597820643336,83.25865739549045,84.29205966100562,,,,,,,,,,,,,,,,,,,,,,,,,,,,,,,,,,,,,,,579,2010-12-30_08h00.31.349,eb_02psyexp,2022.2.4,119.99286468661035,
19,0,19,0,,,,,,,,,,,,,,,,,,,,,,,,,,,,,,,,,,,,,,,,,,,,,,,,,,,,,,,,,,,84.29205966100562,84.29205966100562,84.29205966100562,84.29205966100562,84.29205966100562,84.29205966100562,l,1,0.5182497304631397,84.82546600152273,85.85052034177352,,,,,,,,,,,,,,,,,,,,,,,,,,,,,,,,,,,,,,,579,2010-12-30_08h00.31.349,eb_02psyexp,2022.2.4,119.99286468661035,
20,0,20,0,,,,,,,,,,,,,,,,,,,,,,,,,,,,,,,,,,,,,,,,,,,,,,,,,,,,,,,,,,,85.85052034177352,85.85052034177352,85.85052034177352,85.85052034177352,85.85052034177352,85.85052034177352,s,1,0.5188268650090322,86.38389740290586,87.41733287170064,,,,,,,,,,,,,,,,,,,,,,,,,,,,,,,,,,,,,,,579,2010-12-30_08h00.31.349,eb_02psyexp,2022.2.4,119.99286468661035,
21,0,21,0,,,,,,,,,,,,,,,,,,,,,,,,,,,,,,,,,,,,,,,,,,,,,,,,,,,,,,,,,,,87.41733287170064,87.41733287170064,87.41733287170064,87.41733287170064,87.41733287170064,87.41733287170064,l,1,0.4799955503549427,87.90904244873673,88.92574373236857,,,,,,,,,,,,,,,,,,,,,,,,,,,,,,,,,,,,,,,579,2010-12-30_08h00.31.349,eb_02psyexp,2022.2.4,119.99286468661035,
22,0,22,0,,,,,,,,,,,,,,,,,,,,,,,,,,,,,,,,,,,,,,,,,,,,,,,,,,,,,,,,,,,88.92574373236857,88.92574373236857,88.92574373236857,88.92574373236857,88.92574373236857,88.92574373236857,s,1,0.49963714135810733,89.43416696880013,90.46758432674687,,,,,,,,,,,,,,,,,,,,,,,,,,,,,,,,,,,,,,,579,2010-12-30_08h00.31.349,eb_02psyexp,2022.2.4,119.99286468661035,
23,0,23,0,,,,,,,,,,,,,,,,,,,,,,,,,,,,,,,,,,,,,,,,,,,,,,,,,,,,,,,,,,,90.46758432674687,90.46758432674687,90.46758432674687,90.46758432674687,90.46758432674687,90.46758432674687,l,1,0.47779718693345785,90.95929601660464,91.97600303543732,,,,,,,,,,,,,,,,,,,,,,,,,,,,,,,,,,,,,,,579,2010-12-30_08h00.31.349,eb_02psyexp,2022.2.4,119.99286468661035,
24,0,24,0,,,,,,,,,,,,,,,,,,,,,,,,,,,,,,,,,,,,,,,,,,,,,,,,,,,,,,,,,,,91.97600303543732,91.97600303543732,91.97600303543732,91.97600303543732,91.97600303543732,91.97600303543732,s,1,0.34540306555572897,92.33442532108165,93.36782607727218,,,,,,,,,,,,,,,,,,,,,,,,,,,,,,,,,,,,,,,579,2010-12-30_08h00.31.349,eb_02psyexp,2022.2.4,119.99286468661035,
25,0,25,0,,,,,,,,,,,,,,,,,,,,,,,,,,,,,,,,,,,,,,,,,,,,,,,,,,,,,,,,,,,93.36782607727218,93.36782607727218,93.36782607727218,93.36782607727218,93.36782607727218,93.36782607727218,l,1,0.4656583450268954,93.84283105027862,94.86793036595918,,,,,,,,,,,,,,,,,,,,,,,,,,,,,,,,,,,,,,,579,2010-12-30_08h00.31.349,eb_02psyexp,2022.2.4,119.99286468661035,
26,0,26,0,,,,,,,,,,,,,,,,,,,,,,,,,,,,,,,,,,,,,,,,,,,,,,,,,,,,,,,,,,,94.86793036595918,94.86793036595918,94.86793036595918,94.86793036595918,94.86793036595918,94.86793036595918,s,1,0.3975459039211273,95.27631584112532,96.29301471007057,,,,,,,,,,,,,,,,,,,,,,,,,,,,,,,,,,,,,,,579,2010-12-30_08h00.31.349,eb_02psyexp,2022.2.4,119.99286468661035,
27,0,27,0,,,,,,,,,,,,,,,,,,,,,,,,,,,,,,,,,,,,,,,,,,,,,,,,,,,,,,,,,,,96.29301471007057,96.29301471007057,96.29301471007057,96.29301471007057,96.29301471007057,96.29301471007057,l,1,0.41246779018547386,96.71806856733747,97.74319867161103,,,,,,,,,,,,,,,,,,,,,,,,,,,,,,,,,,,,,,,579,2010-12-30_08h00.31.349,eb_02psyexp,2022.2.4,119.99286468661035,
28,0,28,0,,,,,,,,,,,,,,,,,,,,,,,,,,,,,,,,,,,,,,,,,,,,,,,,,,,,,,,,,,,97.74319867161103,97.74319867161103,97.74319867161103,97.74319867161103,97.74319867161103,97.74319867161103,l,1,0.5623105723643675,98.3181997507345,99.3349843446631,,,,,,,,,,,,,,,,,,,,,,,,,,,,,,,,,,,,,,,579,2010-12-30_08h00.31.349,eb_02psyexp,2022.2.4,119.99286468661035,
29,0,29,0,,,,,,,,,,,,,,,,,,,,,,,,,,,,,,,,,,,,,,,,,,,,,,,,,,,,,,,,,,,99.3349843446631,99.3349843446631,99.3349843446631,99.3349843446631,99.3349843446631,99.3349843446631,l,1,0.38655016280245036,99.73501827241853,100.75177690736018,,,,,,,,,,,,,,,,,,,,,,,,,,,,,,,,,,,,,,,579,2010-12-30_08h00.31.349,eb_02psyexp,2022.2.4,119.99286468661035,
30,0,30,0,,,,,,,,,,,,,,,,,,,,,,,,,,,,,,,,,,,,,,,,,,,,,,,,,,,,,,,,,,,100.75177690736018,100.75177690736018,100.75177690736018,100.75177690736018,100.75177690736018,100.75177690736018,s,1,0.3778037973679602,101.14346713584382,102.16016509919427,,,,,,,,,,,,,,,,,,,,,,,,,,,,,,,,,,,,,,,579,2010-12-30_08h00.31.349,eb_02psyexp,2022.2.4,119.99286468661035,
31,0,31,0,,,,,,,,,,,,,,,,,,,,,,,,,,,,,,,,,,,,,,,,,,,,,,,,,,,,,,,,,,,102.16016509919427,102.16016509919427,102.16016509919427,102.16016509919427,102.16016509919427,102.16016509919427,l,1,0.3684455850161612,102.5435756201623,103.56864686403424,,,,,,,,,,,,,,,,,,,,,,,,,,,,,,,,,,,,,,,579,2010-12-30_08h00.31.349,eb_02psyexp,2022.2.4,119.99286468661035,
32,0,32,0,,,,,,,,,,,,,,,,,,,,,,,,,,,,,,,,,,,,,,,,,,,,,,,,,,,,,,,,,,,103.56864686403424,103.56864686403424,103.56864686403424,103.56864686403424,103.56864686403424,103.56864686403424,l,1,0.5039635376306251,104.08534195984248,105.11877441010438,,,,,,,,,,,,,,,,,,,,,,,,,,,,,,,,,,,,,,,579,2010-12-30_08h00.31.349,eb_02psyexp,2022.2.4,119.99286468661035,
33,0,33,0,,,,,,,,,,,,,,,,,,,,,,,,,,,,,,,,,,,,,,,,,,,,,,,,,,,,,,,,,,,105.11877441010438,105.11877441010438,105.11877441010438,105.11877441010438,105.11877441010438,105.11877441010438,l,1,0.4738885492552072,105.60215115430765,106.62723024620209,,,,,,,,,,,,,,,,,,,,,,,,,,,,,,,,,,,,,,,579,2010-12-30_08h00.31.349,eb_02psyexp,2022.2.4,119.99286468661035,
34,0,34,0,,,,,,,,,,,,,,,,,,,,,,,,,,,,,,,,,,,,,,,,,,,,,,,,,,,,,,,,,,,106.62723024620209,106.62723024620209,106.62723024620209,106.62723024620209,106.62723024620209,106.62723024620209,l,1,0.45345128525514156,107.09395883209072,108.1190207186155,,,,,,,,,,,,,,,,,,,,,,,,,,,,,,,,,,,,,,,579,2010-12-30_08h00.31.349,eb_02psyexp,2022.2.4,119.99286468661035,
35,0,35,0,,,,,,,,,,,,,,,,,,,,,,,,,,,,,,,,,,,,,,,,,,,,,,,,,,,,,,,,,,,108.1190207186155,108.1190207186155,108.1190207186155,108.1190207186155,108.1190207186155,108.1190207186155,s,1,0.4896930407267064,108.61908093746752,109.65248108992819,,,,,,,,,,,,,,,,,,,,,,,,,,,,,,,,,,,,,,,579,2010-12-30_08h00.31.349,eb_02psyexp,2022.2.4,119.99286468661035,
36,0,36,0,,,,,,,,,,,,,,,,,,,,,,,,,,,,,,,,,,,,,,,,,,,,,,,,,,,,,,,,,,,109.65248108992819,109.65248108992819,109.65248108992819,109.65248108992819,109.65248108992819,109.65248108992819,l,1,0.5003202247899026,110.16920969099738,111.19429210317321,,,,,,,,,,,,,,,,,,,,,,,,,,,,,,,,,,,,,,,579,2010-12-30_08h00.31.349,eb_02psyexp,2022.2.4,119.99286468661035,
37,0,37,0,,,,,,,,,,,,,,,,,,,,,,,,,,,,,,,,,,,,,,,,,,,,,,,,,,,,,,,,,,,111.19429210317321,111.19429210317321,111.19429210317321,111.19429210317321,111.19429210317321,111.19429210317321,s,1,0.5984798839781433,111.80268397752661,112.81937620579265,,,,,,,,,,,,,,,,,,,,,,,,,,,,,,,,,,,,,,,579,2010-12-30_08h00.31.349,eb_02psyexp,2022.2.4,119.99286468661035,
38,0,38,0,,,,,,,,,,,,,,,,,,,,,,,,,,,,,,,,,,,,,,,,,,,,,,,,,,,,,,,,,,,112.81937620579265,112.81937620579265,112.81937620579265,112.81937620579265,112.81937620579265,112.81937620579265,l,1,0.44542482891120017,113.27777769393288,114.30287731159478,,,,,,,,,,,,,,,,,,,,,,,,,,,,,,,,,,,,,,,579,2010-12-30_08h00.31.349,eb_02psyexp,2022.2.4,119.99286468661035,
39,0,39,0,,,,,,,,,,,,,,,,,,,,,,,,,,,,,,,,,,,,,,,,,,,,,,,,,,,,,,,,,,,114.30287731159478,114.30287731159478,114.30287731159478,114.30287731159478,114.30287731159478,114.30287731159478,s,1,0.5219310761895031,114.83625678753015,115.85295988223515,,,,,,,,,,,,,,,,,,,,,,,,,,,,,,,,,,,,,,,579,2010-12-30_08h00.31.349,eb_02psyexp,2022.2.4,119.99286468661035,
40,0,40,0,,,,,,,,,,,,,,,,,,,,,,,,,,,,,,,,,,,,,,,,,,,,,,,,,,,,,,,,,,,115.85295988223515,115.85295988223515,115.85295988223515,115.85295988223515,115.85295988223515,115.85295988223515,l,1,0.4758895037230104,116.34471383097116,117.36984967032913,,,,,,,,,,,,,,,,,,,,,,,,,,,,,,,,,,,,,,,579,2010-12-30_08h00.31.349,eb_02psyexp,2022.2.4,119.99286468661035,
41,0,41,0,,,,,,,,,,,,,,,,,,,,,,,,,,,,,,,,,,,,,,,,,,,,,,,,,,,,,,,,,,,117.36984967032913,117.36984967032913,117.36984967032913,117.36984967032913,117.36984967032913,117.36984967032913,l,1,0.5420975818997249,117.92818387656007,118.9449047803646,,,,,,,,,,,,,,,,,,,,,,,,,,,,,,,,,,,,,,,579,2010-12-30_08h00.31.349,eb_02psyexp,2022.2.4,119.99286468661035,
42,0,42,0,,,,,,,,,,,,,,,,,,,,,,,,,,,,,,,,,,,,,,,,,,,,,,,,,,,,,,,,,,,118.9449047803646,118.9449047803646,118.9449047803646,118.9449047803646,118.9449047803646,118.9449047803646,l,1,0.39899930509272963,119.35329327406362,120.37002866656985,,,,,,,,,,,,,,,,,,,,,,,,,,,,,,,,,,,,,,,579,2010-12-30_08h00.31.349,eb_02psyexp,2022.2.4,119.99286468661035,
43,0,43,0,,,,,,,,,,,,,,,,,,,,,,,,,,,,,,,,,,,,,,,,,,,,,,,,,,,,,,,,,,,120.37002866656985,120.37002866656985,120.37002866656985,120.37002866656985,120.37002866656985,120.37002866656985,s,1,0.3419810078339651,120.72841473040171,121.7451407656772,,,,,,,,,,,,,,,,,,,,,,,,,,,,,,,,,,,,,,,579,2010-12-30_08h00.31.349,eb_02psyexp,2022.2.4,119.99286468661035,
44,0,44,0,,,,,,,,,,,,,,,,,,,,,,,,,,,,,,,,,,,,,,,,,,,,,,,,,,,,,,,,,,,121.7451407656772,121.7451407656772,121.7451407656772,121.7451407656772,121.7451407656772,121.7451407656772,l,1,0.3748070443980396,122.12852744059637,123.1452525703935,,,,,,,,,,,,,,,,,,,,,,,,,,,,,,,,,,,,,,,579,2010-12-30_08h00.31.349,eb_02psyexp,2022.2.4,119.99286468661035,
45,0,45,0,,,,,,,,,,,,,,,,,,,,,,,,,,,,,,,,,,,,,,,,,,,,,,,,,,,,,,,,,,,123.1452525703935,123.1452525703935,123.1452525703935,123.1452525703935,123.1452525703935,123.1452525703935,s,1,0.5026987919118255,123.66199867858086,124.69541875307914,,,,,,,,,,,,,,,,,,,,,,,,,,,,,,,,,,,,,,,579,2010-12-30_08h00.31.349,eb_02psyexp,2022.2.4,119.99286468661035,
46,0,46,0,,,,,,,,,,,,,,,,,,,,,,,,,,,,,,,,,,,,,,,,,,,,,,,,,,,,,,,,,,,124.69541875307914,124.69541875307914,124.69541875307914,124.69541875307914,124.69541875307914,124.69541875307914,l,1,0.4166166993090883,125.12043367198203,126.1455375154037,,,,,,,,,,,,,,,,,,,,,,,,,,,,,,,,,,,,,,,579,2010-12-30_08h00.31.349,eb_02psyexp,2022.2.4,119.99286468661035,
47,0,47,0,,,,,,,,,,,,,,,,,,,,,,,,,,,,,,,,,,,,,,,,,,,,,,,,,,,,,,,,,,,126.1455375154037,126.1455375154037,126.1455375154037,126.1455375154037,126.1455375154037,126.1455375154037,l,1,0.43051411118358374,126.5872156850528,127.61230262496974,,,,,,,,,,,,,,,,,,,,,,,,,,,,,,,,,,,,,,,579,2010-12-30_08h00.31.349,eb_02psyexp,2022.2.4,119.99286468661035,
48,0,48,0,,,,,,,,,,,,,,,,,,,,,,,,,,,,,,,,,,,,,,,,,,,,,,,,,,,,,,,,,,,127.61230262496974,127.61230262496974,127.61230262496974,127.61230262496974,127.61230262496974,127.61230262496974,s,1,0.395744169712998,128.0206817613216,129.05408463056665,,,,,,,,,,,,,,,,,,,,,,,,,,,,,,,,,,,,,,,579,2010-12-30_08h00.31.349,eb_02psyexp,2022.2.4,119.99286468661035,
49,0,49,0,,,,,,,,,,,,,,,,,,,,,,,,,,,,,,,,,,,,,,,,,,,,,,,,,,,,,,,,,,,129.05408463056665,129.05408463056665,129.05408463056665,129.05408463056665,129.05408463056665,129.05408463056665,s,1,0.5379682928323746,129.60417535109445,130.62921097676735,,,,,,,,,,,,,,,,,,,,,,,,,,,,,,,,,,,,,,,579,2010-12-30_08h00.31.349,eb_02psyexp,2022.2.4,119.99286468661035,
50,0,50,0,,,,,,,,,,,,,,,,,,,,,,,,,,,,,,,,,,,,,,,,,,,,,,,,,,,,,,,,,,,130.62921097676735,130.62921097676735,130.62921097676735,130.62921097676735,130.62921097676735,130.62921097676735,l,1,0.40288922807667404,131.04589577950537,132.07937109237537,,,,,,,,,,,,,,,,,,,,,,,,,,,,,,,,,,,,,,,579,2010-12-30_08h00.31.349,eb_02psyexp,2022.2.4,119.99286468661035,
51,0,51,0,,,,,,,,,,,,,,,,,,,,,,,,,,,,,,,,,,,,,,,,,,,,,,,,,,,,,,,,,,,132.07937109237537,132.07937109237537,132.07937109237537,132.07937109237537,132.07937109237537,132.07937109237537,s,1,0.33578103745821863,132.4293545964174,133.45444183819927,,,,,,,,,,,,,,,,,,,,,,,,,,,,,,,,,,,,,,,579,2010-12-30_08h00.31.349,eb_02psyexp,2022.2.4,119.99286468661035,
52,0,52,0,,,,,,,,,,,,,,,,,,,,,,,,,,,,,,,,,,,,,,,,,,,,,,,,,,,,,,,,,,,133.45444183819927,133.45444183819927,133.45444183819927,133.45444183819927,133.45444183819927,133.45444183819927,s,1,0.4567091374192387,133.92117857397534,134.95456544519402,,,,,,,,,,,,,,,,,,,,,,,,,,,,,,,,,,,,,,,579,2010-12-30_08h00.31.349,eb_02psyexp,2022.2.4,119.99286468661035,
53,0,53,0,,,,,,,,,,,,,,,,,,,,,,,,,,,,,,,,,,,,,,,,,,,,,,,,,,,,,,,,,,,134.95456544519402,134.95456544519402,134.95456544519402,134.95456544519402,134.95456544519402,134.95456544519402,l,1,0.5006190548883751,135.4713151755277,136.48802068515215,,,,,,,,,,,,,,,,,,,,,,,,,,,,,,,,,,,,,,,579,2010-12-30_08h00.31.349,eb_02psyexp,2022.2.4,119.99286468661035,
54,0,54,0,,,,,,,,,,,,,,,,,,,,,,,,,,,,,,,,,,,,,,,,,,,,,,,,,,,,,,,,,,,136.48802068515215,136.48802068515215,136.48802068515215,136.48802068515215,136.48802068515215,136.48802068515215,s,1,0.5031868810765445,137.00474204169586,138.03815336269327,,,,,,,,,,,,,,,,,,,,,,,,,,,,,,,,,,,,,,,579,2010-12-30_08h00.31.349,eb_02psyexp,2022.2.4,119.99286468661035,
55,0,55,0,,,,,,,,,,,,,,,,,,,,,,,,,,,,,,,,,,,,,,,,,,,,,,,,,,,,,,,,,,,138.03815336269327,138.03815336269327,138.03815336269327,138.03815336269327,138.03815336269327,138.03815336269327,l,1,0.6650794597808272,138.71320638991892,139.7383277405752,,,,,,,,,,,,,,,,,,,,,,,,,,,,,,,,,,,,,,,579,2010-12-30_08h00.31.349,eb_02psyexp,2022.2.4,119.99286468661035,
56,0,56,0,,,,,,,,,,,,,,,,,,,,,,,,,,,,,,,,,,,,,,,,,,,,,,,,,,,,,,,,,,,139.7383277405752,139.7383277405752,139.7383277405752,139.7383277405752,139.7383277405752,139.7383277405752,s,1,0.4929726258851588,140.24669573875144,141.26341845362913,,,,,,,,,,,,,,,,,,,,,,,,,,,,,,,,,,,,,,,579,2010-12-30_08h00.31.349,eb_02psyexp,2022.2.4,119.99286468661035,
57,0,57,0,,,,,,,,,,,,,,,,,,,,,,,,,,,,,,,,,,,,,,,,,,,,,,,,,,,,,,,,,,,141.26341845362913,141.26341845362913,141.26341845362913,141.26341845362913,141.26341845362913,141.26341845362913,l,1,0.3758852476021275,141.655140979914,142.67186248744838,,,,,,,,,,,,,,,,,,,,,,,,,,,,,,,,,,,,,,,579,2010-12-30_08h00.31.349,eb_02psyexp,2022.2.4,119.99286468661035,
58,0,58,0,,,,,,,,,,,,,,,,,,,,,,,,,,,,,,,,,,,,,,,,,,,,,,,,,,,,,,,,,,,142.67186248744838,142.67186248744838,142.67186248744838,142.67186248744838,142.67186248744838,142.67186248744838,s,1,0.38346768473275006,143.06358048599213,144.0803161804797,,,,,,,,,,,,,,,,,,,,,,,,,,,,,,,,,,,,,,,579,2010-12-30_08h00.31.349,eb_02psyexp,2022.2.4,119.99286468661035,
59,0,59,0,,,,,,,,,,,,,,,,,,,,,,,,,,,,,,,,,,,,,,,,,,,,,,,,,,,,,,,,,,,144.0803161804797,144.0803161804797,144.0803161804797,144.0803161804797,144.0803161804797,144.0803161804797,l,1,0.351017449866049,144.4470021754969,145.46373575692996,,,,,,,,,,,,,,,,,,,,,,,,,,,,,,,,,,,,,,,579,2010-12-30_08h00.31.349,eb_02psyexp,2022.2.4,119.99286468661035,
60,0,60,0,,,,,,,,,,,,,,,,,,,,,,,,,,,,,,,,,,,,,,,,,,,,,,,,,,,,,,,,,,,145.46373575692996,145.46373575692996,145.46373575692996,145.46373575692996,145.46373575692996,145.46373575692996,s,1,0.3196248924359679,145.79714958323166,146.82223259913735,,,,,,,,,,,,,,,,,,,,,,,,,,,,,,,,,,,,,,,579,2010-12-30_08h00.31.349,eb_02psyexp,2022.2.4,119.99286468661035,
61,0,61,0,,,,,,,,,,,,,,,,,,,,,,,,,,,,,,,,,,,,,,,,,,,,,,,,,,,,,,,,,,,146.82223259913735,146.82223259913735,146.82223259913735,146.82223259913735,146.82223259913735,146.82223259913735,l,1,0.3131291102617979,147.14726227836218,148.17232356127352,,,,,,,,,,,,,,,,,,,,,,,,,,,,,,,,,,,,,,,579,2010-12-30_08h00.31.349,eb_02psyexp,2022.2.4,119.99286468661035,
62,0,62,0,,,,,,,,,,,,,,,,,,,,,,,,,,,,,,,,,,,,,,,,,,,,,,,,,,,,,,,,,,,148.17232356127352,148.17232356127352,148.17232356127352,148.17232356127352,148.17232356127352,148.17232356127352,l,1,0.5700858907075599,148.75569097825792,149.78914274694398,,,,,,,,,,,,,,,,,,,,,,,,,,,,,,,,,,,,,,,579,2010-12-30_08h00.31.349,eb_02psyexp,2022.2.4,119.99286468661035,
63,0,63,0,,,,,,,,,,,,,,,,,,,,,,,,,,,,,,,,,,,,,,,,,,,,,,,,,,,,,,,,,,,149.78914274694398,149.78914274694398,149.78914274694398,149.78914274694398,149.78914274694398,149.78914274694398,l,1,0.39329074404668063,150.1975101112621,151.22258920304012,,,,,,,,,,,,,,,,,,,,,,,,,,,,,,,,,,,,,,,579,2010-12-30_08h00.31.349,eb_02psyexp,2022.2.4,119.99286468661035,
64,0,64,0,,,,,,,,,,,,,,,,,,,,,,,,,,,,,,,,,,,,,,,,,,,,,,,,,,,,,,,,,,,151.22258920304012,151.22258920304012,151.22258920304012,151.22258920304012,151.22258920304012,151.22258920304012,l,1,0.3438666561851278,151.5809248581063,152.5976862097159,,,,,,,,,,,,,,,,,,,,,,,,,,,,,,,,,,,,,,,579,2010-12-30_08h00.31.349,eb_02psyexp,2022.2.4,119.99286468661035,
65,0,65,0,,,,,,,,,,,,,,,,,,,,,,,,,,,,,,,,,,,,,,,,,,,,,,,,,,,,,,,,,,,152.5976862097159,152.5976862097159,152.5976862097159,152.5976862097159,152.5976862097159,152.5976862097159,l,1,0.36879603122361004,152.9810777142411,154.00615891907364,,,,,,,,,,,,,,,,,,,,,,,,,,,,,,,,,,,,,,,579,2010-12-30_08h00.31.349,eb_02psyexp,2022.2.4,119.99286468661035,
66,0,66,0,,,,,,,,,,,,,,,,,,,,,,,,,,,,,,,,,,,,,,,,,,,,,,,,,,,,,,,,,,,154.00615891907364,154.00615891907364,154.00615891907364,154.00615891907364,154.00615891907364,154.00615891907364,s,1,0.5843627263093367,154.6061923035886,155.63962837611325,,,,,,,,,,,,,,,,,,,,,,,,,,,,,,,,,,,,,,,579,2010-12-30_08h00.31.349,eb_02psyexp,2022.2.4,119.99286468661035,
67,0,67,0,,,,,,,,,,,,,,,,,,,,,,,,,,,,,,,,,,,,,,,,,,,,,,,,,,,,,,,,,,,155.63962837611325,155.63962837611325,155.63962837611325,155.63962837611325,155.63962837611325,155.63962837611325,l,1,0.39895312231965363,156.04799815511797,157.07307302113622,,,,,,,,,,,,,,,,,,,,,,,,,,,,,,,,,,,,,,,579,2010-12-30_08h00.31.349,eb_02psyexp,2022.2.4,119.99286468661035,
68,0,68,0,,,,,,,,,,,,,,,,,,,,,,,,,,,,,,,,,,,,,,,,,,,,,,,,,,,,,,,,,,,157.07307302113622,157.07307302113622,157.07307302113622,157.07307302113622,157.07307302113622,157.07307302113622,l,1,0.36553727358113974,157.44810301740654,158.48156052117702,,,,,,,,,,,,,,,,,,,,,,,,,,,,,,,,,,,,,,,579,2010-12-30_08h00.31.349,eb_02psyexp,2022.2.4,119.99286468661035,
69,0,69,0,,,,,,,,,,,,,,,,,,,,,,,,,,,,,,,,,,,,,,,,,,,,,,,,,,,,,,,,,,,158.48156052117702,158.48156052117702,158.48156052117702,158.48156052117702,158.48156052117702,158.48156052117702,l,0,0.34903279517311603,158.8398928558454,159.86498221056536,,,,,,,,,,,,,,,,,,,,,,,,,,,,,,,,,,,,,,,579,2010-12-30_08h00.31.349,eb_02psyexp,2022.2.4,119.99286468661035,
70,0,70,0,,,,,,,,,,,,,,,,,,,,,,,,,,,,,,,,,,,,,,,,,,,,,,,,,,,,,,,,,,,159.86498221056536,159.86498221056536,159.86498221056536,159.86498221056536,159.86498221056536,159.86498221056536,l,1,0.637617876753211,160.51499659370165,161.5484272328904,,,,,,,,,,,,,,,,,,,,,,,,,,,,,,,,,,,,,,,579,2010-12-30_08h00.31.349,eb_02psyexp,2022.2.4,119.99286468661035,
71,0,71,0,,,,,,,,,,,,,,,,,,,,,,,,,,,,,,,,,,,,,,,,,,,,,,,,,,,,,,,,,,,161.5484272328904,161.5484272328904,161.5484272328904,161.5484272328904,161.5484272328904,161.5484272328904,s,1,0.6102534891106188,162.17350409110077,163.1985641665524,,,,,,,,,,,,,,,,,,,,,,,,,,,,,,,,,,,,,,,579,2010-12-30_08h00.31.349,eb_02psyexp,2022.2.4,119.99286468661035,
72,0,72,0,,,,,,,,,,,,,,,,,,,,,,,,,,,,,,,,,,,,,,,,,,,,,,,,,,,,,,,,,,,163.1985641665524,163.1985641665524,163.1985641665524,163.1985641665524,163.1985641665524,163.1985641665524,s,1,0.6471176563063636,163.85697507252917,164.88204148667865,,,,,,,,,,,,,,,,,,,,,,,,,,,,,,,,,,,,,,,579,2010-12-30_08h00.31.349,eb_02psyexp,2022.2.4,119.99286468661035,
73,0,73,0,,,,,,,,,,,,,,,,,,,,,,,,,,,,,,,,,,,,,,,,,,,,,,,,,,,,,,,,,,,164.88204148667865,164.88204148667865,164.88204148667865,164.88204148667865,164.88204148667865,164.88204148667865,s,1,0.5236627815756947,165.41539832402486,166.44049854530022,,,,,,,,,,,,,,,,,,,,,,,,,,,,,,,,,,,,,,,579,2010-12-30_08h00.31.349,eb_02psyexp,2022.2.4,119.99286468661035,
74,0,74,0,,,,,,,,,,,,,,,,,,,,,,,,,,,,,,,,,,,,,,,,,,,,,,,,,,,,,,,,,,,166.44049854530022,166.44049854530022,166.44049854530022,166.44049854530022,166.44049854530022,166.44049854530022,l,1,0.6372287939302623,167.0905781276524,168.11560349049978,,,,,,,,,,,,,,,,,,,,,,,,,,,,,,,,,,,,,,,579,2010-12-30_08h00.31.349,eb_02psyexp,2022.2.4,119.99286468661035,
75,0,75,0,,,,,,,,,,,,,,,,,,,,,,,,,,,,,,,,,,,,,,,,,,,,,,,,,,,,,,,,,,,168.11560349049978,168.11560349049978,168.11560349049978,168.11560349049978,168.11560349049978,168.11560349049978,s,1,0.4741626278264448,168.59903668041807,169.6240937373368,,,,,,,,,,,,,,,,,,,,,,,,,,,,,,,,,,,,,,,579,2010-12-30_08h00.31.349,eb_02psyexp,2022.2.4,119.99286468661035,
76,0,76,0,,,,,,,,,,,,,,,,,,,,,,,,,,,,,,,,,,,,,,,,,,,,,,,,,,,,,,,,,,,169.6240937373368,169.6240937373368,169.6240937373368,169.6240937373368,169.6240937373368,169.6240937373368,l,1,0.4216702487319708,170.05748404958285,171.0741820129333,,,,,,,,,,,,,,,,,,,,,,,,,,,,,,,,,,,,,,,579,2010-12-30_08h00.31.349,eb_02psyexp,2022.2.4,119.99286468661035,
77,0,77,0,,,,,,,,,,,,,,,,,,,,,,,,,,,,,,,,,,,,,,,,,,,,,,,,,,,,,,,,,,,171.0741820129333,171.0741820129333,171.0741820129333,171.0741820129333,171.0741820129333,171.0741820129333,l,1,0.8356350936228409,171.92427222034894,172.94939628767315,,,,,,,,,,,,,,,,,,,,,,,,,,,,,,,,,,,,,,,579,2010-12-30_08h00.31.349,eb_02psyexp,2022.2.4,119.99286468661035,
78,0,78,0,,,,,,,,,,,,,,,,,,,,,,,,,,,,,,,,,,,,,,,,,,,,,,,,,,,,,,,,,,,172.94939628767315,172.94939628767315,172.94939628767315,172.94939628767315,172.94939628767315,172.94939628767315,l,1,0.5444399270927534,173.50777124345768,174.524469810538,,,,,,,,,,,,,,,,,,,,,,,,,,,,,,,,,,,,,,,579,2010-12-30_08h00.31.349,eb_02psyexp,2022.2.4,119.99286468661035,
79,0,79,0,,,,,,,,,,,,,,,,,,,,,,,,,,,,,,,,,,,,,,,,,,,,,,,,,,,,,,,,,,,174.524469810538,174.524469810538,174.524469810538,174.524469810538,174.524469810538,174.524469810538,l,1,0.5773782512405887,175.11624039104208,176.14131948293652,,,,,,,,,,,,,,,,,,,,,,,,,,,,,,,,,,,,,,,579,2010-12-30_08h00.31.349,eb_02psyexp,2022.2.4,119.99286468661035,
80,0,80,0,,,,,,,,,,,,,,,,,,,,,,,,,,,,,,,,,,,,,,,,,,,,,,,,,,,,,,,,,,,176.14131948293652,176.14131948293652,176.14131948293652,176.14131948293652,176.14131948293652,176.14131948293652,s,1,0.6005958426976576,176.75804569933098,177.7830683455104,,,,,,,,,,,,,,,,,,,,,,,,,,,,,,,,,,,,,,,579,2010-12-30_08h00.31.349,eb_02psyexp,2022.2.4,119.99286468661035,
81,0,81,0,,,,,,,,,,,,,,,,,,,,,,,,,,,,,,,,,,,,,,,,,,,,,,,,,,,,,,,,,,,177.7830683455104,177.7830683455104,177.7830683455104,177.7830683455104,177.7830683455104,177.7830683455104,s,1,0.4708362560486421,178.2664619932184,179.29154651833232,,,,,,,,,,,,,,,,,,,,,,,,,,,,,,,,,,,,,,,579,2010-12-30_08h00.31.349,eb_02psyexp,2022.2.4,119.99286468661035,
82,0,82,0,,,,,,,,,,,,,,,,,,,,,,,,,,,,,,,,,,,,,,,,,,,,,,,,,,,,,,,,,,,179.29154651833232,179.29154651833232,179.29154651833232,179.29154651833232,179.29154651833232,179.29154651833232,s,1,0.47339200833812356,179.77496703062207,180.80000144895166,,,,,,,,,,,,,,,,,,,,,,,,,,,,,,,,,,,,,,,579,2010-12-30_08h00.31.349,eb_02psyexp,2022.2.4,119.99286468661035,
83,0,83,0,,,,,,,,,,,,,,,,,,,,,,,,,,,,,,,,,,,,,,,,,,,,,,,,,,,,,,,,,,,180.80000144895166,180.80000144895166,180.80000144895166,180.80000144895166,180.80000144895166,180.80000144895166,s,1,0.5409798364853486,181.3500945842825,182.37515556521248,,,,,,,,,,,,,,,,,,,,,,,,,,,,,,,,,,,,,,,579,2010-12-30_08h00.31.349,eb_02psyexp,2022.2.4,119.99286468661035,
84,0,84,0,,,,,,,,,,,,,,,,,,,,,,,,,,,,,,,,,,,,,,,,,,,,,,,,,,,,,,,,,,,182.37515556521248,182.37515556521248,182.37515556521248,182.37515556521248,182.37515556521248,182.37515556521248,s,1,0.4858287748647854,182.87519616389181,183.8919388008071,,,,,,,,,,,,,,,,,,,,,,,,,,,,,,,,,,,,,,,579,2010-12-30_08h00.31.349,eb_02psyexp,2022.2.4,119.99286468661035,
85,0,85,0,,,,,,,,,,,,,,,,,,,,,,,,,,,,,,,,,,,,,,,,,,,,,,,,,,,,,,,,,,,183.8919388008071,183.8919388008071,183.8919388008071,183.8919388008071,183.8919388008071,183.8919388008071,l,1,0.6172615082468837,184.52533158822916,185.5504360354971,,,,,,,,,,,,,,,,,,,,,,,,,,,,,,,,,,,,,,,579,2010-12-30_08h00.31.349,eb_02psyexp,2022.2.4,119.99286468661035,
86,0,86,0,,,,,,,,,,,,,,,,,,,,,,,,,,,,,,,,,,,,,,,,,,,,,,,,,,,,,,,,,,,185.5504360354971,185.5504360354971,185.5504360354971,185.5504360354971,185.5504360354971,185.5504360354971,s,1,0.5266284442041069,186.09215830510948,187.11720691027585,,,,,,,,,,,,,,,,,,,,,,,,,,,,,,,,,,,,,,,579,2010-12-30_08h00.31.349,eb_02psyexp,2022.2.4,119.99286468661035,
87,0,87,0,,,,,,,,,,,,,,,,,,,,,,,,,,,,,,,,,,,,,,,,,,,,,,,,,,,,,,,,,,,187.11720691027585,187.11720691027585,187.11720691027585,187.11720691027585,187.11720691027585,187.11720691027585,s,1,0.5758825913071632,187.70894881524146,188.74237311573233,,,,,,,,,,,,,,,,,,,,,,,,,,,,,,,,,,,,,,,579,2010-12-30_08h00.31.349,eb_02psyexp,2022.2.4,119.99286468661035,
88,0,88,0,,,,,,,,,,,,,,,,,,,,,,,,,,,,,,,,,,,,,,,,,,,,,,,,,,,,,,,,,,,188.74237311573233,188.74237311573233,188.74237311573233,188.74237311573233,188.74237311573233,188.74237311573233,s,1,0.5747630349360406,189.32574626791757,190.35081600246485,,,,,,,,,,,,,,,,,,,,,,,,,,,,,,,,,,,,,,,579,2010-12-30_08h00.31.349,eb_02psyexp,2022.2.4,119.99286468661035,
89,0,89,0,,,,,,,,,,,,,,,,,,,,,,,,,,,,,,,,,,,,,,,,,,,,,,,,,,,,,,,,,,,190.35081600246485,190.35081600246485,190.35081600246485,190.35081600246485,190.35081600246485,190.35081600246485,s,1,0.5743265617638826,190.93419066397473,191.95928394270595,,,,,,,,,,,,,,,,,,,,,,,,,,,,,,,,,,,,,,,579,2010-12-30_08h00.31.349,eb_02psyexp,2022.2.4,119.99286468661035,
90,0,90,0,,,,,,,,,,,,,,,,,,,,,,,,,,,,,,,,,,,,,,,,,,,,,,,,,,,,,,,,,,,191.95928394270595,191.95928394270595,191.95928394270595,191.95928394270595,191.95928394270595,191.95928394270595,l,1,0.3578923537861556,192.32599468936678,193.35108313849196,,,,,,,,,,,,,,,,,,,,,,,,,,,,,,,,,,,,,,,579,2010-12-30_08h00.31.349,eb_02psyexp,2022.2.4,119.99286468661035,
91,0,91,0,,,,,,,,,,,,,,,,,,,,,,,,,,,,,,,,,,,,,,,,,,,,,,,,,,,,,,,,,,,193.35108313849196,193.35108313849196,193.35108313849196,193.35108313849196,193.35108313849196,193.35108313849196,s,1,0.5101040438748896,193.87611378368456,194.90120253467467,,,,,,,,,,,,,,,,,,,,,,,,,,,,,,,,,,,,,,,579,2010-12-30_08h00.31.349,eb_02psyexp,2022.2.4,119.99286468661035,
92,0,92,0,,,,,,,,,,,,,,,,,,,,,,,,,,,,,,,,,,,,,,,,,,,,,,,,,,,,,,,,,,,194.90120253467467,194.90120253467467,194.90120253467467,194.90120253467467,194.90120253467467,194.90120253467467,l,1,0.6230041780509055,195.53459562407807,196.56802113191225,,,,,,,,,,,,,,,,,,,,,,,,,,,,,,,,,,,,,,,579,2010-12-30_08h00.31.349,eb_02psyexp,2022.2.4,119.99286468661035,
93,0,93,0,,,,,,,,,,,,,,,,,,,,,,,,,,,,,,,,,,,,,,,,,,,,,,,,,,,,,,,,,,,196.56802113191225,196.56802113191225,196.56802113191225,196.56802113191225,196.56802113191225,196.56802113191225,s,1,0.4602474068524316,197.04305236565415,198.06810278189369,,,,,,,,,,,,,,,,,,,,,,,,,,,,,,,,,,,,,,,579,2010-12-30_08h00.31.349,eb_02psyexp,2022.2.4,119.99286468661035,
94,0,94,0,,,,,,,,,,,,,,,,,,,,,,,,,,,,,,,,,,,,,,,,,,,,,,,,,,,,,,,,,,,198.06810278189369,198.06810278189369,198.06810278189369,198.06810278189369,198.06810278189369,198.06810278189369,l,1,0.712209498276934,198.79319808306172,199.81830011541024,,,,,,,,,,,,,,,,,,,,,,,,,,,,,,,,,,,,,,,579,2010-12-30_08h00.31.349,eb_02psyexp,2022.2.4,119.99286468661035,
95,0,95,0,,,,,,,,,,,,,,,,,,,,,,,,,,,,,,,,,,,,,,,,,,,,,,,,,,,,,,,,,,,199.81830011541024,199.81830011541024,199.81830011541024,199.81830011541024,199.81830011541024,199.81830011541024,s,1,0.6420444867108017,200.47666393301915,201.51009638328105,,,,,,,,,,,,,,,,,,,,,,,,,,,,,,,,,,,,,,,579,2010-12-30_08h00.31.349,eb_02psyexp,2022.2.4,119.99286468661035,
96,0,96,0,,,,,,,,,,,,,,,,,,,,,,,,,,,,,,,,,,,,,,,,,,,,,,,,,,,,,,,,,,,201.51009638328105,201.51009638328105,201.51009638328105,201.51009638328105,201.51009638328105,201.51009638328105,s,1,0.5503555561881512,202.07678304240108,203.10186213429552,,,,,,,,,,,,,,,,,,,,,,,,,,,,,,,,,,,,,,,579,2010-12-30_08h00.31.349,eb_02psyexp,2022.2.4,119.99286468661035,
97,0,97,0,,,,,,,,,,,,,,,,,,,,,,,,,,,,,,,,,,,,,,,,,,,,,,,,,,,,,,,,,,,203.10186213429552,203.10186213429552,203.10186213429552,203.10186213429552,203.10186213429552,203.10186213429552,s,1,0.5025037976447493,203.61859586671926,204.6436550365761,,,,,,,,,,,,,,,,,,,,,,,,,,,,,,,,,,,,,,,579,2010-12-30_08h00.31.349,eb_02psyexp,2022.2.4,119.99286468661035,
98,0,98,0,,,,,,,,,,,,,,,,,,,,,,,,,,,,,,,,,,,,,,,,,,,,,,,,,,,,,,,,,,,204.6436550365761,204.6436550365761,204.6436550365761,204.6436550365761,204.6436550365761,204.6436550365761,l,1,0.5207285112701356,205.1770206274232,206.21048899786547,,,,,,,,,,,,,,,,,,,,,,,,,,,,,,,,,,,,,,,579,2010-12-30_08h00.31.349,eb_02psyexp,2022.2.4,119.99286468661035,
99,0,99,0,,,,,,,,,,,,,,,,,,,,,,,,,,,,,,,,,,,,,,,,,,,,,,,,,,,,,,,,,,,206.21048899786547,206.21048899786547,206.21048899786547,206.21048899786547,206.21048899786547,206.21048899786547,s,1,0.4259238993981853,206.65214151027612,207.6772541073151,,,,,,,,,,,,,,,,,,,,,,,,,,,,,,,,,,,,,,,579,2010-12-30_08h00.31.349,eb_02psyexp,2022.2.4,119.99286468661035,
100,0,100,0,,,,,,,,,,,,,,,,,,,,,,,,,,,,,,,,,,,,,,,,,,,,,,,,,,,,,,,,,,,207.6772541073151,207.6772541073151,207.6772541073151,207.6772541073151,207.6772541073151,207.6772541073151,s,1,0.5672134992200881,208.2606423520483,209.28567616653163,,,,,,,,,,,,,,,,,,,,,,,,,,,,,,,,,,,,,,,579,2010-12-30_08h00.31.349,eb_02psyexp,2022.2.4,119.99286468661035,
101,0,101,0,,,,,,,,,,,,,,,,,,,,,,,,,,,,,,,,,,,,,,,,,,,,,,,,,,,,,,,,,,,209.28567616653163,209.28567616653163,209.28567616653163,209.28567616653163,209.28567616653163,209.28567616653163,s,1,0.518789435736835,209.81910786230583,210.84420083928853,,,,,,,,,,,,,,,,,,,,,,,,,,,,,,,,,,,,,,,579,2010-12-30_08h00.31.349,eb_02psyexp,2022.2.4,119.99286468661035,
102,0,102,0,,,,,,,,,,,,,,,,,,,,,,,,,,,,,,,,,,,,,,,,,,,,,,,,,,,,,,,,,,,210.84420083928853,210.84420083928853,210.84420083928853,210.84420083928853,210.84420083928853,210.84420083928853,l,1,0.5672853392316028,211.42758153763134,212.4526343686739,,,,,,,,,,,,,,,,,,,,,,,,,,,,,,,,,,,,,,,579,2010-12-30_08h00.31.349,eb_02psyexp,2022.2.4,119.99286468661035,
103,0,103,0,,,,,,,,,,,,,,,,,,,,,,,,,,,,,,,,,,,,,,,,,,,,,,,,,,,,,,,,,,,212.4526343686739,212.4526343686739,212.4526343686739,212.4526343686739,212.4526343686739,212.4526343686739,s,1,0.4948947977973148,212.96103194798343,213.99442908202764,,,,,,,,,,,,,,,,,,,,,,,,,,,,,,,,,,,,,,,579,2010-12-30_08h00.31.349,eb_02psyexp,2022.2.4,119.99286468661035,
104,0,104,0,,,,,,,,,,,,,,,,,,,,,,,,,,,,,,,,,,,,,,,,,,,,,,,,,,,,,,,,,,,213.99442908202764,213.99442908202764,213.99442908202764,213.99442908202764,213.99442908202764,213.99442908202764,s,1,0.41712501225993037,214.42778468178585,215.45287192356773,,,,,,,,,,,,,,,,,,,,,,,,,,,,,,,,,,,,,,,579,2010-12-30_08h00.31.349,eb_02psyexp,2022.2.4,119.99286468661035,
105,0,105,0,,,,,,,,,,,,,,,,,,,,,,,,,,,,,,,,,,,,,,,,,,,,,,,,,,,,,,,,,,,215.45287192356773,215.45287192356773,215.45287192356773,215.45287192356773,215.45287192356773,215.45287192356773,s,1,0.47868975333403796,215.94458753755316,216.96131055429578,,,,,,,,,,,,,,,,,,,,,,,,,,,,,,,,,,,,,,,579,2010-12-30_08h00.31.349,eb_02psyexp,2022.2.4,119.99286468661035,
106,0,106,0,,,,,,,,,,,,,,,,,,,,,,,,,,,,,,,,,,,,,,,,,,,,,,,,,,,,,,,,,,,216.96131055429578,216.96131055429578,216.96131055429578,216.96131055429578,216.96131055429578,216.96131055429578,l,1,0.49030186946038157,217.46136503794696,218.48646646656562,,,,,,,,,,,,,,,,,,,,,,,,,,,,,,,,,,,,,,,579,2010-12-30_08h00.31.349,eb_02psyexp,2022.2.4,119.99286468661035,
107,0,107,0,,,,,,,,,,,,,,,,,,,,,,,,,,,,,,,,,,,,,,,,,,,,,,,,,,,,,,,,,,,218.48646646656562,218.48646646656562,218.48646646656562,218.48646646656562,218.48646646656562,218.48646646656562,l,1,0.4451486374018714,218.94486040866468,219.9698951287428,,,,,,,,,,,,,,,,,,,,,,,,,,,,,,,,,,,,,,,579,2010-12-30_08h00.31.349,eb_02psyexp,2022.2.4,119.99286468661035,
108,0,108,0,,,,,,,,,,,,,,,,,,,,,,,,,,,,,,,,,,,,,,,,,,,,,,,,,,,,,,,,,,,219.9698951287428,219.9698951287428,219.9698951287428,219.9698951287428,219.9698951287428,219.9698951287428,s,1,0.4257687490899116,220.41167079552542,221.44504498911556,,,,,,,,,,,,,,,,,,,,,,,,,,,,,,,,,,,,,,,579,2010-12-30_08h00.31.349,eb_02psyexp,2022.2.4,119.99286468661035,
109,0,109,0,,,,,,,,,,,,,,,,,,,,,,,,,,,,,,,,,,,,,,,,,,,,,,,,,,,,,,,,,,,221.44504498911556,221.44504498911556,221.44504498911556,221.44504498911556,221.44504498911556,221.44504498911556,l,0,0.3506368186790496,221.81176116899587,222.82846305635758,,,,,,,,,,,,,,,,,,,,,,,,,,,,,,,,,,,,,,,579,2010-12-30_08h00.31.349,eb_02psyexp,2022.2.4,119.99286468661035,
110,0,110,0,,,,,,,,,,,,,,,,,,,,,,,,,,,,,,,,,,,,,,,,,,,,,,,,,,,,,,,,,,,222.82846305635758,222.82846305635758,222.82846305635758,222.82846305635758,222.82846305635758,222.82846305635758,l,1,0.5352425999008119,223.37850819784217,224.40362230408937,,,,,,,,,,,,,,,,,,,,,,,,,,,,,,,,,,,,,,,579,2010-12-30_08h00.31.349,eb_02psyexp,2022.2.4,119.99286468661035,
111,0,111,0,,,,,,,,,,,,,,,,,,,,,,,,,,,,,,,,,,,,,,,,,,,,,,,,,,,,,,,,,,,224.40362230408937,224.40362230408937,224.40362230408937,224.40362230408937,224.40362230408937,224.40362230408937,l,1,0.5601224716519937,224.97865417180583,225.9953886588337,,,,,,,,,,,,,,,,,,,,,,,,,,,,,,,,,,,,,,,579,2010-12-30_08h00.31.349,eb_02psyexp,2022.2.4,119.99286468661035,
112,0,112,0,,,,,,,,,,,,,,,,,,,,,,,,,,,,,,,,,,,,,,,,,,,,,,,,,,,,,,,,,,,225.9953886588337,225.9953886588337,225.9953886588337,225.9953886588337,225.9953886588337,225.9953886588337,l,1,0.5834758951095864,226.58715923933778,227.6205974248005,,,,,,,,,,,,,,,,,,,,,,,,,,,,,,,,,,,,,,,579,2010-12-30_08h00.31.349,eb_02psyexp,2022.2.4,119.99286468661035,
113,0,113,0,,,,,,,,,,,,,,,,,,,,,,,,,,,,,,,,,,,,,,,,,,,,,,,,,,,,,,,,,,,227.6205974248005,227.6205974248005,227.6205974248005,227.6205974248005,227.6205974248005,227.6205974248005,s,1,0.34219864080660045,227.97893066506367,229.00401307735592,,,,,,,,,,,,,,,,,,,,,,,,,,,,,,,,,,,,,,,579,2010-12-30_08h00.31.349,eb_02psyexp,2022.2.4,119.99286468661035,
114,0,114,0,,,,,,,,,,,,,,,,,,,,,,,,,,,,,,,,,,,,,,,,,,,,,,,,,,,,,,,,,,,229.00401307735592,229.00401307735592,229.00401307735592,229.00401307735592,229.00401307735592,229.00401307735592,l,1,0.45480205793865025,229.4706948766252,230.5041294399416,,,,,,,,,,,,,,,,,,,,,,,,,,,,,,,,,,,,,,,579,2010-12-30_08h00.31.349,eb_02psyexp,2022.2.4,119.99286468661035,
115,0,115,0,,,,,,,,,,,,,,,,,,,,,,,,,,,,,,,,,,,,,,,,,,,,,,,,,,,,,,,,,,,230.5041294399416,230.5041294399416,230.5041294399416,230.5041294399416,230.5041294399416,230.5041294399416,s,1,0.5707152449758723,231.08749263116624,232.11259436164983,,,,,,,,,,,,,,,,,,,,,,,,,,,,,,,,,,,,,,,579,2010-12-30_08h00.31.349,eb_02psyexp,2022.2.4,119.99286468661035,
116,0,116,0,,,,,,,,,,,,,,,,,,,,,,,,,,,,,,,,,,,,,,,,,,,,,,,,,,,,,,,,,,,232.11259436164983,232.11259436164983,232.11259436164983,232.11259436164983,232.11259436164983,232.11259436164983,s,1,0.4102914616232738,232.537615619367,233.55437546165194,,,,,,,,,,,,,,,,,,,,,,,,,,,,,,,,,,,,,,,579,2010-12-30_08h00.31.349,eb_02psyexp,2022.2.4,119.99286468661035,
117,0,117,0,,,,,,,,,,,,,,,,,,,,,,,,,,,,,,,,,,,,,,,,,,,,,,,,,,,,,,,,,,,233.55437546165194,233.55437546165194,233.55437546165194,233.55437546165194,233.55437546165194,233.55437546165194,l,1,0.5125230585690588,234.07944444159511,235.09614331054036,,,,,,,,,,,,,,,,,,,,,,,,,,,,,,,,,,,,,,,579,2010-12-30_08h00.31.349,eb_02psyexp,2022.2.4,119.99286468661035,
118,0,118,0,,,,,,,,,,,,,,,,,,,,,,,,,,,,,,,,,,,,,,,,,,,,,,,,,,,,,,,,,,,235.09614331054036,235.09614331054036,235.09614331054036,235.09614331054036,235.09614331054036,235.09614331054036,s,1,0.6027468160027638,235.71289427846204,236.7296453671297,,,,,,,,,,,,,,,,,,,,,,,,,,,,,,,,,,,,,,,579,2010-12-30_08h00.31.349,eb_02psyexp,2022.2.4,119.99286468661035,
119,0,119,0,,,,,,,,,,,,,,,,,,,,,,,,,,,,,,,,,,,,,,,,,,,,,,,,,,,,,,,,,,,236.7296453671297,236.7296453671297,236.7296453671297,236.7296453671297,236.7296453671297,236.7296453671297,l,1,0.5053067638073117,237.2463510276284,238.26311600138433,,,,,,,,,,,,,,,,,,,,,,,,,,,,,,,,,,,,,,,579,2010-12-30_08h00.31.349,eb_02psyexp,2022.2.4,119.99286468661035,
120,0,120,0,,,,,,,,,,,,,,,,,,,,,,,,,,,,,,,,,,,,,,,,,,,,,,,,,,,,,,,,,,,238.26311600138433,238.26311600138433,238.26311600138433,238.26311600138433,238.26311600138433,238.26311600138433,s,1,0.4278605601284653,238.7048270724481,239.72156246507075,,,,,,,,,,,,,,,,,,,,,,,,,,,,,,,,,,,,,,,579,2010-12-30_08h00.31.349,eb_02psyexp,2022.2.4,119.99286468661035,
121,0,121,0,,,,,,,,,,,,,,,,,,,,,,,,,,,,,,,,,,,,,,,,,,,,,,,,,,,,,,,,,,,239.72156246507075,239.72156246507075,239.72156246507075,239.72156246507075,239.72156246507075,239.72156246507075,l,1,0.3534394830930978,240.08823759353254,241.10499773768242,,,,,,,,,,,,,,,,,,,,,,,,,,,,,,,,,,,,,,,579,2010-12-30_08h00.31.349,eb_02psyexp,2022.2.4,119.99286468661035,
122,0,122,0,,,,,,,,,,,,,,,,,,,,,,,,,,,,,,,,,,,,,,,,,,,,,,,,,,,,,,,,,,,241.10499773768242,241.10499773768242,241.10499773768242,241.10499773768242,241.10499773768242,241.10499773768242,s,1,0.41710750514175743,241.53836088359822,242.55511167040095,,,,,,,,,,,,,,,,,,,,,,,,,,,,,,,,,,,,,,,579,2010-12-30_08h00.31.349,eb_02psyexp,2022.2.4,119.99286468661035,
123,0,123,0,,,,,,,,,,,,,,,,,,,,,,,,,,,,,,,,,,,,,,,,,,,,,,,,,,,,,,,,,,,242.55511167040095,242.55511167040095,242.55511167040095,242.55511167040095,242.55511167040095,242.55511167040095,l,1,0.3589865550165996,242.93015706096776,243.94687464437447,,,,,,,,,,,,,,,,,,,,,,,,,,,,,,,,,,,,,,,579,2010-12-30_08h00.31.349,eb_02psyexp,2022.2.4,119.99286468661035,
124,0,124,0,,,,,,,,,,,,,,,,,,,,,,,,,,,,,,,,,,,,,,,,,,,,,,,,,,,,,,,,,,,243.94687464437447,243.94687464437447,243.94687464437447,243.94687464437447,243.94687464437447,243.94687464437447,s,1,0.36721736297477037,244.33030327642336,245.36372335092165,,,,,,,,,,,,,,,,,,,,,,,,,,,,,,,,,,,,,,,579,2010-12-30_08h00.31.349,eb_02psyexp,2022.2.4,119.99286468661035,
125,0,125,0,,,,,,,,,,,,,,,,,,,,,,,,,,,,,,,,,,,,,,,,,,,,,,,,,,,,,,,,,,,245.36372335092165,245.36372335092165,245.36372335092165,245.36372335092165,245.36372335092165,245.36372335092165,l,1,0.6463811456924304,246.0221085997764,247.0471961434232,,,,,,,,,,,,,,,,,,,,,,,,,,,,,,,,,,,,,,,579,2010-12-30_08h00.31.349,eb_02psyexp,2022.2.4,119.99286468661035,
126,0,126,0,,,,,,,,,,,,,,,,,,,,,,,,,,,,,,,,,,,,,,,,,,,,,,,,,,,,,,,,,,,247.0471961434232,247.0471961434232,247.0471961434232,247.0471961434232,247.0471961434232,247.0471961434232,l,1,0.4589397986419499,247.5222041348461,248.5556386981625,,,,,,,,,,,,,,,,,,,,,,,,,,,,,,,,,,,,,,,579,2010-12-30_08h00.31.349,eb_02psyexp,2022.2.4,119.99286468661035,
127,0,127,0,,,,,,,,,,,,,,,,,,,,,,,,,,,,,,,,,,,,,,,,,,,,,,,,,,,,,,,,,,,248.5556386981625,248.5556386981625,248.5556386981625,248.5556386981625,248.5556386981625,248.5556386981625,s,1,0.5745179337682202,249.13899011723697,250.16411297710147,,,,,,,,,,,,,,,,,,,,,,,,,,,,,,,,,,,,,,,579,2010-12-30_08h00.31.349,eb_02psyexp,2022.2.4,119.99286468661035,
128,0,128,0,,,,,,,,,,,,,,,,,,,,,,,,,,,,,,,,,,,,,,,,,,,,,,,,,,,,,,,,,,,250.16411297710147,250.16411297710147,250.16411297710147,250.16411297710147,250.16411297710147,250.16411297710147,s,1,0.48605365213006735,250.66416655527428,251.69758029095829,,,,,,,,,,,,,,,,,,,,,,,,,,,,,,,,,,,,,,,579,2010-12-30_08h00.31.349,eb_02psyexp,2022.2.4,119.99286468661035,
129,0,129,0,,,,,,,,,,,,,,,,,,,,,,,,,,,,,,,,,,,,,,,,,,,,,,,,,,,,,,,,,,,251.69758029095829,251.69758029095829,251.69758029095829,251.69758029095829,251.69758029095829,251.69758029095829,l,1,0.4806339602218941,252.18930435669608,253.20599899976514,,,,,,,,,,,,,,,,,,,,,,,,,,,,,,,,,,,,,,,579,2010-12-30_08h00.31.349,eb_02psyexp,2022.2.4,119.99286468661035,
130,0,130,0,,,,,,,,,,,,,,,,,,,,,,,,,,,,,,,,,,,,,,,,,,,,,,,,,,,,,,,,,,,253.20599899976514,253.20599899976514,253.20599899976514,253.20599899976514,253.20599899976514,253.20599899976514,s,1,0.3882384020835161,253.60605949012097,254.63946386857424,,,,,,,,,,,,,,,,,,,,,,,,,,,,,,,,,,,,,,,579,2010-12-30_08h00.31.349,eb_02psyexp,2022.2.4,119.99286468661035,
131,0,131,0,,,,,,,,,,,,,,,,,,,,,,,,,,,,,,,,,,,,,,,,,,,,,,,,,,,,,,,,,,,254.63946386857424,254.63946386857424,254.63946386857424,254.63946386857424,254.63946386857424,254.63946386857424,l,1,0.43478979682549834,255.08951652608812,256.10625825752504,,,,,,,,,,,,,,,,,,,,,,,,,,,,,,,,,,,,,,,579,2010-12-30_08h00.31.349,eb_02psyexp,2022.2.4,119.99286468661035,
132,0,132,0,,,,,,,,,,,,,,,,,,,,,,,,,,,,,,,,,,,,,,,,,,,,,,,,,,,,,,,,,,,256.10625825752504,256.10625825752504,256.10625825752504,256.10625825752504,256.10625825752504,256.10625825752504,s,1,0.9270695657469332,257.04797702573705,258.08146320516244,,,,,,,,,,,,,,,,,,,,,,,,,,,,,,,,,,,,,,,579,2010-12-30_08h00.31.349,eb_02psyexp,2022.2.4,119.99286468661035,
133,0,133,0,,,,,,,,,,,,,,,,,,,,,,,,,,,,,,,,,,,,,,,,,,,,,,,,,,,,,,,,,,,258.08146320516244,258.08146320516244,258.08146320516244,258.08146320516244,258.08146320516244,258.08146320516244,l,1,0.5278590810485184,258.62313959386665,259.6398617051309,,,,,,,,,,,,,,,,,,,,,,,,,,,,,,,,,,,,,,,579,2010-12-30_08h00.31.349,eb_02psyexp,2022.2.4,119.99286468661035,
134,0,134,0,,,,,,,,,,,,,,,,,,,,,,,,,,,,,,,,,,,,,,,,,,,,,,,,,,,,,,,,,,,259.6398617051309,259.6398617051309,259.6398617051309,259.6398617051309,259.6398617051309,259.6398617051309,s,1,0.5534899522317573,260.20657100284006,261.24000224575866,,,,,,,,,,,,,,,,,,,,,,,,,,,,,,,,,,,,,,,579,2010-12-30_08h00.31.349,eb_02psyexp,2022.2.4,119.99286468661035,
135,0,135,0,,,,,,,,,,,,,,,,,,,,,,,,,,,,,,,,,,,,,,,,,,,,,,,,,,,,,,,,,,,261.24000224575866,261.24000224575866,261.24000224575866,261.24000224575866,261.24000224575866,261.24000224575866,l,1,0.5053783019538969,261.7567335633794,262.781796053634,,,,,,,,,,,,,,,,,,,,,,,,,,,,,,,,,,,,,,,579,2010-12-30_08h00.31.349,eb_02psyexp,2022.2.4,119.99286468661035,
136,0,136,0,,,,,,,,,,,,,,,,,,,,,,,,,,,,,,,,,,,,,,,,,,,,,,,,,,,,,,,,,,,262.781796053634,262.781796053634,262.781796053634,262.781796053634,262.781796053634,262.781796053634,l,1,0.4916330217383802,263.2818242764333,264.3069414012134,,,,,,,,,,,,,,,,,,,,,,,,,,,,,,,,,,,,,,,579,2010-12-30_08h00.31.349,eb_02psyexp,2022.2.4,119.99286468661035,
137,0,137,0,,,,,,,,,,,,,,,,,,,,,,,,,,,,,,,,,,,,,,,,,,,,,,,,,,,,,,,,,,,264.3069414012134,264.3069414012134,264.3069414012134,264.3069414012134,264.3069414012134,264.3069414012134,l,1,0.5104937304276973,264.8319708390627,265.85706774005666,,,,,,,,,,,,,,,,,,,,,,,,,,,,,,,,,,,,,,,579,2010-12-30_08h00.31.349,eb_02psyexp,2022.2.4,119.99286468661035,
138,0,138,0,,,,,,,,,,,,,,,,,,,,,,,,,,,,,,,,,,,,,,,,,,,,,,,,,,,,,,,,,,,265.85706774005666,265.85706774005666,265.85706774005666,265.85706774005666,265.85706774005666,265.85706774005666,l,1,0.504388842266053,266.37378094671294,267.407178684487,,,,,,,,,,,,,,,,,,,,,,,,,,,,,,,,,,,,,,,579,2010-12-30_08h00.31.349,eb_02psyexp,2022.2.4,119.99286468661035,
139,0,139,0,,,,,,,,,,,,,,,,,,,,,,,,,,,,,,,,,,,,,,,,,,,,,,,,,,,,,,,,,,,267.407178684487,267.407178684487,267.407178684487,267.407178684487,267.407178684487,267.407178684487,l,1,0.43432162958197296,267.85723768081516,268.88230168027803,,,,,,,,,,,,,,,,,,,,,,,,,,,,,,,,,,,,,,,579,2010-12-30_08h00.31.349,eb_02psyexp,2022.2.4,119.99286468661035,
140,0,140,0,,,,,,,,,,,,,,,,,,,,,,,,,,,,,,,,,,,,,,,,,,,,,,,,,,,,,,,,,,,268.88230168027803,268.88230168027803,268.88230168027803,268.88230168027803,268.88230168027803,268.88230168027803,l,1,0.35920599894598126,269.2573368079029,270.28243582171854,,,,,,,,,,,,,,,,,,,,,,,,,,,,,,,,,,,,,,,579,2010-12-30_08h00.31.349,eb_02psyexp,2022.2.4,119.99286468661035,
141,0,141,0,,,,,,,,,,,,,,,,,,,,,,,,,,,,,,,,,,,,,,,,,,,,,,,,,,,,,,,,,,,270.28243582171854,270.28243582171854,270.28243582171854,270.28243582171854,270.28243582171854,270.28243582171854,s,1,0.5270926873199642,270.8241526581114,271.8408717509592,,,,,,,,,,,,,,,,,,,,,,,,,,,,,,,,,,,,,,,579,2010-12-30_08h00.31.349,eb_02psyexp,2022.2.4,119.99286468661035,
142,0,142,0,,,,,,,,,,,,,,,,,,,,,,,,,,,,,,,,,,,,,,,,,,,,,,,,,,,,,,,,,,,271.8408717509592,271.8408717509592,271.8408717509592,271.8408717509592,271.8408717509592,271.8408717509592,l,1,0.5037377547705546,272.3575955223059,273.38274524675217,,,,,,,,,,,,,,,,,,,,,,,,,,,,,,,,,,,,,,,579,2010-12-30_08h00.31.349,eb_02psyexp,2022.2.4,119.99286468661035,
143,0,143,0,,,,,,,,,,,,,,,,,,,,,,,,,,,,,,,,,,,,,,,,,,,,,,,,,,,,,,,,,,,273.38274524675217,273.38274524675217,273.38274524675217,273.38274524675217,273.38274524675217,273.38274524675217,s,1,0.5218486713711172,273.9160715973703,274.9327906901017,,,,,,,,,,,,,,,,,,,,,,,,,,,,,,,,,,,,,,,579,2010-12-30_08h00.31.349,eb_02psyexp,2022.2.4,119.99286468661035,
144,0,144,0,,,,,,,,,,,,,,,,,,,,,,,,,,,,,,,,,,,,,,,,,,,,,,,,,,,,,,,,,,,274.9327906901017,274.9327906901017,274.9327906901017,274.9327906901017,274.9327906901017,274.9327906901017,l,1,0.3318452334497124,275.27451501227915,276.2912428586278,,,,,,,,,,,,,,,,,,,,,,,,,,,,,,,,,,,,,,,579,2010-12-30_08h00.31.349,eb_02psyexp,2022.2.4,119.99286468661035,
145,0,145,0,,,,,,,,,,,,,,,,,,,,,,,,,,,,,,,,,,,,,,,,,,,,,,,,,,,,,,,,,,,276.2912428586278,276.2912428586278,276.2912428586278,276.2912428586278,276.2912428586278,276.2912428586278,s,1,0.4053770643658936,276.70797112758737,277.72466848720796,,,,,,,,,,,,,,,,,,,,,,,,,,,,,,,,,,,,,,,579,2010-12-30_08h00.31.349,eb_02psyexp,2022.2.4,119.99286468661035,
146,0,146,0,,,,,,,,,,,,,,,,,,,,,,,,,,,,,,,,,,,,,,,,,,,,,,,,,,,,,,,,,,,277.72466848720796,277.72466848720796,277.72466848720796,277.72466848720796,277.72466848720796,277.72466848720796,l,1,0.292017214698717,278.03304457489867,279.0497965691611,,,,,,,,,,,,,,,,,,,,,,,,,,,,,,,,,,,,,,,579,2010-12-30_08h00.31.349,eb_02psyexp,2022.2.4,119.99286468661035,
147,0,147,0,,,,,,,,,,,,,,,,,,,,,,,,,,,,,,,,,,,,,,,,,,,,,,,,,,,,,,,,,,,279.0497965691611,279.0497965691611,279.0497965691611,279.0497965691611,279.0497965691611,279.0497965691611,s,1,0.31887027074117213,279.38319077529013,280.39990805694833,,,,,,,,,,,,,,,,,,,,,,,,,,,,,,,,,,,,,,,579,2010-12-30_08h00.31.349,eb_02psyexp,2022.2.4,119.99286468661035,
148,0,148,0,,,,,,,,,,,,,,,,,,,,,,,,,,,,,,,,,,,,,,,,,,,,,,,,,,,,,,,,,,,280.39990805694833,280.39990805694833,280.39990805694833,280.39990805694833,280.39990805694833,280.39990805694833,l,1,0.2648278991691768,280.6749398340471,281.7000279814238,,,,,,,,,,,,,,,,,,,,,,,,,,,,,,,,,,,,,,,579,2010-12-30_08h00.31.349,eb_02psyexp,2022.2.4,119.99286468661035,
149,0,149,0,,,,,,,,,,,,,,,,,,,,,,,,,,,,,,,,,,,,,,,,,,,,,,,,,,,,,,,,,,,281.7000279814238,281.7000279814238,281.7000279814238,281.7000279814238,281.7000279814238,281.7000279814238,l,1,0.5647084576776251,282.27509425976314,283.30012867809273,,,,,,,,,,,,,,,,,,,,,,,,,,,,,,,,,,,,,,,579,2010-12-30_08h00.31.349,eb_02psyexp,2022.2.4,119.99286468661035,
150,0,150,0,,,,,,,,,,,,,,,,,,,,,,,,,,,,,,,,,,,,,,,,,,,,,,,,,,,,,,,,,,,283.30012867809273,283.30012867809273,283.30012867809273,283.30012867809273,283.30012867809273,283.30012867809273,l,1,0.43660994397941977,283.75019310764037,284.7752821606118,,,,,,,,,,,,,,,,,,,,,,,,,,,,,,,,,,,,,,,579,2010-12-30_08h00.31.349,eb_02psyexp,2022.2.4,119.99286468661035,
151,0,151,0,,,,,,,,,,,,,,,,,,,,,,,,,,,,,,,,,,,,,,,,,,,,,,,,,,,,,,,,,,,284.7752821606118,284.7752821606118,284.7752821606118,284.7752821606118,284.7752821606118,284.7752821606118,l,1,0.3855142183601856,285.175337821478,286.1920348792337,,,,,,,,,,,,,,,,,,,,,,,,,,,,,,,,,,,,,,,579,2010-12-30_08h00.31.349,eb_02psyexp,2022.2.4,119.99286468661035,
152,0,152,0,,,,,,,,,,,,,,,,,,,,,,,,,,,,,,,,,,,,,,,,,,,,,,,,,,,,,,,,,,,286.1920348792337,286.1920348792337,286.1920348792337,286.1920348792337,286.1920348792337,286.1920348792337,s,1,0.4807667735731229,286.68377313180827,287.70048920612317,,,,,,,,,,,,,,,,,,,,,,,,,,,,,,,,,,,,,,,579,2010-12-30_08h00.31.349,eb_02psyexp,2022.2.4,119.99286468661035,
153,0,153,0,,,,,,,,,,,,,,,,,,,,,,,,,,,,,,,,,,,,,,,,,,,,,,,,,,,,,,,,,,,287.70048920612317,287.70048920612317,287.70048920612317,287.70048920612317,287.70048920612317,287.70048920612317,l,1,0.5153863945743069,288.2255862579914,289.2422848249553,,,,,,,,,,,,,,,,,,,,,,,,,,,,,,,,,,,,,,,579,2010-12-30_08h00.31.349,eb_02psyexp,2022.2.4,119.99286468661035,
154,0,154,0,,,,,,,,,,,,,,,,,,,,,,,,,,,,,,,,,,,,,,,,,,,,,,,,,,,,,,,,,,,289.2422848249553,289.2422848249553,289.2422848249553,289.2422848249553,289.2422848249553,289.2422848249553,s,1,0.581573645118624,289.8340623481199,290.8590880127158,,,,,,,,,,,,,,,,,,,,,,,,,,,,,,,,,,,,,,,579,2010-12-30_08h00.31.349,eb_02psyexp,2022.2.4,119.99286468661035,
155,0,155,0,,,,,,,,,,,,,,,,,,,,,,,,,,,,,,,,,,,,,,,,,,,,,,,,,,,,,,,,,,,290.8590880127158,290.8590880127158,290.8590880127158,290.8590880127158,290.8590880127158,290.8590880127158,l,1,0.5488016394665465,291.41749436070677,292.44258160260506,,,,,,,,,,,,,,,,,,,,,,,,,,,,,,,,,,,,,,,579,2010-12-30_08h00.31.349,eb_02psyexp,2022.2.4,119.99286468661035,
156,0,156,0,,,,,,,,,,,,,,,,,,,,,,,,,,,,,,,,,,,,,,,,,,,,,,,,,,,,,,,,,,,292.44258160260506,292.44258160260506,292.44258160260506,292.44258160260506,292.44258160260506,292.44258160260506,l,1,0.42934052378404886,292.88428844779264,293.9010132756084,,,,,,,,,,,,,,,,,,,,,,,,,,,,,,,,,,,,,,,579,2010-12-30_08h00.31.349,eb_02psyexp,2022.2.4,119.99286468661035,
157,0,157,0,,,,,,,,,,,,,,,,,,,,,,,,,,,,,,,,,,,,,,,,,,,,,,,,,,,,,,,,,,,293.9010132756084,293.9010132756084,293.9010132756084,293.9010132756084,293.9010132756084,293.9010132756084,l,1,0.5469368187477812,294.45943803642876,295.47617312707007,,,,,,,,,,,,,,,,,,,,,,,,,,,,,,,,,,,,,,,579,2010-12-30_08h00.31.349,eb_02psyexp,2022.2.4,119.99286468661035,
158,0,158,0,,,,,,,,,,,,,,,,,,,,,,,,,,,,,,,,,,,,,,,,,,,,,,,,,,,,,,,,,,,295.47617312707007,295.47617312707007,295.47617312707007,295.47617312707007,295.47617312707007,295.47617312707007,s,1,0.4838193686446175,295.97621191467624,296.99292919633444,,,,,,,,,,,,,,,,,,,,,,,,,,,,,,,,,,,,,,,579,2010-12-30_08h00.31.349,eb_02psyexp,2022.2.4,119.99286468661035,
159,0,159,0,,,,,,,,,,,,,,,,,,,,,,,,,,,,,,,,,,,,,,,,,,,,,,,,,,,,,,,,,,,296.99292919633444,296.99292919633444,296.99292919633444,296.99292919633444,296.99292919633444,296.99292919633444,l,1,0.4950508535839617,297.501329190447,298.52641975251026,,,,,,,,,,,,,,,,,,,,,,,,,,,,,,,,,,,,,,,579,2010-12-30_08h00.31.349,eb_02psyexp,2022.2.4,119.99286468661035,
160,0,160,0,,,,,,,,,,,,,,,,,,,,,,,,,,,,,,,,,,,,,,,,,,,,,,,,,,,,,,,,,,,298.52641975251026,298.52641975251026,298.52641975251026,298.52641975251026,298.52641975251026,298.52641975251026,s,1,0.4896387079497799,299.0264573326567,300.0515445744386,,,,,,,,,,,,,,,,,,,,,,,,,,,,,,,,,,,,,,,579,2010-12-30_08h00.31.349,eb_02psyexp,2022.2.4,119.99286468661035,
161,0,161,0,,,,,,,,,,,,,,,,,,,,,,,,,,,,,,,,,,,,,,,,,,,,,,,,,,,,,,,,,,,300.0515445744386,300.0515445744386,300.0515445744386,300.0515445744386,300.0515445744386,300.0515445744386,l,1,0.4524956326931715,300.5182653123047,301.5349735384807,,,,,,,,,,,,,,,,,,,,,,,,,,,,,,,,,,,,,,,579,2010-12-30_08h00.31.349,eb_02psyexp,2022.2.4,119.99286468661035,
162,0,162,0,,,,,,,,,,,,,,,,,,,,,,,,,,,,,,,,,,,,,,,,,,,,,,,,,,,,,,,,,,,301.5349735384807,301.5349735384807,301.5349735384807,301.5349735384807,301.5349735384807,301.5349735384807,l,1,0.585092596244067,302.1350549168419,303.1517685763538,,,,,,,,,,,,,,,,,,,,,,,,,,,,,,,,,,,,,,,579,2010-12-30_08h00.31.349,eb_02psyexp,2022.2.4,119.99286468661035,
163,0,163,0,,,,,,,,,,,,,,,,,,,,,,,,,,,,,,,,,,,,,,,,,,,,,,,,,,,,,,,,,,,303.1517685763538,303.1517685763538,303.1517685763538,303.1517685763538,303.1517685763538,303.1517685763538,s,1,0.47938098665326834,303.6435294675175,304.6769250923535,,,,,,,,,,,,,,,,,,,,,,,,,,,,,,,,,,,,,,,579,2010-12-30_08h00.31.349,eb_02psyexp,2022.2.4,119.99286468661035,
164,0,164,0,,,,,,,,,,,,,,,,,,,,,,,,,,,,,,,,,,,,,,,,,,,,,,,,,,,,,,,,,,,304.6769250923535,304.6769250923535,304.6769250923535,304.6769250923535,304.6769250923535,304.6769250923535,s,1,0.45018739625811577,305.1353072623024,306.1520160922082,,,,,,,,,,,,,,,,,,,,,,,,,,,,,,,,,,,,,,,579,2010-12-30_08h00.31.349,eb_02psyexp,2022.2.4,119.99286468661035,
165,0,165,0,,,,,,,,,,,,,,,,,,,,,,,,,,,,,,,,,,,,,,,,,,,,,,,,,,,,,,,,,,,306.1520160922082,306.1520160922082,306.1520160922082,306.1520160922082,306.1520160922082,306.1520160922082,s,1,0.5271328331436962,306.69374651182443,307.7104800932575,,,,,,,,,,,,,,,,,,,,,,,,,,,,,,,,,,,,,,,579,2010-12-30_08h00.31.349,eb_02psyexp,2022.2.4,119.99286468661035,
166,0,166,0,,,,,,,,,,,,,,,,,,,,,,,,,,,,,,,,,,,,,,,,,,,,,,,,,,,,,,,,,,,307.7104800932575,307.7104800932575,307.7104800932575,307.7104800932575,307.7104800932575,307.7104800932575,l,1,0.7047127861296758,308.42723954317626,309.45235878089443,,,,,,,,,,,,,,,,,,,,,,,,,,,,,,,,,,,,,,,579,2010-12-30_08h00.31.349,eb_02psyexp,2022.2.4,119.99286468661035,
167,0,167,0,,,,,,,,,,,,,,,,,,,,,,,,,,,,,,,,,,,,,,,,,,,,,,,,,,,,,,,,,,,309.45235878089443,309.45235878089443,309.45235878089443,309.45235878089443,309.45235878089443,309.45235878089443,l,1,0.45086776302196085,309.9190478246892,310.9524639751762,,,,,,,,,,,,,,,,,,,,,,,,,,,,,,,,,,,,,,,579,2010-12-30_08h00.31.349,eb_02psyexp,2022.2.4,119.99286468661035,
168,0,168,0,,,,,,,,,,,,,,,,,,,,,,,,,,,,,,,,,,,,,,,,,,,,,,,,,,,,,,,,,,,310.9524639751762,310.9524639751762,310.9524639751762,310.9524639751762,310.9524639751762,310.9524639751762,l,1,0.4867711461847648,311.4524686537916,312.47759785258677,,,,,,,,,,,,,,,,,,,,,,,,,,,,,,,,,,,,,,,579,2010-12-30_08h00.31.349,eb_02psyexp,2022.2.4,119.99286468661035,
169,0,169,0,,,,,,,,,,,,,,,,,,,,,,,,,,,,,,,,,,,,,,,,,,,,,,,,,,,,,,,,,,,312.47759785258677,312.47759785258677,312.47759785258677,312.47759785258677,312.47759785258677,312.47759785258677,l,1,0.41768645076081157,312.91096914839,313.9443849971285,,,,,,,,,,,,,,,,,,,,,,,,,,,,,,,,,,,,,,,579,2010-12-30_08h00.31.349,eb_02psyexp,2022.2.4,119.99286468661035,
170,0,170,0,,,,,,,,,,,,,,,,,,,,,,,,,,,,,,,,,,,,,,,,,,,,,,,,,,,,,,,,,,,313.9443849971285,313.9443849971285,313.9443849971285,313.9443849971285,313.9443849971285,313.9443849971285,s,1,0.5509115613531321,314.51105867663864,315.5361564832274,,,,,,,,,,,,,,,,,,,,,,,,,,,,,,,,,,,,,,,579,2010-12-30_08h00.31.349,eb_02psyexp,2022.2.4,119.99286468661035,
171,0,171,0,,,,,,,,,,,,,,,,,,,,,,,,,,,,,,,,,,,,,,,,,,,,,,,,,,,,,,,,,,,315.5361564832274,315.5361564832274,315.5361564832274,315.5361564832274,315.5361564832274,315.5361564832274,l,1,0.43916237575467676,315.9861783521483,317.01963253552094,,,,,,,,,,,,,,,,,,,,,,,,,,,,,,,,,,,,,,,579,2010-12-30_08h00.31.349,eb_02psyexp,2022.2.4,119.99286468661035,
172,0,172,0,,,,,,,,,,,,,,,,,,,,,,,,,,,,,,,,,,,,,,,,,,,,,,,,,,,,,,,,,,,317.01963253552094,317.01963253552094,317.01963253552094,317.01963253552094,317.01963253552094,317.01963253552094,s,1,0.40369818231556565,317.43635235272814,318.461416352191,,,,,,,,,,,,,,,,,,,,,,,,,,,,,,,,,,,,,,,579,2010-12-30_08h00.31.349,eb_02psyexp,2022.2.4,119.99286468661035,
173,0,173,0,,,,,,,,,,,,,,,,,,,,,,,,,,,,,,,,,,,,,,,,,,,,,,,,,,,,,,,,,,,318.461416352191,318.461416352191,318.461416352191,318.461416352191,318.461416352191,318.461416352191,l,0,0.32993694650940597,318.80311199883,319.8198147917865,,,,,,,,,,,,,,,,,,,,,,,,,,,,,,,,,,,,,,,579,2010-12-30_08h00.31.349,eb_02psyexp,2022.2.4,119.99286468661035,
174,0,174,0,,,,,,,,,,,,,,,,,,,,,,,,,,,,,,,,,,,,,,,,,,,,,,,,,,,,,,,,,,,319.8198147917865,319.8198147917865,319.8198147917865,319.8198147917865,319.8198147917865,319.8198147917865,l,1,0.41058274544775486,320.24486925278325,321.2616004195297,,,,,,,,,,,,,,,,,,,,,,,,,,,,,,,,,,,,,,,579,2010-12-30_08h00.31.349,eb_02psyexp,2022.2.4,119.99286468661035,
175,0,175,0,,,,,,,,,,,,,,,,,,,,,,,,,,,,,,,,,,,,,,,,,,,,,,,,,,,,,,,,,,,321.2616004195297,321.2616004195297,321.2616004195297,321.2616004195297,321.2616004195297,321.2616004195297,s,1,0.4808180878171697,321.7533588958904,322.7784394971095,,,,,,,,,,,,,,,,,,,,,,,,,,,,,,,,,,,,,,,579,2010-12-30_08h00.31.349,eb_02psyexp,2022.2.4,119.99286468661035,
176,0,176,0,,,,,,,,,,,,,,,,,,,,,,,,,,,,,,,,,,,,,,,,,,,,,,,,,,,,,,,,,,,322.7784394971095,322.7784394971095,322.7784394971095,322.7784394971095,322.7784394971095,322.7784394971095,l,1,0.411999321077019,323.20347977115307,324.2368772070622,,,,,,,,,,,,,,,,,,,,,,,,,,,,,,,,,,,,,,,579,2010-12-30_08h00.31.349,eb_02psyexp,2022.2.4,119.99286468661035,
177,0,177,0,,,,,,,,,,,,,,,,,,,,,,,,,,,,,,,,,,,,,,,,,,,,,,,,,,,,,,,,,,,324.2368772070622,324.2368772070622,324.2368772070622,324.2368772070622,324.2368772070622,324.2368772070622,s,1,0.47360420785844326,324.72023282188457,325.73696670518257,,,,,,,,,,,,,,,,,,,,,,,,,,,,,,,,,,,,,,,579,2010-12-30_08h00.31.349,eb_02psyexp,2022.2.4,119.99286468661035,
178,0,178,0,,,,,,,,,,,,,,,,,,,,,,,,,,,,,,,,,,,,,,,,,,,,,,,,,,,,,,,,,,,325.73696670518257,325.73696670518257,325.73696670518257,325.73696670518257,325.73696670518257,325.73696670518257,s,1,1.1895281408214942,326.93712885829154,327.9621841041371,,,,,,,,,,,,,,,,,,,,,,,,,,,,,,,,,,,,,,,579,2010-12-30_08h00.31.349,eb_02psyexp,2022.2.4,119.99286468661035,
179,0,179,0,,,,,,,,,,,,,,,,,,,,,,,,,,,,,,,,,,,,,,,,,,,,,,,,,,,,,,,,,,,327.9621841041371,327.9621841041371,327.9621841041371,327.9621841041371,327.9621841041371,327.9621841041371,l,1,0.5323542105033994,328.5038807167439,329.5206659142859,,,,,,,,,,,,,,,,,,,,,,,,,,,,,,,,,,,,,,,579,2010-12-30_08h00.31.349,eb_02psyexp,2022.2.4,119.99286468661035,
180,0,180,0,,,,,,,,,,,,,,,,,,,,,,,,,,,,,,,,,,,,,,,,,,,,,,,,,,,,,,,,,,,329.5206659142859,329.5206659142859,329.5206659142859,329.5206659142859,329.5206659142859,329.5206659142859,l,1,0.4859039350412786,330.0207237183349,331.03740840032697,,,,,,,,,,,,,,,,,,,,,,,,,,,,,,,,,,,,,,,579,2010-12-30_08h00.31.349,eb_02psyexp,2022.2.4,119.99286468661035,
181,0,181,0,,,,,,,,,,,,,,,,,,,,,,,,,,,,,,,,,,,,,,,,,,,,,,,,,,,,,,,,,,,331.03740840032697,331.03740840032697,331.03740840032697,331.03740840032697,331.03740840032697,331.03740840032697,s,1,0.569190004025586,331.6208401111653,332.6542378489394,,,,,,,,,,,,,,,,,,,,,,,,,,,,,,,,,,,,,,,579,2010-12-30_08h00.31.349,eb_02psyexp,2022.2.4,119.99286468661035,
182,0,182,0,,,,,,,,,,,,,,,,,,,,,,,,,,,,,,,,,,,,,,,,,,,,,,,,,,,,,,,,,,,332.6542378489394,332.6542378489394,332.6542378489394,332.6542378489394,332.6542378489394,332.6542378489394,l,1,0.48038704809732735,333.145942596253,334.17106243770104,,,,,,,,,,,,,,,,,,,,,,,,,,,,,,,,,,,,,,,579,2010-12-30_08h00.31.349,eb_02psyexp,2022.2.4,119.99286468661035,
183,0,183,0,,,,,,,,,,,,,,,,,,,,,,,,,,,,,,,,,,,,,,,,,,,,,,,,,,,,,,,,,,,334.17106243770104,334.17106243770104,334.17106243770104,334.17106243770104,334.17106243770104,334.17106243770104,l,1,0.49862504296470433,334.67940900463145,335.6961214566836,,,,,,,,,,,,,,,,,,,,,,,,,,,,,,,,,,,,,,,579,2010-12-30_08h00.31.349,eb_02psyexp,2022.2.4,119.99286468661035,
184,0,184,0,,,,,,,,,,,,,,,,,,,,,,,,,,,,,,,,,,,,,,,,,,,,,,,,,,,,,,,,,,,335.6961214566836,335.6961214566836,335.6961214566836,335.6961214566836,335.6961214566836,335.6961214566836,l,1,0.4135526339523494,336.12119553785305,337.137939684093,,,,,,,,,,,,,,,,,,,,,,,,,,,,,,,,,,,,,,,579,2010-12-30_08h00.31.349,eb_02psyexp,2022.2.4,119.99286468661035,
185,0,185,0,,,,,,,,,,,,,,,,,,,,,,,,,,,,,,,,,,,,,,,,,,,,,,,,,,,,,,,,,,,337.137939684093,337.137939684093,337.137939684093,337.137939684093,337.137939684093,337.137939684093,s,1,0.4517814589198679,337.6046341609908,338.6213915885892,,,,,,,,,,,,,,,,,,,,,,,,,,,,,,,,,,,,,,,579,2010-12-30_08h00.31.349,eb_02psyexp,2022.2.4,119.99286468661035,
186,0,186,0,,,,,,,,,,,,,,,,,,,,,,,,,,,,,,,,,,,,,,,,,,,,,,,,,,,,,,,,,,,338.6213915885892,338.6213915885892,338.6213915885892,338.6213915885892,338.6213915885892,338.6213915885892,l,1,0.416335376445204,339.046450879192,340.07155019487254,,,,,,,,,,,,,,,,,,,,,,,,,,,,,,,,,,,,,,,579,2010-12-30_08h00.31.349,eb_02psyexp,2022.2.4,119.99286468661035,
187,0,187,0,,,,,,,,,,,,,,,,,,,,,,,,,,,,,,,,,,,,,,,,,,,,,,,,,,,,,,,,,,,340.07155019487254,340.07155019487254,340.07155019487254,340.07155019487254,340.07155019487254,340.07155019487254,s,1,0.40620111115276814,340.488217490376,341.51330473215785,,,,,,,,,,,,,,,,,,,,,,,,,,,,,,,,,,,,,,,579,2010-12-30_08h00.31.349,eb_02psyexp,2022.2.4,119.99286468661035,
188,0,188,0,,,,,,,,,,,,,,,,,,,,,,,,,,,,,,,,,,,,,,,,,,,,,,,,,,,,,,,,,,,341.51330473215785,341.51330473215785,341.51330473215785,341.51330473215785,341.51330473215785,341.51330473215785,l,1,0.4444546875311062,341.97166064125486,342.9967783697648,,,,,,,,,,,,,,,,,,,,,,,,,,,,,,,,,,,,,,,579,2010-12-30_08h00.31.349,eb_02psyexp,2022.2.4,119.99286468661035,
189,0,189,0,,,,,,,,,,,,,,,,,,,,,,,,,,,,,,,,,,,,,,,,,,,,,,,,,,,,,,,,,,,342.9967783697648,342.9967783697648,342.9967783697648,342.9967783697648,342.9967783697648,342.9967783697648,s,1,0.5050239316187799,343.51348795427475,344.5385516518727,,,,,,,,,,,,,,,,,,,,,,,,,,,,,,,,,,,,,,,579,2010-12-30_08h00.31.349,eb_02psyexp,2022.2.4,119.99286468661035,
190,0,190,0,,,,,,,,,,,,,,,,,,,,,,,,,,,,,,,,,,,,,,,,,,,,,,,,,,,,,,,,,,,344.5385516518727,344.5385516518727,344.5385516518727,344.5385516518727,344.5385516518727,344.5385516518727,l,1,0.47530120075680315,345.0302826601546,346.06370545132086,,,,,,,,,,,,,,,,,,,,,,,,,,,,,,,,,,,,,,,579,2010-12-30_08h00.31.349,eb_02psyexp,2022.2.4,119.99286468661035,
191,0,191,0,,,,,,,,,,,,,,,,,,,,,,,,,,,,,,,,,,,,,,,,,,,,,,,,,,,,,,,,,,,346.06370545132086,346.06370545132086,346.06370545132086,346.06370545132086,346.06370545132086,346.06370545132086,s,1,0.5821580240735784,346.65541173820384,347.68050833721645,,,,,,,,,,,,,,,,,,,,,,,,,,,,,,,,,,,,,,,579,2010-12-30_08h00.31.349,eb_02psyexp,2022.2.4,119.99286468661035,
192,0,192,0,,,,,,,,,,,,,,,,,,,,,,,,,,,,,,,,,,,,,,,,,,,,,,,,,,,,,,,,,,,347.68050833721645,347.68050833721645,347.68050833721645,347.68050833721645,347.68050833721645,347.68050833721645,l,1,0.3973590596579015,348.08887660701293,349.12229819083586,,,,,,,,,,,,,,,,,,,,,,,,,,,,,,,,,,,,,,,579,2010-12-30_08h00.31.349,eb_02psyexp,2022.2.4,119.99286468661035,
193,0,193,0,,,,,,,,,,,,,,,,,,,,,,,,,,,,,,,,,,,,,,,,,,,,,,,,,,,,,,,,,,,349.12229819083586,349.12229819083586,349.12229819083586,349.12229819083586,349.12229819083586,349.12229819083586,s,1,0.3956131673185155,349.5306525756605,350.5473535574274,,,,,,,,,,,,,,,,,,,,,,,,,,,,,,,,,,,,,,,579,2010-12-30_08h00.31.349,eb_02psyexp,2022.2.4,119.99286468661035,
194,0,194,0,,,,,,,,,,,,,,,,,,,,,,,,,,,,,,,,,,,,,,,,,,,,,,,,,,,,,,,,,,,350.5473535574274,350.5473535574274,350.5473535574274,350.5473535574274,350.5473535574274,350.5473535574274,l,1,0.3775819386355579,350.9390860446729,351.97251789132133,,,,,,,,,,,,,,,,,,,,,,,,,,,,,,,,,,,,,,,579,2010-12-30_08h00.31.349,eb_02psyexp,2022.2.4,119.99286468661035,
195,0,195,0,,,,,,,,,,,,,,,,,,,,,,,,,,,,,,,,,,,,,,,,,,,,,,,,,,,,,,,,,,,351.97251789132133,351.97251789132133,351.97251789132133,351.97251789132133,351.97251789132133,351.97251789132133,s,1,0.4404401008505374,352.4225557582686,353.44765507406555,,,,,,,,,,,,,,,,,,,,,,,,,,,,,,,,,,,,,,,579,2010-12-30_08h00.31.349,eb_02psyexp,2022.2.4,119.99286468661035,
196,0,196,0,,,,,,,,,,,,,,,,,,,,,,,,,,,,,,,,,,,,,,,,,,,,,,,,,,,,,,,,,,,353.44765507406555,353.44765507406555,353.44765507406555,353.44765507406555,353.44765507406555,353.44765507406555,s,1,0.46131232869811356,353.9226835911395,354.9393797434168,,,,,,,,,,,,,,,,,,,,,,,,,,,,,,,,,,,,,,,579,2010-12-30_08h00.31.349,eb_02psyexp,2022.2.4,119.99286468661035,
197,0,197,0,,,,,,,,,,,,,,,,,,,,,,,,,,,,,,,,,,,,,,,,,,,,,,,,,,,,,,,,,,,354.9393797434168,354.9393797434168,354.9393797434168,354.9393797434168,354.9393797434168,354.9393797434168,l,1,0.4816484733019024,355.4311533123255,356.45624387438875,,,,,,,,,,,,,,,,,,,,,,,,,,,,,,,,,,,,,,,579,2010-12-30_08h00.31.349,eb_02psyexp,2022.2.4,119.99286468661035,
198,0,198,0,,,,,,,,,,,,,,,,,,,,,,,,,,,,,,,,,,,,,,,,,,,,,,,,,,,,,,,,,,,356.45624387438875,356.45624387438875,356.45624387438875,356.45624387438875,356.45624387438875,356.45624387438875,l,1,0.4527763518271968,356.92293050326407,357.9479914843105,,,,,,,,,,,,,,,,,,,,,,,,,,,,,,,,,,,,,,,579,2010-12-30_08h00.31.349,eb_02psyexp,2022.2.4,119.99286468661035,
199,0,199,0,,,,,0,0,0,0,,,,,,,,,,,,,,,,,,,,,,,,,,,,,,,,,,,,,,,,,,,,,,,,,,,357.9479914843105,357.9479914843105,357.9479914843105,357.9479914843105,357.9479914843105,357.9479914843105,s,1,0.5210641669109464,358.48135677329265,359.4814545722911,359.4814545722911,359.4814545722911,space,14.962891449802555,,,,,,,,,,,,,,,,,,,,,,,,,,,,,,,,,,,579,2010-12-30_08h00.31.349,eb_02psyexp,2022.2.4,119.99286468661035,
199,0,199,0,,,,,,,,,,,,,,,,,,,,,,,,,,,,,,,,,,,,,,,,,,,,,,,,,,,,,,,,,,,,,,,,,,,,,,,,,,,,,,,,,,,,,,,,,,,,,,,,,,,,,,,,,,,,579,2010-12-30_08h00.31.349,eb_02psyexp,2022.2.4,119.99286468661035,
200,0,200,0,,,,,,,,,,,,,,,,,,,,,,,,,,,,,,,,,,,,,,,,,,,,,,,,,,,,,,,,,,,374.48269215156324,374.48269215156324,374.48269215156324,374.48269215156324,374.48269215156324,374.48269215156324,l,1,0.8896774653112516,375.38279384432826,376.39950539090205,,,,,,,,,,,,,,,,,,,,,,,,,,,,,,,,,,,,,,,579,2010-12-30_08h00.31.349,eb_02psyexp,2022.2.4,119.99286468661035,
201,0,201,0,,,,,,,,,,,,,,,,,,,,,,,,,,,,,,,,,,,,,,,,,,,,,,,,,,,,,,,,,,,376.39950539090205,376.39950539090205,376.39950539090205,376.39950539090205,376.39950539090205,376.39950539090205,l,1,0.5328881806926802,376.9412110588746,377.9663149024127,,,,,,,,,,,,,,,,,,,,,,,,,,,,,,,,,,,,,,,579,2010-12-30_08h00.31.349,eb_02psyexp,2022.2.4,119.99286468661035,
202,0,202,0,,,,,,,,,,,,,,,,,,,,,,,,,,,,,,,,,,,,,,,,,,,,,,,,,,,,,,,,,,,377.9663149024127,377.9663149024127,377.9663149024127,377.9663149024127,377.9663149024127,377.9663149024127,l,1,0.5581046137958765,378.5330441221595,379.54974902805407,,,,,,,,,,,,,,,,,,,,,,,,,,,,,,,,,,,,,,,579,2010-12-30_08h00.31.349,eb_02psyexp,2022.2.4,119.99286468661035,
203,0,203,0,,,,,,,,,,,,,,,,,,,,,,,,,,,,,,,,,,,,,,,,,,,,,,,,,,,,,,,,,,,379.54974902805407,379.54974902805407,379.54974902805407,379.54974902805407,379.54974902805407,379.54974902805407,l,1,0.5666789254173636,380.12484639685135,381.14994178852066,,,,,,,,,,,,,,,,,,,,,,,,,,,,,,,,,,,,,,,579,2010-12-30_08h00.31.349,eb_02psyexp,2022.2.4,119.99286468661035,
204,0,204,0,,,,,,,,,,,,,,,,,,,,,,,,,,,,,,,,,,,,,,,,,,,,,,,,,,,,,,,,,,,381.14994178852066,381.14994178852066,381.14994178852066,381.14994178852066,381.14994178852066,381.14994178852066,l,1,0.4935573065886274,381.65830676816404,382.6917241261108,,,,,,,,,,,,,,,,,,,,,,,,,,,,,,,,,,,,,,,579,2010-12-30_08h00.31.349,eb_02psyexp,2022.2.4,119.99286468661035,
205,0,205,0,,,,,,,,,,,,,,,,,,,,,,,,,,,,,,,,,,,,,,,,,,,,,,,,,,,,,,,,,,,382.6917241261108,382.6917241261108,382.6917241261108,382.6917241261108,382.6917241261108,382.6917241261108,s,1,0.44775027071591467,383.15009844792075,384.1751609381754,,,,,,,,,,,,,,,,,,,,,,,,,,,,,,,,,,,,,,,579,2010-12-30_08h00.31.349,eb_02psyexp,2022.2.4,119.99286468661035,
206,0,206,0,,,,,,,,,,,,,,,,,,,,,,,,,,,,,,,,,,,,,,,,,,,,,,,,,,,,,,,,,,,384.1751609381754,384.1751609381754,384.1751609381754,384.1751609381754,384.1751609381754,384.1751609381754,s,1,0.6283435781951994,384.8169013489969,385.84196414100006,,,,,,,,,,,,,,,,,,,,,,,,,,,,,,,,,,,,,,,579,2010-12-30_08h00.31.349,eb_02psyexp,2022.2.4,119.99286468661035,
207,0,207,0,,,,,,,,,,,,,,,,,,,,,,,,,,,,,,,,,,,,,,,,,,,,,,,,,,,,,,,,,,,385.84196414100006,385.84196414100006,385.84196414100006,385.84196414100006,385.84196414100006,385.84196414100006,l,1,0.4095963042927906,386.2669853987172,387.3004371674033,,,,,,,,,,,,,,,,,,,,,,,,,,,,,,,,,,,,,,,579,2010-12-30_08h00.31.349,eb_02psyexp,2022.2.4,119.99286468661035,
208,0,208,0,,,,,,,,,,,,,,,,,,,,,,,,,,,,,,,,,,,,,,,,,,,,,,,,,,,,,,,,,,,387.3004371674033,387.3004371674033,387.3004371674033,387.3004371674033,387.3004371674033,387.3004371674033,s,1,0.5111194625496864,387.8254826031625,388.85059248353355,,,,,,,,,,,,,,,,,,,,,,,,,,,,,,,,,,,,,,,579,2010-12-30_08h00.31.349,eb_02psyexp,2022.2.4,119.99286468661035,
209,0,209,0,,,,,,,,,,,,,,,,,,,,,,,,,,,,,,,,,,,,,,,,,,,,,,,,,,,,,,,,,,,388.85059248353355,388.85059248353355,388.85059248353355,388.85059248353355,388.85059248353355,388.85059248353355,l,1,0.41701845976058394,389.28390039119404,390.3006357838167,,,,,,,,,,,,,,,,,,,,,,,,,,,,,,,,,,,,,,,579,2010-12-30_08h00.31.349,eb_02psyexp,2022.2.4,119.99286468661035,
210,0,210,0,,,,,,,,,,,,,,,,,,,,,,,,,,,,,,,,,,,,,,,,,,,,,,,,,,,,,,,,,,,390.3006357838167,390.3006357838167,390.3006357838167,390.3006357838167,390.3006357838167,390.3006357838167,s,1,0.462991512613371,390.77571863366757,391.79242142662406,,,,,,,,,,,,,,,,,,,,,,,,,,,,,,,,,,,,,,,579,2010-12-30_08h00.31.349,eb_02psyexp,2022.2.4,119.99286468661035,
211,0,211,0,,,,,,,,,,,,,,,,,,,,,,,,,,,,,,,,,,,,,,,,,,,,,,,,,,,,,,,,,,,391.79242142662406,391.79242142662406,391.79242142662406,391.79242142662406,391.79242142662406,391.79242142662406,l,1,0.3552110326709226,392.1591735264519,393.1842378277797,,,,,,,,,,,,,,,,,,,,,,,,,,,,,,,,,,,,,,,579,2010-12-30_08h00.31.349,eb_02psyexp,2022.2.4,119.99286468661035,
212,0,212,0,,,,,,,,,,,,,,,,,,,,,,,,,,,,,,,,,,,,,,,,,,,,,,,,,,,,,,,,,,,393.1842378277797,393.1842378277797,393.1842378277797,393.1842378277797,393.1842378277797,393.1842378277797,s,1,0.39541938062757254,393.5925894959364,394.626041566371,,,,,,,,,,,,,,,,,,,,,,,,,,,,,,,,,,,,,,,579,2010-12-30_08h00.31.349,eb_02psyexp,2022.2.4,119.99286468661035,
213,0,213,0,,,,,,,,,,,,,,,,,,,,,,,,,,,,,,,,,,,,,,,,,,,,,,,,,,,,,,,,,,,394.626041566371,394.626041566371,394.626041566371,394.626041566371,394.626041566371,394.626041566371,l,1,0.42565404670313,395.06777437066194,396.0844756542938,,,,,,,,,,,,,,,,,,,,,,,,,,,,,,,,,,,,,,,579,2010-12-30_08h00.31.349,eb_02psyexp,2022.2.4,119.99286468661035,
214,0,214,0,,,,,,,,,,,,,,,,,,,,,,,,,,,,,,,,,,,,,,,,,,,,,,,,,,,,,,,,,,,396.0844756542938,396.0844756542938,396.0844756542938,396.0844756542938,396.0844756542938,396.0844756542938,s,1,0.31923399842344224,396.41787801031023,397.44294261350296,,,,,,,,,,,,,,,,,,,,,,,,,,,,,,,,,,,,,,,579,2010-12-30_08h00.31.349,eb_02psyexp,2022.2.4,119.99286468661035,
215,0,215,0,,,,,,,,,,,,,,,,,,,,,,,,,,,,,,,,,,,,,,,,,,,,,,,,,,,,,,,,,,,397.44294261350296,397.44294261350296,397.44294261350296,397.44294261350296,397.44294261350296,397.44294261350296,l,1,0.38379519048612565,397.84295933588874,398.86803903151304,,,,,,,,,,,,,,,,,,,,,,,,,,,,,,,,,,,,,,,579,2010-12-30_08h00.31.349,eb_02psyexp,2022.2.4,119.99286468661035,
216,0,216,0,,,,,,,,,,,,,,,,,,,,,,,,,,,,,,,,,,,,,,,,,,,,,,,,,,,,,,,,,,,398.86803903151304,398.86803903151304,398.86803903151304,398.86803903151304,398.86803903151304,398.86803903151304,s,1,0.4547679489478469,399.33478089864366,400.3681828622939,,,,,,,,,,,,,,,,,,,,,,,,,,,,,,,,,,,,,,,579,2010-12-30_08h00.31.349,eb_02psyexp,2022.2.4,119.99286468661035,
217,0,217,0,,,,,,,,,,,,,,,,,,,,,,,,,,,,,,,,,,,,,,,,,,,,,,,,,,,,,,,,,,,400.3681828622939,400.3681828622939,400.3681828622939,400.3681828622939,400.3681828622939,400.3681828622939,l,1,0.3946324612479657,400.7765520376852,401.80163263878785,,,,,,,,,,,,,,,,,,,,,,,,,,,,,,,,,,,,,,,579,2010-12-30_08h00.31.349,eb_02psyexp,2022.2.4,119.99286468661035,
218,0,218,0,,,,,,,,,,,,,,,,,,,,,,,,,,,,,,,,,,,,,,,,,,,,,,,,,,,,,,,,,,,401.80163263878785,401.80163263878785,401.80163263878785,401.80163263878785,401.80163263878785,401.80163263878785,s,1,0.3131743874400854,402.1266623181291,403.1517589171417,,,,,,,,,,,,,,,,,,,,,,,,,,,,,,,,,,,,,,,579,2010-12-30_08h00.31.349,eb_02psyexp,2022.2.4,119.99286468661035,
219,0,219,0,,,,,,,,,,,,,,,,,,,,,,,,,,,,,,,,,,,,,,,,,,,,,,,,,,,,,,,,,,,403.1517589171417,403.1517589171417,403.1517589171417,403.1517589171417,403.1517589171417,403.1517589171417,l,1,0.49112712347414345,403.6517859325977,404.66852555109654,,,,,,,,,,,,,,,,,,,,,,,,,,,,,,,,,,,,,,,579,2010-12-30_08h00.31.349,eb_02psyexp,2022.2.4,119.99286468661035,
220,0,220,0,,,,,,,,,,,,,,,,,,,,,,,,,,,,,,,,,,,,,,,,,,,,,,,,,,,,,,,,,,,404.66852555109654,404.66852555109654,404.66852555109654,404.66852555109654,404.66852555109654,404.66852555109654,s,1,0.46233529364690185,405.14356221817434,406.1770085535245,,,,,,,,,,,,,,,,,,,,,,,,,,,,,,,,,,,,,,,579,2010-12-30_08h00.31.349,eb_02psyexp,2022.2.4,119.99286468661035,
221,0,221,0,,,,,,,,,,,,,,,,,,,,,,,,,,,,,,,,,,,,,,,,,,,,,,,,,,,,,,,,,,,406.1770085535245,406.1770085535245,406.1770085535245,406.1770085535245,406.1770085535245,406.1770085535245,s,1,0.4659278958570212,406.65201262093615,407.66873533581384,,,,,,,,,,,,,,,,,,,,,,,,,,,,,,,,,,,,,,,579,2010-12-30_08h00.31.349,eb_02psyexp,2022.2.4,119.99286468661035,
222,0,222,0,,,,,,,,,,,,,,,,,,,,,,,,,,,,,,,,,,,,,,,,,,,,,,,,,,,,,,,,,,,407.66873533581384,407.66873533581384,407.66873533581384,407.66873533581384,407.66873533581384,407.66873533581384,s,1,0.42217524151783437,408.1021331943339,409.1355734927347,,,,,,,,,,,,,,,,,,,,,,,,,,,,,,,,,,,,,,,579,2010-12-30_08h00.31.349,eb_02psyexp,2022.2.4,119.99286468661035,
223,0,223,0,,,,,,,,,,,,,,,,,,,,,,,,,,,,,,,,,,,,,,,,,,,,,,,,,,,,,,,,,,,409.1355734927347,409.1355734927347,409.1355734927347,409.1355734927347,409.1355734927347,409.1355734927347,s,1,0.42741140932776034,409.5772444179747,410.60233980976045,,,,,,,,,,,,,,,,,,,,,,,,,,,,,,,,,,,,,,,579,2010-12-30_08h00.31.349,eb_02psyexp,2022.2.4,119.99286468661035,
224,0,224,0,,,,,,,,,,,,,,,,,,,,,,,,,,,,,,,,,,,,,,,,,,,,,,,,,,,,,,,,,,,410.60233980976045,410.60233980976045,410.60233980976045,410.60233980976045,410.60233980976045,410.60233980976045,s,1,0.3606527593219653,410.97737101337407,412.01080859510694,,,,,,,,,,,,,,,,,,,,,,,,,,,,,,,,,,,,,,,579,2010-12-30_08h00.31.349,eb_02psyexp,2022.2.4,119.99286468661035,
225,0,225,0,,,,,,,,,,,,,,,,,,,,,,,,,,,,,,,,,,,,,,,,,,,,,,,,,,,,,,,,,,,412.01080859510694,412.01080859510694,412.01080859510694,412.01080859510694,412.01080859510694,412.01080859510694,s,1,0.3752694765571505,412.40251089748926,413.42757519881707,,,,,,,,,,,,,,,,,,,,,,,,,,,,,,,,,,,,,,,579,2010-12-30_08h00.31.349,eb_02psyexp,2022.2.4,119.99286468661035,
226,0,226,0,,,,,,,,,,,,,,,,,,,,,,,,,,,,,,,,,,,,,,,,,,,,,,,,,,,,,,,,,,,413.42757519881707,413.42757519881707,413.42757519881707,413.42757519881707,413.42757519881707,413.42757519881707,l,1,0.43046128761488944,413.869264838635,414.9026957798051,,,,,,,,,,,,,,,,,,,,,,,,,,,,,,,,,,,,,,,579,2010-12-30_08h00.31.349,eb_02psyexp,2022.2.4,119.99286468661035,
227,0,227,0,,,,,,,,,,,,,,,,,,,,,,,,,,,,,,,,,,,,,,,,,,,,,,,,,,,,,,,,,,,414.9026957798051,414.9026957798051,414.9026957798051,414.9026957798051,414.9026957798051,414.9026957798051,s,1,0.41935839026700705,415.33609182725195,416.361121717724,,,,,,,,,,,,,,,,,,,,,,,,,,,,,,,,,,,,,,,579,2010-12-30_08h00.31.349,eb_02psyexp,2022.2.4,119.99286468661035,
228,0,228,0,,,,,,,,,,,,,,,,,,,,,,,,,,,,,,,,,,,,,,,,,,,,,,,,,,,,,,,,,,,416.361121717724,416.361121717724,416.361121717724,416.361121717724,416.361121717724,416.361121717724,s,1,0.6569796541007236,417.02788930246606,418.05294364283327,,,,,,,,,,,,,,,,,,,,,,,,,,,,,,,,,,,,,,,579,2010-12-30_08h00.31.349,eb_02psyexp,2022.2.4,119.99286468661035,
229,0,229,0,,,,,,,,,,,,,,,,,,,,,,,,,,,,,,,,,,,,,,,,,,,,,,,,,,,,,,,,,,,418.05294364283327,418.05294364283327,418.05294364283327,418.05294364283327,418.05294364283327,418.05294364283327,s,1,0.35718391509726644,418.41963416559156,419.43640970403794,,,,,,,,,,,,,,,,,,,,,,,,,,,,,,,,,,,,,,,579,2010-12-30_08h00.31.349,eb_02psyexp,2022.2.4,119.99286468661035,
230,0,230,0,,,,,,,,,,,,,,,,,,,,,,,,,,,,,,,,,,,,,,,,,,,,,,,,,,,,,,,,,,,419.43640970403794,419.43640970403794,419.43640970403794,419.43640970403794,419.43640970403794,419.43640970403794,s,0,0.38174201629590243,419.8280944991857,420.8615206107497,,,,,,,,,,,,,,,,,,,,,,,,,,,,,,,,,,,,,,,579,2010-12-30_08h00.31.349,eb_02psyexp,2022.2.4,119.99286468661035,
231,0,231,0,,,,,,,,,,,,,,,,,,,,,,,,,,,,,,,,,,,,,,,,,,,,,,,,,,,,,,,,,,,420.8615206107497,420.8615206107497,420.8615206107497,420.8615206107497,420.8615206107497,420.8615206107497,s,1,0.484660318819806,421.3615838480182,422.3866460364079,,,,,,,,,,,,,,,,,,,,,,,,,,,,,,,,,,,,,,,579,2010-12-30_08h00.31.349,eb_02psyexp,2022.2.4,119.99286468661035,
232,0,232,0,,,,,,,,,,,,,,,,,,,,,,,,,,,,,,,,,,,,,,,,,,,,,,,,,,,,,,,,,,,422.3866460364079,422.3866460364079,422.3866460364079,422.3866460364079,422.3866460364079,422.3866460364079,s,1,0.7035449339309707,423.1033704718575,424.1284559025662,,,,,,,,,,,,,,,,,,,,,,,,,,,,,,,,,,,,,,,579,2010-12-30_08h00.31.349,eb_02psyexp,2022.2.4,119.99286468661035,
233,0,233,0,,,,,,,,,,,,,,,,,,,,,,,,,,,,,,,,,,,,,,,,,,,,,,,,,,,,,,,,,,,424.1284559025662,424.1284559025662,424.1284559025662,424.1284559025662,424.1284559025662,424.1284559025662,l,1,0.49774183391127735,424.6368531800108,425.6619174812222,,,,,,,,,,,,,,,,,,,,,,,,,,,,,,,,,,,,,,,579,2010-12-30_08h00.31.349,eb_02psyexp,2022.2.4,119.99286468661035,
234,0,234,0,,,,,,,,,,,,,,,,,,,,,,,,,,,,,,,,,,,,,,,,,,,,,,,,,,,,,,,,,,,425.6619174812222,425.6619174812222,425.6619174812222,425.6619174812222,425.6619174812222,425.6619174812222,s,1,0.3723158878274262,426.0452700473834,427.0787323807599,,,,,,,,,,,,,,,,,,,,,,,,,,,,,,,,,,,,,,,579,2010-12-30_08h00.31.349,eb_02psyexp,2022.2.4,119.99286468661035,
235,0,235,0,,,,,,,,,,,,,,,,,,,,,,,,,,,,,,,,,,,,,,,,,,,,,,,,,,,,,,,,,,,427.0787323807599,427.0787323807599,427.0787323807599,427.0787323807599,427.0787323807599,427.0787323807599,s,1,0.33958251879084855,427.42876025650185,428.45382335036993,,,,,,,,,,,,,,,,,,,,,,,,,,,,,,,,,,,,,,,579,2010-12-30_08h00.31.349,eb_02psyexp,2022.2.4,119.99286468661035,
236,0,236,0,,,,,,,,,,,,,,,,,,,,,,,,,,,,,,,,,,,,,,,,,,,,,,,,,,,,,,,,,,,428.45382335036993,428.45382335036993,428.45382335036993,428.45382335036993,428.45382335036993,428.45382335036993,l,1,0.4114674638258293,428.8788711708039,429.9123244486982,,,,,,,,,,,,,,,,,,,,,,,,,,,,,,,,,,,,,,,579,2010-12-30_08h00.31.349,eb_02psyexp,2022.2.4,119.99286468661035,
237,0,237,0,,,,,,,,,,,,,,,,,,,,,,,,,,,,,,,,,,,,,,,,,,,,,,,,,,,,,,,,,,,429.9123244486982,429.9123244486982,429.9123244486982,429.9123244486982,429.9123244486982,429.9123244486982,s,1,0.34497323317918926,430.27063444652595,431.29571504774503,,,,,,,,,,,,,,,,,,,,,,,,,,,,,,,,,,,,,,,579,2010-12-30_08h00.31.349,eb_02psyexp,2022.2.4,119.99286468661035,
238,0,238,0,,,,,,,,,,,,,,,,,,,,,,,,,,,,,,,,,,,,,,,,,,,,,,,,,,,,,,,,,,,431.29571504774503,431.29571504774503,431.29571504774503,431.29571504774503,431.29571504774503,431.29571504774503,l,1,0.3456210003932938,431.6541002059821,432.68751092313323,,,,,,,,,,,,,,,,,,,,,,,,,,,,,,,,,,,,,,,579,2010-12-30_08h00.31.349,eb_02psyexp,2022.2.4,119.99286468661035,
239,0,239,0,,,,,,,,,,,,,,,,,,,,,,,,,,,,,,,,,,,,,,,,,,,,,,,,,,,,,,,,,,,432.68751092313323,432.68751092313323,432.68751092313323,432.68751092313323,432.68751092313323,432.68751092313323,s,1,0.38587130524683744,433.0875306640519,434.1209661329631,,,,,,,,,,,,,,,,,,,,,,,,,,,,,,,,,,,,,,,579,2010-12-30_08h00.31.349,eb_02psyexp,2022.2.4,119.99286468661035,
240,0,240,0,,,,,,,,,,,,,,,,,,,,,,,,,,,,,,,,,,,,,,,,,,,,,,,,,,,,,,,,,,,434.1209661329631,434.1209661329631,434.1209661329631,434.1209661329631,434.1209661329631,434.1209661329631,s,1,0.5044075568439439,434.6376787358895,435.67110182892065,,,,,,,,,,,,,,,,,,,,,,,,,,,,,,,,,,,,,,,579,2010-12-30_08h00.31.349,eb_02psyexp,2022.2.4,119.99286468661035,
241,0,241,0,,,,,,,,,,,,,,,,,,,,,,,,,,,,,,,,,,,,,,,,,,,,,,,,,,,,,,,,,,,435.67110182892065,435.67110182892065,435.67110182892065,435.67110182892065,435.67110182892065,435.67110182892065,s,1,0.4263380356132984,436.11280082608573,437.1378633163404,,,,,,,,,,,,,,,,,,,,,,,,,,,,,,,,,,,,,,,579,2010-12-30_08h00.31.349,eb_02psyexp,2022.2.4,119.99286468661035,
242,0,242,0,,,,,,,,,,,,,,,,,,,,,,,,,,,,,,,,,,,,,,,,,,,,,,,,,,,,,,,,,,,437.1378633163404,437.1378633163404,437.1378633163404,437.1378633163404,437.1378633163404,437.1378633163404,s,1,0.4235839688917622,437.5712500064401,438.60466102557257,,,,,,,,,,,,,,,,,,,,,,,,,,,,,,,,,,,,,,,579,2010-12-30_08h00.31.349,eb_02psyexp,2022.2.4,119.99286468661035,
243,0,243,0,,,,,,,,,,,,,,,,,,,,,,,,,,,,,,,,,,,,,,,,,,,,,,,,,,,,,,,,,,,438.60466102557257,438.60466102557257,438.60466102557257,438.60466102557257,438.60466102557257,438.60466102557257,s,1,0.37280095857568085,438.9880027251784,440.01310113538057,,,,,,,,,,,,,,,,,,,,,,,,,,,,,,,,,,,,,,,579,2010-12-30_08h00.31.349,eb_02psyexp,2022.2.4,119.99286468661035,
244,0,244,0,,,,,,,,,,,,,,,,,,,,,,,,,,,,,,,,,,,,,,,,,,,,,,,,,,,,,,,,,,,440.01310113538057,440.01310113538057,440.01310113538057,440.01310113538057,440.01310113538057,440.01310113538057,s,1,0.36438451369758695,440.3881151335081,441.4215729391435,,,,,,,,,,,,,,,,,,,,,,,,,,,,,,,,,,,,,,,579,2010-12-30_08h00.31.349,eb_02psyexp,2022.2.4,119.99286468661035,
245,0,245,0,,,,,,,,,,,,,,,,,,,,,,,,,,,,,,,,,,,,,,,,,,,,,,,,,,,,,,,,,,,441.4215729391435,441.4215729391435,441.4215729391435,441.4215729391435,441.4215729391435,441.4215729391435,s,1,0.35594724130351096,441.7882646693615,442.82167961250525,,,,,,,,,,,,,,,,,,,,,,,,,,,,,,,,,,,,,,,579,2010-12-30_08h00.31.349,eb_02psyexp,2022.2.4,119.99286468661035,
246,0,246,0,,,,,,,,,,,,,,,,,,,,,,,,,,,,,,,,,,,,,,,,,,,,,,,,,,,,,,,,,,,442.82167961250525,442.82167961250525,442.82167961250525,442.82167961250525,442.82167961250525,442.82167961250525,s,1,0.4598580221645534,443.29670843144413,444.33014420222025,,,,,,,,,,,,,,,,,,,,,,,,,,,,,,,,,,,,,,,579,2010-12-30_08h00.31.349,eb_02psyexp,2022.2.4,119.99286468661035,
247,0,247,0,,,,,,,,,,,,,,,,,,,,,,,,,,,,,,,,,,,,,,,,,,,,,,,,,,,,,,,,,,,444.33014420222025,444.33014420222025,444.33014420222025,444.33014420222025,444.33014420222025,444.33014420222025,s,1,0.40641663095448166,444.7468450028682,445.7802641718881,,,,,,,,,,,,,,,,,,,,,,,,,,,,,,,,,,,,,,,579,2010-12-30_08h00.31.349,eb_02psyexp,2022.2.4,119.99286468661035,
248,0,248,0,,,,,,,,,,,,,,,,,,,,,,,,,,,,,,,,,,,,,,,,,,,,,,,,,,,,,,,,,,,445.7802641718881,445.7802641718881,445.7802641718881,445.7802641718881,445.7802641718881,445.7802641718881,s,1,0.36431689956225455,446.15529235696886,447.1887208833359,,,,,,,,,,,,,,,,,,,,,,,,,,,,,,,,,,,,,,,579,2010-12-30_08h00.31.349,eb_02psyexp,2022.2.4,119.99286468661035,
249,0,249,0,,,,,,,,,,,,,,,,,,,,,,,,,,,,,,,,,,,,,,,,,,,,,,,,,,,,,,,,,,,447.1887208833359,447.1887208833359,447.1887208833359,447.1887208833359,447.1887208833359,447.1887208833359,s,1,0.33990157290827483,447.53870861325413,448.563816682552,,,,,,,,,,,,,,,,,,,,,,,,,,,,,,,,,,,,,,,579,2010-12-30_08h00.31.349,eb_02psyexp,2022.2.4,119.99286468661035,
250,0,250,0,,,,,,,,,,,,,,,,,,,,,,,,,,,,,,,,,,,,,,,,,,,,,,,,,,,,,,,,,,,448.563816682552,448.563816682552,448.563816682552,448.563816682552,448.563816682552,448.563816682552,s,1,0.548830616986379,449.1222028066404,450.13893699180335,,,,,,,,,,,,,,,,,,,,,,,,,,,,,,,,,,,,,,,579,2010-12-30_08h00.31.349,eb_02psyexp,2022.2.4,119.99286468661035,
251,0,251,0,,,,,,,,,,,,,,,,,,,,,,,,,,,,,,,,,,,,,,,,,,,,,,,,,,,,,,,,,,,450.13893699180335,450.13893699180335,450.13893699180335,450.13893699180335,450.13893699180335,450.13893699180335,l,1,0.389725006534718,450.53897152328864,451.57242148090154,,,,,,,,,,,,,,,,,,,,,,,,,,,,,,,,,,,,,,,579,2010-12-30_08h00.31.349,eb_02psyexp,2022.2.4,119.99286468661035,
252,0,252,0,,,,,,,,,,,,,,,,,,,,,,,,,,,,,,,,,,,,,,,,,,,,,,,,,,,,,,,,,,,451.57242148090154,451.57242148090154,451.57242148090154,451.57242148090154,451.57242148090154,451.57242148090154,s,1,0.5082875188672915,452.08908397704363,453.1058275195537,,,,,,,,,,,,,,,,,,,,,,,,,,,,,,,,,,,,,,,579,2010-12-30_08h00.31.349,eb_02psyexp,2022.2.4,119.99286468661035,
253,0,253,0,,,,,,,,,,,,,,,,,,,,,,,,,,,,,,,,,,,,,,,,,,,,,,,,,,,,,,,,,,,453.1058275195537,453.1058275195537,453.1058275195537,453.1058275195537,453.1058275195537,453.1058275195537,l,1,0.5988922092365101,453.7142480694456,454.73931629478466,,,,,,,,,,,,,,,,,,,,,,,,,,,,,,,,,,,,,,,579,2010-12-30_08h00.31.349,eb_02psyexp,2022.2.4,119.99286468661035,
254,0,254,0,,,,,,,,,,,,,,,,,,,,,,,,,,,,,,,,,,,,,,,,,,,,,,,,,,,,,,,,,,,454.73931629478466,454.73931629478466,454.73931629478466,454.73931629478466,454.73931629478466,454.73931629478466,l,1,0.4854321457678452,455.23937621177174,456.2727950789267,,,,,,,,,,,,,,,,,,,,,,,,,,,,,,,,,,,,,,,579,2010-12-30_08h00.31.349,eb_02psyexp,2022.2.4,119.99286468661035,
255,0,255,0,,,,,,,,,,,,,,,,,,,,,,,,,,,,,,,,,,,,,,,,,,,,,,,,,,,,,,,,,,,456.2727950789267,456.2727950789267,456.2727950789267,456.2727950789267,456.2727950789267,456.2727950789267,s,1,0.6000156897353008,456.88116522016935,457.90624491579365,,,,,,,,,,,,,,,,,,,,,,,,,,,,,,,,,,,,,,,579,2010-12-30_08h00.31.349,eb_02psyexp,2022.2.4,119.99286468661035,
256,0,256,0,,,,,,,,,,,,,,,,,,,,,,,,,,,,,,,,,,,,,,,,,,,,,,,,,,,,,,,,,,,457.90624491579365,457.90624491579365,457.90624491579365,457.90624491579365,457.90624491579365,457.90624491579365,s,1,0.5586141342064366,458.48127527418546,459.5063760991907,,,,,,,,,,,,,,,,,,,,,,,,,,,,,,,,,,,,,,,579,2010-12-30_08h00.31.349,eb_02psyexp,2022.2.4,119.99286468661035,
257,0,257,0,,,,,,,,,,,,,,,,,,,,,,,,,,,,,,,,,,,,,,,,,,,,,,,,,,,,,,,,,,,459.5063760991907,459.5063760991907,459.5063760991907,459.5063760991907,459.5063760991907,459.5063760991907,l,1,0.46146023448091,459.98143238644116,461.0815244803671,,,,,,,,,,,,,,,,,,,,,,,,,,,,,,,,,,,,,,,579,2010-12-30_08h00.31.349,eb_02psyexp,2022.2.4,119.99286468661035,
258,0,258,0,,,,,,,,,,,,,,,,,,,,,,,,,,,,,,,,,,,,,,,,,,,,,,,,,,,,,,,,,,,461.0815244803671,461.0815244803671,461.0815244803671,461.0815244803671,461.0815244803671,461.0815244803671,s,1,0.3743319346103817,461.4648981759092,462.4983097987715,,,,,,,,,,,,,,,,,,,,,,,,,,,,,,,,,,,,,,,579,2010-12-30_08h00.31.349,eb_02psyexp,2022.2.4,119.99286468661035,
259,0,259,0,,,,,,,,,,,,,,,,,,,,,,,,,,,,,,,,,,,,,,,,,,,,,,,,,,,,,,,,,,,462.4983097987715,462.4983097987715,462.4983097987715,462.4983097987715,462.4983097987715,462.4983097987715,s,1,0.5095969381509349,463.0233313884819,464.0484168191906,,,,,,,,,,,,,,,,,,,,,,,,,,,,,,,,,,,,,,,579,2010-12-30_08h00.31.349,eb_02psyexp,2022.2.4,119.99286468661035,
260,0,260,0,,,,,,,,,,,,,,,,,,,,,,,,,,,,,,,,,,,,,,,,,,,,,,,,,,,,,,,,,,,464.0484168191906,464.0484168191906,464.0484168191906,464.0484168191906,464.0484168191906,464.0484168191906,s,1,0.31147709279321134,464.3734652129933,465.3985292124562,,,,,,,,,,,,,,,,,,,,,,,,,,,,,,,,,,,,,,,579,2010-12-30_08h00.31.349,eb_02psyexp,2022.2.4,119.99286468661035,
261,0,261,0,,,,,,,,,,,,,,,,,,,,,,,,,,,,,,,,,,,,,,,,,,,,,,,,,,,,,,,,,,,465.3985292124562,465.3985292124562,465.3985292124562,465.3985292124562,465.3985292124562,465.3985292124562,l,1,0.409403121098876,465.8235836735694,466.84864888037555,,,,,,,,,,,,,,,,,,,,,,,,,,,,,,,,,,,,,,,579,2010-12-30_08h00.31.349,eb_02psyexp,2022.2.4,119.99286468661035,
262,0,262,0,,,,,,,,,,,,,,,,,,,,,,,,,,,,,,,,,,,,,,,,,,,,,,,,,,,,,,,,,,,466.84864888037555,466.84864888037555,466.84864888037555,466.84864888037555,466.84864888037555,466.84864888037555,s,1,0.3753102259943262,467.2403644641163,468.2737981218379,,,,,,,,,,,,,,,,,,,,,,,,,,,,,,,,,,,,,,,579,2010-12-30_08h00.31.349,eb_02psyexp,2022.2.4,119.99286468661035,
263,0,263,0,,,,,,,,,,,,,,,,,,,,,,,,,,,,,,,,,,,,,,,,,,,,,,,,,,,,,,,,,,,468.2737981218379,468.2737981218379,468.2737981218379,468.2737981218379,468.2737981218379,468.2737981218379,l,0,0.38221229636110365,468.6654669190757,469.69054963311646,,,,,,,,,,,,,,,,,,,,,,,,,,,,,,,,,,,,,,,579,2010-12-30_08h00.31.349,eb_02psyexp,2022.2.4,119.99286468661035,
264,0,264,0,,,,,,,,,,,,,,,,,,,,,,,,,,,,,,,,,,,,,,,,,,,,,,,,,,,,,,,,,,,469.69054963311646,469.69054963311646,469.69054963311646,469.69054963311646,469.69054963311646,469.69054963311646,l,1,0.605465566390194,470.3072535126703,471.3323510173941,,,,,,,,,,,,,,,,,,,,,,,,,,,,,,,,,,,,,,,579,2010-12-30_08h00.31.349,eb_02psyexp,2022.2.4,119.99286468661035,
265,0,265,0,,,,,,,,,,,,,,,,,,,,,,,,,,,,,,,,,,,,,,,,,,,,,,,,,,,,,,,,,,,471.3323510173941,471.3323510173941,471.3323510173941,471.3323510173941,471.3323510173941,471.3323510173941,s,1,1.2036899720551446,472.5491169570014,473.5742168764118,,,,,,,,,,,,,,,,,,,,,,,,,,,,,,,,,,,,,,,579,2010-12-30_08h00.31.349,eb_02psyexp,2022.2.4,119.99286468661035,
266,0,266,0,,,,,,,,,,,,,,,,,,,,,,,,,,,,,,,,,,,,,,,,,,,,,,,,,,,,,,,,,,,473.5742168764118,473.5742168764118,473.5742168764118,473.5742168764118,473.5742168764118,473.5742168764118,l,1,0.6978529745247215,474.282610893948,475.31601195200346,,,,,,,,,,,,,,,,,,,,,,,,,,,,,,,,,,,,,,,579,2010-12-30_08h00.31.349,eb_02psyexp,2022.2.4,119.99286468661035,
267,0,267,0,,,,,,,,,,,,,,,,,,,,,,,,,,,,,,,,,,,,,,,,,,,,,,,,,,,,,,,,,,,475.31601195200346,475.31601195200346,475.31601195200346,475.31601195200346,475.31601195200346,475.31601195200346,s,1,0.6350935167865828,475.96609576034825,476.991168513312,,,,,,,,,,,,,,,,,,,,,,,,,,,,,,,,,,,,,,,579,2010-12-30_08h00.31.349,eb_02psyexp,2022.2.4,119.99286468661035,
268,0,268,0,,,,,,,,,,,,,,,,,,,,,,,,,,,,,,,,,,,,,,,,,,,,,,,,,,,,,,,,,,,476.991168513312,476.991168513312,476.991168513312,476.991168513312,476.991168513312,476.991168513312,l,1,0.43996861344203353,477.44121845427435,478.4746249455493,,,,,,,,,,,,,,,,,,,,,,,,,,,,,,,,,,,,,,,579,2010-12-30_08h00.31.349,eb_02psyexp,2022.2.4,119.99286468661035,
269,0,269,0,,,,,,,,,,,,,,,,,,,,,,,,,,,,,,,,,,,,,,,,,,,,,,,,,,,,,,,,,,,478.4746249455493,478.4746249455493,478.4746249455493,478.4746249455493,478.4746249455493,478.4746249455493,s,1,0.37254227430094033,478.8579717766261,479.88305599987507,,,,,,,,,,,,,,,,,,,,,,,,,,,,,,,,,,,,,,,579,2010-12-30_08h00.31.349,eb_02psyexp,2022.2.4,119.99286468661035,
270,0,270,0,,,,,,,,,,,,,,,,,,,,,,,,,,,,,,,,,,,,,,,,,,,,,,,,,,,,,,,,,,,479.88305599987507,479.88305599987507,479.88305599987507,479.88305599987507,479.88305599987507,479.88305599987507,s,1,0.5081332741538063,480.399763169582,481.41648618644103,,,,,,,,,,,,,,,,,,,,,,,,,,,,,,,,,,,,,,,579,2010-12-30_08h00.31.349,eb_02psyexp,2022.2.4,119.99286468661035,
271,0,271,0,,,,,,,,,,,,,,,,,,,,,,,,,,,,,,,,,,,,,,,,,,,,,,,,,,,,,,,,,,,481.41648618644103,481.41648618644103,481.41648618644103,481.41648618644103,481.41648618644103,481.41648618644103,l,1,0.4147322584176436,481.84153581783175,482.8582769455388,,,,,,,,,,,,,,,,,,,,,,,,,,,,,,,,,,,,,,,579,2010-12-30_08h00.31.349,eb_02psyexp,2022.2.4,119.99286468661035,
272,0,272,0,,,,,,,,,,,,,,,,,,,,,,,,,,,,,,,,,,,,,,,,,,,,,,,,,,,,,,,,,,,482.8582769455388,482.8582769455388,482.8582769455388,482.8582769455388,482.8582769455388,482.8582769455388,s,1,0.4049629280343652,483.27502392907627,484.3084289112594,,,,,,,,,,,,,,,,,,,,,,,,,,,,,,,,,,,,,,,579,2010-12-30_08h00.31.349,eb_02psyexp,2022.2.4,119.99286468661035,
