trials.thisRepN,trials.thisTrialN,trials.thisN,trials.thisIndex,image_loop.thisRepN,image_loop.thisTrialN,image_loop.thisN,image_loop.thisIndex,break_loop.thisRepN,break_loop.thisTrialN,break_loop.thisN,break_loop.thisIndex,test_trials.thisRepN,test_trials.thisTrialN,test_trials.thisN,test_trials.thisIndex,distance matrix,tools,welcome_text.started,instructions_0_keypress.started,instructions_0_keypress.keys,instructions_0_keypress.rt,consent_image_0.started,consent0_key_resp.started,consent0_text.started,consent0_key_resp.keys,consent0_key_resp.rt,consent_image_1.started,consent1_key_resp.started,consent1_text.started,consent1_key_resp.keys,consent1_key_resp.rt,consent2_text.started,consent_image_2.started,consent2_key_resp.started,consent2_key_resp.keys,consent2_key_resp.rt,agree_button.started,disagree_button.started,consent_image_3.started,agree_button.numClicks,agree_button.timesOn,agree_button.timesOff,disagree_button.numClicks,disagree_button.timesOn,disagree_button.timesOff,instructions_text1.started,instructions1_key_resp.started,instr1_cnt_text.started,instructions1_key_resp.keys,instructions1_key_resp.rt,instructions_text2.started,instr2_cnt_text.started,instructions2_key_resp.started,instructions2_key_resp.keys,instructions2_key_resp.rt,instructions_text3.started,instructions3_key_resp.started,instr3_cnt_text.started,instructions3_key_resp.keys,instructions3_key_resp.rt,text_countdown.started,image.started,small_large_keyresp.started,task_question_text.started,smalleroption_text.started,largeroption_text.started,accuracy_score_text.started,small_large_keyresp.keys,small_large_keyresp.corr,small_large_keyresp.rt,fb_2.started,fb_2.stopped,break_text.started,break_key_resp.started,break_key_resp.keys,break_key_resp.rt,reveal_seq_text.started,start_test_text.started,continue_to_test.started,continue_to_test.keys,continue_to_test.rt,test_structure_info.started,start_test_text_2.started,continue_to_test_2.started,continue_to_test_2.keys,continue_to_test_2.rt,test_cntdown_text.started,test_cntdown_text.stopped,parent index,left child index,right child index,left distance,right distance,parent_image.started,top_image_text.started,left_child_image.started,right_child_image.started,path_resp.started,child_choice_text.started,left_choice_text.started,right_choice_text.started,path_resp.keys,path_resp.rt,graph.started,debrief_text.started,debriefing_title.started,demo_scr_adv.started,demo_scr_adv_keypress.started,demo_scr_adv_keypress.keys,demo_scr_adv_keypress.rt,text_countdown_2.started,text_countdown_2.stopped,participant,date,expName,psychopyVersion,frameRate,
,,,,,,,,,,,,,,,,"[[0. 1. 1. 2. 2. 3. 4. 5. 5. 6. 6. 7.]
 [1. 0. 2. 1. 1. 2. 3. 4. 4. 5. 5. 6.]
 [1. 2. 0. 1. 1. 2. 3. 4. 4. 5. 5. 6.]
 [2. 1. 1. 0. 1. 1. 2. 3. 3. 4. 4. 5.]
 [2. 1. 1. 1. 0. 1. 2. 3. 3. 4. 4. 5.]
 [3. 2. 2. 1. 1. 0. 1. 2. 2. 3. 3. 4.]
 [4. 3. 3. 2. 2. 1. 0. 1. 1. 2. 2. 3.]
 [5. 4. 4. 3. 3. 2. 1. 0. 1. 1. 1. 2.]
 [5. 4. 4. 3. 3. 2. 1. 1. 0. 1. 1. 2.]
 [6. 5. 5. 4. 4. 3. 2. 1. 1. 0. 2. 1.]
 [6. 5. 5. 4. 4. 3. 2. 1. 1. 2. 0. 1.]
 [7. 6. 6. 5. 5. 4. 3. 2. 2. 1. 1. 0.]]",[ 8 10  2  5  3  7  6  4  1  0  9 11],27.05437919823453,27.05437919823453,return,6.6226838869042695,,,,,,,,,,,,,,,,,,,,,,,,,,,,,,,,,,,,,,,,,,,,,,,,,,,,,,,,,,,,,,,,,,,,,,,,,,,,,,,,,,,,,,,,,,,,580,2023-05-17_10h34.48.207,eb_02psyexp,2022.2.4,60.007136460675696,
,,,,,,,,,,,,,,,,,,,,,,33.703817856963724,33.703817856963724,33.703817856963724,space,1.301231577526778,,,,,,,,,,,,,,,,,,,,,,,,,,,,,,,,,,,,,,,,,,,,,,,,,,,,,,,,,,,,,,,,,,,,,,,,,,,,,,,,,,,,,,,580,2023-05-17_10h34.48.207,eb_02psyexp,2022.2.4,60.007136460675696,
,,,,,,,,,,,,,,,,,,,,,,,,,,,35.037047858699225,35.037047858699225,35.037047858699225,space,0.4560041402000934,,,,,,,,,,,,,,,,,,,,,,,,,,,,,,,,,,,,,,,,,,,,,,,,,,,,,,,,,,,,,,,,,,,,,,,,,,,,,,,,,,580,2023-05-17_10h34.48.207,eb_02psyexp,2022.2.4,60.007136460675696,
,,,,,,,,,,,,,,,,,,,,,,,,,,,,,,,,35.520364278694615,35.520364278694615,35.520364278694615,space,0.4126908837351948,,,,,,,,,,,,,,,,,,,,,,,,,,,,,,,,,,,,,,,,,,,,,,,,,,,,,,,,,,,,,,,,,,,,,,,,,,,,,580,2023-05-17_10h34.48.207,eb_02psyexp,2022.2.4,60.007136460675696,
,,,,,,,,,,,,,,,,,,,,,,,,,,,,,,,,,,,,,35.953661954030395,35.953661954030395,35.953661954030395,1,[12.915149844950065],[12.915154070709832],0,,,48.86902973114047,50.852517599007115,50.852517599007115,space,1.2796369782881811,,,,,,,,,,,,,,,,,,,,,,,,,,,,,,,,,,,,,,,,,,,,,,,,,,,,,,,,,,,,,,,580,2023-05-17_10h34.48.207,eb_02psyexp,2022.2.4,60.007136460675696,
,,,,,,,,,,,,,,,,,,,,,,,,,,,,,,,,,,,,,,,,,,,,,,,,,,,52.152426321059465,55.13554382510483,55.13554382510483,space,1.0206318838754669,,,,,,,,,,,,,,,,,,,,,,,,,,,,,,,,,,,,,,,,,,,,,,,,,,,,,,,,,,580,2023-05-17_10h34.48.207,eb_02psyexp,2022.2.4,60.007136460675696,
,,,,,,,,,,,,,,,,,,,,,,,,,,,,,,,,,,,,,,,,,,,,,,,,,,,,,,,,56.185440322500654,59.168561146827415,59.168561146827415,space,1.051607827306725,,,,,,,,,,,,,,,,,,,,,,,,,,,,,,,,,,,,,,,,,,,,,,,,,,,,,580,2023-05-17_10h34.48.207,eb_02psyexp,2022.2.4,60.007136460675696,
0,0,0,0,,,,,,,,,,,,,,,,,,,,,,,,,,,,,,,,,,,,,,,,,,,,,,,,,,,,,,,,,,60.26845495775342,65.30141824914608,65.30141824914608,65.30141824914608,65.30141824914608,65.30141824914608,65.30141824914608,s,1,1.0617953998735175,66.38464145932812,67.4012685943162,,,,,,,,,,,,,,,,,,,,,,,,,,,,,,,,,,,,,,,,,580,2023-05-17_10h34.48.207,eb_02psyexp,2022.2.4,60.007136460675696,
1,0,1,0,,,,,,,,,,,,,,,,,,,,,,,,,,,,,,,,,,,,,,,,,,,,,,,,,,,,,,,,,,,67.4012685943162,67.4012685943162,67.4012685943162,67.4012685943162,67.4012685943162,67.4012685943162,l,1,0.698000869480893,68.11786445823964,69.13445808843244,,,,,,,,,,,,,,,,,,,,,,,,,,,,,,,,,,,,,,,,,580,2023-05-17_10h34.48.207,eb_02psyexp,2022.2.4,60.007136460675696,
2,0,2,0,,,,,,,,,,,,,,,,,,,,,,,,,,,,,,,,,,,,,,,,,,,,,,,,,,,,,,,,,,,69.13445808843244,69.13445808843244,69.13445808843244,69.13445808843244,69.13445808843244,69.13445808843244,l,1,1.812800996704027,70.96763134328648,71.98425727093127,,,,,,,,,,,,,,,,,,,,,,,,,,,,,,,,,,,,,,,,,580,2023-05-17_10h34.48.207,eb_02psyexp,2022.2.4,60.007136460675696,
3,0,3,0,,,,,,,,,,,,,,,,,,,,,,,,,,,,,,,,,,,,,,,,,,,,,,,,,,,,,,,,,,,71.98425727093127,71.98425727093127,71.98425727093127,71.98425727093127,71.98425727093127,71.98425727093127,l,1,0.682992831338197,72.68392023071647,73.70079216209706,,,,,,,,,,,,,,,,,,,,,,,,,,,,,,,,,,,,,,,,,580,2023-05-17_10h34.48.207,eb_02psyexp,2022.2.4,60.007136460675696,
4,0,4,0,,,,,,,,,,,,,,,,,,,,,,,,,,,,,,,,,,,,,,,,,,,,,,,,,,,,,,,,,,,73.70079216209706,73.70079216209706,73.70079216209706,73.70079216209706,73.70079216209706,73.70079216209706,s,1,0.7504669738700613,74.48403994250111,75.5172920996556,,,,,,,,,,,,,,,,,,,,,,,,,,,,,,,,,,,,,,,,,580,2023-05-17_10h34.48.207,eb_02psyexp,2022.2.4,60.007136460675696,
5,0,5,0,,,,,,,,,,,,,,,,,,,,,,,,,,,,,,,,,,,,,,,,,,,,,,,,,,,,,,,,,,,75.5172920996556,75.5172920996556,75.5172920996556,75.5172920996556,75.5172920996556,75.5172920996556,s,1,0.6779942770954221,76.21727018570527,77.2338674380444,,,,,,,,,,,,,,,,,,,,,,,,,,,,,,,,,,,,,,,,,580,2023-05-17_10h34.48.207,eb_02psyexp,2022.2.4,60.007136460675696,
6,0,6,0,,,,,,,,,,,,,,,,,,,,,,,,,,,,,,,,,,,,,,,,,,,,,,,,,,,,,,,,,,,77.2338674380444,77.2338674380444,77.2338674380444,77.2338674380444,77.2338674380444,77.2338674380444,l,1,0.6093972711823881,77.86712176841684,78.88373169838451,,,,,,,,,,,,,,,,,,,,,,,,,,,,,,,,,,,,,,,,,580,2023-05-17_10h34.48.207,eb_02psyexp,2022.2.4,60.007136460675696,
7,0,7,0,,,,,,,,,,,,,,,,,,,,,,,,,,,,,,,,,,,,,,,,,,,,,,,,,,,,,,,,,,,78.88373169838451,78.88373169838451,78.88373169838451,78.88373169838451,78.88373169838451,78.88373169838451,l,1,0.8385562280891463,79.75031105126254,80.76691011467483,,,,,,,,,,,,,,,,,,,,,,,,,,,,,,,,,,,,,,,,,580,2023-05-17_10h34.48.207,eb_02psyexp,2022.2.4,60.007136460675696,
8,0,8,0,,,,,,,,,,,,,,,,,,,,,,,,,,,,,,,,,,,,,,,,,,,,,,,,,,,,,,,,,,,80.76691011467483,80.76691011467483,80.76691011467483,80.76691011467483,80.76691011467483,80.76691011467483,s,1,0.8274072790518403,81.61683335551061,82.63342849502806,,,,,,,,,,,,,,,,,,,,,,,,,,,,,,,,,,,,,,,,,580,2023-05-17_10h34.48.207,eb_02psyexp,2022.2.4,60.007136460675696,
9,0,9,0,,,,,,,,,,,,,,,,,,,,,,,,,,,,,,,,,,,,,,,,,,,,,,,,,,,,,,,,,,,82.63342849502806,82.63342849502806,82.63342849502806,82.63342849502806,82.63342849502806,82.63342849502806,l,1,0.7208891764748842,83.38336374924984,84.39998182887211,,,,,,,,,,,,,,,,,,,,,,,,,,,,,,,,,,,,,,,,,580,2023-05-17_10h34.48.207,eb_02psyexp,2022.2.4,60.007136460675696,
10,0,10,0,,,,,,,,,,,,,,,,,,,,,,,,,,,,,,,,,,,,,,,,,,,,,,,,,,,,,,,,,,,84.39998182887211,84.39998182887211,84.39998182887211,84.39998182887211,84.39998182887211,84.39998182887211,l,1,0.8504012319026515,85.28323027328588,86.2998127352912,,,,,,,,,,,,,,,,,,,,,,,,,,,,,,,,,,,,,,,,,580,2023-05-17_10h34.48.207,eb_02psyexp,2022.2.4,60.007136460675696,
11,0,11,0,,,,,,,,,,,,,,,,,,,,,,,,,,,,,,,,,,,,,,,,,,,,,,,,,,,,,,,,,,,86.2998127352912,86.2998127352912,86.2998127352912,86.2998127352912,86.2998127352912,86.2998127352912,l,1,0.9345453714486212,87.26639577071182,88.28299423051067,,,,,,,,,,,,,,,,,,,,,,,,,,,,,,,,,,,,,,,,,580,2023-05-17_10h34.48.207,eb_02psyexp,2022.2.4,60.007136460675696,
12,0,12,0,,,,,,,,,,,,,,,,,,,,,,,,,,,,,,,,,,,,,,,,,,,,,,,,,,,,,,,,,,,88.28299423051067,88.28299423051067,88.28299423051067,88.28299423051067,88.28299423051067,88.28299423051067,s,1,1.1033567477716133,89.41623769444413,90.43252676306292,,,,,,,,,,,,,,,,,,,,,,,,,,,,,,,,,,,,,,,,,580,2023-05-17_10h34.48.207,eb_02psyexp,2022.2.4,60.007136460675696,
13,0,13,0,,,,,,,,,,,,,,,,,,,,,,,,,,,,,,,,,,,,,,,,,,,,,,,,,,,,,,,,,,,90.43252676306292,90.43252676306292,90.43252676306292,90.43252676306292,90.43252676306292,90.43252676306292,s,1,1.6098243818851188,92.06604822631925,93.08262827352155,,,,,,,,,,,,,,,,,,,,,,,,,,,,,,,,,,,,,,,,,580,2023-05-17_10h34.48.207,eb_02psyexp,2022.2.4,60.007136460675696,
14,0,14,0,,,,,,,,,,,,,,,,,,,,,,,,,,,,,,,,,,,,,,,,,,,,,,,,,,,,,,,,,,,93.08262827352155,93.08262827352155,93.08262827352155,93.08262827352155,93.08262827352155,93.08262827352155,l,1,1.1837549901101738,94.2991526001133,95.31580720306374,,,,,,,,,,,,,,,,,,,,,,,,,,,,,,,,,,,,,,,,,580,2023-05-17_10h34.48.207,eb_02psyexp,2022.2.4,60.007136460675696,
15,0,15,0,,,,,,,,,,,,,,,,,,,,,,,,,,,,,,,,,,,,,,,,,,,,,,,,,,,,,,,,,,,95.31580720306374,95.31580720306374,95.31580720306374,95.31580720306374,95.31580720306374,95.31580720306374,l,1,1.0215944678056985,96.36570671887603,97.38232540222816,,,,,,,,,,,,,,,,,,,,,,,,,,,,,,,,,,,,,,,,,580,2023-05-17_10h34.48.207,eb_02psyexp,2022.2.4,60.007136460675696,
16,0,16,0,,,,,,,,,,,,,,,,,,,,,,,,,,,,,,,,,,,,,,,,,,,,,,,,,,,,,,,,,,,97.38232540222816,97.38232540222816,97.38232540222816,97.38232540222816,97.38232540222816,97.38232540222816,s,1,0.8030743416165933,98.21557924966328,99.23216382449027,,,,,,,,,,,,,,,,,,,,,,,,,,,,,,,,,,,,,,,,,580,2023-05-17_10h34.48.207,eb_02psyexp,2022.2.4,60.007136460675696,
17,0,17,0,,,,,,,,,,,,,,,,,,,,,,,,,,,,,,,,,,,,,,,,,,,,,,,,,,,,,,,,,,,99.23216382449027,99.23216382449027,99.23216382449027,99.23216382449027,99.23216382449027,99.23216382449027,s,1,0.9212472855579108,100.18208410730585,101.19868105778005,,,,,,,,,,,,,,,,,,,,,,,,,,,,,,,,,,,,,,,,,580,2023-05-17_10h34.48.207,eb_02psyexp,2022.2.4,60.007136460675696,
18,0,18,0,,,,,,,,,,,,,,,,,,,,,,,,,,,,,,,,,,,,,,,,,,,,,,,,,,,,,,,,,,,101.19868105778005,101.19868105778005,101.19868105778005,101.19868105778005,101.19868105778005,101.19868105778005,l,1,1.0667281518690288,102.28192358603701,103.29850967018865,,,,,,,,,,,,,,,,,,,,,,,,,,,,,,,,,,,,,,,,,580,2023-05-17_10h34.48.207,eb_02psyexp,2022.2.4,60.007136460675696,
19,0,19,0,,,,,,,,,,,,,,,,,,,,,,,,,,,,,,,,,,,,,,,,,,,,,,,,,,,,,,,,,,,103.29850967018865,103.29850967018865,103.29850967018865,103.29850967018865,103.29850967018865,103.29850967018865,l,1,0.6469477018108591,103.9651263311971,104.98172147059813,,,,,,,,,,,,,,,,,,,,,,,,,,,,,,,,,,,,,,,,,580,2023-05-17_10h34.48.207,eb_02psyexp,2022.2.4,60.007136460675696,
20,0,20,0,,,,,,,,,,,,,,,,,,,,,,,,,,,,,,,,,,,,,,,,,,,,,,,,,,,,,,,,,,,104.98172147059813,104.98172147059813,104.98172147059813,104.98172147059813,104.98172147059813,104.98172147059813,l,1,0.8117276357952505,105.81499463610817,106.83160486782435,,,,,,,,,,,,,,,,,,,,,,,,,,,,,,,,,,,,,,,,,580,2023-05-17_10h34.48.207,eb_02psyexp,2022.2.4,60.007136460675696,
21,0,21,0,,,,,,,,,,,,,,,,,,,,,,,,,,,,,,,,,,,,,,,,,,,,,,,,,,,,,,,,,,,106.83160486782435,106.83160486782435,106.83160486782435,106.83160486782435,106.83160486782435,106.83160486782435,l,1,0.6738405872602016,107.53152379230596,108.54811530956067,,,,,,,,,,,,,,,,,,,,,,,,,,,,,,,,,,,,,,,,,580,2023-05-17_10h34.48.207,eb_02psyexp,2022.2.4,60.007136460675696,
22,0,22,0,,,,,,,,,,,,,,,,,,,,,,,,,,,,,,,,,,,,,,,,,,,,,,,,,,,,,,,,,,,108.54811530956067,108.54811530956067,108.54811530956067,108.54811530956067,108.54811530956067,108.54811530956067,s,1,0.6523821202572435,109.2314140413655,110.24799771071412,,,,,,,,,,,,,,,,,,,,,,,,,,,,,,,,,,,,,,,,,580,2023-05-17_10h34.48.207,eb_02psyexp,2022.2.4,60.007136460675696,
23,0,23,0,,,,,,,,,,,,,,,,,,,,,,,,,,,,,,,,,,,,,,,,,,,,,,,,,,,,,,,,,,,110.24799771071412,110.24799771071412,110.24799771071412,110.24799771071412,110.24799771071412,110.24799771071412,l,1,0.6324796646367759,110.89791358658113,111.91452351643238,,,,,,,,,,,,,,,,,,,,,,,,,,,,,,,,,,,,,,,,,580,2023-05-17_10h34.48.207,eb_02psyexp,2022.2.4,60.007136460675696,
24,0,24,0,,,,,,,,,,,,,,,,,,,,,,,,,,,,,,,,,,,,,,,,,,,,,,,,,,,,,,,,,,,111.91452351643238,111.91452351643238,111.91452351643238,111.91452351643238,111.91452351643238,111.91452351643238,l,1,0.8779482156969607,112.81445282429922,113.8310696965782,,,,,,,,,,,,,,,,,,,,,,,,,,,,,,,,,,,,,,,,,580,2023-05-17_10h34.48.207,eb_02psyexp,2022.2.4,60.007136460675696,
25,0,25,0,,,,,,,,,,,,,,,,,,,,,,,,,,,,,,,,,,,,,,,,,,,,,,,,,,,,,,,,,,,113.8310696965782,113.8310696965782,113.8310696965782,113.8310696965782,113.8310696965782,113.8310696965782,s,1,0.8014163066400215,114.66432203480508,115.680901176529,,,,,,,,,,,,,,,,,,,,,,,,,,,,,,,,,,,,,,,,,580,2023-05-17_10h34.48.207,eb_02psyexp,2022.2.4,60.007136460675696,
26,0,26,0,,,,,,,,,,,,,,,,,,,,,,,,,,,,,,,,,,,,,,,,,,,,,,,,,,,,,,,,,,,115.680901176529,115.680901176529,115.680901176529,115.680901176529,115.680901176529,115.680901176529,l,1,2.455620193388313,118.16403769678436,119.18064370262437,,,,,,,,,,,,,,,,,,,,,,,,,,,,,,,,,,,,,,,,,580,2023-05-17_10h34.48.207,eb_02psyexp,2022.2.4,60.007136460675696,
27,0,27,0,,,,,,,,,,,,,,,,,,,,,,,,,,,,,,,,,,,,,,,,,,,,,,,,,,,,,,,,,,,119.18064370262437,119.18064370262437,119.18064370262437,119.18064370262437,119.18064370262437,119.18064370262437,l,1,0.6038716954644769,119.8139203696046,120.83051218872424,,,,,,,,,,,,,,,,,,,,,,,,,,,,,,,,,,,,,,,,,580,2023-05-17_10h34.48.207,eb_02psyexp,2022.2.4,60.007136460675696,
28,0,28,0,,,,,,,,,,,,,,,,,,,,,,,,,,,,,,,,,,,,,,,,,,,,,,,,,,,,,,,,,,,120.83051218872424,120.83051218872424,120.83051218872424,120.83051218872424,120.83051218872424,120.83051218872424,l,1,0.9060294651426375,121.76376820949372,122.78038659098092,,,,,,,,,,,,,,,,,,,,,,,,,,,,,,,,,,,,,,,,,580,2023-05-17_10h34.48.207,eb_02psyexp,2022.2.4,60.007136460675696,
29,0,29,0,,,,,,,,,,,,,,,,,,,,,,,,,,,,,,,,,,,,,,,,,,,,,,,,,,,,,,,,,,,122.78038659098092,122.78038659098092,122.78038659098092,122.78038659098092,122.78038659098092,122.78038659098092,s,1,0.9961682474240661,123.79695909214206,124.83021547505632,,,,,,,,,,,,,,,,,,,,,,,,,,,,,,,,,,,,,,,,,580,2023-05-17_10h34.48.207,eb_02psyexp,2022.2.4,60.007136460675696,
30,0,30,0,,,,,,,,,,,,,,,,,,,,,,,,,,,,,,,,,,,,,,,,,,,,,,,,,,,,,,,,,,,124.83021547505632,124.83021547505632,124.83021547505632,124.83021547505632,124.83021547505632,124.83021547505632,s,1,1.6733401282690465,126.53006708808243,127.54666735883802,,,,,,,,,,,,,,,,,,,,,,,,,,,,,,,,,,,,,,,,,580,2023-05-17_10h34.48.207,eb_02psyexp,2022.2.4,60.007136460675696,
31,0,31,0,,,,,,,,,,,,,,,,,,,,,,,,,,,,,,,,,,,,,,,,,,,,,,,,,,,,,,,,,,,127.54666735883802,127.54666735883802,127.54666735883802,127.54666735883802,127.54666735883802,127.54666735883802,s,1,0.7649150893557817,128.32994592748582,129.36319416062906,,,,,,,,,,,,,,,,,,,,,,,,,,,,,,,,,,,,,,,,,580,2023-05-17_10h34.48.207,eb_02psyexp,2022.2.4,60.007136460675696,
32,0,32,0,,,,,,,,,,,,,,,,,,,,,,,,,,,,,,,,,,,,,,,,,,,,,,,,,,,,,,,,,,,129.36319416062906,129.36319416062906,129.36319416062906,129.36319416062906,129.36319416062906,129.36319416062906,s,1,0.8203833446605131,130.21312675857916,131.22974121605512,,,,,,,,,,,,,,,,,,,,,,,,,,,,,,,,,,,,,,,,,580,2023-05-17_10h34.48.207,eb_02psyexp,2022.2.4,60.007136460675696,
33,0,33,0,,,,,,,,,,,,,,,,,,,,,,,,,,,,,,,,,,,,,,,,,,,,,,,,,,,,,,,,,,,131.22974121605512,131.22974121605512,131.22974121605512,131.22974121605512,131.22974121605512,131.22974121605512,l,1,0.7618552859639749,132.01299171312712,133.0462414554786,,,,,,,,,,,,,,,,,,,,,,,,,,,,,,,,,,,,,,,,,580,2023-05-17_10h34.48.207,eb_02psyexp,2022.2.4,60.007136460675696,
34,0,34,0,,,,,,,,,,,,,,,,,,,,,,,,,,,,,,,,,,,,,,,,,,,,,,,,,,,,,,,,,,,133.0462414554786,133.0462414554786,133.0462414554786,133.0462414554786,133.0462414554786,133.0462414554786,s,1,3.7933730414370075,136.86261824017856,137.87921941652894,,,,,,,,,,,,,,,,,,,,,,,,,,,,,,,,,,,,,,,,,580,2023-05-17_10h34.48.207,eb_02psyexp,2022.2.4,60.007136460675696,
35,0,35,0,,,,,,,,,,,,,,,,,,,,,,,,,,,,,,,,,,,,,,,,,,,,,,,,,,,,,,,,,,,137.87921941652894,137.87921941652894,137.87921941652894,137.87921941652894,137.87921941652894,137.87921941652894,l,1,1.9764281841926277,139.87904012063518,140.89567178324796,,,,,,,,,,,,,,,,,,,,,,,,,,,,,,,,,,,,,,,,,580,2023-05-17_10h34.48.207,eb_02psyexp,2022.2.4,60.007136460675696,
36,0,36,0,,,,,,,,,,,,,,,,,,,,,,,,,,,,,,,,,,,,,,,,,,,,,,,,,,,,,,,,,,,140.89567178324796,140.89567178324796,140.89567178324796,140.89567178324796,140.89567178324796,140.89567178324796,l,1,0.7990166385425255,141.71224205067847,142.7288685820531,,,,,,,,,,,,,,,,,,,,,,,,,,,,,,,,,,,,,,,,,580,2023-05-17_10h34.48.207,eb_02psyexp,2022.2.4,60.007136460675696,
37,0,37,0,,,,,,,,,,,,,,,,,,,,,,,,,,,,,,,,,,,,,,,,,,,,,,,,,,,,,,,,,,,142.7288685820531,142.7288685820531,142.7288685820531,142.7288685820531,142.7288685820531,142.7288685820531,l,1,0.7018014006316662,143.46208765695337,144.47839543991722,,,,,,,,,,,,,,,,,,,,,,,,,,,,,,,,,,,,,,,,,580,2023-05-17_10h34.48.207,eb_02psyexp,2022.2.4,60.007136460675696,
38,0,38,0,,,,,,,,,,,,,,,,,,,,,,,,,,,,,,,,,,,,,,,,,,,,,,,,,,,,,,,,,,,144.47839543991722,144.47839543991722,144.47839543991722,144.47839543991722,144.47839543991722,144.47839543991722,s,1,0.6722891037352383,145.17865273263305,146.1952702086419,,,,,,,,,,,,,,,,,,,,,,,,,,,,,,,,,,,,,,,,,580,2023-05-17_10h34.48.207,eb_02psyexp,2022.2.4,60.007136460675696,
39,0,39,0,,,,,,,,,,,,,,,,,,,,,,,,,,,,,,,,,,,,,,,,,,,,,,,,,,,,,,,,,,,146.1952702086419,146.1952702086419,146.1952702086419,146.1952702086419,146.1952702086419,146.1952702086419,l,1,1.523404632578604,147.745106035145,148.76173407561146,,,,,,,,,,,,,,,,,,,,,,,,,,,,,,,,,,,,,,,,,580,2023-05-17_10h34.48.207,eb_02psyexp,2022.2.4,60.007136460675696,
40,0,40,0,,,,,,,,,,,,,,,,,,,,,,,,,,,,,,,,,,,,,,,,,,,,,,,,,,,,,,,,,,,148.76173407561146,148.76173407561146,148.76173407561146,148.76173407561146,148.76173407561146,148.76173407561146,s,1,0.8529578595189378,149.64498161454685,150.66155049344525,,,,,,,,,,,,,,,,,,,,,,,,,,,,,,,,,,,,,,,,,580,2023-05-17_10h34.48.207,eb_02psyexp,2022.2.4,60.007136460675696,
41,0,41,0,,,,,,,,,,,,,,,,,,,,,,,,,,,,,,,,,,,,,,,,,,,,,,,,,,,,,,,,,,,150.66155049344525,150.66155049344525,150.66155049344525,150.66155049344525,150.66155049344525,150.66155049344525,s,1,3.393150340183638,154.07796989870258,155.09457348985597,,,,,,,,,,,,,,,,,,,,,,,,,,,,,,,,,,,,,,,,,580,2023-05-17_10h34.48.207,eb_02psyexp,2022.2.4,60.007136460675696,
42,0,42,0,,,,,,,,,,,,,,,,,,,,,,,,,,,,,,,,,,,,,,,,,,,,,,,,,,,,,,,,,,,155.09457348985597,155.09457348985597,155.09457348985597,155.09457348985597,155.09457348985597,155.09457348985597,s,1,0.63216333091259,155.74451049475465,156.77777864970267,,,,,,,,,,,,,,,,,,,,,,,,,,,,,,,,,,,,,,,,,580,2023-05-17_10h34.48.207,eb_02psyexp,2022.2.4,60.007136460675696,
43,0,43,0,,,,,,,,,,,,,,,,,,,,,,,,,,,,,,,,,,,,,,,,,,,,,,,,,,,,,,,,,,,156.77777864970267,156.77777864970267,156.77777864970267,156.77777864970267,156.77777864970267,156.77777864970267,s,1,0.8039364110445604,157.61104457103647,158.62762673106045,,,,,,,,,,,,,,,,,,,,,,,,,,,,,,,,,,,,,,,,,580,2023-05-17_10h34.48.207,eb_02psyexp,2022.2.4,60.007136460675696,
44,0,44,0,,,,,,,,,,,,,,,,,,,,,,,,,,,,,,,,,,,,,,,,,,,,,,,,,,,,,,,,,,,158.62762673106045,158.62762673106045,158.62762673106045,158.62762673106045,158.62762673106045,158.62762673106045,l,1,0.7220896142534912,159.3775592687307,160.39383807452396,,,,,,,,,,,,,,,,,,,,,,,,,,,,,,,,,,,,,,,,,580,2023-05-17_10h34.48.207,eb_02psyexp,2022.2.4,60.007136460675696,
45,0,45,0,,,,,,,,,,,,,,,,,,,,,,,,,,,,,,,,,,,,,,,,,,,,,,,,,,,,,,,,,,,160.39383807452396,160.39383807452396,160.39383807452396,160.39383807452396,160.39383807452396,160.39383807452396,s,1,0.9159326996887103,161.32742672855966,162.34403273439966,,,,,,,,,,,,,,,,,,,,,,,,,,,,,,,,,,,,,,,,,580,2023-05-17_10h34.48.207,eb_02psyexp,2022.2.4,60.007136460675696,
46,0,46,0,,,,,,,,,,,,,,,,,,,,,,,,,,,,,,,,,,,,,,,,,,,,,,,,,,,,,,,,,,,162.34403273439966,162.34403273439966,162.34403273439966,162.34403273439966,162.34403273439966,162.34403273439966,s,1,0.709734492469579,163.07728320127353,164.0938910181867,,,,,,,,,,,,,,,,,,,,,,,,,,,,,,,,,,,,,,,,,580,2023-05-17_10h34.48.207,eb_02psyexp,2022.2.4,60.007136460675696,
47,0,47,0,,,,,,,,,,,,,,,,,,,,,,,,,,,,,,,,,,,,,,,,,,,,,,,,,,,,,,,,,,,164.0938910181867,164.0938910181867,164.0938910181867,164.0938910181867,164.0938910181867,164.0938910181867,s,1,2.7838990305317566,166.91032605897635,167.94358244200703,,,,,,,,,,,,,,,,,,,,,,,,,,,,,,,,,,,,,,,,,580,2023-05-17_10h34.48.207,eb_02psyexp,2022.2.4,60.007136460675696,
48,0,48,0,,,,,,,,,,,,,,,,,,,,,,,,,,,,,,,,,,,,,,,,,,,,,,,,,,,,,,,,,,,167.94358244200703,167.94358244200703,167.94358244200703,167.94358244200703,167.94358244200703,167.94358244200703,s,1,2.7662429057527333,170.72669710870832,171.74331096257083,,,,,,,,,,,,,,,,,,,,,,,,,,,,,,,,,,,,,,,,,580,2023-05-17_10h34.48.207,eb_02psyexp,2022.2.4,60.007136460675696,
49,0,49,0,,,,,,,,,,,,,,,,,,,,,,,,,,,,,,,,,,,,,,,,,,,,,,,,,,,,,,,,,,,171.74331096257083,171.74331096257083,171.74331096257083,171.74331096257083,171.74331096257083,171.74331096257083,l,1,1.8775383100146428,173.64315273531247,174.65973549918272,,,,,,,,,,,,,,,,,,,,,,,,,,,,,,,,,,,,,,,,,580,2023-05-17_10h34.48.207,eb_02psyexp,2022.2.4,60.007136460675696,
50,0,50,0,,,,,,,,,,,,,,,,,,,,,,,,,,,,,,,,,,,,,,,,,,,,,,,,,,,,,,,,,,,174.65973549918272,174.65973549918272,174.65973549918272,174.65973549918272,174.65973549918272,174.65973549918272,l,1,1.3851197523763403,176.07628318853676,177.09287349844817,,,,,,,,,,,,,,,,,,,,,,,,,,,,,,,,,,,,,,,,,580,2023-05-17_10h34.48.207,eb_02psyexp,2022.2.4,60.007136460675696,
51,0,51,0,,,,,,,,,,,,,,,,,,,,,,,,,,,,,,,,,,,,,,,,,,,,,,,,,,,,,,,,,,,177.09287349844817,177.09287349844817,177.09287349844817,177.09287349844817,177.09287349844817,177.09287349844817,l,1,0.8239888838725165,177.94281666108873,178.97606700717006,,,,,,,,,,,,,,,,,,,,,,,,,,,,,,,,,,,,,,,,,580,2023-05-17_10h34.48.207,eb_02psyexp,2022.2.4,60.007136460675696,
52,0,52,0,,,,,,,,,,,,,,,,,,,,,,,,,,,,,,,,,,,,,,,,,,,,,,,,,,,,,,,,,,,178.97606700717006,178.97606700717006,178.97606700717006,178.97606700717006,178.97606700717006,178.97606700717006,s,1,0.7488059203606099,179.7426785971038,180.75928913068492,,,,,,,,,,,,,,,,,,,,,,,,,,,,,,,,,,,,,,,,,580,2023-05-17_10h34.48.207,eb_02psyexp,2022.2.4,60.007136460675696,
53,0,53,0,,,,,,,,,,,,,,,,,,,,,,,,,,,,,,,,,,,,,,,,,,,,,,,,,,,,,,,,,,,180.75928913068492,180.75928913068492,180.75928913068492,180.75928913068492,180.75928913068492,180.75928913068492,s,1,0.8616238312097266,181.6425466304645,182.6757912414614,,,,,,,,,,,,,,,,,,,,,,,,,,,,,,,,,,,,,,,,,580,2023-05-17_10h34.48.207,eb_02psyexp,2022.2.4,60.007136460675696,
54,0,54,0,,,,,,,,,,,,,,,,,,,,,,,,,,,,,,,,,,,,,,,,,,,,,,,,,,,,,,,,,,,182.6757912414614,182.6757912414614,182.6757912414614,182.6757912414614,182.6757912414614,182.6757912414614,s,1,0.9530913354828954,183.65904004813638,184.67532700381707,,,,,,,,,,,,,,,,,,,,,,,,,,,,,,,,,,,,,,,,,580,2023-05-17_10h34.48.207,eb_02psyexp,2022.2.4,60.007136460675696,
55,0,55,0,,,,,,,,,,,,,,,,,,,,,,,,,,,,,,,,,,,,,,,,,,,,,,,,,,,,,,,,,,,184.67532700381707,184.67532700381707,184.67532700381707,184.67532700381707,184.67532700381707,184.67532700381707,s,1,0.8655970176914707,185.5589005353395,186.5921617478598,,,,,,,,,,,,,,,,,,,,,,,,,,,,,,,,,,,,,,,,,580,2023-05-17_10h34.48.207,eb_02psyexp,2022.2.4,60.007136460675696,
56,0,56,0,,,,,,,,,,,,,,,,,,,,,,,,,,,,,,,,,,,,,,,,,,,,,,,,,,,,,,,,,,,186.5921617478598,186.5921617478598,186.5921617478598,186.5921617478598,186.5921617478598,186.5921617478598,s,1,0.6527265254408121,187.27544840588234,188.29205290251411,,,,,,,,,,,,,,,,,,,,,,,,,,,,,,,,,,,,,,,,,580,2023-05-17_10h34.48.207,eb_02psyexp,2022.2.4,60.007136460675696,
57,0,57,0,,,,,,,,,,,,,,,,,,,,,,,,,,,,,,,,,,,,,,,,,,,,,,,,,,,,,,,,,,,188.29205290251411,188.29205290251411,188.29205290251411,188.29205290251411,188.29205290251411,188.29205290251411,l,1,1.3678590445779264,189.6916468605632,190.70851818821393,,,,,,,,,,,,,,,,,,,,,,,,,,,,,,,,,,,,,,,,,580,2023-05-17_10h34.48.207,eb_02psyexp,2022.2.4,60.007136460675696,
58,0,58,0,,,,,,,,,,,,,,,,,,,,,,,,,,,,,,,,,,,,,,,,,,,,,,,,,,,,,,,,,,,190.70851818821393,190.70851818821393,190.70851818821393,190.70851818821393,190.70851818821393,190.70851818821393,l,1,1.615421796683222,192.3417175828945,193.35831755178515,,,,,,,,,,,,,,,,,,,,,,,,,,,,,,,,,,,,,,,,,580,2023-05-17_10h34.48.207,eb_02psyexp,2022.2.4,60.007136460675696,
59,0,59,0,,,,,,,,,,,,,,,,,,,,,,,,,,,,,,,,,,,,,,,,,,,,,,,,,,,,,,,,,,,193.35831755178515,193.35831755178515,193.35831755178515,193.35831755178515,193.35831755178515,193.35831755178515,l,1,0.965656541637145,194.34156545298174,195.3581608942477,,,,,,,,,,,,,,,,,,,,,,,,,,,,,,,,,,,,,,,,,580,2023-05-17_10h34.48.207,eb_02psyexp,2022.2.4,60.007136460675696,
60,0,60,0,,,,,,,,,,,,,,,,,,,,,,,,,,,,,,,,,,,,,,,,,,,,,,,,,,,,,,,,,,,195.3581608942477,195.3581608942477,195.3581608942477,195.3581608942477,195.3581608942477,195.3581608942477,s,1,0.6618039119057357,196.04143819503952,197.0580426916713,,,,,,,,,,,,,,,,,,,,,,,,,,,,,,,,,,,,,,,,,580,2023-05-17_10h34.48.207,eb_02psyexp,2022.2.4,60.007136460675696,
61,0,61,0,,,,,,,,,,,,,,,,,,,,,,,,,,,,,,,,,,,,,,,,,,,,,,,,,,,,,,,,,,,197.0580426916713,197.0580426916713,197.0580426916713,197.0580426916713,197.0580426916713,197.0580426916713,l,1,1.8979234161088243,198.97454450069927,200.00780209095683,,,,,,,,,,,,,,,,,,,,,,,,,,,,,,,,,,,,,,,,,580,2023-05-17_10h34.48.207,eb_02psyexp,2022.2.4,60.007136460675696,
62,0,62,0,,,,,,,,,,,,,,,,,,,,,,,,,,,,,,,,,,,,,,,,,,,,,,,,,,,,,,,,,,,200.00780209095683,200.00780209095683,200.00780209095683,200.00780209095683,200.00780209095683,200.00780209095683,s,1,2.348178746760823,202.3742827406386,203.3905890143942,,,,,,,,,,,,,,,,,,,,,,,,,,,,,,,,,,,,,,,,,580,2023-05-17_10h34.48.207,eb_02psyexp,2022.2.4,60.007136460675696,
63,0,63,0,,,,,,,,,,,,,,,,,,,,,,,,,,,,,,,,,,,,,,,,,,,,,,,,,,,,,,,,,,,203.3905890143942,203.3905890143942,203.3905890143942,203.3905890143942,203.3905890143942,203.3905890143942,s,1,1.0204426269046962,204.44079218630213,205.47405158763286,,,,,,,,,,,,,,,,,,,,,,,,,,,,,,,,,,,,,,,,,580,2023-05-17_10h34.48.207,eb_02psyexp,2022.2.4,60.007136460675696,
64,0,64,0,,,,,,,,,,,,,,,,,,,,,,,,,,,,,,,,,,,,,,,,,,,,,,,,,,,,,,,,,,,205.47405158763286,205.47405158763286,205.47405158763286,205.47405158763286,205.47405158763286,205.47405158763286,s,1,1.0329616507515311,206.52397494926117,207.54027096019126,,,,,,,,,,,,,,,,,,,,,,,,,,,,,,,,,,,,,,,,,580,2023-05-17_10h34.48.207,eb_02psyexp,2022.2.4,60.007136460675696,
65,0,65,0,,,,,,,,,,,,,,,,,,,,,,,,,,,,,,,,,,,,,,,,,,,,,,,,,,,,,,,,,,,207.54027096019126,207.54027096019126,207.54027096019126,207.54027096019126,207.54027096019126,207.54027096019126,s,1,1.0467647233745083,208.6071408088319,209.64041469886433,,,,,,,,,,,,,,,,,,,,,,,,,,,,,,,,,,,,,,,,,580,2023-05-17_10h34.48.207,eb_02psyexp,2022.2.4,60.007136460675696,
66,0,66,0,,,,,,,,,,,,,,,,,,,,,,,,,,,,,,,,,,,,,,,,,,,,,,,,,,,,,,,,,,,209.64041469886433,209.64041469886433,209.64041469886433,209.64041469886433,209.64041469886433,209.64041469886433,s,1,0.6266286999452859,210.29034747800324,211.30696736869868,,,,,,,,,,,,,,,,,,,,,,,,,,,,,,,,,,,,,,,,,580,2023-05-17_10h34.48.207,eb_02psyexp,2022.2.4,60.007136460675696,
67,0,67,0,,,,,,,,,,,,,,,,,,,,,,,,,,,,,,,,,,,,,,,,,,,,,,,,,,,,,,,,,,,211.30696736869868,211.30696736869868,211.30696736869868,211.30696736869868,211.30696736869868,211.30696736869868,s,1,0.6240720723289996,211.9568856592523,212.97346389538143,,,,,,,,,,,,,,,,,,,,,,,,,,,,,,,,,,,,,,,,,580,2023-05-17_10h34.48.207,eb_02psyexp,2022.2.4,60.007136460675696,
68,0,68,0,,,,,,,,,,,,,,,,,,,,,,,,,,,,,,,,,,,,,,,,,,,,,,,,,,,,,,,,,,,212.97346389538143,212.97346389538143,212.97346389538143,212.97346389538143,212.97346389538143,212.97346389538143,l,1,1.069590246770531,214.07339392765425,215.09002106264234,,,,,,,,,,,,,,,,,,,,,,,,,,,,,,,,,,,,,,,,,580,2023-05-17_10h34.48.207,eb_02psyexp,2022.2.4,60.007136460675696,
69,0,69,0,,,,,,,,,,,,,,,,,,,,,,,,,,,,,,,,,,,,,,,,,,,,,,,,,,,,,,,,,,,215.09002106264234,215.09002106264234,215.09002106264234,215.09002106264234,215.09002106264234,215.09002106264234,s,1,1.5370483309961855,216.65651058661751,217.67314406030346,,,,,,,,,,,,,,,,,,,,,,,,,,,,,,,,,,,,,,,,,580,2023-05-17_10h34.48.207,eb_02psyexp,2022.2.4,60.007136460675696,
70,0,70,0,,,,,,,,,,,,,,,,,,,,,,,,,,,,,,,,,,,,,,,,,,,,,,,,,,,,,,,,,,,217.67314406030346,217.67314406030346,217.67314406030346,217.67314406030346,217.67314406030346,217.67314406030346,l,1,2.7129512552637607,220.40623907698318,221.42284478095826,,,,,,,,,,,,,,,,,,,,,,,,,,,,,,,,,,,,,,,,,580,2023-05-17_10h34.48.207,eb_02psyexp,2022.2.4,60.007136460675696,
71,0,71,0,,,,,,,,,,,,,,,,,,,,,,,,,,,,,,,,,,,,,,,,,,,,,,,,,,,,,,,,,,,221.42284478095826,221.42284478095826,221.42284478095826,221.42284478095826,221.42284478095826,221.42284478095826,l,1,0.6672700241906568,222.12277849577367,223.13937816291582,,,,,,,,,,,,,,,,,,,,,,,,,,,,,,,,,,,,,,,,,580,2023-05-17_10h34.48.207,eb_02psyexp,2022.2.4,60.007136460675696,
72,0,72,0,,,,,,,,,,,,,,,,,,,,,,,,,,,,,,,,,,,,,,,,,,,,,,,,,,,,,,,,,,,223.13937816291582,223.13937816291582,223.13937816291582,223.13937816291582,223.13937816291582,223.13937816291582,l,1,0.8547037313692272,224.02265347156208,225.0392495165579,,,,,,,,,,,,,,,,,,,,,,,,,,,,,,,,,,,,,,,,,580,2023-05-17_10h34.48.207,eb_02psyexp,2022.2.4,60.007136460675696,
73,0,73,0,,,,,,,,,,,,,,,,,,,,,,,,,,,,,,,,,,,,,,,,,,,,,,,,,,,,,,,,,,,225.0392495165579,225.0392495165579,225.0392495165579,225.0392495165579,225.0392495165579,225.0392495165579,s,1,0.9229155831271783,225.98916285682935,227.0224234656198,,,,,,,,,,,,,,,,,,,,,,,,,,,,,,,,,,,,,,,,,580,2023-05-17_10h34.48.207,eb_02psyexp,2022.2.4,60.007136460675696,
74,0,74,0,,,,,,,,,,,,,,,,,,,,,,,,,,,,,,,,,,,,,,,,,,,,,,,,,,,,,,,,,,,227.0224234656198,227.0224234656198,227.0224234656198,227.0224234656198,227.0224234656198,227.0224234656198,s,1,1.2437086629215628,228.28897529025562,229.30555805412587,,,,,,,,,,,,,,,,,,,,,,,,,,,,,,,,,,,,,,,,,580,2023-05-17_10h34.48.207,eb_02psyexp,2022.2.4,60.007136460675696,
75,0,75,0,,,,,,,,,,,,,,,,,,,,,,,,,,,,,,,,,,,,,,,,,,,,,,,,,,,,,,,,,,,229.30555805412587,229.30555805412587,229.30555805412587,229.30555805412587,229.30555805412587,229.30555805412587,s,1,1.592586312443018,230.92213635065127,231.93871368118562,,,,,,,,,,,,,,,,,,,,,,,,,,,,,,,,,,,,,,,,,580,2023-05-17_10h34.48.207,eb_02psyexp,2022.2.4,60.007136460675696,
76,0,76,0,,,,,,,,,,,,,,,,,,,,,,,,,,,,,,,,,,,,,,,,,,,,,,,,,,,,,,,,,,,231.93871368118562,231.93871368118562,231.93871368118562,231.93871368118562,231.93871368118562,231.93871368118562,s,1,3.670480448170565,235.6384134660475,236.6550327531295,,,,,,,,,,,,,,,,,,,,,,,,,,,,,,,,,,,,,,,,,580,2023-05-17_10h34.48.207,eb_02psyexp,2022.2.4,60.007136460675696,
77,0,77,0,,,,,,,,,,,,,,,,,,,,,,,,,,,,,,,,,,,,,,,,,,,,,,,,,,,,,,,,,,,236.6550327531295,236.6550327531295,236.6550327531295,236.6550327531295,236.6550327531295,236.6550327531295,l,1,1.2101546607445925,237.88825635577086,238.90485873946454,,,,,,,,,,,,,,,,,,,,,,,,,,,,,,,,,,,,,,,,,580,2023-05-17_10h34.48.207,eb_02psyexp,2022.2.4,60.007136460675696,
78,0,78,0,,,,,,,,,,,,,,,,,,,,,,,,,,,,,,,,,,,,,,,,,,,,,,,,,,,,,,,,,,,238.90485873946454,238.90485873946454,238.90485873946454,238.90485873946454,238.90485873946454,238.90485873946454,l,1,1.2883458120049909,240.22141089616343,241.25467210868374,,,,,,,,,,,,,,,,,,,,,,,,,,,,,,,,,,,,,,,,,580,2023-05-17_10h34.48.207,eb_02psyexp,2022.2.4,60.007136460675696,
79,0,79,0,,,,,,,,,,,,,,,,,,,,,,,,,,,,,,,,,,,,,,,,,,,,,,,,,,,,,,,,,,,241.25467210868374,241.25467210868374,241.25467210868374,241.25467210868374,241.25467210868374,241.25467210868374,s,1,2.1065608330536634,243.38782381173223,244.4041261614766,,,,,,,,,,,,,,,,,,,,,,,,,,,,,,,,,,,,,,,,,580,2023-05-17_10h34.48.207,eb_02psyexp,2022.2.4,60.007136460675696,
80,0,80,0,,,,,,,,,,,,,,,,,,,,,,,,,,,,,,,,,,,,,,,,,,,,,,,,,,,,,,,,,,,244.4041261614766,244.4041261614766,244.4041261614766,244.4041261614766,244.4041261614766,244.4041261614766,s,1,0.5491233407519758,244.97103343892377,245.9876273709815,,,,,,,,,,,,,,,,,,,,,,,,,,,,,,,,,,,,,,,,,580,2023-05-17_10h34.48.207,eb_02psyexp,2022.2.4,60.007136460675696,
81,0,81,0,,,,,,,,,,,,,,,,,,,,,,,,,,,,,,,,,,,,,,,,,,,,,,,,,,,,,,,,,,,245.9876273709815,245.9876273709815,245.9876273709815,245.9876273709815,245.9876273709815,245.9876273709815,l,1,0.7576104389736429,246.77089205477387,247.7874905144563,,,,,,,,,,,,,,,,,,,,,,,,,,,,,,,,,,,,,,,,,580,2023-05-17_10h34.48.207,eb_02psyexp,2022.2.4,60.007136460675696,
82,0,82,0,,,,,,,,,,,,,,,,,,,,,,,,,,,,,,,,,,,,,,,,,,,,,,,,,,,,,,,,,,,247.7874905144563,247.7874905144563,247.7874905144563,247.7874905144563,247.7874905144563,247.7874905144563,s,1,1.1168643141863868,248.9374009569874,249.95401058509015,,,,,,,,,,,,,,,,,,,,,,,,,,,,,,,,,,,,,,,,,580,2023-05-17_10h34.48.207,eb_02psyexp,2022.2.4,60.007136460675696,
83,0,83,0,,,,,,,,,,,,,,,,,,,,,,,,,,,,,,,,,,,,,,,,,,,,,,,,,,,,,,,,,,,249.95401058509015,249.95401058509015,249.95401058509015,249.95401058509015,249.95401058509015,249.95401058509015,s,1,1.134230969590135,251.12056597147603,252.13715779071208,,,,,,,,,,,,,,,,,,,,,,,,,,,,,,,,,,,,,,,,,580,2023-05-17_10h34.48.207,eb_02psyexp,2022.2.4,60.007136460675696,
84,0,84,0,,,,,,,,,,,,,,,,,,,,,,,,,,,,,,,,,,,,,,,,,,,,,,,,,,,,,,,,,,,252.13715779071208,252.13715779071208,252.13715779071208,252.13715779071208,252.13715779071208,252.13715779071208,l,1,0.6711411869619042,252.83710810693447,253.85365132906009,,,,,,,,,,,,,,,,,,,,,,,,,,,,,,,,,,,,,,,,,580,2023-05-17_10h34.48.207,eb_02psyexp,2022.2.4,60.007136460675696,
85,0,85,0,,,,,,,,,,,,,,,,,,,,,,,,,,,,,,,,,,,,,,,,,,,,,,,,,,,,,,,,,,,253.85365132906009,253.85365132906009,253.85365132906009,253.85365132906009,253.85365132906009,253.85365132906009,l,1,0.9226233972003683,254.80364103615284,255.82021776307374,,,,,,,,,,,,,,,,,,,,,,,,,,,,,,,,,,,,,,,,,580,2023-05-17_10h34.48.207,eb_02psyexp,2022.2.4,60.007136460675696,
86,0,86,0,,,,,,,,,,,,,,,,,,,,,,,,,,,,,,,,,,,,,,,,,,,,,,,,,,,,,,,,,,,255.82021776307374,255.82021776307374,255.82021776307374,255.82021776307374,255.82021776307374,255.82021776307374,l,1,0.6600903375074267,256.50349959160667,257.5201095214579,,,,,,,,,,,,,,,,,,,,,,,,,,,,,,,,,,,,,,,,,580,2023-05-17_10h34.48.207,eb_02psyexp,2022.2.4,60.007136460675696,
87,0,87,0,,,,,,,,,,,,,,,,,,,,,,,,,,,,,,,,,,,,,,,,,,,,,,,,,,,,,,,,,,,257.5201095214579,257.5201095214579,257.5201095214579,257.5201095214579,257.5201095214579,257.5201095214579,s,1,0.8482279474847019,258.3866725746775,259.40296134143136,,,,,,,,,,,,,,,,,,,,,,,,,,,,,,,,,,,,,,,,,580,2023-05-17_10h34.48.207,eb_02psyexp,2022.2.4,60.007136460675696,
88,0,88,0,,,,,,,,,,,,,,,,,,,,,,,,,,,,,,,,,,,,,,,,,,,,,,,,,,,,,,,,,,,259.40296134143136,259.40296134143136,259.40296134143136,259.40296134143136,259.40296134143136,259.40296134143136,s,1,1.741354271536693,261.1698231609771,262.20310520078056,,,,,,,,,,,,,,,,,,,,,,,,,,,,,,,,,,,,,,,,,580,2023-05-17_10h34.48.207,eb_02psyexp,2022.2.4,60.007136460675696,
89,0,89,0,,,,,,,,,,,,,,,,,,,,,,,,,,,,,,,,,,,,,,,,,,,,,,,,,,,,,,,,,,,262.20310520078056,262.20310520078056,262.20310520078056,262.20310520078056,262.20310520078056,262.20310520078056,s,1,1.7412332316162065,263.96958699740935,264.98620205861516,,,,,,,,,,,,,,,,,,,,,,,,,,,,,,,,,,,,,,,,,580,2023-05-17_10h34.48.207,eb_02psyexp,2022.2.4,60.007136460675696,
90,0,90,0,,,,,,,,,,,,,,,,,,,,,,,,,,,,,,,,,,,,,,,,,,,,,,,,,,,,,,,,,,,264.98620205861516,264.98620205861516,264.98620205861516,264.98620205861516,264.98620205861516,264.98620205861516,l,1,1.133149458677508,266.13608865544666,267.15271669602953,,,,,,,,,,,,,,,,,,,,,,,,,,,,,,,,,,,,,,,,,580,2023-05-17_10h34.48.207,eb_02psyexp,2022.2.4,60.007136460675696,
91,0,91,0,,,,,,,,,,,,,,,,,,,,,,,,,,,,,,,,,,,,,,,,,,,,,,,,,,,,,,,,,,,267.15271669602953,267.15271669602953,267.15271669602953,267.15271669602953,267.15271669602953,267.15271669602953,s,1,0.8546412495197728,268.0359437094303,269.06920220539905,,,,,,,,,,,,,,,,,,,,,,,,,,,,,,,,,,,,,,,,,580,2023-05-17_10h34.48.207,eb_02psyexp,2022.2.4,60.007136460675696,
92,0,92,0,,,,,,,,,,,,,,,,,,,,,,,,,,,,,,,,,,,,,,,,,,,,,,,,,,,,,,,,,,,269.06920220539905,269.06920220539905,269.06920220539905,269.06920220539905,269.06920220539905,269.06920220539905,s,1,1.0021453832741827,270.1024643233977,271.1190700273728,,,,,,,,,,,,,,,,,,,,,,,,,,,,,,,,,,,,,,,,,580,2023-05-17_10h34.48.207,eb_02psyexp,2022.2.4,60.007136460675696,
93,0,93,0,,,,,,,,,,,,,,,,,,,,,,,,,,,,,,,,,,,,,,,,,,,,,,,,,,,,,,,,,,,271.1190700273728,271.1190700273728,271.1190700273728,271.1190700273728,271.1190700273728,271.1190700273728,l,1,0.6723051015287638,271.81899830896873,272.83559193927795,,,,,,,,,,,,,,,,,,,,,,,,,,,,,,,,,,,,,,,,,580,2023-05-17_10h34.48.207,eb_02psyexp,2022.2.4,60.007136460675696,
94,0,94,0,,,,,,,,,,,,,,,,,,,,,,,,,,,,,,,,,,,,,,,,,,,,,,,,,,,,,,,,,,,272.83559193927795,272.83559193927795,272.83559193927795,272.83559193927795,272.83559193927795,272.83559193927795,s,1,1.0118092545308173,273.86879942333326,274.9020859907614,,,,,,,,,,,,,,,,,,,,,,,,,,,,,,,,,,,,,,,,,580,2023-05-17_10h34.48.207,eb_02psyexp,2022.2.4,60.007136460675696,
95,0,95,0,,,,,,,,,,,,,,,,,,,,,,,,,,,,,,,,,,,,,,,,,,,,,,,,,,,,,,,,,,,274.9020859907614,274.9020859907614,274.9020859907614,274.9020859907614,274.9020859907614,274.9020859907614,s,1,0.7293275570264086,275.6520212449832,276.66862574161496,,,,,,,,,,,,,,,,,,,,,,,,,,,,,,,,,,,,,,,,,580,2023-05-17_10h34.48.207,eb_02psyexp,2022.2.4,60.007136460675696,
96,0,96,0,,,,,,,,,,,,,,,,,,,,,,,,,,,,,,,,,,,,,,,,,,,,,,,,,,,,,,,,,,,276.66862574161496,276.66862574161496,276.66862574161496,276.66862574161496,276.66862574161496,276.66862574161496,l,1,0.658783650258556,277.3518997222418,278.36849606898613,,,,,,,,,,,,,,,,,,,,,,,,,,,,,,,,,,,,,,,,,580,2023-05-17_10h34.48.207,eb_02psyexp,2022.2.4,60.007136460675696,
97,0,97,0,,,,,,,,,,,,,,,,,,,,,,,,,,,,,,,,,,,,,,,,,,,,,,,,,,,,,,,,,,,278.36849606898613,278.36849606898613,278.36849606898613,278.36849606898613,278.36849606898613,278.36849606898613,l,1,1.7109491168521345,280.10168646869715,281.1183051520493,,,,,,,,,,,,,,,,,,,,,,,,,,,,,,,,,,,,,,,,,580,2023-05-17_10h34.48.207,eb_02psyexp,2022.2.4,60.007136460675696,
98,0,98,0,,,,,,,,,,,,,,,,,,,,,,,,,,,,,,,,,,,,,,,,,,,,,,,,,,,,,,,,,,,281.1183051520493,281.1183051520493,281.1183051520493,281.1183051520493,281.1183051520493,281.1183051520493,l,1,1.0241335883038118,282.1681962161092,283.20146799320355,,,,,,,,,,,,,,,,,,,,,,,,,,,,,,,,,,,,,,,,,580,2023-05-17_10h34.48.207,eb_02psyexp,2022.2.4,60.007136460675696,
99,0,99,0,,,,,,,,,,,,,,,,,,,,,,,,,,,,,,,,,,,,,,,,,,,,,,,,,,,,,,,,,,,283.20146799320355,283.20146799320355,283.20146799320355,283.20146799320355,283.20146799320355,283.20146799320355,s,1,2.1089861581567675,285.3346359959105,286.3512429073453,,,,,,,,,,,,,,,,,,,,,,,,,,,,,,,,,,,,,,,,,580,2023-05-17_10h34.48.207,eb_02psyexp,2022.2.4,60.007136460675696,
100,0,100,0,,,,,,,,,,,,,,,,,,,,,,,,,,,,,,,,,,,,,,,,,,,,,,,,,,,,,,,,,,,286.3512429073453,286.3512429073453,286.3512429073453,286.3512429073453,286.3512429073453,286.3512429073453,s,1,1.2872051395243034,287.66778359399177,288.6843775260495,,,,,,,,,,,,,,,,,,,,,,,,,,,,,,,,,,,,,,,,,580,2023-05-17_10h34.48.207,eb_02psyexp,2022.2.4,60.007136460675696,
101,0,101,0,,,,,,,,,,,,,,,,,,,,,,,,,,,,,,,,,,,,,,,,,,,,,,,,,,,,,,,,,,,288.6843775260495,288.6843775260495,288.6843775260495,288.6843775260495,288.6843775260495,288.6843775260495,l,1,1.77810873684939,290.48424157500267,291.5005502634449,,,,,,,,,,,,,,,,,,,,,,,,,,,,,,,,,,,,,,,,,580,2023-05-17_10h34.48.207,eb_02psyexp,2022.2.4,60.007136460675696,
102,0,102,0,,,,,,,,,,,,,,,,,,,,,,,,,,,,,,,,,,,,,,,,,,,,,,,,,,,,,,,,,,,291.5005502634449,291.5005502634449,291.5005502634449,291.5005502634449,291.5005502634449,291.5005502634449,s,1,0.8259611394023523,292.3507647847291,293.3673759220401,,,,,,,,,,,,,,,,,,,,,,,,,,,,,,,,,,,,,,,,,580,2023-05-17_10h34.48.207,eb_02psyexp,2022.2.4,60.007136460675696,
103,0,103,0,,,,,,,,,,,,,,,,,,,,,,,,,,,,,,,,,,,,,,,,,,,,,,,,,,,,,,,,,,,293.3673759220401,293.3673759220401,293.3673759220401,293.3673759220401,293.3673759220401,293.3673759220401,l,1,1.7831495492719114,295.1672103902092,296.18380643520504,,,,,,,,,,,,,,,,,,,,,,,,,,,,,,,,,,,,,,,,,580,2023-05-17_10h34.48.207,eb_02psyexp,2022.2.4,60.007136460675696,
104,0,104,0,,,,,,,,,,,,,,,,,,,,,,,,,,,,,,,,,,,,,,,,,,,,,,,,,,,,,,,,,,,296.18380643520504,296.18380643520504,296.18380643520504,296.18380643520504,296.18380643520504,296.18380643520504,s,1,0.7577320825075731,296.9670732318191,298.00032750179525,,,,,,,,,,,,,,,,,,,,,,,,,,,,,,,,,,,,,,,,,580,2023-05-17_10h34.48.207,eb_02psyexp,2022.2.4,60.007136460675696,
105,0,105,0,,,,,,,,,,,,,,,,,,,,,,,,,,,,,,,,,,,,,,,,,,,,,,,,,,,,,,,,,,,298.00032750179525,298.00032750179525,298.00032750179525,298.00032750179525,298.00032750179525,298.00032750179525,s,1,0.6772128003649414,298.7003623347264,299.71685997827444,,,,,,,,,,,,,,,,,,,,,,,,,,,,,,,,,,,,,,,,,580,2023-05-17_10h34.48.207,eb_02psyexp,2022.2.4,60.007136460675696,
106,0,106,0,,,,,,,,,,,,,,,,,,,,,,,,,,,,,,,,,,,,,,,,,,,,,,,,,,,,,,,,,,,299.71685997827444,299.71685997827444,299.71685997827444,299.71685997827444,299.71685997827444,299.71685997827444,s,1,1.0166955224703997,300.75011243729386,301.7833718386246,,,,,,,,,,,,,,,,,,,,,,,,,,,,,,,,,,,,,,,,,580,2023-05-17_10h34.48.207,eb_02psyexp,2022.2.4,60.007136460675696,
107,0,107,0,,,,,,,,,,,,,,,,,,,,,,,,,,,,,,,,,,,,,,,,,,,,,,,,,,,,,,,,,,,301.7833718386246,301.7833718386246,301.7833718386246,301.7833718386246,301.7833718386246,301.7833718386246,s,1,2.7581767003284767,304.5664874109207,305.5830804373836,,,,,,,,,,,,,,,,,,,,,,,,,,,,,,,,,,,,,,,,,580,2023-05-17_10h34.48.207,eb_02psyexp,2022.2.4,60.007136460675696,
108,0,108,0,,,,,,,,,,,,,,,,,,,,,,,,,,,,,,,,,,,,,,,,,,,,,,,,,,,,,,,,,,,305.5830804373836,305.5830804373836,305.5830804373836,305.5830804373836,305.5830804373836,305.5830804373836,l,1,1.6385029826778919,307.2496334090829,308.28287620912306,,,,,,,,,,,,,,,,,,,,,,,,,,,,,,,,,,,,,,,,,580,2023-05-17_10h34.48.207,eb_02psyexp,2022.2.4,60.007136460675696,
109,0,109,0,,,,,,,,,,,,,,,,,,,,,,,,,,,,,,,,,,,,,,,,,,,,,,,,,,,,,,,,,,,308.28287620912306,308.28287620912306,308.28287620912306,308.28287620912306,308.28287620912306,308.28287620912306,s,1,1.378729994292371,309.6827777471626,310.6993855641922,,,,,,,,,,,,,,,,,,,,,,,,,,,,,,,,,,,,,,,,,580,2023-05-17_10h34.48.207,eb_02psyexp,2022.2.4,60.007136460675696,
110,0,110,0,,,,,,,,,,,,,,,,,,,,,,,,,,,,,,,,,,,,,,,,,,,,,,,,,,,,,,,,,,,310.6993855641922,310.6993855641922,310.6993855641922,310.6993855641922,310.6993855641922,310.6993855641922,s,1,0.7381809743819758,311.4659808544675,312.48259983968455,,,,,,,,,,,,,,,,,,,,,,,,,,,,,,,,,,,,,,,,,580,2023-05-17_10h34.48.207,eb_02psyexp,2022.2.4,60.007136460675696,
111,0,111,0,,,,,,,,,,,,,,,,,,,,,,,,,,,,,,,,,,,,,,,,,,,,,,,,,,,,,,,,,,,312.48259983968455,312.48259983968455,312.48259983968455,312.48259983968455,312.48259983968455,312.48259983968455,l,1,0.7620028882520273,313.26584128139075,314.2824334023753,,,,,,,,,,,,,,,,,,,,,,,,,,,,,,,,,,,,,,,,,580,2023-05-17_10h34.48.207,eb_02psyexp,2022.2.4,60.007136460675696,
112,0,112,0,,,,,,,,,,,,,,,,,,,,,,,,,,,,,,,,,,,,,,,,,,,,,,,,,,,,,,,,,,,314.2824334023753,314.2824334023753,314.2824334023753,314.2824334023753,314.2824334023753,314.2824334023753,s,1,0.674180464935489,314.9823755688267,315.99895954004023,,,,,,,,,,,,,,,,,,,,,,,,,,,,,,,,,,,,,,,,,580,2023-05-17_10h34.48.207,eb_02psyexp,2022.2.4,60.007136460675696,
113,0,113,0,,,,,,,,,,,,,,,,,,,,,,,,,,,,,,,,,,,,,,,,,,,,,,,,,,,,,,,,,,,315.99895954004023,315.99895954004023,315.99895954004023,315.99895954004023,315.99895954004023,315.99895954004023,s,1,0.6216769318562001,316.6489222018281,317.6654992304975,,,,,,,,,,,,,,,,,,,,,,,,,,,,,,,,,,,,,,,,,580,2023-05-17_10h34.48.207,eb_02psyexp,2022.2.4,60.007136460675696,
114,0,114,0,,,,,,,,,,,,,,,,,,,,,,,,,,,,,,,,,,,,,,,,,,,,,,,,,,,,,,,,,,,317.6654992304975,317.6654992304975,317.6654992304975,317.6654992304975,317.6654992304975,317.6654992304975,l,1,1.1631507446290925,318.8487569114659,319.88202567002736,,,,,,,,,,,,,,,,,,,,,,,,,,,,,,,,,,,,,,,,,580,2023-05-17_10h34.48.207,eb_02psyexp,2022.2.4,60.007136460675696,
115,0,115,0,,,,,,,,,,,,,,,,,,,,,,,,,,,,,,,,,,,,,,,,,,,,,,,,,,,,,,,,,,,319.88202567002736,319.88202567002736,319.88202567002736,319.88202567002736,319.88202567002736,319.88202567002736,s,1,2.9946412133285776,322.8984351748368,323.91504782123957,,,,,,,,,,,,,,,,,,,,,,,,,,,,,,,,,,,,,,,,,580,2023-05-17_10h34.48.207,eb_02psyexp,2022.2.4,60.007136460675696,
116,0,116,0,,,,,,,,,,,,,,,,,,,,,,,,,,,,,,,,,,,,,,,,,,,,,,,,,,,,,,,,,,,323.91504782123957,323.91504782123957,323.91504782123957,323.91504782123957,323.91504782123957,323.91504782123957,l,1,0.8016055634943768,324.74828536913265,325.76490043033846,,,,,,,,,,,,,,,,,,,,,,,,,,,,,,,,,,,,,,,,,580,2023-05-17_10h34.48.207,eb_02psyexp,2022.2.4,60.007136460675696,
117,0,117,0,,,,,,,,,,,,,,,,,,,,,,,,,,,,,,,,,,,,,,,,,,,,,,,,,,,,,,,,,,,325.76490043033846,325.76490043033846,325.76490043033846,325.76490043033846,325.76490043033846,325.76490043033846,l,1,0.7668900615535676,326.5648088505259,327.58143357082736,,,,,,,,,,,,,,,,,,,,,,,,,,,,,,,,,,,,,,,,,580,2023-05-17_10h34.48.207,eb_02psyexp,2022.2.4,60.007136460675696,
118,0,118,0,,,,,,,,,,,,,,,,,,,,,,,,,,,,,,,,,,,,,,,,,,,,,,,,,,,,,,,,,,,327.58143357082736,327.58143357082736,327.58143357082736,327.58143357082736,327.58143357082736,327.58143357082736,s,1,1.0702452504774556,328.6813279853668,329.69760769675486,,,,,,,,,,,,,,,,,,,,,,,,,,,,,,,,,,,,,,,,,580,2023-05-17_10h34.48.207,eb_02psyexp,2022.2.4,60.007136460675696,
119,0,119,0,,,,,,,,,,,,,,,,,,,,,,,,,,,,,,,,,,,,,,,,,,,,,,,,,,,,,,,,,,,329.69760769675486,329.69760769675486,329.69760769675486,329.69760769675486,329.69760769675486,329.69760769675486,s,1,5.218143593985587,334.9475200107554,335.964116961346,,,,,,,,,,,,,,,,,,,,,,,,,,,,,,,,,,,,,,,,,580,2023-05-17_10h34.48.207,eb_02psyexp,2022.2.4,60.007136460675696,
120,0,120,0,,,,,,,,,,,,,,,,,,,,,,,,,,,,,,,,,,,,,,,,,,,,,,,,,,,,,,,,,,,335.964116961346,335.964116961346,335.964116961346,335.964116961346,335.964116961346,335.964116961346,l,1,0.6076263461727649,336.5973818562925,337.63065393525176,,,,,,,,,,,,,,,,,,,,,,,,,,,,,,,,,,,,,,,,,580,2023-05-17_10h34.48.207,eb_02psyexp,2022.2.4,60.007136460675696,
121,0,121,0,,,,,,,,,,,,,,,,,,,,,,,,,,,,,,,,,,,,,,,,,,,,,,,,,,,,,,,,,,,337.63065393525176,337.63065393525176,337.63065393525176,337.63065393525176,337.63065393525176,337.63065393525176,s,1,0.6371051381574944,338.2972545984667,339.31385818950366,,,,,,,,,,,,,,,,,,,,,,,,,,,,,,,,,,,,,,,,,580,2023-05-17_10h34.48.207,eb_02psyexp,2022.2.4,60.007136460675696,
122,0,122,0,,,,,,,,,,,,,,,,,,,,,,,,,,,,,,,,,,,,,,,,,,,,,,,,,,,,,,,,,,,339.31385818950366,339.31385818950366,339.31385818950366,339.31385818950366,339.31385818950366,339.31385818950366,s,1,0.6739003526745364,340.0137906969758,341.03038734558504,,,,,,,,,,,,,,,,,,,,,,,,,,,,,,,,,,,,,,,,,580,2023-05-17_10h34.48.207,eb_02psyexp,2022.2.4,60.007136460675696,
123,0,123,0,,,,,,,,,,,,,,,,,,,,,,,,,,,,,,,,,,,,,,,,,,,,,,,,,,,,,,,,,,,341.03038734558504,341.03038734558504,341.03038734558504,341.03038734558504,341.03038734558504,341.03038734558504,s,1,0.6693838450592011,341.7303246826632,342.74694487522356,,,,,,,,,,,,,,,,,,,,,,,,,,,,,,,,,,,,,,,,,580,2023-05-17_10h34.48.207,eb_02psyexp,2022.2.4,60.007136460675696,
124,0,124,0,,,,,,,,,,,,,,,,,,,,,,,,,,,,,,,,,,,,,,,,,,,,,,,,,,,,,,,,,,,342.74694487522356,342.74694487522356,342.74694487522356,342.74694487522356,342.74694487522356,342.74694487522356,s,1,0.6398513244930655,343.4135244092904,344.4468136933865,,,,,,,,,,,,,,,,,,,,,,,,,,,,,,,,,,,,,,,,,580,2023-05-17_10h34.48.207,eb_02psyexp,2022.2.4,60.007136460675696,
125,0,125,0,,,,,,,,,,,,,,,,,,,,,,,,,,,,,,,,,,,,,,,,,,,,,,,,,,,,,,,,,,,344.4468136933865,344.4468136933865,344.4468136933865,344.4468136933865,344.4468136933865,344.4468136933865,s,1,0.4919964468572289,344.9634130586637,345.9800163478358,,,,,,,,,,,,,,,,,,,,,,,,,,,,,,,,,,,,,,,,,580,2023-05-17_10h34.48.207,eb_02psyexp,2022.2.4,60.007136460675696,
126,0,126,0,,,,,,,,,,,,,,,,,,,,,,,,,,,,,,,,,,,,,,,,,,,,,,,,,,,,,,,,,,,345.9800163478358,345.9800163478358,345.9800163478358,345.9800163478358,345.9800163478358,345.9800163478358,s,1,0.662774343858473,346.6632972708903,347.67987671436276,,,,,,,,,,,,,,,,,,,,,,,,,,,,,,,,,,,,,,,,,580,2023-05-17_10h34.48.207,eb_02psyexp,2022.2.4,60.007136460675696,
127,0,127,0,,,,,,,,,,,,,,,,,,,,,,,,,,,,,,,,,,,,,,,,,,,,,,,,,,,,,,,,,,,347.67987671436276,347.67987671436276,347.67987671436276,347.67987671436276,347.67987671436276,347.67987671436276,l,1,1.4749642357928678,349.1797771054553,350.1963752633892,,,,,,,,,,,,,,,,,,,,,,,,,,,,,,,,,,,,,,,,,580,2023-05-17_10h34.48.207,eb_02psyexp,2022.2.4,60.007136460675696,
128,0,128,0,,,,,,,,,,,,,,,,,,,,,,,,,,,,,,,,,,,,,,,,,,,,,,,,,,,,,,,,,,,350.1963752633892,350.1963752633892,350.1963752633892,350.1963752633892,350.1963752633892,350.1963752633892,s,1,1.2944681353401393,351.5129074982833,352.5461705218768,,,,,,,,,,,,,,,,,,,,,,,,,,,,,,,,,,,,,,,,,580,2023-05-17_10h34.48.207,eb_02psyexp,2022.2.4,60.007136460675696,
129,0,129,0,,,,,,,,,,,,,,,,,,,,,,,,,,,,,,,,,,,,,,,,,,,,,,,,,,,,,,,,,,,352.5461705218768,352.5461705218768,352.5461705218768,352.5461705218768,352.5461705218768,352.5461705218768,s,1,0.8246635075192899,353.39609949779697,354.41270520177204,,,,,,,,,,,,,,,,,,,,,,,,,,,,,,,,,,,,,,,,,580,2023-05-17_10h34.48.207,eb_02psyexp,2022.2.4,60.007136460675696,
130,0,130,0,,,,,,,,,,,,,,,,,,,,,,,,,,,,,,,,,,,,,,,,,,,,,,,,,,,,,,,,,,,354.41270520177204,354.41270520177204,354.41270520177204,354.41270520177204,354.41270520177204,354.41270520177204,s,1,0.5821533398702741,355.0126578725176,356.0459003705764,,,,,,,,,,,,,,,,,,,,,,,,,,,,,,,,,,,,,,,,,580,2023-05-17_10h34.48.207,eb_02psyexp,2022.2.4,60.007136460675696,
131,0,131,0,,,,,,,,,,,,,,,,,,,,,,,,,,,,,,,,,,,,,,,,,,,,,,,,,,,,,,,,,,,356.0459003705764,356.0459003705764,356.0459003705764,356.0459003705764,356.0459003705764,356.0459003705764,s,1,0.6049613561481237,356.67919967591297,357.6957969282521,,,,,,,,,,,,,,,,,,,,,,,,,,,,,,,,,,,,,,,,,580,2023-05-17_10h34.48.207,eb_02psyexp,2022.2.4,60.007136460675696,
132,0,132,0,,,,,,,,,,,,,,,,,,,,,,,,,,,,,,,,,,,,,,,,,,,,,,,,,,,,,,,,,,,357.6957969282521,357.6957969282521,357.6957969282521,357.6957969282521,357.6957969282521,357.6957969282521,s,1,0.49108578031882644,358.2123929732479,359.2289832831593,,,,,,,,,,,,,,,,,,,,,,,,,,,,,,,,,,,,,,,,,580,2023-05-17_10h34.48.207,eb_02psyexp,2022.2.4,60.007136460675696,
133,0,133,0,,,,,,,,,,,,,,,,,,,,,,,,,,,,,,,,,,,,,,,,,,,,,,,,,,,,,,,,,,,359.2289832831593,359.2289832831593,359.2289832831593,359.2289832831593,359.2289832831593,359.2289832831593,l,1,0.7728732343530282,360.02893758378923,361.04553030850366,,,,,,,,,,,,,,,,,,,,,,,,,,,,,,,,,,,,,,,,,580,2023-05-17_10h34.48.207,eb_02psyexp,2022.2.4,60.007136460675696,
134,0,134,0,,,,,,,,,,,,,,,,,,,,,,,,,,,,,,,,,,,,,,,,,,,,,,,,,,,,,,,,,,,361.04553030850366,361.04553030850366,361.04553030850366,361.04553030850366,361.04553030850366,361.04553030850366,s,1,0.5483992143999785,361.61214268335607,362.62876317778137,,,,,,,,,,,,,,,,,,,,,,,,,,,,,,,,,,,,,,,,,580,2023-05-17_10h34.48.207,eb_02psyexp,2022.2.4,60.007136460675696,
135,0,135,0,,,,,,,,,,,,,,,,,,,,,,,,,,,,,,,,,,,,,,,,,,,,,,,,,,,,,,,,,,,362.62876317778137,362.62876317778137,362.62876317778137,362.62876317778137,362.62876317778137,362.62876317778137,s,1,0.717144486727193,363.37868273607455,364.41192915814463,,,,,,,,,,,,,,,,,,,,,,,,,,,,,,,,,,,,,,,,,580,2023-05-17_10h34.48.207,eb_02psyexp,2022.2.4,60.007136460675696,
136,0,136,0,,,,,,,,,,,,,,,,,,,,,,,,,,,,,,,,,,,,,,,,,,,,,,,,,,,,,,,,,,,364.41192915814463,364.41192915814463,364.41192915814463,364.41192915814463,364.41192915814463,364.41192915814463,s,1,0.782015819218941,365.2118731960654,366.2284767872188,,,,,,,,,,,,,,,,,,,,,,,,,,,,,,,,,,,,,,,,,580,2023-05-17_10h34.48.207,eb_02psyexp,2022.2.4,60.007136460675696,
137,0,137,0,,,,,,,,,,,,,,,,,,,,,,,,,,,,,,,,,,,,,,,,,,,,,,,,,,,,,,,,,,,366.2284767872188,366.2284767872188,366.2284767872188,366.2284767872188,366.2284767872188,366.2284767872188,l,1,0.8374433254357427,367.09505795117,368.1116627496667,,,,,,,,,,,,,,,,,,,,,,,,,,,,,,,,,,,,,,,,,580,2023-05-17_10h34.48.207,eb_02psyexp,2022.2.4,60.007136460675696,
138,0,138,0,,,,,,,,,,,,,,,,,,,,,,,,,,,,,,,,,,,,,,,,,,,,,,,,,,,,,,,,,,,368.1116627496667,368.1116627496667,368.1116627496667,368.1116627496667,368.1116627496667,368.1116627496667,s,1,0.7142669978784397,368.84493193088565,369.8615427662153,,,,,,,,,,,,,,,,,,,,,,,,,,,,,,,,,,,,,,,,,580,2023-05-17_10h34.48.207,eb_02psyexp,2022.2.4,60.007136460675696,
139,0,139,0,,,,,,,,,,,,,,,,,,,,,,,,,,,,,,,,,,,,,,,,,,,,,,,,,,,,,,,,,,,369.8615427662153,369.8615427662153,369.8615427662153,369.8615427662153,369.8615427662153,369.8615427662153,l,1,1.5964155188994482,371.4780136059271,372.4946600589901,,,,,,,,,,,,,,,,,,,,,,,,,,,,,,,,,,,,,,,,,580,2023-05-17_10h34.48.207,eb_02psyexp,2022.2.4,60.007136460675696,
140,0,140,0,,,,,,,,,,,,,,,,,,,,,,,,,,,,,,,,,,,,,,,,,,,,,,,,,,,,,,,,,,,372.4946600589901,372.4946600589901,372.4946600589901,372.4946600589901,372.4946600589901,372.4946600589901,l,1,2.514305211370811,375.02778695046436,376.04438027879223,,,,,,,,,,,,,,,,,,,,,,,,,,,,,,,,,,,,,,,,,580,2023-05-17_10h34.48.207,eb_02psyexp,2022.2.4,60.007136460675696,
141,0,141,0,,,,,,,,,,,,,,,,,,,,,,,,,,,,,,,,,,,,,,,,,,,,,,,,,,,,,,,,,,,376.04438027879223,376.04438027879223,376.04438027879223,376.04438027879223,376.04438027879223,376.04438027879223,l,1,0.6526045800419524,376.7276669368148,377.74427807412576,,,,,,,,,,,,,,,,,,,,,,,,,,,,,,,,,,,,,,,,,580,2023-05-17_10h34.48.207,eb_02psyexp,2022.2.4,60.007136460675696,
142,0,142,0,,,,,,,,,,,,,,,,,,,,,,,,,,,,,,,,,,,,,,,,,,,,,,,,,,,,,,,,,,,377.74427807412576,377.74427807412576,377.74427807412576,377.74427807412576,377.74427807412576,377.74427807412576,l,1,2.320706922444515,380.0940682012588,381.1106609259732,,,,,,,,,,,,,,,,,,,,,,,,,,,,,,,,,,,,,,,,,580,2023-05-17_10h34.48.207,eb_02psyexp,2022.2.4,60.007136460675696,
143,0,143,0,,,,,,,,,,,,,,,,,,,,,,,,,,,,,,,,,,,,,,,,,,,,,,,,,,,,,,,,,,,381.1106609259732,381.1106609259732,381.1106609259732,381.1106609259732,381.1106609259732,381.1106609259732,s,1,2.722343164146878,383.8604346930515,384.8770382842049,,,,,,,,,,,,,,,,,,,,,,,,,,,,,,,,,,,,,,,,,580,2023-05-17_10h34.48.207,eb_02psyexp,2022.2.4,60.007136460675696,
144,0,144,0,,,,,,,,,,,,,,,,,,,,,,,,,,,,,,,,,,,,,,,,,,,,,,,,,,,,,,,,,,,384.8770382842049,384.8770382842049,384.8770382842049,384.8770382842049,384.8770382842049,384.8770382842049,l,1,0.8359851120039821,385.74364933080506,386.7602523182286,,,,,,,,,,,,,,,,,,,,,,,,,,,,,,,,,,,,,,,,,580,2023-05-17_10h34.48.207,eb_02psyexp,2022.2.4,60.007136460675696,
145,0,145,0,,,,,,,,,,,,,,,,,,,,,,,,,,,,,,,,,,,,,,,,,,,,,,,,,,,,,,,,,,,386.7602523182286,386.7602523182286,386.7602523182286,386.7602523182286,386.7602523182286,386.7602523182286,l,1,0.8887862642295659,387.6768320032861,388.6931135257473,,,,,,,,,,,,,,,,,,,,,,,,,,,,,,,,,,,,,,,,,580,2023-05-17_10h34.48.207,eb_02psyexp,2022.2.4,60.007136460675696,
146,0,146,0,,,,,,,,,,,,,,,,,,,,,,,,,,,,,,,,,,,,,,,,,,,,,,,,,,,,,,,,,,,388.6931135257473,388.6931135257473,388.6931135257473,388.6931135257473,388.6931135257473,388.6931135257473,s,1,0.9079470867291093,389.6266849745298,390.64329067850485,,,,,,,,,,,,,,,,,,,,,,,,,,,,,,,,,,,,,,,,,580,2023-05-17_10h34.48.207,eb_02psyexp,2022.2.4,60.007136460675696,
147,0,147,0,,,,,,,,,,,,,,,,,,,,,,,,,,,,,,,,,,,,,,,,,,,,,,,,,,,,,,,,,,,390.64329067850485,390.64329067850485,390.64329067850485,390.64329067850485,390.64329067850485,390.64329067850485,l,1,0.7087957543553784,391.376534202951,392.40979933936615,,,,,,,,,,,,,,,,,,,,,,,,,,,,,,,,,,,,,,,,,580,2023-05-17_10h34.48.207,eb_02psyexp,2022.2.4,60.007136460675696,
148,0,148,0,,,,,,,,,,,,,,,,,,,,,,,,,,,,,,,,,,,,,,,,,,,,,,,,,,,,,,,,,,,392.40979933936615,392.40979933936615,392.40979933936615,392.40979933936615,392.40979933936615,392.40979933936615,s,1,0.9342643537092954,393.376386298798,394.39300830254797,,,,,,,,,,,,,,,,,,,,,,,,,,,,,,,,,,,,,,,,,580,2023-05-17_10h34.48.207,eb_02psyexp,2022.2.4,60.007136460675696,
149,0,149,0,,,,,,,,,,,,,,,,,,,,,,,,,,,,,,,,,,,,,,,,,,,,,,,,,,,,,,,,,,,394.39300830254797,394.39300830254797,394.39300830254797,394.39300830254797,394.39300830254797,394.39300830254797,l,1,0.7510833414271474,395.1762581957737,396.1928551463643,,,,,,,,,,,,,,,,,,,,,,,,,,,,,,,,,,,,,,,,,580,2023-05-17_10h34.48.207,eb_02psyexp,2022.2.4,60.007136460675696,
150,0,150,0,,,,,,,,,,,,,,,,,,,,,,,,,,,,,,,,,,,,,,,,,,,,,,,,,,,,,,,,,,,396.1928551463643,396.1928551463643,396.1928551463643,396.1928551463643,396.1928551463643,396.1928551463643,s,1,0.8072244093054906,397.026122274925,398.0426914556883,,,,,,,,,,,,,,,,,,,,,,,,,,,,,,,,,,,,,,,,,580,2023-05-17_10h34.48.207,eb_02psyexp,2022.2.4,60.007136460675696,
151,0,151,0,,,,,,,,,,,,,,,,,,,,,,,,,,,,,,,,,,,,,,,,,,,,,,,,,,,,,,,,,,,398.0426914556883,398.0426914556883,398.0426914556883,398.0426914556883,398.0426914556883,398.0426914556883,l,1,1.117418501758948,399.19260974624194,400.20921424299013,,,,,,,,,,,,,,,,,,,,,,,,,,,,,,,,,,,,,,,,,580,2023-05-17_10h34.48.207,eb_02psyexp,2022.2.4,60.007136460675696,
152,0,152,0,,,,,,,,,,,,,,,,,,,,,,,,,,,,,,,,,,,,,,,,,,,,,,,,,,,,,,,,,,,400.20921424299013,400.20921424299013,400.20921424299013,400.20921424299013,400.20921424299013,400.20921424299013,l,1,1.2869008796988055,401.5257817937527,402.5423853849061,,,,,,,,,,,,,,,,,,,,,,,,,,,,,,,,,,,,,,,,,580,2023-05-17_10h34.48.207,eb_02psyexp,2022.2.4,60.007136460675696,
153,0,153,0,,,,,,,,,,,,,,,,,,,,,,,,,,,,,,,,,,,,,,,,,,,,,,,,,,,,,,,,,,,402.5423853849061,402.5423853849061,402.5423853849061,402.5423853849061,402.5423853849061,402.5423853849061,s,1,0.7777392785064876,403.3422922958853,404.35889135929756,,,,,,,,,,,,,,,,,,,,,,,,,,,,,,,,,,,,,,,,,580,2023-05-17_10h34.48.207,eb_02psyexp,2022.2.4,60.007136460675696,
154,0,154,0,,,,,,,,,,,,,,,,,,,,,,,,,,,,,,,,,,,,,,,,,,,,,,,,,,,,,,,,,,,404.35889135929756,404.35889135929756,404.35889135929756,404.35889135929756,404.35889135929756,404.35889135929756,s,1,1.2332678423263133,405.60878526070155,406.6253963980125,,,,,,,,,,,,,,,,,,,,,,,,,,,,,,,,,,,,,,,,,580,2023-05-17_10h34.48.207,eb_02psyexp,2022.2.4,60.007136460675696,
155,0,155,0,,,,,,,,,,,,,,,,,,,,,,,,,,,,,,,,,,,,,,,,,,,,,,,,,,,,,,,,,,,406.6253963980125,406.6253963980125,406.6253963980125,406.6253963980125,406.6253963980125,406.6253963980125,s,1,0.9897996184881777,407.64196437131613,408.6582546472782,,,,,,,,,,,,,,,,,,,,,,,,,,,,,,,,,,,,,,,,,580,2023-05-17_10h34.48.207,eb_02psyexp,2022.2.4,60.007136460675696,
156,0,156,0,,,,,,,,,,,,,,,,,,,,,,,,,,,,,,,,,,,,,,,,,,,,,,,,,,,,,,,,,,,408.6582546472782,408.6582546472782,408.6582546472782,408.6582546472782,408.6582546472782,408.6582546472782,s,1,0.6128971646539867,409.2918407054385,410.30845938879065,,,,,,,,,,,,,,,,,,,,,,,,,,,,,,,,,,,,,,,,,580,2023-05-17_10h34.48.207,eb_02psyexp,2022.2.4,60.007136460675696,
157,0,157,0,,,,,,,,,,,,,,,,,,,,,,,,,,,,,,,,,,,,,,,,,,,,,,,,,,,,,,,,,,,410.30845938879065,410.30845938879065,410.30845938879065,410.30845938879065,410.30845938879065,410.30845938879065,l,1,0.7947237980552018,411.1250465596095,412.1582950945012,,,,,,,,,,,,,,,,,,,,,,,,,,,,,,,,,,,,,,,,,580,2023-05-17_10h34.48.207,eb_02psyexp,2022.2.4,60.007136460675696,
158,0,158,0,,,,,,,,,,,,,,,,,,,,,,,,,,,,,,,,,,,,,,,,,,,,,,,,,,,,,,,,,,,412.1582950945012,412.1582950945012,412.1582950945012,412.1582950945012,412.1582950945012,412.1582950945012,s,1,0.7528826398774981,412.9415612875018,413.9581838948652,,,,,,,,,,,,,,,,,,,,,,,,,,,,,,,,,,,,,,,,,580,2023-05-17_10h34.48.207,eb_02psyexp,2022.2.4,60.007136460675696,
159,0,159,0,,,,,,,,,,,,,,,,,,,,,,,,,,,,,,,,,,,,,,,,,,,,,,,,,,,,,,,,,,,413.9581838948652,413.9581838948652,413.9581838948652,413.9581838948652,413.9581838948652,413.9581838948652,s,1,1.2649947764584795,415.241384889232,416.2579872729257,,,,,,,,,,,,,,,,,,,,,,,,,,,,,,,,,,,,,,,,,580,2023-05-17_10h34.48.207,eb_02psyexp,2022.2.4,60.007136460675696,
160,0,160,0,,,,,,,,,,,,,,,,,,,,,,,,,,,,,,,,,,,,,,,,,,,,,,,,,,,,,,,,,,,416.2579872729257,416.2579872729257,416.2579872729257,416.2579872729257,416.2579872729257,416.2579872729257,l,1,1.4692180113634095,417.7578629128402,418.7744809924625,,,,,,,,,,,,,,,,,,,,,,,,,,,,,,,,,,,,,,,,,580,2023-05-17_10h34.48.207,eb_02psyexp,2022.2.4,60.007136460675696,
161,0,161,0,,,,,,,,,,,,,,,,,,,,,,,,,,,,,,,,,,,,,,,,,,,,,,,,,,,,,,,,,,,418.7744809924625,418.7744809924625,418.7744809924625,418.7744809924625,418.7744809924625,418.7744809924625,l,1,2.719769029528834,421.52424328948837,422.540519680595,,,,,,,,,,,,,,,,,,,,,,,,,,,,,,,,,,,,,,,,,580,2023-05-17_10h34.48.207,eb_02psyexp,2022.2.4,60.007136460675696,
162,0,162,0,,,,,,,,,,,,,,,,,,,,,,,,,,,,,,,,,,,,,,,,,,,,,,,,,,,,,,,,,,,422.540519680595,422.540519680595,422.540519680595,422.540519680595,422.540519680595,422.540519680595,s,1,3.025765966391191,425.5906482967548,426.62385608267505,,,,,,,,,,,,,,,,,,,,,,,,,,,,,,,,,,,,,,,,,580,2023-05-17_10h34.48.207,eb_02psyexp,2022.2.4,60.007136460675696,
163,0,163,0,,,,,,,,,,,,,,,,,,,,,,,,,,,,,,,,,,,,,,,,,,,,,,,,,,,,,,,,,,,426.62385608267505,426.62385608267505,426.62385608267505,426.62385608267505,426.62385608267505,426.62385608267505,s,1,0.6224246019264683,427.2738108964404,428.2904226373648,,,,,,,,,,,,,,,,,,,,,,,,,,,,,,,,,,,,,,,,,580,2023-05-17_10h34.48.207,eb_02psyexp,2022.2.4,60.007136460675696,
164,0,164,0,,,,,,,,,,,,,,,,,,,,,,,,,,,,,,,,,,,,,,,,,,,,,,,,,,,,,,,,,,,428.2904226373648,428.2904226373648,428.2904226373648,428.2904226373648,428.2904226373648,428.2904226373648,l,1,1.8838686045492068,430.2069244462764,431.2235440352233,,,,,,,,,,,,,,,,,,,,,,,,,,,,,,,,,,,,,,,,,580,2023-05-17_10h34.48.207,eb_02psyexp,2022.2.4,60.007136460675696,
165,0,165,0,,,,,,,,,,,,,,,,,,,,,,,,,,,,,,,,,,,,,,,,,,,,,,,,,,,,,,,,,,,431.2235440352233,431.2235440352233,431.2235440352233,431.2235440352233,431.2235440352233,431.2235440352233,l,1,1.0707448039902374,432.3234284889186,433.3400378151564,,,,,,,,,,,,,,,,,,,,,,,,,,,,,,,,,,,,,,,,,580,2023-05-17_10h34.48.207,eb_02psyexp,2022.2.4,60.007136460675696,
166,0,166,0,,,,,,,,,,,,,,,,,,,,,,,,,,,,,,,,,,,,,,,,,,,,,,,,,,,,,,,,,,,433.3400378151564,433.3400378151564,433.3400378151564,433.3400378151564,433.3400378151564,433.3400378151564,l,1,1.8182791826548055,435.18987321900204,436.2231247724267,,,,,,,,,,,,,,,,,,,,,,,,,,,,,,,,,,,,,,,,,580,2023-05-17_10h34.48.207,eb_02psyexp,2022.2.4,60.007136460675696,
167,0,167,0,,,,,,,,,,,,,,,,,,,,,,,,,,,,,,,,,,,,,,,,,,,,,,,,,,,,,,,,,,,436.2231247724267,436.2231247724267,436.2231247724267,436.2231247724267,436.2231247724267,436.2231247724267,s,1,1.0541943376883864,437.30636880989186,438.322968477034,,,,,,,,,,,,,,,,,,,,,,,,,,,,,,,,,,,,,,,,,580,2023-05-17_10h34.48.207,eb_02psyexp,2022.2.4,60.007136460675696,
168,0,168,0,,,,,,,,,,,,,,,,,,,,,,,,,,,,,,,,,,,,,,,,,,,,,,,,,,,,,,,,,,,438.322968477034,438.322968477034,438.322968477034,438.322968477034,438.322968477034,438.322968477034,l,1,1.666376260924153,440.00616307230666,441.03942307748366,,,,,,,,,,,,,,,,,,,,,,,,,,,,,,,,,,,,,,,,,580,2023-05-17_10h34.48.207,eb_02psyexp,2022.2.4,60.007136460675696,
169,0,169,0,,,,,,,,,,,,,,,,,,,,,,,,,,,,,,,,,,,,,,,,,,,,,,,,,,,,,,,,,,,441.03942307748366,441.03942307748366,441.03942307748366,441.03942307748366,441.03942307748366,441.03942307748366,s,1,0.8139208419015631,441.87269111163914,442.88931371900253,,,,,,,,,,,,,,,,,,,,,,,,,,,,,,,,,,,,,,,,,580,2023-05-17_10h34.48.207,eb_02psyexp,2022.2.4,60.007136460675696,
170,0,170,0,,,,,,,,,,,,,,,,,,,,,,,,,,,,,,,,,,,,,,,,,,,,,,,,,,,,,,,,,,,442.88931371900253,442.88931371900253,442.88931371900253,442.88931371900253,442.88931371900253,442.88931371900253,l,1,0.9560249675996602,443.8725392835913,444.8891573632136,,,,,,,,,,,,,,,,,,,,,,,,,,,,,,,,,,,,,,,,,580,2023-05-17_10h34.48.207,eb_02psyexp,2022.2.4,60.007136460675696,
171,0,171,0,,,,,,,,,,,,,,,,,,,,,,,,,,,,,,,,,,,,,,,,,,,,,,,,,,,,,,,,,,,444.8891573632136,444.8891573632136,444.8891573632136,444.8891573632136,444.8891573632136,444.8891573632136,l,1,0.9002020444022492,445.82239497150294,446.83898286661133,,,,,,,,,,,,,,,,,,,,,,,,,,,,,,,,,,,,,,,,,580,2023-05-17_10h34.48.207,eb_02psyexp,2022.2.4,60.007136460675696,
172,0,172,0,,,,,,,,,,,,,,,,,,,,,,,,,,,,,,,,,,,,,,,,,,,,,,,,,,,,,,,,,,,446.83898286661133,446.83898286661133,446.83898286661133,446.83898286661133,446.83898286661133,446.83898286661133,l,1,2.7264183742227033,449.5887762536295,450.6220362588065,,,,,,,,,,,,,,,,,,,,,,,,,,,,,,,,,,,,,,,,,580,2023-05-17_10h34.48.207,eb_02psyexp,2022.2.4,60.007136460675696,
173,0,173,0,,,,,,,,,,,,,,,,,,,,,,,,,,,,,,,,,,,,,,,,,,,,,,,,,,,,,,,,,,,450.6220362588065,450.6220362588065,450.6220362588065,450.6220362588065,450.6220362588065,450.6220362588065,s,1,1.7663893005810678,452.4052342347568,453.4218269594712,,,,,,,,,,,,,,,,,,,,,,,,,,,,,,,,,,,,,,,,,580,2023-05-17_10h34.48.207,eb_02psyexp,2022.2.4,60.007136460675696,
174,0,174,0,,,,,,,,,,,,,,,,,,,,,,,,,,,,,,,,,,,,,,,,,,,,,,,,,,,,,,,,,,,453.4218269594712,453.4218269594712,453.4218269594712,453.4218269594712,453.4218269594712,453.4218269594712,l,1,1.2386020482517779,454.688338638749,455.70467056927737,,,,,,,,,,,,,,,,,,,,,,,,,,,,,,,,,,,,,,,,,580,2023-05-17_10h34.48.207,eb_02psyexp,2022.2.4,60.007136460675696,
175,0,175,0,,,,,,,,,,,,,,,,,,,,,,,,,,,,,,,,,,,,,,,,,,,,,,,,,,,,,,,,,,,455.70467056927737,455.70467056927737,455.70467056927737,455.70467056927737,455.70467056927737,455.70467056927737,s,1,1.491781533230096,457.2215225788532,458.2381128887646,,,,,,,,,,,,,,,,,,,,,,,,,,,,,,,,,,,,,,,,,580,2023-05-17_10h34.48.207,eb_02psyexp,2022.2.4,60.007136460675696,
176,0,176,0,,,,,,,,,,,,,,,,,,,,,,,,,,,,,,,,,,,,,,,,,,,,,,,,,,,,,,,,,,,458.2381128887646,458.2381128887646,458.2381128887646,458.2381128887646,458.2381128887646,458.2381128887646,l,1,1.5663436013273895,459.8213279491756,460.83790165768005,,,,,,,,,,,,,,,,,,,,,,,,,,,,,,,,,,,,,,,,,580,2023-05-17_10h34.48.207,eb_02psyexp,2022.2.4,60.007136460675696,
177,0,177,0,,,,,,,,,,,,,,,,,,,,,,,,,,,,,,,,,,,,,,,,,,,,,,,,,,,,,,,,,,,460.83790165768005,460.83790165768005,460.83790165768005,460.83790165768005,460.83790165768005,460.83790165768005,l,1,0.7505668845260516,461.6211844520876,462.637785628438,,,,,,,,,,,,,,,,,,,,,,,,,,,,,,,,,,,,,,,,,580,2023-05-17_10h34.48.207,eb_02psyexp,2022.2.4,60.007136460675696,
178,0,178,0,,,,,,,,,,,,,,,,,,,,,,,,,,,,,,,,,,,,,,,,,,,,,,,,,,,,,,,,,,,462.637785628438,462.637785628438,462.637785628438,462.637785628438,462.637785628438,462.637785628438,l,1,0.982692374731414,463.6377005081158,464.65429232723545,,,,,,,,,,,,,,,,,,,,,,,,,,,,,,,,,,,,,,,,,580,2023-05-17_10h34.48.207,eb_02psyexp,2022.2.4,60.007136460675696,
179,0,179,0,,,,,,,,,,,,,,,,,,,,,,,,,,,,,,,,,,,,,,,,,,,,,,,,,,,,,,,,,,,464.65429232723545,464.65429232723545,464.65429232723545,464.65429232723545,464.65429232723545,464.65429232723545,l,1,0.6461967114591971,465.32089842366986,466.3541602398036,,,,,,,,,,,,,,,,,,,,,,,,,,,,,,,,,,,,,,,,,580,2023-05-17_10h34.48.207,eb_02psyexp,2022.2.4,60.007136460675696,
180,0,180,0,,,,,,,,,,,,,,,,,,,,,,,,,,,,,,,,,,,,,,,,,,,,,,,,,,,,,,,,,,,466.3541602398036,466.3541602398036,466.3541602398036,466.3541602398036,466.3541602398036,466.3541602398036,s,1,1.2663397979922593,467.6373959464254,468.6540098002879,,,,,,,,,,,,,,,,,,,,,,,,,,,,,,,,,,,,,,,,,580,2023-05-17_10h34.48.207,eb_02psyexp,2022.2.4,60.007136460675696,
181,0,181,0,,,,,,,,,,,,,,,,,,,,,,,,,,,,,,,,,,,,,,,,,,,,,,,,,,,,,,,,,,,468.6540098002879,468.6540098002879,468.6540098002879,468.6540098002879,468.6540098002879,468.6540098002879,s,1,0.6455012604128569,469.32059627678245,470.35389008850325,,,,,,,,,,,,,,,,,,,,,,,,,,,,,,,,,,,,,,,,,580,2023-05-17_10h34.48.207,eb_02psyexp,2022.2.4,60.007136460675696,
182,0,182,0,,,,,,,,,,,,,,,,,,,,,,,,,,,,,,,,,,,,,,,,,,,,,,,,,,,,,,,,,,,470.35389008850325,470.35389008850325,470.35389008850325,470.35389008850325,470.35389008850325,470.35389008850325,s,1,0.673611486912705,471.0538020704407,472.08706267923117,,,,,,,,,,,,,,,,,,,,,,,,,,,,,,,,,,,,,,,,,580,2023-05-17_10h34.48.207,eb_02psyexp,2022.2.4,60.007136460675696,
183,0,183,0,,,,,,,,,,,,,,,,,,,,,,,,,,,,,,,,,,,,,,,,,,,,,,,,,,,,,,,,,,,472.08706267923117,472.08706267923117,472.08706267923117,472.08706267923117,472.08706267923117,472.08706267923117,s,1,0.5964610974770039,472.7036750842817,473.73695712408517,,,,,,,,,,,,,,,,,,,,,,,,,,,,,,,,,,,,,,,,,580,2023-05-17_10h34.48.207,eb_02psyexp,2022.2.4,60.007136460675696,
184,0,184,0,,,,,,,,,,,,,,,,,,,,,,,,,,,,,,,,,,,,,,,,,,,,,,,,,,,,,,,,,,,473.73695712408517,473.73695712408517,473.73695712408517,473.73695712408517,473.73695712408517,473.73695712408517,l,1,2.242582780891098,476.0034202062525,477.03667477821,,,,,,,,,,,,,,,,,,,,,,,,,,,,,,,,,,,,,,,,,580,2023-05-17_10h34.48.207,eb_02psyexp,2022.2.4,60.007136460675696,
185,0,185,0,,,,,,,,,,,,,,,,,,,,,,,,,,,,,,,,,,,,,,,,,,,,,,,,,,,,,,,,,,,477.03667477821,477.03667477821,477.03667477821,477.03667477821,477.03667477821,477.03667477821,s,1,0.6228846139274538,477.6866199329961,478.70324314397294,,,,,,,,,,,,,,,,,,,,,,,,,,,,,,,,,,,,,,,,,580,2023-05-17_10h34.48.207,eb_02psyexp,2022.2.4,60.007136460675696,
186,0,186,0,,,,,,,,,,,,,,,,,,,,,,,,,,,,,,,,,,,,,,,,,,,,,,,,,,,,,,,,,,,478.70324314397294,478.70324314397294,478.70324314397294,478.70324314397294,478.70324314397294,478.70324314397294,s,1,0.876313422806561,479.603144380264,480.61976879870053,,,,,,,,,,,,,,,,,,,,,,,,,,,,,,,,,,,,,,,,,580,2023-05-17_10h34.48.207,eb_02psyexp,2022.2.4,60.007136460675696,
187,0,187,0,,,,,,,,,,,,,,,,,,,,,,,,,,,,,,,,,,,,,,,,,,,,,,,,,,,,,,,,,,,480.61976879870053,480.61976879870053,480.61976879870053,480.61976879870053,480.61976879870053,480.61976879870053,l,1,0.8158112975070253,481.453009666875,482.4862319412641,,,,,,,,,,,,,,,,,,,,,,,,,,,,,,,,,,,,,,,,,580,2023-05-17_10h34.48.207,eb_02psyexp,2022.2.4,60.007136460675696,
188,0,188,0,,,,,,,,,,,,,,,,,,,,,,,,,,,,,,,,,,,,,,,,,,,,,,,,,,,,,,,,,,,482.4862319412641,482.4862319412641,482.4862319412641,482.4862319412641,482.4862319412641,482.4862319412641,s,1,0.7253592000342906,483.23620371881407,484.25282300589606,,,,,,,,,,,,,,,,,,,,,,,,,,,,,,,,,,,,,,,,,580,2023-05-17_10h34.48.207,eb_02psyexp,2022.2.4,60.007136460675696,
189,0,189,0,,,,,,,,,,,,,,,,,,,,,,,,,,,,,,,,,,,,,,,,,,,,,,,,,,,,,,,,,,,484.25282300589606,484.25282300589606,484.25282300589606,484.25282300589606,484.25282300589606,484.25282300589606,l,1,0.9577560489997268,485.2360690959031,486.2693094811402,,,,,,,,,,,,,,,,,,,,,,,,,,,,,,,,,,,,,,,,,580,2023-05-17_10h34.48.207,eb_02psyexp,2022.2.4,60.007136460675696,
190,0,190,0,,,,,,,,,,,,,,,,,,,,,,,,,,,,,,,,,,,,,,,,,,,,,,,,,,,,,,,,,,,486.2693094811402,486.2693094811402,486.2693094811402,486.2693094811402,486.2693094811402,486.2693094811402,s,1,1.0052954383427277,487.3025658640545,488.3358168138657,,,,,,,,,,,,,,,,,,,,,,,,,,,,,,,,,,,,,,,,,580,2023-05-17_10h34.48.207,eb_02psyexp,2022.2.4,60.007136460675696,
191,0,191,0,,,,,,,,,,,,,,,,,,,,,,,,,,,,,,,,,,,,,,,,,,,,,,,,,,,,,,,,,,,488.3358168138657,488.3358168138657,488.3358168138657,488.3358168138657,488.3358168138657,488.3358168138657,s,1,1.5307898755418137,489.8857000299031,490.9189814660931,,,,,,,,,,,,,,,,,,,,,,,,,,,,,,,,,,,,,,,,,580,2023-05-17_10h34.48.207,eb_02psyexp,2022.2.4,60.007136460675696,
192,0,192,0,,,,,,,,,,,,,,,,,,,,,,,,,,,,,,,,,,,,,,,,,,,,,,,,,,,,,,,,,,,490.9189814660931,490.9189814660931,490.9189814660931,490.9189814660931,490.9189814660931,490.9189814660931,s,1,0.8356307458598167,491.78557772235945,492.81881116505247,,,,,,,,,,,,,,,,,,,,,,,,,,,,,,,,,,,,,,,,,580,2023-05-17_10h34.48.207,eb_02psyexp,2022.2.4,60.007136460675696,
193,0,193,0,,,,,,,,,,,,,,,,,,,,,,,,,,,,,,,,,,,,,,,,,,,,,,,,,,,,,,,,,,,492.81881116505247,492.81881116505247,492.81881116505247,492.81881116505247,492.81881116505247,492.81881116505247,s,1,1.9918265080777928,494.8353232971858,495.8685745487455,,,,,,,,,,,,,,,,,,,,,,,,,,,,,,,,,,,,,,,,,580,2023-05-17_10h34.48.207,eb_02psyexp,2022.2.4,60.007136460675696,
194,0,194,0,,,,,,,,,,,,,,,,,,,,,,,,,,,,,,,,,,,,,,,,,,,,,,,,,,,,,,,,,,,495.8685745487455,495.8685745487455,495.8685745487455,495.8685745487455,495.8685745487455,495.8685745487455,s,1,0.7340770890004933,496.63518010184634,497.66843588114716,,,,,,,,,,,,,,,,,,,,,,,,,,,,,,,,,,,,,,,,,580,2023-05-17_10h34.48.207,eb_02psyexp,2022.2.4,60.007136460675696,
195,0,195,0,,,,,,,,,,,,,,,,,,,,,,,,,,,,,,,,,,,,,,,,,,,,,,,,,,,,,,,,,,,497.66843588114716,497.66843588114716,497.66843588114716,497.66843588114716,497.66843588114716,497.66843588114716,s,1,0.9662040885305032,498.6516970634693,499.66799880948383,,,,,,,,,,,,,,,,,,,,,,,,,,,,,,,,,,,,,,,,,580,2023-05-17_10h34.48.207,eb_02psyexp,2022.2.4,60.007136460675696,
196,0,196,0,,,,,,,,,,,,,,,,,,,,,,,,,,,,,,,,,,,,,,,,,,,,,,,,,,,,,,,,,,,499.66799880948383,499.66799880948383,499.66799880948383,499.66799880948383,499.66799880948383,499.66799880948383,s,1,0.7896980778314173,500.4848851086572,501.5181375676766,,,,,,,,,,,,,,,,,,,,,,,,,,,,,,,,,,,,,,,,,580,2023-05-17_10h34.48.207,eb_02psyexp,2022.2.4,60.007136460675696,
197,0,197,0,,,,,,,,,,,,,,,,,,,,,,,,,,,,,,,,,,,,,,,,,,,,,,,,,,,,,,,,,,,501.5181375676766,501.5181375676766,501.5181375676766,501.5181375676766,501.5181375676766,501.5181375676766,l,1,1.5235549513017759,503.06802651879843,504.0846252804622,,,,,,,,,,,,,,,,,,,,,,,,,,,,,,,,,,,,,,,,,580,2023-05-17_10h34.48.207,eb_02psyexp,2022.2.4,60.007136460675696,
198,0,198,0,,,,,,,,,,,,,,,,,,,,,,,,,,,,,,,,,,,,,,,,,,,,,,,,,,,,,,,,,,,504.0846252804622,504.0846252804622,504.0846252804622,504.0846252804622,504.0846252804622,504.0846252804622,s,1,0.6370710297487676,504.75122292526066,505.7678237997461,,,,,,,,,,,,,,,,,,,,,,,,,,,,,,,,,,,,,,,,,580,2023-05-17_10h34.48.207,eb_02psyexp,2022.2.4,60.007136460675696,
199,0,199,0,,,,,0,0,0,0,,,,,,,,,,,,,,,,,,,,,,,,,,,,,,,,,,,,,,,,,,,,,,,,,,,505.7678237997461,505.7678237997461,505.7678237997461,505.7678237997461,505.7678237997461,505.7678237997461,l,1,0.9618994761258364,506.75110158347525,507.75099805067293,507.75099805067293,507.75099805067293,space,47.67201623576693,,,,,,,,,,,,,,,,,,,,,,,,,,,,,,,,,,,,,580,2023-05-17_10h34.48.207,eb_02psyexp,2022.2.4,60.007136460675696,
199,0,199,0,,,,,,,,,,,,,,,,,,,,,,,,,,,,,,,,,,,,,,,,,,,,,,,,,,,,,,,,,,,,,,,,,,,,,,,,,,,,,,,,,,,,,,,,,,,,,,,,,,,,,,,,,,,,,,580,2023-05-17_10h34.48.207,eb_02psyexp,2022.2.4,60.007136460675696,
200,0,200,0,,,,,,,,,,,,,,,,,,,,,,,,,,,,,,,,,,,,,,,,,,,,,,,,,,,,,,,,,,,555.4807009324431,555.4807009324431,555.4807009324431,555.4807009324431,555.4807009324431,555.4807009324431,s,1,1.3422954847337678,556.8472724374151,557.8638799525797,,,,,,,,,,,,,,,,,,,,,,,,,,,,,,,,,,,,,,,,,580,2023-05-17_10h34.48.207,eb_02psyexp,2022.2.4,60.007136460675696,
201,0,201,0,,,,,,,,,,,,,,,,,,,,,,,,,,,,,,,,,,,,,,,,,,,,,,,,,,,,,,,,,,,557.8638799525797,557.8638799525797,557.8638799525797,557.8638799525797,557.8638799525797,557.8638799525797,s,1,1.5031315110391006,559.3970678166952,560.4136858963175,,,,,,,,,,,,,,,,,,,,,,,,,,,,,,,,,,,,,,,,,580,2023-05-17_10h34.48.207,eb_02psyexp,2022.2.4,60.007136460675696,
202,0,202,0,,,,,,,,,,,,,,,,,,,,,,,,,,,,,,,,,,,,,,,,,,,,,,,,,,,,,,,,,,,560.4136858963175,560.4136858963175,560.4136858963175,560.4136858963175,560.4136858963175,560.4136858963175,l,1,0.9923619811888784,561.4302430032985,562.4468408593675,,,,,,,,,,,,,,,,,,,,,,,,,,,,,,,,,,,,,,,,,580,2023-05-17_10h34.48.207,eb_02psyexp,2022.2.4,60.007136460675696,
203,0,203,0,,,,,,,,,,,,,,,,,,,,,,,,,,,,,,,,,,,,,,,,,,,,,,,,,,,,,,,,,,,562.4468408593675,562.4468408593675,562.4468408593675,562.4468408593675,562.4468408593675,562.4468408593675,s,1,0.6871902887942269,563.1634512118762,564.1967184612295,,,,,,,,,,,,,,,,,,,,,,,,,,,,,,,,,,,,,,,,,580,2023-05-17_10h34.48.207,eb_02psyexp,2022.2.4,60.007136460675696,
204,0,204,0,,,,,,,,,,,,,,,,,,,,,,,,,,,,,,,,,,,,,,,,,,,,,,,,,,,,,,,,,,,564.1967184612295,564.1967184612295,564.1967184612295,564.1967184612295,564.1967184612295,564.1967184612295,l,1,0.8493185137631372,565.0632993234321,566.0799020089908,,,,,,,,,,,,,,,,,,,,,,,,,,,,,,,,,,,,,,,,,580,2023-05-17_10h34.48.207,eb_02psyexp,2022.2.4,60.007136460675696,
205,0,205,0,,,,,,,,,,,,,,,,,,,,,,,,,,,,,,,,,,,,,,,,,,,,,,,,,,,,,,,,,,,566.0799020089908,566.0799020089908,566.0799020089908,566.0799020089908,566.0799020089908,566.0799020089908,s,1,0.7261618060292676,566.8298315281281,567.8631066255039,,,,,,,,,,,,,,,,,,,,,,,,,,,,,,,,,,,,,,,,,580,2023-05-17_10h34.48.207,eb_02psyexp,2022.2.4,60.007136460675696,
206,0,206,0,,,,,,,,,,,,,,,,,,,,,,,,,,,,,,,,,,,,,,,,,,,,,,,,,,,,,,,,,,,567.8631066255039,567.8631066255039,567.8631066255039,567.8631066255039,567.8631066255039,567.8631066255039,s,1,0.7429443912114948,568.6297064435203,569.6459783070022,,,,,,,,,,,,,,,,,,,,,,,,,,,,,,,,,,,,,,,,,580,2023-05-17_10h34.48.207,eb_02psyexp,2022.2.4,60.007136460675696,
207,0,207,0,,,,,,,,,,,,,,,,,,,,,,,,,,,,,,,,,,,,,,,,,,,,,,,,,,,,,,,,,,,569.6459783070022,569.6459783070022,569.6459783070022,569.6459783070022,569.6459783070022,569.6459783070022,s,1,0.6641033675987273,570.3295858262572,571.3628210801398,,,,,,,,,,,,,,,,,,,,,,,,,,,,,,,,,,,,,,,,,580,2023-05-17_10h34.48.207,eb_02psyexp,2022.2.4,60.007136460675696,
208,0,208,0,,,,,,,,,,,,,,,,,,,,,,,,,,,,,,,,,,,,,,,,,,,,,,,,,,,,,,,,,,,571.3628210801398,571.3628210801398,571.3628210801398,571.3628210801398,571.3628210801398,571.3628210801398,s,0,0.9952732768142596,572.3794125973945,573.3960041146493,,,,,,,,,,,,,,,,,,,,,,,,,,,,,,,,,,,,,,,,,580,2023-05-17_10h34.48.207,eb_02psyexp,2022.2.4,60.007136460675696,
209,0,209,0,,,,,,,,,,,,,,,,,,,,,,,,,,,,,,,,,,,,,,,,,,,,,,,,,,,,,,,,,,,573.3960041146493,573.3960041146493,573.3960041146493,573.3960041146493,573.3960041146493,573.3960041146493,s,1,0.8980879216687754,574.3125970808323,575.3458525582682,,,,,,,,,,,,,,,,,,,,,,,,,,,,,,,,,,,,,,,,,580,2023-05-17_10h34.48.207,eb_02psyexp,2022.2.4,60.007136460675696,
210,0,210,0,,,,,,,,,,,,,,,,,,,,,,,,,,,,,,,,,,,,,,,,,,,,,,,,,,,,,,,,,,,575.3458525582682,575.3458525582682,575.3458525582682,575.3458525582682,575.3458525582682,575.3458525582682,l,1,0.7642631040653214,576.1291272029048,577.1457193238894,,,,,,,,,,,,,,,,,,,,,,,,,,,,,,,,,,,,,,,,,580,2023-05-17_10h34.48.207,eb_02psyexp,2022.2.4,60.007136460675696,
211,0,211,0,,,,,,,,,,,,,,,,,,,,,,,,,,,,,,,,,,,,,,,,,,,,,,,,,,,,,,,,,,,577.1457193238894,577.1457193238894,577.1457193238894,577.1457193238894,577.1457193238894,577.1457193238894,s,1,0.7393844305770472,577.9123227640521,578.9289411456557,,,,,,,,,,,,,,,,,,,,,,,,,,,,,,,,,,,,,,,,,580,2023-05-17_10h34.48.207,eb_02psyexp,2022.2.4,60.007136460675696,
212,0,212,0,,,,,,,,,,,,,,,,,,,,,,,,,,,,,,,,,,,,,,,,,,,,,,,,,,,,,,,,,,,578.9289411456557,578.9289411456557,578.9289411456557,578.9289411456557,578.9289411456557,578.9289411456557,l,1,0.5561753467191011,579.5122117454885,580.5454584694235,,,,,,,,,,,,,,,,,,,,,,,,,,,,,,,,,,,,,,,,,580,2023-05-17_10h34.48.207,eb_02psyexp,2022.2.4,60.007136460675696,
213,0,213,0,,,,,,,,,,,,,,,,,,,,,,,,,,,,,,,,,,,,,,,,,,,,,,,,,,,,,,,,,,,580.5454584694235,580.5454584694235,580.5454584694235,580.5454584694235,580.5454584694235,580.5454584694235,s,1,0.6676621208898723,581.2453936934471,582.2786567170406,,,,,,,,,,,,,,,,,,,,,,,,,,,,,,,,,,,,,,,,,580,2023-05-17_10h34.48.207,eb_02psyexp,2022.2.4,60.007136460675696,
214,0,214,0,,,,,,,,,,,,,,,,,,,,,,,,,,,,,,,,,,,,,,,,,,,,,,,,,,,,,,,,,,,582.2786567170406,582.2786567170406,582.2786567170406,582.2786567170406,582.2786567170406,582.2786567170406,s,1,1.8145040065282956,584.1118501954479,585.1281392640667,,,,,,,,,,,,,,,,,,,,,,,,,,,,,,,,,,,,,,,,,580,2023-05-17_10h34.48.207,eb_02psyexp,2022.2.4,60.007136460675696,
215,0,215,0,,,,,,,,,,,,,,,,,,,,,,,,,,,,,,,,,,,,,,,,,,,,,,,,,,,,,,,,,,,585.1281392640667,585.1281392640667,585.1281392640667,585.1281392640667,585.1281392640667,585.1281392640667,s,1,2.0690182503312826,587.2282823988935,588.2615481391549,,,,,,,,,,,,,,,,,,,,,,,,,,,,,,,,,,,,,,,,,580,2023-05-17_10h34.48.207,eb_02psyexp,2022.2.4,60.007136460675696,
216,0,216,0,,,,,,,,,,,,,,,,,,,,,,,,,,,,,,,,,,,,,,,,,,,,,,,,,,,,,,,,,,,588.2615481391549,588.2615481391549,588.2615481391549,588.2615481391549,588.2615481391549,588.2615481391549,l,1,1.2236429090844467,589.5114495867165,590.5446966125164,,,,,,,,,,,,,,,,,,,,,,,,,,,,,,,,,,,,,,,,,580,2023-05-17_10h34.48.207,eb_02psyexp,2022.2.4,60.007136460675696,
217,0,217,0,,,,,,,,,,,,,,,,,,,,,,,,,,,,,,,,,,,,,,,,,,,,,,,,,,,,,,,,,,,590.5446966125164,590.5446966125164,590.5446966125164,590.5446966125164,590.5446966125164,590.5446966125164,s,1,0.7405045776395127,591.3112985434709,592.3445715279086,,,,,,,,,,,,,,,,,,,,,,,,,,,,,,,,,,,,,,,,,580,2023-05-17_10h34.48.207,eb_02psyexp,2022.2.4,60.007136460675696,
218,0,218,0,,,,,,,,,,,,,,,,,,,,,,,,,,,,,,,,,,,,,,,,,,,,,,,,,,,,,,,,,,,592.3445715279086,592.3445715279086,592.3445715279086,592.3445715279086,592.3445715279086,592.3445715279086,l,1,0.6436231804545969,593.0111912073335,594.044430083246,,,,,,,,,,,,,,,,,,,,,,,,,,,,,,,,,,,,,,,,,580,2023-05-17_10h34.48.207,eb_02psyexp,2022.2.4,60.007136460675696,
219,0,219,0,,,,,,,,,,,,,,,,,,,,,,,,,,,,,,,,,,,,,,,,,,,,,,,,,,,,,,,,,,,594.044430083246,594.044430083246,594.044430083246,594.044430083246,594.044430083246,594.044430083246,s,1,0.5517871233168989,594.6277157753939,595.6443151406711,,,,,,,,,,,,,,,,,,,,,,,,,,,,,,,,,,,,,,,,,580,2023-05-17_10h34.48.207,eb_02psyexp,2022.2.4,60.007136460675696,
220,0,220,0,,,,,,,,,,,,,,,,,,,,,,,,,,,,,,,,,,,,,,,,,,,,,,,,,,,,,,,,,,,595.6443151406711,595.6443151406711,595.6443151406711,595.6443151406711,595.6443151406711,595.6443151406711,l,1,0.7119135118555278,596.3775794924004,597.3942150790244,,,,,,,,,,,,,,,,,,,,,,,,,,,,,,,,,,,,,,,,,580,2023-05-17_10h34.48.207,eb_02psyexp,2022.2.4,60.007136460675696,
221,0,221,0,,,,,,,,,,,,,,,,,,,,,,,,,,,,,,,,,,,,,,,,,,,,,,,,,,,,,,,,,,,597.3942150790244,597.3942150790244,597.3942150790244,597.3942150790244,597.3942150790244,597.3942150790244,l,1,0.7460111370310187,598.1607759590261,599.1773786447011,,,,,,,,,,,,,,,,,,,,,,,,,,,,,,,,,,,,,,,,,580,2023-05-17_10h34.48.207,eb_02psyexp,2022.2.4,60.007136460675696,
222,0,222,0,,,,,,,,,,,,,,,,,,,,,,,,,,,,,,,,,,,,,,,,,,,,,,,,,,,,,,,,,,,599.1773786447011,599.1773786447011,599.1773786447011,599.1773786447011,599.1773786447011,599.1773786447011,l,1,0.5228598021203652,599.7273246445693,600.7439255190548,,,,,,,,,,,,,,,,,,,,,,,,,,,,,,,,,,,,,,,,,580,2023-05-17_10h34.48.207,eb_02psyexp,2022.2.4,60.007136460675696,
223,0,223,0,,,,,,,,,,,,,,,,,,,,,,,,,,,,,,,,,,,,,,,,,,,,,,,,,,,,,,,,,,,600.7439255190548,600.7439255190548,600.7439255190548,600.7439255190548,600.7439255190548,600.7439255190548,l,1,0.6283618942834437,601.3938664479647,602.4271225291304,,,,,,,,,,,,,,,,,,,,,,,,,,,,,,,,,,,,,,,,,580,2023-05-17_10h34.48.207,eb_02psyexp,2022.2.4,60.007136460675696,
224,0,224,0,,,,,,,,,,,,,,,,,,,,,,,,,,,,,,,,,,,,,,,,,,,,,,,,,,,,,,,,,,,602.4271225291304,602.4271225291304,602.4271225291304,602.4271225291304,602.4271225291304,602.4271225291304,s,1,0.9851536193164065,603.4437019726029,604.4603279002476,,,,,,,,,,,,,,,,,,,,,,,,,,,,,,,,,,,,,,,,,580,2023-05-17_10h34.48.207,eb_02psyexp,2022.2.4,60.007136460675696,
225,0,225,0,,,,,,,,,,,,,,,,,,,,,,,,,,,,,,,,,,,,,,,,,,,,,,,,,,,,,,,,,,,604.4603279002476,604.4603279002476,604.4603279002476,604.4603279002476,604.4603279002476,604.4603279002476,l,1,1.2399307701271027,605.7265941795195,606.7601252414752,,,,,,,,,,,,,,,,,,,,,,,,,,,,,,,,,,,,,,,,,580,2023-05-17_10h34.48.207,eb_02psyexp,2022.2.4,60.007136460675696,
226,0,226,0,,,,,,,,,,,,,,,,,,,,,,,,,,,,,,,,,,,,,,,,,,,,,,,,,,,,,,,,,,,606.7601252414752,606.7601252414752,606.7601252414752,606.7601252414752,606.7601252414752,606.7601252414752,s,1,1.7071579430485144,608.4933259038953,609.5096288572531,,,,,,,,,,,,,,,,,,,,,,,,,,,,,,,,,,,,,,,,,580,2023-05-17_10h34.48.207,eb_02psyexp,2022.2.4,60.007136460675696,
227,0,227,0,,,,,,,,,,,,,,,,,,,,,,,,,,,,,,,,,,,,,,,,,,,,,,,,,,,,,,,,,,,609.5096288572531,609.5096288572531,609.5096288572531,609.5096288572531,609.5096288572531,609.5096288572531,s,1,0.6456576162017882,610.176531063742,611.2098149146186,,,,,,,,,,,,,,,,,,,,,,,,,,,,,,,,,,,,,,,,,580,2023-05-17_10h34.48.207,eb_02psyexp,2022.2.4,60.007136460675696,
228,0,228,0,,,,,,,,,,,,,,,,,,,,,,,,,,,,,,,,,,,,,,,,,,,,,,,,,,,,,,,,,,,611.2098149146186,611.2098149146186,611.2098149146186,611.2098149146186,611.2098149146186,611.2098149146186,s,1,0.665502721327357,611.8930638419697,612.9096683386015,,,,,,,,,,,,,,,,,,,,,,,,,,,,,,,,,,,,,,,,,580,2023-05-17_10h34.48.207,eb_02psyexp,2022.2.4,60.007136460675696,
229,0,229,0,,,,,,,,,,,,,,,,,,,,,,,,,,,,,,,,,,,,,,,,,,,,,,,,,,,,,,,,,,,612.9096683386015,612.9096683386015,612.9096683386015,612.9096683386015,612.9096683386015,612.9096683386015,s,1,0.5896587171591818,613.5262804417871,614.5428936919197,,,,,,,,,,,,,,,,,,,,,,,,,,,,,,,,,,,,,,,,,580,2023-05-17_10h34.48.207,eb_02psyexp,2022.2.4,60.007136460675696,
230,0,230,0,,,,,,,,,,,,,,,,,,,,,,,,,,,,,,,,,,,,,,,,,,,,,,,,,,,,,,,,,,,614.5428936919197,614.5428936919197,614.5428936919197,614.5428936919197,614.5428936919197,614.5428936919197,l,1,1.5164205415640026,616.07610147784,617.0926935988246,,,,,,,,,,,,,,,,,,,,,,,,,,,,,,,,,,,,,,,,,580,2023-05-17_10h34.48.207,eb_02psyexp,2022.2.4,60.007136460675696,
231,0,231,0,,,,,,,,,,,,,,,,,,,,,,,,,,,,,,,,,,,,,,,,,,,,,,,,,,,,,,,,,,,617.0926935988246,617.0926935988246,617.0926935988246,617.0926935988246,617.0926935988246,617.0926935988246,l,1,2.110683734761551,619.2258465093328,620.2591071181232,,,,,,,,,,,,,,,,,,,,,,,,,,,,,,,,,,,,,,,,,580,2023-05-17_10h34.48.207,eb_02psyexp,2022.2.4,60.007136460675696,
232,0,232,0,,,,,,,,,,,,,,,,,,,,,,,,,,,,,,,,,,,,,,,,,,,,,,,,,,,,,,,,,,,620.2591071181232,620.2591071181232,620.2591071181232,620.2591071181232,620.2591071181232,620.2591071181232,s,1,3.0402599624358118,623.3255290286615,624.3421465046704,,,,,,,,,,,,,,,,,,,,,,,,,,,,,,,,,,,,,,,,,580,2023-05-17_10h34.48.207,eb_02psyexp,2022.2.4,60.007136460675696,
233,0,233,0,,,,,,,,,,,,,,,,,,,,,,,,,,,,,,,,,,,,,,,,,,,,,,,,,,,,,,,,,,,624.3421465046704,624.3421465046704,624.3421465046704,624.3421465046704,624.3421465046704,624.3421465046704,l,1,2.076233856496401,626.4419612322235,627.4752173132729,,,,,,,,,,,,,,,,,,,,,,,,,,,,,,,,,,,,,,,,,580,2023-05-17_10h34.48.207,eb_02psyexp,2022.2.4,60.007136460675696,
234,0,234,0,,,,,,,,,,,,,,,,,,,,,,,,,,,,,,,,,,,,,,,,,,,,,,,,,,,,,,,,,,,627.4752173132729,627.4752173132729,627.4752173132729,627.4752173132729,627.4752173132729,627.4752173132729,s,1,1.0631935462588444,628.5584731227718,629.5750124208862,,,,,,,,,,,,,,,,,,,,,,,,,,,,,,,,,,,,,,,,,580,2023-05-17_10h34.48.207,eb_02psyexp,2022.2.4,60.007136460675696,
235,0,235,0,,,,,,,,,,,,,,,,,,,,,,,,,,,,,,,,,,,,,,,,,,,,,,,,,,,,,,,,,,,629.5750124208862,629.5750124208862,629.5750124208862,629.5750124208862,629.5750124208862,629.5750124208862,l,1,1.4594149894546717,631.0582772253547,632.0915266658412,,,,,,,,,,,,,,,,,,,,,,,,,,,,,,,,,,,,,,,,,580,2023-05-17_10h34.48.207,eb_02psyexp,2022.2.4,60.007136460675696,
236,0,236,0,,,,,,,,,,,,,,,,,,,,,,,,,,,,,,,,,,,,,,,,,,,,,,,,,,,,,,,,,,,632.0915266658412,632.0915266658412,632.0915266658412,632.0915266658412,632.0915266658412,632.0915266658412,s,1,0.7109394578728825,632.8248033932177,633.8414211709751,,,,,,,,,,,,,,,,,,,,,,,,,,,,,,,,,,,,,,,,,580,2023-05-17_10h34.48.207,eb_02psyexp,2022.2.4,60.007136460675696,
237,0,237,0,,,,,,,,,,,,,,,,,,,,,,,,,,,,,,,,,,,,,,,,,,,,,,,,,,,,,,,,,,,633.8414211709751,633.8414211709751,633.8414211709751,633.8414211709751,633.8414211709751,633.8414211709751,s,1,0.8330252193845809,634.6913392804563,635.7243077032035,,,,,,,,,,,,,,,,,,,,,,,,,,,,,,,,,,,,,,,,,580,2023-05-17_10h34.48.207,eb_02psyexp,2022.2.4,60.007136460675696,
238,0,238,0,,,,,,,,,,,,,,,,,,,,,,,,,,,,,,,,,,,,,,,,,,,,,,,,,,,,,,,,,,,635.7243077032035,635.7243077032035,635.7243077032035,635.7243077032035,635.7243077032035,635.7243077032035,s,1,2.534164805081673,638.2910688876873,639.3076745916624,,,,,,,,,,,,,,,,,,,,,,,,,,,,,,,,,,,,,,,,,580,2023-05-17_10h34.48.207,eb_02psyexp,2022.2.4,60.007136460675696,
239,0,239,0,,,,,,,,,,,,,,,,,,,,,,,,,,,,,,,,,,,,,,,,,,,,,,,,,,,,,,,,,,,639.3076745916624,639.3076745916624,639.3076745916624,639.3076745916624,639.3076745916624,639.3076745916624,s,1,0.9817968005081639,640.3075674367137,641.3241852144711,,,,,,,,,,,,,,,,,,,,,,,,,,,,,,,,,,,,,,,,,580,2023-05-17_10h34.48.207,eb_02psyexp,2022.2.4,60.007136460675696,
240,0,240,0,,,,,,,,,,,,,,,,,,,,,,,,,,,,,,,,,,,,,,,,,,,,,,,,,,,,,,,,,,,641.3241852144711,641.3241852144711,641.3241852144711,641.3241852144711,641.3241852144711,641.3241852144711,l,1,0.8292880755616352,642.1740957777947,643.1906990670832,,,,,,,,,,,,,,,,,,,,,,,,,,,,,,,,,,,,,,,,,580,2023-05-17_10h34.48.207,eb_02psyexp,2022.2.4,60.007136460675696,
241,0,241,0,,,,,,,,,,,,,,,,,,,,,,,,,,,,,,,,,,,,,,,,,,,,,,,,,,,,,,,,,,,643.1906990670832,643.1906990670832,643.1906990670832,643.1906990670832,643.1906990670832,643.1906990670832,l,1,0.8267779322341084,644.0406232133973,645.0572144289035,,,,,,,,,,,,,,,,,,,,,,,,,,,,,,,,,,,,,,,,,580,2023-05-17_10h34.48.207,eb_02psyexp,2022.2.4,60.007136460675696,
242,0,242,0,,,,,,,,,,,,,,,,,,,,,,,,,,,,,,,,,,,,,,,,,,,,,,,,,,,,,,,,,,,645.0572144289035,645.0572144289035,645.0572144289035,645.0572144289035,645.0572144289035,645.0572144289035,s,1,1.200299117830582,646.2904461813159,647.3237025642302,,,,,,,,,,,,,,,,,,,,,,,,,,,,,,,,,,,,,,,,,580,2023-05-17_10h34.48.207,eb_02psyexp,2022.2.4,60.007136460675696,
243,0,243,0,,,,,,,,,,,,,,,,,,,,,,,,,,,,,,,,,,,,,,,,,,,,,,,,,,,,,,,,,,,647.3237025642302,647.3237025642302,647.3237025642302,647.3237025642302,647.3237025642302,647.3237025642302,s,1,0.6858039144426584,648.0403077852679,649.0568999063689,,,,,,,,,,,,,,,,,,,,,,,,,,,,,,,,,,,,,,,,,580,2023-05-17_10h34.48.207,eb_02psyexp,2022.2.4,60.007136460675696,
244,0,244,0,,,,,,,,,,,,,,,,,,,,,,,,,,,,,,,,,,,,,,,,,,,,,,,,,,,,,,,,,,,649.0568999063689,649.0568999063689,649.0568999063689,649.0568999063689,649.0568999063689,649.0568999063689,l,1,0.7926338228862733,649.8735196762718,650.9067603633739,,,,,,,,,,,,,,,,,,,,,,,,,,,,,,,,,,,,,,,,,580,2023-05-17_10h34.48.207,eb_02psyexp,2022.2.4,60.007136460675696,
245,0,245,0,,,,,,,,,,,,,,,,,,,,,,,,,,,,,,,,,,,,,,,,,,,,,,,,,,,,,,,,,,,650.9067603633739,650.9067603633739,650.9067603633739,650.9067603633739,650.9067603633739,650.9067603633739,s,1,0.8147826094646007,651.7400314159459,652.7566476846114,,,,,,,,,,,,,,,,,,,,,,,,,,,,,,,,,,,,,,,,,580,2023-05-17_10h34.48.207,eb_02psyexp,2022.2.4,60.007136460675696,
246,0,246,0,,,,,,,,,,,,,,,,,,,,,,,,,,,,,,,,,,,,,,,,,,,,,,,,,,,,,,,,,,,652.7566476846114,652.7566476846114,652.7566476846114,652.7566476846114,652.7566476846114,652.7566476846114,s,1,0.8528914536582306,653.639886168181,654.6561655777041,,,,,,,,,,,,,,,,,,,,,,,,,,,,,,,,,,,,,,,,,580,2023-05-17_10h34.48.207,eb_02psyexp,2022.2.4,60.007136460675696,
247,0,247,0,,,,,,,,,,,,,,,,,,,,,,,,,,,,,,,,,,,,,,,,,,,,,,,,,,,,,,,,,,,654.6561655777041,654.6561655777041,654.6561655777041,654.6561655777041,654.6561655777041,654.6561655777041,s,1,0.8243634735699743,655.5064072649693,656.5230066302465,,,,,,,,,,,,,,,,,,,,,,,,,,,,,,,,,,,,,,,,,580,2023-05-17_10h34.48.207,eb_02psyexp,2022.2.4,60.007136460675696,
248,0,248,0,,,,,,,,,,,,,,,,,,,,,,,,,,,,,,,,,,,,,,,,,,,,,,,,,,,,,,,,,,,656.5230066302465,656.5230066302465,656.5230066302465,656.5230066302465,656.5230066302465,656.5230066302465,s,1,2.4855363589012995,659.0394783151569,660.0727283593733,,,,,,,,,,,,,,,,,,,,,,,,,,,,,,,,,,,,,,,,,580,2023-05-17_10h34.48.207,eb_02psyexp,2022.2.4,60.007136460675696,
249,0,249,0,,,,,,,,,,,,,,,,,,,,,,,,,,,,,,,,,,,,,,,,,,,,,,,,,,,,,,,,,,,660.0727283593733,660.0727283593733,660.0727283593733,660.0727283593733,660.0727283593733,660.0727283593733,s,1,0.4798918563174084,660.5726918360451,661.5892854662379,,,,,,,,,,,,,,,,,,,,,,,,,,,,,,,,,,,,,,,,,580,2023-05-17_10h34.48.207,eb_02psyexp,2022.2.4,60.007136460675696,
250,0,250,0,,,,,,,,,,,,,,,,,,,,,,,,,,,,,,,,,,,,,,,,,,,,,,,,,,,,,,,,,,,661.5892854662379,661.5892854662379,661.5892854662379,661.5892854662379,661.5892854662379,661.5892854662379,l,1,0.707320939283818,662.322578191408,663.3391715197358,,,,,,,,,,,,,,,,,,,,,,,,,,,,,,,,,,,,,,,,,580,2023-05-17_10h34.48.207,eb_02psyexp,2022.2.4,60.007136460675696,
251,0,251,0,,,,,,,,,,,,,,,,,,,,,,,,,,,,,,,,,,,,,,,,,,,,,,,,,,,,,,,,,,,663.3391715197358,663.3391715197358,663.3391715197358,663.3391715197358,663.3391715197358,663.3391715197358,s,1,0.5814434002386406,663.9390952133108,664.9556927675148,,,,,,,,,,,,,,,,,,,,,,,,,,,,,,,,,,,,,,,,,580,2023-05-17_10h34.48.207,eb_02psyexp,2022.2.4,60.007136460675696,
252,0,252,0,,,,,,,,,,,,,,,,,,,,,,,,,,,,,,,,,,,,,,,,,,,,,,,,,,,,,,,,,,,664.9556927675148,664.9556927675148,664.9556927675148,664.9556927675148,664.9556927675148,664.9556927675148,l,1,0.6289015932707116,665.6056493924698,666.6389069827273,,,,,,,,,,,,,,,,,,,,,,,,,,,,,,,,,,,,,,,,,580,2023-05-17_10h34.48.207,eb_02psyexp,2022.2.4,60.007136460675696,
253,0,253,0,,,,,,,,,,,,,,,,,,,,,,,,,,,,,,,,,,,,,,,,,,,,,,,,,,,,,,,,,,,666.6389069827273,666.6389069827273,666.6389069827273,666.6389069827273,666.6389069827273,666.6389069827273,s,1,1.0257083140313625,667.688823100063,668.705410391558,,,,,,,,,,,,,,,,,,,,,,,,,,,,,,,,,,,,,,,,,580,2023-05-17_10h34.48.207,eb_02psyexp,2022.2.4,60.007136460675696,
254,0,254,0,,,,,,,,,,,,,,,,,,,,,,,,,,,,,,,,,,,,,,,,,,,,,,,,,,,,,,,,,,,668.705410391558,668.705410391558,668.705410391558,668.705410391558,668.705410391558,668.705410391558,l,1,0.7352231947006658,669.4720171520021,670.5052662906237,,,,,,,,,,,,,,,,,,,,,,,,,,,,,,,,,,,,,,,,,580,2023-05-17_10h34.48.207,eb_02psyexp,2022.2.4,60.007136460675696,
255,0,255,0,,,,,,,,,,,,,,,,,,,,,,,,,,,,,,,,,,,,,,,,,,,,,,,,,,,,,,,,,,,670.5052662906237,670.5052662906237,670.5052662906237,670.5052662906237,670.5052662906237,670.5052662906237,s,1,1.5023219626164064,672.0384804153582,673.0550903452095,,,,,,,,,,,,,,,,,,,,,,,,,,,,,,,,,,,,,,,,,580,2023-05-17_10h34.48.207,eb_02psyexp,2022.2.4,60.007136460675696,
256,0,256,0,,,,,,,,,,,,,,,,,,,,,,,,,,,,,,,,,,,,,,,,,,,,,,,,,,,,,,,,,,,673.0550903452095,673.0550903452095,673.0550903452095,673.0550903452095,673.0550903452095,673.0550903452095,l,1,0.6885679096449167,673.7716846998082,674.7882807448041,,,,,,,,,,,,,,,,,,,,,,,,,,,,,,,,,,,,,,,,,580,2023-05-17_10h34.48.207,eb_02psyexp,2022.2.4,60.007136460675696,
257,0,257,0,,,,,,,,,,,,,,,,,,,,,,,,,,,,,,,,,,,,,,,,,,,,,,,,,,,,,,,,,,,674.7882807448041,674.7882807448041,674.7882807448041,674.7882807448041,674.7882807448041,674.7882807448041,l,1,1.1073984530521557,675.9215254161973,676.938108481816,,,,,,,,,,,,,,,,,,,,,,,,,,,,,,,,,,,,,,,,,580,2023-05-17_10h34.48.207,eb_02psyexp,2022.2.4,60.007136460675696,
258,0,258,0,,,,,,,,,,,,,,,,,,,,,,,,,,,,,,,,,,,,,,,,,,,,,,,,,,,,,,,,,,,676.938108481816,676.938108481816,676.938108481816,676.938108481816,676.938108481816,676.938108481816,l,1,1.3575824276776984,678.3213388156146,679.4212839402026,,,,,,,,,,,,,,,,,,,,,,,,,,,,,,,,,,,,,,,,,580,2023-05-17_10h34.48.207,eb_02psyexp,2022.2.4,60.007136460675696,
259,0,259,0,,,,,,,,,,,,,,,,,,,,,,,,,,,,,,,,,,,,,,,,,,,,,,,,,,,,,,,,,,,679.4212839402026,679.4212839402026,679.4212839402026,679.4212839402026,679.4212839402026,679.4212839402026,s,1,0.882413107668981,680.3211836672854,681.3377769956132,,,,,,,,,,,,,,,,,,,,,,,,,,,,,,,,,,,,,,,,,580,2023-05-17_10h34.48.207,eb_02psyexp,2022.2.4,60.007136460675696,
260,0,260,0,,,,,,,,,,,,,,,,,,,,,,,,,,,,,,,,,,,,,,,,,,,,,,,,,,,,,,,,,,,681.3377769956132,681.3377769956132,681.3377769956132,681.3377769956132,681.3377769956132,681.3377769956132,s,1,0.8459124941146001,682.2043874386,683.2376308422536,,,,,,,,,,,,,,,,,,,,,,,,,,,,,,,,,,,,,,,,,580,2023-05-17_10h34.48.207,eb_02psyexp,2022.2.4,60.007136460675696,
261,0,261,0,,,,,,,,,,,,,,,,,,,,,,,,,,,,,,,,,,,,,,,,,,,,,,,,,,,,,,,,,,,683.2376308422536,683.2376308422536,683.2376308422536,683.2376308422536,683.2376308422536,683.2376308422536,s,1,0.5460952310822904,683.8042558945017,684.8208609948633,,,,,,,,,,,,,,,,,,,,,,,,,,,,,,,,,,,,,,,,,580,2023-05-17_10h34.48.207,eb_02psyexp,2022.2.4,60.007136460675696,
262,0,262,0,,,,,,,,,,,,,,,,,,,,,,,,,,,,,,,,,,,,,,,,,,,,,,,,,,,,,,,,,,,684.8208609948633,684.8208609948633,684.8208609948633,684.8208609948633,684.8208609948633,684.8208609948633,s,1,0.8028630500193685,685.6541166533716,686.6873808843084,,,,,,,,,,,,,,,,,,,,,,,,,,,,,,,,,,,,,,,,,580,2023-05-17_10h34.48.207,eb_02psyexp,2022.2.4,60.007136460675696,
263,0,263,0,,,,,,,,,,,,,,,,,,,,,,,,,,,,,,,,,,,,,,,,,,,,,,,,,,,,,,,,,,,686.6873808843084,686.6873808843084,686.6873808843084,686.6873808843084,686.6873808843084,686.6873808843084,s,1,0.9913489893078804,687.7039542909479,688.7205548635684,,,,,,,,,,,,,,,,,,,,,,,,,,,,,,,,,,,,,,,,,580,2023-05-17_10h34.48.207,eb_02psyexp,2022.2.4,60.007136460675696,
264,0,264,0,,,,,,,,,,,,,,,,,,,,,,,,,,,,,,,,,,,,,,,,,,,,,,,,,,,,,,,,,,,688.7205548635684,688.7205548635684,688.7205548635684,688.7205548635684,688.7205548635684,688.7205548635684,l,1,1.3502014104742557,690.103776745731,691.137029204634,,,,,,,,,,,,,,,,,,,,,,,,,,,,,,,,,,,,,,,,,580,2023-05-17_10h34.48.207,eb_02psyexp,2022.2.4,60.007136460675696,
265,0,265,0,,,,,,,,,,,,,,,,,,,,,,,,,,,,,,,,,,,,,,,,,,,,,,,,,,,,,,,,,,,691.137029204634,691.137029204634,691.137029204634,691.137029204634,691.137029204634,691.137029204634,s,1,2.429751166375354,693.5868408231763,694.6034582991851,,,,,,,,,,,,,,,,,,,,,,,,,,,,,,,,,,,,,,,,,580,2023-05-17_10h34.48.207,eb_02psyexp,2022.2.4,60.007136460675696,
266,0,266,0,,,,,,,,,,,,,,,,,,,,,,,,,,,,,,,,,,,,,,,,,,,,,,,,,,,,,,,,,,,694.6034582991851,694.6034582991851,694.6034582991851,694.6034582991851,694.6034582991851,694.6034582991851,l,1,0.803321250830777,695.43669735617,696.4699579649605,,,,,,,,,,,,,,,,,,,,,,,,,,,,,,,,,,,,,,,,,580,2023-05-17_10h34.48.207,eb_02psyexp,2022.2.4,60.007136460675696,
267,0,267,0,,,,,,,,,,,,,,,,,,,,,,,,,,,,,,,,,,,,,,,,,,,,,,,,,,,,,,,,,,,696.4699579649605,696.4699579649605,696.4699579649605,696.4699579649605,696.4699579649605,696.4699579649605,s,1,2.248850895324722,698.7364500244148,699.7530481822323,,,,,,,,,,,,,,,,,,,,,,,,,,,,,,,,,,,,,,,,,580,2023-05-17_10h34.48.207,eb_02psyexp,2022.2.4,60.007136460675696,
268,0,268,0,,,,,,,,,,,,,,,,,,,,,,,,,,,,,,,,,,,,,,,,,,,,,,,,,,,,,,,,,,,699.7530481822323,699.7530481822323,699.7530481822323,699.7530481822323,699.7530481822323,699.7530481822323,s,1,0.8377813919214532,700.6196384016657,701.6362441056408,,,,,,,,,,,,,,,,,,,,,,,,,,,,,,,,,,,,,,,,,580,2023-05-17_10h34.48.207,eb_02psyexp,2022.2.4,60.007136460675696,
269,0,269,0,,,,,,,,,,,,,,,,,,,,,,,,,,,,,,,,,,,,,,,,,,,,,,,,,,,,,,,,,,,701.6362441056408,701.6362441056408,701.6362441056408,701.6362441056408,701.6362441056408,701.6362441056408,l,1,4.153594933683053,705.8192479348509,706.835860883235,,,,,,,,,,,,,,,,,,,,,,,,,,,,,,,,,,,,,,,,,580,2023-05-17_10h34.48.207,eb_02psyexp,2022.2.4,60.007136460675696,
270,0,270,0,,,,,,,,,,,,,,,,,,,,,,,,,,,,,,,,,,,,,,,,,,,,,,,,,,,,,,,,,,,706.835860883235,706.835860883235,706.835860883235,706.835860883235,706.835860883235,706.835860883235,l,1,1.2019885445479304,708.0690358887659,709.0856645329623,,,,,,,,,,,,,,,,,,,,,,,,,,,,,,,,,,,,,,,,,580,2023-05-17_10h34.48.207,eb_02psyexp,2022.2.4,60.007136460675696,
271,0,271,0,,,,,,,,,,,,,,,,,,,,,,,,,,,,,,,,,,,,,,,,,,,,,,,,,,,,,,,,,,,709.0856645329623,709.0856645329623,709.0856645329623,709.0856645329623,709.0856645329623,709.0856645329623,l,1,0.6162400986067951,709.718943916494,710.7355619962327,,,,,,,,,,,,,,,,,,,,,,,,,,,,,,,,,,,,,,,,,580,2023-05-17_10h34.48.207,eb_02psyexp,2022.2.4,60.007136460675696,
