trials.thisRepN,trials.thisTrialN,trials.thisN,trials.thisIndex,image_loop.thisRepN,image_loop.thisTrialN,image_loop.thisN,image_loop.thisIndex,break_loop.thisRepN,break_loop.thisTrialN,break_loop.thisN,break_loop.thisIndex,test_trials.thisRepN,test_trials.thisTrialN,test_trials.thisN,test_trials.thisIndex,distance matrix,tools,welcome_text.started,instructions_0_keypress.started,instructions_0_keypress.keys,instructions_0_keypress.rt,consent_image_0.started,consent0_key_resp.started,consent0_text.started,consent0_key_resp.keys,consent0_key_resp.rt,consent_image_1.started,consent1_key_resp.started,consent1_text.started,consent1_key_resp.keys,consent1_key_resp.rt,consent2_text.started,consent_image_2.started,consent2_key_resp.started,consent2_key_resp.keys,consent2_key_resp.rt,agree_button.started,disagree_button.started,consent_image_3.started,agree_button.numClicks,agree_button.timesOn,agree_button.timesOff,disagree_button.numClicks,disagree_button.timesOn,disagree_button.timesOff,instructions_text1.started,instructions1_key_resp.started,instr1_cnt_text.started,instructions1_key_resp.keys,instructions1_key_resp.rt,instructions_text2.started,instr2_cnt_text.started,instructions2_key_resp.started,instructions2_key_resp.keys,instructions2_key_resp.rt,instructions_text3.started,instructions3_key_resp.started,instr3_cnt_text.started,instructions3_key_resp.keys,instructions3_key_resp.rt,text_countdown.started,image.started,small_large_keyresp.started,task_question_text.started,smalleroption_text.started,largeroption_text.started,accuracy_score_text.started,small_large_keyresp.keys,small_large_keyresp.corr,small_large_keyresp.rt,fb_2.started,fb_2.stopped,break_text.started,break_key_resp.started,break_key_resp.keys,break_key_resp.rt,reveal_seq_text.started,start_test_text.started,continue_to_test.started,continue_to_test.keys,continue_to_test.rt,test_structure_info.started,start_test_text_2.started,continue_to_test_2.started,continue_to_test_2.keys,continue_to_test_2.rt,test_cntdown_text.started,parent index,left child index,right child index,left distance,right distance,parent_image.started,top_image_text.started,left_child_image.started,right_child_image.started,path_resp.started,child_choice_text.started,left_choice_text.started,right_choice_text.started,path_resp.keys,path_resp.rt,graph.started,debrief_text.started,debriefing_title.started,demo_scr_adv.started,demo_scr_adv_keypress.started,demo_scr_adv_keypress.keys,demo_scr_adv_keypress.rt,text_countdown_2.started,participant,date,expName,psychopyVersion,frameRate,
,,,,,,,,,,,,,,,,"[[0. 1. 1. 2. 2. 3. 4. 5. 5. 6. 6. 7.]
 [1. 0. 2. 1. 1. 2. 3. 4. 4. 5. 5. 6.]
 [1. 2. 0. 1. 1. 2. 3. 4. 4. 5. 5. 6.]
 [2. 1. 1. 0. 1. 1. 2. 3. 3. 4. 4. 5.]
 [2. 1. 1. 1. 0. 1. 2. 3. 3. 4. 4. 5.]
 [3. 2. 2. 1. 1. 0. 1. 2. 2. 3. 3. 4.]
 [4. 3. 3. 2. 2. 1. 0. 1. 1. 2. 2. 3.]
 [5. 4. 4. 3. 3. 2. 1. 0. 1. 1. 1. 2.]
 [5. 4. 4. 3. 3. 2. 1. 1. 0. 1. 1. 2.]
 [6. 5. 5. 4. 4. 3. 2. 1. 1. 0. 2. 1.]
 [6. 5. 5. 4. 4. 3. 2. 1. 1. 2. 0. 1.]
 [7. 6. 6. 5. 5. 4. 3. 2. 2. 1. 1. 0.]]",[ 1  8 10  2  9  5 11  6  7  0  3  4],11.878971299971454,11.878971299971454,return,7.075960546266288,,,,,,,,,,,,,,,,,,,,,,,,,,,,,,,,,,,,,,,,,,,,,,,,,,,,,,,,,,,,,,,,,,,,,,,,,,,,,,,,,,,,,,,,,,581,2023-05-17_10h22.18.682,eb_02psyexp,2022.2.4,99.9525724574049,
,,,,,,,,,,,,,,,,,,,,,,18.97312190500088,18.97312190500088,18.97312190500088,space,3.7658189749345183,,,,,,,,,,,,,,,,,,,,,,,,,,,,,,,,,,,,,,,,,,,,,,,,,,,,,,,,,,,,,,,,,,,,,,,,,,,,,,,,,,,,,581,2023-05-17_10h22.18.682,eb_02psyexp,2022.2.4,99.9525724574049,
,,,,,,,,,,,,,,,,,,,,,,,,,,,22.755082316230983,22.755082316230983,22.755082316230983,space,1.959877879358828,,,,,,,,,,,,,,,,,,,,,,,,,,,,,,,,,,,,,,,,,,,,,,,,,,,,,,,,,,,,,,,,,,,,,,,,,,,,,,,,581,2023-05-17_10h22.18.682,eb_02psyexp,2022.2.4,99.9525724574049,
,,,,,,,,,,,,,,,,,,,,,,,,,,,,,,,,24.726212043780833,24.726212043780833,24.726212043780833,space,0.9317809341009706,,,,,,,,,,,,,,,,,,,,,,,,,,,,,,,,,,,,,,,,,,,,,,,,,,,,,,,,,,,,,,,,,,,,,,,,,,,581,2023-05-17_10h22.18.682,eb_02psyexp,2022.2.4,99.9525724574049,
,,,,,,,,,,,,,,,,,,,,,,,,,,,,,,,,,,,,,25.686770553700626,25.686770553700626,25.686770553700626,1,[2.3411621879786253],[2.341166111989878],0,,,28.018128814175725,30.009314636699855,30.009314636699855,space,2.7527007886674255,,,,,,,,,,,,,,,,,,,,,,,,,,,,,,,,,,,,,,,,,,,,,,,,,,,,,,,,,,,,,581,2023-05-17_10h22.18.682,eb_02psyexp,2022.2.4,99.9525724574049,
,,,,,,,,,,,,,,,,,,,,,,,,,,,,,,,,,,,,,,,,,,,,,,,,,,,32.78128337278031,35.773053567274474,35.773053567274474,space,10.316016713739373,,,,,,,,,,,,,,,,,,,,,,,,,,,,,,,,,,,,,,,,,,,,,,,,,,,,,,,,581,2023-05-17_10h22.18.682,eb_02psyexp,2022.2.4,99.9525724574049,
,,,,,,,,,,,,,,,,,,,,,,,,,,,,,,,,,,,,,,,,,,,,,,,,,,,,,,,,46.09915247943718,49.09091301495209,49.09091301495209,space,9.61323448701296,,,,,,,,,,,,,,,,,,,,,,,,,,,,,,,,,,,,,,,,,,,,,,,,,,,581,2023-05-17_10h22.18.682,eb_02psyexp,2022.2.4,99.9525724574049,
0,0,0,0,,,,,,,,,,,,,,,,,,,,,,,,,,,,,,,,,,,,,,,,,,,,,,,,,,,,,,,,,,58.726590255624615,63.76963215356227,63.76963215356227,63.76963215356227,63.76963215356227,63.76963215356227,63.76963215356227,s,1,1.3505649934522808,65.13007077062503,66.150664753397,,,,,,,,,,,,,,,,,,,,,,,,,,,,,,,,,,,,,,,581,2023-05-17_10h22.18.682,eb_02psyexp,2022.2.4,99.9525724574049,
1,0,1,0,,,,,,,,,,,,,,,,,,,,,,,,,,,,,,,,,,,,,,,,,,,,,,,,,,,,,,,,,,,66.150664753397,66.150664753397,66.150664753397,66.150664753397,66.150664753397,66.150664753397,l,1,0.6735093229217455,66.84108038805425,67.87169955065474,,,,,,,,,,,,,,,,,,,,,,,,,,,,,,,,,,,,,,,581,2023-05-17_10h22.18.682,eb_02psyexp,2022.2.4,99.9525724574049,
2,0,2,0,,,,,,,,,,,,,,,,,,,,,,,,,,,,,,,,,,,,,,,,,,,,,,,,,,,,,,,,,,,67.87169955065474,67.87169955065474,67.87169955065474,67.87169955065474,67.87169955065474,67.87169955065474,s,1,0.4485079797450453,68.33198428712785,69.36258413176984,,,,,,,,,,,,,,,,,,,,,,,,,,,,,,,,,,,,,,,581,2023-05-17_10h22.18.682,eb_02psyexp,2022.2.4,99.9525724574049,
3,0,3,0,,,,,,,,,,,,,,,,,,,,,,,,,,,,,,,,,,,,,,,,,,,,,,,,,,,,,,,,,,,69.36258413176984,69.36258413176984,69.36258413176984,69.36258413176984,69.36258413176984,69.36258413176984,s,1,0.4936335140373558,69.87288549996447,70.90351371793076,,,,,,,,,,,,,,,,,,,,,,,,,,,,,,,,,,,,,,,581,2023-05-17_10h22.18.682,eb_02psyexp,2022.2.4,99.9525724574049,
4,0,4,0,,,,,,,,,,,,,,,,,,,,,,,,,,,,,,,,,,,,,,,,,,,,,,,,,,,,,,,,,,,70.90351371793076,70.90351371793076,70.90351371793076,70.90351371793076,70.90351371793076,70.90351371793076,s,1,0.5437714874278754,71.46379519451875,72.49443548638374,,,,,,,,,,,,,,,,,,,,,,,,,,,,,,,,,,,,,,,581,2023-05-17_10h22.18.682,eb_02psyexp,2022.2.4,99.9525724574049,
5,0,5,0,,,,,,,,,,,,,,,,,,,,,,,,,,,,,,,,,,,,,,,,,,,,,,,,,,,,,,,,,,,72.49443548638374,72.49443548638374,72.49443548638374,72.49443548638374,72.49443548638374,72.49443548638374,s,1,0.5527676775818691,73.06477142183576,74.09538394387346,,,,,,,,,,,,,,,,,,,,,,,,,,,,,,,,,,,,,,,581,2023-05-17_10h22.18.682,eb_02psyexp,2022.2.4,99.9525724574049,
6,0,6,0,,,,,,,,,,,,,,,,,,,,,,,,,,,,,,,,,,,,,,,,,,,,,,,,,,,,,,,,,,,74.09538394387346,74.09538394387346,74.09538394387346,74.09538394387346,74.09538394387346,74.09538394387346,s,1,0.487851973855868,74.59568156313617,,,,,,,,,,,,,,,,,,,,,,,,,,,,,,,,,,,,,,,,581,2023-05-17_10h22.18.682,eb_02psyexp,2022.2.4,99.9525724574049,
7,0,7,0,,,,,,,,,,,,,,,,,,,,,,,,,,,,,,,,,,,,,,,,,,,,,,,,,,,,,,,,,,,75.61659308697563,75.61659308697563,75.61659308697563,75.61659308697563,75.61659308697563,75.61659308697563,l,1,0.5507072831969708,76.18695769761689,77.20724923163652,,,,,,,,,,,,,,,,,,,,,,,,,,,,,,,,,,,,,,,581,2023-05-17_10h22.18.682,eb_02psyexp,2022.2.4,99.9525724574049,
8,0,8,0,,,,,,,,,,,,,,,,,,,,,,,,,,,,,,,,,,,,,,,,,,,,,,,,,,,,,,,,,,,77.20724923163652,77.20724923163652,77.20724923163652,77.20724923163652,77.20724923163652,77.20724923163652,l,1,0.6960173052502796,77.91765998851042,78.94828609353863,,,,,,,,,,,,,,,,,,,,,,,,,,,,,,,,,,,,,,,581,2023-05-17_10h22.18.682,eb_02psyexp,2022.2.4,99.9525724574049,
9,0,9,0,,,,,,,,,,,,,,,,,,,,,,,,,,,,,,,,,,,,,,,,,,,,,,,,,,,,,,,,,,,78.94828609353863,78.94828609353863,78.94828609353863,78.94828609353863,78.94828609353863,78.94828609353863,s,1,0.6269940939964727,79.58865340275224,80.60925191326533,,,,,,,,,,,,,,,,,,,,,,,,,,,,,,,,,,,,,,,581,2023-05-17_10h22.18.682,eb_02psyexp,2022.2.4,99.9525724574049,
10,0,10,0,,,,,,,,,,,,,,,,,,,,,,,,,,,,,,,,,,,,,,,,,,,,,,,,,,,,,,,,,,,80.60925191326533,80.60925191326533,80.60925191326533,80.60925191326533,80.60925191326533,80.60925191326533,l,1,0.5820252172416076,81.2096114710439,82.23027819849085,,,,,,,,,,,,,,,,,,,,,,,,,,,,,,,,,,,,,,,581,2023-05-17_10h22.18.682,eb_02psyexp,2022.2.4,99.9525724574049,
11,0,11,0,,,,,,,,,,,,,,,,,,,,,,,,,,,,,,,,,,,,,,,,,,,,,,,,,,,,,,,,,,,82.23027819849085,82.23027819849085,82.23027819849085,82.23027819849085,82.23027819849085,82.23027819849085,l,1,0.6330026217037812,82.88059492455795,83.91118118609302,,,,,,,,,,,,,,,,,,,,,,,,,,,,,,,,,,,,,,,581,2023-05-17_10h22.18.682,eb_02psyexp,2022.2.4,99.9525724574049,
12,0,12,0,,,,,,,,,,,,,,,,,,,,,,,,,,,,,,,,,,,,,,,,,,,,,,,,,,,,,,,,,,,83.91118118609302,83.91118118609302,83.91118118609302,83.91118118609302,83.91118118609302,83.91118118609302,s,1,0.48811880487482995,84.41146854264662,85.43213285529055,,,,,,,,,,,,,,,,,,,,,,,,,,,,,,,,,,,,,,,581,2023-05-17_10h22.18.682,eb_02psyexp,2022.2.4,99.9525724574049,
13,0,13,0,,,,,,,,,,,,,,,,,,,,,,,,,,,,,,,,,,,,,,,,,,,,,,,,,,,,,,,,,,,85.43213285529055,85.43213285529055,85.43213285529055,85.43213285529055,85.43213285529055,85.43213285529055,l,1,0.6711814939044416,86.12250411871355,87.14310444018338,,,,,,,,,,,,,,,,,,,,,,,,,,,,,,,,,,,,,,,581,2023-05-17_10h22.18.682,eb_02psyexp,2022.2.4,99.9525724574049,
14,0,14,0,,,,,,,,,,,,,,,,,,,,,,,,,,,,,,,,,,,,,,,,,,,,,,,,,,,,,,,,,,,87.14310444018338,87.14310444018338,87.14310444018338,87.14310444018338,87.14310444018338,87.14310444018338,l,1,0.5351981822168455,87.69347543793265,,,,,,,,,,,,,,,,,,,,,,,,,,,,,,,,,,,,,,,,581,2023-05-17_10h22.18.682,eb_02psyexp,2022.2.4,99.9525724574049,
15,0,15,0,,,,,,,,,,,,,,,,,,,,,,,,,,,,,,,,,,,,,,,,,,,,,,,,,,,,,,,,,,,88.7143498348305,88.7143498348305,88.7143498348305,88.7143498348305,88.7143498348305,88.7143498348305,l,1,0.5559560669353232,89.28468124254141,90.31498135509901,,,,,,,,,,,,,,,,,,,,,,,,,,,,,,,,,,,,,,,581,2023-05-17_10h22.18.682,eb_02psyexp,2022.2.4,99.9525724574049,
16,0,16,0,,,,,,,,,,,,,,,,,,,,,,,,,,,,,,,,,,,,,,,,,,,,,,,,,,,,,,,,,,,90.31498135509901,90.31498135509901,90.31498135509901,90.31498135509901,90.31498135509901,90.31498135509901,s,1,0.5633428192231804,90.89535273308866,91.9160215734737,,,,,,,,,,,,,,,,,,,,,,,,,,,,,,,,,,,,,,,581,2023-05-17_10h22.18.682,eb_02psyexp,2022.2.4,99.9525724574049,
17,0,17,0,,,,,,,,,,,,,,,,,,,,,,,,,,,,,,,,,,,,,,,,,,,,,,,,,,,,,,,,,,,91.9160215734737,91.9160215734737,91.9160215734737,91.9160215734737,91.9160215734737,91.9160215734737,l,1,0.45831884967628866,92.38621618505567,93.41683715884574,,,,,,,,,,,,,,,,,,,,,,,,,,,,,,,,,,,,,,,581,2023-05-17_10h22.18.682,eb_02psyexp,2022.2.4,99.9525724574049,
18,0,18,0,,,,,,,,,,,,,,,,,,,,,,,,,,,,,,,,,,,,,,,,,,,,,,,,,,,,,,,,,,,93.41683715884574,93.41683715884574,93.41683715884574,93.41683715884574,93.41683715884574,93.41683715884574,s,1,0.5095190157881007,93.9371425777208,94.96775570348836,,,,,,,,,,,,,,,,,,,,,,,,,,,,,,,,,,,,,,,581,2023-05-17_10h22.18.682,eb_02psyexp,2022.2.4,99.9525724574049,
19,0,19,0,,,,,,,,,,,,,,,,,,,,,,,,,,,,,,,,,,,,,,,,,,,,,,,,,,,,,,,,,,,94.96775570348836,94.96775570348836,94.96775570348836,94.96775570348836,94.96775570348836,94.96775570348836,s,1,0.4946066625416279,95.47804620524403,96.50899075693451,,,,,,,,,,,,,,,,,,,,,,,,,,,,,,,,,,,,,,,581,2023-05-17_10h22.18.682,eb_02psyexp,2022.2.4,99.9525724574049,
20,0,20,0,,,,,,,,,,,,,,,,,,,,,,,,,,,,,,,,,,,,,,,,,,,,,,,,,,,,,,,,,,,96.50899075693451,96.50899075693451,96.50899075693451,96.50899075693451,96.50899075693451,96.50899075693451,s,1,0.5533692548051476,97.07933725696057,98.10963193618227,,,,,,,,,,,,,,,,,,,,,,,,,,,,,,,,,,,,,,,581,2023-05-17_10h22.18.682,eb_02psyexp,2022.2.4,99.9525724574049,
21,0,21,0,,,,,,,,,,,,,,,,,,,,,,,,,,,,,,,,,,,,,,,,,,,,,,,,,,,,,,,,,,,98.10963193618227,98.10963193618227,98.10963193618227,98.10963193618227,98.10963193618227,98.10963193618227,s,1,0.6247480647871271,98.74999652884435,99.78059969365131,,,,,,,,,,,,,,,,,,,,,,,,,,,,,,,,,,,,,,,581,2023-05-17_10h22.18.682,eb_02psyexp,2022.2.4,99.9525724574049,
22,0,22,0,,,,,,,,,,,,,,,,,,,,,,,,,,,,,,,,,,,,,,,,,,,,,,,,,,,,,,,,,,,99.78059969365131,99.78059969365131,99.78059969365131,99.78059969365131,99.78059969365131,99.78059969365131,s,1,0.5777882181573659,100.37097119854297,101.39159415848553,,,,,,,,,,,,,,,,,,,,,,,,,,,,,,,,,,,,,,,581,2023-05-17_10h22.18.682,eb_02psyexp,2022.2.4,99.9525724574049,
23,0,23,0,,,,,,,,,,,,,,,,,,,,,,,,,,,,,,,,,,,,,,,,,,,,,,,,,,,,,,,,,,,101.39159415848553,101.39159415848553,101.39159415848553,101.39159415848553,101.39159415848553,101.39159415848553,l,1,0.5658665456576273,101.97191090264823,103.00253278191667,,,,,,,,,,,,,,,,,,,,,,,,,,,,,,,,,,,,,,,581,2023-05-17_10h22.18.682,eb_02psyexp,2022.2.4,99.9525724574049,
24,0,24,0,,,,,,,,,,,,,,,,,,,,,,,,,,,,,,,,,,,,,,,,,,,,,,,,,,,,,,,,,,,103.00253278191667,103.00253278191667,103.00253278191667,103.00253278191667,103.00253278191667,103.00253278191667,s,1,0.4748859176179394,103.49280642857775,104.5237506784033,,,,,,,,,,,,,,,,,,,,,,,,,,,,,,,,,,,,,,,581,2023-05-17_10h22.18.682,eb_02psyexp,2022.2.4,99.9525724574049,
25,0,25,0,,,,,,,,,,,,,,,,,,,,,,,,,,,,,,,,,,,,,,,,,,,,,,,,,,,,,,,,,,,104.5237506784033,104.5237506784033,104.5237506784033,104.5237506784033,104.5237506784033,104.5237506784033,s,1,0.521731968736276,105.06407989480067,106.09437729069032,,,,,,,,,,,,,,,,,,,,,,,,,,,,,,,,,,,,,,,581,2023-05-17_10h22.18.682,eb_02psyexp,2022.2.4,99.9525724574049,
26,0,26,0,,,,,,,,,,,,,,,,,,,,,,,,,,,,,,,,,,,,,,,,,,,,,,,,,,,,,,,,,,,106.09437729069032,106.09437729069032,106.09437729069032,106.09437729069032,106.09437729069032,106.09437729069032,s,1,0.45502330525778234,106.56462563062087,,,,,,,,,,,,,,,,,,,,,,,,,,,,,,,,,,,,,,,,581,2023-05-17_10h22.18.682,eb_02psyexp,2022.2.4,99.9525724574049,
27,0,27,0,,,,,,,,,,,,,,,,,,,,,,,,,,,,,,,,,,,,,,,,,,,,,,,,,,,,,,,,,,,107.58554077660665,107.58554077660665,107.58554077660665,107.58554077660665,107.58554077660665,107.58554077660665,s,0,0.4199054439086467,108.01550517696887,109.03608316194732,,,,,,,,,,,,,,,,,,,,,,,,,,,,,,,,,,,,,,,581,2023-05-17_10h22.18.682,eb_02psyexp,2022.2.4,99.9525724574049,
28,0,28,0,,,,,,,,,,,,,,,,,,,,,,,,,,,,,,,,,,,,,,,,,,,,,,,,,,,,,,,,,,,109.03608316194732,109.03608316194732,109.03608316194732,109.03608316194732,109.03608316194732,109.03608316194732,l,1,0.6413552780868486,109.69648905901704,110.71707821229938,,,,,,,,,,,,,,,,,,,,,,,,,,,,,,,,,,,,,,,581,2023-05-17_10h22.18.682,eb_02psyexp,2022.2.4,99.9525724574049,
29,0,29,0,,,,,,,,,,,,,,,,,,,,,,,,,,,,,,,,,,,,,,,,,,,,,,,,,,,,,,,,,,,110.71707821229938,110.71707821229938,110.71707821229938,110.71707821229938,110.71707821229938,110.71707821229938,s,1,0.696354768006131,111.4275387735106,112.448119475157,,,,,,,,,,,,,,,,,,,,,,,,,,,,,,,,,,,,,,,581,2023-05-17_10h22.18.682,eb_02psyexp,2022.2.4,99.9525724574049,
30,0,30,0,,,,,,,,,,,,,,,,,,,,,,,,,,,,,,,,,,,,,,,,,,,,,,,,,,,,,,,,,,,112.448119475157,112.448119475157,112.448119475157,112.448119475157,112.448119475157,112.448119475157,l,1,0.6213281602831557,113.08851485594641,114.10910853685346,,,,,,,,,,,,,,,,,,,,,,,,,,,,,,,,,,,,,,,581,2023-05-17_10h22.18.682,eb_02psyexp,2022.2.4,99.9525724574049,
31,0,31,0,,,,,,,,,,,,,,,,,,,,,,,,,,,,,,,,,,,,,,,,,,,,,,,,,,,,,,,,,,,114.10910853685346,114.10910853685346,114.10910853685346,114.10910853685346,114.10910853685346,114.10910853685346,l,1,0.6003897723276168,114.71947214542888,115.74010838649701,,,,,,,,,,,,,,,,,,,,,,,,,,,,,,,,,,,,,,,581,2023-05-17_10h22.18.682,eb_02psyexp,2022.2.4,99.9525724574049,
32,0,32,0,,,,,,,,,,,,,,,,,,,,,,,,,,,,,,,,,,,,,,,,,,,,,,,,,,,,,,,,,,,115.74010838649701,115.74010838649701,115.74010838649701,115.74010838649701,115.74010838649701,115.74010838649701,l,1,0.5373575817793608,116.29041720426176,117.31098160613328,,,,,,,,,,,,,,,,,,,,,,,,,,,,,,,,,,,,,,,581,2023-05-17_10h22.18.682,eb_02psyexp,2022.2.4,99.9525724574049,
33,0,33,0,,,,,,,,,,,,,,,,,,,,,,,,,,,,,,,,,,,,,,,,,,,,,,,,,,,,,,,,,,,117.31098160613328,117.31098160613328,117.31098160613328,117.31098160613328,117.31098160613328,117.31098160613328,l,1,0.5024999107699841,117.83133169810753,118.86192822246812,,,,,,,,,,,,,,,,,,,,,,,,,,,,,,,,,,,,,,,581,2023-05-17_10h22.18.682,eb_02psyexp,2022.2.4,99.9525724574049,
34,0,34,0,,,,,,,,,,,,,,,,,,,,,,,,,,,,,,,,,,,,,,,,,,,,,,,,,,,,,,,,,,,118.86192822246812,118.86192822246812,118.86192822246812,118.86192822246812,118.86192822246812,118.86192822246812,s,1,0.4705668166279793,119.3522254130803,120.3728094350081,,,,,,,,,,,,,,,,,,,,,,,,,,,,,,,,,,,,,,,581,2023-05-17_10h22.18.682,eb_02psyexp,2022.2.4,99.9525724574049,
35,0,35,0,,,,,,,,,,,,,,,,,,,,,,,,,,,,,,,,,,,,,,,,,,,,,,,,,,,,,,,,,,,120.3728094350081,120.3728094350081,120.3728094350081,120.3728094350081,120.3728094350081,120.3728094350081,l,1,0.5356802287278697,120.92315356852487,121.95376578881405,,,,,,,,,,,,,,,,,,,,,,,,,,,,,,,,,,,,,,,581,2023-05-17_10h22.18.682,eb_02psyexp,2022.2.4,99.9525724574049,
36,0,36,0,,,,,,,,,,,,,,,,,,,,,,,,,,,,,,,,,,,,,,,,,,,,,,,,,,,,,,,,,,,121.95376578881405,121.95376578881405,121.95376578881405,121.95376578881405,121.95376578881405,121.95376578881405,s,1,0.5787402373971418,122.54413004941307,123.56470863800496,,,,,,,,,,,,,,,,,,,,,,,,,,,,,,,,,,,,,,,581,2023-05-17_10h22.18.682,eb_02psyexp,2022.2.4,99.9525724574049,
37,0,37,0,,,,,,,,,,,,,,,,,,,,,,,,,,,,,,,,,,,,,,,,,,,,,,,,,,,,,,,,,,,123.56470863800496,123.56470863800496,123.56470863800496,123.56470863800496,123.56470863800496,123.56470863800496,l,1,0.50381474790629,124.08502975292504,125.10569587664213,,,,,,,,,,,,,,,,,,,,,,,,,,,,,,,,,,,,,,,581,2023-05-17_10h22.18.682,eb_02psyexp,2022.2.4,99.9525724574049,
38,0,38,0,,,,,,,,,,,,,,,,,,,,,,,,,,,,,,,,,,,,,,,,,,,,,,,,,,,,,,,,,,,125.10569587664213,125.10569587664213,125.10569587664213,125.10569587664213,125.10569587664213,125.10569587664213,l,1,0.4508367143571377,125.57591493765358,,,,,,,,,,,,,,,,,,,,,,,,,,,,,,,,,,,,,,,,581,2023-05-17_10h22.18.682,eb_02psyexp,2022.2.4,99.9525724574049,
39,0,39,0,,,,,,,,,,,,,,,,,,,,,,,,,,,,,,,,,,,,,,,,,,,,,,,,,,,,,,,,,,,126.60685103770811,126.60685103770811,126.60685103770811,126.60685103770811,126.60685103770811,126.60685103770811,s,1,0.5096735605038702,127.1271588713862,128.15743242145982,,,,,,,,,,,,,,,,,,,,,,,,,,,,,,,,,,,,,,,581,2023-05-17_10h22.18.682,eb_02psyexp,2022.2.4,99.9525724574049,
40,0,40,0,,,,,,,,,,,,,,,,,,,,,,,,,,,,,,,,,,,,,,,,,,,,,,,,,,,,,,,,,,,128.15743242145982,128.15743242145982,128.15743242145982,128.15743242145982,128.15743242145982,128.15743242145982,l,1,0.4471022873185575,128.61770176386926,,,,,,,,,,,,,,,,,,,,,,,,,,,,,,,,,,,,,,,,581,2023-05-17_10h22.18.682,eb_02psyexp,2022.2.4,99.9525724574049,
41,0,41,0,,,,,,,,,,,,,,,,,,,,,,,,,,,,,,,,,,,,,,,,,,,,,,,,,,,,,,,,,,,129.63863592594862,129.63863592594862,129.63863592594862,129.63863592594862,129.63863592594862,129.63863592594862,l,1,0.4619111076463014,130.11895230785012,131.1392239201814,,,,,,,,,,,,,,,,,,,,,,,,,,,,,,,,,,,,,,,581,2023-05-17_10h22.18.682,eb_02psyexp,2022.2.4,99.9525724574049,
42,0,42,0,,,,,,,,,,,,,,,,,,,,,,,,,,,,,,,,,,,,,,,,,,,,,,,,,,,,,,,,,,,131.1392239201814,131.1392239201814,131.1392239201814,131.1392239201814,131.1392239201814,131.1392239201814,l,1,0.529345708549954,131.67956068261992,,,,,,,,,,,,,,,,,,,,,,,,,,,,,,,,,,,,,,,,581,2023-05-17_10h22.18.682,eb_02psyexp,2022.2.4,99.9525724574049,
43,0,43,0,,,,,,,,,,,,,,,,,,,,,,,,,,,,,,,,,,,,,,,,,,,,,,,,,,,,,,,,,,,132.70045469945762,132.70045469945762,132.70045469945762,132.70045469945762,132.70045469945762,132.70045469945762,l,1,0.4241219174582511,133.1407240900444,134.1610177370021,,,,,,,,,,,,,,,,,,,,,,,,,,,,,,,,,,,,,,,581,2023-05-17_10h22.18.682,eb_02psyexp,2022.2.4,99.9525724574049,
44,0,44,0,,,,,,,,,,,,,,,,,,,,,,,,,,,,,,,,,,,,,,,,,,,,,,,,,,,,,,,,,,,134.1610177370021,134.1610177370021,134.1610177370021,134.1610177370021,134.1610177370021,134.1610177370021,l,1,0.5546137619530782,134.73136725556105,135.76193510449957,,,,,,,,,,,,,,,,,,,,,,,,,,,,,,,,,,,,,,,581,2023-05-17_10h22.18.682,eb_02psyexp,2022.2.4,99.9525724574049,
45,0,45,0,,,,,,,,,,,,,,,,,,,,,,,,,,,,,,,,,,,,,,,,,,,,,,,,,,,,,,,,,,,135.76193510449957,135.76193510449957,135.76193510449957,135.76193510449957,135.76193510449957,135.76193510449957,s,1,0.545645643491298,136.32229928660672,137.34288813802414,,,,,,,,,,,,,,,,,,,,,,,,,,,,,,,,,,,,,,,581,2023-05-17_10h22.18.682,eb_02psyexp,2022.2.4,99.9525724574049,
46,0,46,0,,,,,,,,,,,,,,,,,,,,,,,,,,,,,,,,,,,,,,,,,,,,,,,,,,,,,,,,,,,137.34288813802414,137.34288813802414,137.34288813802414,137.34288813802414,137.34288813802414,137.34288813802414,l,1,0.492724658572115,137.85321184271015,138.8838246667292,,,,,,,,,,,,,,,,,,,,,,,,,,,,,,,,,,,,,,,581,2023-05-17_10h22.18.682,eb_02psyexp,2022.2.4,99.9525724574049,
47,0,47,0,,,,,,,,,,,,,,,,,,,,,,,,,,,,,,,,,,,,,,,,,,,,,,,,,,,,,,,,,,,138.8838246667292,138.8838246667292,138.8838246667292,138.8838246667292,138.8838246667292,138.8838246667292,s,1,0.5277839621994644,139.42415448674,140.44479072780814,,,,,,,,,,,,,,,,,,,,,,,,,,,,,,,,,,,,,,,581,2023-05-17_10h22.18.682,eb_02psyexp,2022.2.4,99.9525724574049,
48,0,48,0,,,,,,,,,,,,,,,,,,,,,,,,,,,,,,,,,,,,,,,,,,,,,,,,,,,,,,,,,,,140.44479072780814,140.44479072780814,140.44479072780814,140.44479072780814,140.44479072780814,140.44479072780814,s,1,0.6788260218454525,141.1351704428671,142.1557758958079,,,,,,,,,,,,,,,,,,,,,,,,,,,,,,,,,,,,,,,581,2023-05-17_10h22.18.682,eb_02psyexp,2022.2.4,99.9525724574049,
49,0,49,0,,,,,,,,,,,,,,,,,,,,,,,,,,,,,,,,,,,,,,,,,,,,,,,,,,,,,,,,,,,142.1557758958079,142.1557758958079,142.1557758958079,142.1557758958079,142.1557758958079,142.1557758958079,l,1,0.9358374298317358,143.10633035493083,144.13696189329494,,,,,,,,,,,,,,,,,,,,,,,,,,,,,,,,,,,,,,,581,2023-05-17_10h22.18.682,eb_02psyexp,2022.2.4,99.9525724574049,
50,0,50,0,,,,,,,,,,,,,,,,,,,,,,,,,,,,,,,,,,,,,,,,,,,,,,,,,,,,,,,,,,,144.13696189329494,144.13696189329494,144.13696189329494,144.13696189329494,144.13696189329494,144.13696189329494,l,1,0.9306731625692919,145.07751260360237,146.0981376763666,,,,,,,,,,,,,,,,,,,,,,,,,,,,,,,,,,,,,,,581,2023-05-17_10h22.18.682,eb_02psyexp,2022.2.4,99.9525724574049,
51,0,51,0,,,,,,,,,,,,,,,,,,,,,,,,,,,,,,,,,,,,,,,,,,,,,,,,,,,,,,,,,,,146.0981376763666,146.0981376763666,146.0981376763666,146.0981376763666,146.0981376763666,146.0981376763666,l,1,0.6655218990053982,146.7785109259421,147.8091243535746,,,,,,,,,,,,,,,,,,,,,,,,,,,,,,,,,,,,,,,581,2023-05-17_10h22.18.682,eb_02psyexp,2022.2.4,99.9525724574049,
52,0,52,0,,,,,,,,,,,,,,,,,,,,,,,,,,,,,,,,,,,,,,,,,,,,,,,,,,,,,,,,,,,147.8091243535746,147.8091243535746,147.8091243535746,147.8091243535746,147.8091243535746,147.8091243535746,l,1,0.6025256280554458,148.4295149531681,149.46008612250444,,,,,,,,,,,,,,,,,,,,,,,,,,,,,,,,,,,,,,,581,2023-05-17_10h22.18.682,eb_02psyexp,2022.2.4,99.9525724574049,
53,0,53,0,,,,,,,,,,,,,,,,,,,,,,,,,,,,,,,,,,,,,,,,,,,,,,,,,,,,,,,,,,,149.46008612250444,149.46008612250444,149.46008612250444,149.46008612250444,149.46008612250444,149.46008612250444,s,1,0.6306123106041923,150.11049189278856,151.1310967419995,,,,,,,,,,,,,,,,,,,,,,,,,,,,,,,,,,,,,,,581,2023-05-17_10h22.18.682,eb_02psyexp,2022.2.4,99.9525724574049,
54,0,54,0,,,,,,,,,,,,,,,,,,,,,,,,,,,,,,,,,,,,,,,,,,,,,,,,,,,,,,,,,,,151.1310967419995,151.1310967419995,151.1310967419995,151.1310967419995,151.1310967419995,151.1310967419995,l,1,0.615587369306013,151.76148022408597,152.7820817528991,,,,,,,,,,,,,,,,,,,,,,,,,,,,,,,,,,,,,,,581,2023-05-17_10h22.18.682,eb_02psyexp,2022.2.4,99.9525724574049,
55,0,55,0,,,,,,,,,,,,,,,,,,,,,,,,,,,,,,,,,,,,,,,,,,,,,,,,,,,,,,,,,,,152.7820817528991,152.7820817528991,152.7820817528991,152.7820817528991,152.7820817528991,152.7820817528991,l,1,0.5006486950442195,153.30238324787933,154.33298097958323,,,,,,,,,,,,,,,,,,,,,,,,,,,,,,,,,,,,,,,581,2023-05-17_10h22.18.682,eb_02psyexp,2022.2.4,99.9525724574049,
56,0,56,0,,,,,,,,,,,,,,,,,,,,,,,,,,,,,,,,,,,,,,,,,,,,,,,,,,,,,,,,,,,154.33298097958323,154.33298097958323,154.33298097958323,154.33298097958323,154.33298097958323,154.33298097958323,s,1,0.477702131960541,154.82332133396994,155.84385977732018,,,,,,,,,,,,,,,,,,,,,,,,,,,,,,,,,,,,,,,581,2023-05-17_10h22.18.682,eb_02psyexp,2022.2.4,99.9525724574049,
57,0,57,0,,,,,,,,,,,,,,,,,,,,,,,,,,,,,,,,,,,,,,,,,,,,,,,,,,,,,,,,,,,155.84385977732018,155.84385977732018,155.84385977732018,155.84385977732018,155.84385977732018,155.84385977732018,l,1,0.49483214085921645,156.35420008341316,157.38483011256903,,,,,,,,,,,,,,,,,,,,,,,,,,,,,,,,,,,,,,,581,2023-05-17_10h22.18.682,eb_02psyexp,2022.2.4,99.9525724574049,
58,0,58,0,,,,,,,,,,,,,,,,,,,,,,,,,,,,,,,,,,,,,,,,,,,,,,,,,,,,,,,,,,,157.38483011256903,157.38483011256903,157.38483011256903,157.38483011256903,157.38483011256903,157.38483011256903,s,1,0.5138849028153345,157.91512599925045,158.93576224031858,,,,,,,,,,,,,,,,,,,,,,,,,,,,,,,,,,,,,,,581,2023-05-17_10h22.18.682,eb_02psyexp,2022.2.4,99.9525724574049,
59,0,59,0,,,,,,,,,,,,,,,,,,,,,,,,,,,,,,,,,,,,,,,,,,,,,,,,,,,,,,,,,,,158.93576224031858,158.93576224031858,158.93576224031858,158.93576224031858,158.93576224031858,158.93576224031858,l,1,0.3789604635676369,159.32595795055386,160.3565943184076,,,,,,,,,,,,,,,,,,,,,,,,,,,,,,,,,,,,,,,581,2023-05-17_10h22.18.682,eb_02psyexp,2022.2.4,99.9525724574049,
60,0,60,0,,,,,,,,,,,,,,,,,,,,,,,,,,,,,,,,,,,,,,,,,,,,,,,,,,,,,,,,,,,160.3565943184076,160.3565943184076,160.3565943184076,160.3565943184076,160.3565943184076,160.3565943184076,s,1,0.5421282429015264,160.91688786877785,161.93750207521953,,,,,,,,,,,,,,,,,,,,,,,,,,,,,,,,,,,,,,,581,2023-05-17_10h22.18.682,eb_02psyexp,2022.2.4,99.9525724574049,
61,0,61,0,,,,,,,,,,,,,,,,,,,,,,,,,,,,,,,,,,,,,,,,,,,,,,,,,,,,,,,,,,,161.93750207521953,161.93750207521953,161.93750207521953,161.93750207521953,161.93750207521953,161.93750207521953,l,1,0.42522395378910005,162.37778112490196,163.39843125082552,,,,,,,,,,,,,,,,,,,,,,,,,,,,,,,,,,,,,,,581,2023-05-17_10h22.18.682,eb_02psyexp,2022.2.4,99.9525724574049,
62,0,62,0,,,,,,,,,,,,,,,,,,,,,,,,,,,,,,,,,,,,,,,,,,,,,,,,,,,,,,,,,,,163.39843125082552,163.39843125082552,163.39843125082552,163.39843125082552,163.39843125082552,163.39843125082552,l,1,0.4923108291113749,163.90868794592097,164.9293208667077,,,,,,,,,,,,,,,,,,,,,,,,,,,,,,,,,,,,,,,581,2023-05-17_10h22.18.682,eb_02psyexp,2022.2.4,99.9525724574049,
63,0,63,0,,,,,,,,,,,,,,,,,,,,,,,,,,,,,,,,,,,,,,,,,,,,,,,,,,,,,,,,,,,164.9293208667077,164.9293208667077,164.9293208667077,164.9293208667077,164.9293208667077,164.9293208667077,l,1,0.4164653157349676,165.35955270181876,166.3901531501906,,,,,,,,,,,,,,,,,,,,,,,,,,,,,,,,,,,,,,,581,2023-05-17_10h22.18.682,eb_02psyexp,2022.2.4,99.9525724574049,
64,0,64,0,,,,,,,,,,,,,,,,,,,,,,,,,,,,,,,,,,,,,,,,,,,,,,,,,,,,,,,,,,,166.3901531501906,166.3901531501906,166.3901531501906,166.3901531501906,166.3901531501906,166.3901531501906,s,1,0.4596309701446444,166.86045974621084,167.88105161616113,,,,,,,,,,,,,,,,,,,,,,,,,,,,,,,,,,,,,,,581,2023-05-17_10h22.18.682,eb_02psyexp,2022.2.4,99.9525724574049,
65,0,65,0,,,,,,,,,,,,,,,,,,,,,,,,,,,,,,,,,,,,,,,,,,,,,,,,,,,,,,,,,,,167.88105161616113,167.88105161616113,167.88105161616113,167.88105161616113,167.88105161616113,167.88105161616113,l,1,0.47271293494850397,168.37134126061574,169.39200557325967,,,,,,,,,,,,,,,,,,,,,,,,,,,,,,,,,,,,,,,581,2023-05-17_10h22.18.682,eb_02psyexp,2022.2.4,99.9525724574049,
66,0,66,0,,,,,,,,,,,,,,,,,,,,,,,,,,,,,,,,,,,,,,,,,,,,,,,,,,,,,,,,,,,169.39200557325967,169.39200557325967,169.39200557325967,169.39200557325967,169.39200557325967,169.39200557325967,l,1,0.4737645632121712,169.8822393764276,170.91286427422892,,,,,,,,,,,,,,,,,,,,,,,,,,,,,,,,,,,,,,,581,2023-05-17_10h22.18.682,eb_02psyexp,2022.2.4,99.9525724574049,
67,0,67,0,,,,,,,,,,,,,,,,,,,,,,,,,,,,,,,,,,,,,,,,,,,,,,,,,,,,,,,,,,,170.91286427422892,170.91286427422892,170.91286427422892,170.91286427422892,170.91286427422892,170.91286427422892,s,1,0.4489510882413015,171.37312576861586,172.39376714103855,,,,,,,,,,,,,,,,,,,,,,,,,,,,,,,,,,,,,,,581,2023-05-17_10h22.18.682,eb_02psyexp,2022.2.4,99.9525724574049,
68,0,68,0,,,,,,,,,,,,,,,,,,,,,,,,,,,,,,,,,,,,,,,,,,,,,,,,,,,,,,,,,,,172.39376714103855,172.39376714103855,172.39376714103855,172.39376714103855,172.39376714103855,172.39376714103855,l,1,0.408011541236192,172.8139674575068,173.83458498422988,,,,,,,,,,,,,,,,,,,,,,,,,,,,,,,,,,,,,,,581,2023-05-17_10h22.18.682,eb_02psyexp,2022.2.4,99.9525724574049,
69,0,69,0,,,,,,,,,,,,,,,,,,,,,,,,,,,,,,,,,,,,,,,,,,,,,,,,,,,,,,,,,,,173.83458498422988,173.83458498422988,173.83458498422988,173.83458498422988,173.83458498422988,173.83458498422988,l,1,0.46321205992717296,174.31488838675432,175.34548581659328,,,,,,,,,,,,,,,,,,,,,,,,,,,,,,,,,,,,,,,581,2023-05-17_10h22.18.682,eb_02psyexp,2022.2.4,99.9525724574049,
70,0,70,0,,,,,,,,,,,,,,,,,,,,,,,,,,,,,,,,,,,,,,,,,,,,,,,,,,,,,,,,,,,175.34548581659328,175.34548581659328,175.34548581659328,175.34548581659328,175.34548581659328,175.34548581659328,s,1,0.47230423672590405,175.83578723308165,176.85635223868303,,,,,,,,,,,,,,,,,,,,,,,,,,,,,,,,,,,,,,,581,2023-05-17_10h22.18.682,eb_02psyexp,2022.2.4,99.9525724574049,
71,0,71,0,,,,,,,,,,,,,,,,,,,,,,,,,,,,,,,,,,,,,,,,,,,,,,,,,,,,,,,,,,,176.85635223868303,176.85635223868303,176.85635223868303,176.85635223868303,176.85635223868303,176.85635223868303,s,1,0.5854418013477698,177.4567564695608,178.4873430330772,,,,,,,,,,,,,,,,,,,,,,,,,,,,,,,,,,,,,,,581,2023-05-17_10h22.18.682,eb_02psyexp,2022.2.4,99.9525724574049,
72,0,72,0,,,,,,,,,,,,,,,,,,,,,,,,,,,,,,,,,,,,,,,,,,,,,,,,,,,,,,,,,,,178.4873430330772,178.4873430330772,178.4873430330772,178.4873430330772,178.4873430330772,178.4873430330772,l,1,0.5064893970265985,179.0076611294644,180.02830189815722,,,,,,,,,,,,,,,,,,,,,,,,,,,,,,,,,,,,,,,581,2023-05-17_10h22.18.682,eb_02psyexp,2022.2.4,99.9525724574049,
73,0,73,0,,,,,,,,,,,,,,,,,,,,,,,,,,,,,,,,,,,,,,,,,,,,,,,,,,,,,,,,,,,180.02830189815722,180.02830189815722,180.02830189815722,180.02830189815722,180.02830189815722,180.02830189815722,l,1,0.5085995957488194,180.54857773624826,,,,,,,,,,,,,,,,,,,,,,,,,,,,,,,,,,,,,,,,581,2023-05-17_10h22.18.682,eb_02psyexp,2022.2.4,99.9525724574049,
74,0,74,0,,,,,,,,,,,,,,,,,,,,,,,,,,,,,,,,,,,,,,,,,,,,,,,,,,,,,,,,,,,181.56949559878558,181.56949559878558,181.56949559878558,181.56949559878558,181.56949559878558,181.56949559878558,l,0,0.3593517030822113,181.93969739426393,182.97001108981203,,,,,,,,,,,,,,,,,,,,,,,,,,,,,,,,,,,,,,,581,2023-05-17_10h22.18.682,eb_02psyexp,2022.2.4,99.9525724574049,
75,0,75,0,,,,,,,,,,,,,,,,,,,,,,,,,,,,,,,,,,,,,,,,,,,,,,,,,,,,,,,,,,,182.97001108981203,182.97001108981203,182.97001108981203,182.97001108981203,182.97001108981203,182.97001108981203,l,1,0.558872795663774,183.54037419124506,184.56094161176588,,,,,,,,,,,,,,,,,,,,,,,,,,,,,,,,,,,,,,,581,2023-05-17_10h22.18.682,eb_02psyexp,2022.2.4,99.9525724574049,
76,0,76,0,,,,,,,,,,,,,,,,,,,,,,,,,,,,,,,,,,,,,,,,,,,,,,,,,,,,,,,,,,,184.56094161176588,184.56094161176588,184.56094161176588,184.56094161176588,184.56094161176588,184.56094161176588,l,1,0.9759209442418069,185.55156871897634,186.58216524333693,,,,,,,,,,,,,,,,,,,,,,,,,,,,,,,,,,,,,,,581,2023-05-17_10h22.18.682,eb_02psyexp,2022.2.4,99.9525724574049,
77,0,77,0,,,,,,,,,,,,,,,,,,,,,,,,,,,,,,,,,,,,,,,,,,,,,,,,,,,,,,,,,,,186.58216524333693,186.58216524333693,186.58216524333693,186.58216524333693,186.58216524333693,186.58216524333693,l,1,0.6347216293215752,187.23255501582753,188.25314416910987,,,,,,,,,,,,,,,,,,,,,,,,,,,,,,,,,,,,,,,581,2023-05-17_10h22.18.682,eb_02psyexp,2022.2.4,99.9525724574049,
78,0,78,0,,,,,,,,,,,,,,,,,,,,,,,,,,,,,,,,,,,,,,,,,,,,,,,,,,,,,,,,,,,188.25314416910987,188.25314416910987,188.25314416910987,188.25314416910987,188.25314416910987,188.25314416910987,l,1,0.5957446788670495,188.86351743666455,189.8841726940591,,,,,,,,,,,,,,,,,,,,,,,,,,,,,,,,,,,,,,,581,2023-05-17_10h22.18.682,eb_02psyexp,2022.2.4,99.9525724574049,
79,0,79,0,,,,,,,,,,,,,,,,,,,,,,,,,,,,,,,,,,,,,,,,,,,,,,,,,,,,,,,,,,,189.8841726940591,189.8841726940591,189.8841726940591,189.8841726940591,189.8841726940591,189.8841726940591,s,1,0.7407356505282223,190.64456355920993,191.6651720305672,,,,,,,,,,,,,,,,,,,,,,,,,,,,,,,,,,,,,,,581,2023-05-17_10h22.18.682,eb_02psyexp,2022.2.4,99.9525724574049,
80,0,80,0,,,,,,,,,,,,,,,,,,,,,,,,,,,,,,,,,,,,,,,,,,,,,,,,,,,,,,,,,,,191.6651720305672,191.6651720305672,191.6651720305672,191.6651720305672,191.6651720305672,191.6651720305672,l,1,0.5837252085329965,192.26554668066092,193.28614096529782,,,,,,,,,,,,,,,,,,,,,,,,,,,,,,,,,,,,,,,581,2023-05-17_10h22.18.682,eb_02psyexp,2022.2.4,99.9525724574049,
81,0,81,0,,,,,,,,,,,,,,,,,,,,,,,,,,,,,,,,,,,,,,,,,,,,,,,,,,,,,,,,,,,193.28614096529782,193.28614096529782,193.28614096529782,193.28614096529782,193.28614096529782,193.28614096529782,s,1,0.618766401312314,193.91652505099773,194.93719117483124,,,,,,,,,,,,,,,,,,,,,,,,,,,,,,,,,,,,,,,581,2023-05-17_10h22.18.682,eb_02psyexp,2022.2.4,99.9525724574049,
82,0,82,0,,,,,,,,,,,,,,,,,,,,,,,,,,,,,,,,,,,,,,,,,,,,,,,,,,,,,,,,,,,194.93719117483124,194.93719117483124,194.93719117483124,194.93719117483124,194.93719117483124,194.93719117483124,l,1,0.6877316583413631,195.6375532078091,196.65820544667076,,,,,,,,,,,,,,,,,,,,,,,,,,,,,,,,,,,,,,,581,2023-05-17_10h22.18.682,eb_02psyexp,2022.2.4,99.9525724574049,
83,0,83,0,,,,,,,,,,,,,,,,,,,,,,,,,,,,,,,,,,,,,,,,,,,,,,,,,,,,,,,,,,,196.65820544667076,196.65820544667076,196.65820544667076,196.65820544667076,196.65820544667076,196.65820544667076,s,1,0.749731236952357,197.41861562989652,198.43921685696114,,,,,,,,,,,,,,,,,,,,,,,,,,,,,,,,,,,,,,,581,2023-05-17_10h22.18.682,eb_02psyexp,2022.2.4,99.9525724574049,
84,0,84,0,,,,,,,,,,,,,,,,,,,,,,,,,,,,,,,,,,,,,,,,,,,,,,,,,,,,,,,,,,,198.43921685696114,198.43921685696114,198.43921685696114,198.43921685696114,198.43921685696114,198.43921685696114,l,1,0.592714456259273,199.04956144932657,200.08018996927422,,,,,,,,,,,,,,,,,,,,,,,,,,,,,,,,,,,,,,,581,2023-05-17_10h22.18.682,eb_02psyexp,2022.2.4,99.9525724574049,
85,0,85,0,,,,,,,,,,,,,,,,,,,,,,,,,,,,,,,,,,,,,,,,,,,,,,,,,,,,,,,,,,,200.08018996927422,200.08018996927422,200.08018996927422,200.08018996927422,200.08018996927422,200.08018996927422,l,1,0.543734360486269,200.64051460963674,,,,,,,,,,,,,,,,,,,,,,,,,,,,,,,,,,,,,,,,581,2023-05-17_10h22.18.682,eb_02psyexp,2022.2.4,99.9525724574049,
86,0,86,0,,,,,,,,,,,,,,,,,,,,,,,,,,,,,,,,,,,,,,,,,,,,,,,,,,,,,,,,,,,201.67146157601383,201.67146157601383,201.67146157601383,201.67146157601383,201.67146157601383,201.67146157601383,s,1,0.4965330377453938,202.18175932206213,203.21203196665738,,,,,,,,,,,,,,,,,,,,,,,,,,,,,,,,,,,,,,,581,2023-05-17_10h22.18.682,eb_02psyexp,2022.2.4,99.9525724574049,
87,0,87,0,,,,,,,,,,,,,,,,,,,,,,,,,,,,,,,,,,,,,,,,,,,,,,,,,,,,,,,,,,,203.21203196665738,203.21203196665738,203.21203196665738,203.21203196665738,203.21203196665738,203.21203196665738,l,1,0.603923472459428,203.83243464003317,204.85307963460218,,,,,,,,,,,,,,,,,,,,,,,,,,,,,,,,,,,,,,,581,2023-05-17_10h22.18.682,eb_02psyexp,2022.2.4,99.9525724574049,
88,0,88,0,,,,,,,,,,,,,,,,,,,,,,,,,,,,,,,,,,,,,,,,,,,,,,,,,,,,,,,,,,,204.85307963460218,204.85307963460218,204.85307963460218,204.85307963460218,204.85307963460218,204.85307963460218,l,1,0.49890946387313306,205.36332184111234,206.39391625253484,,,,,,,,,,,,,,,,,,,,,,,,,,,,,,,,,,,,,,,581,2023-05-17_10h22.18.682,eb_02psyexp,2022.2.4,99.9525724574049,
89,0,89,0,,,,,,,,,,,,,,,,,,,,,,,,,,,,,,,,,,,,,,,,,,,,,,,,,,,,,,,,,,,206.39391625253484,206.39391625253484,206.39391625253484,206.39391625253484,206.39391625253484,206.39391625253484,l,1,0.47008356265723705,206.87422901229002,207.8948546887841,,,,,,,,,,,,,,,,,,,,,,,,,,,,,,,,,,,,,,,581,2023-05-17_10h22.18.682,eb_02psyexp,2022.2.4,99.9525724574049,
90,0,90,0,,,,,,,,,,,,,,,,,,,,,,,,,,,,,,,,,,,,,,,,,,,,,,,,,,,,,,,,,,,207.8948546887841,207.8948546887841,207.8948546887841,207.8948546887841,207.8948546887841,207.8948546887841,l,1,0.3771418471587822,208.28506126545835,209.30569720477797,,,,,,,,,,,,,,,,,,,,,,,,,,,,,,,,,,,,,,,581,2023-05-17_10h22.18.682,eb_02psyexp,2022.2.4,99.9525724574049,
91,0,91,0,,,,,,,,,,,,,,,,,,,,,,,,,,,,,,,,,,,,,,,,,,,,,,,,,,,,,,,,,,,209.30569720477797,209.30569720477797,209.30569720477797,209.30569720477797,209.30569720477797,209.30569720477797,s,1,0.5263112600659952,209.84600076428615,210.86667111387942,,,,,,,,,,,,,,,,,,,,,,,,,,,,,,,,,,,,,,,581,2023-05-17_10h22.18.682,eb_02psyexp,2022.2.4,99.9525724574049,
92,0,92,0,,,,,,,,,,,,,,,,,,,,,,,,,,,,,,,,,,,,,,,,,,,,,,,,,,,,,,,,,,,210.86667111387942,210.86667111387942,210.86667111387942,210.86667111387942,210.86667111387942,210.86667111387942,l,1,0.4684191889828071,211.34689090540633,212.37750040902756,,,,,,,,,,,,,,,,,,,,,,,,,,,,,,,,,,,,,,,581,2023-05-17_10h22.18.682,eb_02psyexp,2022.2.4,99.9525724574049,
93,0,93,0,,,,,,,,,,,,,,,,,,,,,,,,,,,,,,,,,,,,,,,,,,,,,,,,,,,,,,,,,,,212.37750040902756,212.37750040902756,212.37750040902756,212.37750040902756,212.37750040902756,212.37750040902756,l,1,0.3735142732039094,212.7677317369962,213.78833447326906,,,,,,,,,,,,,,,,,,,,,,,,,,,,,,,,,,,,,,,581,2023-05-17_10h22.18.682,eb_02psyexp,2022.2.4,99.9525724574049,
94,0,94,0,,,,,,,,,,,,,,,,,,,,,,,,,,,,,,,,,,,,,,,,,,,,,,,,,,,,,,,,,,,213.78833447326906,213.78833447326906,213.78833447326906,213.78833447326906,213.78833447326906,213.78833447326906,l,1,0.46667603380046785,214.26862580212764,215.28920891846064,,,,,,,,,,,,,,,,,,,,,,,,,,,,,,,,,,,,,,,581,2023-05-17_10h22.18.682,eb_02psyexp,2022.2.4,99.9525724574049,
95,0,95,0,,,,,,,,,,,,,,,,,,,,,,,,,,,,,,,,,,,,,,,,,,,,,,,,,,,,,,,,,,,215.28920891846064,215.28920891846064,215.28920891846064,215.28920891846064,215.28920891846064,215.28920891846064,s,1,0.5258165360428393,215.8295514159836,216.85020154190715,,,,,,,,,,,,,,,,,,,,,,,,,,,,,,,,,,,,,,,581,2023-05-17_10h22.18.682,eb_02psyexp,2022.2.4,99.9525724574049,
96,0,96,0,,,,,,,,,,,,,,,,,,,,,,,,,,,,,,,,,,,,,,,,,,,,,,,,,,,,,,,,,,,216.85020154190715,216.85020154190715,216.85020154190715,216.85020154190715,216.85020154190715,216.85020154190715,l,1,0.4768373458646238,217.3404498336604,218.36108607472852,,,,,,,,,,,,,,,,,,,,,,,,,,,,,,,,,,,,,,,581,2023-05-17_10h22.18.682,eb_02psyexp,2022.2.4,99.9525724574049,
97,0,97,0,,,,,,,,,,,,,,,,,,,,,,,,,,,,,,,,,,,,,,,,,,,,,,,,,,,,,,,,,,,218.36108607472852,218.36108607472852,218.36108607472852,218.36108607472852,218.36108607472852,218.36108607472852,s,1,0.4939601104706526,218.87135484360624,219.89195516519248,,,,,,,,,,,,,,,,,,,,,,,,,,,,,,,,,,,,,,,581,2023-05-17_10h22.18.682,eb_02psyexp,2022.2.4,99.9525724574049,
98,0,98,0,,,,,,,,,,,,,,,,,,,,,,,,,,,,,,,,,,,,,,,,,,,,,,,,,,,,,,,,,,,219.89195516519248,219.89195516519248,219.89195516519248,219.89195516519248,219.89195516519248,219.89195516519248,l,1,0.48310032894369215,220.3922684803838,221.41287272586487,,,,,,,,,,,,,,,,,,,,,,,,,,,,,,,,,,,,,,,581,2023-05-17_10h22.18.682,eb_02psyexp,2022.2.4,99.9525724574049,
99,0,99,0,,,,,,,,,,,,,,,,,,,,,,,,,,,,,,,,,,,,,,,,,,,,,,,,,,,,,,,,,,,221.41287272586487,221.41287272586487,221.41287272586487,221.41287272586487,221.41287272586487,221.41287272586487,s,1,0.49025164206977934,221.91319720924366,222.93376221496146,,,,,,,,,,,,,,,,,,,,,,,,,,,,,,,,,,,,,,,581,2023-05-17_10h22.18.682,eb_02psyexp,2022.2.4,99.9525724574049,
100,0,100,0,,,,,,,,,,,,,,,,,,,,,,,,,,,,,,,,,,,,,,,,,,,,,,,,,,,,,,,,,,,222.93376221496146,222.93376221496146,222.93376221496146,222.93376221496146,222.93376221496146,222.93376221496146,l,1,0.4493465053383261,223.3940496679861,224.4146563282702,,,,,,,,,,,,,,,,,,,,,,,,,,,,,,,,,,,,,,,581,2023-05-17_10h22.18.682,eb_02psyexp,2022.2.4,99.9525724574049,
101,0,101,0,,,,,,,,,,,,,,,,,,,,,,,,,,,,,,,,,,,,,,,,,,,,,,,,,,,,,,,,,,,224.4146563282702,224.4146563282702,224.4146563282702,224.4146563282702,224.4146563282702,224.4146563282702,s,1,0.4404303041519597,224.86492312909104,225.885530393105,,,,,,,,,,,,,,,,,,,,,,,,,,,,,,,,,,,,,,,581,2023-05-17_10h22.18.682,eb_02psyexp,2022.2.4,99.9525724574049,
102,0,102,0,,,,,,,,,,,,,,,,,,,,,,,,,,,,,,,,,,,,,,,,,,,,,,,,,,,,,,,,,,,225.885530393105,225.885530393105,225.885530393105,225.885530393105,225.885530393105,225.885530393105,l,1,0.5055515643907711,226.40584094333462,227.43643414741382,,,,,,,,,,,,,,,,,,,,,,,,,,,,,,,,,,,,,,,581,2023-05-17_10h22.18.682,eb_02psyexp,2022.2.4,99.9525724574049,
103,0,103,0,,,,,,,,,,,,,,,,,,,,,,,,,,,,,,,,,,,,,,,,,,,,,,,,,,,,,,,,,,,227.43643414741382,227.43643414741382,227.43643414741382,227.43643414741382,227.43643414741382,227.43643414741382,l,1,0.5376959501300007,227.98675956658553,229.00737196183763,,,,,,,,,,,,,,,,,,,,,,,,,,,,,,,,,,,,,,,581,2023-05-17_10h22.18.682,eb_02psyexp,2022.2.4,99.9525724574049,
104,0,104,0,,,,,,,,,,,,,,,,,,,,,,,,,,,,,,,,,,,,,,,,,,,,,,,,,,,,,,,,,,,229.00737196183763,229.00737196183763,229.00737196183763,229.00737196183763,229.00737196183763,229.00737196183763,l,1,0.526735050487332,229.54770993173588,230.56862477585673,,,,,,,,,,,,,,,,,,,,,,,,,,,,,,,,,,,,,,,581,2023-05-17_10h22.18.682,eb_02psyexp,2022.2.4,99.9525724574049,
105,0,105,0,,,,,,,,,,,,,,,,,,,,,,,,,,,,,,,,,,,,,,,,,,,,,,,,,,,,,,,,,,,230.56862477585673,230.56862477585673,230.56862477585673,230.56862477585673,230.56862477585673,230.56862477585673,s,1,0.5015222347574309,231.0889380427543,232.10926247783937,,,,,,,,,,,,,,,,,,,,,,,,,,,,,,,,,,,,,,,581,2023-05-17_10h22.18.682,eb_02psyexp,2022.2.4,99.9525724574049,
106,0,106,0,,,,,,,,,,,,,,,,,,,,,,,,,,,,,,,,,,,,,,,,,,,,,,,,,,,,,,,,,,,232.10926247783937,232.10926247783937,232.10926247783937,232.10926247783937,232.10926247783937,232.10926247783937,l,1,0.5208777472143993,232.6495328344172,,,,,,,,,,,,,,,,,,,,,,,,,,,,,,,,,,,,,,,,581,2023-05-17_10h22.18.682,eb_02psyexp,2022.2.4,99.9525724574049,
107,0,107,0,,,,,,,,,,,,,,,,,,,,,,,,,,,,,,,,,,,,,,,,,,,,,,,,,,,,,,,,,,,233.67045945045538,233.67045945045538,233.67045945045538,233.67045945045538,233.67045945045538,233.67045945045538,s,1,0.4956773070152849,234.18078677728772,235.21104251849465,,,,,,,,,,,,,,,,,,,,,,,,,,,,,,,,,,,,,,,581,2023-05-17_10h22.18.682,eb_02psyexp,2022.2.4,99.9525724574049,
108,0,108,0,,,,,,,,,,,,,,,,,,,,,,,,,,,,,,,,,,,,,,,,,,,,,,,,,,,,,,,,,,,235.21104251849465,235.21104251849465,235.21104251849465,235.21104251849465,235.21104251849465,235.21104251849465,s,1,0.5711521544726565,235.80142458796035,236.82201464672107,,,,,,,,,,,,,,,,,,,,,,,,,,,,,,,,,,,,,,,581,2023-05-17_10h22.18.682,eb_02psyexp,2022.2.4,99.9525724574049,
109,0,109,0,,,,,,,,,,,,,,,,,,,,,,,,,,,,,,,,,,,,,,,,,,,,,,,,,,,,,,,,,,,236.82201464672107,236.82201464672107,236.82201464672107,236.82201464672107,236.82201464672107,236.82201464672107,l,1,0.512159556383267,237.35233468096703,238.38293814775534,,,,,,,,,,,,,,,,,,,,,,,,,,,,,,,,,,,,,,,581,2023-05-17_10h22.18.682,eb_02psyexp,2022.2.4,99.9525724574049,
110,0,110,0,,,,,,,,,,,,,,,,,,,,,,,,,,,,,,,,,,,,,,,,,,,,,,,,,,,,,,,,,,,238.38293814775534,238.38293814775534,238.38293814775534,238.38293814775534,238.38293814775534,238.38293814775534,s,1,0.48722141957841814,238.883284665877,239.91387213487178,,,,,,,,,,,,,,,,,,,,,,,,,,,,,,,,,,,,,,,581,2023-05-17_10h22.18.682,eb_02psyexp,2022.2.4,99.9525724574049,
111,0,111,0,,,,,,,,,,,,,,,,,,,,,,,,,,,,,,,,,,,,,,,,,,,,,,,,,,,,,,,,,,,239.91387213487178,239.91387213487178,239.91387213487178,239.91387213487178,239.91387213487178,239.91387213487178,l,1,0.5083391035441309,240.43417785561178,241.45476972544566,,,,,,,,,,,,,,,,,,,,,,,,,,,,,,,,,,,,,,,581,2023-05-17_10h22.18.682,eb_02psyexp,2022.2.4,99.9525724574049,
112,0,112,0,,,,,,,,,,,,,,,,,,,,,,,,,,,,,,,,,,,,,,,,,,,,,,,,,,,,,,,,,,,241.45476972544566,241.45476972544566,241.45476972544566,241.45476972544566,241.45476972544566,241.45476972544566,l,1,0.5905318146105856,242.055141055258,243.085735768429,,,,,,,,,,,,,,,,,,,,,,,,,,,,,,,,,,,,,,,581,2023-05-17_10h22.18.682,eb_02psyexp,2022.2.4,99.9525724574049,
113,0,113,0,,,,,,,,,,,,,,,,,,,,,,,,,,,,,,,,,,,,,,,,,,,,,,,,,,,,,,,,,,,243.085735768429,243.085735768429,243.085735768429,243.085735768429,243.085735768429,243.085735768429,l,1,0.4634423676179722,243.56604037841316,,,,,,,,,,,,,,,,,,,,,,,,,,,,,,,,,,,,,,,,581,2023-05-17_10h22.18.682,eb_02psyexp,2022.2.4,99.9525724574049,
114,0,114,0,,,,,,,,,,,,,,,,,,,,,,,,,,,,,,,,,,,,,,,,,,,,,,,,,,,,,,,,,,,244.58694103581365,244.58694103581365,244.58694103581365,244.58694103581365,244.58694103581365,244.58694103581365,l,1,0.5222550662001595,245.127286853618,246.1575715719955,,,,,,,,,,,,,,,,,,,,,,,,,,,,,,,,,,,,,,,581,2023-05-17_10h22.18.682,eb_02psyexp,2022.2.4,99.9525724574049,
115,0,115,0,,,,,,,,,,,,,,,,,,,,,,,,,,,,,,,,,,,,,,,,,,,,,,,,,,,,,,,,,,,246.1575715719955,246.1575715719955,246.1575715719955,246.1575715719955,246.1575715719955,246.1575715719955,l,1,0.46359268645755947,246.63787286169827,,,,,,,,,,,,,,,,,,,,,,,,,,,,,,,,,,,,,,,,581,2023-05-17_10h22.18.682,eb_02psyexp,2022.2.4,99.9525724574049,
116,0,116,0,,,,,,,,,,,,,,,,,,,,,,,,,,,,,,,,,,,,,,,,,,,,,,,,,,,,,,,,,,,247.65879132784903,247.65879132784903,247.65879132784903,247.65879132784903,247.65879132784903,247.65879132784903,s,1,0.6504725080449134,248.31918816966936,249.34947862301487,,,,,,,,,,,,,,,,,,,,,,,,,,,,,,,,,,,,,,,581,2023-05-17_10h22.18.682,eb_02psyexp,2022.2.4,99.9525724574049,
117,0,117,0,,,,,,,,,,,,,,,,,,,,,,,,,,,,,,,,,,,,,,,,,,,,,,,,,,,,,,,,,,,249.34947862301487,249.34947862301487,249.34947862301487,249.34947862301487,249.34947862301487,249.34947862301487,l,1,0.4877351598115638,249.84978499577846,250.87039044871926,,,,,,,,,,,,,,,,,,,,,,,,,,,,,,,,,,,,,,,581,2023-05-17_10h22.18.682,eb_02psyexp,2022.2.4,99.9525724574049,
118,0,118,0,,,,,,,,,,,,,,,,,,,,,,,,,,,,,,,,,,,,,,,,,,,,,,,,,,,,,,,,,,,250.87039044871926,250.87039044871926,250.87039044871926,250.87039044871926,250.87039044871926,250.87039044871926,s,1,0.4868356615770608,251.3706772014266,252.40130602323916,,,,,,,,,,,,,,,,,,,,,,,,,,,,,,,,,,,,,,,581,2023-05-17_10h22.18.682,eb_02psyexp,2022.2.4,99.9525724574049,
119,0,119,0,,,,,,,,,,,,,,,,,,,,,,,,,,,,,,,,,,,,,,,,,,,,,,,,,,,,,,,,,,,252.40130602323916,252.40130602323916,252.40130602323916,252.40130602323916,252.40130602323916,252.40130602323916,s,1,0.5879425877938047,253.00164535746444,254.02225684723817,,,,,,,,,,,,,,,,,,,,,,,,,,,,,,,,,,,,,,,581,2023-05-17_10h22.18.682,eb_02psyexp,2022.2.4,99.9525724574049,
120,0,120,0,,,,,,,,,,,,,,,,,,,,,,,,,,,,,,,,,,,,,,,,,,,,,,,,,,,,,,,,,,,254.02225684723817,254.02225684723817,254.02225684723817,254.02225684723817,254.02225684723817,254.02225684723817,l,1,0.4869899043114856,254.52254873141646,,,,,,,,,,,,,,,,,,,,,,,,,,,,,,,,,,,,,,,,581,2023-05-17_10h22.18.682,eb_02psyexp,2022.2.4,99.9525724574049,
121,0,121,0,,,,,,,,,,,,,,,,,,,,,,,,,,,,,,,,,,,,,,,,,,,,,,,,,,,,,,,,,,,255.54346629208885,255.54346629208885,255.54346629208885,255.54346629208885,255.54346629208885,255.54346629208885,l,1,0.40580475190654397,255.96371067792643,256.9940352397971,,,,,,,,,,,,,,,,,,,,,,,,,,,,,,,,,,,,,,,581,2023-05-17_10h22.18.682,eb_02psyexp,2022.2.4,99.9525724574049,
122,0,122,0,,,,,,,,,,,,,,,,,,,,,,,,,,,,,,,,,,,,,,,,,,,,,,,,,,,,,,,,,,,256.9940352397971,256.9940352397971,256.9940352397971,256.9940352397971,256.9940352397971,256.9940352397971,s,1,0.5543061818461865,257.56437992875,,,,,,,,,,,,,,,,,,,,,,,,,,,,,,,,,,,,,,,,581,2023-05-17_10h22.18.682,eb_02psyexp,2022.2.4,99.9525724574049,
123,0,123,0,,,,,,,,,,,,,,,,,,,,,,,,,,,,,,,,,,,,,,,,,,,,,,,,,,,,,,,,,,,258.59528705163393,258.59528705163393,258.59528705163393,258.59528705163393,258.59528705163393,258.59528705163393,s,1,0.569002112140879,259.1756406208733,260.20591235987376,,,,,,,,,,,,,,,,,,,,,,,,,,,,,,,,,,,,,,,581,2023-05-17_10h22.18.682,eb_02psyexp,2022.2.4,99.9525724574049,
124,0,124,0,,,,,,,,,,,,,,,,,,,,,,,,,,,,,,,,,,,,,,,,,,,,,,,,,,,,,,,,,,,260.20591235987376,260.20591235987376,260.20591235987376,260.20591235987376,260.20591235987376,260.20591235987376,s,1,0.41435904090758413,260.6361831329996,261.66711530904286,,,,,,,,,,,,,,,,,,,,,,,,,,,,,,,,,,,,,,,581,2023-05-17_10h22.18.682,eb_02psyexp,2022.2.4,99.9525724574049,
125,0,125,0,,,,,,,,,,,,,,,,,,,,,,,,,,,,,,,,,,,,,,,,,,,,,,,,,,,,,,,,,,,261.66711530904286,261.66711530904286,261.66711530904286,261.66711530904286,261.66711530904286,261.66711530904286,s,1,0.4652015207102522,262.14738550863694,263.1777088631643,,,,,,,,,,,,,,,,,,,,,,,,,,,,,,,,,,,,,,,581,2023-05-17_10h22.18.682,eb_02psyexp,2022.2.4,99.9525724574049,
126,0,126,0,,,,,,,,,,,,,,,,,,,,,,,,,,,,,,,,,,,,,,,,,,,,,,,,,,,,,,,,,,,263.1777088631643,263.1777088631643,263.1777088631643,263.1777088631643,263.1777088631643,263.1777088631643,s,1,0.5466172826709226,263.73802565562073,264.75864167313557,,,,,,,,,,,,,,,,,,,,,,,,,,,,,,,,,,,,,,,581,2023-05-17_10h22.18.682,eb_02psyexp,2022.2.4,99.9525724574049,
127,0,127,0,,,,,,,,,,,,,,,,,,,,,,,,,,,,,,,,,,,,,,,,,,,,,,,,,,,,,,,,,,,264.75864167313557,264.75864167313557,264.75864167313557,264.75864167313557,264.75864167313557,264.75864167313557,l,1,0.5096675236709416,265.278939847718,266.29957971093245,,,,,,,,,,,,,,,,,,,,,,,,,,,,,,,,,,,,,,,581,2023-05-17_10h22.18.682,eb_02psyexp,2022.2.4,99.9525724574049,
128,0,128,0,,,,,,,,,,,,,,,,,,,,,,,,,,,,,,,,,,,,,,,,,,,,,,,,,,,,,,,,,,,266.29957971093245,266.29957971093245,266.29957971093245,266.29957971093245,266.29957971093245,266.29957971093245,l,1,0.40875468379817903,266.7198180599371,267.7404428308364,,,,,,,,,,,,,,,,,,,,,,,,,,,,,,,,,,,,,,,581,2023-05-17_10h22.18.682,eb_02psyexp,2022.2.4,99.9525724574049,
129,0,129,0,,,,,,,,,,,,,,,,,,,,,,,,,,,,,,,,,,,,,,,,,,,,,,,,,,,,,,,,,,,267.7404428308364,267.7404428308364,267.7404428308364,267.7404428308364,267.7404428308364,267.7404428308364,l,1,0.43989271810278296,268.1906712973723,269.2212669161381,,,,,,,,,,,,,,,,,,,,,,,,,,,,,,,,,,,,,,,581,2023-05-17_10h22.18.682,eb_02psyexp,2022.2.4,99.9525724574049,
130,0,130,0,,,,,,,,,,,,,,,,,,,,,,,,,,,,,,,,,,,,,,,,,,,,,,,,,,,,,,,,,,,269.2212669161381,269.2212669161381,269.2212669161381,269.2212669161381,269.2212669161381,269.2212669161381,s,1,0.5670654742280021,269.8016283334,270.8222226180369,,,,,,,,,,,,,,,,,,,,,,,,,,,,,,,,,,,,,,,581,2023-05-17_10h22.18.682,eb_02psyexp,2022.2.4,99.9525724574049,
131,0,131,0,,,,,,,,,,,,,,,,,,,,,,,,,,,,,,,,,,,,,,,,,,,,,,,,,,,,,,,,,,,270.8222226180369,270.8222226180369,270.8222226180369,270.8222226180369,270.8222226180369,270.8222226180369,s,1,0.47016777750104666,271.3025088154245,272.32311004248913,,,,,,,,,,,,,,,,,,,,,,,,,,,,,,,,,,,,,,,581,2023-05-17_10h22.18.682,eb_02psyexp,2022.2.4,99.9525724574049,
132,0,132,0,,,,,,,,,,,,,,,,,,,,,,,,,,,,,,,,,,,,,,,,,,,,,,,,,,,,,,,,,,,272.32311004248913,272.32311004248913,272.32311004248913,272.32311004248913,272.32311004248913,272.32311004248913,l,1,0.49724327924195677,272.833440085873,273.85408417496365,,,,,,,,,,,,,,,,,,,,,,,,,,,,,,,,,,,,,,,581,2023-05-17_10h22.18.682,eb_02psyexp,2022.2.4,99.9525724574049,
133,0,133,0,,,,,,,,,,,,,,,,,,,,,,,,,,,,,,,,,,,,,,,,,,,,,,,,,,,,,,,,,,,273.85408417496365,273.85408417496365,273.85408417496365,273.85408417496365,273.85408417496365,273.85408417496365,s,1,0.4773525953060016,274.34435721789487,275.36495361546986,,,,,,,,,,,,,,,,,,,,,,,,,,,,,,,,,,,,,,,581,2023-05-17_10h22.18.682,eb_02psyexp,2022.2.4,99.9525724574049,
134,0,134,0,,,,,,,,,,,,,,,,,,,,,,,,,,,,,,,,,,,,,,,,,,,,,,,,,,,,,,,,,,,275.36495361546986,275.36495361546986,275.36495361546986,275.36495361546986,275.36495361546986,275.36495361546986,l,1,0.5984573604073375,275.97529669862706,276.99597308505327,,,,,,,,,,,,,,,,,,,,,,,,,,,,,,,,,,,,,,,581,2023-05-17_10h22.18.682,eb_02psyexp,2022.2.4,99.9525724574049,
135,0,135,0,,,,,,,,,,,,,,,,,,,,,,,,,,,,,,,,,,,,,,,,,,,,,,,,,,,,,,,,,,,276.99597308505327,276.99597308505327,276.99597308505327,276.99597308505327,276.99597308505327,276.99597308505327,s,1,0.5674325178842992,277.5762454579817,278.5968406482134,,,,,,,,,,,,,,,,,,,,,,,,,,,,,,,,,,,,,,,581,2023-05-17_10h22.18.682,eb_02psyexp,2022.2.4,99.9525724574049,
136,0,136,0,,,,,,,,,,,,,,,,,,,,,,,,,,,,,,,,,,,,,,,,,,,,,,,,,,,,,,,,,,,278.5968406482134,278.5968406482134,278.5968406482134,278.5968406482134,278.5968406482134,278.5968406482134,l,1,0.4625489063328132,279.0774543475127,280.09774739074055,,,,,,,,,,,,,,,,,,,,,,,,,,,,,,,,,,,,,,,581,2023-05-17_10h22.18.682,eb_02psyexp,2022.2.4,99.9525724574049,
137,0,137,0,,,,,,,,,,,,,,,,,,,,,,,,,,,,,,,,,,,,,,,,,,,,,,,,,,,,,,,,,,,280.09774739074055,280.09774739074055,280.09774739074055,280.09774739074055,280.09774739074055,280.09774739074055,s,1,0.49764231825247407,280.60804483492393,281.63897972751874,,,,,,,,,,,,,,,,,,,,,,,,,,,,,,,,,,,,,,,581,2023-05-17_10h22.18.682,eb_02psyexp,2022.2.4,99.9525724574049,
138,0,138,0,,,,,,,,,,,,,,,,,,,,,,,,,,,,,,,,,,,,,,,,,,,,,,,,,,,,,,,,,,,281.63897972751874,281.63897972751874,281.63897972751874,281.63897972751874,281.63897972751874,281.63897972751874,s,1,0.4924086269456893,282.14927324769087,283.1695466709789,,,,,,,,,,,,,,,,,,,,,,,,,,,,,,,,,,,,,,,581,2023-05-17_10h22.18.682,eb_02psyexp,2022.2.4,99.9525724574049,
139,0,139,0,,,,,,,,,,,,,,,,,,,,,,,,,,,,,,,,,,,,,,,,,,,,,,,,,,,,,,,,,,,283.1695466709789,283.1695466709789,283.1695466709789,283.1695466709789,283.1695466709789,283.1695466709789,s,1,0.4498457571025938,283.6298413684126,,,,,,,,,,,,,,,,,,,,,,,,,,,,,,,,,,,,,,,,581,2023-05-17_10h22.18.682,eb_02psyexp,2022.2.4,99.9525724574049,
140,0,140,0,,,,,,,,,,,,,,,,,,,,,,,,,,,,,,,,,,,,,,,,,,,,,,,,,,,,,,,,,,,284.6607726388611,284.6607726388611,284.6607726388611,284.6607726388611,284.6607726388611,284.6607726388611,s,1,0.4146310033975169,285.0910117182648,286.11128785822075,,,,,,,,,,,,,,,,,,,,,,,,,,,,,,,,,,,,,,,581,2023-05-17_10h22.18.682,eb_02psyexp,2022.2.4,99.9525724574049,
141,0,141,0,,,,,,,,,,,,,,,,,,,,,,,,,,,,,,,,,,,,,,,,,,,,,,,,,,,,,,,,,,,286.11128785822075,286.11128785822075,286.11128785822075,286.11128785822075,286.11128785822075,286.11128785822075,l,1,0.49216503789648414,286.6216471805237,287.6525660754414,,,,,,,,,,,,,,,,,,,,,,,,,,,,,,,,,,,,,,,581,2023-05-17_10h22.18.682,eb_02psyexp,2022.2.4,99.9525724574049,
142,0,142,0,,,,,,,,,,,,,,,,,,,,,,,,,,,,,,,,,,,,,,,,,,,,,,,,,,,,,,,,,,,287.6525660754414,287.6525660754414,287.6525660754414,287.6525660754414,287.6525660754414,287.6525660754414,s,1,0.4788829496828839,288.142853305093,289.1631025808165,,,,,,,,,,,,,,,,,,,,,,,,,,,,,,,,,,,,,,,581,2023-05-17_10h22.18.682,eb_02psyexp,2022.2.4,99.9525724574049,
143,0,143,0,,,,,,,,,,,,,,,,,,,,,,,,,,,,,,,,,,,,,,,,,,,,,,,,,,,,,,,,,,,289.1631025808165,289.1631025808165,289.1631025808165,289.1631025808165,289.1631025808165,289.1631025808165,l,1,0.43233904556836933,289.6134209971642,290.63432225829456,,,,,,,,,,,,,,,,,,,,,,,,,,,,,,,,,,,,,,,581,2023-05-17_10h22.18.682,eb_02psyexp,2022.2.4,99.9525724574049,
144,0,144,0,,,,,,,,,,,,,,,,,,,,,,,,,,,,,,,,,,,,,,,,,,,,,,,,,,,,,,,,,,,290.63432225829456,290.63432225829456,290.63432225829456,290.63432225829456,290.63432225829456,290.63432225829456,l,1,0.4881477819290012,291.1346138406079,292.1648901072331,,,,,,,,,,,,,,,,,,,,,,,,,,,,,,,,,,,,,,,581,2023-05-17_10h22.18.682,eb_02psyexp,2022.2.4,99.9525724574049,
145,0,145,0,,,,,,,,,,,,,,,,,,,,,,,,,,,,,,,,,,,,,,,,,,,,,,,,,,,,,,,,,,,292.1648901072331,292.1648901072331,292.1648901072331,292.1648901072331,292.1648901072331,292.1648901072331,s,1,0.5416006178129464,292.7252440266311,293.7458805695642,,,,,,,,,,,,,,,,,,,,,,,,,,,,,,,,,,,,,,,581,2023-05-17_10h22.18.682,eb_02psyexp,2022.2.4,99.9525724574049,
146,0,146,0,,,,,,,,,,,,,,,,,,,,,,,,,,,,,,,,,,,,,,,,,,,,,,,,,,,,,,,,,,,293.7458805695642,293.7458805695642,293.7458805695642,293.7458805695642,293.7458805695642,293.7458805695642,l,1,0.456604067934677,294.2161283058813,295.23671866650693,,,,,,,,,,,,,,,,,,,,,,,,,,,,,,,,,,,,,,,581,2023-05-17_10h22.18.682,eb_02psyexp,2022.2.4,99.9525724574049,
147,0,147,0,,,,,,,,,,,,,,,,,,,,,,,,,,,,,,,,,,,,,,,,,,,,,,,,,,,,,,,,,,,295.23671866650693,295.23671866650693,295.23671866650693,295.23671866650693,295.23671866650693,295.23671866650693,l,1,0.40577426564414054,295.6569865962956,,,,,,,,,,,,,,,,,,,,,,,,,,,,,,,,,,,,,,,,581,2023-05-17_10h22.18.682,eb_02psyexp,2022.2.4,99.9525724574049,
148,0,148,0,,,,,,,,,,,,,,,,,,,,,,,,,,,,,,,,,,,,,,,,,,,,,,,,,,,,,,,,,,,296.68765224306844,296.68765224306844,296.68765224306844,296.68765224306844,296.68765224306844,296.68765224306844,s,1,0.44284597015939653,297.1481899257051,298.1784861142514,,,,,,,,,,,,,,,,,,,,,,,,,,,,,,,,,,,,,,,581,2023-05-17_10h22.18.682,eb_02psyexp,2022.2.4,99.9525724574049,
149,0,149,0,,,,,,,,,,,,,,,,,,,,,,,,,,,,,,,,,,,,,,,,,,,,,,,,,,,,,,,,,,,298.1784861142514,298.1784861142514,298.1784861142514,298.1784861142514,298.1784861142514,298.1784861142514,s,1,0.5040218136273324,298.6987839869689,,,,,,,,,,,,,,,,,,,,,,,,,,,,,,,,,,,,,,,,581,2023-05-17_10h22.18.682,eb_02psyexp,2022.2.4,99.9525724574049,
150,0,150,0,,,,,,,,,,,,,,,,,,,,,,,,,,,,,,,,,,,,,,,,,,,,,,,,,,,,,,,,,,,299.72939681098796,299.72939681098796,299.72939681098796,299.72939681098796,299.72939681098796,299.72939681098796,s,1,0.3771125681232661,300.12001268961467,301.1402704169741,,,,,,,,,,,,,,,,,,,,,,,,,,,,,,,,,,,,,,,581,2023-05-17_10h22.18.682,eb_02psyexp,2022.2.4,99.9525724574049,
151,0,151,0,,,,,,,,,,,,,,,,,,,,,,,,,,,,,,,,,,,,,,,,,,,,,,,,,,,,,,,,,,,301.1402704169741,301.1402704169741,301.1402704169741,301.1402704169741,301.1402704169741,301.1402704169741,l,1,0.4142585265217349,301.57081013405696,302.5910950275138,,,,,,,,,,,,,,,,,,,,,,,,,,,,,,,,,,,,,,,581,2023-05-17_10h22.18.682,eb_02psyexp,2022.2.4,99.9525724574049,
152,0,152,0,,,,,,,,,,,,,,,,,,,,,,,,,,,,,,,,,,,,,,,,,,,,,,,,,,,,,,,,,,,302.5910950275138,302.5910950275138,302.5910950275138,302.5910950275138,302.5910950275138,302.5910950275138,l,1,0.3794542821124196,302.9816469149664,304.0019230549224,,,,,,,,,,,,,,,,,,,,,,,,,,,,,,,,,,,,,,,581,2023-05-17_10h22.18.682,eb_02psyexp,2022.2.4,99.9525724574049,
153,0,153,0,,,,,,,,,,,,,,,,,,,,,,,,,,,,,,,,,,,,,,,,,,,,,,,,,,,,,,,,,,,304.0019230549224,304.0019230549224,304.0019230549224,304.0019230549224,304.0019230549224,304.0019230549224,l,1,0.4156790093984455,304.4321841689525,,,,,,,,,,,,,,,,,,,,,,,,,,,,,,,,,,,,,,,,581,2023-05-17_10h22.18.682,eb_02psyexp,2022.2.4,99.9525724574049,
154,0,154,0,,,,,,,,,,,,,,,,,,,,,,,,,,,,,,,,,,,,,,,,,,,,,,,,,,,,,,,,,,,305.4628075575456,305.4628075575456,305.4628075575456,305.4628075575456,305.4628075575456,305.4628075575456,s,1,0.3708091378211975,305.8533606523415,306.8736539974343,,,,,,,,,,,,,,,,,,,,,,,,,,,,,,,,,,,,,,,581,2023-05-17_10h22.18.682,eb_02psyexp,2022.2.4,99.9525724574049,
155,0,155,0,,,,,,,,,,,,,,,,,,,,,,,,,,,,,,,,,,,,,,,,,,,,,,,,,,,,,,,,,,,306.8736539974343,306.8736539974343,306.8736539974343,306.8736539974343,306.8736539974343,306.8736539974343,l,1,0.44790549692697823,307.3339118696749,308.3645485393936,,,,,,,,,,,,,,,,,,,,,,,,,,,,,,,,,,,,,,,581,2023-05-17_10h22.18.682,eb_02psyexp,2022.2.4,99.9525724574049,
156,0,156,0,,,,,,,,,,,,,,,,,,,,,,,,,,,,,,,,,,,,,,,,,,,,,,,,,,,,,,,,,,,308.3645485393936,308.3645485393936,308.3645485393936,308.3645485393936,308.3645485393936,308.3645485393936,s,1,0.45299762312788516,308.8348110661609,309.85539689904545,,,,,,,,,,,,,,,,,,,,,,,,,,,,,,,,,,,,,,,581,2023-05-17_10h22.18.682,eb_02psyexp,2022.2.4,99.9525724574049,
157,0,157,0,,,,,,,,,,,,,,,,,,,,,,,,,,,,,,,,,,,,,,,,,,,,,,,,,,,,,,,,,,,309.85539689904545,309.85539689904545,309.85539689904545,309.85539689904545,309.85539689904545,309.85539689904545,l,1,0.4341600767802447,310.3056996194646,311.33627561840694,,,,,,,,,,,,,,,,,,,,,,,,,,,,,,,,,,,,,,,581,2023-05-17_10h22.18.682,eb_02psyexp,2022.2.4,99.9525724574049,
158,0,158,0,,,,,,,,,,,,,,,,,,,,,,,,,,,,,,,,,,,,,,,,,,,,,,,,,,,,,,,,,,,311.33627561840694,311.33627561840694,311.33627561840694,311.33627561840694,311.33627561840694,311.33627561840694,s,1,0.40931611554697156,311.75655984773766,312.77714900102,,,,,,,,,,,,,,,,,,,,,,,,,,,,,,,,,,,,,,,581,2023-05-17_10h22.18.682,eb_02psyexp,2022.2.4,99.9525724574049,
159,0,159,0,,,,,,,,,,,,,,,,,,,,,,,,,,,,,,,,,,,,,,,,,,,,,,,,,,,,,,,,,,,312.77714900102,312.77714900102,312.77714900102,312.77714900102,312.77714900102,312.77714900102,l,1,0.41647105081938207,313.20740347448736,314.2280397155555,,,,,,,,,,,,,,,,,,,,,,,,,,,,,,,,,,,,,,,581,2023-05-17_10h22.18.682,eb_02psyexp,2022.2.4,99.9525724574049,
160,0,160,0,,,,,,,,,,,,,,,,,,,,,,,,,,,,,,,,,,,,,,,,,,,,,,,,,,,,,,,,,,,314.2280397155555,314.2280397155555,314.2280397155555,314.2280397155555,314.2280397155555,314.2280397155555,l,1,0.4775678109144792,314.71830068482086,315.74889630358666,,,,,,,,,,,,,,,,,,,,,,,,,,,,,,,,,,,,,,,581,2023-05-17_10h22.18.682,eb_02psyexp,2022.2.4,99.9525724574049,
161,0,161,0,,,,,,,,,,,,,,,,,,,,,,,,,,,,,,,,,,,,,,,,,,,,,,,,,,,,,,,,,,,315.74889630358666,315.74889630358666,315.74889630358666,315.74889630358666,315.74889630358666,315.74889630358666,s,1,0.42874890042003244,316.18917142925784,317.20983091241214,,,,,,,,,,,,,,,,,,,,,,,,,,,,,,,,,,,,,,,581,2023-05-17_10h22.18.682,eb_02psyexp,2022.2.4,99.9525724574049,
162,0,162,0,,,,,,,,,,,,,,,,,,,,,,,,,,,,,,,,,,,,,,,,,,,,,,,,,,,,,,,,,,,317.20983091241214,317.20983091241214,317.20983091241214,317.20983091241214,317.20983091241214,317.20983091241214,l,1,0.4477868719259277,317.67006373160984,318.69064262206666,,,,,,,,,,,,,,,,,,,,,,,,,,,,,,,,,,,,,,,581,2023-05-17_10h22.18.682,eb_02psyexp,2022.2.4,99.9525724574049,
163,0,163,0,,,,,,,,,,,,,,,,,,,,,,,,,,,,,,,,,,,,,,,,,,,,,,,,,,,,,,,,,,,318.69064262206666,318.69064262206666,318.69064262206666,318.69064262206666,318.69064262206666,318.69064262206666,l,1,0.39898305374663323,319.10120804433245,320.1315075530438,,,,,,,,,,,,,,,,,,,,,,,,,,,,,,,,,,,,,,,581,2023-05-17_10h22.18.682,eb_02psyexp,2022.2.4,99.9525724574049,
164,0,164,0,,,,,,,,,,,,,,,,,,,,,,,,,,,,,,,,,,,,,,,,,,,,,,,,,,,,,,,,,,,320.1315075530438,320.1315075530438,320.1315075530438,320.1315075530438,320.1315075530438,320.1315075530438,s,1,0.47812320571392775,320.62180927139707,,,,,,,,,,,,,,,,,,,,,,,,,,,,,,,,,,,,,,,,581,2023-05-17_10h22.18.682,eb_02psyexp,2022.2.4,99.9525724574049,
165,0,165,0,,,,,,,,,,,,,,,,,,,,,,,,,,,,,,,,,,,,,,,,,,,,,,,,,,,,,,,,,,,321.6424047633773,321.6424047633773,321.6424047633773,321.6424047633773,321.6424047633773,321.6424047633773,l,1,0.4462030908325687,322.10300915373955,323.13329930533655,,,,,,,,,,,,,,,,,,,,,,,,,,,,,,,,,,,,,,,581,2023-05-17_10h22.18.682,eb_02psyexp,2022.2.4,99.9525724574049,
166,0,166,0,,,,,,,,,,,,,,,,,,,,,,,,,,,,,,,,,,,,,,,,,,,,,,,,,,,,,,,,,,,323.13329930533655,323.13329930533655,323.13329930533655,323.13329930533655,323.13329930533655,323.13329930533655,s,1,0.45134502148721367,323.60357149108313,324.624496899778,,,,,,,,,,,,,,,,,,,,,,,,,,,,,,,,,,,,,,,581,2023-05-17_10h22.18.682,eb_02psyexp,2022.2.4,99.9525724574049,
167,0,167,0,,,,,,,,,,,,,,,,,,,,,,,,,,,,,,,,,,,,,,,,,,,,,,,,,,,,,,,,,,,324.624496899778,324.624496899778,324.624496899778,324.624496899778,324.624496899778,324.624496899778,l,1,0.4081630674190819,325.0447467188351,326.0750380777754,,,,,,,,,,,,,,,,,,,,,,,,,,,,,,,,,,,,,,,581,2023-05-17_10h22.18.682,eb_02psyexp,2022.2.4,99.9525724574049,
168,0,168,0,,,,,,,,,,,,,,,,,,,,,,,,,,,,,,,,,,,,,,,,,,,,,,,,,,,,,,,,,,,326.0750380777754,326.0750380777754,326.0750380777754,326.0750380777754,326.0750380777754,326.0750380777754,s,1,0.5736137009225786,326.66539630142506,,,,,,,,,,,,,,,,,,,,,,,,,,,,,,,,,,,,,,,,581,2023-05-17_10h22.18.682,eb_02psyexp,2022.2.4,99.9525724574049,
169,0,169,0,,,,,,,,,,,,,,,,,,,,,,,,,,,,,,,,,,,,,,,,,,,,,,,,,,,,,,,,,,,327.6859899823321,327.6859899823321,327.6859899823321,327.6859899823321,327.6859899823321,327.6859899823321,l,1,0.4186956488993019,328.1165692411596,329.1369018261321,,,,,,,,,,,,,,,,,,,,,,,,,,,,,,,,,,,,,,,581,2023-05-17_10h22.18.682,eb_02psyexp,2022.2.4,99.9525724574049,
170,0,170,0,,,,,,,,,,,,,,,,,,,,,,,,,,,,,,,,,,,,,,,,,,,,,,,,,,,,,,,,,,,329.1369018261321,329.1369018261321,329.1369018261321,329.1369018261321,329.1369018261321,329.1369018261321,l,1,0.4797634318238124,329.6271317052888,,,,,,,,,,,,,,,,,,,,,,,,,,,,,,,,,,,,,,,,581,2023-05-17_10h22.18.682,eb_02psyexp,2022.2.4,99.9525724574049,
171,0,171,0,,,,,,,,,,,,,,,,,,,,,,,,,,,,,,,,,,,,,,,,,,,,,,,,,,,,,,,,,,,330.6477688519517,330.6477688519517,330.6477688519517,330.6477688519517,330.6477688519517,330.6477688519517,l,1,1.096926402184181,331.7583917453885,332.7790319104679,,,,,,,,,,,,,,,,,,,,,,,,,,,,,,,,,,,,,,,581,2023-05-17_10h22.18.682,eb_02psyexp,2022.2.4,99.9525724574049,
172,0,172,0,,,,,,,,,,,,,,,,,,,,,,,,,,,,,,,,,,,,,,,,,,,,,,,,,,,,,,,,,,,332.7790319104679,332.7790319104679,332.7790319104679,332.7790319104679,332.7790319104679,332.7790319104679,l,1,0.4536803966620937,333.24929473898374,334.269959353609,,,,,,,,,,,,,,,,,,,,,,,,,,,,,,,,,,,,,,,581,2023-05-17_10h22.18.682,eb_02psyexp,2022.2.4,99.9525724574049,
173,0,173,0,,,,,,,,,,,,,,,,,,,,,,,,,,,,,,,,,,,,,,,,,,,,,,,,,,,,,,,,,,,334.269959353609,334.269959353609,334.269959353609,334.269959353609,334.269959353609,334.269959353609,l,1,0.4427270431770012,334.73017496755347,335.76077813247684,,,,,,,,,,,,,,,,,,,,,,,,,,,,,,,,,,,,,,,581,2023-05-17_10h22.18.682,eb_02psyexp,2022.2.4,99.9525724574049,
174,0,174,0,,,,,,,,,,,,,,,,,,,,,,,,,,,,,,,,,,,,,,,,,,,,,,,,,,,,,,,,,,,335.76077813247684,335.76077813247684,335.76077813247684,335.76077813247684,335.76077813247684,335.76077813247684,s,1,0.4239462437108159,336.2010372603545,337.23163921793457,,,,,,,,,,,,,,,,,,,,,,,,,,,,,,,,,,,,,,,581,2023-05-17_10h22.18.682,eb_02psyexp,2022.2.4,99.9525724574049,
175,0,175,0,,,,,,,,,,,,,,,,,,,,,,,,,,,,,,,,,,,,,,,,,,,,,,,,,,,,,,,,,,,337.23163921793457,337.23163921793457,337.23163921793457,337.23163921793457,337.23163921793457,337.23163921793457,s,1,0.3680771382059902,337.61188852984924,338.64247177296784,,,,,,,,,,,,,,,,,,,,,,,,,,,,,,,,,,,,,,,581,2023-05-17_10h22.18.682,eb_02psyexp,2022.2.4,99.9525724574049,
176,0,176,0,,,,,,,,,,,,,,,,,,,,,,,,,,,,,,,,,,,,,,,,,,,,,,,,,,,,,,,,,,,338.64247177296784,338.64247177296784,338.64247177296784,338.64247177296784,338.64247177296784,338.64247177296784,s,1,0.3892307417700067,339.0430391812697,340.06338444375433,,,,,,,,,,,,,,,,,,,,,,,,,,,,,,,,,,,,,,,581,2023-05-17_10h22.18.682,eb_02psyexp,2022.2.4,99.9525724574049,
177,0,177,0,,,,,,,,,,,,,,,,,,,,,,,,,,,,,,,,,,,,,,,,,,,,,,,,,,,,,,,,,,,340.06338444375433,340.06338444375433,340.06338444375433,340.06338444375433,340.06338444375433,340.06338444375433,l,1,0.43236168392468244,340.5136020438513,341.53419059340376,,,,,,,,,,,,,,,,,,,,,,,,,,,,,,,,,,,,,,,581,2023-05-17_10h22.18.682,eb_02psyexp,2022.2.4,99.9525724574049,
178,0,178,0,,,,,,,,,,,,,,,,,,,,,,,,,,,,,,,,,,,,,,,,,,,,,,,,,,,,,,,,,,,341.53419059340376,341.53419059340376,341.53419059340376,341.53419059340376,341.53419059340376,341.53419059340376,l,1,0.3375874670455232,341.8847332203295,342.9153535903897,,,,,,,,,,,,,,,,,,,,,,,,,,,,,,,,,,,,,,,581,2023-05-17_10h22.18.682,eb_02psyexp,2022.2.4,99.9525724574049,
179,0,179,0,,,,,,,,,,,,,,,,,,,,,,,,,,,,,,,,,,,,,,,,,,,,,,,,,,,,,,,,,,,342.9153535903897,342.9153535903897,342.9153535903897,342.9153535903897,342.9153535903897,342.9153535903897,s,1,0.428405400714837,343.35559792793356,344.3858917016769,,,,,,,,,,,,,,,,,,,,,,,,,,,,,,,,,,,,,,,581,2023-05-17_10h22.18.682,eb_02psyexp,2022.2.4,99.9525724574049,
180,0,180,0,,,,,,,,,,,,,,,,,,,,,,,,,,,,,,,,,,,,,,,,,,,,,,,,,,,,,,,,,,,344.3858917016769,344.3858917016769,344.3858917016769,344.3858917016769,344.3858917016769,344.3858917016769,s,1,0.4538814255502075,344.85618622391485,345.8867824464105,,,,,,,,,,,,,,,,,,,,,,,,,,,,,,,,,,,,,,,581,2023-05-17_10h22.18.682,eb_02psyexp,2022.2.4,99.9525724574049,
181,0,181,0,,,,,,,,,,,,,,,,,,,,,,,,,,,,,,,,,,,,,,,,,,,,,,,,,,,,,,,,,,,345.8867824464105,345.8867824464105,345.8867824464105,345.8867824464105,345.8867824464105,345.8867824464105,s,1,0.3529734151670709,346.2570138226729,347.28761578025296,,,,,,,,,,,,,,,,,,,,,,,,,,,,,,,,,,,,,,,581,2023-05-17_10h22.18.682,eb_02psyexp,2022.2.4,99.9525724574049,
182,0,182,0,,,,,,,,,,,,,,,,,,,,,,,,,,,,,,,,,,,,,,,,,,,,,,,,,,,,,,,,,,,347.28761578025296,347.28761578025296,347.28761578025296,347.28761578025296,347.28761578025296,347.28761578025296,s,1,0.448172026197426,347.7482431108365,348.7785033797845,,,,,,,,,,,,,,,,,,,,,,,,,,,,,,,,,,,,,,,581,2023-05-17_10h22.18.682,eb_02psyexp,2022.2.4,99.9525724574049,
183,0,183,0,,,,,,,,,,,,,,,,,,,,,,,,,,,,,,,,,,,,,,,,,,,,,,,,,,,,,,,,,,,348.7785033797845,348.7785033797845,348.7785033797845,348.7785033797845,348.7785033797845,348.7785033797845,s,1,0.5252747241174802,349.31880875036586,350.34940648206975,,,,,,,,,,,,,,,,,,,,,,,,,,,,,,,,,,,,,,,581,2023-05-17_10h22.18.682,eb_02psyexp,2022.2.4,99.9525724574049,
184,0,184,0,,,,,,,,,,,,,,,,,,,,,,,,,,,,,,,,,,,,,,,,,,,,,,,,,,,,,,,,,,,350.34940648206975,350.34940648206975,350.34940648206975,350.34940648206975,350.34940648206975,350.34940648206975,s,1,0.38639883138239384,350.74966993241105,351.7802761157509,,,,,,,,,,,,,,,,,,,,,,,,,,,,,,,,,,,,,,,581,2023-05-17_10h22.18.682,eb_02psyexp,2022.2.4,99.9525724574049,
185,0,185,0,,,,,,,,,,,,,,,,,,,,,,,,,,,,,,,,,,,,,,,,,,,,,,,,,,,,,,,,,,,351.7802761157509,351.7802761157509,351.7802761157509,351.7802761157509,351.7802761157509,351.7802761157509,s,1,0.426566258771345,352.22054278990254,353.2412074044114,,,,,,,,,,,,,,,,,,,,,,,,,,,,,,,,,,,,,,,581,2023-05-17_10h22.18.682,eb_02psyexp,2022.2.4,99.9525724574049,
186,0,186,0,,,,,,,,,,,,,,,,,,,,,,,,,,,,,,,,,,,,,,,,,,,,,,,,,,,,,,,,,,,353.2412074044114,353.2412074044114,353.2412074044114,353.2412074044114,353.2412074044114,353.2412074044114,l,1,0.4375959790777415,353.69141172326636,354.7119954433292,,,,,,,,,,,,,,,,,,,,,,,,,,,,,,,,,,,,,,,581,2023-05-17_10h22.18.682,eb_02psyexp,2022.2.4,99.9525724574049,
187,0,187,0,,,,,,,,,,,,,,,,,,,,,,,,,,,,,,,,,,,,,,,,,,,,,,,,,,,,,,,,,,,354.7119954433292,354.7119954433292,354.7119954433292,354.7119954433292,354.7119954433292,354.7119954433292,l,1,0.45483344478998333,355.1826044882182,356.2029065868119,,,,,,,,,,,,,,,,,,,,,,,,,,,,,,,,,,,,,,,581,2023-05-17_10h22.18.682,eb_02psyexp,2022.2.4,99.9525724574049,
188,0,188,0,,,,,,,,,,,,,,,,,,,,,,,,,,,,,,,,,,,,,,,,,,,,,,,,,,,,,,,,,,,356.2029065868119,356.2029065868119,356.2029065868119,356.2029065868119,356.2029065868119,356.2029065868119,l,1,0.47593271615915,356.69318325200584,,,,,,,,,,,,,,,,,,,,,,,,,,,,,,,,,,,,,,,,581,2023-05-17_10h22.18.682,eb_02psyexp,2022.2.4,99.9525724574049,
189,0,189,0,,,,,,,,,,,,,,,,,,,,,,,,,,,,,,,,,,,,,,,,,,,,,,,,,,,,,,,,,,,357.71378085692413,357.71378085692413,357.71378085692413,357.71378085692413,357.71378085692413,357.71378085692413,s,1,0.4930428033694625,358.22441908414476,359.2447501597926,,,,,,,,,,,,,,,,,,,,,,,,,,,,,,,,,,,,,,,581,2023-05-17_10h22.18.682,eb_02psyexp,2022.2.4,99.9525724574049,
190,0,190,0,,,,,,,,,,,,,,,,,,,,,,,,,,,,,,,,,,,,,,,,,,,,,,,,,,,,,,,,,,,359.2447501597926,359.2447501597926,359.2447501597926,359.2447501597926,359.2447501597926,359.2447501597926,s,1,0.41014045441988856,359.6649833774427,360.6858855440514,,,,,,,,,,,,,,,,,,,,,,,,,,,,,,,,,,,,,,,581,2023-05-17_10h22.18.682,eb_02psyexp,2022.2.4,99.9525724574049,
191,0,191,0,,,,,,,,,,,,,,,,,,,,,,,,,,,,,,,,,,,,,,,,,,,,,,,,,,,,,,,,,,,360.6858855440514,360.6858855440514,360.6858855440514,360.6858855440514,360.6858855440514,360.6858855440514,l,1,0.46494495240040123,361.16615725285374,362.18643067614175,,,,,,,,,,,,,,,,,,,,,,,,,,,,,,,,,,,,,,,581,2023-05-17_10h22.18.682,eb_02psyexp,2022.2.4,99.9525724574049,
192,0,192,0,,,,,,,,,,,,,,,,,,,,,,,,,,,,,,,,,,,,,,,,,,,,,,,,,,,,,,,,,,,362.18643067614175,362.18643067614175,362.18643067614175,362.18643067614175,362.18643067614175,362.18643067614175,s,1,0.4364423272199929,362.6367119655479,,,,,,,,,,,,,,,,,,,,,,,,,,,,,,,,,,,,,,,,581,2023-05-17_10h22.18.682,eb_02psyexp,2022.2.4,99.9525724574049,
193,0,193,0,,,,,,,,,,,,,,,,,,,,,,,,,,,,,,,,,,,,,,,,,,,,,,,,,,,,,,,,,,,363.6576289226068,363.6576289226068,363.6576289226068,363.6576289226068,363.6576289226068,363.6576289226068,l,1,0.6212647729553282,364.2980161535088,365.31834843661636,,,,,,,,,,,,,,,,,,,,,,,,,,,,,,,,,,,,,,,581,2023-05-17_10h22.18.682,eb_02psyexp,2022.2.4,99.9525724574049,
194,0,194,0,,,,,,,,,,,,,,,,,,,,,,,,,,,,,,,,,,,,,,,,,,,,,,,,,,,,,,,,,,,365.31834843661636,365.31834843661636,365.31834843661636,365.31834843661636,365.31834843661636,365.31834843661636,s,1,0.5765376740600914,365.9086520264391,366.92932569631375,,,,,,,,,,,,,,,,,,,,,,,,,,,,,,,,,,,,,,,581,2023-05-17_10h22.18.682,eb_02psyexp,2022.2.4,99.9525724574049,
195,0,195,0,,,,,,,,,,,,,,,,,,,,,,,,,,,,,,,,,,,,,,,,,,,,,,,,,,,,,,,,,,,366.92932569631375,366.92932569631375,366.92932569631375,366.92932569631375,366.92932569631375,366.92932569631375,l,1,0.5085829943418503,367.44953241187613,368.4701973282499,,,,,,,,,,,,,,,,,,,,,,,,,,,,,,,,,,,,,,,581,2023-05-17_10h22.18.682,eb_02psyexp,2022.2.4,99.9525724574049,
196,0,196,0,,,,,,,,,,,,,,,,,,,,,,,,,,,,,,,,,,,,,,,,,,,,,,,,,,,,,,,,,,,368.4701973282499,368.4701973282499,368.4701973282499,368.4701973282499,368.4701973282499,368.4701973282499,s,1,0.5837037776364014,369.07052489044145,370.0911671684589,,,,,,,,,,,,,,,,,,,,,,,,,,,,,,,,,,,,,,,581,2023-05-17_10h22.18.682,eb_02psyexp,2022.2.4,99.9525724574049,
197,0,197,0,,,,,,,,,,,,,,,,,,,,,,,,,,,,,,,,,,,,,,,,,,,,,,,,,,,,,,,,,,,370.0911671684589,370.0911671684589,370.0911671684589,370.0911671684589,370.0911671684589,370.0911671684589,l,1,0.6188062449218705,370.7215065811761,371.75214113795664,,,,,,,,,,,,,,,,,,,,,,,,,,,,,,,,,,,,,,,581,2023-05-17_10h22.18.682,eb_02psyexp,2022.2.4,99.9525724574049,
198,0,198,0,,,,,,,,,,,,,,,,,,,,,,,,,,,,,,,,,,,,,,,,,,,,,,,,,,,,,,,,,,,371.75214113795664,371.75214113795664,371.75214113795664,371.75214113795664,371.75214113795664,371.75214113795664,l,1,0.509785846923478,372.27241335390136,373.2930450673448,,,,,,,,,,,,,,,,,,,,,,,,,,,,,,,,,,,,,,,581,2023-05-17_10h22.18.682,eb_02psyexp,2022.2.4,99.9525724574049,
199,0,199,0,,,,,0,0,0,0,,,,,,,,,,,,,,,,,,,,,,,,,,,,,,,,,,,,,,,,,,,,,,,,,,,373.2930450673448,373.2930450673448,373.2930450673448,373.2930450673448,373.2930450673448,373.2930450673448,s,1,0.5928677935153246,373.9033972057514,374.90397493727505,374.90397493727505,374.90397493727505,space,15.325049426988699,,,,,,,,,,,,,,,,,,,,,,,,,,,,,,,,,,,581,2023-05-17_10h22.18.682,eb_02psyexp,2022.2.4,99.9525724574049,
199,0,199,0,,,,,,,,,,,,,,,,,,,,,,,,,,,,,,,,,,,,,,,,,,,,,,,,,,,,,,,,,,,,,,,,,,,,,,,,,,,,,,,,,,,,,,,,,,,,,,,,,,,,,,,,,,,,581,2023-05-17_10h22.18.682,eb_02psyexp,2022.2.4,99.9525724574049,
200,0,200,0,,,,,,,,,,,,,,,,,,,,,,,,,,,,,,,,,,,,,,,,,,,,,,,,,,,,,,,,,,,390.27340370754246,390.27340370754246,390.27340370754246,390.27340370754246,390.27340370754246,390.27340370754246,l,1,2.4196452534524724,392.7045226652408,393.7351294523105,,,,,,,,,,,,,,,,,,,,,,,,,,,,,,,,,,,,,,,581,2023-05-17_10h22.18.682,eb_02psyexp,2022.2.4,99.9525724574049,
201,0,201,0,,,,,,,,,,,,,,,,,,,,,,,,,,,,,,,,,,,,,,,,,,,,,,,,,,,,,,,,,,,393.7351294523105,393.7351294523105,393.7351294523105,393.7351294523105,393.7351294523105,393.7351294523105,s,1,0.5339222833281383,394.2854458161164,395.31608007103205,,,,,,,,,,,,,,,,,,,,,,,,,,,,,,,,,,,,,,,581,2023-05-17_10h22.18.682,eb_02psyexp,2022.2.4,99.9525724574049,
202,0,202,0,,,,,,,,,,,,,,,,,,,,,,,,,,,,,,,,,,,,,,,,,,,,,,,,,,,,,,,,,,,395.31608007103205,395.31608007103205,395.31608007103205,395.31608007103205,395.31608007103205,395.31608007103205,l,1,0.6729783774353564,396.00646129529923,397.02706493716687,,,,,,,,,,,,,,,,,,,,,,,,,,,,,,,,,,,,,,,581,2023-05-17_10h22.18.682,eb_02psyexp,2022.2.4,99.9525724574049,
203,0,203,0,,,,,,,,,,,,,,,,,,,,,,,,,,,,,,,,,,,,,,,,,,,,,,,,,,,,,,,,,,,397.02706493716687,397.02706493716687,397.02706493716687,397.02706493716687,397.02706493716687,397.02706493716687,s,1,0.44203430879861116,397.4873397127958,,,,,,,,,,,,,,,,,,,,,,,,,,,,,,,,,,,,,,,,581,2023-05-17_10h22.18.682,eb_02psyexp,2022.2.4,99.9525724574049,
204,0,204,0,,,,,,,,,,,,,,,,,,,,,,,,,,,,,,,,,,,,,,,,,,,,,,,,,,,,,,,,,,,398.50827810075134,398.50827810075134,398.50827810075134,398.50827810075134,398.50827810075134,398.50827810075134,l,1,0.44782520621083677,398.96854623570107,399.988854673109,,,,,,,,,,,,,,,,,,,,,,,,,,,,,,,,,,,,,,,581,2023-05-17_10h22.18.682,eb_02psyexp,2022.2.4,99.9525724574049,
205,0,205,0,,,,,,,,,,,,,,,,,,,,,,,,,,,,,,,,,,,,,,,,,,,,,,,,,,,,,,,,,,,399.988854673109,399.988854673109,399.988854673109,399.988854673109,399.988854673109,399.988854673109,s,1,0.5112624728353694,400.519161426113,401.54006962967105,,,,,,,,,,,,,,,,,,,,,,,,,,,,,,,,,,,,,,,581,2023-05-17_10h22.18.682,eb_02psyexp,2022.2.4,99.9525724574049,
206,0,206,0,,,,,,,,,,,,,,,,,,,,,,,,,,,,,,,,,,,,,,,,,,,,,,,,,,,,,,,,,,,401.54006962967105,401.54006962967105,401.54006962967105,401.54006962967105,401.54006962967105,401.54006962967105,l,1,0.4400152671150863,401.99031469761394,403.0206123953685,,,,,,,,,,,,,,,,,,,,,,,,,,,,,,,,,,,,,,,581,2023-05-17_10h22.18.682,eb_02psyexp,2022.2.4,99.9525724574049,
207,0,207,0,,,,,,,,,,,,,,,,,,,,,,,,,,,,,,,,,,,,,,,,,,,,,,,,,,,,,,,,,,,403.0206123953685,403.0206123953685,403.0206123953685,403.0206123953685,403.0206123953685,403.0206123953685,l,1,0.447479895548895,403.4808778137667,404.5117958030896,,,,,,,,,,,,,,,,,,,,,,,,,,,,,,,,,,,,,,,581,2023-05-17_10h22.18.682,eb_02psyexp,2022.2.4,99.9525724574049,
208,0,208,0,,,,,,,,,,,,,,,,,,,,,,,,,,,,,,,,,,,,,,,,,,,,,,,,,,,,,,,,,,,404.5117958030896,404.5117958030896,404.5117958030896,404.5117958030896,404.5117958030896,404.5117958030896,s,1,0.5642688798252493,405.0921517870156,406.1224485791754,,,,,,,,,,,,,,,,,,,,,,,,,,,,,,,,,,,,,,,581,2023-05-17_10h22.18.682,eb_02psyexp,2022.2.4,99.9525724574049,
209,0,209,0,,,,,,,,,,,,,,,,,,,,,,,,,,,,,,,,,,,,,,,,,,,,,,,,,,,,,,,,,,,406.1224485791754,406.1224485791754,406.1224485791754,406.1224485791754,406.1224485791754,406.1224485791754,l,1,0.529672003001906,406.6627624015091,407.6836757363053,,,,,,,,,,,,,,,,,,,,,,,,,,,,,,,,,,,,,,,581,2023-05-17_10h22.18.682,eb_02psyexp,2022.2.4,99.9525724574049,
210,0,210,0,,,,,,,,,,,,,,,,,,,,,,,,,,,,,,,,,,,,,,,,,,,,,,,,,,,,,,,,,,,407.6836757363053,407.6836757363053,407.6836757363053,407.6836757363053,407.6836757363053,407.6836757363053,s,1,0.44056311598978937,408.1439604727784,409.164327468141,,,,,,,,,,,,,,,,,,,,,,,,,,,,,,,,,,,,,,,581,2023-05-17_10h22.18.682,eb_02psyexp,2022.2.4,99.9525724574049,
211,0,211,0,,,,,,,,,,,,,,,,,,,,,,,,,,,,,,,,,,,,,,,,,,,,,,,,,,,,,,,,,,,409.164327468141,409.164327468141,409.164327468141,409.164327468141,409.164327468141,409.164327468141,l,1,0.39179461367893964,409.5744832865894,410.5954099026276,,,,,,,,,,,,,,,,,,,,,,,,,,,,,,,,,,,,,,,581,2023-05-17_10h22.18.682,eb_02psyexp,2022.2.4,99.9525724574049,
212,0,212,0,,,,,,,,,,,,,,,,,,,,,,,,,,,,,,,,,,,,,,,,,,,,,,,,,,,,,,,,,,,410.5954099026276,410.5954099026276,410.5954099026276,410.5954099026276,410.5954099026276,410.5954099026276,s,1,0.416748748277314,411.0256652815733,412.0459471566137,,,,,,,,,,,,,,,,,,,,,,,,,,,,,,,,,,,,,,,581,2023-05-17_10h22.18.682,eb_02psyexp,2022.2.4,99.9525724574049,
213,0,213,0,,,,,,,,,,,,,,,,,,,,,,,,,,,,,,,,,,,,,,,,,,,,,,,,,,,,,,,,,,,412.0459471566137,412.0459471566137,412.0459471566137,412.0459471566137,412.0459471566137,412.0459471566137,l,1,0.4302294503431767,412.4862289229641,413.5071322969161,,,,,,,,,,,,,,,,,,,,,,,,,,,,,,,,,,,,,,,581,2023-05-17_10h22.18.682,eb_02psyexp,2022.2.4,99.9525724574049,
214,0,214,0,,,,,,,,,,,,,,,,,,,,,,,,,,,,,,,,,,,,,,,,,,,,,,,,,,,,,,,,,,,413.5071322969161,413.5071322969161,413.5071322969161,413.5071322969161,413.5071322969161,413.5071322969161,s,1,0.43297503306530416,413.9573788740672,414.97766225831583,,,,,,,,,,,,,,,,,,,,,,,,,,,,,,,,,,,,,,,581,2023-05-17_10h22.18.682,eb_02psyexp,2022.2.4,99.9525724574049,
215,0,215,0,,,,,,,,,,,,,,,,,,,,,,,,,,,,,,,,,,,,,,,,,,,,,,,,,,,,,,,,,,,414.97766225831583,414.97766225831583,414.97766225831583,414.97766225831583,414.97766225831583,414.97766225831583,s,1,0.569520078250207,415.5580203552963,,,,,,,,,,,,,,,,,,,,,,,,,,,,,,,,,,,,,,,,581,2023-05-17_10h22.18.682,eb_02psyexp,2022.2.4,99.9525724574049,
216,0,216,0,,,,,,,,,,,,,,,,,,,,,,,,,,,,,,,,,,,,,,,,,,,,,,,,,,,,,,,,,,,416.5789602524601,416.5789602524601,416.5789602524601,416.5789602524601,416.5789602524601,416.5789602524601,s,1,0.4321923488751054,417.02920924441423,418.04947572539095,,,,,,,,,,,,,,,,,,,,,,,,,,,,,,,,,,,,,,,581,2023-05-17_10h22.18.682,eb_02psyexp,2022.2.4,99.9525724574049,
217,0,217,0,,,,,,,,,,,,,,,,,,,,,,,,,,,,,,,,,,,,,,,,,,,,,,,,,,,,,,,,,,,418.04947572539095,418.04947572539095,418.04947572539095,418.04947572539095,418.04947572539095,418.04947572539095,l,1,0.48970681172795594,418.54979598289356,,,,,,,,,,,,,,,,,,,,,,,,,,,,,,,,,,,,,,,,581,2023-05-17_10h22.18.682,eb_02psyexp,2022.2.4,99.9525724574049,
218,0,218,0,,,,,,,,,,,,,,,,,,,,,,,,,,,,,,,,,,,,,,,,,,,,,,,,,,,,,,,,,,,419.57067671848927,419.57067671848927,419.57067671848927,419.57067671848927,419.57067671848927,419.57067671848927,s,1,0.44852367567364126,420.0309840934351,421.0612908464391,,,,,,,,,,,,,,,,,,,,,,,,,,,,,,,,,,,,,,,581,2023-05-17_10h22.18.682,eb_02psyexp,2022.2.4,99.9525724574049,
219,0,219,0,,,,,,,,,,,,,,,,,,,,,,,,,,,,,,,,,,,,,,,,,,,,,,,,,,,,,,,,,,,421.0612908464391,421.0612908464391,421.0612908464391,421.0612908464391,421.0612908464391,421.0612908464391,l,1,0.42989379877690226,421.5015306563582,,,,,,,,,,,,,,,,,,,,,,,,,,,,,,,,,,,,,,,,581,2023-05-17_10h22.18.682,eb_02psyexp,2022.2.4,99.9525724574049,
220,0,220,0,,,,,,,,,,,,,,,,,,,,,,,,,,,,,,,,,,,,,,,,,,,,,,,,,,,,,,,,,,,422.5223953941604,422.5223953941604,422.5223953941604,422.5223953941604,422.5223953941604,422.5223953941604,l,1,0.4488442351575941,422.98272661468945,424.0030564831104,,,,,,,,,,,,,,,,,,,,,,,,,,,,,,,,,,,,,,,581,2023-05-17_10h22.18.682,eb_02psyexp,2022.2.4,99.9525724574049,
221,0,221,0,,,,,,,,,,,,,,,,,,,,,,,,,,,,,,,,,,,,,,,,,,,,,,,,,,,,,,,,,,,424.0030564831104,424.0030564831104,424.0030564831104,424.0030564831104,424.0030564831104,424.0030564831104,s,1,0.43215159967076033,424.4532991363667,,,,,,,,,,,,,,,,,,,,,,,,,,,,,,,,,,,,,,,,581,2023-05-17_10h22.18.682,eb_02psyexp,2022.2.4,99.9525724574049,
222,0,222,0,,,,,,,,,,,,,,,,,,,,,,,,,,,,,,,,,,,,,,,,,,,,,,,,,,,,,,,,,,,425.47423661872745,425.47423661872745,425.47423661872745,425.47423661872745,425.47423661872745,425.47423661872745,l,1,0.4889998906292021,425.9744898667559,426.9947910598712,,,,,,,,,,,,,,,,,,,,,,,,,,,,,,,,,,,,,,,581,2023-05-17_10h22.18.682,eb_02psyexp,2022.2.4,99.9525724574049,
223,0,223,0,,,,,,,,,,,,,,,,,,,,,,,,,,,,,,,,,,,,,,,,,,,,,,,,,,,,,,,,,,,426.9947910598712,426.9947910598712,426.9947910598712,426.9947910598712,426.9947910598712,426.9947910598712,s,1,0.4964204494608566,427.5050833725836,428.53602279291954,,,,,,,,,,,,,,,,,,,,,,,,,,,,,,,,,,,,,,,581,2023-05-17_10h22.18.682,eb_02psyexp,2022.2.4,99.9525724574049,
224,0,224,0,,,,,,,,,,,,,,,,,,,,,,,,,,,,,,,,,,,,,,,,,,,,,,,,,,,,,,,,,,,428.53602279291954,428.53602279291954,428.53602279291954,428.53602279291954,428.53602279291954,428.53602279291954,s,1,0.5062883681384847,429.0563236841699,430.0865993471816,,,,,,,,,,,,,,,,,,,,,,,,,,,,,,,,,,,,,,,581,2023-05-17_10h22.18.682,eb_02psyexp,2022.2.4,99.9525724574049,
225,0,225,0,,,,,,,,,,,,,,,,,,,,,,,,,,,,,,,,,,,,,,,,,,,,,,,,,,,,,,,,,,,430.0865993471816,430.0865993471816,430.0865993471816,430.0865993471816,430.0865993471816,430.0865993471816,l,1,0.45167584356386214,430.5568763624178,431.5774893615162,,,,,,,,,,,,,,,,,,,,,,,,,,,,,,,,,,,,,,,581,2023-05-17_10h22.18.682,eb_02psyexp,2022.2.4,99.9525724574049,
226,0,226,0,,,,,,,,,,,,,,,,,,,,,,,,,,,,,,,,,,,,,,,,,,,,,,,,,,,,,,,,,,,431.5774893615162,431.5774893615162,431.5774893615162,431.5774893615162,431.5774893615162,431.5774893615162,l,1,0.44877571635879576,432.0380750375334,433.05840913171414,,,,,,,,,,,,,,,,,,,,,,,,,,,,,,,,,,,,,,,581,2023-05-17_10h22.18.682,eb_02psyexp,2022.2.4,99.9525724574049,
227,0,227,0,,,,,,,,,,,,,,,,,,,,,,,,,,,,,,,,,,,,,,,,,,,,,,,,,,,,,,,,,,,433.05840913171414,433.05840913171414,433.05840913171414,433.05840913171414,433.05840913171414,433.05840913171414,s,1,0.455845833173953,433.5286565661663,,,,,,,,,,,,,,,,,,,,,,,,,,,,,,,,,,,,,,,,581,2023-05-17_10h22.18.682,eb_02psyexp,2022.2.4,99.9525724574049,
228,0,228,0,,,,,,,,,,,,,,,,,,,,,,,,,,,,,,,,,,,,,,,,,,,,,,,,,,,,,,,,,,,434.5495403201785,434.5495403201785,434.5495403201785,434.5495403201785,434.5495403201785,434.5495403201785,l,1,0.46075323002878577,435.0298071994912,436.05010567593854,,,,,,,,,,,,,,,,,,,,,,,,,,,,,,,,,,,,,,,581,2023-05-17_10h22.18.682,eb_02psyexp,2022.2.4,99.9525724574049,
229,0,229,0,,,,,,,,,,,,,,,,,,,,,,,,,,,,,,,,,,,,,,,,,,,,,,,,,,,,,,,,,,,436.05010567593854,436.05010567593854,436.05010567593854,436.05010567593854,436.05010567593854,436.05010567593854,s,1,0.49617203103844076,436.56042817328125,437.5813330564415,,,,,,,,,,,,,,,,,,,,,,,,,,,,,,,,,,,,,,,581,2023-05-17_10h22.18.682,eb_02psyexp,2022.2.4,99.9525724574049,
230,0,230,0,,,,,,,,,,,,,,,,,,,,,,,,,,,,,,,,,,,,,,,,,,,,,,,,,,,,,,,,,,,437.5813330564415,437.5813330564415,437.5813330564415,437.5813330564415,437.5813330564415,437.5813330564415,l,1,0.46097357699181885,438.0615842398256,439.0919033685932,,,,,,,,,,,,,,,,,,,,,,,,,,,,,,,,,,,,,,,581,2023-05-17_10h22.18.682,eb_02psyexp,2022.2.4,99.9525724574049,
231,0,231,0,,,,,,,,,,,,,,,,,,,,,,,,,,,,,,,,,,,,,,,,,,,,,,,,,,,,,,,,,,,439.0919033685932,439.0919033685932,439.0919033685932,439.0919033685932,439.0919033685932,439.0919033685932,l,1,0.42238359176553786,439.5321606853977,,,,,,,,,,,,,,,,,,,,,,,,,,,,,,,,,,,,,,,,581,2023-05-17_10h22.18.682,eb_02psyexp,2022.2.4,99.9525724574049,
232,0,232,0,,,,,,,,,,,,,,,,,,,,,,,,,,,,,,,,,,,,,,,,,,,,,,,,,,,,,,,,,,,440.55308669782244,440.55308669782244,440.55308669782244,440.55308669782244,440.55308669782244,440.55308669782244,s,1,0.6092902775853872,441.17347156233154,442.19373260997236,,,,,,,,,,,,,,,,,,,,,,,,,,,,,,,,,,,,,,,581,2023-05-17_10h22.18.682,eb_02psyexp,2022.2.4,99.9525724574049,
233,0,233,0,,,,,,,,,,,,,,,,,,,,,,,,,,,,,,,,,,,,,,,,,,,,,,,,,,,,,,,,,,,442.19373260997236,442.19373260997236,442.19373260997236,442.19373260997236,442.19373260997236,442.19373260997236,l,1,0.4245943049900234,442.634005019092,,,,,,,,,,,,,,,,,,,,,,,,,,,,,,,,,,,,,,,,581,2023-05-17_10h22.18.682,eb_02psyexp,2022.2.4,99.9525724574049,
234,0,234,0,,,,,,,,,,,,,,,,,,,,,,,,,,,,,,,,,,,,,,,,,,,,,,,,,,,,,,,,,,,443.65493555914145,443.65493555914145,443.65493555914145,443.65493555914145,443.65493555914145,443.65493555914145,s,1,0.4744579012040049,444.14521071501076,445.1655315280659,,,,,,,,,,,,,,,,,,,,,,,,,,,,,,,,,,,,,,,581,2023-05-17_10h22.18.682,eb_02psyexp,2022.2.4,99.9525724574049,
235,0,235,0,,,,,,,,,,,,,,,,,,,,,,,,,,,,,,,,,,,,,,,,,,,,,,,,,,,,,,,,,,,445.1655315280659,445.1655315280659,445.1655315280659,445.1655315280659,445.1655315280659,445.1655315280659,l,1,0.4437874248251319,445.62578517443035,,,,,,,,,,,,,,,,,,,,,,,,,,,,,,,,,,,,,,,,581,2023-05-17_10h22.18.682,eb_02psyexp,2022.2.4,99.9525724574049,
236,0,236,0,,,,,,,,,,,,,,,,,,,,,,,,,,,,,,,,,,,,,,,,,,,,,,,,,,,,,,,,,,,446.6466797948815,446.6466797948815,446.6466797948815,446.6466797948815,446.6466797948815,446.6466797948815,s,1,0.5466740295523778,447.20697998593096,448.2272905361606,,,,,,,,,,,,,,,,,,,,,,,,,,,,,,,,,,,,,,,581,2023-05-17_10h22.18.682,eb_02psyexp,2022.2.4,99.9525724574049,
237,0,237,0,,,,,,,,,,,,,,,,,,,,,,,,,,,,,,,,,,,,,,,,,,,,,,,,,,,,,,,,,,,448.2272905361606,448.2272905361606,448.2272905361606,448.2272905361606,448.2272905361606,448.2272905361606,l,1,0.4620735003845766,448.7075912221335,,,,,,,,,,,,,,,,,,,,,,,,,,,,,,,,,,,,,,,,581,2023-05-17_10h22.18.682,eb_02psyexp,2022.2.4,99.9525724574049,
238,0,238,0,,,,,,,,,,,,,,,,,,,,,,,,,,,,,,,,,,,,,,,,,,,,,,,,,,,,,,,,,,,449.7285145178903,449.7285145178903,449.7285145178903,449.7285145178903,449.7285145178903,449.7285145178903,s,1,0.5048226085491478,450.2488326142775,451.2691147910664,,,,,,,,,,,,,,,,,,,,,,,,,,,,,,,,,,,,,,,581,2023-05-17_10h22.18.682,eb_02psyexp,2022.2.4,99.9525724574049,
239,0,239,0,,,,,,,,,,,,,,,,,,,,,,,,,,,,,,,,,,,,,,,,,,,,,,,,,,,,,,,,,,,451.2691147910664,451.2691147910664,451.2691147910664,451.2691147910664,451.2691147910664,451.2691147910664,l,1,0.532273605465889,451.8194438323844,452.84003298566677,,,,,,,,,,,,,,,,,,,,,,,,,,,,,,,,,,,,,,,581,2023-05-17_10h22.18.682,eb_02psyexp,2022.2.4,99.9525724574049,
240,0,240,0,,,,,,,,,,,,,,,,,,,,,,,,,,,,,,,,,,,,,,,,,,,,,,,,,,,,,,,,,,,452.84003298566677,452.84003298566677,452.84003298566677,452.84003298566677,452.84003298566677,452.84003298566677,s,1,0.4813420814462006,453.3403444897849,454.3609746939037,,,,,,,,,,,,,,,,,,,,,,,,,,,,,,,,,,,,,,,581,2023-05-17_10h22.18.682,eb_02psyexp,2022.2.4,99.9525724574049,
241,0,241,0,,,,,,,,,,,,,,,,,,,,,,,,,,,,,,,,,,,,,,,,,,,,,,,,,,,,,,,,,,,454.3609746939037,454.3609746939037,454.3609746939037,454.3609746939037,454.3609746939037,454.3609746939037,l,1,0.48048001201823354,454.86119987035636,455.88182101922575,,,,,,,,,,,,,,,,,,,,,,,,,,,,,,,,,,,,,,,581,2023-05-17_10h22.18.682,eb_02psyexp,2022.2.4,99.9525724574049,
242,0,242,0,,,,,,,,,,,,,,,,,,,,,,,,,,,,,,,,,,,,,,,,,,,,,,,,,,,,,,,,,,,455.88182101922575,455.88182101922575,455.88182101922575,455.88182101922575,455.88182101922575,455.88182101922575,s,1,0.4715906750643626,456.37209919351153,457.3926931762835,,,,,,,,,,,,,,,,,,,,,,,,,,,,,,,,,,,,,,,581,2023-05-17_10h22.18.682,eb_02psyexp,2022.2.4,99.9525724574049,
243,0,243,0,,,,,,,,,,,,,,,,,,,,,,,,,,,,,,,,,,,,,,,,,,,,,,,,,,,,,,,,,,,457.3926931762835,457.3926931762835,457.3926931762835,457.3926931762835,457.3926931762835,457.3926931762835,l,1,0.4407378842588514,457.85297278140206,458.8736216999823,,,,,,,,,,,,,,,,,,,,,,,,,,,,,,,,,,,,,,,581,2023-05-17_10h22.18.682,eb_02psyexp,2022.2.4,99.9525724574049,
244,0,244,0,,,,,,,,,,,,,,,,,,,,,,,,,,,,,,,,,,,,,,,,,,,,,,,,,,,,,,,,,,,458.8736216999823,458.8736216999823,458.8736216999823,458.8736216999823,458.8736216999823,458.8736216999823,s,1,0.43182409775909036,459.32381877466105,460.3444954629522,,,,,,,,,,,,,,,,,,,,,,,,,,,,,,,,,,,,,,,581,2023-05-17_10h22.18.682,eb_02psyexp,2022.2.4,99.9525724574049,
245,0,245,0,,,,,,,,,,,,,,,,,,,,,,,,,,,,,,,,,,,,,,,,,,,,,,,,,,,,,,,,,,,460.3444954629522,460.3444954629522,460.3444954629522,460.3444954629522,460.3444954629522,460.3444954629522,l,1,0.6169215244008228,460.9748276313767,461.9954738334054,,,,,,,,,,,,,,,,,,,,,,,,,,,,,,,,,,,,,,,581,2023-05-17_10h22.18.682,eb_02psyexp,2022.2.4,99.9525724574049,
246,0,246,0,,,,,,,,,,,,,,,,,,,,,,,,,,,,,,,,,,,,,,,,,,,,,,,,,,,,,,,,,,,461.9954738334054,461.9954738334054,461.9954738334054,461.9954738334054,461.9954738334054,461.9954738334054,s,1,0.49295496637932956,462.50573022663593,,,,,,,,,,,,,,,,,,,,,,,,,,,,,,,,,,,,,,,,581,2023-05-17_10h22.18.682,eb_02psyexp,2022.2.4,99.9525724574049,
247,0,247,0,,,,,,,,,,,,,,,,,,,,,,,,,,,,,,,,,,,,,,,,,,,,,,,,,,,,,,,,,,,463.5266462781001,463.5266462781001,463.5266462781001,463.5266462781001,463.5266462781001,463.5266462781001,l,1,0.41779886733274907,463.95691976777744,464.9771624029381,,,,,,,,,,,,,,,,,,,,,,,,,,,,,,,,,,,,,,,581,2023-05-17_10h22.18.682,eb_02psyexp,2022.2.4,99.9525724574049,
248,0,248,0,,,,,,,,,,,,,,,,,,,,,,,,,,,,,,,,,,,,,,,,,,,,,,,,,,,,,,,,,,,464.9771624029381,464.9771624029381,464.9771624029381,464.9771624029381,464.9771624029381,464.9771624029381,s,1,0.5432643877575174,465.537503644824,,,,,,,,,,,,,,,,,,,,,,,,,,,,,,,,,,,,,,,,581,2023-05-17_10h22.18.682,eb_02psyexp,2022.2.4,99.9525724574049,
249,0,249,0,,,,,,,,,,,,,,,,,,,,,,,,,,,,,,,,,,,,,,,,,,,,,,,,,,,,,,,,,,,466.5584175833501,466.5584175833501,466.5584175833501,466.5584175833501,466.5584175833501,466.5584175833501,l,1,0.36204567027743906,466.9386569344206,467.95896657917183,,,,,,,,,,,,,,,,,,,,,,,,,,,,,,,,,,,,,,,581,2023-05-17_10h22.18.682,eb_02psyexp,2022.2.4,99.9525724574049,
250,0,250,0,,,,,,,,,,,,,,,,,,,,,,,,,,,,,,,,,,,,,,,,,,,,,,,,,,,,,,,,,,,467.95896657917183,467.95896657917183,467.95896657917183,467.95896657917183,467.95896657917183,467.95896657917183,s,1,0.4254922940162942,468.39920970925596,469.41985198727343,,,,,,,,,,,,,,,,,,,,,,,,,,,,,,,,,,,,,,,581,2023-05-17_10h22.18.682,eb_02psyexp,2022.2.4,99.9525724574049,
251,0,251,0,,,,,,,,,,,,,,,,,,,,,,,,,,,,,,,,,,,,,,,,,,,,,,,,,,,,,,,,,,,469.41985198727343,469.41985198727343,469.41985198727343,469.41985198727343,469.41985198727343,469.41985198727343,l,1,0.3726147748529911,469.8100238518091,470.8306869571097,,,,,,,,,,,,,,,,,,,,,,,,,,,,,,,,,,,,,,,581,2023-05-17_10h22.18.682,eb_02psyexp,2022.2.4,99.9525724574049,
252,0,252,0,,,,,,,,,,,,,,,,,,,,,,,,,,,,,,,,,,,,,,,,,,,,,,,,,,,,,,,,,,,470.8306869571097,470.8306869571097,470.8306869571097,470.8306869571097,470.8306869571097,470.8306869571097,s,1,0.497799881384708,471.3409294654848,472.3616227552993,,,,,,,,,,,,,,,,,,,,,,,,,,,,,,,,,,,,,,,581,2023-05-17_10h22.18.682,eb_02psyexp,2022.2.4,99.9525724574049,
253,0,253,0,,,,,,,,,,,,,,,,,,,,,,,,,,,,,,,,,,,,,,,,,,,,,,,,,,,,,,,,,,,472.3616227552993,472.3616227552993,472.3616227552993,472.3616227552993,472.3616227552993,472.3616227552993,l,1,0.2948428865056485,472.67170757974964,473.69261759438086,,,,,,,,,,,,,,,,,,,,,,,,,,,,,,,,,,,,,,,581,2023-05-17_10h22.18.682,eb_02psyexp,2022.2.4,99.9525724574049,
254,0,254,0,,,,,,,,,,,,,,,,,,,,,,,,,,,,,,,,,,,,,,,,,,,,,,,,,,,,,,,,,,,473.69261759438086,473.69261759438086,473.69261759438086,473.69261759438086,473.69261759438086,473.69261759438086,s,1,0.45993613556493074,474.16295829892624,475.1831761827925,,,,,,,,,,,,,,,,,,,,,,,,,,,,,,,,,,,,,,,581,2023-05-17_10h22.18.682,eb_02psyexp,2022.2.4,99.9525724574049,
255,0,255,0,,,,,,,,,,,,,,,,,,,,,,,,,,,,,,,,,,,,,,,,,,,,,,,,,,,,,,,,,,,475.1831761827925,475.1831761827925,475.1831761827925,475.1831761827925,475.1831761827925,475.1831761827925,l,1,0.36938744760118425,475.56341372278985,,,,,,,,,,,,,,,,,,,,,,,,,,,,,,,,,,,,,,,,581,2023-05-17_10h22.18.682,eb_02psyexp,2022.2.4,99.9525724574049,
256,0,256,0,,,,,,,,,,,,,,,,,,,,,,,,,,,,,,,,,,,,,,,,,,,,,,,,,,,,,,,,,,,476.5843252465129,476.5843252465129,476.5843252465129,476.5843252465129,476.5843252465129,476.5843252465129,s,1,0.4472233271226287,477.0445659136167,478.14493995998055,,,,,,,,,,,,,,,,,,,,,,,,,,,,,,,,,,,,,,,581,2023-05-17_10h22.18.682,eb_02psyexp,2022.2.4,99.9525724574049,
257,0,257,0,,,,,,,,,,,,,,,,,,,,,,,,,,,,,,,,,,,,,,,,,,,,,,,,,,,,,,,,,,,478.14493995998055,478.14493995998055,478.14493995998055,478.14493995998055,478.14493995998055,478.14493995998055,l,1,0.454589553992264,478.61521244759206,479.636116123409,,,,,,,,,,,,,,,,,,,,,,,,,,,,,,,,,,,,,,,581,2023-05-17_10h22.18.682,eb_02psyexp,2022.2.4,99.9525724574049,
258,0,258,0,,,,,,,,,,,,,,,,,,,,,,,,,,,,,,,,,,,,,,,,,,,,,,,,,,,,,,,,,,,479.636116123409,479.636116123409,479.636116123409,479.636116123409,479.636116123409,479.636116123409,l,1,0.4274105194490403,480.076396984281,481.0967274563154,,,,,,,,,,,,,,,,,,,,,,,,,,,,,,,,,,,,,,,581,2023-05-17_10h22.18.682,eb_02psyexp,2022.2.4,99.9525724574049,
259,0,259,0,,,,,,,,,,,,,,,,,,,,,,,,,,,,,,,,,,,,,,,,,,,,,,,,,,,,,,,,,,,481.0967274563154,481.0967274563154,481.0967274563154,481.0967274563154,481.0967274563154,481.0967274563154,s,1,0.4788141291355714,481.5869739368791,482.60786553891376,,,,,,,,,,,,,,,,,,,,,,,,,,,,,,,,,,,,,,,581,2023-05-17_10h22.18.682,eb_02psyexp,2022.2.4,99.9525724574049,
260,0,260,0,,,,,,,,,,,,,,,,,,,,,,,,,,,,,,,,,,,,,,,,,,,,,,,,,,,,,,,,,,,482.60786553891376,482.60786553891376,482.60786553891376,482.60786553891376,482.60786553891376,482.60786553891376,l,1,0.4477059773635119,483.06815480301157,484.0984540099744,,,,,,,,,,,,,,,,,,,,,,,,,,,,,,,,,,,,,,,581,2023-05-17_10h22.18.682,eb_02psyexp,2022.2.4,99.9525724574049,
261,0,261,0,,,,,,,,,,,,,,,,,,,,,,,,,,,,,,,,,,,,,,,,,,,,,,,,,,,,,,,,,,,484.0984540099744,484.0984540099744,484.0984540099744,484.0984540099744,484.0984540099744,484.0984540099744,l,1,0.4050966234644875,484.5186796814669,485.53958456462715,,,,,,,,,,,,,,,,,,,,,,,,,,,,,,,,,,,,,,,581,2023-05-17_10h22.18.682,eb_02psyexp,2022.2.4,99.9525724574049,
262,0,262,0,,,,,,,,,,,,,,,,,,,,,,,,,,,,,,,,,,,,,,,,,,,,,,,,,,,,,,,,,,,485.53958456462715,485.53958456462715,485.53958456462715,485.53958456462715,485.53958456462715,485.53958456462715,l,1,0.380000319913961,485.92983219225425,486.9601386435097,,,,,,,,,,,,,,,,,,,,,,,,,,,,,,,,,,,,,,,581,2023-05-17_10h22.18.682,eb_02psyexp,2022.2.4,99.9525724574049,
263,0,263,0,,,,,,,,,,,,,,,,,,,,,,,,,,,,,,,,,,,,,,,,,,,,,,,,,,,,,,,,,,,486.9601386435097,486.9601386435097,486.9601386435097,486.9601386435097,486.9601386435097,486.9601386435097,l,1,0.4794576627900824,487.4504249676829,,,,,,,,,,,,,,,,,,,,,,,,,,,,,,,,,,,,,,,,581,2023-05-17_10h22.18.682,eb_02psyexp,2022.2.4,99.9525724574049,
264,0,264,0,,,,,,,,,,,,,,,,,,,,,,,,,,,,,,,,,,,,,,,,,,,,,,,,,,,,,,,,,,,488.47136003535707,488.47136003535707,488.47136003535707,488.47136003535707,488.47136003535707,488.47136003535707,l,1,0.4242348076077178,488.911587469629,489.94186132156756,,,,,,,,,,,,,,,,,,,,,,,,,,,,,,,,,,,,,,,581,2023-05-17_10h22.18.682,eb_02psyexp,2022.2.4,99.9525724574049,
265,0,265,0,,,,,,,,,,,,,,,,,,,,,,,,,,,,,,,,,,,,,,,,,,,,,,,,,,,,,,,,,,,489.94186132156756,489.94186132156756,489.94186132156756,489.94186132156756,489.94186132156756,489.94186132156756,l,1,0.3697629428934306,490.32210308732465,491.3427157845581,,,,,,,,,,,,,,,,,,,,,,,,,,,,,,,,,,,,,,,581,2023-05-17_10h22.18.682,eb_02psyexp,2022.2.4,99.9525724574049,
266,0,266,0,,,,,,,,,,,,,,,,,,,,,,,,,,,,,,,,,,,,,,,,,,,,,,,,,,,,,,,,,,,491.3427157845581,491.3427157845581,491.3427157845581,491.3427157845581,491.3427157845581,491.3427157845581,s,1,0.48798357823397964,491.84300978155807,492.8735866859788,,,,,,,,,,,,,,,,,,,,,,,,,,,,,,,,,,,,,,,581,2023-05-17_10h22.18.682,eb_02psyexp,2022.2.4,99.9525724574049,
267,0,267,0,,,,,,,,,,,,,,,,,,,,,,,,,,,,,,,,,,,,,,,,,,,,,,,,,,,,,,,,,,,492.8735866859788,492.8735866859788,492.8735866859788,492.8735866859788,492.8735866859788,492.8735866859788,l,1,0.4529952083248645,493.3438715492375,494.364540993236,,,,,,,,,,,,,,,,,,,,,,,,,,,,,,,,,,,,,,,581,2023-05-17_10h22.18.682,eb_02psyexp,2022.2.4,99.9525724574049,
268,0,268,0,,,,,,,,,,,,,,,,,,,,,,,,,,,,,,,,,,,,,,,,,,,,,,,,,,,,,,,,,,,494.364540993236,494.364540993236,494.364540993236,494.364540993236,494.364540993236,494.364540993236,l,1,0.45808280690107495,494.834759450634,495.8653448066907,,,,,,,,,,,,,,,,,,,,,,,,,,,,,,,,,,,,,,,581,2023-05-17_10h22.18.682,eb_02psyexp,2022.2.4,99.9525724574049,
269,0,269,0,,,,,,,,,,,,,,,,,,,,,,,,,,,,,,,,,,,,,,,,,,,,,,,,,,,,,,,,,,,495.8653448066907,495.8653448066907,495.8653448066907,495.8653448066907,495.8653448066907,495.8653448066907,l,1,0.37327279709279537,496.25562895752955,497.27623652340844,,,,,,,,,,,,,,,,,,,,,,,,,,,,,,,,,,,,,,,581,2023-05-17_10h22.18.682,eb_02psyexp,2022.2.4,99.9525724574049,
270,0,270,0,,,,,,,,,,,,,,,,,,,,,,,,,,,,,,,,,,,,,,,,,,,,,,,,,,,,,,,,,,,497.27623652340844,497.27623652340844,497.27623652340844,497.27623652340844,497.27623652340844,497.27623652340844,l,1,0.4183980296365917,497.7067569224164,498.7273478866555,,,,,,,,,,,,,,,,,,,,,,,,,,,,,,,,,,,,,,,581,2023-05-17_10h22.18.682,eb_02psyexp,2022.2.4,99.9525724574049,
271,0,271,0,,,,,,,,,,,,,,,,,,,,,,,,,,,,,,,,,,,,,,,,,,,,,,,,,,,,,,,,,,,498.7273478866555,498.7273478866555,498.7273478866555,498.7273478866555,498.7273478866555,498.7273478866555,s,1,0.5512952774297446,499.2977016309742,500.31805625068955,,,,,,,,,,,,,,,,,,,,,,,,,,,,,,,,,,,,,,,581,2023-05-17_10h22.18.682,eb_02psyexp,2022.2.4,99.9525724574049,
272,0,272,0,,,,,,,,,,,,,,,,,,,,,,,,,,,,,,,,,,,,,,,,,,,,,,,,,,,,,,,,,,,500.31805625068955,500.31805625068955,500.31805625068955,500.31805625068955,500.31805625068955,500.31805625068955,l,1,0.39263676130212843,500.72821901156567,501.7488697412191,,,,,,,,,,,,,,,,,,,,,,,,,,,,,,,,,,,,,,,581,2023-05-17_10h22.18.682,eb_02psyexp,2022.2.4,99.9525724574049,
273,0,273,0,,,,,,,,,,,,,,,,,,,,,,,,,,,,,,,,,,,,,,,,,,,,,,,,,,,,,,,,,,,501.7488697412191,501.7488697412191,501.7488697412191,501.7488697412191,501.7488697412191,501.7488697412191,s,1,0.4497748235007748,502.2090983345406,503.22967511205934,,,,,,,,,,,,,,,,,,,,,,,,,,,,,,,,,,,,,,,581,2023-05-17_10h22.18.682,eb_02psyexp,2022.2.4,99.9525724574049,
274,0,274,0,,,,,,,,,,,,,,,,,,,,,,,,,,,,,,,,,,,,,,,,,,,,,,,,,,,,,,,,,,,503.22967511205934,503.22967511205934,503.22967511205934,503.22967511205934,503.22967511205934,503.22967511205934,l,1,0.35298639454413205,503.5999137327308,,,,,,,,,,,,,,,,,,,,,,,,,,,,,,,,,,,,,,,,581,2023-05-17_10h22.18.682,eb_02psyexp,2022.2.4,99.9525724574049,
275,0,275,0,,,,,,,,,,,,,,,,,,,,,,,,,,,,,,,,,,,,,,,,,,,,,,,,,,,,,,,,,,,504.63081542239524,504.63081542239524,504.63081542239524,504.63081542239524,504.63081542239524,504.63081542239524,l,1,0.439883059123531,505.08115044014994,506.10136047611013,,,,,,,,,,,,,,,,,,,,,,,,,,,,,,,,,,,,,,,581,2023-05-17_10h22.18.682,eb_02psyexp,2022.2.4,99.9525724574049,
