trials.thisRepN,trials.thisTrialN,trials.thisN,trials.thisIndex,image_loop.thisRepN,image_loop.thisTrialN,image_loop.thisN,image_loop.thisIndex,break_loop.thisRepN,break_loop.thisTrialN,break_loop.thisN,break_loop.thisIndex,test_trials.thisRepN,test_trials.thisTrialN,test_trials.thisN,test_trials.thisIndex,distance matrix,tools,welcome_text.started,instructions_0_keypress.started,instructions_0_keypress.keys,instructions_0_keypress.rt,consent_image_0.started,consent0_key_resp.started,consent0_text.started,consent0_key_resp.keys,consent0_key_resp.rt,consent_image_1.started,consent1_key_resp.started,consent1_text.started,consent1_key_resp.keys,consent1_key_resp.rt,consent2_text.started,consent_image_2.started,consent2_key_resp.started,consent2_key_resp.keys,consent2_key_resp.rt,agree_button.started,disagree_button.started,consent_image_3.started,agree_button.numClicks,agree_button.timesOn,agree_button.timesOff,disagree_button.numClicks,disagree_button.timesOn,disagree_button.timesOff,instructions_text1.started,instructions1_key_resp.started,instr1_cnt_text.started,instructions1_key_resp.keys,instructions1_key_resp.rt,instructions_text2.started,instr2_cnt_text.started,instructions2_key_resp.started,instructions2_key_resp.keys,instructions2_key_resp.rt,instructions_text3.started,instructions3_key_resp.started,instr3_cnt_text.started,instructions3_key_resp.keys,instructions3_key_resp.rt,text_countdown.started,image.started,small_large_keyresp.started,task_question_text.started,smalleroption_text.started,largeroption_text.started,accuracy_score_text.started,small_large_keyresp.keys,small_large_keyresp.corr,small_large_keyresp.rt,fb_2.started,fb_2.stopped,break_text.started,break_key_resp.started,break_key_resp.keys,break_key_resp.rt,reveal_seq_text.started,start_test_text.started,continue_to_test.started,continue_to_test.keys,continue_to_test.rt,test_structure_info.started,start_test_text_2.started,continue_to_test_2.started,continue_to_test_2.keys,continue_to_test_2.rt,test_cntdown_text.started,parent index,left child index,right child index,left distance,right distance,parent_image.started,top_image_text.started,left_child_image.started,right_child_image.started,path_resp.started,child_choice_text.started,left_choice_text.started,right_choice_text.started,path_resp.keys,path_resp.rt,graph.started,debrief_text.started,debriefing_title.started,demo_scr_adv.started,demo_scr_adv_keypress.started,demo_scr_adv_keypress.keys,demo_scr_adv_keypress.rt,text_countdown_2.started,participant,date,expName,psychopyVersion,frameRate,
,,,,,,,,,,,,,,,,"[[0. 1. 1. 2. 2. 3. 4. 5. 5. 6. 6. 7.]
 [1. 0. 2. 1. 1. 2. 3. 4. 4. 5. 5. 6.]
 [1. 2. 0. 1. 1. 2. 3. 4. 4. 5. 5. 6.]
 [2. 1. 1. 0. 1. 1. 2. 3. 3. 4. 4. 5.]
 [2. 1. 1. 1. 0. 1. 2. 3. 3. 4. 4. 5.]
 [3. 2. 2. 1. 1. 0. 1. 2. 2. 3. 3. 4.]
 [4. 3. 3. 2. 2. 1. 0. 1. 1. 2. 2. 3.]
 [5. 4. 4. 3. 3. 2. 1. 0. 1. 1. 1. 2.]
 [5. 4. 4. 3. 3. 2. 1. 1. 0. 1. 1. 2.]
 [6. 5. 5. 4. 4. 3. 2. 1. 1. 0. 2. 1.]
 [6. 5. 5. 4. 4. 3. 2. 1. 1. 2. 0. 1.]
 [7. 6. 6. 5. 5. 4. 3. 2. 2. 1. 1. 0.]]",[ 0  5  6  9  8  4  1  3 10  7 11  2],13.726168534602039,13.726168534602039,return,9.067107004346326,,,,,,,,,,,,,,,,,,,,,,,,,,,,,,,,,,,,,,,,,,,,,,,,,,,,,,,,,,,,,,,,,,,,,,,,,,,,,,,,,,,,,,,,,,582,2023-05-17_10h07.11.019,eb_02psyexp,2022.2.4,119.98558530531633,
,,,,,,,,,,,,,,,,,,,,,,22.80156720231753,22.80156720231753,22.80156720231753,space,1.3436647738562897,,,,,,,,,,,,,,,,,,,,,,,,,,,,,,,,,,,,,,,,,,,,,,,,,,,,,,,,,,,,,,,,,,,,,,,,,,,,,,,,,,,,,582,2023-05-17_10h07.11.019,eb_02psyexp,2022.2.4,119.98558530531633,
,,,,,,,,,,,,,,,,,,,,,,,,,,,24.16000857250765,24.16000857250765,24.16000857250765,space,1.5852587199769914,,,,,,,,,,,,,,,,,,,,,,,,,,,,,,,,,,,,,,,,,,,,,,,,,,,,,,,,,,,,,,,,,,,,,,,,,,,,,,,,582,2023-05-17_10h07.11.019,eb_02psyexp,2022.2.4,119.98558530531633,
,,,,,,,,,,,,,,,,,,,,,,,,,,,,,,,,25.76012357720174,25.76012357720174,25.76012357720174,space,0.6812184653244913,,,,,,,,,,,,,,,,,,,,,,,,,,,,,,,,,,,,,,,,,,,,,,,,,,,,,,,,,,,,,,,,,,,,,,,,,,,582,2023-05-17_10h07.11.019,eb_02psyexp,2022.2.4,119.98558530531633,
,,,,,,,,,,,,,,,,,,,,,,,,,,,,,,,,,,,,,26.460162515752017,26.460162515752017,26.460162515752017,1,[2.9917226848192513],[2.9917275144252926],0,,,29.443756093620323,31.43555816495791,31.43555816495791,space,0.9408542537130415,,,,,,,,,,,,,,,,,,,,,,,,,,,,,,,,,,,,,,,,,,,,,,,,,,,,,,,,,,,,,582,2023-05-17_10h07.11.019,eb_02psyexp,2022.2.4,119.98558530531633,
,,,,,,,,,,,,,,,,,,,,,,,,,,,,,,,,,,,,,,,,,,,,,,,,,,,32.38565702061169,35.37757470016368,35.37757470016368,space,12.350134312757291,,,,,,,,,,,,,,,,,,,,,,,,,,,,,,,,,,,,,,,,,,,,,,,,,,,,,,,,582,2023-05-17_10h07.11.019,eb_02psyexp,2022.2.4,119.98558530531633,
,,,,,,,,,,,,,,,,,,,,,,,,,,,,,,,,,,,,,,,,,,,,,,,,,,,,,,,,47.736892943037674,50.728798850555904,50.728798850555904,space,11.151227611349896,,,,,,,,,,,,,,,,,,,,,,,,,,,,,,,,,,,,,,,,,,,,,,,,,,,582,2023-05-17_10h07.11.019,eb_02psyexp,2022.2.4,119.98558530531633,
0,0,0,0,,,,,,,,,,,,,,,,,,,,,,,,,,,,,,,,,,,,,,,,,,,,,,,,,,,,,,,,,,61.904684401350096,66.94675858994015,66.94675858994015,66.94675858994015,66.94675858994015,66.94675858994015,66.94675858994015,s,1,1.5003846967592835,68.46357371623162,69.48867068532854,,,,,,,,,,,,,,,,,,,,,,,,,,,,,,,,,,,,,,,582,2023-05-17_10h07.11.019,eb_02psyexp,2022.2.4,119.98558530531633,
1,0,1,0,,,,,,,,,,,,,,,,,,,,,,,,,,,,,,,,,,,,,,,,,,,,,,,,,,,,,,,,,,,69.48867068532854,69.48867068532854,69.48867068532854,69.48867068532854,69.48867068532854,69.48867068532854,l,1,0.8225081471027806,70.32207304157782,71.34714344795793,,,,,,,,,,,,,,,,,,,,,,,,,,,,,,,,,,,,,,,582,2023-05-17_10h07.11.019,eb_02psyexp,2022.2.4,119.98558530531633,
2,0,2,0,,,,,,,,,,,,,,,,,,,,,,,,,,,,,,,,,,,,,,,,,,,,,,,,,,,,,,,,,,,71.34714344795793,71.34714344795793,71.34714344795793,71.34714344795793,71.34714344795793,71.34714344795793,s,1,0.6200710149714723,71.98054097453132,73.01394544378854,,,,,,,,,,,,,,,,,,,,,,,,,,,,,,,,,,,,,,,582,2023-05-17_10h07.11.019,eb_02psyexp,2022.2.4,119.98558530531633,
3,0,3,0,,,,,,,,,,,,,,,,,,,,,,,,,,,,,,,,,,,,,,,,,,,,,,,,,,,,,,,,,,,73.01394544378854,73.01394544378854,73.01394544378854,73.01394544378854,73.01394544378854,73.01394544378854,l,1,0.8893035023938864,73.91403177275788,74.93912059185095,,,,,,,,,,,,,,,,,,,,,,,,,,,,,,,,,,,,,,,582,2023-05-17_10h07.11.019,eb_02psyexp,2022.2.4,119.98558530531633,
4,0,4,0,,,,,,,,,,,,,,,,,,,,,,,,,,,,,,,,,,,,,,,,,,,,,,,,,,,,,,,,,,,74.93912059185095,74.93912059185095,74.93912059185095,74.93912059185095,74.93912059185095,74.93912059185095,s,1,0.5961470326874405,75.5474923858419,76.56423687934875,,,,,,,,,,,,,,,,,,,,,,,,,,,,,,,,,,,,,,,582,2023-05-17_10h07.11.019,eb_02psyexp,2022.2.4,119.98558530531633,
5,0,5,0,,,,,,,,,,,,,,,,,,,,,,,,,,,,,,,,,,,,,,,,,,,,,,,,,,,,,,,,,,,76.56423687934875,76.56423687934875,76.56423687934875,76.56423687934875,76.56423687934875,76.56423687934875,s,1,0.5150790290208533,77.08928857115097,78.10604694974609,,,,,,,,,,,,,,,,,,,,,,,,,,,,,,,,,,,,,,,582,2023-05-17_10h07.11.019,eb_02psyexp,2022.2.4,119.98558530531633,
6,0,6,0,,,,,,,,,,,,,,,,,,,,,,,,,,,,,,,,,,,,,,,,,,,,,,,,,,,,,,,,,,,78.10604694974609,78.10604694974609,78.10604694974609,78.10604694974609,78.10604694974609,78.10604694974609,l,1,0.7003146677743644,78.82275431568269,79.83948915009387,,,,,,,,,,,,,,,,,,,,,,,,,,,,,,,,,,,,,,,582,2023-05-17_10h07.11.019,eb_02psyexp,2022.2.4,119.98558530531633,
7,0,7,0,,,,,,,,,,,,,,,,,,,,,,,,,,,,,,,,,,,,,,,,,,,,,,,,,,,,,,,,,,,79.83948915009387,79.83948915009387,79.83948915009387,79.83948915009387,79.83948915009387,79.83948915009387,s,1,0.5908942488022149,80.43954740697518,81.47298990923446,,,,,,,,,,,,,,,,,,,,,,,,,,,,,,,,,,,,,,,582,2023-05-17_10h07.11.019,eb_02psyexp,2022.2.4,119.98558530531633,
8,0,8,0,,,,,,,,,,,,,,,,,,,,,,,,,,,,,,,,,,,,,,,,,,,,,,,,,,,,,,,,,,,81.47298990923446,81.47298990923446,81.47298990923446,81.47298990923446,81.47298990923446,81.47298990923446,s,1,0.5734247129876167,82.05637792753987,83.07312393037137,,,,,,,,,,,,,,,,,,,,,,,,,,,,,,,,,,,,,,,582,2023-05-17_10h07.11.019,eb_02psyexp,2022.2.4,119.98558530531633,
9,0,9,0,,,,,,,,,,,,,,,,,,,,,,,,,,,,,,,,,,,,,,,,,,,,,,,,,,,,,,,,,,,83.07312393037137,83.07312393037137,83.07312393037137,83.07312393037137,83.07312393037137,83.07312393037137,l,1,0.5333285437664017,83.61482261819765,84.6482231633272,,,,,,,,,,,,,,,,,,,,,,,,,,,,,,,,,,,,,,,582,2023-05-17_10h07.11.019,eb_02psyexp,2022.2.4,119.98558530531633,
10,0,10,0,,,,,,,,,,,,,,,,,,,,,,,,,,,,,,,,,,,,,,,,,,,,,,,,,,,,,,,,,,,84.6482231633272,84.6482231633272,84.6482231633272,84.6482231633272,84.6482231633272,84.6482231633272,s,1,0.4862539175665006,85.14828987210058,86.1650198767893,,,,,,,,,,,,,,,,,,,,,,,,,,,,,,,,,,,,,,,582,2023-05-17_10h07.11.019,eb_02psyexp,2022.2.4,119.98558530531633,
11,0,11,0,,,,,,,,,,,,,,,,,,,,,,,,,,,,,,,,,,,,,,,,,,,,,,,,,,,,,,,,,,,86.1650198767893,86.1650198767893,86.1650198767893,86.1650198767893,86.1650198767893,86.1650198767893,s,1,0.5455021313391626,86.7234054049477,87.75682647584472,,,,,,,,,,,,,,,,,,,,,,,,,,,,,,,,,,,,,,,582,2023-05-17_10h07.11.019,eb_02psyexp,2022.2.4,119.98558530531633,
12,0,12,0,,,,,,,,,,,,,,,,,,,,,,,,,,,,,,,,,,,,,,,,,,,,,,,,,,,,,,,,,,,87.75682647584472,87.75682647584472,87.75682647584472,87.75682647584472,87.75682647584472,87.75682647584472,s,1,0.44973466417286545,88.21519660961349,89.23194049950689,,,,,,,,,,,,,,,,,,,,,,,,,,,,,,,,,,,,,,,582,2023-05-17_10h07.11.019,eb_02psyexp,2022.2.4,119.98558530531633,
13,0,13,0,,,,,,,,,,,,,,,,,,,,,,,,,,,,,,,,,,,,,,,,,,,,,,,,,,,,,,,,,,,89.23194049950689,89.23194049950689,89.23194049950689,89.23194049950689,89.23194049950689,89.23194049950689,s,1,0.5266395604703575,89.77366393897682,90.80707806732971,,,,,,,,,,,,,,,,,,,,,,,,,,,,,,,,,,,,,,,582,2023-05-17_10h07.11.019,eb_02psyexp,2022.2.4,119.98558530531633,
14,0,14,0,,,,,,,,,,,,,,,,,,,,,,,,,,,,,,,,,,,,,,,,,,,,,,,,,,,,,,,,,,,90.80707806732971,90.80707806732971,90.80707806732971,90.80707806732971,90.80707806732971,90.80707806732971,s,1,0.43952792743220925,91.25711594941095,92.27386014116928,,,,,,,,,,,,,,,,,,,,,,,,,,,,,,,,,,,,,,,582,2023-05-17_10h07.11.019,eb_02psyexp,2022.2.4,119.98558530531633,
15,0,15,0,,,,,,,,,,,,,,,,,,,,,,,,,,,,,,,,,,,,,,,,,,,,,,,,,,,,,,,,,,,92.27386014116928,92.27386014116928,92.27386014116928,92.27386014116928,92.27386014116928,92.27386014116928,l,1,0.5478287867736071,92.83224657480605,93.85733448842075,,,,,,,,,,,,,,,,,,,,,,,,,,,,,,,,,,,,,,,582,2023-05-17_10h07.11.019,eb_02psyexp,2022.2.4,119.98558530531633,
16,0,16,0,,,,,,,,,,,,,,,,,,,,,,,,,,,,,,,,,,,,,,,,,,,,,,,,,,,,,,,,,,,93.85733448842075,93.85733448842075,93.85733448842075,93.85733448842075,93.85733448842075,93.85733448842075,s,1,0.7403296395204961,94.60740708326921,95.63248926168308,,,,,,,,,,,,,,,,,,,,,,,,,,,,,,,,,,,,,,,582,2023-05-17_10h07.11.019,eb_02psyexp,2022.2.4,119.98558530531633,
17,0,17,0,,,,,,,,,,,,,,,,,,,,,,,,,,,,,,,,,,,,,,,,,,,,,,,,,,,,,,,,,,,95.63248926168308,95.63248926168308,95.63248926168308,95.63248926168308,95.63248926168308,95.63248926168308,l,1,0.605211571091786,96.2492111165775,97.26595561008435,,,,,,,,,,,,,,,,,,,,,,,,,,,,,,,,,,,,,,,582,2023-05-17_10h07.11.019,eb_02psyexp,2022.2.4,119.98558530531633,
18,0,18,0,,,,,,,,,,,,,,,,,,,,,,,,,,,,,,,,,,,,,,,,,,,,,,,,,,,,,,,,,,,97.26595561008435,97.26595561008435,97.26595561008435,97.26595561008435,97.26595561008435,97.26595561008435,l,1,0.5397715198341757,97.81600616988726,98.84108563174959,,,,,,,,,,,,,,,,,,,,,,,,,,,,,,,,,,,,,,,582,2023-05-17_10h07.11.019,eb_02psyexp,2022.2.4,119.98558530531633,
19,0,19,0,,,,,,,,,,,,,,,,,,,,,,,,,,,,,,,,,,,,,,,,,,,,,,,,,,,,,,,,,,,98.84108563174959,98.84108563174959,98.84108563174959,98.84108563174959,98.84108563174959,98.84108563174959,l,1,0.6606754986569285,99.51614562422037,100.54121240845416,,,,,,,,,,,,,,,,,,,,,,,,,,,,,,,,,,,,,,,582,2023-05-17_10h07.11.019,eb_02psyexp,2022.2.4,119.98558530531633,
20,0,20,0,,,,,,,,,,,,,,,,,,,,,,,,,,,,,,,,,,,,,,,,,,,,,,,,,,,,,,,,,,,100.54121240845416,100.54121240845416,100.54121240845416,100.54121240845416,100.54121240845416,100.54121240845416,s,1,0.5205898940330371,101.07458850380499,102.09968335996382,,,,,,,,,,,,,,,,,,,,,,,,,,,,,,,,,,,,,,,582,2023-05-17_10h07.11.019,eb_02psyexp,2022.2.4,119.98558530531633,
21,0,21,0,,,,,,,,,,,,,,,,,,,,,,,,,,,,,,,,,,,,,,,,,,,,,,,,,,,,,,,,,,,102.09968335996382,102.09968335996382,102.09968335996382,102.09968335996382,102.09968335996382,102.09968335996382,l,1,0.5381400237092748,102.64973180682864,103.67482183338143,,,,,,,,,,,,,,,,,,,,,,,,,,,,,,,,,,,,,,,582,2023-05-17_10h07.11.019,eb_02psyexp,2022.2.4,119.98558530531633,
22,0,22,0,,,,,,,,,,,,,,,,,,,,,,,,,,,,,,,,,,,,,,,,,,,,,,,,,,,,,,,,,,,103.67482183338143,103.67482183338143,103.67482183338143,103.67482183338143,103.67482183338143,103.67482183338143,s,1,0.8750486630015075,104.55821830360219,105.57498453021981,,,,,,,,,,,,,,,,,,,,,,,,,,,,,,,,,,,,,,,582,2023-05-17_10h07.11.019,eb_02psyexp,2022.2.4,119.98558530531633,
23,0,23,0,,,,,,,,,,,,,,,,,,,,,,,,,,,,,,,,,,,,,,,,,,,,,,,,,,,,,,,,,,,105.57498453021981,105.57498453021981,105.57498453021981,105.57498453021981,105.57498453021981,105.57498453021981,l,1,0.5509284785948694,106.14168148243334,107.16677965898998,,,,,,,,,,,,,,,,,,,,,,,,,,,,,,,,,,,,,,,582,2023-05-17_10h07.11.019,eb_02psyexp,2022.2.4,119.98558530531633,
24,0,24,0,,,,,,,,,,,,,,,,,,,,,,,,,,,,,,,,,,,,,,,,,,,,,,,,,,,,,,,,,,,107.16677965898998,107.16677965898998,107.16677965898998,107.16677965898998,107.16677965898998,107.16677965898998,s,1,0.6951313093304634,107.875174997258,108.90023483894765,,,,,,,,,,,,,,,,,,,,,,,,,,,,,,,,,,,,,,,582,2023-05-17_10h07.11.019,eb_02psyexp,2022.2.4,119.98558530531633,
25,0,25,0,,,,,,,,,,,,,,,,,,,,,,,,,,,,,,,,,,,,,,,,,,,,,,,,,,,,,,,,,,,108.90023483894765,108.90023483894765,108.90023483894765,108.90023483894765,108.90023483894765,108.90023483894765,l,1,0.5047527599381283,109.41695639188401,110.44204581470694,,,,,,,,,,,,,,,,,,,,,,,,,,,,,,,,,,,,,,,582,2023-05-17_10h07.11.019,eb_02psyexp,2022.2.4,119.98558530531633,
26,0,26,0,,,,,,,,,,,,,,,,,,,,,,,,,,,,,,,,,,,,,,,,,,,,,,,,,,,,,,,,,,,110.44204581470694,110.44204581470694,110.44204581470694,110.44204581470694,110.44204581470694,110.44204581470694,l,0,1.394955632975325,111.85048009152524,112.8755818902282,,,,,,,,,,,,,,,,,,,,,,,,,,,,,,,,,,,,,,,582,2023-05-17_10h07.11.019,eb_02psyexp,2022.2.4,119.98558530531633,
27,0,27,0,,,,,,,,,,,,,,,,,,,,,,,,,,,,,,,,,,,,,,,,,,,,,,,,,,,,,,,,,,,112.8755818902282,112.8755818902282,112.8755818902282,112.8755818902282,112.8755818902282,112.8755818902282,l,1,0.6494726587552577,113.53398220904637,114.55908068735152,,,,,,,,,,,,,,,,,,,,,,,,,,,,,,,,,,,,,,,582,2023-05-17_10h07.11.019,eb_02psyexp,2022.2.4,119.98558530531633,
28,0,28,0,,,,,,,,,,,,,,,,,,,,,,,,,,,,,,,,,,,,,,,,,,,,,,,,,,,,,,,,,,,114.55908068735152,114.55908068735152,114.55908068735152,114.55908068735152,114.55908068735152,114.55908068735152,s,1,0.5420196944614872,115.11743271024898,116.13419289991725,,,,,,,,,,,,,,,,,,,,,,,,,,,,,,,,,,,,,,,582,2023-05-17_10h07.11.019,eb_02psyexp,2022.2.4,119.98558530531633,
29,0,29,0,,,,,,,,,,,,,,,,,,,,,,,,,,,,,,,,,,,,,,,,,,,,,,,,,,,,,,,,,,,116.13419289991725,116.13419289991725,116.13419289991725,116.13419289991725,116.13419289991725,116.13419289991725,l,1,0.46290737320668995,116.60924927028827,117.64262687484734,,,,,,,,,,,,,,,,,,,,,,,,,,,,,,,,,,,,,,,582,2023-05-17_10h07.11.019,eb_02psyexp,2022.2.4,119.98558530531633,
30,0,30,0,,,,,,,,,,,,,,,,,,,,,,,,,,,,,,,,,,,,,,,,,,,,,,,,,,,,,,,,,,,117.64262687484734,117.64262687484734,117.64262687484734,117.64262687484734,117.64262687484734,117.64262687484734,s,1,0.474513785680756,118.12602002476342,119.14277206442785,,,,,,,,,,,,,,,,,,,,,,,,,,,,,,,,,,,,,,,582,2023-05-17_10h07.11.019,eb_02psyexp,2022.2.4,119.98558530531633,
31,0,31,0,,,,,,,,,,,,,,,,,,,,,,,,,,,,,,,,,,,,,,,,,,,,,,,,,,,,,,,,,,,119.14277206442785,119.14277206442785,119.14277206442785,119.14277206442785,119.14277206442785,119.14277206442785,l,1,0.5583871779963374,119.709498899756,120.72623886552174,,,,,,,,,,,,,,,,,,,,,,,,,,,,,,,,,,,,,,,582,2023-05-17_10h07.11.019,eb_02psyexp,2022.2.4,119.98558530531633,
32,0,32,0,,,,,,,,,,,,,,,,,,,,,,,,,,,,,,,,,,,,,,,,,,,,,,,,,,,,,,,,,,,120.72623886552174,120.72623886552174,120.72623886552174,120.72623886552174,120.72623886552174,120.72623886552174,l,1,0.5269528800854459,121.26796351245139,122.2846932153916,,,,,,,,,,,,,,,,,,,,,,,,,,,,,,,,,,,,,,,582,2023-05-17_10h07.11.019,eb_02psyexp,2022.2.4,119.98558530531633,
33,0,33,0,,,,,,,,,,,,,,,,,,,,,,,,,,,,,,,,,,,,,,,,,,,,,,,,,,,,,,,,,,,122.2846932153916,122.2846932153916,122.2846932153916,122.2846932153916,122.2846932153916,122.2846932153916,l,1,0.6085439888993278,122.90144706622232,123.91817254316993,,,,,,,,,,,,,,,,,,,,,,,,,,,,,,,,,,,,,,,582,2023-05-17_10h07.11.019,eb_02psyexp,2022.2.4,119.98558530531633,
34,0,34,0,,,,,,,,,,,,,,,,,,,,,,,,,,,,,,,,,,,,,,,,,,,,,,,,,,,,,,,,,,,123.91817254316993,123.91817254316993,123.91817254316993,123.91817254316993,123.91817254316993,123.91817254316993,l,1,0.5501871363958344,124.4765644101426,125.49329864082392,,,,,,,,,,,,,,,,,,,,,,,,,,,,,,,,,,,,,,,582,2023-05-17_10h07.11.019,eb_02psyexp,2022.2.4,119.98558530531633,
35,0,35,0,,,,,,,,,,,,,,,,,,,,,,,,,,,,,,,,,,,,,,,,,,,,,,,,,,,,,,,,,,,125.49329864082392,125.49329864082392,125.49329864082392,125.49329864082392,125.49329864082392,125.49329864082392,l,1,0.4389957668026909,125.94335282279644,126.96009399590548,,,,,,,,,,,,,,,,,,,,,,,,,,,,,,,,,,,,,,,582,2023-05-17_10h07.11.019,eb_02psyexp,2022.2.4,119.98558530531633,
36,0,36,0,,,,,,,,,,,,,,,,,,,,,,,,,,,,,,,,,,,,,,,,,,,,,,,,,,,,,,,,,,,126.96009399590548,126.96009399590548,126.96009399590548,126.96009399590548,126.96009399590548,126.96009399590548,s,1,0.6761947852792218,127.65180792717729,128.66856751323212,,,,,,,,,,,,,,,,,,,,,,,,,,,,,,,,,,,,,,,582,2023-05-17_10h07.11.019,eb_02psyexp,2022.2.4,119.98558530531633,
37,0,37,0,,,,,,,,,,,,,,,,,,,,,,,,,,,,,,,,,,,,,,,,,,,,,,,,,,,,,,,,,,,128.66856751323212,128.66856751323212,128.66856751323212,128.66856751323212,128.66856751323212,128.66856751323212,l,1,0.5357792592840269,129.21862803399563,130.24370477919,,,,,,,,,,,,,,,,,,,,,,,,,,,,,,,,,,,,,,,582,2023-05-17_10h07.11.019,eb_02psyexp,2022.2.4,119.98558530531633,
38,0,38,0,,,,,,,,,,,,,,,,,,,,,,,,,,,,,,,,,,,,,,,,,,,,,,,,,,,,,,,,,,,130.24370477919,130.24370477919,130.24370477919,130.24370477919,130.24370477919,130.24370477919,l,1,0.5286957586649805,130.78542640758678,131.80214675317984,,,,,,,,,,,,,,,,,,,,,,,,,,,,,,,,,,,,,,,582,2023-05-17_10h07.11.019,eb_02psyexp,2022.2.4,119.98558530531633,
39,0,39,0,,,,,,,,,,,,,,,,,,,,,,,,,,,,,,,,,,,,,,,,,,,,,,,,,,,,,,,,,,,131.80214675317984,131.80214675317984,131.80214675317984,131.80214675317984,131.80214675317984,131.80214675317984,l,1,0.7462525289738551,132.56060653622262,133.59396482247394,,,,,,,,,,,,,,,,,,,,,,,,,,,,,,,,,,,,,,,582,2023-05-17_10h07.11.019,eb_02psyexp,2022.2.4,119.98558530531633,
40,0,40,0,,,,,,,,,,,,,,,,,,,,,,,,,,,,,,,,,,,,,,,,,,,,,,,,,,,,,,,,,,,133.59396482247394,133.59396482247394,133.59396482247394,133.59396482247394,133.59396482247394,133.59396482247394,s,1,0.5704898309195414,134.17736461304594,135.2024531303905,,,,,,,,,,,,,,,,,,,,,,,,,,,,,,,,,,,,,,,582,2023-05-17_10h07.11.019,eb_02psyexp,2022.2.4,119.98558530531633,
41,0,41,0,,,,,,,,,,,,,,,,,,,,,,,,,,,,,,,,,,,,,,,,,,,,,,,,,,,,,,,,,,,135.2024531303905,135.2024531303905,135.2024531303905,135.2024531303905,135.2024531303905,135.2024531303905,l,1,0.4820256106322631,135.69416162837297,136.71090732922312,,,,,,,,,,,,,,,,,,,,,,,,,,,,,,,,,,,,,,,582,2023-05-17_10h07.11.019,eb_02psyexp,2022.2.4,119.98558530531633,
42,0,42,0,,,,,,,,,,,,,,,,,,,,,,,,,,,,,,,,,,,,,,,,,,,,,,,,,,,,,,,,,,,136.71090732922312,136.71090732922312,136.71090732922312,136.71090732922312,136.71090732922312,136.71090732922312,l,1,0.4936513415304944,137.21928908419795,138.25274486781564,,,,,,,,,,,,,,,,,,,,,,,,,,,,,,,,,,,,,,,582,2023-05-17_10h07.11.019,eb_02psyexp,2022.2.4,119.98558530531633,
43,0,43,0,,,,,,,,,,,,,,,,,,,,,,,,,,,,,,,,,,,,,,,,,,,,,,,,,,,,,,,,,,,138.25274486781564,138.25274486781564,138.25274486781564,138.25274486781564,138.25274486781564,138.25274486781564,s,1,0.5038194414228201,138.7694335192209,139.78615114814602,,,,,,,,,,,,,,,,,,,,,,,,,,,,,,,,,,,,,,,582,2023-05-17_10h07.11.019,eb_02psyexp,2022.2.4,119.98558530531633,
44,0,44,0,,,,,,,,,,,,,,,,,,,,,,,,,,,,,,,,,,,,,,,,,,,,,,,,,,,,,,,,,,,139.78615114814602,139.78615114814602,139.78615114814602,139.78615114814602,139.78615114814602,139.78615114814602,l,1,0.31444937107153237,140.11120012321044,141.13628501829226,,,,,,,,,,,,,,,,,,,,,,,,,,,,,,,,,,,,,,,582,2023-05-17_10h07.11.019,eb_02psyexp,2022.2.4,119.98558530531633,
45,0,45,0,,,,,,,,,,,,,,,,,,,,,,,,,,,,,,,,,,,,,,,,,,,,,,,,,,,,,,,,,,,141.13628501829226,141.13628501829226,141.13628501829226,141.13628501829226,141.13628501829226,141.13628501829226,l,1,0.44331764697562903,141.59469409077428,142.61140447529033,,,,,,,,,,,,,,,,,,,,,,,,,,,,,,,,,,,,,,,582,2023-05-17_10h07.11.019,eb_02psyexp,2022.2.4,119.98558530531633,
46,0,46,0,,,,,,,,,,,,,,,,,,,,,,,,,,,,,,,,,,,,,,,,,,,,,,,,,,,,,,,,,,,142.61140447529033,142.61140447529033,142.61140447529033,142.61140447529033,142.61140447529033,142.61140447529033,l,1,0.47225112246815115,143.09478977695107,144.1115535888821,,,,,,,,,,,,,,,,,,,,,,,,,,,,,,,,,,,,,,,582,2023-05-17_10h07.11.019,eb_02psyexp,2022.2.4,119.98558530531633,
47,0,47,0,,,,,,,,,,,,,,,,,,,,,,,,,,,,,,,,,,,,,,,,,,,,,,,,,,,,,,,,,,,144.1115535888821,144.1115535888821,144.1115535888821,144.1115535888821,144.1115535888821,144.1115535888821,l,1,0.484149121446535,144.61159192374907,145.6283228340326,,,,,,,,,,,,,,,,,,,,,,,,,,,,,,,,,,,,,,,582,2023-05-17_10h07.11.019,eb_02psyexp,2022.2.4,119.98558530531633,
48,0,48,0,,,,,,,,,,,,,,,,,,,,,,,,,,,,,,,,,,,,,,,,,,,,,,,,,,,,,,,,,,,145.6283228340326,145.6283228340326,145.6283228340326,145.6283228340326,145.6283228340326,145.6283228340326,l,1,0.6233789827674627,146.2617393771652,147.2951381112216,,,,,,,,,,,,,,,,,,,,,,,,,,,,,,,,,,,,,,,582,2023-05-17_10h07.11.019,eb_02psyexp,2022.2.4,119.98558530531633,
49,0,49,0,,,,,,,,,,,,,,,,,,,,,,,,,,,,,,,,,,,,,,,,,,,,,,,,,,,,,,,,,,,147.2951381112216,147.2951381112216,147.2951381112216,147.2951381112216,147.2951381112216,147.2951381112216,s,1,0.5166435145074502,147.82019583997317,148.84527228330262,,,,,,,,,,,,,,,,,,,,,,,,,,,,,,,,,,,,,,,582,2023-05-17_10h07.11.019,eb_02psyexp,2022.2.4,119.98558530531633,
50,0,50,0,,,,,,,,,,,,,,,,,,,,,,,,,,,,,,,,,,,,,,,,,,,,,,,,,,,,,,,,,,,148.84527228330262,148.84527228330262,148.84527228330262,148.84527228330262,148.84527228330262,148.84527228330262,l,1,0.542497823946178,149.40364815224893,150.42039143841248,,,,,,,,,,,,,,,,,,,,,,,,,,,,,,,,,,,,,,,582,2023-05-17_10h07.11.019,eb_02psyexp,2022.2.4,119.98558530531633,
51,0,51,0,,,,,,,,,,,,,,,,,,,,,,,,,,,,,,,,,,,,,,,,,,,,,,,,,,,,,,,,,,,150.42039143841248,150.42039143841248,150.42039143841248,150.42039143841248,150.42039143841248,150.42039143841248,l,1,0.5514186820946634,150.98711616080254,152.01221977057867,,,,,,,,,,,,,,,,,,,,,,,,,,,,,,,,,,,,,,,582,2023-05-17_10h07.11.019,eb_02psyexp,2022.2.4,119.98558530531633,
52,0,52,0,,,,,,,,,,,,,,,,,,,,,,,,,,,,,,,,,,,,,,,,,,,,,,,,,,,,,,,,,,,152.01221977057867,152.01221977057867,152.01221977057867,152.01221977057867,152.01221977057867,152.01221977057867,l,1,0.43961848225444555,152.46224618237466,153.48733077570796,,,,,,,,,,,,,,,,,,,,,,,,,,,,,,,,,,,,,,,582,2023-05-17_10h07.11.019,eb_02psyexp,2022.2.4,119.98558530531633,
53,0,53,0,,,,,,,,,,,,,,,,,,,,,,,,,,,,,,,,,,,,,,,,,,,,,,,,,,,,,,,,,,,153.48733077570796,153.48733077570796,153.48733077570796,153.48733077570796,153.48733077570796,153.48733077570796,s,1,0.5165583931375295,154.01237280818168,155.0374619292561,,,,,,,,,,,,,,,,,,,,,,,,,,,,,,,,,,,,,,,582,2023-05-17_10h07.11.019,eb_02psyexp,2022.2.4,119.98558530531633,
54,0,54,0,,,,,,,,,,,,,,,,,,,,,,,,,,,,,,,,,,,,,,,,,,,,,,,,,,,,,,,,,,,155.0374619292561,155.0374619292561,155.0374619292561,155.0374619292561,155.0374619292561,155.0374619292561,l,1,0.6064449277473614,155.65417774708476,156.67092405166477,,,,,,,,,,,,,,,,,,,,,,,,,,,,,,,,,,,,,,,582,2023-05-17_10h07.11.019,eb_02psyexp,2022.2.4,119.98558530531633,
55,0,55,0,,,,,,,,,,,,,,,,,,,,,,,,,,,,,,,,,,,,,,,,,,,,,,,,,,,,,,,,,,,156.67092405166477,156.67092405166477,156.67092405166477,156.67092405166477,156.67092405166477,156.67092405166477,l,1,0.4439765843562782,157.12931108905468,158.14608848420903,,,,,,,,,,,,,,,,,,,,,,,,,,,,,,,,,,,,,,,582,2023-05-17_10h07.11.019,eb_02psyexp,2022.2.4,119.98558530531633,
56,0,56,0,,,,,,,,,,,,,,,,,,,,,,,,,,,,,,,,,,,,,,,,,,,,,,,,,,,,,,,,,,,158.14608848420903,158.14608848420903,158.14608848420903,158.14608848420903,158.14608848420903,158.14608848420903,s,1,0.6168572239112109,158.7711262907833,159.78784210863523,,,,,,,,,,,,,,,,,,,,,,,,,,,,,,,,,,,,,,,582,2023-05-17_10h07.11.019,eb_02psyexp,2022.2.4,119.98558530531633,
57,0,57,0,,,,,,,,,,,,,,,,,,,,,,,,,,,,,,,,,,,,,,,,,,,,,,,,,,,,,,,,,,,159.78784210863523,159.78784210863523,159.78784210863523,159.78784210863523,159.78784210863523,159.78784210863523,l,1,0.4471312126843259,160.24624786071945,161.2630011078436,,,,,,,,,,,,,,,,,,,,,,,,,,,,,,,,,,,,,,,582,2023-05-17_10h07.11.019,eb_02psyexp,2022.2.4,119.98558530531633,
58,0,58,0,,,,,,,,,,,,,,,,,,,,,,,,,,,,,,,,,,,,,,,,,,,,,,,,,,,,,,,,,,,161.2630011078436,161.2630011078436,161.2630011078436,161.2630011078436,161.2630011078436,161.2630011078436,l,1,0.44402035255916417,161.72137184534222,162.75476635352243,,,,,,,,,,,,,,,,,,,,,,,,,,,,,,,,,,,,,,,582,2023-05-17_10h07.11.019,eb_02psyexp,2022.2.4,119.98558530531633,
59,0,59,0,,,,,,,,,,,,,,,,,,,,,,,,,,,,,,,,,,,,,,,,,,,,,,,,,,,,,,,,,,,162.75476635352243,162.75476635352243,162.75476635352243,162.75476635352243,162.75476635352243,162.75476635352243,s,1,0.47228342038579285,163.23817701055668,164.25490158202592,,,,,,,,,,,,,,,,,,,,,,,,,,,,,,,,,,,,,,,582,2023-05-17_10h07.11.019,eb_02psyexp,2022.2.4,119.98558530531633,
60,0,60,0,,,,,,,,,,,,,,,,,,,,,,,,,,,,,,,,,,,,,,,,,,,,,,,,,,,,,,,,,,,164.25490158202592,164.25490158202592,164.25490158202592,164.25490158202592,164.25490158202592,164.25490158202592,s,1,0.628163296263665,164.89664101961534,165.91337736311834,,,,,,,,,,,,,,,,,,,,,,,,,,,,,,,,,,,,,,,582,2023-05-17_10h07.11.019,eb_02psyexp,2022.2.4,119.98558530531633,
61,0,61,0,,,,,,,,,,,,,,,,,,,,,,,,,,,,,,,,,,,,,,,,,,,,,,,,,,,,,,,,,,,165.91337736311834,165.91337736311834,165.91337736311834,165.91337736311834,165.91337736311834,165.91337736311834,l,1,0.48972729896195233,166.4134362237528,167.44684793730266,,,,,,,,,,,,,,,,,,,,,,,,,,,,,,,,,,,,,,,582,2023-05-17_10h07.11.019,eb_02psyexp,2022.2.4,119.98558530531633,
62,0,62,0,,,,,,,,,,,,,,,,,,,,,,,,,,,,,,,,,,,,,,,,,,,,,,,,,,,,,,,,,,,167.44684793730266,167.44684793730266,167.44684793730266,167.44684793730266,167.44684793730266,167.44684793730266,s,1,0.47632065636571497,167.93855432234704,168.9552834215574,,,,,,,,,,,,,,,,,,,,,,,,,,,,,,,,,,,,,,,582,2023-05-17_10h07.11.019,eb_02psyexp,2022.2.4,119.98558530531633,
63,0,63,0,,,,,,,,,,,,,,,,,,,,,,,,,,,,,,,,,,,,,,,,,,,,,,,,,,,,,,,,,,,168.9552834215574,168.9552834215574,168.9552834215574,168.9552834215574,168.9552834215574,168.9552834215574,l,1,0.415913944481872,169.38033662247472,170.41377852100413,,,,,,,,,,,,,,,,,,,,,,,,,,,,,,,,,,,,,,,582,2023-05-17_10h07.11.019,eb_02psyexp,2022.2.4,119.98558530531633,
64,0,64,0,,,,,,,,,,,,,,,,,,,,,,,,,,,,,,,,,,,,,,,,,,,,,,,,,,,,,,,,,,,170.41377852100413,170.41377852100413,170.41377852100413,170.41377852100413,170.41377852100413,170.41377852100413,s,1,0.3165423950413242,170.73878221865743,171.7555233918829,,,,,,,,,,,,,,,,,,,,,,,,,,,,,,,,,,,,,,,582,2023-05-17_10h07.11.019,eb_02psyexp,2022.2.4,119.98558530531633,
65,0,65,0,,,,,,,,,,,,,,,,,,,,,,,,,,,,,,,,,,,,,,,,,,,,,,,,,,,,,,,,,,,171.7555233918829,171.7555233918829,171.7555233918829,171.7555233918829,171.7555233918829,171.7555233918829,l,1,0.4147210356313735,172.18058232800104,173.21399102301802,,,,,,,,,,,,,,,,,,,,,,,,,,,,,,,,,,,,,,,582,2023-05-17_10h07.11.019,eb_02psyexp,2022.2.4,119.98558530531633,
66,0,66,0,,,,,,,,,,,,,,,,,,,,,,,,,,,,,,,,,,,,,,,,,,,,,,,,,,,,,,,,,,,173.21399102301802,173.21399102301802,173.21399102301802,173.21399102301802,173.21399102301802,173.21399102301802,s,1,0.4522831788053736,173.68070880288724,174.6974490705179,,,,,,,,,,,,,,,,,,,,,,,,,,,,,,,,,,,,,,,582,2023-05-17_10h07.11.019,eb_02psyexp,2022.2.4,119.98558530531633,
67,0,67,0,,,,,,,,,,,,,,,,,,,,,,,,,,,,,,,,,,,,,,,,,,,,,,,,,,,,,,,,,,,174.6974490705179,174.6974490705179,174.6974490705179,174.6974490705179,174.6974490705179,174.6974490705179,s,1,0.520875443588011,175.2308535396587,176.2476016554283,,,,,,,,,,,,,,,,,,,,,,,,,,,,,,,,,,,,,,,582,2023-05-17_10h07.11.019,eb_02psyexp,2022.2.4,119.98558530531633,
68,0,68,0,,,,,,,,,,,,,,,,,,,,,,,,,,,,,,,,,,,,,,,,,,,,,,,,,,,,,,,,,,,176.2476016554283,176.2476016554283,176.2476016554283,176.2476016554283,176.2476016554283,176.2476016554283,l,1,0.45878290256951004,176.72263991483487,177.74771364149638,,,,,,,,,,,,,,,,,,,,,,,,,,,,,,,,,,,,,,,582,2023-05-17_10h07.11.019,eb_02psyexp,2022.2.4,119.98558530531633,
69,0,69,0,,,,,,,,,,,,,,,,,,,,,,,,,,,,,,,,,,,,,,,,,,,,,,,,,,,,,,,,,,,177.74771364149638,177.74771364149638,177.74771364149638,177.74771364149638,177.74771364149638,177.74771364149638,l,1,0.4546234174631536,178.2144205548102,179.2478491718648,,,,,,,,,,,,,,,,,,,,,,,,,,,,,,,,,,,,,,,582,2023-05-17_10h07.11.019,eb_02psyexp,2022.2.4,119.98558530531633,
70,0,70,0,,,,,,,,,,,,,,,,,,,,,,,,,,,,,,,,,,,,,,,,,,,,,,,,,,,,,,,,,,,179.2478491718648,179.2478491718648,179.2478491718648,179.2478491718648,179.2478491718648,179.2478491718648,s,1,0.47455906320828944,179.73121606081259,180.74796840245835,,,,,,,,,,,,,,,,,,,,,,,,,,,,,,,,,,,,,,,582,2023-05-17_10h07.11.019,eb_02psyexp,2022.2.4,119.98558530531633,
71,0,71,0,,,,,,,,,,,,,,,,,,,,,,,,,,,,,,,,,,,,,,,,,,,,,,,,,,,,,,,,,,,180.74796840245835,180.74796840245835,180.74796840245835,180.74796840245835,180.74796840245835,180.74796840245835,l,1,0.3984827435342595,181.15634442225564,182.17310008429922,,,,,,,,,,,,,,,,,,,,,,,,,,,,,,,,,,,,,,,582,2023-05-17_10h07.11.019,eb_02psyexp,2022.2.4,119.98558530531633,
72,0,72,0,,,,,,,,,,,,,,,,,,,,,,,,,,,,,,,,,,,,,,,,,,,,,,,,,,,,,,,,,,,182.17310008429922,182.17310008429922,182.17310008429922,182.17310008429922,182.17310008429922,182.17310008429922,l,1,0.46932982350699604,182.6564802546054,183.68160499387886,,,,,,,,,,,,,,,,,,,,,,,,,,,,,,,,,,,,,,,582,2023-05-17_10h07.11.019,eb_02psyexp,2022.2.4,119.98558530531633,
73,0,73,0,,,,,,,,,,,,,,,,,,,,,,,,,,,,,,,,,,,,,,,,,,,,,,,,,,,,,,,,,,,183.68160499387886,183.68160499387886,183.68160499387886,183.68160499387886,183.68160499387886,183.68160499387886,l,1,0.8888863463653252,184.58165570453275,185.6150716439588,,,,,,,,,,,,,,,,,,,,,,,,,,,,,,,,,,,,,,,582,2023-05-17_10h07.11.019,eb_02psyexp,2022.2.4,119.98558530531633,
74,0,74,0,,,,,,,,,,,,,,,,,,,,,,,,,,,,,,,,,,,,,,,,,,,,,,,,,,,,,,,,,,,185.6150716439588,185.6150716439588,185.6150716439588,185.6150716439588,185.6150716439588,185.6150716439588,s,1,0.3314268923131749,185.9567664078204,186.97351784387138,,,,,,,,,,,,,,,,,,,,,,,,,,,,,,,,,,,,,,,582,2023-05-17_10h07.11.019,eb_02psyexp,2022.2.4,119.98558530531633,
75,0,75,0,,,,,,,,,,,,,,,,,,,,,,,,,,,,,,,,,,,,,,,,,,,,,,,,,,,,,,,,,,,186.97351784387138,186.97351784387138,186.97351784387138,186.97351784387138,186.97351784387138,186.97351784387138,l,1,0.3560668614227325,187.34021660720464,188.37362409487832,,,,,,,,,,,,,,,,,,,,,,,,,,,,,,,,,,,,,,,582,2023-05-17_10h07.11.019,eb_02psyexp,2022.2.4,119.98558530531633,
76,0,76,0,,,,,,,,,,,,,,,,,,,,,,,,,,,,,,,,,,,,,,,,,,,,,,,,,,,,,,,,,,,188.37362409487832,188.37362409487832,188.37362409487832,188.37362409487832,188.37362409487832,188.37362409487832,s,1,0.42791427054908127,188.8153306307504,189.83209021680523,,,,,,,,,,,,,,,,,,,,,,,,,,,,,,,,,,,,,,,582,2023-05-17_10h07.11.019,eb_02psyexp,2022.2.4,119.98558530531633,
77,0,77,0,,,,,,,,,,,,,,,,,,,,,,,,,,,,,,,,,,,,,,,,,,,,,,,,,,,,,,,,,,,189.83209021680523,189.83209021680523,189.83209021680523,189.83209021680523,189.83209021680523,189.83209021680523,l,1,0.2894846119452268,190.13212251465302,191.16553181339987,,,,,,,,,,,,,,,,,,,,,,,,,,,,,,,,,,,,,,,582,2023-05-17_10h07.11.019,eb_02psyexp,2022.2.4,119.98558530531633,
78,0,78,0,,,,,,,,,,,,,,,,,,,,,,,,,,,,,,,,,,,,,,,,,,,,,,,,,,,,,,,,,,,191.16553181339987,191.16553181339987,191.16553181339987,191.16553181339987,191.16553181339987,191.16553181339987,s,1,0.34011170419398695,191.5155829769792,192.53232233901508,,,,,,,,,,,,,,,,,,,,,,,,,,,,,,,,,,,,,,,582,2023-05-17_10h07.11.019,eb_02psyexp,2022.2.4,119.98558530531633,
79,0,79,0,,,,,,,,,,,,,,,,,,,,,,,,,,,,,,,,,,,,,,,,,,,,,,,,,,,,,,,,,,,192.53232233901508,192.53232233901508,192.53232233901508,192.53232233901508,192.53232233901508,192.53232233901508,l,1,0.18932553729973733,192.7323054354638,193.749099130393,,,,,,,,,,,,,,,,,,,,,,,,,,,,,,,,,,,,,,,582,2023-05-17_10h07.11.019,eb_02psyexp,2022.2.4,119.98558530531633,
80,0,80,0,,,,,,,,,,,,,,,,,,,,,,,,,,,,,,,,,,,,,,,,,,,,,,,,,,,,,,,,,,,193.749099130393,193.749099130393,193.749099130393,193.749099130393,193.749099130393,193.749099130393,l,1,0.5405611579772085,194.29912946629338,195.332568044425,,,,,,,,,,,,,,,,,,,,,,,,,,,,,,,,,,,,,,,582,2023-05-17_10h07.11.019,eb_02psyexp,2022.2.4,119.98558530531633,
81,0,81,0,,,,,,,,,,,,,,,,,,,,,,,,,,,,,,,,,,,,,,,,,,,,,,,,,,,,,,,,,,,195.332568044425,195.332568044425,195.332568044425,195.332568044425,195.332568044425,195.332568044425,s,1,0.39714645605999976,195.7408990887925,196.7660045096418,,,,,,,,,,,,,,,,,,,,,,,,,,,,,,,,,,,,,,,582,2023-05-17_10h07.11.019,eb_02psyexp,2022.2.4,119.98558530531633,
82,0,82,0,,,,,,,,,,,,,,,,,,,,,,,,,,,,,,,,,,,,,,,,,,,,,,,,,,,,,,,,,,,196.7660045096418,196.7660045096418,196.7660045096418,196.7660045096418,196.7660045096418,196.7660045096418,l,1,0.5717349598417059,197.34939101885539,198.382829596987,,,,,,,,,,,,,,,,,,,,,,,,,,,,,,,,,,,,,,,582,2023-05-17_10h07.11.019,eb_02psyexp,2022.2.4,119.98558530531633,
83,0,83,0,,,,,,,,,,,,,,,,,,,,,,,,,,,,,,,,,,,,,,,,,,,,,,,,,,,,,,,,,,,198.382829596987,198.382829596987,198.382829596987,198.382829596987,198.382829596987,198.382829596987,s,1,0.4429358075140044,198.8411979196826,199.85795056307688,,,,,,,,,,,,,,,,,,,,,,,,,,,,,,,,,,,,,,,582,2023-05-17_10h07.11.019,eb_02psyexp,2022.2.4,119.98558530531633,
84,0,84,0,,,,,,,,,,,,,,,,,,,,,,,,,,,,,,,,,,,,,,,,,,,,,,,,,,,,,,,,,,,199.85795056307688,199.85795056307688,199.85795056307688,199.85795056307688,199.85795056307688,199.85795056307688,s,1,0.5518349324120209,200.42466683371458,201.45809394156095,,,,,,,,,,,,,,,,,,,,,,,,,,,,,,,,,,,,,,,582,2023-05-17_10h07.11.019,eb_02psyexp,2022.2.4,119.98558530531633,
85,0,85,0,,,,,,,,,,,,,,,,,,,,,,,,,,,,,,,,,,,,,,,,,,,,,,,,,,,,,,,,,,,201.45809394156095,201.45809394156095,201.45809394156095,201.45809394156095,201.45809394156095,201.45809394156095,s,1,0.5188222638098523,201.99146671663038,203.01655613945331,,,,,,,,,,,,,,,,,,,,,,,,,,,,,,,,,,,,,,,582,2023-05-17_10h07.11.019,eb_02psyexp,2022.2.4,119.98558530531633,
86,0,86,0,,,,,,,,,,,,,,,,,,,,,,,,,,,,,,,,,,,,,,,,,,,,,,,,,,,,,,,,,,,203.01655613945331,203.01655613945331,203.01655613945331,203.01655613945331,203.01655613945331,203.01655613945331,l,1,0.5362836497370154,203.56660186965019,204.5916789167095,,,,,,,,,,,,,,,,,,,,,,,,,,,,,,,,,,,,,,,582,2023-05-17_10h07.11.019,eb_02psyexp,2022.2.4,119.98558530531633,
87,0,87,0,,,,,,,,,,,,,,,,,,,,,,,,,,,,,,,,,,,,,,,,,,,,,,,,,,,,,,,,,,,204.5916789167095,204.5916789167095,204.5916789167095,204.5916789167095,204.5916789167095,204.5916789167095,s,1,0.45722234109416604,205.05839035776444,206.08347072522156,,,,,,,,,,,,,,,,,,,,,,,,,,,,,,,,,,,,,,,582,2023-05-17_10h07.11.019,eb_02psyexp,2022.2.4,119.98558530531633,
88,0,88,0,,,,,,,,,,,,,,,,,,,,,,,,,,,,,,,,,,,,,,,,,,,,,,,,,,,,,,,,,,,206.08347072522156,206.08347072522156,206.08347072522156,206.08347072522156,206.08347072522156,206.08347072522156,l,1,0.4694674670463428,206.56684214179404,207.60026864602696,,,,,,,,,,,,,,,,,,,,,,,,,,,,,,,,,,,,,,,582,2023-05-17_10h07.11.019,eb_02psyexp,2022.2.4,119.98558530531633,
89,0,89,0,,,,,,,,,,,,,,,,,,,,,,,,,,,,,,,,,,,,,,,,,,,,,,,,,,,,,,,,,,,207.60026864602696,207.60026864602696,207.60026864602696,207.60026864602696,207.60026864602696,207.60026864602696,s,1,0.4806884176796302,208.0919976697769,209.10875001130626,,,,,,,,,,,,,,,,,,,,,,,,,,,,,,,,,,,,,,,582,2023-05-17_10h07.11.019,eb_02psyexp,2022.2.4,119.98558530531633,
90,0,90,0,,,,,,,,,,,,,,,,,,,,,,,,,,,,,,,,,,,,,,,,,,,,,,,,,,,,,,,,,,,209.10875001130626,209.10875001130626,209.10875001130626,209.10875001130626,209.10875001130626,209.10875001130626,l,1,0.5162568455561996,209.6337866105605,210.66719590942375,,,,,,,,,,,,,,,,,,,,,,,,,,,,,,,,,,,,,,,582,2023-05-17_10h07.11.019,eb_02psyexp,2022.2.4,119.98558530531633,
91,0,91,0,,,,,,,,,,,,,,,,,,,,,,,,,,,,,,,,,,,,,,,,,,,,,,,,,,,,,,,,,,,210.66719590942375,210.66719590942375,210.66719590942375,210.66719590942375,210.66719590942375,210.66719590942375,s,1,0.5418271145317703,211.21725492097903,212.23397405911237,,,,,,,,,,,,,,,,,,,,,,,,,,,,,,,,,,,,,,,582,2023-05-17_10h07.11.019,eb_02psyexp,2022.2.4,119.98558530531633,
92,0,92,0,,,,,,,,,,,,,,,,,,,,,,,,,,,,,,,,,,,,,,,,,,,,,,,,,,,,,,,,,,,212.23397405911237,212.23397405911237,212.23397405911237,212.23397405911237,212.23397405911237,212.23397405911237,l,1,0.5431006172439083,212.79237739637028,213.82579907099716,,,,,,,,,,,,,,,,,,,,,,,,,,,,,,,,,,,,,,,582,2023-05-17_10h07.11.019,eb_02psyexp,2022.2.4,119.98558530531633,
93,0,93,0,,,,,,,,,,,,,,,,,,,,,,,,,,,,,,,,,,,,,,,,,,,,,,,,,,,,,,,,,,,213.82579907099716,213.82579907099716,213.82579907099716,213.82579907099716,213.82579907099716,213.82579907099716,s,1,0.5272746515693143,214.3675237178104,215.3842501003528,,,,,,,,,,,,,,,,,,,,,,,,,,,,,,,,,,,,,,,582,2023-05-17_10h07.11.019,eb_02psyexp,2022.2.4,119.98558530531633,
94,0,94,0,,,,,,,,,,,,,,,,,,,,,,,,,,,,,,,,,,,,,,,,,,,,,,,,,,,,,,,,,,,215.3842501003528,215.3842501003528,215.3842501003528,215.3842501003528,215.3842501003528,215.3842501003528,l,1,0.48886672616936266,215.88428692601155,216.90939023403917,,,,,,,,,,,,,,,,,,,,,,,,,,,,,,,,,,,,,,,582,2023-05-17_10h07.11.019,eb_02psyexp,2022.2.4,119.98558530531633,
95,0,95,0,,,,,,,,,,,,,,,,,,,,,,,,,,,,,,,,,,,,,,,,,,,,,,,,,,,,,,,,,,,216.90939023403917,216.90939023403917,216.90939023403917,216.90939023403917,216.90939023403917,216.90939023403917,l,1,0.5148103830870241,217.43444645346608,218.4678762779804,,,,,,,,,,,,,,,,,,,,,,,,,,,,,,,,,,,,,,,582,2023-05-17_10h07.11.019,eb_02psyexp,2022.2.4,119.98558530531633,
96,0,96,0,,,,,,,,,,,,,,,,,,,,,,,,,,,,,,,,,,,,,,,,,,,,,,,,,,,,,,,,,,,218.4678762779804,218.4678762779804,218.4678762779804,218.4678762779804,218.4678762779804,218.4678762779804,s,1,0.5403003600658849,219.0179102360271,220.0346553332638,,,,,,,,,,,,,,,,,,,,,,,,,,,,,,,,,,,,,,,582,2023-05-17_10h07.11.019,eb_02psyexp,2022.2.4,119.98558530531633,
97,0,97,0,,,,,,,,,,,,,,,,,,,,,,,,,,,,,,,,,,,,,,,,,,,,,,,,,,,,,,,,,,,220.0346553332638,220.0346553332638,220.0346553332638,220.0346553332638,220.0346553332638,220.0346553332638,s,1,0.6535358539549634,220.70138518710155,221.73479599505663,,,,,,,,,,,,,,,,,,,,,,,,,,,,,,,,,,,,,,,582,2023-05-17_10h07.11.019,eb_02psyexp,2022.2.4,119.98558530531633,
98,0,98,0,,,,,,,,,,,,,,,,,,,,,,,,,,,,,,,,,,,,,,,,,,,,,,,,,,,,,,,,,,,221.73479599505663,221.73479599505663,221.73479599505663,221.73479599505663,221.73479599505663,221.73479599505663,l,0,0.37744414003100246,222.12652139668353,223.14327071968,,,,,,,,,,,,,,,,,,,,,,,,,,,,,,,,,,,,,,,582,2023-05-17_10h07.11.019,eb_02psyexp,2022.2.4,119.98558530531633,
99,0,99,0,,,,,,,,,,,,,,,,,,,,,,,,,,,,,,,,,,,,,,,,,,,,,,,,,,,,,,,,,,,223.14327071968,223.14327071968,223.14327071968,223.14327071968,223.14327071968,223.14327071968,l,1,0.5529901101253927,223.7099782367004,224.72672695608344,,,,,,,,,,,,,,,,,,,,,,,,,,,,,,,,,,,,,,,582,2023-05-17_10h07.11.019,eb_02psyexp,2022.2.4,119.98558530531633,
100,0,100,0,,,,,,,,,,,,,,,,,,,,,,,,,,,,,,,,,,,,,,,,,,,,,,,,,,,,,,,,,,,224.72672695608344,224.72672695608344,224.72672695608344,224.72672695608344,224.72672695608344,224.72672695608344,s,1,1.3695634551113471,226.11019737937022,227.1436190539971,,,,,,,,,,,,,,,,,,,,,,,,,,,,,,,,,,,,,,,582,2023-05-17_10h07.11.019,eb_02psyexp,2022.2.4,119.98558530531633,
101,0,101,0,,,,,,,,,,,,,,,,,,,,,,,,,,,,,,,,,,,,,,,,,,,,,,,,,,,,,,,,,,,227.1436190539971,227.1436190539971,227.1436190539971,227.1436190539971,227.1436190539971,227.1436190539971,s,1,0.46473024203442037,227.618678442901,228.63541871041525,,,,,,,,,,,,,,,,,,,,,,,,,,,,,,,,,,,,,,,582,2023-05-17_10h07.11.019,eb_02psyexp,2022.2.4,119.98558530531633,
102,0,102,0,,,,,,,,,,,,,,,,,,,,,,,,,,,,,,,,,,,,,,,,,,,,,,,,,,,,,,,,,,,228.63541871041525,228.63541871041525,228.63541871041525,228.63541871041525,228.63541871041525,228.63541871041525,l,1,0.4609704054892063,229.11044640513137,230.1355391483521,,,,,,,,,,,,,,,,,,,,,,,,,,,,,,,,,,,,,,,582,2023-05-17_10h07.11.019,eb_02psyexp,2022.2.4,119.98558530531633,
103,0,103,0,,,,,,,,,,,,,,,,,,,,,,,,,,,,,,,,,,,,,,,,,,,,,,,,,,,,,,,,,,,230.1355391483521,230.1355391483521,230.1355391483521,230.1355391483521,230.1355391483521,230.1355391483521,s,1,0.5128788484726101,230.66059416043572,231.6773214485729,,,,,,,,,,,,,,,,,,,,,,,,,,,,,,,,,,,,,,,582,2023-05-17_10h07.11.019,eb_02psyexp,2022.2.4,119.98558530531633,
104,0,104,0,,,,,,,,,,,,,,,,,,,,,,,,,,,,,,,,,,,,,,,,,,,,,,,,,,,,,,,,,,,231.6773214485729,231.6773214485729,231.6773214485729,231.6773214485729,231.6773214485729,231.6773214485729,l,1,0.443116313428618,232.13571361731738,233.16078251448926,,,,,,,,,,,,,,,,,,,,,,,,,,,,,,,,,,,,,,,582,2023-05-17_10h07.11.019,eb_02psyexp,2022.2.4,119.98558530531633,
105,0,105,0,,,,,,,,,,,,,,,,,,,,,,,,,,,,,,,,,,,,,,,,,,,,,,,,,,,,,,,,,,,233.16078251448926,233.16078251448926,233.16078251448926,233.16078251448926,233.16078251448926,233.16078251448926,s,1,0.46271449141204357,233.6358304331079,234.66092196898535,,,,,,,,,,,,,,,,,,,,,,,,,,,,,,,,,,,,,,,582,2023-05-17_10h07.11.019,eb_02psyexp,2022.2.4,119.98558530531633,
106,0,106,0,,,,,,,,,,,,,,,,,,,,,,,,,,,,,,,,,,,,,,,,,,,,,,,,,,,,,,,,,,,234.66092196898535,234.66092196898535,234.66092196898535,234.66092196898535,234.66092196898535,234.66092196898535,l,1,0.4105693985475227,235.08596581255551,236.11937390395906,,,,,,,,,,,,,,,,,,,,,,,,,,,,,,,,,,,,,,,582,2023-05-17_10h07.11.019,eb_02psyexp,2022.2.4,119.98558530531633,
107,0,107,0,,,,,,,,,,,,,,,,,,,,,,,,,,,,,,,,,,,,,,,,,,,,,,,,,,,,,,,,,,,236.11937390395906,236.11937390395906,236.11937390395906,236.11937390395906,236.11937390395906,236.11937390395906,s,1,0.44815659523010254,236.57774192478973,237.60282863106113,,,,,,,,,,,,,,,,,,,,,,,,,,,,,,,,,,,,,,,582,2023-05-17_10h07.11.019,eb_02psyexp,2022.2.4,119.98558530531633,
108,0,108,0,,,,,,,,,,,,,,,,,,,,,,,,,,,,,,,,,,,,,,,,,,,,,,,,,,,,,,,,,,,237.60282863106113,237.60282863106113,237.60282863106113,237.60282863106113,237.60282863106113,237.60282863106113,l,1,0.4607409999007359,238.07788922730833,239.10296597250272,,,,,,,,,,,,,,,,,,,,,,,,,,,,,,,,,,,,,,,582,2023-05-17_10h07.11.019,eb_02psyexp,2022.2.4,119.98558530531633,
109,0,109,0,,,,,,,,,,,,,,,,,,,,,,,,,,,,,,,,,,,,,,,,,,,,,,,,,,,,,,,,,,,239.10296597250272,239.10296597250272,239.10296597250272,239.10296597250272,239.10296597250272,239.10296597250272,s,1,0.5126035617431626,239.6279965348076,240.65309833351057,,,,,,,,,,,,,,,,,,,,,,,,,,,,,,,,,,,,,,,582,2023-05-17_10h07.11.019,eb_02psyexp,2022.2.4,119.98558530531633,
110,0,110,0,,,,,,,,,,,,,,,,,,,,,,,,,,,,,,,,,,,,,,,,,,,,,,,,,,,,,,,,,,,240.65309833351057,240.65309833351057,240.65309833351057,240.65309833351057,240.65309833351057,240.65309833351057,l,1,0.6105383079266176,241.27814972342458,242.31157320912462,,,,,,,,,,,,,,,,,,,,,,,,,,,,,,,,,,,,,,,582,2023-05-17_10h07.11.019,eb_02psyexp,2022.2.4,119.98558530531633,
111,0,111,0,,,,,,,,,,,,,,,,,,,,,,,,,,,,,,,,,,,,,,,,,,,,,,,,,,,,,,,,,,,242.31157320912462,242.31157320912462,242.31157320912462,242.31157320912462,242.31157320912462,242.31157320912462,s,1,0.3920361453201622,242.71994379570242,243.74502537050284,,,,,,,,,,,,,,,,,,,,,,,,,,,,,,,,,,,,,,,582,2023-05-17_10h07.11.019,eb_02psyexp,2022.2.4,119.98558530531633,
112,0,112,0,,,,,,,,,,,,,,,,,,,,,,,,,,,,,,,,,,,,,,,,,,,,,,,,,,,,,,,,,,,243.74502537050284,243.74502537050284,243.74502537050284,243.74502537050284,243.74502537050284,243.74502537050284,l,1,0.3746979138813913,244.12840946484357,245.16182600799948,,,,,,,,,,,,,,,,,,,,,,,,,,,,,,,,,,,,,,,582,2023-05-17_10h07.11.019,eb_02psyexp,2022.2.4,119.98558530531633,
113,0,113,0,,,,,,,,,,,,,,,,,,,,,,,,,,,,,,,,,,,,,,,,,,,,,,,,,,,,,,,,,,,245.16182600799948,245.16182600799948,245.16182600799948,245.16182600799948,245.16182600799948,245.16182600799948,s,1,0.42988625285215676,245.60353465692606,246.62862377788406,,,,,,,,,,,,,,,,,,,,,,,,,,,,,,,,,,,,,,,582,2023-05-17_10h07.11.019,eb_02psyexp,2022.2.4,119.98558530531633,
114,0,114,0,,,,,,,,,,,,,,,,,,,,,,,,,,,,,,,,,,,,,,,,,,,,,,,,,,,,,,,,,,,246.62862377788406,246.62862377788406,246.62862377788406,246.62862377788406,246.62862377788406,246.62862377788406,l,1,0.37112914805766195,247.01198885578196,248.0287430085009,,,,,,,,,,,,,,,,,,,,,,,,,,,,,,,,,,,,,,,582,2023-05-17_10h07.11.019,eb_02psyexp,2022.2.4,119.98558530531633,
115,0,115,0,,,,,,,,,,,,,,,,,,,,,,,,,,,,,,,,,,,,,,,,,,,,,,,,,,,,,,,,,,,248.0287430085009,248.0287430085009,248.0287430085009,248.0287430085009,248.0287430085009,248.0287430085009,l,1,0.5310353937093168,248.57044350740034,249.5871904157102,,,,,,,,,,,,,,,,,,,,,,,,,,,,,,,,,,,,,,,582,2023-05-17_10h07.11.019,eb_02psyexp,2022.2.4,119.98558530531633,
116,0,116,0,,,,,,,,,,,,,,,,,,,,,,,,,,,,,,,,,,,,,,,,,,,,,,,,,,,,,,,,,,,249.5871904157102,249.5871904157102,249.5871904157102,249.5871904157102,249.5871904157102,249.5871904157102,s,1,0.5156308097066358,250.11224059818778,251.1290131637361,,,,,,,,,,,,,,,,,,,,,,,,,,,,,,,,,,,,,,,582,2023-05-17_10h07.11.019,eb_02psyexp,2022.2.4,119.98558530531633,
117,0,117,0,,,,,,,,,,,,,,,,,,,,,,,,,,,,,,,,,,,,,,,,,,,,,,,,,,,,,,,,,,,251.1290131637361,251.1290131637361,251.1290131637361,251.1290131637361,251.1290131637361,251.1290131637361,l,1,0.541878127027303,251.68736820505,252.7041108874837,,,,,,,,,,,,,,,,,,,,,,,,,,,,,,,,,,,,,,,582,2023-05-17_10h07.11.019,eb_02psyexp,2022.2.4,119.98558530531633,
118,0,118,0,,,,,,,,,,,,,,,,,,,,,,,,,,,,,,,,,,,,,,,,,,,,,,,,,,,,,,,,,,,252.7041108874837,252.7041108874837,252.7041108874837,252.7041108874837,252.7041108874837,252.7041108874837,l,1,0.45475472195539623,253.1708594559459,254.20426211401355,,,,,,,,,,,,,,,,,,,,,,,,,,,,,,,,,,,,,,,582,2023-05-17_10h07.11.019,eb_02psyexp,2022.2.4,119.98558530531633,
119,0,119,0,,,,,,,,,,,,,,,,,,,,,,,,,,,,,,,,,,,,,,,,,,,,,,,,,,,,,,,,,,,254.20426211401355,254.20426211401355,254.20426211401355,254.20426211401355,254.20426211401355,254.20426211401355,s,1,0.5866233812412247,254.80430588219315,255.8294143215753,,,,,,,,,,,,,,,,,,,,,,,,,,,,,,,,,,,,,,,582,2023-05-17_10h07.11.019,eb_02psyexp,2022.2.4,119.98558530531633,
120,0,120,0,,,,,,,,,,,,,,,,,,,,,,,,,,,,,,,,,,,,,,,,,,,,,,,,,,,,,,,,,,,255.8294143215753,255.8294143215753,255.8294143215753,255.8294143215753,255.8294143215753,255.8294143215753,l,1,0.3615058863069862,256.2044299422996,257.2295124226948,,,,,,,,,,,,,,,,,,,,,,,,,,,,,,,,,,,,,,,582,2023-05-17_10h07.11.019,eb_02psyexp,2022.2.4,119.98558530531633,
121,0,121,0,,,,,,,,,,,,,,,,,,,,,,,,,,,,,,,,,,,,,,,,,,,,,,,,,,,,,,,,,,,257.2295124226948,257.2295124226948,257.2295124226948,257.2295124226948,257.2295124226948,257.2295124226948,s,1,0.5054219600278884,257.7462460495299,258.7630014097085,,,,,,,,,,,,,,,,,,,,,,,,,,,,,,,,,,,,,,,582,2023-05-17_10h07.11.019,eb_02psyexp,2022.2.4,119.98558530531633,
122,0,122,0,,,,,,,,,,,,,,,,,,,,,,,,,,,,,,,,,,,,,,,,,,,,,,,,,,,,,,,,,,,258.7630014097085,258.7630014097085,258.7630014097085,258.7630014097085,258.7630014097085,258.7630014097085,l,1,0.36396686476655304,259.13801642670296,260.1631387511734,,,,,,,,,,,,,,,,,,,,,,,,,,,,,,,,,,,,,,,582,2023-05-17_10h07.11.019,eb_02psyexp,2022.2.4,119.98558530531633,
123,0,123,0,,,,,,,,,,,,,,,,,,,,,,,,,,,,,,,,,,,,,,,,,,,,,,,,,,,,,,,,,,,260.1631387511734,260.1631387511734,260.1631387511734,260.1631387511734,260.1631387511734,260.1631387511734,s,1,0.44385886297095567,260.6214642112609,261.64657476358116,,,,,,,,,,,,,,,,,,,,,,,,,,,,,,,,,,,,,,,582,2023-05-17_10h07.11.019,eb_02psyexp,2022.2.4,119.98558530531633,
124,0,124,0,,,,,,,,,,,,,,,,,,,,,,,,,,,,,,,,,,,,,,,,,,,,,,,,,,,,,,,,,,,261.64657476358116,261.64657476358116,261.64657476358116,261.64657476358116,261.64657476358116,261.64657476358116,l,1,0.32846544752828777,261.9882634904934,263.02168456139043,,,,,,,,,,,,,,,,,,,,,,,,,,,,,,,,,,,,,,,582,2023-05-17_10h07.11.019,eb_02psyexp,2022.2.4,119.98558530531633,
125,0,125,0,,,,,,,,,,,,,,,,,,,,,,,,,,,,,,,,,,,,,,,,,,,,,,,,,,,,,,,,,,,263.02168456139043,263.02168456139043,263.02168456139043,263.02168456139043,263.02168456139043,263.02168456139043,s,1,0.521387682063505,263.5550911434693,264.58015279623214,,,,,,,,,,,,,,,,,,,,,,,,,,,,,,,,,,,,,,,582,2023-05-17_10h07.11.019,eb_02psyexp,2022.2.4,119.98558530531633,
126,0,126,0,,,,,,,,,,,,,,,,,,,,,,,,,,,,,,,,,,,,,,,,,,,,,,,,,,,,,,,,,,,264.58015279623214,264.58015279623214,264.58015279623214,264.58015279623214,264.58015279623214,264.58015279623214,l,1,0.37798354495316744,264.9718504275661,265.9969380394323,,,,,,,,,,,,,,,,,,,,,,,,,,,,,,,,,,,,,,,582,2023-05-17_10h07.11.019,eb_02psyexp,2022.2.4,119.98558530531633,
127,0,127,0,,,,,,,,,,,,,,,,,,,,,,,,,,,,,,,,,,,,,,,,,,,,,,,,,,,,,,,,,,,265.9969380394323,265.9969380394323,265.9969380394323,265.9969380394323,265.9969380394323,265.9969380394323,s,1,0.3771875681122765,266.38865347986575,267.4137377713341,,,,,,,,,,,,,,,,,,,,,,,,,,,,,,,,,,,,,,,582,2023-05-17_10h07.11.019,eb_02psyexp,2022.2.4,119.98558530531633,
128,0,128,0,,,,,,,,,,,,,,,,,,,,,,,,,,,,,,,,,,,,,,,,,,,,,,,,,,,,,,,,,,,267.4137377713341,267.4137377713341,267.4137377713341,267.4137377713341,267.4137377713341,267.4137377713341,l,1,0.4644084704341367,267.8887693900615,268.91387118876446,,,,,,,,,,,,,,,,,,,,,,,,,,,,,,,,,,,,,,,582,2023-05-17_10h07.11.019,eb_02psyexp,2022.2.4,119.98558530531633,
129,0,129,0,,,,,,,,,,,,,,,,,,,,,,,,,,,,,,,,,,,,,,,,,,,,,,,,,,,,,,,,,,,268.91387118876446,268.91387118876446,268.91387118876446,268.91387118876446,268.91387118876446,268.91387118876446,s,1,0.4203613940626383,269.347260565497,270.3723400273593,,,,,,,,,,,,,,,,,,,,,,,,,,,,,,,,,,,,,,,582,2023-05-17_10h07.11.019,eb_02psyexp,2022.2.4,119.98558530531633,
130,0,130,0,,,,,,,,,,,,,,,,,,,,,,,,,,,,,,,,,,,,,,,,,,,,,,,,,,,,,,,,,,,270.3723400273593,270.3723400273593,270.3723400273593,270.3723400273593,270.3723400273593,270.3723400273593,l,1,0.2898622256470844,270.67233851808123,271.6891053485451,,,,,,,,,,,,,,,,,,,,,,,,,,,,,,,,,,,,,,,582,2023-05-17_10h07.11.019,eb_02psyexp,2022.2.4,119.98558530531633,
131,0,131,0,,,,,,,,,,,,,,,,,,,,,,,,,,,,,,,,,,,,,,,,,,,,,,,,,,,,,,,,,,,271.6891053485451,271.6891053485451,271.6891053485451,271.6891053485451,271.6891053485451,271.6891053485451,s,0,0.44512874353677034,272.1474555602763,273.18088357371744,,,,,,,,,,,,,,,,,,,,,,,,,,,,,,,,,,,,,,,582,2023-05-17_10h07.11.019,eb_02psyexp,2022.2.4,119.98558530531633,
132,0,132,0,,,,,,,,,,,,,,,,,,,,,,,,,,,,,,,,,,,,,,,,,,,,,,,,,,,,,,,,,,,273.18088357371744,273.18088357371744,273.18088357371744,273.18088357371744,273.18088357371744,273.18088357371744,s,1,0.5613667337456718,273.7559402459301,274.7727061706828,,,,,,,,,,,,,,,,,,,,,,,,,,,,,,,,,,,,,,,582,2023-05-17_10h07.11.019,eb_02psyexp,2022.2.4,119.98558530531633,
133,0,133,0,,,,,,,,,,,,,,,,,,,,,,,,,,,,,,,,,,,,,,,,,,,,,,,,,,,,,,,,,,,274.7727061706828,274.7727061706828,274.7727061706828,274.7727061706828,274.7727061706828,274.7727061706828,l,1,0.35361161816399544,275.13941700803116,276.16447262384463,,,,,,,,,,,,,,,,,,,,,,,,,,,,,,,,,,,,,,,582,2023-05-17_10h07.11.019,eb_02psyexp,2022.2.4,119.98558530531633,
134,0,134,0,,,,,,,,,,,,,,,,,,,,,,,,,,,,,,,,,,,,,,,,,,,,,,,,,,,,,,,,,,,276.16447262384463,276.16447262384463,276.16447262384463,276.16447262384463,276.16447262384463,276.16447262384463,l,1,0.41784849762916565,276.59786622645333,277.6312779400032,,,,,,,,,,,,,,,,,,,,,,,,,,,,,,,,,,,,,,,582,2023-05-17_10h07.11.019,eb_02psyexp,2022.2.4,119.98558530531633,
135,0,135,0,,,,,,,,,,,,,,,,,,,,,,,,,,,,,,,,,,,,,,,,,,,,,,,,,,,,,,,,,,,277.6312779400032,277.6312779400032,277.6312779400032,277.6312779400032,277.6312779400032,277.6312779400032,s,1,0.3910964879905805,278.0313090304844,279.04807887936477,,,,,,,,,,,,,,,,,,,,,,,,,,,,,,,,,,,,,,,582,2023-05-17_10h07.11.019,eb_02psyexp,2022.2.4,119.98558530531633,
136,0,136,0,,,,,,,,,,,,,,,,,,,,,,,,,,,,,,,,,,,,,,,,,,,,,,,,,,,,,,,,,,,279.04807887936477,279.04807887936477,279.04807887936477,279.04807887936477,279.04807887936477,279.04807887936477,l,1,0.3733746060170233,279.43146025703754,280.4565345874289,,,,,,,,,,,,,,,,,,,,,,,,,,,,,,,,,,,,,,,582,2023-05-17_10h07.11.019,eb_02psyexp,2022.2.4,119.98558530531633,
137,0,137,0,,,,,,,,,,,,,,,,,,,,,,,,,,,,,,,,,,,,,,,,,,,,,,,,,,,,,,,,,,,280.4565345874289,280.4565345874289,280.4565345874289,280.4565345874289,280.4565345874289,280.4565345874289,s,1,0.3809172195615247,280.84821682446636,281.8733213398373,,,,,,,,,,,,,,,,,,,,,,,,,,,,,,,,,,,,,,,582,2023-05-17_10h07.11.019,eb_02psyexp,2022.2.4,119.98558530531633,
138,0,138,0,,,,,,,,,,,,,,,,,,,,,,,,,,,,,,,,,,,,,,,,,,,,,,,,,,,,,,,,,,,281.8733213398373,281.8733213398373,281.8733213398373,281.8733213398373,281.8733213398373,281.8733213398373,l,1,0.32411247689742595,282.206660307711,283.24010613025166,,,,,,,,,,,,,,,,,,,,,,,,,,,,,,,,,,,,,,,582,2023-05-17_10h07.11.019,eb_02psyexp,2022.2.4,119.98558530531633,
139,0,139,0,,,,,,,,,,,,,,,,,,,,,,,,,,,,,,,,,,,,,,,,,,,,,,,,,,,,,,,,,,,283.24010613025166,283.24010613025166,283.24010613025166,283.24010613025166,283.24010613025166,283.24010613025166,s,1,0.3494095721980557,283.5984838103177,284.61523162422236,,,,,,,,,,,,,,,,,,,,,,,,,,,,,,,,,,,,,,,582,2023-05-17_10h07.11.019,eb_02psyexp,2022.2.4,119.98558530531633,
140,0,140,0,,,,,,,,,,,,,,,,,,,,,,,,,,,,,,,,,,,,,,,,,,,,,,,,,,,,,,,,,,,284.61523162422236,284.61523162422236,284.61523162422236,284.61523162422236,284.61523162422236,284.61523162422236,l,1,0.286272632307373,284.91524943325203,285.9403388561914,,,,,,,,,,,,,,,,,,,,,,,,,,,,,,,,,,,,,,,582,2023-05-17_10h07.11.019,eb_02psyexp,2022.2.4,119.98558530531633,
141,0,141,0,,,,,,,,,,,,,,,,,,,,,,,,,,,,,,,,,,,,,,,,,,,,,,,,,,,,,,,,,,,285.9403388561914,285.9403388561914,285.9403388561914,285.9403388561914,285.9403388561914,285.9403388561914,l,1,0.481197034008801,286.4320304505527,287.44877283112146,,,,,,,,,,,,,,,,,,,,,,,,,,,,,,,,,,,,,,,582,2023-05-17_10h07.11.019,eb_02psyexp,2022.2.4,119.98558530531633,
142,0,142,0,,,,,,,,,,,,,,,,,,,,,,,,,,,,,,,,,,,,,,,,,,,,,,,,,,,,,,,,,,,287.44877283112146,287.44877283112146,287.44877283112146,287.44877283112146,287.44877283112146,287.44877283112146,l,1,0.5248031084192917,287.9821643207688,288.99892994377296,,,,,,,,,,,,,,,,,,,,,,,,,,,,,,,,,,,,,,,582,2023-05-17_10h07.11.019,eb_02psyexp,2022.2.4,119.98558530531633,
143,0,143,0,,,,,,,,,,,,,,,,,,,,,,,,,,,,,,,,,,,,,,,,,,,,,,,,,,,,,,,,,,,288.99892994377296,288.99892994377296,288.99892994377296,288.99892994377296,288.99892994377296,288.99892994377296,s,1,0.6386540733510628,289.6489626944531,290.6824133465998,,,,,,,,,,,,,,,,,,,,,,,,,,,,,,,,,,,,,,,582,2023-05-17_10h07.11.019,eb_02psyexp,2022.2.4,119.98558530531633,
144,0,144,0,,,,,,,,,,,,,,,,,,,,,,,,,,,,,,,,,,,,,,,,,,,,,,,,,,,,,,,,,,,290.6824133465998,290.6824133465998,290.6824133465998,290.6824133465998,290.6824133465998,290.6824133465998,s,1,0.5472096935845912,291.2407762360526,292.25753582199104,,,,,,,,,,,,,,,,,,,,,,,,,,,,,,,,,,,,,,,582,2023-05-17_10h07.11.019,eb_02psyexp,2022.2.4,119.98558530531633,
145,0,145,0,,,,,,,,,,,,,,,,,,,,,,,,,,,,,,,,,,,,,,,,,,,,,,,,,,,,,,,,,,,292.25753582199104,292.25753582199104,292.25753582199104,292.25753582199104,292.25753582199104,292.25753582199104,l,1,0.46009594772476703,292.7325345391873,293.7659990764223,,,,,,,,,,,,,,,,,,,,,,,,,,,,,,,,,,,,,,,582,2023-05-17_10h07.11.019,eb_02psyexp,2022.2.4,119.98558530531633,
146,0,146,0,,,,,,,,,,,,,,,,,,,,,,,,,,,,,,,,,,,,,,,,,,,,,,,,,,,,,,,,,,,293.7659990764223,293.7659990764223,293.7659990764223,293.7659990764223,293.7659990764223,293.7659990764223,s,1,0.2716899843653664,294.0493689838331,295.06610894959886,,,,,,,,,,,,,,,,,,,,,,,,,,,,,,,,,,,,,,,582,2023-05-17_10h07.11.019,eb_02psyexp,2022.2.4,119.98558530531633,
147,0,147,0,,,,,,,,,,,,,,,,,,,,,,,,,,,,,,,,,,,,,,,,,,,,,,,,,,,,,,,,,,,295.06610894959886,295.06610894959886,295.06610894959886,295.06610894959886,295.06610894959886,295.06610894959886,l,1,0.46762920392211527,295.54949787352234,296.57458729634527,,,,,,,,,,,,,,,,,,,,,,,,,,,,,,,,,,,,,,,582,2023-05-17_10h07.11.019,eb_02psyexp,2022.2.4,119.98558530531633,
148,0,148,0,,,,,,,,,,,,,,,,,,,,,,,,,,,,,,,,,,,,,,,,,,,,,,,,,,,,,,,,,,,296.57458729634527,296.57458729634527,296.57458729634527,296.57458729634527,296.57458729634527,296.57458729634527,l,1,0.4221815461060032,297.0079395456705,298.02470033895224,,,,,,,,,,,,,,,,,,,,,,,,,,,,,,,,,,,,,,,582,2023-05-17_10h07.11.019,eb_02psyexp,2022.2.4,119.98558530531633,
149,0,149,0,,,,,,,,,,,,,,,,,,,,,,,,,,,,,,,,,,,,,,,,,,,,,,,,,,,,,,,,,,,298.02470033895224,298.02470033895224,298.02470033895224,298.02470033895224,298.02470033895224,298.02470033895224,l,1,0.3640565141104162,298.3997530872002,299.4248548859032,,,,,,,,,,,,,,,,,,,,,,,,,,,,,,,,,,,,,,,582,2023-05-17_10h07.11.019,eb_02psyexp,2022.2.4,119.98558530531633,
150,0,150,0,,,,,,,,,,,,,,,,,,,,,,,,,,,,,,,,,,,,,,,,,,,,,,,,,,,,,,,,,,,299.4248548859032,299.4248548859032,299.4248548859032,299.4248548859032,299.4248548859032,299.4248548859032,l,1,0.44396209553815424,299.88320509763435,300.9082824465586,,,,,,,,,,,,,,,,,,,,,,,,,,,,,,,,,,,,,,,582,2023-05-17_10h07.11.019,eb_02psyexp,2022.2.4,119.98558530531633,
151,0,151,0,,,,,,,,,,,,,,,,,,,,,,,,,,,,,,,,,,,,,,,,,,,,,,,,,,,,,,,,,,,300.9082824465586,300.9082824465586,300.9082824465586,300.9082824465586,300.9082824465586,300.9082824465586,s,1,0.38455873110797256,301.3083144426346,302.3334177505458,,,,,,,,,,,,,,,,,,,,,,,,,,,,,,,,,,,,,,,582,2023-05-17_10h07.11.019,eb_02psyexp,2022.2.4,119.98558530531633,
152,0,152,0,,,,,,,,,,,,,,,,,,,,,,,,,,,,,,,,,,,,,,,,,,,,,,,,,,,,,,,,,,,302.3334177505458,302.3334177505458,302.3334177505458,302.3334177505458,302.3334177505458,302.3334177505458,l,1,0.4954373846994713,302.8417816965375,303.86689647473395,,,,,,,,,,,,,,,,,,,,,,,,,,,,,,,,,,,,,,,582,2023-05-17_10h07.11.019,eb_02psyexp,2022.2.4,119.98558530531633,
153,0,153,0,,,,,,,,,,,,,,,,,,,,,,,,,,,,,,,,,,,,,,,,,,,,,,,,,,,,,,,,,,,303.86689647473395,303.86689647473395,303.86689647473395,303.86689647473395,303.86689647473395,303.86689647473395,s,1,0.5780526684829965,304.4585992376087,305.475341919926,,,,,,,,,,,,,,,,,,,,,,,,,,,,,,,,,,,,,,,582,2023-05-17_10h07.11.019,eb_02psyexp,2022.2.4,119.98558530531633,
154,0,154,0,,,,,,,,,,,,,,,,,,,,,,,,,,,,,,,,,,,,,,,,,,,,,,,,,,,,,,,,,,,305.475341919926,305.475341919926,305.475341919926,305.475341919926,305.475341919926,305.475341919926,l,1,0.46563156438060105,305.95039527188055,306.9838202667888,,,,,,,,,,,,,,,,,,,,,,,,,,,,,,,,,,,,,,,582,2023-05-17_10h07.11.019,eb_02psyexp,2022.2.4,119.98558530531633,
155,0,155,0,,,,,,,,,,,,,,,,,,,,,,,,,,,,,,,,,,,,,,,,,,,,,,,,,,,,,,,,,,,306.9838202667888,306.9838202667888,306.9838202667888,306.9838202667888,306.9838202667888,306.9838202667888,s,1,0.5331347563769668,307.5255174454069,308.542270692531,,,,,,,,,,,,,,,,,,,,,,,,,,,,,,,,,,,,,,,582,2023-05-17_10h07.11.019,eb_02psyexp,2022.2.4,119.98558530531633,
156,0,156,0,,,,,,,,,,,,,,,,,,,,,,,,,,,,,,,,,,,,,,,,,,,,,,,,,,,,,,,,,,,308.542270692531,308.542270692531,308.542270692531,308.542270692531,308.542270692531,308.542270692531,l,1,0.4466980587458238,309.00064354296774,310.03407880081795,,,,,,,,,,,,,,,,,,,,,,,,,,,,,,,,,,,,,,,582,2023-05-17_10h07.11.019,eb_02psyexp,2022.2.4,119.98558530531633,
157,0,157,0,,,,,,,,,,,,,,,,,,,,,,,,,,,,,,,,,,,,,,,,,,,,,,,,,,,,,,,,,,,310.03407880081795,310.03407880081795,310.03407880081795,310.03407880081795,310.03407880081795,310.03407880081795,s,1,0.30601901828777045,310.3507686596131,311.3675333770225,,,,,,,,,,,,,,,,,,,,,,,,,,,,,,,,,,,,,,,582,2023-05-17_10h07.11.019,eb_02psyexp,2022.2.4,119.98558530531633,
158,0,158,0,,,,,,,,,,,,,,,,,,,,,,,,,,,,,,,,,,,,,,,,,,,,,,,,,,,,,,,,,,,311.3675333770225,311.3675333770225,311.3675333770225,311.3675333770225,311.3675333770225,311.3675333770225,l,1,0.3085165205411613,311.68420180445537,312.7009668237297,,,,,,,,,,,,,,,,,,,,,,,,,,,,,,,,,,,,,,,582,2023-05-17_10h07.11.019,eb_02psyexp,2022.2.4,119.98558530531633,
159,0,159,0,,,,,,,,,,,,,,,,,,,,,,,,,,,,,,,,,,,,,,,,,,,,,,,,,,,,,,,,,,,312.7009668237297,312.7009668237297,312.7009668237297,312.7009668237297,312.7009668237297,312.7009668237297,l,1,0.4791181969922036,313.1926569088828,314.22611691837665,,,,,,,,,,,,,,,,,,,,,,,,,,,,,,,,,,,,,,,582,2023-05-17_10h07.11.019,eb_02psyexp,2022.2.4,119.98558530531633,
160,0,160,0,,,,,,,,,,,,,,,,,,,,,,,,,,,,,,,,,,,,,,,,,,,,,,,,,,,,,,,,,,,314.22611691837665,314.22611691837665,314.22611691837665,314.22611691837665,314.22611691837665,314.22611691837665,s,1,0.6259842452127486,314.8678186247125,315.89290895313025,,,,,,,,,,,,,,,,,,,,,,,,,,,,,,,,,,,,,,,582,2023-05-17_10h07.11.019,eb_02psyexp,2022.2.4,119.98558530531633,
161,0,161,0,,,,,,,,,,,,,,,,,,,,,,,,,,,,,,,,,,,,,,,,,,,,,,,,,,,,,,,,,,,315.89290895313025,315.89290895313025,315.89290895313025,315.89290895313025,315.89290895313025,315.89290895313025,l,1,0.36723529046867043,316.27629485866055,317.29302576894406,,,,,,,,,,,,,,,,,,,,,,,,,,,,,,,,,,,,,,,582,2023-05-17_10h07.11.019,eb_02psyexp,2022.2.4,119.98558530531633,
162,0,162,0,,,,,,,,,,,,,,,,,,,,,,,,,,,,,,,,,,,,,,,,,,,,,,,,,,,,,,,,,,,317.29302576894406,317.29302576894406,317.29302576894406,317.29302576894406,317.29302576894406,317.29302576894406,l,1,0.5591623273212463,317.8680776115507,318.8931851454545,,,,,,,,,,,,,,,,,,,,,,,,,,,,,,,,,,,,,,,582,2023-05-17_10h07.11.019,eb_02psyexp,2022.2.4,119.98558530531633,
163,0,163,0,,,,,,,,,,,,,,,,,,,,,,,,,,,,,,,,,,,,,,,,,,,,,,,,,,,,,,,,,,,318.8931851454545,318.8931851454545,318.8931851454545,318.8931851454545,318.8931851454545,318.8931851454545,l,1,0.43101758451666683,319.3348624019418,320.3516271193512,,,,,,,,,,,,,,,,,,,,,,,,,,,,,,,,,,,,,,,582,2023-05-17_10h07.11.019,eb_02psyexp,2022.2.4,119.98558530531633,
164,0,164,0,,,,,,,,,,,,,,,,,,,,,,,,,,,,,,,,,,,,,,,,,,,,,,,,,,,,,,,,,,,320.3516271193512,320.3516271193512,320.3516271193512,320.3516271193512,320.3516271193512,320.3516271193512,l,1,0.4446083551738411,320.8099990643095,321.8267550281016,,,,,,,,,,,,,,,,,,,,,,,,,,,,,,,,,,,,,,,582,2023-05-17_10h07.11.019,eb_02psyexp,2022.2.4,119.98558530531633,
165,0,165,0,,,,,,,,,,,,,,,,,,,,,,,,,,,,,,,,,,,,,,,,,,,,,,,,,,,,,,,,,,,321.8267550281016,321.8267550281016,321.8267550281016,321.8267550281016,321.8267550281016,321.8267550281016,l,0,0.3454876425676048,322.1851299914997,323.2185537790647,,,,,,,,,,,,,,,,,,,,,,,,,,,,,,,,,,,,,,,582,2023-05-17_10h07.11.019,eb_02psyexp,2022.2.4,119.98558530531633,
166,0,166,0,,,,,,,,,,,,,,,,,,,,,,,,,,,,,,,,,,,,,,,,,,,,,,,,,,,,,,,,,,,323.2185537790647,323.2185537790647,323.2185537790647,323.2185537790647,323.2185537790647,323.2185537790647,s,1,0.5297673242166638,323.76024582621176,324.7770081288181,,,,,,,,,,,,,,,,,,,,,,,,,,,,,,,,,,,,,,,582,2023-05-17_10h07.11.019,eb_02psyexp,2022.2.4,119.98558530531633,
167,0,167,0,,,,,,,,,,,,,,,,,,,,,,,,,,,,,,,,,,,,,,,,,,,,,,,,,,,,,,,,,,,324.7770081288181,324.7770081288181,324.7770081288181,324.7770081288181,324.7770081288181,324.7770081288181,l,1,0.43529026326723397,325.2270457090344,326.25213694304693,,,,,,,,,,,,,,,,,,,,,,,,,,,,,,,,,,,,,,,582,2023-05-17_10h07.11.019,eb_02psyexp,2022.2.4,119.98558530531633,
168,0,168,0,,,,,,,,,,,,,,,,,,,,,,,,,,,,,,,,,,,,,,,,,,,,,,,,,,,,,,,,,,,326.25213694304693,326.25213694304693,326.25213694304693,326.25213694304693,326.25213694304693,326.25213694304693,s,1,0.5833175262669101,326.8438297448447,327.860607441864,,,,,,,,,,,,,,,,,,,,,,,,,,,,,,,,,,,,,,,582,2023-05-17_10h07.11.019,eb_02psyexp,2022.2.4,119.98558530531633,
169,0,169,0,,,,,,,,,,,,,,,,,,,,,,,,,,,,,,,,,,,,,,,,,,,,,,,,,,,,,,,,,,,327.860607441864,327.860607441864,327.860607441864,327.860607441864,327.860607441864,327.860607441864,l,1,0.3827612177701667,328.25230869546067,329.27740204229485,,,,,,,,,,,,,,,,,,,,,,,,,,,,,,,,,,,,,,,582,2023-05-17_10h07.11.019,eb_02psyexp,2022.2.4,119.98558530531633,
170,0,170,0,,,,,,,,,,,,,,,,,,,,,,,,,,,,,,,,,,,,,,,,,,,,,,,,,,,,,,,,,,,329.27740204229485,329.27740204229485,329.27740204229485,329.27740204229485,329.27740204229485,329.27740204229485,l,1,0.5019938560435548,329.7941082009347,330.8108599388506,,,,,,,,,,,,,,,,,,,,,,,,,,,,,,,,,,,,,,,582,2023-05-17_10h07.11.019,eb_02psyexp,2022.2.4,119.98558530531633,
171,0,171,0,,,,,,,,,,,,,,,,,,,,,,,,,,,,,,,,,,,,,,,,,,,,,,,,,,,,,,,,,,,330.8108599388506,330.8108599388506,330.8108599388506,330.8108599388506,330.8108599388506,330.8108599388506,l,1,0.4485852214274928,331.26924818370026,332.2860122973798,,,,,,,,,,,,,,,,,,,,,,,,,,,,,,,,,,,,,,,582,2023-05-17_10h07.11.019,eb_02psyexp,2022.2.4,119.98558530531633,
172,0,172,0,,,,,,,,,,,,,,,,,,,,,,,,,,,,,,,,,,,,,,,,,,,,,,,,,,,,,,,,,,,332.2860122973798,332.2860122973798,332.2860122973798,332.2860122973798,332.2860122973798,332.2860122973798,s,1,0.5094416890060529,332.8110353134107,333.8361374139786,,,,,,,,,,,,,,,,,,,,,,,,,,,,,,,,,,,,,,,582,2023-05-17_10h07.11.019,eb_02psyexp,2022.2.4,119.98558530531633,
173,0,173,0,,,,,,,,,,,,,,,,,,,,,,,,,,,,,,,,,,,,,,,,,,,,,,,,,,,,,,,,,,,333.8361374139786,333.8361374139786,333.8361374139786,333.8361374139786,333.8361374139786,333.8361374139786,l,1,0.4153820858336985,334.2611728057964,335.28626132314093,,,,,,,,,,,,,,,,,,,,,,,,,,,,,,,,,,,,,,,582,2023-05-17_10h07.11.019,eb_02psyexp,2022.2.4,119.98558530531633,
174,0,174,0,,,,,,,,,,,,,,,,,,,,,,,,,,,,,,,,,,,,,,,,,,,,,,,,,,,,,,,,,,,335.28626132314093,335.28626132314093,335.28626132314093,335.28626132314093,335.28626132314093,335.28626132314093,s,1,0.4852581162704155,335.7862915081205,336.8030444533797,,,,,,,,,,,,,,,,,,,,,,,,,,,,,,,,,,,,,,,582,2023-05-17_10h07.11.019,eb_02psyexp,2022.2.4,119.98558530531633,
175,0,175,0,,,,,,,,,,,,,,,,,,,,,,,,,,,,,,,,,,,,,,,,,,,,,,,,,,,,,,,,,,,336.8030444533797,336.8030444533797,336.8030444533797,336.8030444533797,336.8030444533797,336.8030444533797,l,1,0.32848144555464387,337.14473770791665,338.16149699210655,,,,,,,,,,,,,,,,,,,,,,,,,,,,,,,,,,,,,,,582,2023-05-17_10h07.11.019,eb_02psyexp,2022.2.4,119.98558530531633,
176,0,176,0,,,,,,,,,,,,,,,,,,,,,,,,,,,,,,,,,,,,,,,,,,,,,,,,,,,,,,,,,,,338.16149699210655,338.16149699210655,338.16149699210655,338.16149699210655,338.16149699210655,338.16149699210655,s,0,0.3860598283354193,338.56155977677554,339.57830034627113,,,,,,,,,,,,,,,,,,,,,,,,,,,,,,,,,,,,,,,582,2023-05-17_10h07.11.019,eb_02psyexp,2022.2.4,119.98558530531633,
177,0,177,0,,,,,,,,,,,,,,,,,,,,,,,,,,,,,,,,,,,,,,,,,,,,,,,,,,,,,,,,,,,339.57830034627113,339.57830034627113,339.57830034627113,339.57830034627113,339.57830034627113,339.57830034627113,l,1,0.42532923200633377,340.0199957137229,341.0450932865497,,,,,,,,,,,,,,,,,,,,,,,,,,,,,,,,,,,,,,,582,2023-05-17_10h07.11.019,eb_02psyexp,2022.2.4,119.98558530531633,
178,0,178,0,,,,,,,,,,,,,,,,,,,,,,,,,,,,,,,,,,,,,,,,,,,,,,,,,,,,,,,,,,,341.0450932865497,341.0450932865497,341.0450932865497,341.0450932865497,341.0450932865497,341.0450932865497,s,1,0.5025537868496031,341.5617900879588,342.58688403852284,,,,,,,,,,,,,,,,,,,,,,,,,,,,,,,,,,,,,,,582,2023-05-17_10h07.11.019,eb_02psyexp,2022.2.4,119.98558530531633,
179,0,179,0,,,,,,,,,,,,,,,,,,,,,,,,,,,,,,,,,,,,,,,,,,,,,,,,,,,,,,,,,,,342.58688403852284,342.58688403852284,342.58688403852284,342.58688403852284,342.58688403852284,342.58688403852284,l,1,0.5037584678502753,343.10360076185316,344.12868173304014,,,,,,,,,,,,,,,,,,,,,,,,,,,,,,,,,,,,,,,582,2023-05-17_10h07.11.019,eb_02psyexp,2022.2.4,119.98558530531633,
180,0,180,0,,,,,,,,,,,,,,,,,,,,,,,,,,,,,,,,,,,,,,,,,,,,,,,,,,,,,,,,,,,344.12868173304014,344.12868173304014,344.12868173304014,344.12868173304014,344.12868173304014,344.12868173304014,s,1,0.5540354148251936,344.69539287220687,345.72049708571285,,,,,,,,,,,,,,,,,,,,,,,,,,,,,,,,,,,,,,,582,2023-05-17_10h07.11.019,eb_02psyexp,2022.2.4,119.98558530531633,
181,0,181,0,,,,,,,,,,,,,,,,,,,,,,,,,,,,,,,,,,,,,,,,,,,,,,,,,,,,,,,,,,,345.72049708571285,345.72049708571285,345.72049708571285,345.72049708571285,345.72049708571285,345.72049708571285,l,1,0.37021937395911664,346.1038727281848,347.1372572754044,,,,,,,,,,,,,,,,,,,,,,,,,,,,,,,,,,,,,,,582,2023-05-17_10h07.11.019,eb_02psyexp,2022.2.4,119.98558530531633,
182,0,182,0,,,,,,,,,,,,,,,,,,,,,,,,,,,,,,,,,,,,,,,,,,,,,,,,,,,,,,,,,,,347.1372572754044,347.1372572754044,347.1372572754044,347.1372572754044,347.1372572754044,347.1372572754044,s,1,0.5135178638156503,347.66233251127414,348.6874098601984,,,,,,,,,,,,,,,,,,,,,,,,,,,,,,,,,,,,,,,582,2023-05-17_10h07.11.019,eb_02psyexp,2022.2.4,119.98558530531633,
183,0,183,0,,,,,,,,,,,,,,,,,,,,,,,,,,,,,,,,,,,,,,,,,,,,,,,,,,,,,,,,,,,348.6874098601984,348.6874098601984,348.6874098601984,348.6874098601984,348.6874098601984,348.6874098601984,l,1,0.37142918643075973,349.070796973072,350.0875444851117,,,,,,,,,,,,,,,,,,,,,,,,,,,,,,,,,,,,,,,582,2023-05-17_10h07.11.019,eb_02psyexp,2022.2.4,119.98558530531633,
184,0,184,0,,,,,,,,,,,,,,,,,,,,,,,,,,,,,,,,,,,,,,,,,,,,,,,,,,,,,,,,,,,350.0875444851117,350.0875444851117,350.0875444851117,350.0875444851117,350.0875444851117,350.0875444851117,s,1,0.5712960708187893,350.67095906625036,351.68766884703655,,,,,,,,,,,,,,,,,,,,,,,,,,,,,,,,,,,,,,,582,2023-05-17_10h07.11.019,eb_02psyexp,2022.2.4,119.98558530531633,
185,0,185,0,,,,,,,,,,,,,,,,,,,,,,,,,,,,,,,,,,,,,,,,,,,,,,,,,,,,,,,,,,,351.68766884703655,351.68766884703655,351.68766884703655,351.68766884703655,351.68766884703655,351.68766884703655,l,1,0.49919118417892605,352.19604788545985,353.2128147158073,,,,,,,,,,,,,,,,,,,,,,,,,,,,,,,,,,,,,,,582,2023-05-17_10h07.11.019,eb_02psyexp,2022.2.4,119.98558530531633,
186,0,186,0,,,,,,,,,,,,,,,,,,,,,,,,,,,,,,,,,,,,,,,,,,,,,,,,,,,,,,,,,,,353.2128147158073,353.2128147158073,353.2128147158073,353.2128147158073,353.2128147158073,353.2128147158073,s,1,0.44605542125646025,353.6711739830207,354.6879510763101,,,,,,,,,,,,,,,,,,,,,,,,,,,,,,,,,,,,,,,582,2023-05-17_10h07.11.019,eb_02psyexp,2022.2.4,119.98558530531633,
187,0,187,0,,,,,,,,,,,,,,,,,,,,,,,,,,,,,,,,,,,,,,,,,,,,,,,,,,,,,,,,,,,354.6879510763101,354.6879510763101,354.6879510763101,354.6879510763101,354.6879510763101,354.6879510763101,l,1,0.41100406157784164,355.1129849589197,356.12973065976985,,,,,,,,,,,,,,,,,,,,,,,,,,,,,,,,,,,,,,,582,2023-05-17_10h07.11.019,eb_02psyexp,2022.2.4,119.98558530531633,
188,0,188,0,,,,,,,,,,,,,,,,,,,,,,,,,,,,,,,,,,,,,,,,,,,,,,,,,,,,,,,,,,,356.12973065976985,356.12973065976985,356.12973065976985,356.12973065976985,356.12973065976985,356.12973065976985,l,1,0.5452036022907123,356.6880890214816,357.7215221663937,,,,,,,,,,,,,,,,,,,,,,,,,,,,,,,,,,,,,,,582,2023-05-17_10h07.11.019,eb_02psyexp,2022.2.4,119.98558530531633,
189,0,189,0,,,,,,,,,,,,,,,,,,,,,,,,,,,,,,,,,,,,,,,,,,,,,,,,,,,,,,,,,,,357.7215221663937,357.7215221663937,357.7215221663937,357.7215221663937,357.7215221663937,357.7215221663937,s,1,0.553436545538716,358.28823813505005,359.304994702572,,,,,,,,,,,,,,,,,,,,,,,,,,,,,,,,,,,,,,,582,2023-05-17_10h07.11.019,eb_02psyexp,2022.2.4,119.98558530531633,
190,0,190,0,,,,,,,,,,,,,,,,,,,,,,,,,,,,,,,,,,,,,,,,,,,,,,,,,,,,,,,,,,,359.304994702572,359.304994702572,359.304994702572,359.304994702572,359.304994702572,359.304994702572,s,1,0.5770040436182171,359.89669505064376,360.93017317110207,,,,,,,,,,,,,,,,,,,,,,,,,,,,,,,,,,,,,,,582,2023-05-17_10h07.11.019,eb_02psyexp,2022.2.4,119.98558530531633,
191,0,191,0,,,,,,,,,,,,,,,,,,,,,,,,,,,,,,,,,,,,,,,,,,,,,,,,,,,,,,,,,,,360.93017317110207,360.93017317110207,360.93017317110207,360.93017317110207,360.93017317110207,360.93017317110207,s,1,0.3919102739309892,361.3385141764302,362.3552559532691,,,,,,,,,,,,,,,,,,,,,,,,,,,,,,,,,,,,,,,582,2023-05-17_10h07.11.019,eb_02psyexp,2022.2.4,119.98558530531633,
192,0,192,0,,,,,,,,,,,,,,,,,,,,,,,,,,,,,,,,,,,,,,,,,,,,,,,,,,,,,,,,,,,362.3552559532691,362.3552559532691,362.3552559532691,362.3552559532691,362.3552559532691,362.3552559532691,l,1,0.3667945902561769,362.7302706683986,363.75537699484266,,,,,,,,,,,,,,,,,,,,,,,,,,,,,,,,,,,,,,,582,2023-05-17_10h07.11.019,eb_02psyexp,2022.2.4,119.98558530531633,
193,0,193,0,,,,,,,,,,,,,,,,,,,,,,,,,,,,,,,,,,,,,,,,,,,,,,,,,,,,,,,,,,,363.75537699484266,363.75537699484266,363.75537699484266,363.75537699484266,363.75537699484266,363.75537699484266,s,1,0.47872579272370785,364.2471202055458,365.2721891027177,,,,,,,,,,,,,,,,,,,,,,,,,,,,,,,,,,,,,,,582,2023-05-17_10h07.11.019,eb_02psyexp,2022.2.4,119.98558530531633,
194,0,194,0,,,,,,,,,,,,,,,,,,,,,,,,,,,,,,,,,,,,,,,,,,,,,,,,,,,,,,,,,,,365.2721891027177,365.2721891027177,365.2721891027177,365.2721891027177,365.2721891027177,365.2721891027177,l,1,0.48193384846672416,365.7638840173604,366.78063273685984,,,,,,,,,,,,,,,,,,,,,,,,,,,,,,,,,,,,,,,582,2023-05-17_10h07.11.019,eb_02psyexp,2022.2.4,119.98558530531633,
195,0,195,0,,,,,,,,,,,,,,,,,,,,,,,,,,,,,,,,,,,,,,,,,,,,,,,,,,,,,,,,,,,366.78063273685984,366.78063273685984,366.78063273685984,366.78063273685984,366.78063273685984,366.78063273685984,l,1,0.5175312537467107,367.31403267825954,368.33077234216034,,,,,,,,,,,,,,,,,,,,,,,,,,,,,,,,,,,,,,,582,2023-05-17_10h07.11.019,eb_02psyexp,2022.2.4,119.98558530531633,
196,0,196,0,,,,,,,,,,,,,,,,,,,,,,,,,,,,,,,,,,,,,,,,,,,,,,,,,,,,,,,,,,,368.33077234216034,368.33077234216034,368.33077234216034,368.33077234216034,368.33077234216034,368.33077234216034,s,1,0.6874078878900036,369.0308472007746,370.0642574051162,,,,,,,,,,,,,,,,,,,,,,,,,,,,,,,,,,,,,,,582,2023-05-17_10h07.11.019,eb_02psyexp,2022.2.4,119.98558530531633,
197,0,197,0,,,,,,,,,,,,,,,,,,,,,,,,,,,,,,,,,,,,,,,,,,,,,,,,,,,,,,,,,,,370.0642574051162,370.0642574051162,370.0642574051162,370.0642574051162,370.0642574051162,370.0642574051162,s,1,0.5619568494148552,370.63933641428594,371.66441134840716,,,,,,,,,,,,,,,,,,,,,,,,,,,,,,,,,,,,,,,582,2023-05-17_10h07.11.019,eb_02psyexp,2022.2.4,119.98558530531633,
198,0,198,0,,,,,,,,,,,,,,,,,,,,,,,,,,,,,,,,,,,,,,,,,,,,,,,,,,,,,,,,,,,371.66441134840716,371.66441134840716,371.66441134840716,371.66441134840716,371.66441134840716,371.66441134840716,l,1,0.5698480990249664,372.247776728007,373.2645338992588,,,,,,,,,,,,,,,,,,,,,,,,,,,,,,,,,,,,,,,582,2023-05-17_10h07.11.019,eb_02psyexp,2022.2.4,119.98558530531633,
199,0,199,0,,,,,0,0,0,0,,,,,,,,,,,,,,,,,,,,,,,,,,,,,,,,,,,,,,,,,,,,,,,,,,,373.2645338992588,373.2645338992588,373.2645338992588,373.2645338992588,373.2645338992588,373.2645338992588,l,1,0.545809414004907,373.8229127866216,374.82301420811564,374.82301420811564,374.82301420811564,space,0.7783406327944249,,,,,,,,,,,,,,,,,,,,,,,,,,,,,,,,,,,582,2023-05-17_10h07.11.019,eb_02psyexp,2022.2.4,119.98558530531633,
199,0,199,0,,,,,,,,,,,,,,,,,,,,,,,,,,,,,,,,,,,,,,,,,,,,,,,,,,,,,,,,,,,,,,,,,,,,,,,,,,,,,,,,,,,,,,,,,,,,,,,,,,,,,,,,,,,,582,2023-05-17_10h07.11.019,eb_02psyexp,2022.2.4,119.98558530531633,
200,0,200,0,,,,,,,,,,,,,,,,,,,,,,,,,,,,,,,,,,,,,,,,,,,,,,,,,,,,,,,,,,,375.63140290568117,375.63140290568117,375.63140290568117,375.63140290568117,375.63140290568117,375.63140290568117,s,1,1.921977495891042,377.5649124183692,378.58997678779997,,,,,,,,,,,,,,,,,,,,,,,,,,,,,,,,,,,,,,,582,2023-05-17_10h07.11.019,eb_02psyexp,2022.2.4,119.98558530531633,
201,0,201,0,,,,,,,,,,,,,,,,,,,,,,,,,,,,,,,,,,,,,,,,,,,,,,,,,,,,,,,,,,,378.58997678779997,378.58997678779997,378.58997678779997,378.58997678779997,378.58997678779997,378.58997678779997,s,1,0.7554305627709255,379.35673954326194,380.390150351217,,,,,,,,,,,,,,,,,,,,,,,,,,,,,,,,,,,,,,,582,2023-05-17_10h07.11.019,eb_02psyexp,2022.2.4,119.98558530531633,
202,0,202,0,,,,,,,,,,,,,,,,,,,,,,,,,,,,,,,,,,,,,,,,,,,,,,,,,,,,,,,,,,,380.390150351217,380.390150351217,380.390150351217,380.390150351217,380.390150351217,380.390150351217,l,1,0.6993137350073084,381.0985287858639,382.123657449265,,,,,,,,,,,,,,,,,,,,,,,,,,,,,,,,,,,,,,,582,2023-05-17_10h07.11.019,eb_02psyexp,2022.2.4,119.98558530531633,
203,0,203,0,,,,,,,,,,,,,,,,,,,,,,,,,,,,,,,,,,,,,,,,,,,,,,,,,,,,,,,,,,,382.123657449265,382.123657449265,382.123657449265,382.123657449265,382.123657449265,382.123657449265,l,1,0.6138040169607848,382.7486877096817,383.773790413863,,,,,,,,,,,,,,,,,,,,,,,,,,,,,,,,,,,,,,,582,2023-05-17_10h07.11.019,eb_02psyexp,2022.2.4,119.98558530531633,
204,0,204,0,,,,,,,,,,,,,,,,,,,,,,,,,,,,,,,,,,,,,,,,,,,,,,,,,,,,,,,,,,,383.773790413863,383.773790413863,383.773790413863,383.773790413863,383.773790413863,383.773790413863,l,1,0.5077323156874627,384.29051468346734,385.32391281379387,,,,,,,,,,,,,,,,,,,,,,,,,,,,,,,,,,,,,,,582,2023-05-17_10h07.11.019,eb_02psyexp,2022.2.4,119.98558530531633,
205,0,205,0,,,,,,,,,,,,,,,,,,,,,,,,,,,,,,,,,,,,,,,,,,,,,,,,,,,,,,,,,,,385.32391281379387,385.32391281379387,385.32391281379387,385.32391281379387,385.32391281379387,385.32391281379387,l,1,0.5896346311783418,385.9239632226527,386.957369804848,,,,,,,,,,,,,,,,,,,,,,,,,,,,,,,,,,,,,,,582,2023-05-17_10h07.11.019,eb_02psyexp,2022.2.4,119.98558530531633,
206,0,206,0,,,,,,,,,,,,,,,,,,,,,,,,,,,,,,,,,,,,,,,,,,,,,,,,,,,,,,,,,,,386.957369804848,386.957369804848,386.957369804848,386.957369804848,386.957369804848,386.957369804848,s,1,0.6922172550112009,387.66579985572025,388.68255823431537,,,,,,,,,,,,,,,,,,,,,,,,,,,,,,,,,,,,,,,582,2023-05-17_10h07.11.019,eb_02psyexp,2022.2.4,119.98558530531633,
207,0,207,0,,,,,,,,,,,,,,,,,,,,,,,,,,,,,,,,,,,,,,,,,,,,,,,,,,,,,,,,,,,388.68255823431537,388.68255823431537,388.68255823431537,388.68255823431537,388.68255823431537,388.68255823431537,s,1,0.7740908947307616,389.4659483656287,390.4827109701,,,,,,,,,,,,,,,,,,,,,,,,,,,,,,,,,,,,,,,582,2023-05-17_10h07.11.019,eb_02psyexp,2022.2.4,119.98558530531633,
208,0,208,0,,,,,,,,,,,,,,,,,,,,,,,,,,,,,,,,,,,,,,,,,,,,,,,,,,,,,,,,,,,390.4827109701,390.4827109701,390.4827109701,390.4827109701,390.4827109701,390.4827109701,l,1,0.533952466561459,391.0327225913061,392.05784189736005,,,,,,,,,,,,,,,,,,,,,,,,,,,,,,,,,,,,,,,582,2023-05-17_10h07.11.019,eb_02psyexp,2022.2.4,119.98558530531633,
209,0,209,0,,,,,,,,,,,,,,,,,,,,,,,,,,,,,,,,,,,,,,,,,,,,,,,,,,,,,,,,,,,392.05784189736005,392.05784189736005,392.05784189736005,392.05784189736005,392.05784189736005,392.05784189736005,l,1,0.5028417512075976,392.5745380949229,393.59129375685006,,,,,,,,,,,,,,,,,,,,,,,,,,,,,,,,,,,,,,,582,2023-05-17_10h07.11.019,eb_02psyexp,2022.2.4,119.98558530531633,
210,0,210,0,,,,,,,,,,,,,,,,,,,,,,,,,,,,,,,,,,,,,,,,,,,,,,,,,,,,,,,,,,,393.59129375685006,393.59129375685006,393.59129375685006,393.59129375685006,393.59129375685006,393.59129375685006,l,1,0.4414123734459281,394.04133224266116,395.0664174397243,,,,,,,,,,,,,,,,,,,,,,,,,,,,,,,,,,,,,,,582,2023-05-17_10h07.11.019,eb_02psyexp,2022.2.4,119.98558530531633,
211,0,211,0,,,,,,,,,,,,,,,,,,,,,,,,,,,,,,,,,,,,,,,,,,,,,,,,,,,,,,,,,,,395.0664174397243,395.0664174397243,395.0664174397243,395.0664174397243,395.0664174397243,395.0664174397243,l,1,0.46231755951885134,395.5414460399188,396.57486862002406,,,,,,,,,,,,,,,,,,,,,,,,,,,,,,,,,,,,,,,582,2023-05-17_10h07.11.019,eb_02psyexp,2022.2.4,119.98558530531633,
212,0,212,0,,,,,,,,,,,,,,,,,,,,,,,,,,,,,,,,,,,,,,,,,,,,,,,,,,,,,,,,,,,396.57486862002406,396.57486862002406,396.57486862002406,396.57486862002406,396.57486862002406,396.57486862002406,s,1,0.4979191906750202,397.08326063794084,398.1000196202658,,,,,,,,,,,,,,,,,,,,,,,,,,,,,,,,,,,,,,,582,2023-05-17_10h07.11.019,eb_02psyexp,2022.2.4,119.98558530531633,
213,0,213,0,,,,,,,,,,,,,,,,,,,,,,,,,,,,,,,,,,,,,,,,,,,,,,,,,,,,,,,,,,,398.1000196202658,398.1000196202658,398.1000196202658,398.1000196202658,398.1000196202658,398.1000196202658,s,1,0.5008299247128889,398.61672789184377,399.63348053523805,,,,,,,,,,,,,,,,,,,,,,,,,,,,,,,,,,,,,,,582,2023-05-17_10h07.11.019,eb_02psyexp,2022.2.4,119.98558530531633,
214,0,214,0,,,,,,,,,,,,,,,,,,,,,,,,,,,,,,,,,,,,,,,,,,,,,,,,,,,,,,,,,,,399.63348053523805,399.63348053523805,399.63348053523805,399.63348053523805,399.63348053523805,399.63348053523805,l,1,0.4473603165242821,400.09185308392625,401.11693133832887,,,,,,,,,,,,,,,,,,,,,,,,,,,,,,,,,,,,,,,582,2023-05-17_10h07.11.019,eb_02psyexp,2022.2.4,119.98558530531633,
215,0,215,0,,,,,,,,,,,,,,,,,,,,,,,,,,,,,,,,,,,,,,,,,,,,,,,,,,,,,,,,,,,401.11693133832887,401.11693133832887,401.11693133832887,401.11693133832887,401.11693133832887,401.11693133832887,l,1,0.47590108576696366,401.60865553247277,402.642078112578,,,,,,,,,,,,,,,,,,,,,,,,,,,,,,,,,,,,,,,582,2023-05-17_10h07.11.019,eb_02psyexp,2022.2.4,119.98558530531633,
216,0,216,0,,,,,,,,,,,,,,,,,,,,,,,,,,,,,,,,,,,,,,,,,,,,,,,,,,,,,,,,,,,402.642078112578,402.642078112578,402.642078112578,402.642078112578,402.642078112578,402.642078112578,s,1,0.5908100329106674,403.24214180291165,404.2589128591353,,,,,,,,,,,,,,,,,,,,,,,,,,,,,,,,,,,,,,,582,2023-05-17_10h07.11.019,eb_02psyexp,2022.2.4,119.98558530531633,
217,0,217,0,,,,,,,,,,,,,,,,,,,,,,,,,,,,,,,,,,,,,,,,,,,,,,,,,,,,,,,,,,,404.2589128591353,404.2589128591353,404.2589128591353,404.2589128591353,404.2589128591353,404.2589128591353,s,1,0.5579980941256508,404.8256125280168,405.85070436564274,,,,,,,,,,,,,,,,,,,,,,,,,,,,,,,,,,,,,,,582,2023-05-17_10h07.11.019,eb_02psyexp,2022.2.4,119.98558530531633,
218,0,218,0,,,,,,,,,,,,,,,,,,,,,,,,,,,,,,,,,,,,,,,,,,,,,,,,,,,,,,,,,,,405.85070436564274,405.85070436564274,405.85070436564274,405.85070436564274,405.85070436564274,405.85070436564274,s,1,0.5652313120663166,406.42575047316495,407.459140755469,,,,,,,,,,,,,,,,,,,,,,,,,,,,,,,,,,,,,,,582,2023-05-17_10h07.11.019,eb_02psyexp,2022.2.4,119.98558530531633,
219,0,219,0,,,,,,,,,,,,,,,,,,,,,,,,,,,,,,,,,,,,,,,,,,,,,,,,,,,,,,,,,,,407.459140755469,407.459140755469,407.459140755469,407.459140755469,407.459140755469,407.459140755469,l,1,0.7968503418378532,408.26757593778893,409.2926523811184,,,,,,,,,,,,,,,,,,,,,,,,,,,,,,,,,,,,,,,582,2023-05-17_10h07.11.019,eb_02psyexp,2022.2.4,119.98558530531633,
220,0,220,0,,,,,,,,,,,,,,,,,,,,,,,,,,,,,,,,,,,,,,,,,,,,,,,,,,,,,,,,,,,409.2926523811184,409.2926523811184,409.2926523811184,409.2926523811184,409.2926523811184,409.2926523811184,s,1,0.5073918295092881,409.809364576824,410.8344675828703,,,,,,,,,,,,,,,,,,,,,,,,,,,,,,,,,,,,,,,582,2023-05-17_10h07.11.019,eb_02psyexp,2022.2.4,119.98558530531633,
221,0,221,0,,,,,,,,,,,,,,,,,,,,,,,,,,,,,,,,,,,,,,,,,,,,,,,,,,,,,,,,,,,410.8344675828703,410.8344675828703,410.8344675828703,410.8344675828703,410.8344675828703,410.8344675828703,l,1,0.4135549912462011,411.25950267293956,412.2845911902841,,,,,,,,,,,,,,,,,,,,,,,,,,,,,,,,,,,,,,,582,2023-05-17_10h07.11.019,eb_02psyexp,2022.2.4,119.98558530531633,
222,0,222,0,,,,,,,,,,,,,,,,,,,,,,,,,,,,,,,,,,,,,,,,,,,,,,,,,,,,,,,,,,,412.2845911902841,412.2845911902841,412.2845911902841,412.2845911902841,412.2845911902841,412.2845911902841,s,1,0.9634748501703143,413.2596626530867,414.2931084756274,,,,,,,,,,,,,,,,,,,,,,,,,,,,,,,,,,,,,,,582,2023-05-17_10h07.11.019,eb_02psyexp,2022.2.4,119.98558530531633,
223,0,223,0,,,,,,,,,,,,,,,,,,,,,,,,,,,,,,,,,,,,,,,,,,,,,,,,,,,,,,,,,,,414.2931084756274,414.2931084756274,414.2931084756274,414.2931084756274,414.2931084756274,414.2931084756274,s,1,0.5710014657815918,414.87646932760254,415.90156086348,,,,,,,,,,,,,,,,,,,,,,,,,,,,,,,,,,,,,,,582,2023-05-17_10h07.11.019,eb_02psyexp,2022.2.4,119.98558530531633,
224,0,224,0,,,,,,,,,,,,,,,,,,,,,,,,,,,,,,,,,,,,,,,,,,,,,,,,,,,,,,,,,,,415.90156086348,415.90156086348,415.90156086348,415.90156086348,415.90156086348,415.90156086348,l,1,0.5705991005524993,416.48493801523,417.5183654249413,,,,,,,,,,,,,,,,,,,,,,,,,,,,,,,,,,,,,,,582,2023-05-17_10h07.11.019,eb_02psyexp,2022.2.4,119.98558530531633,
225,0,225,0,,,,,,,,,,,,,,,,,,,,,,,,,,,,,,,,,,,,,,,,,,,,,,,,,,,,,,,,,,,417.5183654249413,417.5183654249413,417.5183654249413,417.5183654249413,417.5183654249413,417.5183654249413,s,1,0.6338486303575337,418.1684223236516,419.19352472608443,,,,,,,,,,,,,,,,,,,,,,,,,,,,,,,,,,,,,,,582,2023-05-17_10h07.11.019,eb_02psyexp,2022.2.4,119.98558530531633,
226,0,226,0,,,,,,,,,,,,,,,,,,,,,,,,,,,,,,,,,,,,,,,,,,,,,,,,,,,,,,,,,,,419.19352472608443,419.19352472608443,419.19352472608443,419.19352472608443,419.19352472608443,419.19352472608443,s,1,0.5747024416923523,419.7768849742133,420.80198405636474,,,,,,,,,,,,,,,,,,,,,,,,,,,,,,,,,,,,,,,582,2023-05-17_10h07.11.019,eb_02psyexp,2022.2.4,119.98558530531633,
227,0,227,0,,,,,,,,,,,,,,,,,,,,,,,,,,,,,,,,,,,,,,,,,,,,,,,,,,,,,,,,,,,420.80198405636474,420.80198405636474,420.80198405636474,420.80198405636474,420.80198405636474,420.80198405636474,l,1,0.517261098488234,421.33538973296527,422.3604534986662,,,,,,,,,,,,,,,,,,,,,,,,,,,,,,,,,,,,,,,582,2023-05-17_10h07.11.019,eb_02psyexp,2022.2.4,119.98558530531633,
228,0,228,0,,,,,,,,,,,,,,,,,,,,,,,,,,,,,,,,,,,,,,,,,,,,,,,,,,,,,,,,,,,422.3604534986662,422.3604534986662,422.3604534986662,422.3604534986662,422.3604534986662,422.3604534986662,s,1,0.4308651505270973,422.8021552049322,423.8355814073002,,,,,,,,,,,,,,,,,,,,,,,,,,,,,,,,,,,,,,,582,2023-05-17_10h07.11.019,eb_02psyexp,2022.2.4,119.98558530531633,
229,0,229,0,,,,,,,,,,,,,,,,,,,,,,,,,,,,,,,,,,,,,,,,,,,,,,,,,,,,,,,,,,,423.8355814073002,423.8355814073002,423.8355814073002,423.8355814073002,423.8355814073002,423.8355814073002,s,1,0.45970958028919995,424.3106344573898,425.33570848591626,,,,,,,,,,,,,,,,,,,,,,,,,,,,,,,,,,,,,,,582,2023-05-17_10h07.11.019,eb_02psyexp,2022.2.4,119.98558530531633,
230,0,230,0,,,,,,,,,,,,,,,,,,,,,,,,,,,,,,,,,,,,,,,,,,,,,,,,,,,,,,,,,,,425.33570848591626,425.33570848591626,425.33570848591626,425.33570848591626,425.33570848591626,425.33570848591626,l,1,0.5196173352887854,425.8690652628429,426.9025002188282,,,,,,,,,,,,,,,,,,,,,,,,,,,,,,,,,,,,,,,582,2023-05-17_10h07.11.019,eb_02psyexp,2022.2.4,119.98558530531633,
231,0,231,0,,,,,,,,,,,,,,,,,,,,,,,,,,,,,,,,,,,,,,,,,,,,,,,,,,,,,,,,,,,426.9025002188282,426.9025002188282,426.9025002188282,426.9025002188282,426.9025002188282,426.9025002188282,s,1,0.4968554732622579,427.41090280155186,428.4359635487199,,,,,,,,,,,,,,,,,,,,,,,,,,,,,,,,,,,,,,,582,2023-05-17_10h07.11.019,eb_02psyexp,2022.2.4,119.98558530531633,
232,0,232,0,,,,,,,,,,,,,,,,,,,,,,,,,,,,,,,,,,,,,,,,,,,,,,,,,,,,,,,,,,,428.4359635487199,428.4359635487199,428.4359635487199,428.4359635487199,428.4359635487199,428.4359635487199,s,1,0.4994432283565402,428.94437548867427,429.9694452913245,,,,,,,,,,,,,,,,,,,,,,,,,,,,,,,,,,,,,,,582,2023-05-17_10h07.11.019,eb_02psyexp,2022.2.4,119.98558530531633,
233,0,233,0,,,,,,,,,,,,,,,,,,,,,,,,,,,,,,,,,,,,,,,,,,,,,,,,,,,,,,,,,,,429.9694452913245,429.9694452913245,429.9694452913245,429.9694452913245,429.9694452913245,429.9694452913245,l,1,0.5339929143665358,430.5195043028798,431.54461062932387,,,,,,,,,,,,,,,,,,,,,,,,,,,,,,,,,,,,,,,582,2023-05-17_10h07.11.019,eb_02psyexp,2022.2.4,119.98558530531633,
234,0,234,0,,,,,,,,,,,,,,,,,,,,,,,,,,,,,,,,,,,,,,,,,,,,,,,,,,,,,,,,,,,431.54461062932387,431.54461062932387,431.54461062932387,431.54461062932387,431.54461062932387,431.54461062932387,l,1,0.5908685916801915,432.1446296458598,433.1780709406594,,,,,,,,,,,,,,,,,,,,,,,,,,,,,,,,,,,,,,,582,2023-05-17_10h07.11.019,eb_02psyexp,2022.2.4,119.98558530531633,
235,0,235,0,,,,,,,,,,,,,,,,,,,,,,,,,,,,,,,,,,,,,,,,,,,,,,,,,,,,,,,,,,,433.1780709406594,433.1780709406594,433.1780709406594,433.1780709406594,433.1780709406594,433.1780709406594,l,1,0.5654187605250627,433.75309591868427,434.7781965100439,,,,,,,,,,,,,,,,,,,,,,,,,,,,,,,,,,,,,,,582,2023-05-17_10h07.11.019,eb_02psyexp,2022.2.4,119.98558530531633,
236,0,236,0,,,,,,,,,,,,,,,,,,,,,,,,,,,,,,,,,,,,,,,,,,,,,,,,,,,,,,,,,,,434.7781965100439,434.7781965100439,434.7781965100439,434.7781965100439,434.7781965100439,434.7781965100439,s,1,0.5653251871699467,435.35325801186264,436.3866893457016,,,,,,,,,,,,,,,,,,,,,,,,,,,,,,,,,,,,,,,582,2023-05-17_10h07.11.019,eb_02psyexp,2022.2.4,119.98558530531633,
237,0,237,0,,,,,,,,,,,,,,,,,,,,,,,,,,,,,,,,,,,,,,,,,,,,,,,,,,,,,,,,,,,436.3866893457016,436.3866893457016,436.3866893457016,436.3866893457016,436.3866893457016,436.3866893457016,l,1,0.31590156874153763,436.7116658769082,437.73678789951373,,,,,,,,,,,,,,,,,,,,,,,,,,,,,,,,,,,,,,,582,2023-05-17_10h07.11.019,eb_02psyexp,2022.2.4,119.98558530531633,
238,0,238,0,,,,,,,,,,,,,,,,,,,,,,,,,,,,,,,,,,,,,,,,,,,,,,,,,,,,,,,,,,,437.73678789951373,437.73678789951373,437.73678789951373,437.73678789951373,437.73678789951373,437.73678789951373,l,1,0.453786690835841,438.2035044719232,439.2369406352518,,,,,,,,,,,,,,,,,,,,,,,,,,,,,,,,,,,,,,,582,2023-05-17_10h07.11.019,eb_02psyexp,2022.2.4,119.98558530531633,
239,0,239,0,,,,,,,,,,,,,,,,,,,,,,,,,,,,,,,,,,,,,,,,,,,,,,,,,,,,,,,,,,,439.2369406352518,439.2369406352518,439.2369406352518,439.2369406352518,439.2369406352518,439.2369406352518,l,1,0.3776666030753404,439.6286261926871,440.66205330064986,,,,,,,,,,,,,,,,,,,,,,,,,,,,,,,,,,,,,,,582,2023-05-17_10h07.11.019,eb_02psyexp,2022.2.4,119.98558530531633,
240,0,240,0,,,,,,,,,,,,,,,,,,,,,,,,,,,,,,,,,,,,,,,,,,,,,,,,,,,,,,,,,,,440.66205330064986,440.66205330064986,440.66205330064986,440.66205330064986,440.66205330064986,440.66205330064986,s,1,0.34460443118587136,441.0204164918978,442.04550621658564,,,,,,,,,,,,,,,,,,,,,,,,,,,,,,,,,,,,,,,582,2023-05-17_10h07.11.019,eb_02psyexp,2022.2.4,119.98558530531633,
241,0,241,0,,,,,,,,,,,,,,,,,,,,,,,,,,,,,,,,,,,,,,,,,,,,,,,,,,,,,,,,,,,442.04550621658564,442.04550621658564,442.04550621658564,442.04550621658564,442.04550621658564,442.04550621658564,l,1,0.33718074625357985,442.39553625066765,443.42061329772696,,,,,,,,,,,,,,,,,,,,,,,,,,,,,,,,,,,,,,,582,2023-05-17_10h07.11.019,eb_02psyexp,2022.2.4,119.98558530531633,
242,0,242,0,,,,,,,,,,,,,,,,,,,,,,,,,,,,,,,,,,,,,,,,,,,,,,,,,,,,,,,,,,,443.42061329772696,443.42061329772696,443.42061329772696,443.42061329772696,443.42061329772696,443.42061329772696,s,1,0.5781097179278731,444.0123302474385,445.037421481451,,,,,,,,,,,,,,,,,,,,,,,,,,,,,,,,,,,,,,,582,2023-05-17_10h07.11.019,eb_02psyexp,2022.2.4,119.98558530531633,
243,0,243,0,,,,,,,,,,,,,,,,,,,,,,,,,,,,,,,,,,,,,,,,,,,,,,,,,,,,,,,,,,,445.037421481451,445.037421481451,445.037421481451,445.037421481451,445.037421481451,445.037421481451,l,1,0.4493419579230249,445.49581636686344,446.5209139396902,,,,,,,,,,,,,,,,,,,,,,,,,,,,,,,,,,,,,,,582,2023-05-17_10h07.11.019,eb_02psyexp,2022.2.4,119.98558530531633,
244,0,244,0,,,,,,,,,,,,,,,,,,,,,,,,,,,,,,,,,,,,,,,,,,,,,,,,,,,,,,,,,,,446.5209139396902,446.5209139396902,446.5209139396902,446.5209139396902,446.5209139396902,446.5209139396902,s,0,0.45384917373303324,446.9876027420396,448.0126982019283,,,,,,,,,,,,,,,,,,,,,,,,,,,,,,,,,,,,,,,582,2023-05-17_10h07.11.019,eb_02psyexp,2022.2.4,119.98558530531633,
245,0,245,0,,,,,,,,,,,,,,,,,,,,,,,,,,,,,,,,,,,,,,,,,,,,,,,,,,,,,,,,,,,448.0126982019283,448.0126982019283,448.0126982019283,448.0126982019283,448.0126982019283,448.0126982019283,l,1,0.40207294072024524,448.4293919847114,449.4544711447088,,,,,,,,,,,,,,,,,,,,,,,,,,,,,,,,,,,,,,,582,2023-05-17_10h07.11.019,eb_02psyexp,2022.2.4,119.98558530531633,
246,0,246,0,,,,,,,,,,,,,,,,,,,,,,,,,,,,,,,,,,,,,,,,,,,,,,,,,,,,,,,,,,,449.4544711447088,449.4544711447088,449.4544711447088,449.4544711447088,449.4544711447088,449.4544711447088,s,1,0.5043292652117088,449.9711809256114,450.99627155589405,,,,,,,,,,,,,,,,,,,,,,,,,,,,,,,,,,,,,,,582,2023-05-17_10h07.11.019,eb_02psyexp,2022.2.4,119.98558530531633,
247,0,247,0,,,,,,,,,,,,,,,,,,,,,,,,,,,,,,,,,,,,,,,,,,,,,,,,,,,,,,,,,,,450.99627155589405,450.99627155589405,450.99627155589405,450.99627155589405,450.99627155589405,450.99627155589405,l,1,0.466630082228221,451.47132309665903,452.49640135106165,,,,,,,,,,,,,,,,,,,,,,,,,,,,,,,,,,,,,,,582,2023-05-17_10h07.11.019,eb_02psyexp,2022.2.4,119.98558530531633,
248,0,248,0,,,,,,,,,,,,,,,,,,,,,,,,,,,,,,,,,,,,,,,,,,,,,,,,,,,,,,,,,,,452.49640135106165,452.49640135106165,452.49640135106165,452.49640135106165,452.49640135106165,452.49640135106165,l,1,0.4454731538426131,452.9547720886767,453.9881964798551,,,,,,,,,,,,,,,,,,,,,,,,,,,,,,,,,,,,,,,582,2023-05-17_10h07.11.019,eb_02psyexp,2022.2.4,119.98558530531633,
249,0,249,0,,,,,,,,,,,,,,,,,,,,,,,,,,,,,,,,,,,,,,,,,,,,,,,,,,,,,,,,,,,453.9881964798551,453.9881964798551,453.9881964798551,453.9881964798551,453.9881964798551,453.9881964798551,l,1,0.3457484404789284,454.3465581618948,455.3716493959073,,,,,,,,,,,,,,,,,,,,,,,,,,,,,,,,,,,,,,,582,2023-05-17_10h07.11.019,eb_02psyexp,2022.2.4,119.98558530531633,
250,0,250,0,,,,,,,,,,,,,,,,,,,,,,,,,,,,,,,,,,,,,,,,,,,,,,,,,,,,,,,,,,,455.3716493959073,455.3716493959073,455.3716493959073,455.3716493959073,455.3716493959073,455.3716493959073,l,0,0.3142773169092834,455.6966781470692,456.721778134699,,,,,,,,,,,,,,,,,,,,,,,,,,,,,,,,,,,,,,,582,2023-05-17_10h07.11.019,eb_02psyexp,2022.2.4,119.98558530531633,
251,0,251,0,,,,,,,,,,,,,,,,,,,,,,,,,,,,,,,,,,,,,,,,,,,,,,,,,,,,,,,,,,,456.721778134699,456.721778134699,456.721778134699,456.721778134699,456.721778134699,456.721778134699,l,1,0.33222407661378384,457.06346173002385,458.0968864231836,,,,,,,,,,,,,,,,,,,,,,,,,,,,,,,,,,,,,,,582,2023-05-17_10h07.11.019,eb_02psyexp,2022.2.4,119.98558530531633,
252,0,252,0,,,,,,,,,,,,,,,,,,,,,,,,,,,,,,,,,,,,,,,,,,,,,,,,,,,,,,,,,,,458.0968864231836,458.0968864231836,458.0968864231836,458.0968864231836,458.0968864231836,458.0968864231836,l,1,0.33311483438592404,458.4385811869288,459.4636857022997,,,,,,,,,,,,,,,,,,,,,,,,,,,,,,,,,,,,,,,582,2023-05-17_10h07.11.019,eb_02psyexp,2022.2.4,119.98558530531633,
253,0,253,0,,,,,,,,,,,,,,,,,,,,,,,,,,,,,,,,,,,,,,,,,,,,,,,,,,,,,,,,,,,459.4636857022997,459.4636857022997,459.4636857022997,459.4636857022997,459.4636857022997,459.4636857022997,s,1,0.41434462927281857,459.88870841648895,460.92213582620025,,,,,,,,,,,,,,,,,,,,,,,,,,,,,,,,,,,,,,,582,2023-05-17_10h07.11.019,eb_02psyexp,2022.2.4,119.98558530531633,
254,0,254,0,,,,,,,,,,,,,,,,,,,,,,,,,,,,,,,,,,,,,,,,,,,,,,,,,,,,,,,,,,,460.92213582620025,460.92213582620025,460.92213582620025,460.92213582620025,460.92213582620025,460.92213582620025,l,1,0.4039232777431607,461.33883504231926,462.4389355581952,,,,,,,,,,,,,,,,,,,,,,,,,,,,,,,,,,,,,,,582,2023-05-17_10h07.11.019,eb_02psyexp,2022.2.4,119.98558530531633,
255,0,255,0,,,,,,,,,,,,,,,,,,,,,,,,,,,,,,,,,,,,,,,,,,,,,,,,,,,,,,,,,,,462.4389355581952,462.4389355581952,462.4389355581952,462.4389355581952,462.4389355581952,462.4389355581952,l,1,0.4871338085504249,462.93897208198905,463.96409078431316,,,,,,,,,,,,,,,,,,,,,,,,,,,,,,,,,,,,,,,582,2023-05-17_10h07.11.019,eb_02psyexp,2022.2.4,119.98558530531633,
256,0,256,0,,,,,,,,,,,,,,,,,,,,,,,,,,,,,,,,,,,,,,,,,,,,,,,,,,,,,,,,,,,463.96409078431316,463.96409078431316,463.96409078431316,463.96409078431316,463.96409078431316,463.96409078431316,l,1,0.4819918036228046,464.4557582307607,465.480858520139,,,,,,,,,,,,,,,,,,,,,,,,,,,,,,,,,,,,,,,582,2023-05-17_10h07.11.019,eb_02psyexp,2022.2.4,119.98558530531633,
257,0,257,0,,,,,,,,,,,,,,,,,,,,,,,,,,,,,,,,,,,,,,,,,,,,,,,,,,,,,,,,,,,465.480858520139,465.480858520139,465.480858520139,465.480858520139,465.480858520139,465.480858520139,s,1,0.4372815638780594,465.93091089103837,466.95598854182754,,,,,,,,,,,,,,,,,,,,,,,,,,,,,,,,,,,,,,,582,2023-05-17_10h07.11.019,eb_02psyexp,2022.2.4,119.98558530531633,
258,0,258,0,,,,,,,,,,,,,,,,,,,,,,,,,,,,,,,,,,,,,,,,,,,,,,,,,,,,,,,,,,,466.95598854182754,466.95598854182754,466.95598854182754,466.95598854182754,466.95598854182754,466.95598854182754,l,1,0.3852484570816159,467.35602083976846,468.3811238458147,,,,,,,,,,,,,,,,,,,,,,,,,,,,,,,,,,,,,,,582,2023-05-17_10h07.11.019,eb_02psyexp,2022.2.4,119.98558530531633,
259,0,259,0,,,,,,,,,,,,,,,,,,,,,,,,,,,,,,,,,,,,,,,,,,,,,,,,,,,,,,,,,,,468.3811238458147,468.3811238458147,468.3811238458147,468.3811238458147,468.3811238458147,468.3811238458147,l,1,0.5120514791924506,468.9061378063634,469.9395784974331,,,,,,,,,,,,,,,,,,,,,,,,,,,,,,,,,,,,,,,582,2023-05-17_10h07.11.019,eb_02psyexp,2022.2.4,119.98558530531633,
260,0,260,0,,,,,,,,,,,,,,,,,,,,,,,,,,,,,,,,,,,,,,,,,,,,,,,,,,,,,,,,,,,469.9395784974331,469.9395784974331,469.9395784974331,469.9395784974331,469.9395784974331,469.9395784974331,l,1,0.4496770108817145,470.3979510461213,471.4230567688355,,,,,,,,,,,,,,,,,,,,,,,,,,,,,,,,,,,,,,,582,2023-05-17_10h07.11.019,eb_02psyexp,2022.2.4,119.98558530531633,
261,0,261,0,,,,,,,,,,,,,,,,,,,,,,,,,,,,,,,,,,,,,,,,,,,,,,,,,,,,,,,,,,,471.4230567688355,471.4230567688355,471.4230567688355,471.4230567688355,471.4230567688355,471.4230567688355,l,1,0.3982065513264388,471.8314300720813,472.8564998747315,,,,,,,,,,,,,,,,,,,,,,,,,,,,,,,,,,,,,,,582,2023-05-17_10h07.11.019,eb_02psyexp,2022.2.4,119.98558530531633,
262,0,262,0,,,,,,,,,,,,,,,,,,,,,,,,,,,,,,,,,,,,,,,,,,,,,,,,,,,,,,,,,,,472.8564998747315,472.8564998747315,472.8564998747315,472.8564998747315,472.8564998747315,472.8564998747315,l,1,0.4207882091868669,473.2898687256966,474.3233226982411,,,,,,,,,,,,,,,,,,,,,,,,,,,,,,,,,,,,,,,582,2023-05-17_10h07.11.019,eb_02psyexp,2022.2.4,119.98558530531633,
263,0,263,0,,,,,,,,,,,,,,,,,,,,,,,,,,,,,,,,,,,,,,,,,,,,,,,,,,,,,,,,,,,474.3233226982411,474.3233226982411,474.3233226982411,474.3233226982411,474.3233226982411,474.3233226982411,s,1,0.6100227491697297,474.94835839187726,475.9734420796158,,,,,,,,,,,,,,,,,,,,,,,,,,,,,,,,,,,,,,,582,2023-05-17_10h07.11.019,eb_02psyexp,2022.2.4,119.98558530531633,
264,0,264,0,,,,,,,,,,,,,,,,,,,,,,,,,,,,,,,,,,,,,,,,,,,,,,,,,,,,,,,,,,,475.9734420796158,475.9734420796158,475.9734420796158,475.9734420796158,475.9734420796158,475.9734420796158,s,1,0.5999645224073902,476.58183470123913,477.61525909253396,,,,,,,,,,,,,,,,,,,,,,,,,,,,,,,,,,,,,,,582,2023-05-17_10h07.11.019,eb_02psyexp,2022.2.4,119.98558530531633,
265,0,265,0,,,,,,,,,,,,,,,,,,,,,,,,,,,,,,,,,,,,,,,,,,,,,,,,,,,,,,,,,,,477.61525909253396,477.61525909253396,477.61525909253396,477.61525909253396,477.61525909253396,477.61525909253396,l,1,0.4621270925272256,478.0902937296778,479.1153858692851,,,,,,,,,,,,,,,,,,,,,,,,,,,,,,,,,,,,,,,582,2023-05-17_10h07.11.019,eb_02psyexp,2022.2.4,119.98558530531633,
266,0,266,0,,,,,,,,,,,,,,,,,,,,,,,,,,,,,,,,,,,,,,,,,,,,,,,,,,,,,,,,,,,479.1153858692851,479.1153858692851,479.1153858692851,479.1153858692851,479.1153858692851,479.1153858692851,l,1,0.3780227852985263,479.50707474700175,480.540514834458,,,,,,,,,,,,,,,,,,,,,,,,,,,,,,,,,,,,,,,582,2023-05-17_10h07.11.019,eb_02psyexp,2022.2.4,119.98558530531633,
267,0,267,0,,,,,,,,,,,,,,,,,,,,,,,,,,,,,,,,,,,,,,,,,,,,,,,,,,,,,,,,,,,480.540514834458,480.540514834458,480.540514834458,480.540514834458,480.540514834458,480.540514834458,l,1,0.4649427440017462,481.01558358059265,482.0406455352204,,,,,,,,,,,,,,,,,,,,,,,,,,,,,,,,,,,,,,,582,2023-05-17_10h07.11.019,eb_02psyexp,2022.2.4,119.98558530531633,
268,0,268,0,,,,,,,,,,,,,,,,,,,,,,,,,,,,,,,,,,,,,,,,,,,,,,,,,,,,,,,,,,,482.0406455352204,482.0406455352204,482.0406455352204,482.0406455352204,482.0406455352204,482.0406455352204,s,1,0.4839185085147619,482.54067149432376,483.55744949309155,,,,,,,,,,,,,,,,,,,,,,,,,,,,,,,,,,,,,,,582,2023-05-17_10h07.11.019,eb_02psyexp,2022.2.4,119.98558530531633,
269,0,269,0,,,,,,,,,,,,,,,,,,,,,,,,,,,,,,,,,,,,,,,,,,,,,,,,,,,,,,,,,,,483.55744949309155,483.55744949309155,483.55744949309155,483.55744949309155,483.55744949309155,483.55744949309155,s,1,0.5510661219013855,484.12415700999554,485.14925035694614,,,,,,,,,,,,,,,,,,,,,,,,,,,,,,,,,,,,,,,582,2023-05-17_10h07.11.019,eb_02psyexp,2022.2.4,119.98558530531633,
270,0,270,0,,,,,,,,,,,,,,,,,,,,,,,,,,,,,,,,,,,,,,,,,,,,,,,,,,,,,,,,,,,485.14925035694614,485.14925035694614,485.14925035694614,485.14925035694614,485.14925035694614,485.14925035694614,s,1,0.48730103322304785,485.6492880881997,486.6743663426023,,,,,,,,,,,,,,,,,,,,,,,,,,,,,,,,,,,,,,,582,2023-05-17_10h07.11.019,eb_02psyexp,2022.2.4,119.98558530531633,
271,0,271,0,,,,,,,,,,,,,,,,,,,,,,,,,,,,,,,,,,,,,,,,,,,,,,,,,,,,,,,,,,,486.6743663426023,486.6743663426023,486.6743663426023,486.6743663426023,486.6743663426023,486.6743663426023,l,1,0.34620785526931286,487.03271776181646,488.066151510342,,,,,,,,,,,,,,,,,,,,,,,,,,,,,,,,,,,,,,,582,2023-05-17_10h07.11.019,eb_02psyexp,2022.2.4,119.98558530531633,
272,0,272,0,,,,,,,,,,,,,,,,,,,,,,,,,,,,,,,,,,,,,,,,,,,,,,,,,,,,,,,,,,,488.066151510342,488.066151510342,488.066151510342,488.066151510342,488.066151510342,488.066151510342,l,1,0.362454900983721,488.44117829948664,489.4662876444636,,,,,,,,,,,,,,,,,,,,,,,,,,,,,,,,,,,,,,,582,2023-05-17_10h07.11.019,eb_02psyexp,2022.2.4,119.98558530531633,
