trials.thisRepN,trials.thisTrialN,trials.thisN,trials.thisIndex,image_loop.thisRepN,image_loop.thisTrialN,image_loop.thisN,image_loop.thisIndex,break_loop.thisRepN,break_loop.thisTrialN,break_loop.thisN,break_loop.thisIndex,test_trials.thisRepN,test_trials.thisTrialN,test_trials.thisN,test_trials.thisIndex,distance matrix,tools,welcome_text.started,instructions_0_keypress.started,instructions_0_keypress.keys,instructions_0_keypress.rt,consent_image_0.started,consent0_key_resp.started,consent0_text.started,consent0_key_resp.keys,consent0_key_resp.rt,consent_image_1.started,consent1_key_resp.started,consent1_text.started,consent1_key_resp.keys,consent1_key_resp.rt,consent2_text.started,consent_image_2.started,consent2_key_resp.started,consent2_key_resp.keys,consent2_key_resp.rt,agree_button.started,disagree_button.started,consent_image_3.started,agree_button.numClicks,agree_button.timesOn,agree_button.timesOff,disagree_button.numClicks,disagree_button.timesOn,disagree_button.timesOff,instructions_text1.started,instructions1_key_resp.started,instr1_cnt_text.started,instructions1_key_resp.keys,instructions1_key_resp.rt,instructions_text2.started,instr2_cnt_text.started,instructions2_key_resp.started,instructions2_key_resp.keys,instructions2_key_resp.rt,instructions_text3.started,instructions3_key_resp.started,instr3_cnt_text.started,instructions3_key_resp.keys,instructions3_key_resp.rt,text_countdown.started,image.started,small_large_keyresp.started,task_question_text.started,smalleroption_text.started,largeroption_text.started,accuracy_score_text.started,small_large_keyresp.keys,small_large_keyresp.corr,small_large_keyresp.rt,fb_2.started,fb_2.stopped,break_text.started,break_key_resp.started,break_key_resp.keys,break_key_resp.rt,reveal_seq_text.started,start_test_text.started,continue_to_test.started,continue_to_test.keys,continue_to_test.rt,test_structure_info.started,start_test_text_2.started,continue_to_test_2.started,continue_to_test_2.keys,continue_to_test_2.rt,test_cntdown_text.started,test_cntdown_text.stopped,parent index,left child index,right child index,left distance,right distance,parent_image.started,top_image_text.started,left_child_image.started,right_child_image.started,path_resp.started,child_choice_text.started,left_choice_text.started,right_choice_text.started,path_resp.keys,path_resp.rt,graph.started,debrief_text.started,debriefing_title.started,demo_scr_adv.started,demo_scr_adv_keypress.started,demo_scr_adv_keypress.keys,demo_scr_adv_keypress.rt,text_countdown_2.started,participant,date,expName,psychopyVersion,frameRate,
,,,,,,,,,,,,,,,,"[[0. 1. 1. 2. 2. 3. 4. 5. 5. 6. 6. 7.]
 [1. 0. 2. 1. 1. 2. 3. 4. 4. 5. 5. 6.]
 [1. 2. 0. 1. 1. 2. 3. 4. 4. 5. 5. 6.]
 [2. 1. 1. 0. 1. 1. 2. 3. 3. 4. 4. 5.]
 [2. 1. 1. 1. 0. 1. 2. 3. 3. 4. 4. 5.]
 [3. 2. 2. 1. 1. 0. 1. 2. 2. 3. 3. 4.]
 [4. 3. 3. 2. 2. 1. 0. 1. 1. 2. 2. 3.]
 [5. 4. 4. 3. 3. 2. 1. 0. 1. 1. 1. 2.]
 [5. 4. 4. 3. 3. 2. 1. 1. 0. 1. 1. 2.]
 [6. 5. 5. 4. 4. 3. 2. 1. 1. 0. 2. 1.]
 [6. 5. 5. 4. 4. 3. 2. 1. 1. 2. 0. 1.]
 [7. 6. 6. 5. 5. 4. 3. 2. 2. 1. 1. 0.]]",[ 6  4  9  0  7  3 11  2  8  5  1 10],10.264691553587909,10.264691553587909,return,9.660273529356346,,,,,,,,,,,,,,,,,,,,,,,,,,,,,,,,,,,,,,,,,,,,,,,,,,,,,,,,,,,,,,,,,,,,,,,,,,,,,,,,,,,,,,,,,,,667655,2023-05-16_14h07.45.102,eb_02psyexp,2022.2.4,60.01344115347131,
,,,,,,,,,,,,,,,,,,,,,,19.947254689017427,19.947254689017427,19.947254689017427,space,5.433749679665198,,,,,,,,,,,,,,,,,,,,,,,,,,,,,,,,,,,,,,,,,,,,,,,,,,,,,,,,,,,,,,,,,,,,,,,,,,,,,,,,,,,,,,667655,2023-05-16_14h07.45.102,eb_02psyexp,2022.2.4,60.01344115347131,
,,,,,,,,,,,,,,,,,,,,,,,,,,,25.41352410746913,25.41352410746913,25.41352410746913,space,1.5354581830615643,,,,,,,,,,,,,,,,,,,,,,,,,,,,,,,,,,,,,,,,,,,,,,,,,,,,,,,,,,,,,,,,,,,,,,,,,,,,,,,,,667655,2023-05-16_14h07.45.102,eb_02psyexp,2022.2.4,60.01344115347131,
,,,,,,,,,,,,,,,,,,,,,,,,,,,,,,,,26.980076113250107,26.980076113250107,26.980076113250107,space,0.42490260100748856,,,,,,,,,,,,,,,,,,,,,,,,,,,,,,,,,,,,,,,,,,,,,,,,,,,,,,,,,,,,,,,,,,,,,,,,,,,,667655,2023-05-16_14h07.45.102,eb_02psyexp,2022.2.4,60.01344115347131,
,,,,,,,,,,,,,,,,,,,,,,,,,,,,,,,,,,,,,27.430038352438714,27.430038352438714,27.430038352438714,1,[8.315576291643083],[8.31558051747561],0,,,35.7457791496272,37.72896758727438,37.72896758727438,space,3.2991216523805633,,,,,,,,,,,,,,,,,,,,,,,,,,,,,,,,,,,,,,,,,,,,,,,,,,,,,,,,,,,,,,667655,2023-05-16_14h07.45.102,eb_02psyexp,2022.2.4,60.01344115347131,
,,,,,,,,,,,,,,,,,,,,,,,,,,,,,,,,,,,,,,,,,,,,,,,,,,,41.04569934180472,44.02881986431021,44.02881986431021,space,8.238358431117376,,,,,,,,,,,,,,,,,,,,,,,,,,,,,,,,,,,,,,,,,,,,,,,,,,,,,,,,,667655,2023-05-16_14h07.45.102,eb_02psyexp,2022.2.4,60.01344115347131,
,,,,,,,,,,,,,,,,,,,,,,,,,,,,,,,,,,,,,,,,,,,,,,,,,,,,,,,,52.29488571845286,55.27799718560709,55.27799718560709,space,9.252225796779385,,,,,,,,,,,,,,,,,,,,,,,,,,,,,,,,,,,,,,,,,,,,,,,,,,,,667655,2023-05-16_14h07.45.102,eb_02psyexp,2022.2.4,60.01344115347131,
0,0,0,0,,,,,,,,,,,,,,,,,,,,,,,,,,,,,,,,,,,,,,,,,,,,,,,,,,,,,,,,,,64.57732032824424,69.6102863362612,69.6102863362612,69.6102863362612,69.6102863362612,69.6102863362612,69.6102863362612,s,1,1.735939142978168,71.3768423867732,72.39342605612183,,,,,,,,,,,,,,,,,,,,,,,,,,,,,,,,,,,,,,,,667655,2023-05-16_14h07.45.102,eb_02psyexp,2022.2.4,60.01344115347131,
1,0,1,0,,,,,,,,,,,,,,,,,,,,,,,,,,,,,,,,,,,,,,,,,,,,,,,,,,,,,,,,,,,72.39342605612183,72.39342605612183,72.39342605612183,72.39342605612183,72.39342605612183,72.39342605612183,s,1,1.2728134408243932,73.69333417447342,74.70993203052785,,,,,,,,,,,,,,,,,,,,,,,,,,,,,,,,,,,,,,,,667655,2023-05-16_14h07.45.102,eb_02psyexp,2022.2.4,60.01344115347131,
2,0,2,0,,,,,,,,,,,,,,,,,,,,,,,,,,,,,,,,,,,,,,,,,,,,,,,,,,,,,,,,,,,74.70993203052785,74.70993203052785,74.70993203052785,74.70993203052785,74.70993203052785,74.70993203052785,s,1,1.1003714720282005,75.84318153143977,76.85971841478022,,,,,,,,,,,,,,,,,,,,,,,,,,,,,,,,,,,,,,,,667655,2023-05-16_14h07.45.102,eb_02psyexp,2022.2.4,60.01344115347131,
3,0,3,0,,,,,,,,,,,,,,,,,,,,,,,,,,,,,,,,,,,,,,,,,,,,,,,,,,,,,,,,,,,76.85971841478022,76.85971841478022,76.85971841478022,76.85971841478022,76.85971841478022,76.85971841478022,l,1,0.8225520731793949,77.70971228733833,78.72599531899323,,,,,,,,,,,,,,,,,,,,,,,,,,,,,,,,,,,,,,,,667655,2023-05-16_14h07.45.102,eb_02psyexp,2022.2.4,60.01344115347131,
4,0,4,0,,,,,,,,,,,,,,,,,,,,,,,,,,,,,,,,,,,,,,,,,,,,,,,,,,,,,,,,,,,78.72599531899323,78.72599531899323,78.72599531899323,78.72599531899323,78.72599531899323,78.72599531899323,l,1,0.700305730177206,79.44292079767911,80.45951986110595,,,,,,,,,,,,,,,,,,,,,,,,,,,,,,,,,,,,,,,,667655,2023-05-16_14h07.45.102,eb_02psyexp,2022.2.4,60.01344115347131,
5,0,5,0,,,,,,,,,,,,,,,,,,,,,,,,,,,,,,,,,,,,,,,,,,,,,,,,,,,,,,,,,,,80.45951986110595,80.45951986110595,80.45951986110595,80.45951986110595,80.45951986110595,80.45951986110595,s,1,0.7577996676263865,81.24276945255406,82.25936761045887,,,,,,,,,,,,,,,,,,,,,,,,,,,,,,,,,,,,,,,,667655,2023-05-16_14h07.45.102,eb_02psyexp,2022.2.4,60.01344115347131,
6,0,6,0,,,,,,,,,,,,,,,,,,,,,,,,,,,,,,,,,,,,,,,,,,,,,,,,,,,,,,,,,,,82.25936761045887,82.25936761045887,82.25936761045887,82.25936761045887,82.25936761045887,82.25936761045887,s,1,0.5899590249027824,82.87600265382207,83.8926044338732,,,,,,,,,,,,,,,,,,,,,,,,,,,,,,,,,,,,,,,,667655,2023-05-16_14h07.45.102,eb_02psyexp,2022.2.4,60.01344115347131,
7,0,7,0,,,,,,,,,,,,,,,,,,,,,,,,,,,,,,,,,,,,,,,,,,,,,,,,,,,,,,,,,,,83.8926044338732,83.8926044338732,83.8926044338732,83.8926044338732,83.8926044338732,83.8926044338732,l,1,0.548726386288763,84.45921318652108,85.47580017616565,,,,,,,,,,,,,,,,,,,,,,,,,,,,,,,,,,,,,,,,667655,2023-05-16_14h07.45.102,eb_02psyexp,2022.2.4,60.01344115347131,
8,0,8,0,,,,,,,,,,,,,,,,,,,,,,,,,,,,,,,,,,,,,,,,,,,,,,,,,,,,,,,,,,,85.47580017616565,85.47580017616565,85.47580017616565,85.47580017616565,85.47580017616565,85.47580017616565,l,1,1.077522706676973,86.5757579782221,87.60898991173599,,,,,,,,,,,,,,,,,,,,,,,,,,,,,,,,,,,,,,,,667655,2023-05-16_14h07.45.102,eb_02psyexp,2022.2.4,60.01344115347131,
9,0,9,0,,,,,,,,,,,,,,,,,,,,,,,,,,,,,,,,,,,,,,,,,,,,,,,,,,,,,,,,,,,87.60898991173599,87.60898991173599,87.60898991173599,87.60898991173599,87.60898991173599,87.60898991173599,s,1,1.1843704240309307,88.82558154978324,89.8588255571085,,,,,,,,,,,,,,,,,,,,,,,,,,,,,,,,,,,,,,,,667655,2023-05-16_14h07.45.102,eb_02psyexp,2022.2.4,60.01344115347131,
10,0,10,0,,,,,,,,,,,,,,,,,,,,,,,,,,,,,,,,,,,,,,,,,,,,,,,,,,,,,,,,,,,89.8588255571085,89.8588255571085,89.8588255571085,89.8588255571085,89.8588255571085,89.8588255571085,s,1,0.5985392725269776,90.4754606004717,91.49204366611957,,,,,,,,,,,,,,,,,,,,,,,,,,,,,,,,,,,,,,,,667655,2023-05-16_14h07.45.102,eb_02psyexp,2022.2.4,60.01344115347131,
11,0,11,0,,,,,,,,,,,,,,,,,,,,,,,,,,,,,,,,,,,,,,,,,,,,,,,,,,,,,,,,,,,91.49204366611957,91.49204366611957,91.49204366611957,91.49204366611957,91.49204366611957,91.49204366611957,l,1,0.6773117773409467,92.19199518980167,93.22526968347665,,,,,,,,,,,,,,,,,,,,,,,,,,,,,,,,,,,,,,,,667655,2023-05-16_14h07.45.102,eb_02psyexp,2022.2.4,60.01344115347131,
12,0,12,0,,,,,,,,,,,,,,,,,,,,,,,,,,,,,,,,,,,,,,,,,,,,,,,,,,,,,,,,,,,93.22526968347665,93.22526968347665,93.22526968347665,93.22526968347665,93.22526968347665,93.22526968347665,l,1,0.6561174247472081,93.90855000275769,94.9251572159992,,,,,,,,,,,,,,,,,,,,,,,,,,,,,,,,,,,,,,,,667655,2023-05-16_14h07.45.102,eb_02psyexp,2022.2.4,60.01344115347131,
13,0,13,0,,,,,,,,,,,,,,,,,,,,,,,,,,,,,,,,,,,,,,,,,,,,,,,,,,,,,,,,,,,94.9251572159992,94.9251572159992,94.9251572159992,94.9251572159992,94.9251572159992,94.9251572159992,l,1,0.49928778791218065,95.44177982334804,96.47501568085863,,,,,,,,,,,,,,,,,,,,,,,,,,,,,,,,,,,,,,,,667655,2023-05-16_14h07.45.102,eb_02psyexp,2022.2.4,60.01344115347131,
14,0,14,0,,,,,,,,,,,,,,,,,,,,,,,,,,,,,,,,,,,,,,,,,,,,,,,,,,,,,,,,,,,96.47501568085863,96.47501568085863,96.47501568085863,96.47501568085863,96.47501568085863,96.47501568085863,s,1,0.5253702193731442,97.0249852246925,98.04161115233728,,,,,,,,,,,,,,,,,,,,,,,,,,,,,,,,,,,,,,,,667655,2023-05-16_14h07.45.102,eb_02psyexp,2022.2.4,60.01344115347131,
15,0,15,0,,,,,,,,,,,,,,,,,,,,,,,,,,,,,,,,,,,,,,,,,,,,,,,,,,,,,,,,,,,98.04161115233728,98.04161115233728,98.04161115233728,98.04161115233728,98.04161115233728,98.04161115233728,l,1,0.5027807389269583,98.57488745707087,99.60814534926612,,,,,,,,,,,,,,,,,,,,,,,,,,,,,,,,,,,,,,,,667655,2023-05-16_14h07.45.102,eb_02psyexp,2022.2.4,60.01344115347131,
16,0,16,0,,,,,,,,,,,,,,,,,,,,,,,,,,,,,,,,,,,,,,,,,,,,,,,,,,,,,,,,,,,99.60814534926612,99.60814534926612,99.60814534926612,99.60814534926612,99.60814534926612,99.60814534926612,s,1,0.6482791122834897,100.27475838812825,101.29138552315999,,,,,,,,,,,,,,,,,,,,,,,,,,,,,,,,,,,,,,,,667655,2023-05-16_14h07.45.102,eb_02psyexp,2022.2.4,60.01344115347131,
17,0,17,0,,,,,,,,,,,,,,,,,,,,,,,,,,,,,,,,,,,,,,,,,,,,,,,,,,,,,,,,,,,101.29138552315999,101.29138552315999,101.29138552315999,101.29138552315999,101.29138552315999,101.29138552315999,l,1,0.5010384892375441,101.824649150396,102.85788681897975,,,,,,,,,,,,,,,,,,,,,,,,,,,,,,,,,,,,,,,,667655,2023-05-16_14h07.45.102,eb_02psyexp,2022.2.4,60.01344115347131,
18,0,18,0,,,,,,,,,,,,,,,,,,,,,,,,,,,,,,,,,,,,,,,,,,,,,,,,,,,,,,,,,,,102.85788681897975,102.85788681897975,102.85788681897975,102.85788681897975,102.85788681897975,102.85788681897975,s,1,0.45453865434683394,103.34120595552668,104.35780592450465,,,,,,,,,,,,,,,,,,,,,,,,,,,,,,,,,,,,,,,,667655,2023-05-16_14h07.45.102,eb_02psyexp,2022.2.4,60.01344115347131,
19,0,19,0,,,,,,,,,,,,,,,,,,,,,,,,,,,,,,,,,,,,,,,,,,,,,,,,,,,,,,,,,,,104.35780592450465,104.35780592450465,104.35780592450465,104.35780592450465,104.35780592450465,104.35780592450465,l,1,0.6186243445408763,105.00775470139342,106.02437127183657,,,,,,,,,,,,,,,,,,,,,,,,,,,,,,,,,,,,,,,,667655,2023-05-16_14h07.45.102,eb_02psyexp,2022.2.4,60.01344115347131,
20,0,20,0,,,,,,,,,,,,,,,,,,,,,,,,,,,,,,,,,,,,,,,,,,,,,,,,,,,,,,,,,,,106.02437127183657,106.02437127183657,106.02437127183657,106.02437127183657,106.02437127183657,106.02437127183657,s,1,0.48009014037961606,106.52431331758271,107.54091932346637,,,,,,,,,,,,,,,,,,,,,,,,,,,,,,,,,,,,,,,,667655,2023-05-16_14h07.45.102,eb_02psyexp,2022.2.4,60.01344115347131,
21,0,21,0,,,,,,,,,,,,,,,,,,,,,,,,,,,,,,,,,,,,,,,,,,,,,,,,,,,,,,,,,,,107.54091932346637,107.54091932346637,107.54091932346637,107.54091932346637,107.54091932346637,107.54091932346637,l,1,0.5715268564381404,108.14085599636019,109.15746170039347,,,,,,,,,,,,,,,,,,,,,,,,,,,,,,,,,,,,,,,,667655,2023-05-16_14h07.45.102,eb_02psyexp,2022.2.4,60.01344115347131,
22,0,22,0,,,,,,,,,,,,,,,,,,,,,,,,,,,,,,,,,,,,,,,,,,,,,,,,,,,,,,,,,,,109.15746170039347,109.15746170039347,109.15746170039347,109.15746170039347,109.15746170039347,109.15746170039347,l,1,0.4749886570352828,109.65742487530224,110.67400582802657,,,,,,,,,,,,,,,,,,,,,,,,,,,,,,,,,,,,,,,,667655,2023-05-16_14h07.45.102,eb_02psyexp,2022.2.4,60.01344115347131,
23,0,23,0,,,,,,,,,,,,,,,,,,,,,,,,,,,,,,,,,,,,,,,,,,,,,,,,,,,,,,,,,,,110.67400582802657,110.67400582802657,110.67400582802657,110.67400582802657,110.67400582802657,110.67400582802657,s,1,0.4855284827790456,111.19064624424209,112.20723202648514,,,,,,,,,,,,,,,,,,,,,,,,,,,,,,,,,,,,,,,,667655,2023-05-16_14h07.45.102,eb_02psyexp,2022.2.4,60.01344115347131,
24,0,24,0,,,,,,,,,,,,,,,,,,,,,,,,,,,,,,,,,,,,,,,,,,,,,,,,,,,,,,,,,,,112.20723202648514,112.20723202648514,112.20723202648514,112.20723202648514,112.20723202648514,112.20723202648514,l,1,0.7922773157042684,113.02384877804434,114.04043878613447,,,,,,,,,,,,,,,,,,,,,,,,,,,,,,,,,,,,,,,,667655,2023-05-16_14h07.45.102,eb_02psyexp,2022.2.4,60.01344115347131,
25,0,25,0,,,,,,,,,,,,,,,,,,,,,,,,,,,,,,,,,,,,,,,,,,,,,,,,,,,,,,,,,,,114.04043878613447,114.04043878613447,114.04043878613447,114.04043878613447,114.04043878613447,114.04043878613447,s,1,0.6710623772669351,114.74039393194835,115.756978506819,,,,,,,,,,,,,,,,,,,,,,,,,,,,,,,,,,,,,,,,667655,2023-05-16_14h07.45.102,eb_02psyexp,2022.2.4,60.01344115347131,
26,0,26,0,,,,,,,,,,,,,,,,,,,,,,,,,,,,,,,,,,,,,,,,,,,,,,,,,,,,,,,,,,,115.756978506819,115.756978506819,115.756978506819,115.756978506819,115.756978506819,115.756978506819,l,1,0.5865303668979323,116.37361083358701,117.3898736416304,,,,,,,,,,,,,,,,,,,,,,,,,,,,,,,,,,,,,,,,667655,2023-05-16_14h07.45.102,eb_02psyexp,2022.2.4,60.01344115347131,
27,0,27,0,,,,,,,,,,,,,,,,,,,,,,,,,,,,,,,,,,,,,,,,,,,,,,,,,,,,,,,,,,,117.3898736416304,117.3898736416304,117.3898736416304,117.3898736416304,117.3898736416304,117.3898736416304,s,1,0.5776564240368316,117.99015381421486,119.00676646067586,,,,,,,,,,,,,,,,,,,,,,,,,,,,,,,,,,,,,,,,667655,2023-05-16_14h07.45.102,eb_02psyexp,2022.2.4,60.01344115347131,
28,0,28,0,,,,,,,,,,,,,,,,,,,,,,,,,,,,,,,,,,,,,,,,,,,,,,,,,,,,,,,,,,,119.00676646067586,119.00676646067586,119.00676646067586,119.00676646067586,119.00676646067586,119.00676646067586,s,1,0.7847671087947674,119.82336721444153,120.83998469042126,,,,,,,,,,,,,,,,,,,,,,,,,,,,,,,,,,,,,,,,667655,2023-05-16_14h07.45.102,eb_02psyexp,2022.2.4,60.01344115347131,
29,0,29,0,,,,,,,,,,,,,,,,,,,,,,,,,,,,,,,,,,,,,,,,,,,,,,,,,,,,,,,,,,,120.83998469042126,120.83998469042126,120.83998469042126,120.83998469042126,120.83998469042126,120.83998469042126,l,1,0.5835599096753867,121.45658200315665,122.47317201124679,,,,,,,,,,,,,,,,,,,,,,,,,,,,,,,,,,,,,,,,667655,2023-05-16_14h07.45.102,eb_02psyexp,2022.2.4,60.01344115347131,
30,0,30,0,,,,,,,,,,,,,,,,,,,,,,,,,,,,,,,,,,,,,,,,,,,,,,,,,,,,,,,,,,,122.47317201124679,122.47317201124679,122.47317201124679,122.47317201124679,122.47317201124679,122.47317201124679,l,1,0.5903819098457461,123.08980011216772,124.12306615417765,,,,,,,,,,,,,,,,,,,,,,,,,,,,,,,,,,,,,,,,667655,2023-05-16_14h07.45.102,eb_02psyexp,2022.2.4,60.01344115347131,
31,0,31,0,,,,,,,,,,,,,,,,,,,,,,,,,,,,,,,,,,,,,,,,,,,,,,,,,,,,,,,,,,,124.12306615417765,124.12306615417765,124.12306615417765,124.12306615417765,124.12306615417765,124.12306615417765,s,1,0.6525028301839484,124.80634737899527,125.8229772306222,,,,,,,,,,,,,,,,,,,,,,,,,,,,,,,,,,,,,,,,667655,2023-05-16_14h07.45.102,eb_02psyexp,2022.2.4,60.01344115347131,
32,0,32,0,,,,,,,,,,,,,,,,,,,,,,,,,,,,,,,,,,,,,,,,,,,,,,,,,,,,,,,,,,,125.8229772306222,125.8229772306222,125.8229772306222,125.8229772306222,125.8229772306222,125.8229772306222,l,1,0.551666055311216,126.40622821055877,127.42284991238557,,,,,,,,,,,,,,,,,,,,,,,,,,,,,,,,,,,,,,,,667655,2023-05-16_14h07.45.102,eb_02psyexp,2022.2.4,60.01344115347131,
33,0,33,0,,,,,,,,,,,,,,,,,,,,,,,,,,,,,,,,,,,,,,,,,,,,,,,,,,,,,,,,,,,127.42284991238557,127.42284991238557,127.42284991238557,127.42284991238557,127.42284991238557,127.42284991238557,s,1,0.5117259172111517,127.95612138760043,128.97270475508412,,,,,,,,,,,,,,,,,,,,,,,,,,,,,,,,,,,,,,,,667655,2023-05-16_14h07.45.102,eb_02psyexp,2022.2.4,60.01344115347131,
34,0,34,0,,,,,,,,,,,,,,,,,,,,,,,,,,,,,,,,,,,,,,,,,,,,,,,,,,,,,,,,,,,128.97270475508412,128.97270475508412,128.97270475508412,128.97270475508412,128.97270475508412,128.97270475508412,s,1,1.1218694807612337,130.12263300652558,131.13922180722875,,,,,,,,,,,,,,,,,,,,,,,,,,,,,,,,,,,,,,,,667655,2023-05-16_14h07.45.102,eb_02psyexp,2022.2.4,60.01344115347131,
35,0,35,0,,,,,,,,,,,,,,,,,,,,,,,,,,,,,,,,,,,,,,,,,,,,,,,,,,,,,,,,,,,131.13922180722875,131.13922180722875,131.13922180722875,131.13922180722875,131.13922180722875,131.13922180722875,s,1,0.7153753447055351,131.8725081935845,132.88880360090116,,,,,,,,,,,,,,,,,,,,,,,,,,,,,,,,,,,,,,,,667655,2023-05-16_14h07.45.102,eb_02psyexp,2022.2.4,60.01344115347131,
36,0,36,0,,,,,,,,,,,,,,,,,,,,,,,,,,,,,,,,,,,,,,,,,,,,,,,,,,,,,,,,,,,132.88880360090116,132.88880360090116,132.88880360090116,132.88880360090116,132.88880360090116,132.88880360090116,s,1,0.5738151438126806,133.48908196241246,134.50568283691246,,,,,,,,,,,,,,,,,,,,,,,,,,,,,,,,,,,,,,,,667655,2023-05-16_14h07.45.102,eb_02psyexp,2022.2.4,60.01344115347131,
37,0,37,0,,,,,,,,,,,,,,,,,,,,,,,,,,,,,,,,,,,,,,,,,,,,,,,,,,,,,,,,,,,134.50568283691246,134.50568283691246,134.50568283691246,134.50568283691246,134.50568283691246,134.50568283691246,l,1,0.5969385881908238,135.12228377179417,136.13886623374128,,,,,,,,,,,,,,,,,,,,,,,,,,,,,,,,,,,,,,,,667655,2023-05-16_14h07.45.102,eb_02psyexp,2022.2.4,60.01344115347131,
38,0,38,0,,,,,,,,,,,,,,,,,,,,,,,,,,,,,,,,,,,,,,,,,,,,,,,,,,,,,,,,,,,136.13886623374128,136.13886623374128,136.13886623374128,136.13886623374128,136.13886623374128,136.13886623374128,s,1,0.4917965972563252,136.65550332966086,137.67211567427148,,,,,,,,,,,,,,,,,,,,,,,,,,,,,,,,,,,,,,,,667655,2023-05-16_14h07.45.102,eb_02psyexp,2022.2.4,60.01344115347131,
39,0,39,0,,,,,,,,,,,,,,,,,,,,,,,,,,,,,,,,,,,,,,,,,,,,,,,,,,,,,,,,,,,137.67211567427148,137.67211567427148,137.67211567427148,137.67211567427148,137.67211567427148,137.67211567427148,l,1,0.48649891462991945,138.18873043365602,139.20534640041296,,,,,,,,,,,,,,,,,,,,,,,,,,,,,,,,,,,,,,,,667655,2023-05-16_14h07.45.102,eb_02psyexp,2022.2.4,60.01344115347131,
40,0,40,0,,,,,,,,,,,,,,,,,,,,,,,,,,,,,,,,,,,,,,,,,,,,,,,,,,,,,,,,,,,139.20534640041296,139.20534640041296,139.20534640041296,139.20534640041296,139.20534640041296,139.20534640041296,s,1,0.5133030576398596,139.7386438343092,140.7552365589945,,,,,,,,,,,,,,,,,,,,,,,,,,,,,,,,,,,,,,,,667655,2023-05-16_14h07.45.102,eb_02psyexp,2022.2.4,60.01344115347131,
41,0,41,0,,,,,,,,,,,,,,,,,,,,,,,,,,,,,,,,,,,,,,,,,,,,,,,,,,,,,,,,,,,140.7552365589945,140.7552365589945,140.7552365589945,140.7552365589945,140.7552365589945,140.7552365589945,s,1,0.5234254316746956,141.3051227935939,142.321780113125,,,,,,,,,,,,,,,,,,,,,,,,,,,,,,,,,,,,,,,,667655,2023-05-16_14h07.45.102,eb_02psyexp,2022.2.4,60.01344115347131,
42,0,42,0,,,,,,,,,,,,,,,,,,,,,,,,,,,,,,,,,,,,,,,,,,,,,,,,,,,,,,,,,,,142.321780113125,142.321780113125,142.321780113125,142.321780113125,142.321780113125,142.321780113125,l,1,0.5078680355218239,142.85506094554148,143.8716591034463,,,,,,,,,,,,,,,,,,,,,,,,,,,,,,,,,,,,,,,,667655,2023-05-16_14h07.45.102,eb_02psyexp,2022.2.4,60.01344115347131,
43,0,43,0,,,,,,,,,,,,,,,,,,,,,,,,,,,,,,,,,,,,,,,,,,,,,,,,,,,,,,,,,,,143.8716591034463,143.8716591034463,143.8716591034463,143.8716591034463,143.8716591034463,143.8716591034463,s,1,0.49401696950371843,144.38828654031386,145.40489918677486,,,,,,,,,,,,,,,,,,,,,,,,,,,,,,,,,,,,,,,,667655,2023-05-16_14h07.45.102,eb_02psyexp,2022.2.4,60.01344115347131,
44,0,44,0,,,,,,,,,,,,,,,,,,,,,,,,,,,,,,,,,,,,,,,,,,,,,,,,,,,,,,,,,,,145.40489918677486,145.40489918677486,145.40489918677486,145.40489918677486,145.40489918677486,145.40489918677486,l,1,0.4647736165788956,145.88817425395246,146.90479927606066,,,,,,,,,,,,,,,,,,,,,,,,,,,,,,,,,,,,,,,,667655,2023-05-16_14h07.45.102,eb_02psyexp,2022.2.4,60.01344115347131,
45,0,45,0,,,,,,,,,,,,,,,,,,,,,,,,,,,,,,,,,,,,,,,,,,,,,,,,,,,,,,,,,,,146.90479927606066,146.90479927606066,146.90479927606066,146.90479927606066,146.90479927606066,146.90479927606066,s,1,0.5568774102430325,147.4880650464038,148.50463996223698,,,,,,,,,,,,,,,,,,,,,,,,,,,,,,,,,,,,,,,,667655,2023-05-16_14h07.45.102,eb_02psyexp,2022.2.4,60.01344115347131,
46,0,46,0,,,,,,,,,,,,,,,,,,,,,,,,,,,,,,,,,,,,,,,,,,,,,,,,,,,,,,,,,,,148.50463996223698,148.50463996223698,148.50463996223698,148.50463996223698,148.50463996223698,148.50463996223698,l,1,0.4690555905835936,149.004626077367,150.0209082034853,,,,,,,,,,,,,,,,,,,,,,,,,,,,,,,,,,,,,,,,667655,2023-05-16_14h07.45.102,eb_02psyexp,2022.2.4,60.01344115347131,
47,0,47,0,,,,,,,,,,,,,,,,,,,,,,,,,,,,,,,,,,,,,,,,,,,,,,,,,,,,,,,,,,,150.0209082034853,150.0209082034853,150.0209082034853,150.0209082034853,150.0209082034853,150.0209082034853,s,1,0.4967957550979918,150.53779854740424,151.55445647062152,,,,,,,,,,,,,,,,,,,,,,,,,,,,,,,,,,,,,,,,667655,2023-05-16_14h07.45.102,eb_02psyexp,2022.2.4,60.01344115347131,
48,0,48,0,,,,,,,,,,,,,,,,,,,,,,,,,,,,,,,,,,,,,,,,,,,,,,,,,,,,,,,,,,,151.55445647062152,151.55445647062152,151.55445647062152,151.55445647062152,151.55445647062152,151.55445647062152,l,1,0.5072414051974192,152.0877484713128,153.10435628825508,,,,,,,,,,,,,,,,,,,,,,,,,,,,,,,,,,,,,,,,667655,2023-05-16_14h07.45.102,eb_02psyexp,2022.2.4,60.01344115347131,
49,0,49,0,,,,,,,,,,,,,,,,,,,,,,,,,,,,,,,,,,,,,,,,,,,,,,,,,,,,,,,,,,,153.10435628825508,153.10435628825508,153.10435628825508,153.10435628825508,153.10435628825508,153.10435628825508,s,1,0.5813685145694762,153.70429658329522,154.72087572496093,,,,,,,,,,,,,,,,,,,,,,,,,,,,,,,,,,,,,,,,667655,2023-05-16_14h07.45.102,eb_02psyexp,2022.2.4,60.01344115347131,
50,0,50,0,,,,,,,,,,,,,,,,,,,,,,,,,,,,,,,,,,,,,,,,,,,,,,,,,,,,,,,,,,,154.72087572496093,154.72087572496093,154.72087572496093,154.72087572496093,154.72087572496093,154.72087572496093,l,1,0.5328713709168369,155.27084919277695,156.28744131377607,,,,,,,,,,,,,,,,,,,,,,,,,,,,,,,,,,,,,,,,667655,2023-05-16_14h07.45.102,eb_02psyexp,2022.2.4,60.01344115347131,
51,0,51,0,,,,,,,,,,,,,,,,,,,,,,,,,,,,,,,,,,,,,,,,,,,,,,,,,,,,,,,,,,,156.28744131377607,156.28744131377607,156.28744131377607,156.28744131377607,156.28744131377607,156.28744131377607,s,1,0.6133508095372235,156.92074243018578,157.93731402572303,,,,,,,,,,,,,,,,,,,,,,,,,,,,,,,,,,,,,,,,667655,2023-05-16_14h07.45.102,eb_02psyexp,2022.2.4,60.01344115347131,
52,0,52,0,,,,,,,,,,,,,,,,,,,,,,,,,,,,,,,,,,,,,,,,,,,,,,,,,,,,,,,,,,,157.93731402572303,157.93731402572303,157.93731402572303,157.93731402572303,157.93731402572303,157.93731402572303,s,1,0.5714227198914159,158.53728722187225,159.5538899074454,,,,,,,,,,,,,,,,,,,,,,,,,,,,,,,,,,,,,,,,667655,2023-05-16_14h07.45.102,eb_02psyexp,2022.2.4,60.01344115347131,
53,0,53,0,,,,,,,,,,,,,,,,,,,,,,,,,,,,,,,,,,,,,,,,,,,,,,,,,,,,,,,,,,,159.5538899074454,159.5538899074454,159.5538899074454,159.5538899074454,159.5538899074454,159.5538899074454,s,1,0.6108777929621283,160.1871855906502,161.20377740979893,,,,,,,,,,,,,,,,,,,,,,,,,,,,,,,,,,,,,,,,667655,2023-05-16_14h07.45.102,eb_02psyexp,2022.2.4,60.01344115347131,
54,0,54,0,,,,,,,,,,,,,,,,,,,,,,,,,,,,,,,,,,,,,,,,,,,,,,,,,,,,,,,,,,,161.20377740979893,161.20377740979893,161.20377740979893,161.20377740979893,161.20377740979893,161.20377740979893,l,1,0.44899104403157253,161.67040209987317,162.68698848581698,,,,,,,,,,,,,,,,,,,,,,,,,,,,,,,,,,,,,,,,667655,2023-05-16_14h07.45.102,eb_02psyexp,2022.2.4,60.01344115347131,
55,0,55,0,,,,,,,,,,,,,,,,,,,,,,,,,,,,,,,,,,,,,,,,,,,,,,,,,,,,,,,,,,,162.68698848581698,162.68698848581698,162.68698848581698,162.68698848581698,162.68698848581698,162.68698848581698,s,1,0.5017719727329677,163.22028139204485,164.2369103381352,,,,,,,,,,,,,,,,,,,,,,,,,,,,,,,,,,,,,,,,667655,2023-05-16_14h07.45.102,eb_02psyexp,2022.2.4,60.01344115347131,
56,0,56,0,,,,,,,,,,,,,,,,,,,,,,,,,,,,,,,,,,,,,,,,,,,,,,,,,,,,,,,,,,,164.2369103381352,164.2369103381352,164.2369103381352,164.2369103381352,164.2369103381352,164.2369103381352,l,1,0.6718580408487469,164.93683892159606,165.95345458650263,,,,,,,,,,,,,,,,,,,,,,,,,,,,,,,,,,,,,,,,667655,2023-05-16_14h07.45.102,eb_02psyexp,2022.2.4,60.01344115347131,
57,0,57,0,,,,,,,,,,,,,,,,,,,,,,,,,,,,,,,,,,,,,,,,,,,,,,,,,,,,,,,,,,,165.95345458650263,165.95345458650263,165.95345458650263,165.95345458650263,165.95345458650263,165.95345458650263,s,1,0.4753487581911031,166.4533993488585,167.4699809052836,,,,,,,,,,,,,,,,,,,,,,,,,,,,,,,,,,,,,,,,667655,2023-05-16_14h07.45.102,eb_02psyexp,2022.2.4,60.01344115347131,
58,0,58,0,,,,,,,,,,,,,,,,,,,,,,,,,,,,,,,,,,,,,,,,,,,,,,,,,,,,,,,,,,,167.4699809052836,167.4699809052836,167.4699809052836,167.4699809052836,167.4699809052836,167.4699809052836,l,1,0.5748199860099703,168.06994323502295,169.08658938629378,,,,,,,,,,,,,,,,,,,,,,,,,,,,,,,,,,,,,,,,667655,2023-05-16_14h07.45.102,eb_02psyexp,2022.2.4,60.01344115347131,
59,0,59,0,,,,,,,,,,,,,,,,,,,,,,,,,,,,,,,,,,,,,,,,,,,,,,,,,,,,,,,,,,,169.08658938629378,169.08658938629378,169.08658938629378,169.08658938629378,169.08658938629378,169.08658938629378,s,1,0.5262277611909667,169.63650489985594,170.65312479059503,,,,,,,,,,,,,,,,,,,,,,,,,,,,,,,,,,,,,,,,667655,2023-05-16_14h07.45.102,eb_02psyexp,2022.2.4,60.01344115347131,
60,0,60,0,,,,,,,,,,,,,,,,,,,,,,,,,,,,,,,,,,,,,,,,,,,,,,,,,,,,,,,,,,,170.65312479059503,170.65312479059503,170.65312479059503,170.65312479059503,170.65312479059503,170.65312479059503,s,1,0.5916949358506827,171.26971425536613,172.2863096966612,,,,,,,,,,,,,,,,,,,,,,,,,,,,,,,,,,,,,,,,667655,2023-05-16_14h07.45.102,eb_02psyexp,2022.2.4,60.01344115347131,
61,0,61,0,,,,,,,,,,,,,,,,,,,,,,,,,,,,,,,,,,,,,,,,,,,,,,,,,,,,,,,,,,,172.2863096966612,172.2863096966612,172.2863096966612,172.2863096966612,172.2863096966612,172.2863096966612,s,1,0.5655563611799153,172.86961410316871,173.88621014814998,,,,,,,,,,,,,,,,,,,,,,,,,,,,,,,,,,,,,,,,667655,2023-05-16_14h07.45.102,eb_02psyexp,2022.2.4,60.01344115347131,
62,0,62,0,,,,,,,,,,,,,,,,,,,,,,,,,,,,,,,,,,,,,,,,,,,,,,,,,,,,,,,,,,,173.88621014814998,173.88621014814998,173.88621014814998,173.88621014814998,173.88621014814998,173.88621014814998,s,1,0.45362104538071435,174.369507853713,175.38608699537872,,,,,,,,,,,,,,,,,,,,,,,,,,,,,,,,,,,,,,,,667655,2023-05-16_14h07.45.102,eb_02psyexp,2022.2.4,60.01344115347131,
63,0,63,0,,,,,,,,,,,,,,,,,,,,,,,,,,,,,,,,,,,,,,,,,,,,,,,,,,,,,,,,,,,175.38608699537872,175.38608699537872,175.38608699537872,175.38608699537872,175.38608699537872,175.38608699537872,l,1,0.44176789178163745,175.85273100354243,176.8693342928018,,,,,,,,,,,,,,,,,,,,,,,,,,,,,,,,,,,,,,,,667655,2023-05-16_14h07.45.102,eb_02psyexp,2022.2.4,60.01344115347131,
64,0,64,0,,,,,,,,,,,,,,,,,,,,,,,,,,,,,,,,,,,,,,,,,,,,,,,,,,,,,,,,,,,176.8693342928018,176.8693342928018,176.8693342928018,176.8693342928018,176.8693342928018,176.8693342928018,s,1,0.5425596917484654,177.435956326648,178.45257742477406,,,,,,,,,,,,,,,,,,,,,,,,,,,,,,,,,,,,,,,,667655,2023-05-16_14h07.45.102,eb_02psyexp,2022.2.4,60.01344115347131,
65,0,65,0,,,,,,,,,,,,,,,,,,,,,,,,,,,,,,,,,,,,,,,,,,,,,,,,,,,,,,,,,,,178.45257742477406,178.45257742477406,178.45257742477406,178.45257742477406,178.45257742477406,178.45257742477406,l,1,0.47930172107589897,178.952518866834,179.96912728746247,,,,,,,,,,,,,,,,,,,,,,,,,,,,,,,,,,,,,,,,667655,2023-05-16_14h07.45.102,eb_02psyexp,2022.2.4,60.01344115347131,
66,0,66,0,,,,,,,,,,,,,,,,,,,,,,,,,,,,,,,,,,,,,,,,,,,,,,,,,,,,,,,,,,,179.96912728746247,179.96912728746247,179.96912728746247,179.96912728746247,179.96912728746247,179.96912728746247,l,1,0.5707447758904891,180.56907271387172,181.58568807694246,,,,,,,,,,,,,,,,,,,,,,,,,,,,,,,,,,,,,,,,667655,2023-05-16_14h07.45.102,eb_02psyexp,2022.2.4,60.01344115347131,
67,0,67,0,,,,,,,,,,,,,,,,,,,,,,,,,,,,,,,,,,,,,,,,,,,,,,,,,,,,,,,,,,,181.58568807694246,181.58568807694246,181.58568807694246,181.58568807694246,181.58568807694246,181.58568807694246,l,1,0.5782039709738456,182.18561599634995,183.20224011292157,,,,,,,,,,,,,,,,,,,,,,,,,,,,,,,,,,,,,,,,667655,2023-05-16_14h07.45.102,eb_02psyexp,2022.2.4,60.01344115347131,
68,0,68,0,,,,,,,,,,,,,,,,,,,,,,,,,,,,,,,,,,,,,,,,,,,,,,,,,,,,,,,,,,,183.20224011292157,183.20224011292157,183.20224011292157,183.20224011292157,183.20224011292157,183.20224011292157,s,1,0.4816503774636658,183.7021821586677,184.71876039479685,,,,,,,,,,,,,,,,,,,,,,,,,,,,,,,,,,,,,,,,667655,2023-05-16_14h07.45.102,eb_02psyexp,2022.2.4,60.01344115347131,
69,0,69,0,,,,,,,,,,,,,,,,,,,,,,,,,,,,,,,,,,,,,,,,,,,,,,,,,,,,,,,,,,,184.71876039479685,184.71876039479685,184.71876039479685,184.71876039479685,184.71876039479685,184.71876039479685,s,1,0.6131700043333694,185.35206935917086,186.36868623146438,,,,,,,,,,,,,,,,,,,,,,,,,,,,,,,,,,,,,,,,667655,2023-05-16_14h07.45.102,eb_02psyexp,2022.2.4,60.01344115347131,
70,0,70,0,,,,,,,,,,,,,,,,,,,,,,,,,,,,,,,,,,,,,,,,,,,,,,,,,,,,,,,,,,,186.36868623146438,186.36868623146438,186.36868623146438,186.36868623146438,186.36868623146438,186.36868623146438,l,1,0.6112125391373411,187.00194840985932,188.01824140240205,,,,,,,,,,,,,,,,,,,,,,,,,,,,,,,,,,,,,,,,667655,2023-05-16_14h07.45.102,eb_02psyexp,2022.2.4,60.01344115347131,
71,0,71,0,,,,,,,,,,,,,,,,,,,,,,,,,,,,,,,,,,,,,,,,,,,,,,,,,,,,,,,,,,,188.01824140240205,188.01824140240205,188.01824140240205,188.01824140240205,188.01824140240205,188.01824140240205,s,1,1.0086854319524718,189.05180717655458,190.06842193592456,,,,,,,,,,,,,,,,,,,,,,,,,,,,,,,,,,,,,,,,667655,2023-05-16_14h07.45.102,eb_02psyexp,2022.2.4,60.01344115347131,
72,0,72,0,,,,,,,,,,,,,,,,,,,,,,,,,,,,,,,,,,,,,,,,,,,,,,,,,,,,,,,,,,,190.06842193592456,190.06842193592456,190.06842193592456,190.06842193592456,190.06842193592456,190.06842193592456,s,1,1.0945307701622369,191.18499298814277,192.20159929586225,,,,,,,,,,,,,,,,,,,,,,,,,,,,,,,,,,,,,,,,667655,2023-05-16_14h07.45.102,eb_02psyexp,2022.2.4,60.01344115347131,
73,0,73,0,,,,,,,,,,,,,,,,,,,,,,,,,,,,,,,,,,,,,,,,,,,,,,,,,,,,,,,,,,,192.20159929586225,192.20159929586225,192.20159929586225,192.20159929586225,192.20159929586225,192.20159929586225,s,1,0.6893424158333801,192.91819908372418,193.9347839604452,,,,,,,,,,,,,,,,,,,,,,,,,,,,,,,,,,,,,,,,667655,2023-05-16_14h07.45.102,eb_02psyexp,2022.2.4,60.01344115347131,
74,0,74,0,,,,,,,,,,,,,,,,,,,,,,,,,,,,,,,,,,,,,,,,,,,,,,,,,,,,,,,,,,,193.9347839604452,193.9347839604452,193.9347839604452,193.9347839604452,193.9347839604452,193.9347839604452,l,1,0.4441729932150338,194.40144004240574,195.4177242814476,,,,,,,,,,,,,,,,,,,,,,,,,,,,,,,,,,,,,,,,667655,2023-05-16_14h07.45.102,eb_02psyexp,2022.2.4,60.01344115347131,
75,0,75,0,,,,,,,,,,,,,,,,,,,,,,,,,,,,,,,,,,,,,,,,,,,,,,,,,,,,,,,,,,,195.4177242814476,195.4177242814476,195.4177242814476,195.4177242814476,195.4177242814476,195.4177242814476,s,1,0.5692225712700747,196.01798121196043,197.03459808425396,,,,,,,,,,,,,,,,,,,,,,,,,,,,,,,,,,,,,,,,667655,2023-05-16_14h07.45.102,eb_02psyexp,2022.2.4,60.01344115347131,
76,0,76,0,,,,,,,,,,,,,,,,,,,,,,,,,,,,,,,,,,,,,,,,,,,,,,,,,,,,,,,,,,,197.03459808425396,197.03459808425396,197.03459808425396,197.03459808425396,197.03459808425396,197.03459808425396,l,1,0.5843845503695775,197.65119509513897,198.66779989363567,,,,,,,,,,,,,,,,,,,,,,,,,,,,,,,,,,,,,,,,667655,2023-05-16_14h07.45.102,eb_02psyexp,2022.2.4,60.01344115347131,
77,0,77,0,,,,,,,,,,,,,,,,,,,,,,,,,,,,,,,,,,,,,,,,,,,,,,,,,,,,,,,,,,,198.66779989363567,198.66779989363567,198.66779989363567,198.66779989363567,198.66779989363567,198.66779989363567,s,1,0.6071883408294525,199.3010759569006,200.31770641221374,,,,,,,,,,,,,,,,,,,,,,,,,,,,,,,,,,,,,,,,667655,2023-05-16_14h07.45.102,eb_02psyexp,2022.2.4,60.01344115347131,
78,0,78,0,,,,,,,,,,,,,,,,,,,,,,,,,,,,,,,,,,,,,,,,,,,,,,,,,,,,,,,,,,,200.31770641221374,200.31770641221374,200.31770641221374,200.31770641221374,200.31770641221374,200.31770641221374,l,1,0.6132822907093214,200.95098428655183,201.9675658429769,,,,,,,,,,,,,,,,,,,,,,,,,,,,,,,,,,,,,,,,667655,2023-05-16_14h07.45.102,eb_02psyexp,2022.2.4,60.01344115347131,
79,0,79,0,,,,,,,,,,,,,,,,,,,,,,,,,,,,,,,,,,,,,,,,,,,,,,,,,,,,,,,,,,,201.9675658429769,201.9675658429769,201.9675658429769,201.9675658429769,201.9675658429769,201.9675658429769,s,1,0.9074438828538405,202.9008321264555,203.9174493005994,,,,,,,,,,,,,,,,,,,,,,,,,,,,,,,,,,,,,,,,667655,2023-05-16_14h07.45.102,eb_02psyexp,2022.2.4,60.01344115347131,
80,0,80,0,,,,,,,,,,,,,,,,,,,,,,,,,,,,,,,,,,,,,,,,,,,,,,,,,,,,,,,,,,,203.9174493005994,203.9174493005994,203.9174493005994,203.9174493005994,203.9174493005994,203.9174493005994,l,1,1.0845710906141903,205.03402518233634,206.05063692326075,,,,,,,,,,,,,,,,,,,,,,,,,,,,,,,,,,,,,,,,667655,2023-05-16_14h07.45.102,eb_02psyexp,2022.2.4,60.01344115347131,
81,0,81,0,,,,,,,,,,,,,,,,,,,,,,,,,,,,,,,,,,,,,,,,,,,,,,,,,,,,,,,,,,,206.05063692326075,206.05063692326075,206.05063692326075,206.05063692326075,206.05063692326075,206.05063692326075,s,1,0.7273920983134303,206.80055014281243,207.81718572949467,,,,,,,,,,,,,,,,,,,,,,,,,,,,,,,,,,,,,,,,667655,2023-05-16_14h07.45.102,eb_02psyexp,2022.2.4,60.01344115347131,
82,0,82,0,,,,,,,,,,,,,,,,,,,,,,,,,,,,,,,,,,,,,,,,,,,,,,,,,,,,,,,,,,,207.81718572949467,207.81718572949467,207.81718572949467,207.81718572949467,207.81718572949467,207.81718572949467,l,1,0.536836709434283,208.38378180465952,209.4004092415271,,,,,,,,,,,,,,,,,,,,,,,,,,,,,,,,,,,,,,,,667655,2023-05-16_14h07.45.102,eb_02psyexp,2022.2.4,60.01344115347131,
83,0,83,0,,,,,,,,,,,,,,,,,,,,,,,,,,,,,,,,,,,,,,,,,,,,,,,,,,,,,,,,,,,209.4004092415271,209.4004092415271,209.4004092415271,209.4004092415271,209.4004092415271,209.4004092415271,s,1,0.4976303566945717,209.91702943411656,210.93361672559695,,,,,,,,,,,,,,,,,,,,,,,,,,,,,,,,,,,,,,,,667655,2023-05-16_14h07.45.102,eb_02psyexp,2022.2.4,60.01344115347131,
84,0,84,0,,,,,,,,,,,,,,,,,,,,,,,,,,,,,,,,,,,,,,,,,,,,,,,,,,,,,,,,,,,210.93361672559695,210.93361672559695,210.93361672559695,210.93361672559695,210.93361672559695,210.93361672559695,l,1,0.60442766592314,211.5668891667301,212.58353199769044,,,,,,,,,,,,,,,,,,,,,,,,,,,,,,,,,,,,,,,,667655,2023-05-16_14h07.45.102,eb_02psyexp,2022.2.4,60.01344115347131,
85,0,85,0,,,,,,,,,,,,,,,,,,,,,,,,,,,,,,,,,,,,,,,,,,,,,,,,,,,,,,,,,,,212.58353199769044,212.58353199769044,212.58353199769044,212.58353199769044,212.58353199769044,212.58353199769044,s,1,0.4825254262832459,213.0834586493438,214.10006888104544,,,,,,,,,,,,,,,,,,,,,,,,,,,,,,,,,,,,,,,,667655,2023-05-16_14h07.45.102,eb_02psyexp,2022.2.4,60.01344115347131,
86,0,86,0,,,,,,,,,,,,,,,,,,,,,,,,,,,,,,,,,,,,,,,,,,,,,,,,,,,,,,,,,,,214.10006888104544,214.10006888104544,214.10006888104544,214.10006888104544,214.10006888104544,214.10006888104544,s,1,0.49399855695082806,214.61667428322835,215.63326429130393,,,,,,,,,,,,,,,,,,,,,,,,,,,,,,,,,,,,,,,,667655,2023-05-16_14h07.45.102,eb_02psyexp,2022.2.4,60.01344115347131,
87,0,87,0,,,,,,,,,,,,,,,,,,,,,,,,,,,,,,,,,,,,,,,,,,,,,,,,,,,,,,,,,,,215.63326429130393,215.63326429130393,215.63326429130393,215.63326429130393,215.63326429130393,215.63326429130393,s,1,0.6167918431892758,216.2832293678366,217.29984563644393,,,,,,,,,,,,,,,,,,,,,,,,,,,,,,,,,,,,,,,,667655,2023-05-16_14h07.45.102,eb_02psyexp,2022.2.4,60.01344115347131,
88,0,88,0,,,,,,,,,,,,,,,,,,,,,,,,,,,,,,,,,,,,,,,,,,,,,,,,,,,,,,,,,,,217.29984563644393,217.29984563644393,217.29984563644393,217.29984563644393,217.29984563644393,217.29984563644393,s,1,0.6062381325900787,217.93310992774786,218.94969933213724,,,,,,,,,,,,,,,,,,,,,,,,,,,,,,,,,,,,,,,,667655,2023-05-16_14h07.45.102,eb_02psyexp,2022.2.4,60.01344115347131,
89,0,89,0,,,,,,,,,,,,,,,,,,,,,,,,,,,,,,,,,,,,,,,,,,,,,,,,,,,,,,,,,,,218.94969933213724,218.94969933213724,218.94969933213724,218.94969933213724,218.94969933213724,218.94969933213724,s,1,0.49239817446505185,219.4663315985381,220.48294726344466,,,,,,,,,,,,,,,,,,,,,,,,,,,,,,,,,,,,,,,,667655,2023-05-16_14h07.45.102,eb_02psyexp,2022.2.4,60.01344115347131,
90,0,90,0,,,,,,,,,,,,,,,,,,,,,,,,,,,,,,,,,,,,,,,,,,,,,,,,,,,,,,,,,,,220.48294726344466,220.48294726344466,220.48294726344466,220.48294726344466,220.48294726344466,220.48294726344466,l,1,0.4381545045907842,220.9495707461465,221.96618520368065,,,,,,,,,,,,,,,,,,,,,,,,,,,,,,,,,,,,,,,,667655,2023-05-16_14h07.45.102,eb_02psyexp,2022.2.4,60.01344115347131,
91,0,91,0,,,,,,,,,,,,,,,,,,,,,,,,,,,,,,,,,,,,,,,,,,,,,,,,,,,,,,,,,,,221.96618520368065,221.96618520368065,221.96618520368065,221.96618520368065,221.96618520368065,221.96618520368065,s,1,0.4109060456685256,222.39946778680314,223.41609431813413,,,,,,,,,,,,,,,,,,,,,,,,,,,,,,,,,,,,,,,,667655,2023-05-16_14h07.45.102,eb_02psyexp,2022.2.4,60.01344115347131,
92,0,92,0,,,,,,,,,,,,,,,,,,,,,,,,,,,,,,,,,,,,,,,,,,,,,,,,,,,,,,,,,,,223.41609431813413,223.41609431813413,223.41609431813413,223.41609431813413,223.41609431813413,223.41609431813413,l,1,0.4730115718994057,223.91601885686396,224.93262788119318,,,,,,,,,,,,,,,,,,,,,,,,,,,,,,,,,,,,,,,,667655,2023-05-16_14h07.45.102,eb_02psyexp,2022.2.4,60.01344115347131,
93,0,93,0,,,,,,,,,,,,,,,,,,,,,,,,,,,,,,,,,,,,,,,,,,,,,,,,,,,,,,,,,,,224.93262788119318,224.93262788119318,224.93262788119318,224.93262788119318,224.93262788119318,224.93262788119318,s,1,0.5164775621233275,225.49923059694993,,,,,,,,,,,,,,,,,,,,,,,,,,,,,,,,,,,,,,,,,667655,2023-05-16_14h07.45.102,eb_02psyexp,2022.2.4,60.01344115347131,
94,0,94,0,,,,,,,,,,,,,,,,,,,,,,,,,,,,,,,,,,,,,,,,,,,,,,,,,,,,,,,,,,,226.5158501858532,226.5158501858532,226.5158501858532,226.5158501858532,226.5158501858532,226.5158501858532,s,1,0.4692871057341108,227.0158012869506,228.0324175555579,,,,,,,,,,,,,,,,,,,,,,,,,,,,,,,,,,,,,,,,667655,2023-05-16_14h07.45.102,eb_02psyexp,2022.2.4,60.01344115347131,
95,0,95,0,,,,,,,,,,,,,,,,,,,,,,,,,,,,,,,,,,,,,,,,,,,,,,,,,,,,,,,,,,,228.0324175555579,228.0324175555579,228.0324175555579,228.0324175555579,228.0324175555579,228.0324175555579,l,1,0.5687290545902215,228.6323599635216,229.64892250369303,,,,,,,,,,,,,,,,,,,,,,,,,,,,,,,,,,,,,,,,667655,2023-05-16_14h07.45.102,eb_02psyexp,2022.2.4,60.01344115347131,
96,0,96,0,,,,,,,,,,,,,,,,,,,,,,,,,,,,,,,,,,,,,,,,,,,,,,,,,,,,,,,,,,,229.64892250369303,229.64892250369303,229.64892250369303,229.64892250369303,229.64892250369303,229.64892250369303,s,1,0.4722192286280915,230.14892069263442,231.1655426962825,,,,,,,,,,,,,,,,,,,,,,,,,,,,,,,,,,,,,,,,667655,2023-05-16_14h07.45.102,eb_02psyexp,2022.2.4,60.01344115347131,
97,0,97,0,,,,,,,,,,,,,,,,,,,,,,,,,,,,,,,,,,,,,,,,,,,,,,,,,,,,,,,,,,,231.1655426962825,231.1655426962825,231.1655426962825,231.1655426962825,231.1655426962825,231.1655426962825,l,1,0.5156278682843549,231.69880813460622,232.715434062251,,,,,,,,,,,,,,,,,,,,,,,,,,,,,,,,,,,,,,,,667655,2023-05-16_14h07.45.102,eb_02psyexp,2022.2.4,60.01344115347131,
98,0,98,0,,,,,,,,,,,,,,,,,,,,,,,,,,,,,,,,,,,,,,,,,,,,,,,,,,,,,,,,,,,232.715434062251,232.715434062251,232.715434062251,232.715434062251,232.715434062251,232.715434062251,s,1,0.5417453137779376,233.2820334577118,234.2986455004866,,,,,,,,,,,,,,,,,,,,,,,,,,,,,,,,,,,,,,,,667655,2023-05-16_14h07.45.102,eb_02psyexp,2022.2.4,60.01344115347131,
99,0,99,0,,,,,,,,,,,,,,,,,,,,,,,,,,,,,,,,,,,,,,,,,,,,,,,,,,,,,,,,,,,234.2986455004866,234.2986455004866,234.2986455004866,234.2986455004866,234.2986455004866,234.2986455004866,s,1,0.8055841550813057,235.1319056867069,236.14852316268662,,,,,,,,,,,,,,,,,,,,,,,,,,,,,,,,,,,,,,,,667655,2023-05-16_14h07.45.102,eb_02psyexp,2022.2.4,60.01344115347131,
100,0,100,0,,,,,,,,,,,,,,,,,,,,,,,,,,,,,,,,,,,,,,,,,,,,,,,,,,,,,,,,,,,236.14852316268662,236.14852316268662,236.14852316268662,236.14852316268662,236.14852316268662,236.14852316268662,l,1,0.7716745794023154,236.94817018507456,237.96504060721782,,,,,,,,,,,,,,,,,,,,,,,,,,,,,,,,,,,,,,,,667655,2023-05-16_14h07.45.102,eb_02psyexp,2022.2.4,60.01344115347131,
101,0,101,0,,,,,,,,,,,,,,,,,,,,,,,,,,,,,,,,,,,,,,,,,,,,,,,,,,,,,,,,,,,237.96504060721782,237.96504060721782,237.96504060721782,237.96504060721782,237.96504060721782,237.96504060721782,s,1,1.0351593564555515,239.03164905802987,240.04824902700784,,,,,,,,,,,,,,,,,,,,,,,,,,,,,,,,,,,,,,,,667655,2023-05-16_14h07.45.102,eb_02psyexp,2022.2.4,60.01344115347131,
102,0,102,0,,,,,,,,,,,,,,,,,,,,,,,,,,,,,,,,,,,,,,,,,,,,,,,,,,,,,,,,,,,240.04824902700784,240.04824902700784,240.04824902700784,240.04824902700784,240.04824902700784,240.04824902700784,l,1,0.5599643796449527,240.63151811764692,241.64814102684613,,,,,,,,,,,,,,,,,,,,,,,,,,,,,,,,,,,,,,,,667655,2023-05-16_14h07.45.102,eb_02psyexp,2022.2.4,60.01344115347131,
103,0,103,0,,,,,,,,,,,,,,,,,,,,,,,,,,,,,,,,,,,,,,,,,,,,,,,,,,,,,,,,,,,241.64814102684613,241.64814102684613,241.64814102684613,241.64814102684613,241.64814102684613,241.64814102684613,s,1,1.0001335577690043,242.68137296036002,243.69767048058566,,,,,,,,,,,,,,,,,,,,,,,,,,,,,,,,,,,,,,,,667655,2023-05-16_14h07.45.102,eb_02psyexp,2022.2.4,60.01344115347131,
104,0,104,0,,,,,,,,,,,,,,,,,,,,,,,,,,,,,,,,,,,,,,,,,,,,,,,,,,,,,,,,,,,243.69767048058566,243.69767048058566,243.69767048058566,243.69767048058566,243.69767048058566,243.69767048058566,s,1,0.8785733085824177,244.59790887781128,245.61449224530952,,,,,,,,,,,,,,,,,,,,,,,,,,,,,,,,,,,,,,,,667655,2023-05-16_14h07.45.102,eb_02psyexp,2022.2.4,60.01344115347131,
105,0,105,0,,,,,,,,,,,,,,,,,,,,,,,,,,,,,,,,,,,,,,,,,,,,,,,,,,,,,,,,,,,245.61449224530952,245.61449224530952,245.61449224530952,245.61449224530952,245.61449224530952,245.61449224530952,l,1,0.5297777609084733,246.16445877068327,247.18106145625643,,,,,,,,,,,,,,,,,,,,,,,,,,,,,,,,,,,,,,,,667655,2023-05-16_14h07.45.102,eb_02psyexp,2022.2.4,60.01344115347131,
106,0,106,0,,,,,,,,,,,,,,,,,,,,,,,,,,,,,,,,,,,,,,,,,,,,,,,,,,,,,,,,,,,247.18106145625643,247.18106145625643,247.18106145625643,247.18106145625643,247.18106145625643,247.18106145625643,s,1,0.49119622743455693,247.69770489091752,248.71428463626944,,,,,,,,,,,,,,,,,,,,,,,,,,,,,,,,,,,,,,,,667655,2023-05-16_14h07.45.102,eb_02psyexp,2022.2.4,60.01344115347131,
107,0,107,0,,,,,,,,,,,,,,,,,,,,,,,,,,,,,,,,,,,,,,,,,,,,,,,,,,,,,,,,,,,248.71428463626944,248.71428463626944,248.71428463626944,248.71428463626944,248.71428463626944,248.71428463626944,l,1,0.5419858842797112,249.28090968856122,250.2975338051474,,,,,,,,,,,,,,,,,,,,,,,,,,,,,,,,,,,,,,,,667655,2023-05-16_14h07.45.102,eb_02psyexp,2022.2.4,60.01344115347131,
108,0,108,0,,,,,,,,,,,,,,,,,,,,,,,,,,,,,,,,,,,,,,,,,,,,,,,,,,,,,,,,,,,250.2975338051474,250.2975338051474,250.2975338051474,250.2975338051474,250.2975338051474,250.2975338051474,l,1,0.5897435075457906,250.91413262710557,251.930720824108,,,,,,,,,,,,,,,,,,,,,,,,,,,,,,,,,,,,,,,,667655,2023-05-16_14h07.45.102,eb_02psyexp,2022.2.4,60.01344115347131,
109,0,109,0,,,,,,,,,,,,,,,,,,,,,,,,,,,,,,,,,,,,,,,,,,,,,,,,,,,,,,,,,,,251.930720824108,251.930720824108,251.930720824108,251.930720824108,251.930720824108,251.930720824108,s,1,0.5085453758365475,252.46402037092776,253.48061490668624,,,,,,,,,,,,,,,,,,,,,,,,,,,,,,,,,,,,,,,,667655,2023-05-16_14h07.45.102,eb_02psyexp,2022.2.4,60.01344115347131,
110,0,110,0,,,,,,,,,,,,,,,,,,,,,,,,,,,,,,,,,,,,,,,,,,,,,,,,,,,,,,,,,,,253.48061490668624,253.48061490668624,253.48061490668624,253.48061490668624,253.48061490668624,253.48061490668624,l,0,0.5506826441123849,254.06391448367503,255.08050026593264,,,,,,,,,,,,,,,,,,,,,,,,,,,,,,,,,,,,,,,,667655,2023-05-16_14h07.45.102,eb_02psyexp,2022.2.4,60.01344115347131,
111,0,111,0,,,,,,,,,,,,,,,,,,,,,,,,,,,,,,,,,,,,,,,,,,,,,,,,,,,,,,,,,,,255.08050026593264,255.08050026593264,255.08050026593264,255.08050026593264,255.08050026593264,255.08050026593264,s,1,1.670785585331032,256.7803908169153,257.79697478809976,,,,,,,,,,,,,,,,,,,,,,,,,,,,,,,,,,,,,,,,667655,2023-05-16_14h07.45.102,eb_02psyexp,2022.2.4,60.01344115347131,
112,0,112,0,,,,,,,,,,,,,,,,,,,,,,,,,,,,,,,,,,,,,,,,,,,,,,,,,,,,,,,,,,,257.79697478809976,257.79697478809976,257.79697478809976,257.79697478809976,257.79697478809976,257.79697478809976,l,1,0.5223514669487486,258.34694614299224,259.36351079610176,,,,,,,,,,,,,,,,,,,,,,,,,,,,,,,,,,,,,,,,667655,2023-05-16_14h07.45.102,eb_02psyexp,2022.2.4,60.01344115347131,
113,0,113,0,,,,,,,,,,,,,,,,,,,,,,,,,,,,,,,,,,,,,,,,,,,,,,,,,,,,,,,,,,,259.36351079610176,259.36351079610176,259.36351079610176,259.36351079610176,259.36351079610176,259.36351079610176,l,1,0.5558106897951802,259.94683029486623,260.9801023737673,,,,,,,,,,,,,,,,,,,,,,,,,,,,,,,,,,,,,,,,667655,2023-05-16_14h07.45.102,eb_02psyexp,2022.2.4,60.01344115347131,
114,0,114,0,,,,,,,,,,,,,,,,,,,,,,,,,,,,,,,,,,,,,,,,,,,,,,,,,,,,,,,,,,,260.9801023737673,260.9801023737673,260.9801023737673,260.9801023737673,260.9801023737673,260.9801023737673,s,1,0.8512207130988827,261.8633665141533,262.87995712592965,,,,,,,,,,,,,,,,,,,,,,,,,,,,,,,,,,,,,,,,667655,2023-05-16_14h07.45.102,eb_02psyexp,2022.2.4,60.01344115347131,
115,0,115,0,,,,,,,,,,,,,,,,,,,,,,,,,,,,,,,,,,,,,,,,,,,,,,,,,,,,,,,,,,,262.87995712592965,262.87995712592965,262.87995712592965,262.87995712592965,262.87995712592965,262.87995712592965,l,1,0.5913867520284839,263.4965803973464,264.5298573057662,,,,,,,,,,,,,,,,,,,,,,,,,,,,,,,,,,,,,,,,667655,2023-05-16_14h07.45.102,eb_02psyexp,2022.2.4,60.01344115347131,
116,0,116,0,,,,,,,,,,,,,,,,,,,,,,,,,,,,,,,,,,,,,,,,,,,,,,,,,,,,,,,,,,,264.5298573057662,264.5298573057662,264.5298573057662,264.5298573057662,264.5298573057662,264.5298573057662,l,1,0.6615050571854226,265.2131276641594,266.2297327645065,,,,,,,,,,,,,,,,,,,,,,,,,,,,,,,,,,,,,,,,667655,2023-05-16_14h07.45.102,eb_02psyexp,2022.2.4,60.01344115347131,
117,0,117,0,,,,,,,,,,,,,,,,,,,,,,,,,,,,,,,,,,,,,,,,,,,,,,,,,,,,,,,,,,,266.2297327645065,266.2297327645065,266.2297327645065,266.2297327645065,266.2297327645065,266.2297327645065,s,0,2.752641437429702,269.01286010870535,270.0461373189755,,,,,,,,,,,,,,,,,,,,,,,,,,,,,,,,,,,,,,,,667655,2023-05-16_14h07.45.102,eb_02psyexp,2022.2.4,60.01344115347131,
118,0,118,0,,,,,,,,,,,,,,,,,,,,,,,,,,,,,,,,,,,,,,,,,,,,,,,,,,,,,,,,,,,270.0461373189755,270.0461373189755,270.0461373189755,270.0461373189755,270.0461373189755,270.0461373189755,l,1,0.848275309021119,270.9127341789426,271.9293718785484,,,,,,,,,,,,,,,,,,,,,,,,,,,,,,,,,,,,,,,,667655,2023-05-16_14h07.45.102,eb_02psyexp,2022.2.4,60.01344115347131,
119,0,119,0,,,,,,,,,,,,,,,,,,,,,,,,,,,,,,,,,,,,,,,,,,,,,,,,,,,,,,,,,,,271.9293718785484,271.9293718785484,271.9293718785484,271.9293718785484,271.9293718785484,271.9293718785484,l,1,0.5010264154407196,272.46261830063304,273.4958918887569,,,,,,,,,,,,,,,,,,,,,,,,,,,,,,,,,,,,,,,,667655,2023-05-16_14h07.45.102,eb_02psyexp,2022.2.4,60.01344115347131,
120,0,120,0,,,,,,,,,,,,,,,,,,,,,,,,,,,,,,,,,,,,,,,,,,,,,,,,,,,,,,,,,,,273.4958918887569,273.4958918887569,273.4958918887569,273.4958918887569,273.4958918887569,273.4958918887569,s,1,0.790517257162719,274.3124953591323,275.3291037797753,,,,,,,,,,,,,,,,,,,,,,,,,,,,,,,,,,,,,,,,667655,2023-05-16_14h07.45.102,eb_02psyexp,2022.2.4,60.01344115347131,
121,0,121,0,,,,,,,,,,,,,,,,,,,,,,,,,,,,,,,,,,,,,,,,,,,,,,,,,,,,,,,,,,,275.3291037797753,275.3291037797753,275.3291037797753,275.3291037797753,275.3291037797753,275.3291037797753,l,1,0.5653423530457076,275.9123924903397,276.9456280459999,,,,,,,,,,,,,,,,,,,,,,,,,,,,,,,,,,,,,,,,667655,2023-05-16_14h07.45.102,eb_02psyexp,2022.2.4,60.01344115347131,
122,0,122,0,,,,,,,,,,,,,,,,,,,,,,,,,,,,,,,,,,,,,,,,,,,,,,,,,,,,,,,,,,,276.9456280459999,276.9456280459999,276.9456280459999,276.9456280459999,276.9456280459999,276.9456280459999,s,1,0.5647914858127479,277.52893637650413,278.5455457026692,,,,,,,,,,,,,,,,,,,,,,,,,,,,,,,,,,,,,,,,667655,2023-05-16_14h07.45.102,eb_02psyexp,2022.2.4,60.01344115347131,
123,0,123,0,,,,,,,,,,,,,,,,,,,,,,,,,,,,,,,,,,,,,,,,,,,,,,,,,,,,,,,,,,,278.5455457026692,278.5455457026692,278.5455457026692,278.5455457026692,278.5455457026692,278.5455457026692,l,1,0.5728908942546695,279.14549112907844,280.17876441536646,,,,,,,,,,,,,,,,,,,,,,,,,,,,,,,,,,,,,,,,667655,2023-05-16_14h07.45.102,eb_02psyexp,2022.2.4,60.01344115347131,
124,0,124,0,,,,,,,,,,,,,,,,,,,,,,,,,,,,,,,,,,,,,,,,,,,,,,,,,,,,,,,,,,,280.17876441536646,280.17876441536646,280.17876441536646,280.17876441536646,280.17876441536646,280.17876441536646,s,1,0.7716727683437057,280.97869637949043,281.9952830672846,,,,,,,,,,,,,,,,,,,,,,,,,,,,,,,,,,,,,,,,667655,2023-05-16_14h07.45.102,eb_02psyexp,2022.2.4,60.01344115347131,
125,0,125,0,,,,,,,,,,,,,,,,,,,,,,,,,,,,,,,,,,,,,,,,,,,,,,,,,,,,,,,,,,,281.9952830672846,281.9952830672846,281.9952830672846,281.9952830672846,281.9952830672846,281.9952830672846,l,1,0.6341612152173184,282.6619145186851,283.678531692829,,,,,,,,,,,,,,,,,,,,,,,,,,,,,,,,,,,,,,,,667655,2023-05-16_14h07.45.102,eb_02psyexp,2022.2.4,60.01344115347131,
126,0,126,0,,,,,,,,,,,,,,,,,,,,,,,,,,,,,,,,,,,,,,,,,,,,,,,,,,,,,,,,,,,283.678531692829,283.678531692829,283.678531692829,283.678531692829,283.678531692829,283.678531692829,l,1,0.5669376041769283,284.2784393886104,285.2950740697561,,,,,,,,,,,,,,,,,,,,,,,,,,,,,,,,,,,,,,,,667655,2023-05-16_14h07.45.102,eb_02psyexp,2022.2.4,60.01344115347131,
127,0,127,0,,,,,,,,,,,,,,,,,,,,,,,,,,,,,,,,,,,,,,,,,,,,,,,,,,,,,,,,,,,285.2950740697561,285.2950740697561,285.2950740697561,285.2950740697561,285.2950740697561,285.2950740697561,s,1,0.566399716277374,285.8783513102244,286.8949382998544,,,,,,,,,,,,,,,,,,,,,,,,,,,,,,,,,,,,,,,,667655,2023-05-16_14h07.45.102,eb_02psyexp,2022.2.4,60.01344115347131,
128,0,128,0,,,,,,,,,,,,,,,,,,,,,,,,,,,,,,,,,,,,,,,,,,,,,,,,,,,,,,,,,,,286.8949382998544,286.8949382998544,286.8949382998544,286.8949382998544,286.8949382998544,286.8949382998544,s,1,0.6145467196620302,287.5282348885812,288.54486323098536,,,,,,,,,,,,,,,,,,,,,,,,,,,,,,,,,,,,,,,,667655,2023-05-16_14h07.45.102,eb_02psyexp,2022.2.4,60.01344115347131,
129,0,129,0,,,,,,,,,,,,,,,,,,,,,,,,,,,,,,,,,,,,,,,,,,,,,,,,,,,,,,,,,,,288.54486323098536,288.54486323098536,288.54486323098536,288.54486323098536,288.54486323098536,288.54486323098536,l,1,0.5006361297855619,289.0781211231806,290.0944038529997,,,,,,,,,,,,,,,,,,,,,,,,,,,,,,,,,,,,,,,,667655,2023-05-16_14h07.45.102,eb_02psyexp,2022.2.4,60.01344115347131,
130,0,130,0,,,,,,,,,,,,,,,,,,,,,,,,,,,,,,,,,,,,,,,,,,,,,,,,,,,,,,,,,,,290.0944038529997,290.0944038529997,290.0944038529997,290.0944038529997,290.0944038529997,290.0944038529997,l,1,0.543075544948806,290.6613515776553,291.6779868625017,,,,,,,,,,,,,,,,,,,,,,,,,,,,,,,,,,,,,,,,667655,2023-05-16_14h07.45.102,eb_02psyexp,2022.2.4,60.01344115347131,
131,0,131,0,,,,,,,,,,,,,,,,,,,,,,,,,,,,,,,,,,,,,,,,,,,,,,,,,,,,,,,,,,,291.6779868625017,291.6779868625017,291.6779868625017,291.6779868625017,291.6779868625017,291.6779868625017,l,1,0.40750545923947357,292.1112443924794,293.1278715274966,,,,,,,,,,,,,,,,,,,,,,,,,,,,,,,,,,,,,,,,667655,2023-05-16_14h07.45.102,eb_02psyexp,2022.2.4,60.01344115347131,
132,0,132,0,,,,,,,,,,,,,,,,,,,,,,,,,,,,,,,,,,,,,,,,,,,,,,,,,,,,,,,,,,,293.1278715274966,293.1278715274966,293.1278715274966,293.1278715274966,293.1278715274966,293.1278715274966,l,1,0.4616386538109509,293.6111468965246,294.6277538079303,,,,,,,,,,,,,,,,,,,,,,,,,,,,,,,,,,,,,,,,667655,2023-05-16_14h07.45.102,eb_02psyexp,2022.2.4,60.01344115347131,
133,0,133,0,,,,,,,,,,,,,,,,,,,,,,,,,,,,,,,,,,,,,,,,,,,,,,,,,,,,,,,,,,,294.6277538079303,294.6277538079303,294.6277538079303,294.6277538079303,294.6277538079303,294.6277538079303,l,1,0.36177231080364436,295.01103485163185,296.0273064131907,,,,,,,,,,,,,,,,,,,,,,,,,,,,,,,,,,,,,,,,667655,2023-05-16_14h07.45.102,eb_02psyexp,2022.2.4,60.01344115347131,
134,0,134,0,,,,,,,,,,,,,,,,,,,,,,,,,,,,,,,,,,,,,,,,,,,,,,,,,,,,,,,,,,,296.0273064131907,296.0273064131907,296.0273064131907,296.0273064131907,296.0273064131907,296.0273064131907,s,1,0.4982204637781251,296.5442447504611,297.5608933164913,,,,,,,,,,,,,,,,,,,,,,,,,,,,,,,,,,,,,,,,667655,2023-05-16_14h07.45.102,eb_02psyexp,2022.2.4,60.01344115347131,
135,0,135,0,,,,,,,,,,,,,,,,,,,,,,,,,,,,,,,,,,,,,,,,,,,,,,,,,,,,,,,,,,,297.5608933164913,297.5608933164913,297.5608933164913,297.5608933164913,297.5608933164913,297.5608933164913,s,1,0.5076422554266173,298.0941590566508,299.1107858898322,,,,,,,,,,,,,,,,,,,,,,,,,,,,,,,,,,,,,,,,667655,2023-05-16_14h07.45.102,eb_02psyexp,2022.2.4,60.01344115347131,
136,0,136,0,,,,,,,,,,,,,,,,,,,,,,,,,,,,,,,,,,,,,,,,,,,,,,,,,,,,,,,,,,,299.1107858898322,299.1107858898322,299.1107858898322,299.1107858898322,299.1107858898322,299.1107858898322,l,1,0.5257602031924762,299.6606763502641,300.6773415177595,,,,,,,,,,,,,,,,,,,,,,,,,,,,,,,,,,,,,,,,667655,2023-05-16_14h07.45.102,eb_02psyexp,2022.2.4,60.01344115347131,
137,0,137,0,,,,,,,,,,,,,,,,,,,,,,,,,,,,,,,,,,,,,,,,,,,,,,,,,,,,,,,,,,,300.6773415177595,300.6773415177595,300.6773415177595,300.6773415177595,300.6773415177595,300.6773415177595,l,1,0.4712080476892879,301.17728084691043,302.19386874207703,,,,,,,,,,,,,,,,,,,,,,,,,,,,,,,,,,,,,,,,667655,2023-05-16_14h07.45.102,eb_02psyexp,2022.2.4,60.01344115347131,
138,0,138,0,,,,,,,,,,,,,,,,,,,,,,,,,,,,,,,,,,,,,,,,,,,,,,,,,,,,,,,,,,,302.19386874207703,302.19386874207703,302.19386874207703,302.19386874207703,302.19386874207703,302.19386874207703,s,1,0.5066817844490288,302.7271743257879,303.74376131541794,,,,,,,,,,,,,,,,,,,,,,,,,,,,,,,,,,,,,,,,667655,2023-05-16_14h07.45.102,eb_02psyexp,2022.2.4,60.01344115347131,
139,0,139,0,,,,,,,,,,,,,,,,,,,,,,,,,,,,,,,,,,,,,,,,,,,,,,,,,,,,,,,,,,,303.74376131541794,303.74376131541794,303.74376131541794,303.74376131541794,303.74376131541794,303.74376131541794,l,1,0.5408473247225629,304.3103984415211,305.34366659644,,,,,,,,,,,,,,,,,,,,,,,,,,,,,,,,,,,,,,,,667655,2023-05-16_14h07.45.102,eb_02psyexp,2022.2.4,60.01344115347131,
140,0,140,0,,,,,,,,,,,,,,,,,,,,,,,,,,,,,,,,,,,,,,,,,,,,,,,,,,,,,,,,,,,305.34366659644,305.34366659644,305.34366659644,305.34366659644,305.34366659644,305.34366659644,s,1,0.4048972160962876,305.77697151609755,306.7935868791683,,,,,,,,,,,,,,,,,,,,,,,,,,,,,,,,,,,,,,,,667655,2023-05-16_14h07.45.102,eb_02psyexp,2022.2.4,60.01344115347131,
141,0,141,0,,,,,,,,,,,,,,,,,,,,,,,,,,,,,,,,,,,,,,,,,,,,,,,,,,,,,,,,,,,306.7935868791683,306.7935868791683,306.7935868791683,306.7935868791683,306.7935868791683,306.7935868791683,l,1,0.4830035488703288,307.2935129271209,308.3267427477258,,,,,,,,,,,,,,,,,,,,,,,,,,,,,,,,,,,,,,,,667655,2023-05-16_14h07.45.102,eb_02psyexp,2022.2.4,60.01344115347131,
142,0,142,0,,,,,,,,,,,,,,,,,,,,,,,,,,,,,,,,,,,,,,,,,,,,,,,,,,,,,,,,,,,308.3267427477258,308.3267427477258,308.3267427477258,308.3267427477258,308.3267427477258,308.3267427477258,l,1,0.5898606234113686,308.9434010331606,309.9597100234969,,,,,,,,,,,,,,,,,,,,,,,,,,,,,,,,,,,,,,,,667655,2023-05-16_14h07.45.102,eb_02psyexp,2022.2.4,60.01344115347131,
143,0,143,0,,,,,,,,,,,,,,,,,,,,,,,,,,,,,,,,,,,,,,,,,,,,,,,,,,,,,,,,,,,309.9597100234969,309.9597100234969,309.9597100234969,309.9597100234969,309.9597100234969,309.9597100234969,l,1,0.7649265312938951,310.7432804762502,311.7765519514651,,,,,,,,,,,,,,,,,,,,,,,,,,,,,,,,,,,,,,,,667655,2023-05-16_14h07.45.102,eb_02psyexp,2022.2.4,60.01344115347131,
144,0,144,0,,,,,,,,,,,,,,,,,,,,,,,,,,,,,,,,,,,,,,,,,,,,,,,,,,,,,,,,,,,311.7765519514651,311.7765519514651,311.7765519514651,311.7765519514651,311.7765519514651,311.7765519514651,l,1,0.38805939321173355,312.1931705744646,313.2097847301484,,,,,,,,,,,,,,,,,,,,,,,,,,,,,,,,,,,,,,,,667655,2023-05-16_14h07.45.102,eb_02psyexp,2022.2.4,60.01344115347131,
145,0,145,0,,,,,,,,,,,,,,,,,,,,,,,,,,,,,,,,,,,,,,,,,,,,,,,,,,,,,,,,,,,313.2097847301484,313.2097847301484,313.2097847301484,313.2097847301484,313.2097847301484,313.2097847301484,l,1,0.5618448743625777,313.7930930606526,314.8263394827227,,,,,,,,,,,,,,,,,,,,,,,,,,,,,,,,,,,,,,,,667655,2023-05-16_14h07.45.102,eb_02psyexp,2022.2.4,60.01344115347131,
146,0,146,0,,,,,,,,,,,,,,,,,,,,,,,,,,,,,,,,,,,,,,,,,,,,,,,,,,,,,,,,,,,314.8263394827227,314.8263394827227,314.8263394827227,314.8263394827227,314.8263394827227,314.8263394827227,s,1,0.7853031856211601,315.6429363125062,316.6595543921867,,,,,,,,,,,,,,,,,,,,,,,,,,,,,,,,,,,,,,,,667655,2023-05-16_14h07.45.102,eb_02psyexp,2022.2.4,60.01344115347131,
147,0,147,0,,,,,,,,,,,,,,,,,,,,,,,,,,,,,,,,,,,,,,,,,,,,,,,,,,,,,,,,,,,316.6595543921867,316.6595543921867,316.6595543921867,316.6595543921867,316.6595543921867,316.6595543921867,l,1,0.46409537074214313,317.14282674275455,318.17610697148484,,,,,,,,,,,,,,,,,,,,,,,,,,,,,,,,,,,,,,,,667655,2023-05-16_14h07.45.102,eb_02psyexp,2022.2.4,60.01344115347131,
148,0,148,0,,,,,,,,,,,,,,,,,,,,,,,,,,,,,,,,,,,,,,,,,,,,,,,,,,,,,,,,,,,318.17610697148484,318.17610697148484,318.17610697148484,318.17610697148484,318.17610697148484,318.17610697148484,s,1,0.6035278658091556,318.80937790338066,319.8259974922694,,,,,,,,,,,,,,,,,,,,,,,,,,,,,,,,,,,,,,,,667655,2023-05-16_14h07.45.102,eb_02psyexp,2022.2.4,60.01344115347131,
149,0,149,0,,,,,,,,,,,,,,,,,,,,,,,,,,,,,,,,,,,,,,,,,,,,,,,,,,,,,,,,,,,319.8259974922694,319.8259974922694,319.8259974922694,319.8259974922694,319.8259974922694,319.8259974922694,l,1,0.8016713375982363,320.6592555655807,321.69251979651744,,,,,,,,,,,,,,,,,,,,,,,,,,,,,,,,,,,,,,,,667655,2023-05-16_14h07.45.102,eb_02psyexp,2022.2.4,60.01344115347131,
150,0,150,0,,,,,,,,,,,,,,,,,,,,,,,,,,,,,,,,,,,,,,,,,,,,,,,,,,,,,,,,,,,321.69251979651744,321.69251979651744,321.69251979651744,321.69251979651744,321.69251979651744,321.69251979651744,s,1,0.6551614814379718,322.3758019268571,323.39240944196354,,,,,,,,,,,,,,,,,,,,,,,,,,,,,,,,,,,,,,,,667655,2023-05-16_14h07.45.102,eb_02psyexp,2022.2.4,60.01344115347131,
151,0,151,0,,,,,,,,,,,,,,,,,,,,,,,,,,,,,,,,,,,,,,,,,,,,,,,,,,,,,,,,,,,323.39240944196354,323.39240944196354,323.39240944196354,323.39240944196354,323.39240944196354,323.39240944196354,l,1,0.8592760521714808,324.27568807090574,325.30893600221316,,,,,,,,,,,,,,,,,,,,,,,,,,,,,,,,,,,,,,,,667655,2023-05-16_14h07.45.102,eb_02psyexp,2022.2.4,60.01344115347131,
152,0,152,0,,,,,,,,,,,,,,,,,,,,,,,,,,,,,,,,,,,,,,,,,,,,,,,,,,,,,,,,,,,325.30893600221316,325.30893600221316,325.30893600221316,325.30893600221316,325.30893600221316,325.30893600221316,s,1,0.7027591268124525,326.04221333321766,327.0588338276575,,,,,,,,,,,,,,,,,,,,,,,,,,,,,,,,,,,,,,,,667655,2023-05-16_14h07.45.102,eb_02psyexp,2022.2.4,60.01344115347131,
153,0,153,0,,,,,,,,,,,,,,,,,,,,,,,,,,,,,,,,,,,,,,,,,,,,,,,,,,,,,,,,,,,327.0588338276575,327.0588338276575,327.0588338276575,327.0588338276575,327.0588338276575,327.0588338276575,l,1,0.8648722595535219,327.94208891269227,328.97534076798183,,,,,,,,,,,,,,,,,,,,,,,,,,,,,,,,,,,,,,,,667655,2023-05-16_14h07.45.102,eb_02psyexp,2022.2.4,60.01344115347131,
154,0,154,0,,,,,,,,,,,,,,,,,,,,,,,,,,,,,,,,,,,,,,,,,,,,,,,,,,,,,,,,,,,328.97534076798183,328.97534076798183,328.97534076798183,328.97534076798183,328.97534076798183,328.97534076798183,s,1,0.7313749438617378,329.725285983106,330.74157112768444,,,,,,,,,,,,,,,,,,,,,,,,,,,,,,,,,,,,,,,,667655,2023-05-16_14h07.45.102,eb_02psyexp,2022.2.4,60.01344115347131,
155,0,155,0,,,,,,,,,,,,,,,,,,,,,,,,,,,,,,,,,,,,,,,,,,,,,,,,,,,,,,,,,,,330.74157112768444,330.74157112768444,330.74157112768444,330.74157112768444,330.74157112768444,330.74157112768444,l,1,0.5571539002994541,331.3251773792581,332.3584401009721,,,,,,,,,,,,,,,,,,,,,,,,,,,,,,,,,,,,,,,,667655,2023-05-16_14h07.45.102,eb_02psyexp,2022.2.4,60.01344115347131,
156,0,156,0,,,,,,,,,,,,,,,,,,,,,,,,,,,,,,,,,,,,,,,,,,,,,,,,,,,,,,,,,,,332.3584401009721,332.3584401009721,332.3584401009721,332.3584401009721,332.3584401009721,332.3584401009721,s,1,0.5402925335220061,332.92507028463297,333.94169591042737,,,,,,,,,,,,,,,,,,,,,,,,,,,,,,,,,,,,,,,,667655,2023-05-16_14h07.45.102,eb_02psyexp,2022.2.4,60.01344115347131,
157,0,157,0,,,,,,,,,,,,,,,,,,,,,,,,,,,,,,,,,,,,,,,,,,,,,,,,,,,,,,,,,,,333.94169591042737,333.94169591042737,333.94169591042737,333.94169591042737,333.94169591042737,333.94169591042737,l,1,0.589045943619567,334.5582793382928,335.59155654856295,,,,,,,,,,,,,,,,,,,,,,,,,,,,,,,,,,,,,,,,667655,2023-05-16_14h07.45.102,eb_02psyexp,2022.2.4,60.01344115347131,
158,0,158,0,,,,,,,,,,,,,,,,,,,,,,,,,,,,,,,,,,,,,,,,,,,,,,,,,,,,,,,,,,,335.59155654856295,335.59155654856295,335.59155654856295,335.59155654856295,335.59155654856295,335.59155654856295,l,1,0.563198649440892,336.17483710931265,337.19141685466457,,,,,,,,,,,,,,,,,,,,,,,,,,,,,,,,,,,,,,,,667655,2023-05-16_14h07.45.102,eb_02psyexp,2022.2.4,60.01344115347131,
159,0,159,0,,,,,,,,,,,,,,,,,,,,,,,,,,,,,,,,,,,,,,,,,,,,,,,,,,,,,,,,,,,337.19141685466457,337.19141685466457,337.19141685466457,337.19141685466457,337.19141685466457,337.19141685466457,l,1,0.6113465583475772,337.8247330633312,338.85798129647446,,,,,,,,,,,,,,,,,,,,,,,,,,,,,,,,,,,,,,,,667655,2023-05-16_14h07.45.102,eb_02psyexp,2022.2.4,60.01344115347131,
160,0,160,0,,,,,,,,,,,,,,,,,,,,,,,,,,,,,,,,,,,,,,,,,,,,,,,,,,,,,,,,,,,338.85798129647446,338.85798129647446,338.85798129647446,338.85798129647446,338.85798129647446,338.85798129647446,s,1,0.5047735199914314,339.3912787303707,340.40789831927395,,,,,,,,,,,,,,,,,,,,,,,,,,,,,,,,,,,,,,,,667655,2023-05-16_14h07.45.102,eb_02psyexp,2022.2.4,60.01344115347131,
161,0,161,0,,,,,,,,,,,,,,,,,,,,,,,,,,,,,,,,,,,,,,,,,,,,,,,,,,,,,,,,,,,340.40789831927395,340.40789831927395,340.40789831927395,340.40789831927395,340.40789831927395,340.40789831927395,l,1,0.4748682208592072,340.9078023325419,341.94110610517964,,,,,,,,,,,,,,,,,,,,,,,,,,,,,,,,,,,,,,,,667655,2023-05-16_14h07.45.102,eb_02psyexp,2022.2.4,60.01344115347131,
162,0,162,0,,,,,,,,,,,,,,,,,,,,,,,,,,,,,,,,,,,,,,,,,,,,,,,,,,,,,,,,,,,341.94110610517964,341.94110610517964,341.94110610517964,341.94110610517964,341.94110610517964,341.94110610517964,s,1,0.5337168389232829,342.50773689252674,343.5409999160911,,,,,,,,,,,,,,,,,,,,,,,,,,,,,,,,,,,,,,,,667655,2023-05-16_14h07.45.102,eb_02psyexp,2022.2.4,60.01344115347131,
163,0,163,0,,,,,,,,,,,,,,,,,,,,,,,,,,,,,,,,,,,,,,,,,,,,,,,,,,,,,,,,,,,343.5409999160911,343.5409999160911,343.5409999160911,343.5409999160911,343.5409999160911,343.5409999160911,s,1,0.9168315660062945,344.49092170804215,345.52419137218385,,,,,,,,,,,,,,,,,,,,,,,,,,,,,,,,,,,,,,,,667655,2023-05-16_14h07.45.102,eb_02psyexp,2022.2.4,60.01344115347131,
164,0,164,0,,,,,,,,,,,,,,,,,,,,,,,,,,,,,,,,,,,,,,,,,,,,,,,,,,,,,,,,,,,345.52419137218385,345.52419137218385,345.52419137218385,345.52419137218385,345.52419137218385,345.52419137218385,s,1,0.5496189421246527,346.0908094820479,347.107427259878,,,,,,,,,,,,,,,,,,,,,,,,,,,,,,,,,,,,,,,,667655,2023-05-16_14h07.45.102,eb_02psyexp,2022.2.4,60.01344115347131,
165,0,165,0,,,,,,,,,,,,,,,,,,,,,,,,,,,,,,,,,,,,,,,,,,,,,,,,,,,,,,,,,,,347.107427259878,347.107427259878,347.107427259878,347.107427259878,347.107427259878,347.107427259878,l,1,0.5183619808085496,347.65735545093776,348.69063537781767,,,,,,,,,,,,,,,,,,,,,,,,,,,,,,,,,,,,,,,,667655,2023-05-16_14h07.45.102,eb_02psyexp,2022.2.4,60.01344115347131,
166,0,166,0,,,,,,,,,,,,,,,,,,,,,,,,,,,,,,,,,,,,,,,,,,,,,,,,,,,,,,,,,,,348.69063537781767,348.69063537781767,348.69063537781767,348.69063537781767,348.69063537781767,348.69063537781767,s,1,0.5752012163284235,349.29058503005945,350.307188017483,,,,,,,,,,,,,,,,,,,,,,,,,,,,,,,,,,,,,,,,667655,2023-05-16_14h07.45.102,eb_02psyexp,2022.2.4,60.01344115347131,
167,0,167,0,,,,,,,,,,,,,,,,,,,,,,,,,,,,,,,,,,,,,,,,,,,,,,,,,,,,,,,,,,,350.307188017483,350.307188017483,350.307188017483,350.307188017483,350.307188017483,350.307188017483,l,1,0.494647523824824,350.82384111118154,351.84039006833336,,,,,,,,,,,,,,,,,,,,,,,,,,,,,,,,,,,,,,,,667655,2023-05-16_14h07.45.102,eb_02psyexp,2022.2.4,60.01344115347131,
168,0,168,0,,,,,,,,,,,,,,,,,,,,,,,,,,,,,,,,,,,,,,,,,,,,,,,,,,,,,,,,,,,351.84039006833336,351.84039006833336,351.84039006833336,351.84039006833336,351.84039006833336,351.84039006833336,s,1,0.5455612390069291,352.407034740565,353.42365734791383,,,,,,,,,,,,,,,,,,,,,,,,,,,,,,,,,,,,,,,,667655,2023-05-16_14h07.45.102,eb_02psyexp,2022.2.4,60.01344115347131,
169,0,169,0,,,,,,,,,,,,,,,,,,,,,,,,,,,,,,,,,,,,,,,,,,,,,,,,,,,,,,,,,,,353.42365734791383,353.42365734791383,353.42365734791383,353.42365734791383,353.42365734791383,353.42365734791383,l,1,0.44223303503531497,353.89029079148895,354.9068711405416,,,,,,,,,,,,,,,,,,,,,,,,,,,,,,,,,,,,,,,,667655,2023-05-16_14h07.45.102,eb_02psyexp,2022.2.4,60.01344115347131,
170,0,170,0,,,,,,,,,,,,,,,,,,,,,,,,,,,,,,,,,,,,,,,,,,,,,,,,,,,,,,,,,,,354.9068711405416,354.9068711405416,354.9068711405416,354.9068711405416,354.9068711405416,354.9068711405416,s,1,0.4629897122940747,355.39015677229327,356.40678209625185,,,,,,,,,,,,,,,,,,,,,,,,,,,,,,,,,,,,,,,,667655,2023-05-16_14h07.45.102,eb_02psyexp,2022.2.4,60.01344115347131,
171,0,171,0,,,,,,,,,,,,,,,,,,,,,,,,,,,,,,,,,,,,,,,,,,,,,,,,,,,,,,,,,,,356.40678209625185,356.40678209625185,356.40678209625185,356.40678209625185,356.40678209625185,356.40678209625185,l,1,0.43508081637264695,356.87339048669674,357.89001399958215,,,,,,,,,,,,,,,,,,,,,,,,,,,,,,,,,,,,,,,,667655,2023-05-16_14h07.45.102,eb_02psyexp,2022.2.4,60.01344115347131,
172,0,172,0,,,,,,,,,,,,,,,,,,,,,,,,,,,,,,,,,,,,,,,,,,,,,,,,,,,,,,,,,,,357.89001399958215,357.89001399958215,357.89001399958215,357.89001399958215,357.89001399958215,357.89001399958215,s,1,0.49591225462791044,358.4066178925277,359.4232365758944,,,,,,,,,,,,,,,,,,,,,,,,,,,,,,,,,,,,,,,,667655,2023-05-16_14h07.45.102,eb_02psyexp,2022.2.4,60.01344115347131,
173,0,173,0,,,,,,,,,,,,,,,,,,,,,,,,,,,,,,,,,,,,,,,,,,,,,,,,,,,,,,,,,,,359.4232365758944,359.4232365758944,359.4232365758944,359.4232365758944,359.4232365758944,359.4232365758944,s,1,0.8816560521663632,360.3231532062928,361.3397344608675,,,,,,,,,,,,,,,,,,,,,,,,,,,,,,,,,,,,,,,,667655,2023-05-16_14h07.45.102,eb_02psyexp,2022.2.4,60.01344115347131,
174,0,174,0,,,,,,,,,,,,,,,,,,,,,,,,,,,,,,,,,,,,,,,,,,,,,,,,,,,,,,,,,,,361.3397344608675,361.3397344608675,361.3397344608675,361.3397344608675,361.3397344608675,361.3397344608675,s,1,1.0611675340478541,362.42300445704313,363.4396137832082,,,,,,,,,,,,,,,,,,,,,,,,,,,,,,,,,,,,,,,,667655,2023-05-16_14h07.45.102,eb_02psyexp,2022.2.4,60.01344115347131,
175,0,175,0,,,,,,,,,,,,,,,,,,,,,,,,,,,,,,,,,,,,,,,,,,,,,,,,,,,,,,,,,,,363.4396137832082,363.4396137832082,363.4396137832082,363.4396137832082,363.4396137832082,363.4396137832082,s,1,1.4813080851745326,364.93949455441907,365.9560815440491,,,,,,,,,,,,,,,,,,,,,,,,,,,,,,,,,,,,,,,,667655,2023-05-16_14h07.45.102,eb_02psyexp,2022.2.4,60.01344115347131,
176,0,176,0,,,,,,,,,,,,,,,,,,,,,,,,,,,,,,,,,,,,,,,,,,,,,,,,,,,,,,,,,,,365.9560815440491,365.9560815440491,365.9560815440491,365.9560815440491,365.9560815440491,365.9560815440491,l,1,0.6528472353966208,366.6393860109383,367.65599714817654,,,,,,,,,,,,,,,,,,,,,,,,,,,,,,,,,,,,,,,,667655,2023-05-16_14h07.45.102,eb_02psyexp,2022.2.4,60.01344115347131,
177,0,177,0,,,,,,,,,,,,,,,,,,,,,,,,,,,,,,,,,,,,,,,,,,,,,,,,,,,,,,,,,,,367.65599714817654,367.65599714817654,367.65599714817654,367.65599714817654,367.65599714817654,367.65599714817654,s,1,0.5129384288156871,368.18926319018647,369.20584625583433,,,,,,,,,,,,,,,,,,,,,,,,,,,,,,,,,,,,,,,,667655,2023-05-16_14h07.45.102,eb_02psyexp,2022.2.4,60.01344115347131,
178,0,178,0,,,,,,,,,,,,,,,,,,,,,,,,,,,,,,,,,,,,,,,,,,,,,,,,,,,,,,,,,,,369.20584625583433,369.20584625583433,369.20584625583433,369.20584625583433,369.20584625583433,369.20584625583433,l,1,0.5710846534202574,369.8058221685933,370.8224100637599,,,,,,,,,,,,,,,,,,,,,,,,,,,,,,,,,,,,,,,,667655,2023-05-16_14h07.45.102,eb_02psyexp,2022.2.4,60.01344115347131,
179,0,179,0,,,,,,,,,,,,,,,,,,,,,,,,,,,,,,,,,,,,,,,,,,,,,,,,,,,,,,,,,,,370.8224100637599,370.8224100637599,370.8224100637599,370.8224100637599,370.8224100637599,370.8224100637599,s,1,0.682544261435396,371.52236460588756,372.5389974759746,,,,,,,,,,,,,,,,,,,,,,,,,,,,,,,,,,,,,,,,667655,2023-05-16_14h07.45.102,eb_02psyexp,2022.2.4,60.01344115347131,
180,0,180,0,,,,,,,,,,,,,,,,,,,,,,,,,,,,,,,,,,,,,,,,,,,,,,,,,,,,,,,,,,,372.5389974759746,372.5389974759746,372.5389974759746,372.5389974759746,372.5389974759746,372.5389974759746,l,1,0.49396444846934173,373.05559442649246,374.0722076766542,,,,,,,,,,,,,,,,,,,,,,,,,,,,,,,,,,,,,,,,667655,2023-05-16_14h07.45.102,eb_02psyexp,2022.2.4,60.01344115347131,
181,0,181,0,,,,,,,,,,,,,,,,,,,,,,,,,,,,,,,,,,,,,,,,,,,,,,,,,,,,,,,,,,,374.0722076766542,374.0722076766542,374.0722076766542,374.0722076766542,374.0722076766542,374.0722076766542,s,1,0.6168259516853141,374.7221449834324,375.7387639686349,,,,,,,,,,,,,,,,,,,,,,,,,,,,,,,,,,,,,,,,667655,2023-05-16_14h07.45.102,eb_02psyexp,2022.2.4,60.01344115347131,
182,0,182,0,,,,,,,,,,,,,,,,,,,,,,,,,,,,,,,,,,,,,,,,,,,,,,,,,,,,,,,,,,,375.7387639686349,375.7387639686349,375.7387639686349,375.7387639686349,375.7387639686349,375.7387639686349,s,1,0.6852189104974968,376.45533085538773,377.47197187528946,,,,,,,,,,,,,,,,,,,,,,,,,,,,,,,,,,,,,,,,667655,2023-05-16_14h07.45.102,eb_02psyexp,2022.2.4,60.01344115347131,
183,0,183,0,,,,,,,,,,,,,,,,,,,,,,,,,,,,,,,,,,,,,,,,,,,,,,,,,,,,,,,,,,,377.47197187528946,377.47197187528946,377.47197187528946,377.47197187528946,377.47197187528946,377.47197187528946,l,1,0.5920052325673169,378.08857069724763,379.121846398295,,,,,,,,,,,,,,,,,,,,,,,,,,,,,,,,,,,,,,,,667655,2023-05-16_14h07.45.102,eb_02psyexp,2022.2.4,60.01344115347131,
184,0,184,0,,,,,,,,,,,,,,,,,,,,,,,,,,,,,,,,,,,,,,,,,,,,,,,,,,,,,,,,,,,379.121846398295,379.121846398295,379.121846398295,379.121846398295,379.121846398295,379.121846398295,s,1,0.84617175081803,379.9884553320735,381.00504624568566,,,,,,,,,,,,,,,,,,,,,,,,,,,,,,,,,,,,,,,,667655,2023-05-16_14h07.45.102,eb_02psyexp,2022.2.4,60.01344115347131,
185,0,185,0,,,,,,,,,,,,,,,,,,,,,,,,,,,,,,,,,,,,,,,,,,,,,,,,,,,,,,,,,,,381.00504624568566,381.00504624568566,381.00504624568566,381.00504624568566,381.00504624568566,381.00504624568566,l,1,0.49095022371329833,381.52167277701665,382.5382875364012,,,,,,,,,,,,,,,,,,,,,,,,,,,,,,,,,,,,,,,,667655,2023-05-16_14h07.45.102,eb_02psyexp,2022.2.4,60.01344115347131,
186,0,186,0,,,,,,,,,,,,,,,,,,,,,,,,,,,,,,,,,,,,,,,,,,,,,,,,,,,,,,,,,,,382.5382875364012,382.5382875364012,382.5382875364012,382.5382875364012,382.5382875364012,382.5382875364012,s,1,0.5977203668880975,383.1548881694325,384.17151590815047,,,,,,,,,,,,,,,,,,,,,,,,,,,,,,,,,,,,,,,,667655,2023-05-16_14h07.45.102,eb_02psyexp,2022.2.4,60.01344115347131,
187,0,187,0,,,,,,,,,,,,,,,,,,,,,,,,,,,,,,,,,,,,,,,,,,,,,,,,,,,,,,,,,,,384.17151590815047,384.17151590815047,384.17151590815047,384.17151590815047,384.17151590815047,384.17151590815047,s,1,1.2045080170792062,385.40473588860186,386.42134129078477,,,,,,,,,,,,,,,,,,,,,,,,,,,,,,,,,,,,,,,,667655,2023-05-16_14h07.45.102,eb_02psyexp,2022.2.4,60.01344115347131,
188,0,188,0,,,,,,,,,,,,,,,,,,,,,,,,,,,,,,,,,,,,,,,,,,,,,,,,,,,,,,,,,,,386.42134129078477,386.42134129078477,386.42134129078477,386.42134129078477,386.42134129078477,386.42134129078477,l,1,0.546709457601537,386.9879533637286,388.0045690286497,,,,,,,,,,,,,,,,,,,,,,,,,,,,,,,,,,,,,,,,667655,2023-05-16_14h07.45.102,eb_02psyexp,2022.2.4,60.01344115347131,
189,0,189,0,,,,,,,,,,,,,,,,,,,,,,,,,,,,,,,,,,,,,,,,,,,,,,,,,,,,,,,,,,,388.0045690286497,388.0045690286497,388.0045690286497,388.0045690286497,388.0045690286497,388.0045690286497,s,1,0.5154727199114859,388.5378438241605,389.5544603946182,,,,,,,,,,,,,,,,,,,,,,,,,,,,,,,,,,,,,,,,667655,2023-05-16_14h07.45.102,eb_02psyexp,2022.2.4,60.01344115347131,
190,0,190,0,,,,,,,,,,,,,,,,,,,,,,,,,,,,,,,,,,,,,,,,,,,,,,,,,,,,,,,,,,,389.5544603946182,389.5544603946182,389.5544603946182,389.5544603946182,389.5544603946182,389.5544603946182,l,1,0.629605769601767,390.2043892497313,391.22098770947196,,,,,,,,,,,,,,,,,,,,,,,,,,,,,,,,,,,,,,,,667655,2023-05-16_14h07.45.102,eb_02psyexp,2022.2.4,60.01344115347131,
191,0,191,0,,,,,,,,,,,,,,,,,,,,,,,,,,,,,,,,,,,,,,,,,,,,,,,,,,,,,,,,,,,391.22098770947196,391.22098770947196,391.22098770947196,391.22098770947196,391.22098770947196,391.22098770947196,l,1,0.6020775002980372,391.85427946868003,392.87086525093764,,,,,,,,,,,,,,,,,,,,,,,,,,,,,,,,,,,,,,,,667655,2023-05-16_14h07.45.102,eb_02psyexp,2022.2.4,60.01344115347131,
192,0,192,0,,,,,,,,,,,,,,,,,,,,,,,,,,,,,,,,,,,,,,,,,,,,,,,,,,,,,,,,,,,392.87086525093764,392.87086525093764,392.87086525093764,392.87086525093764,392.87086525093764,392.87086525093764,s,1,0.4962500192486914,393.38752890921023,394.4040926567832,,,,,,,,,,,,,,,,,,,,,,,,,,,,,,,,,,,,,,,,667655,2023-05-16_14h07.45.102,eb_02psyexp,2022.2.4,60.01344115347131,
193,0,193,0,,,,,,,,,,,,,,,,,,,,,,,,,,,,,,,,,,,,,,,,,,,,,,,,,,,,,,,,,,,394.4040926567832,394.4040926567832,394.4040926567832,394.4040926567832,394.4040926567832,394.4040926567832,l,1,1.0990074342262233,395.52069208242756,396.5372606595047,,,,,,,,,,,,,,,,,,,,,,,,,,,,,,,,,,,,,,,,667655,2023-05-16_14h07.45.102,eb_02psyexp,2022.2.4,60.01344115347131,
194,0,194,0,,,,,,,,,,,,,,,,,,,,,,,,,,,,,,,,,,,,,,,,,,,,,,,,,,,,,,,,,,,396.5372606595047,396.5372606595047,396.5372606595047,396.5372606595047,396.5372606595047,396.5372606595047,s,1,1.0218431598768802,397.5872145073954,398.60382141881564,,,,,,,,,,,,,,,,,,,,,,,,,,,,,,,,,,,,,,,,667655,2023-05-16_14h07.45.102,eb_02psyexp,2022.2.4,60.01344115347131,
195,0,195,0,,,,,,,,,,,,,,,,,,,,,,,,,,,,,,,,,,,,,,,,,,,,,,,,,,,,,,,,,,,398.60382141881564,398.60382141881564,398.60382141881564,398.60382141881564,398.60382141881564,398.60382141881564,l,1,1.091290765310987,399.7203969987022,400.75366998313984,,,,,,,,,,,,,,,,,,,,,,,,,,,,,,,,,,,,,,,,667655,2023-05-16_14h07.45.102,eb_02psyexp,2022.2.4,60.01344115347131,
196,0,196,0,,,,,,,,,,,,,,,,,,,,,,,,,,,,,,,,,,,,,,,,,,,,,,,,,,,,,,,,,,,400.75366998313984,400.75366998313984,400.75366998313984,400.75366998313984,400.75366998313984,400.75366998313984,s,1,0.6134630958986236,401.38695359253325,402.40356050393893,,,,,,,,,,,,,,,,,,,,,,,,,,,,,,,,,,,,,,,,667655,2023-05-16_14h07.45.102,eb_02psyexp,2022.2.4,60.01344115347131,
197,0,197,0,,,,,,,,,,,,,,,,,,,,,,,,,,,,,,,,,,,,,,,,,,,,,,,,,,,,,,,,,,,402.40356050393893,402.40356050393893,402.40356050393893,402.40356050393893,402.40356050393893,402.40356050393893,l,1,0.48360512606450357,402.92017254671373,403.9367604418803,,,,,,,,,,,,,,,,,,,,,,,,,,,,,,,,,,,,,,,,667655,2023-05-16_14h07.45.102,eb_02psyexp,2022.2.4,60.01344115347131,
198,0,198,0,,,,,,,,,,,,,,,,,,,,,,,,,,,,,,,,,,,,,,,,,,,,,,,,,,,,,,,,,,,403.9367604418803,403.9367604418803,403.9367604418803,403.9367604418803,403.9367604418803,403.9367604418803,s,1,0.5343860294233309,404.5033993790421,405.52000659229816,,,,,,,,,,,,,,,,,,,,,,,,,,,,,,,,,,,,,,,,667655,2023-05-16_14h07.45.102,eb_02psyexp,2022.2.4,60.01344115347131,
199,0,199,0,,,,,0,0,0,0,,,,,,,,,,,,,,,,,,,,,,,,,,,,,,,,,,,,,,,,,,,,,,,,,,,405.52000659229816,405.52000659229816,405.52000659229816,405.52000659229816,405.52000659229816,405.52000659229816,s,1,0.46315663259883877,406.0032967517327,407.00322038492595,407.00322038492595,407.00322038492595,space,32.353120827741805,,,,,,,,,,,,,,,,,,,,,,,,,,,,,,,,,,,,667655,2023-05-16_14h07.45.102,eb_02psyexp,2022.2.4,60.01344115347131,
199,0,199,0,,,,,,,,,,,,,,,,,,,,,,,,,,,,,,,,,,,,,,,,,,,,,,,,,,,,,,,,,,,,,,,,,,,,,,,,,,,,,,,,,,,,,,,,,,,,,,,,,,,,,,,,,,,,,667655,2023-05-16_14h07.45.102,eb_02psyexp,2022.2.4,60.01344115347131,
200,0,200,0,,,,,,,,,,,,,,,,,,,,,,,,,,,,,,,,,,,,,,,,,,,,,,,,,,,,,,,,,,,439.4009745973308,439.4009745973308,439.4009745973308,439.4009745973308,439.4009745973308,439.4009745973308,l,1,1.9073759677121416,441.33415938264807,442.35076418114477,,,,,,,,,,,,,,,,,,,,,,,,,,,,,,,,,,,,,,,,667655,2023-05-16_14h07.45.102,eb_02psyexp,2022.2.4,60.01344115347131,
201,0,201,0,,,,,,,,,,,,,,,,,,,,,,,,,,,,,,,,,,,,,,,,,,,,,,,,,,,,,,,,,,,442.35076418114477,442.35076418114477,442.35076418114477,442.35076418114477,442.35076418114477,442.35076418114477,s,1,0.5815906725183595,442.9507126259996,443.9673367425712,,,,,,,,,,,,,,,,,,,,,,,,,,,,,,,,,,,,,,,,667655,2023-05-16_14h07.45.102,eb_02psyexp,2022.2.4,60.01344115347131,
202,0,202,0,,,,,,,,,,,,,,,,,,,,,,,,,,,,,,,,,,,,,,,,,,,,,,,,,,,,,,,,,,,443.9673367425712,443.9673367425712,443.9673367425712,443.9673367425712,443.9673367425712,443.9673367425712,l,1,0.5090394962026039,444.5006082178006,445.51691449152713,,,,,,,,,,,,,,,,,,,,,,,,,,,,,,,,,,,,,,,,667655,2023-05-16_14h07.45.102,eb_02psyexp,2022.2.4,60.01344115347131,
203,0,203,0,,,,,,,,,,,,,,,,,,,,,,,,,,,,,,,,,,,,,,,,,,,,,,,,,,,,,,,,,,,445.51691449152713,445.51691449152713,445.51691449152713,445.51691449152713,445.51691449152713,445.51691449152713,s,1,0.5034420814336045,446.05049988560495,447.06711313575215,,,,,,,,,,,,,,,,,,,,,,,,,,,,,,,,,,,,,,,,667655,2023-05-16_14h07.45.102,eb_02psyexp,2022.2.4,60.01344115347131,
204,0,204,0,,,,,,,,,,,,,,,,,,,,,,,,,,,,,,,,,,,,,,,,,,,,,,,,,,,,,,,,,,,447.06711313575215,447.06711313575215,447.06711313575215,447.06711313575215,447.06711313575215,447.06711313575215,l,1,0.4172589786030585,447.51701953361044,448.53364998892357,,,,,,,,,,,,,,,,,,,,,,,,,,,,,,,,,,,,,,,,667655,2023-05-16_14h07.45.102,eb_02psyexp,2022.2.4,60.01344115347131,
205,0,205,0,,,,,,,,,,,,,,,,,,,,,,,,,,,,,,,,,,,,,,,,,,,,,,,,,,,,,,,,,,,448.53364998892357,448.53364998892357,448.53364998892357,448.53364998892357,448.53364998892357,448.53364998892357,s,1,0.44675316476786975,449.0002918841783,450.01688068488147,,,,,,,,,,,,,,,,,,,,,,,,,,,,,,,,,,,,,,,,667655,2023-05-16_14h07.45.102,eb_02psyexp,2022.2.4,60.01344115347131,
206,0,206,0,,,,,,,,,,,,,,,,,,,,,,,,,,,,,,,,,,,,,,,,,,,,,,,,,,,,,,,,,,,450.01688068488147,450.01688068488147,450.01688068488147,450.01688068488147,450.01688068488147,450.01688068488147,l,1,0.46753761178115383,450.5168686110701,451.5334743151034,,,,,,,,,,,,,,,,,,,,,,,,,,,,,,,,,,,,,,,,667655,2023-05-16_14h07.45.102,eb_02psyexp,2022.2.4,60.01344115347131,
207,0,207,0,,,,,,,,,,,,,,,,,,,,,,,,,,,,,,,,,,,,,,,,,,,,,,,,,,,,,,,,,,,451.5334743151034,451.5334743151034,451.5334743151034,451.5334743151034,451.5334743151034,451.5334743151034,s,1,0.5029364909714786,452.06673703681736,453.08335722940683,,,,,,,,,,,,,,,,,,,,,,,,,,,,,,,,,,,,,,,,667655,2023-05-16_14h07.45.102,eb_02psyexp,2022.2.4,60.01344115347131,
208,0,208,0,,,,,,,,,,,,,,,,,,,,,,,,,,,,,,,,,,,,,,,,,,,,,,,,,,,,,,,,,,,453.08335722940683,453.08335722940683,453.08335722940683,453.08335722940683,453.08335722940683,453.08335722940683,l,1,0.4640778637258336,453.5666401445487,454.58326214821136,,,,,,,,,,,,,,,,,,,,,,,,,,,,,,,,,,,,,,,,667655,2023-05-16_14h07.45.102,eb_02psyexp,2022.2.4,60.01344115347131,
209,0,209,0,,,,,,,,,,,,,,,,,,,,,,,,,,,,,,,,,,,,,,,,,,,,,,,,,,,,,,,,,,,454.58326214821136,454.58326214821136,454.58326214821136,454.58326214821136,454.58326214821136,454.58326214821136,s,1,0.5241740074125119,455.1331580418482,456.14983618869155,,,,,,,,,,,,,,,,,,,,,,,,,,,,,,,,,,,,,,,,667655,2023-05-16_14h07.45.102,eb_02psyexp,2022.2.4,60.01344115347131,
210,0,210,0,,,,,,,,,,,,,,,,,,,,,,,,,,,,,,,,,,,,,,,,,,,,,,,,,,,,,,,,,,,456.14983618869155,456.14983618869155,456.14983618869155,456.14983618869155,456.14983618869155,456.14983618869155,s,1,0.4855985108297318,456.6664376668923,457.6830436727614,,,,,,,,,,,,,,,,,,,,,,,,,,,,,,,,,,,,,,,,667655,2023-05-16_14h07.45.102,eb_02psyexp,2022.2.4,60.01344115347131,
211,0,211,0,,,,,,,,,,,,,,,,,,,,,,,,,,,,,,,,,,,,,,,,,,,,,,,,,,,,,,,,,,,457.6830436727614,457.6830436727614,457.6830436727614,457.6830436727614,457.6830436727614,457.6830436727614,s,1,0.4884029532695422,458.1996403214289,459.2162704749062,,,,,,,,,,,,,,,,,,,,,,,,,,,,,,,,,,,,,,,,667655,2023-05-16_14h07.45.102,eb_02psyexp,2022.2.4,60.01344115347131,
212,0,212,0,,,,,,,,,,,,,,,,,,,,,,,,,,,,,,,,,,,,,,,,,,,,,,,,,,,,,,,,,,,459.2162704749062,459.2162704749062,459.2162704749062,459.2162704749062,459.2162704749062,459.2162704749062,s,1,0.3871813259465853,459.63289905879356,460.64951261079113,,,,,,,,,,,,,,,,,,,,,,,,,,,,,,,,,,,,,,,,667655,2023-05-16_14h07.45.102,eb_02psyexp,2022.2.4,60.01344115347131,
213,0,213,0,,,,,,,,,,,,,,,,,,,,,,,,,,,,,,,,,,,,,,,,,,,,,,,,,,,,,,,,,,,460.64951261079113,460.64951261079113,460.64951261079113,460.64951261079113,460.64951261079113,460.64951261079113,l,1,0.4739521211013198,461.14946371188853,462.16606700116245,,,,,,,,,,,,,,,,,,,,,,,,,,,,,,,,,,,,,,,,667655,2023-05-16_14h07.45.102,eb_02psyexp,2022.2.4,60.01344115347131,
214,0,214,0,,,,,,,,,,,,,,,,,,,,,,,,,,,,,,,,,,,,,,,,,,,,,,,,,,,,,,,,,,,462.16606700116245,462.16606700116245,462.16606700116245,462.16606700116245,462.16606700116245,462.16606700116245,s,1,0.5013759520224994,462.69933817452693,463.7159659132449,,,,,,,,,,,,,,,,,,,,,,,,,,,,,,,,,,,,,,,,667655,2023-05-16_14h07.45.102,eb_02psyexp,2022.2.4,60.01344115347131,
215,0,215,0,,,,,,,,,,,,,,,,,,,,,,,,,,,,,,,,,,,,,,,,,,,,,,,,,,,,,,,,,,,463.7159659132449,463.7159659132449,463.7159659132449,463.7159659132449,463.7159659132449,463.7159659132449,l,1,0.6235124234081013,464.36591318091087,465.3824950391863,,,,,,,,,,,,,,,,,,,,,,,,,,,,,,,,,,,,,,,,667655,2023-05-16_14h07.45.102,eb_02psyexp,2022.2.4,60.01344115347131,
216,0,216,0,,,,,,,,,,,,,,,,,,,,,,,,,,,,,,,,,,,,,,,,,,,,,,,,,,,,,,,,,,,465.3824950391863,465.3824950391863,465.3824950391863,465.3824950391863,465.3824950391863,465.3824950391863,s,1,0.484999348394922,465.89911402438884,466.91568079040735,,,,,,,,,,,,,,,,,,,,,,,,,,,,,,,,,,,,,,,,667655,2023-05-16_14h07.45.102,eb_02psyexp,2022.2.4,60.01344115347131,
217,0,217,0,,,,,,,,,,,,,,,,,,,,,,,,,,,,,,,,,,,,,,,,,,,,,,,,,,,,,,,,,,,466.91568079040735,466.91568079040735,466.91568079040735,466.91568079040735,466.91568079040735,466.91568079040735,l,1,0.4798163669038331,467.4156732442789,468.4322714021837,,,,,,,,,,,,,,,,,,,,,,,,,,,,,,,,,,,,,,,,667655,2023-05-16_14h07.45.102,eb_02psyexp,2022.2.4,60.01344115347131,
218,0,218,0,,,,,,,,,,,,,,,,,,,,,,,,,,,,,,,,,,,,,,,,,,,,,,,,,,,,,,,,,,,468.4322714021837,468.4322714021837,468.4322714021837,468.4322714021837,468.4322714021837,468.4322714021837,l,1,0.5702545795211336,469.0322192433523,470.04882283446204,,,,,,,,,,,,,,,,,,,,,,,,,,,,,,,,,,,,,,,,667655,2023-05-16_14h07.45.102,eb_02psyexp,2022.2.4,60.01344115347131,
219,0,219,0,,,,,,,,,,,,,,,,,,,,,,,,,,,,,,,,,,,,,,,,,,,,,,,,,,,,,,,,,,,470.04882283446204,470.04882283446204,470.04882283446204,470.04882283446204,470.04882283446204,470.04882283446204,s,1,1.0497297192487167,471.11540834505286,472.13202099151385,,,,,,,,,,,,,,,,,,,,,,,,,,,,,,,,,,,,,,,,667655,2023-05-16_14h07.45.102,eb_02psyexp,2022.2.4,60.01344115347131,
220,0,220,0,,,,,,,,,,,,,,,,,,,,,,,,,,,,,,,,,,,,,,,,,,,,,,,,,,,,,,,,,,,472.13202099151385,472.13202099151385,472.13202099151385,472.13202099151385,472.13202099151385,472.13202099151385,l,1,0.742515139412717,472.8986265446147,473.9152253062057,,,,,,,,,,,,,,,,,,,,,,,,,,,,,,,,,,,,,,,,667655,2023-05-16_14h07.45.102,eb_02psyexp,2022.2.4,60.01344115347131,
221,0,221,0,,,,,,,,,,,,,,,,,,,,,,,,,,,,,,,,,,,,,,,,,,,,,,,,,,,,,,,,,,,473.9152253062057,473.9152253062057,473.9152253062057,473.9152253062057,473.9152253062057,473.9152253062057,l,1,1.9913190783699974,475.9317498139135,476.94836336591106,,,,,,,,,,,,,,,,,,,,,,,,,,,,,,,,,,,,,,,,667655,2023-05-16_14h07.45.102,eb_02psyexp,2022.2.4,60.01344115347131,
222,0,222,0,,,,,,,,,,,,,,,,,,,,,,,,,,,,,,,,,,,,,,,,,,,,,,,,,,,,,,,,,,,476.94836336591106,476.94836336591106,476.94836336591106,476.94836336591106,476.94836336591106,476.94836336591106,l,1,0.622177362718503,477.5982952394843,478.6149042638135,,,,,,,,,,,,,,,,,,,,,,,,,,,,,,,,,,,,,,,,667655,2023-05-16_14h07.45.102,eb_02psyexp,2022.2.4,60.01344115347131,
223,0,223,0,,,,,,,,,,,,,,,,,,,,,,,,,,,,,,,,,,,,,,,,,,,,,,,,,,,,,,,,,,,478.6149042638135,478.6149042638135,478.6149042638135,478.6149042638135,478.6149042638135,478.6149042638135,l,1,0.43565884965937585,479.0815440461447,480.1147946940473,,,,,,,,,,,,,,,,,,,,,,,,,,,,,,,,,,,,,,,,667655,2023-05-16_14h07.45.102,eb_02psyexp,2022.2.4,60.01344115347131,
224,0,224,0,,,,,,,,,,,,,,,,,,,,,,,,,,,,,,,,,,,,,,,,,,,,,,,,,,,,,,,,,,,480.1147946940473,480.1147946940473,480.1147946940473,480.1147946940473,480.1147946940473,480.1147946940473,s,1,0.5197791433747625,480.6647446179559,481.68133855002816,,,,,,,,,,,,,,,,,,,,,,,,,,,,,,,,,,,,,,,,667655,2023-05-16_14h07.45.102,eb_02psyexp,2022.2.4,60.01344115347131,
225,0,225,0,,,,,,,,,,,,,,,,,,,,,,,,,,,,,,,,,,,,,,,,,,,,,,,,,,,,,,,,,,,481.68133855002816,481.68133855002816,481.68133855002816,481.68133855002816,481.68133855002816,481.68133855002816,l,1,0.5852387718914542,482.29798596903856,483.3312329948094,,,,,,,,,,,,,,,,,,,,,,,,,,,,,,,,,,,,,,,,667655,2023-05-16_14h07.45.102,eb_02psyexp,2022.2.4,60.01344115347131,
226,0,226,0,,,,,,,,,,,,,,,,,,,,,,,,,,,,,,,,,,,,,,,,,,,,,,,,,,,,,,,,,,,483.3312329948094,483.3312329948094,483.3312329948094,483.3312329948094,483.3312329948094,483.3312329948094,s,1,0.5913598878396442,483.94785113485705,484.9641193761054,,,,,,,,,,,,,,,,,,,,,,,,,,,,,,,,,,,,,,,,667655,2023-05-16_14h07.45.102,eb_02psyexp,2022.2.4,60.01344115347131,
227,0,227,0,,,,,,,,,,,,,,,,,,,,,,,,,,,,,,,,,,,,,,,,,,,,,,,,,,,,,,,,,,,484.9641193761054,484.9641193761054,484.9641193761054,484.9641193761054,484.9641193761054,484.9641193761054,l,1,1.2214822739188094,486.214362512299,487.2476276487723,,,,,,,,,,,,,,,,,,,,,,,,,,,,,,,,,,,,,,,,667655,2023-05-16_14h07.45.102,eb_02psyexp,2022.2.4,60.01344115347131,
228,0,228,0,,,,,,,,,,,,,,,,,,,,,,,,,,,,,,,,,,,,,,,,,,,,,,,,,,,,,,,,,,,487.2476276487723,487.2476276487723,487.2476276487723,487.2476276487723,487.2476276487723,487.2476276487723,s,1,0.6099939906416694,487.880907334169,488.89753537473734,,,,,,,,,,,,,,,,,,,,,,,,,,,,,,,,,,,,,,,,667655,2023-05-16_14h07.45.102,eb_02psyexp,2022.2.4,60.01344115347131,
229,0,229,0,,,,,,,,,,,,,,,,,,,,,,,,,,,,,,,,,,,,,,,,,,,,,,,,,,,,,,,,,,,488.89753537473734,488.89753537473734,488.89753537473734,488.89753537473734,488.89753537473734,488.89753537473734,l,1,0.6480663115216885,489.56410645713913,490.5973939301475,,,,,,,,,,,,,,,,,,,,,,,,,,,,,,,,,,,,,,,,667655,2023-05-16_14h07.45.102,eb_02psyexp,2022.2.4,60.01344115347131,
230,0,230,0,,,,,,,,,,,,,,,,,,,,,,,,,,,,,,,,,,,,,,,,,,,,,,,,,,,,,,,,,,,490.5973939301475,490.5973939301475,490.5973939301475,490.5973939301475,490.5973939301475,490.5973939301475,l,1,0.5562414227024419,491.18068294256227,492.1972874392086,,,,,,,,,,,,,,,,,,,,,,,,,,,,,,,,,,,,,,,,667655,2023-05-16_14h07.45.102,eb_02psyexp,2022.2.4,60.01344115347131,
231,0,231,0,,,,,,,,,,,,,,,,,,,,,,,,,,,,,,,,,,,,,,,,,,,,,,,,,,,,,,,,,,,492.1972874392086,492.1972874392086,492.1972874392086,492.1972874392086,492.1972874392086,492.1972874392086,l,1,0.5483611537638353,492.763896191871,493.7971537822159,,,,,,,,,,,,,,,,,,,,,,,,,,,,,,,,,,,,,,,,667655,2023-05-16_14h07.45.102,eb_02psyexp,2022.2.4,60.01344115347131,
232,0,232,0,,,,,,,,,,,,,,,,,,,,,,,,,,,,,,,,,,,,,,,,,,,,,,,,,,,,,,,,,,,493.7971537822159,493.7971537822159,493.7971537822159,493.7971537822159,493.7971537822159,493.7971537822159,l,1,0.4444766493397765,494.263798997752,495.28042251063744,,,,,,,,,,,,,,,,,,,,,,,,,,,,,,,,,,,,,,,,667655,2023-05-16_14h07.45.102,eb_02psyexp,2022.2.4,60.01344115347131,
233,0,233,0,,,,,,,,,,,,,,,,,,,,,,,,,,,,,,,,,,,,,,,,,,,,,,,,,,,,,,,,,,,495.28042251063744,495.28042251063744,495.28042251063744,495.28042251063744,495.28042251063744,495.28042251063744,s,0,0.4092606882622931,495.71369694394525,496.74697053208365,,,,,,,,,,,,,,,,,,,,,,,,,,,,,,,,,,,,,,,,667655,2023-05-16_14h07.45.102,eb_02psyexp,2022.2.4,60.01344115347131,
234,0,234,0,,,,,,,,,,,,,,,,,,,,,,,,,,,,,,,,,,,,,,,,,,,,,,,,,,,,,,,,,,,496.74697053208365,496.74697053208365,496.74697053208365,496.74697053208365,496.74697053208365,496.74697053208365,s,1,0.5906931120989611,497.36357478724676,498.38020705363306,,,,,,,,,,,,,,,,,,,,,,,,,,,,,,,,,,,,,,,,667655,2023-05-16_14h07.45.102,eb_02psyexp,2022.2.4,60.01344115347131,
235,0,235,0,,,,,,,,,,,,,,,,,,,,,,,,,,,,,,,,,,,,,,,,,,,,,,,,,,,,,,,,,,,498.38020705363306,498.38020705363306,498.38020705363306,498.38020705363306,498.38020705363306,498.38020705363306,l,1,0.46147414825099986,498.8634791023651,499.896745144375,,,,,,,,,,,,,,,,,,,,,,,,,,,,,,,,,,,,,,,,667655,2023-05-16_14h07.45.102,eb_02psyexp,2022.2.4,60.01344115347131,
236,0,236,0,,,,,,,,,,,,,,,,,,,,,,,,,,,,,,,,,,,,,,,,,,,,,,,,,,,,,,,,,,,499.896745144375,499.896745144375,499.896745144375,499.896745144375,499.896745144375,499.896745144375,s,1,0.41593810463382397,500.3300470455724,501.34667689719936,,,,,,,,,,,,,,,,,,,,,,,,,,,,,,,,,,,,,,,,667655,2023-05-16_14h07.45.102,eb_02psyexp,2022.2.4,60.01344115347131,
237,0,237,0,,,,,,,,,,,,,,,,,,,,,,,,,,,,,,,,,,,,,,,,,,,,,,,,,,,,,,,,,,,501.34667689719936,501.34667689719936,501.34667689719936,501.34667689719936,501.34667689719936,501.34667689719936,l,1,0.534021702434984,501.91326421886333,502.94652965718706,,,,,,,,,,,,,,,,,,,,,,,,,,,,,,,,,,,,,,,,667655,2023-05-16_14h07.45.102,eb_02psyexp,2022.2.4,60.01344115347131,
238,0,238,0,,,,,,,,,,,,,,,,,,,,,,,,,,,,,,,,,,,,,,,,,,,,,,,,,,,,,,,,,,,502.94652965718706,502.94652965718706,502.94652965718706,502.94652965718706,502.94652965718706,502.94652965718706,l,1,0.4061749262327794,503.37983306760725,504.39639560779324,,,,,,,,,,,,,,,,,,,,,,,,,,,,,,,,,,,,,,,,667655,2023-05-16_14h07.45.102,eb_02psyexp,2022.2.4,60.01344115347131,
239,0,239,0,,,,,,,,,,,,,,,,,,,,,,,,,,,,,,,,,,,,,,,,,,,,,,,,,,,,,,,,,,,504.39639560779324,504.39639560779324,504.39639560779324,504.39639560779324,504.39639560779324,504.39639560779324,l,1,0.5403209069481818,504.96305356120865,506.06299113963905,,,,,,,,,,,,,,,,,,,,,,,,,,,,,,,,,,,,,,,,667655,2023-05-16_14h07.45.102,eb_02psyexp,2022.2.4,60.01344115347131,
240,0,240,0,,,,,,,,,,,,,,,,,,,,,,,,,,,,,,,,,,,,,,,,,,,,,,,,,,,,,,,,,,,506.06299113963905,506.06299113963905,506.06299113963905,506.06299113963905,506.06299113963905,506.06299113963905,l,1,0.39369453862309456,506.4796073478792,507.5128845581494,,,,,,,,,,,,,,,,,,,,,,,,,,,,,,,,,,,,,,,,667655,2023-05-16_14h07.45.102,eb_02psyexp,2022.2.4,60.01344115347131,
241,0,241,0,,,,,,,,,,,,,,,,,,,,,,,,,,,,,,,,,,,,,,,,,,,,,,,,,,,,,,,,,,,507.5128845581494,507.5128845581494,507.5128845581494,507.5128845581494,507.5128845581494,507.5128845581494,s,1,0.5758299595763674,508.11279014102183,509.1461120243621,,,,,,,,,,,,,,,,,,,,,,,,,,,,,,,,,,,,,,,,667655,2023-05-16_14h07.45.102,eb_02psyexp,2022.2.4,60.01344115347131,
242,0,242,0,,,,,,,,,,,,,,,,,,,,,,,,,,,,,,,,,,,,,,,,,,,,,,,,,,,,,,,,,,,509.1461120243621,509.1461120243621,509.1461120243621,509.1461120243621,509.1461120243621,509.1461120243621,s,1,0.41465948897530325,509.5793934000976,510.5960196295928,,,,,,,,,,,,,,,,,,,,,,,,,,,,,,,,,,,,,,,,667655,2023-05-16_14h07.45.102,eb_02psyexp,2022.2.4,60.01344115347131,
243,0,243,0,,,,,,,,,,,,,,,,,,,,,,,,,,,,,,,,,,,,,,,,,,,,,,,,,,,,,,,,,,,510.5960196295928,510.5960196295928,510.5960196295928,510.5960196295928,510.5960196295928,510.5960196295928,s,0,0.516727489841287,511.1293412110972,512.1625387342647,,,,,,,,,,,,,,,,,,,,,,,,,,,,,,,,,,,,,,,,667655,2023-05-16_14h07.45.102,eb_02psyexp,2022.2.4,60.01344115347131,
244,0,244,0,,,,,,,,,,,,,,,,,,,,,,,,,,,,,,,,,,,,,,,,,,,,,,,,,,,,,,,,,,,512.1625387342647,512.1625387342647,512.1625387342647,512.1625387342647,512.1625387342647,512.1625387342647,l,1,0.5102332934038714,512.6958479401219,513.7124436832673,,,,,,,,,,,,,,,,,,,,,,,,,,,,,,,,,,,,,,,,667655,2023-05-16_14h07.45.102,eb_02psyexp,2022.2.4,60.01344115347131,
245,0,245,0,,,,,,,,,,,,,,,,,,,,,,,,,,,,,,,,,,,,,,,,,,,,,,,,,,,,,,,,,,,513.7124436832673,513.7124436832673,513.7124436832673,513.7124436832673,513.7124436832673,513.7124436832673,l,1,0.4803071669593919,514.2124062544754,515.2456541857828,,,,,,,,,,,,,,,,,,,,,,,,,,,,,,,,,,,,,,,,667655,2023-05-16_14h07.45.102,eb_02psyexp,2022.2.4,60.01344115347131,
246,0,246,0,,,,,,,,,,,,,,,,,,,,,,,,,,,,,,,,,,,,,,,,,,,,,,,,,,,,,,,,,,,515.2456541857828,515.2456541857828,515.2456541857828,515.2456541857828,515.2456541857828,515.2456541857828,s,1,0.5221277997625293,515.7956306720444,516.8122523738712,,,,,,,,,,,,,,,,,,,,,,,,,,,,,,,,,,,,,,,,667655,2023-05-16_14h07.45.102,eb_02psyexp,2022.2.4,60.01344115347131,
247,0,247,0,,,,,,,,,,,,,,,,,,,,,,,,,,,,,,,,,,,,,,,,,,,,,,,,,,,,,,,,,,,516.8122523738712,516.8122523738712,516.8122523738712,516.8122523738712,516.8122523738712,516.8122523738712,l,1,0.5315191050467547,517.3621944498009,518.3954541530547,,,,,,,,,,,,,,,,,,,,,,,,,,,,,,,,,,,,,,,,667655,2023-05-16_14h07.45.102,eb_02psyexp,2022.2.4,60.01344115347131,
248,0,248,0,,,,,,,,,,,,,,,,,,,,,,,,,,,,,,,,,,,,,,,,,,,,,,,,,,,,,,,,,,,518.3954541530547,518.3954541530547,518.3954541530547,518.3954541530547,518.3954541530547,518.3954541530547,s,1,0.4763400173687842,518.8954082726123,519.9120275596651,,,,,,,,,,,,,,,,,,,,,,,,,,,,,,,,,,,,,,,,667655,2023-05-16_14h07.45.102,eb_02psyexp,2022.2.4,60.01344115347131,
249,0,249,0,,,,,,,,,,,,,,,,,,,,,,,,,,,,,,,,,,,,,,,,,,,,,,,,,,,,,,,,,,,519.9120275596651,519.9120275596651,519.9120275596651,519.9120275596651,519.9120275596651,519.9120275596651,l,1,0.5917728118656669,520.5286351351242,521.5619038937439,,,,,,,,,,,,,,,,,,,,,,,,,,,,,,,,,,,,,,,,667655,2023-05-16_14h07.45.102,eb_02psyexp,2022.2.4,60.01344115347131,
250,0,250,0,,,,,,,,,,,,,,,,,,,,,,,,,,,,,,,,,,,,,,,,,,,,,,,,,,,,,,,,,,,521.5619038937439,521.5619038937439,521.5619038937439,521.5619038937439,521.5619038937439,521.5619038937439,l,1,0.5099118284124415,522.0952034405491,523.1118181999336,,,,,,,,,,,,,,,,,,,,,,,,,,,,,,,,,,,,,,,,667655,2023-05-16_14h07.45.102,eb_02psyexp,2022.2.4,60.01344115347131,
251,0,251,0,,,,,,,,,,,,,,,,,,,,,,,,,,,,,,,,,,,,,,,,,,,,,,,,,,,,,,,,,,,523.1118181999336,523.1118181999336,523.1118181999336,523.1118181999336,523.1118181999336,523.1118181999336,l,1,0.440003909272491,523.5784196479508,524.6116884065559,,,,,,,,,,,,,,,,,,,,,,,,,,,,,,,,,,,,,,,,667655,2023-05-16_14h07.45.102,eb_02psyexp,2022.2.4,60.01344115347131,
252,0,252,0,,,,,,,,,,,,,,,,,,,,,,,,,,,,,,,,,,,,,,,,,,,,,,,,,,,,,,,,,,,524.6116884065559,524.6116884065559,524.6116884065559,524.6116884065559,524.6116884065559,524.6116884065559,s,1,0.5321333597530611,525.1616443673702,526.178246751093,,,,,,,,,,,,,,,,,,,,,,,,,,,,,,,,,,,,,,,,667655,2023-05-16_14h07.45.102,eb_02psyexp,2022.2.4,60.01344115347131,
253,0,253,0,,,,,,,,,,,,,,,,,,,,,,,,,,,,,,,,,,,,,,,,,,,,,,,,,,,,,,,,,,,526.178246751093,526.178246751093,526.178246751093,526.178246751093,526.178246751093,526.178246751093,l,1,0.5095864394388627,526.7114928713272,527.7448192823504,,,,,,,,,,,,,,,,,,,,,,,,,,,,,,,,,,,,,,,,667655,2023-05-16_14h07.45.102,eb_02psyexp,2022.2.4,60.01344115347131,
254,0,254,0,,,,,,,,,,,,,,,,,,,,,,,,,,,,,,,,,,,,,,,,,,,,,,,,,,,,,,,,,,,527.7448192823504,527.7448192823504,527.7448192823504,527.7448192823504,527.7448192823504,527.7448192823504,l,1,0.43102733908744995,528.1947615997633,529.2113872255577,,,,,,,,,,,,,,,,,,,,,,,,,,,,,,,,,,,,,,,,667655,2023-05-16_14h07.45.102,eb_02psyexp,2022.2.4,60.01344115347131,
255,0,255,0,,,,,,,,,,,,,,,,,,,,,,,,,,,,,,,,,,,,,,,,,,,,,,,,,,,,,,,,,,,529.2113872255577,529.2113872255577,529.2113872255577,529.2113872255577,529.2113872255577,529.2113872255577,l,1,0.580451509275008,529.811318767097,530.8445452674059,,,,,,,,,,,,,,,,,,,,,,,,,,,,,,,,,,,,,,,,667655,2023-05-16_14h07.45.102,eb_02psyexp,2022.2.4,60.01344115347131,
256,0,256,0,,,,,,,,,,,,,,,,,,,,,,,,,,,,,,,,,,,,,,,,,,,,,,,,,,,,,,,,,,,530.8445452674059,530.8445452674059,530.8445452674059,530.8445452674059,530.8445452674059,530.8445452674059,l,1,0.4103409917152021,531.2778827863222,532.2944984512433,,,,,,,,,,,,,,,,,,,,,,,,,,,,,,,,,,,,,,,,667655,2023-05-16_14h07.45.102,eb_02psyexp,2022.2.4,60.01344115347131,
257,0,257,0,,,,,,,,,,,,,,,,,,,,,,,,,,,,,,,,,,,,,,,,,,,,,,,,,,,,,,,,,,,532.2944984512433,532.2944984512433,532.2944984512433,532.2944984512433,532.2944984512433,532.2944984512433,l,1,0.5043642180971801,532.8277663043118,533.8610404961364,,,,,,,,,,,,,,,,,,,,,,,,,,,,,,,,,,,,,,,,667655,2023-05-16_14h07.45.102,eb_02psyexp,2022.2.4,60.01344115347131,
258,0,258,0,,,,,,,,,,,,,,,,,,,,,,,,,,,,,,,,,,,,,,,,,,,,,,,,,,,,,,,,,,,533.8610404961364,533.8610404961364,533.8610404961364,533.8610404961364,533.8610404961364,533.8610404961364,s,1,0.569864293851424,534.4609913557651,535.4942752066272,,,,,,,,,,,,,,,,,,,,,,,,,,,,,,,,,,,,,,,,667655,2023-05-16_14h07.45.102,eb_02psyexp,2022.2.4,60.01344115347131,
259,0,259,0,,,,,,,,,,,,,,,,,,,,,,,,,,,,,,,,,,,,,,,,,,,,,,,,,,,,,,,,,,,535.4942752066272,535.4942752066272,535.4942752066272,535.4942752066272,535.4942752066272,535.4942752066272,s,1,0.48060810648894403,535.9942175542237,537.0274944626581,,,,,,,,,,,,,,,,,,,,,,,,,,,,,,,,,,,,,,,,667655,2023-05-16_14h07.45.102,eb_02psyexp,2022.2.4,60.01344115347131,
260,0,260,0,,,,,,,,,,,,,,,,,,,,,,,,,,,,,,,,,,,,,,,,,,,,,,,,,,,,,,,,,,,537.0274944626581,537.0274944626581,537.0274944626581,537.0274944626581,537.0274944626581,537.0274944626581,s,1,0.3554009653162211,537.4107863727841,538.4440572443127,,,,,,,,,,,,,,,,,,,,,,,,,,,,,,,,,,,,,,,,667655,2023-05-16_14h07.45.102,eb_02psyexp,2022.2.4,60.01344115347131,
261,0,261,0,,,,,,,,,,,,,,,,,,,,,,,,,,,,,,,,,,,,,,,,,,,,,,,,,,,,,,,,,,,538.4440572443127,538.4440572443127,538.4440572443127,538.4440572443127,538.4440572443127,538.4440572443127,s,1,0.32284667395288125,538.7940254600253,539.827318668089,,,,,,,,,,,,,,,,,,,,,,,,,,,,,,,,,,,,,,,,667655,2023-05-16_14h07.45.102,eb_02psyexp,2022.2.4,60.01344115347131,
262,0,262,0,,,,,,,,,,,,,,,,,,,,,,,,,,,,,,,,,,,,,,,,,,,,,,,,,,,,,,,,,,,539.827318668089,539.827318668089,539.827318668089,539.827318668089,539.827318668089,539.827318668089,s,1,0.41159787453943864,540.2605855552683,541.2938585397205,,,,,,,,,,,,,,,,,,,,,,,,,,,,,,,,,,,,,,,,667655,2023-05-16_14h07.45.102,eb_02psyexp,2022.2.4,60.01344115347131,
263,0,263,0,,,,,,,,,,,,,,,,,,,,,,,,,,,,,,,,,,,,,,,,,,,,,,,,,,,,,,,,,,,541.2938585397205,541.2938585397205,541.2938585397205,541.2938585397205,541.2938585397205,541.2938585397205,s,1,0.45704396834480576,541.7771610747877,542.7937381035299,,,,,,,,,,,,,,,,,,,,,,,,,,,,,,,,,,,,,,,,667655,2023-05-16_14h07.45.102,eb_02psyexp,2022.2.4,60.01344115347131,
264,0,264,0,,,,,,,,,,,,,,,,,,,,,,,,,,,,,,,,,,,,,,,,,,,,,,,,,,,,,,,,,,,542.7937381035299,542.7937381035299,542.7937381035299,542.7937381035299,542.7937381035299,542.7937381035299,l,1,0.3891774273070041,543.2103651781945,544.2436493309069,,,,,,,,,,,,,,,,,,,,,,,,,,,,,,,,,,,,,,,,667655,2023-05-16_14h07.45.102,eb_02psyexp,2022.2.4,60.01344115347131,
265,0,265,0,,,,,,,,,,,,,,,,,,,,,,,,,,,,,,,,,,,,,,,,,,,,,,,,,,,,,,,,,,,544.2436493309069,544.2436493309069,544.2436493309069,544.2436493309069,544.2436493309069,544.2436493309069,l,1,0.3632842527003959,544.6269530129939,545.6435406063101,,,,,,,,,,,,,,,,,,,,,,,,,,,,,,,,,,,,,,,,667655,2023-05-16_14h07.45.102,eb_02psyexp,2022.2.4,60.01344115347131,
266,0,266,0,,,,,,,,,,,,,,,,,,,,,,,,,,,,,,,,,,,,,,,,,,,,,,,,,,,,,,,,,,,545.6435406063101,545.6435406063101,545.6435406063101,545.6435406063101,545.6435406063101,545.6435406063101,l,1,0.49843809405865613,546.1601783059159,547.1934371036477,,,,,,,,,,,,,,,,,,,,,,,,,,,,,,,,,,,,,,,,667655,2023-05-16_14h07.45.102,eb_02psyexp,2022.2.4,60.01344115347131,
267,0,267,0,,,,,,,,,,,,,,,,,,,,,,,,,,,,,,,,,,,,,,,,,,,,,,,,,,,,,,,,,,,547.1934371036477,547.1934371036477,547.1934371036477,547.1934371036477,547.1934371036477,547.1934371036477,s,1,0.5165137835283531,547.7267315190838,548.7600114459638,,,,,,,,,,,,,,,,,,,,,,,,,,,,,,,,,,,,,,,,667655,2023-05-16_14h07.45.102,eb_02psyexp,2022.2.4,60.01344115347131,
268,0,268,0,,,,,,,,,,,,,,,,,,,,,,,,,,,,,,,,,,,,,,,,,,,,,,,,,,,,,,,,,,,548.7600114459638,548.7600114459638,548.7600114459638,548.7600114459638,548.7600114459638,548.7600114459638,s,1,0.4459541809046641,549.2266255714785,550.2598976503796,,,,,,,,,,,,,,,,,,,,,,,,,,,,,,,,,,,,,,,,667655,2023-05-16_14h07.45.102,eb_02psyexp,2022.2.4,60.01344115347131,
269,0,269,0,,,,,,,,,,,,,,,,,,,,,,,,,,,,,,,,,,,,,,,,,,,,,,,,,,,,,,,,,,,550.2598976503796,550.2598976503796,550.2598976503796,550.2598976503796,550.2598976503796,550.2598976503796,s,0,0.3460655013623182,550.626534353898,551.6431551501737,,,,,,,,,,,,,,,,,,,,,,,,,,,,,,,,,,,,,,,,667655,2023-05-16_14h07.45.102,eb_02psyexp,2022.2.4,60.01344115347131,
270,0,270,0,,,,,,,,,,,,,,,,,,,,,,,,,,,,,,,,,,,,,,,,,,,,,,,,,,,,,,,,,,,551.6431551501737,551.6431551501737,551.6431551501737,551.6431551501737,551.6431551501737,551.6431551501737,l,1,0.5788351289957063,552.2430900120089,553.2763518281863,,,,,,,,,,,,,,,,,,,,,,,,,,,,,,,,,,,,,,,,667655,2023-05-16_14h07.45.102,eb_02psyexp,2022.2.4,60.01344115347131,
