trials.thisRepN,trials.thisTrialN,trials.thisN,trials.thisIndex,image_loop.thisRepN,image_loop.thisTrialN,image_loop.thisN,image_loop.thisIndex,break_loop.thisRepN,break_loop.thisTrialN,break_loop.thisN,break_loop.thisIndex,test_trials.thisRepN,test_trials.thisTrialN,test_trials.thisN,test_trials.thisIndex,distance matrix,tools,welcome_text.started,instructions_0_keypress.started,instructions_0_keypress.keys,instructions_0_keypress.rt,consent_image_0.started,consent0_key_resp.started,consent0_text.started,consent0_key_resp.keys,consent0_key_resp.rt,consent_image_1.started,consent1_key_resp.started,consent1_text.started,consent1_key_resp.keys,consent1_key_resp.rt,consent2_text.started,consent_image_2.started,consent2_key_resp.started,consent2_key_resp.keys,consent2_key_resp.rt,agree_button.started,disagree_button.started,consent_image_3.started,agree_button.numClicks,agree_button.timesOn,agree_button.timesOff,disagree_button.numClicks,disagree_button.timesOn,disagree_button.timesOff,instructions_text1.started,instructions1_key_resp.started,instr1_cnt_text.started,instructions1_key_resp.keys,instructions1_key_resp.rt,instructions_text2.started,instr2_cnt_text.started,instructions2_key_resp.started,instructions2_key_resp.keys,instructions2_key_resp.rt,instructions_text3.started,instructions3_key_resp.started,instr3_cnt_text.started,instructions3_key_resp.keys,instructions3_key_resp.rt,text_countdown.started,image.started,small_large_keyresp.started,task_question_text.started,smalleroption_text.started,largeroption_text.started,accuracy_score_text.started,small_large_keyresp.keys,small_large_keyresp.corr,small_large_keyresp.rt,fb_2.started,fb_2.stopped,break_text.started,break_key_resp.started,break_key_resp.keys,break_key_resp.rt,reveal_seq_text.started,start_test_text.started,continue_to_test.started,continue_to_test.keys,continue_to_test.rt,test_structure_info.started,start_test_text_2.started,continue_to_test_2.started,continue_to_test_2.keys,continue_to_test_2.rt,test_cntdown_text.started,parent index,left child index,right child index,left distance,right distance,parent_image.started,top_image_text.started,left_child_image.started,right_child_image.started,path_resp.started,child_choice_text.started,left_choice_text.started,right_choice_text.started,path_resp.keys,path_resp.rt,graph.started,debrief_text.started,debriefing_title.started,demo_scr_adv.started,demo_scr_adv_keypress.started,demo_scr_adv_keypress.keys,demo_scr_adv_keypress.rt,text_countdown_2.started,participant,date,expName,psychopyVersion,frameRate,
,,,,,,,,,,,,,,,,"[[0. 1. 1. 2. 2. 3. 4. 5. 5. 6. 6. 7.]
 [1. 0. 2. 1. 1. 2. 3. 4. 4. 5. 5. 6.]
 [1. 2. 0. 1. 1. 2. 3. 4. 4. 5. 5. 6.]
 [2. 1. 1. 0. 1. 1. 2. 3. 3. 4. 4. 5.]
 [2. 1. 1. 1. 0. 1. 2. 3. 3. 4. 4. 5.]
 [3. 2. 2. 1. 1. 0. 1. 2. 2. 3. 3. 4.]
 [4. 3. 3. 2. 2. 1. 0. 1. 1. 2. 2. 3.]
 [5. 4. 4. 3. 3. 2. 1. 0. 1. 1. 1. 2.]
 [5. 4. 4. 3. 3. 2. 1. 1. 0. 1. 1. 2.]
 [6. 5. 5. 4. 4. 3. 2. 1. 1. 0. 2. 1.]
 [6. 5. 5. 4. 4. 3. 2. 1. 1. 2. 0. 1.]
 [7. 6. 6. 5. 5. 4. 3. 2. 2. 1. 1. 0.]]",[ 2  3  9  6 10  4  7  8  0  1 11  5],9.834290847415105,9.834290847415105,return,10.517899046768434,,,,,,,,,,,,,,,,,,,,,,,,,,,,,,,,,,,,,,,,,,,,,,,,,,,,,,,,,,,,,,,,,,,,,,,,,,,,,,,,,,,,,,,,,,698343,2010-12-29_13h43.54.019,eb_02psyexp,2022.2.4,119.98591145150542,
,,,,,,,,,,,,,,,,,,,,,,20.36813184991479,20.36813184991479,20.36813184991479,space,2.2960973667213693,,,,,,,,,,,,,,,,,,,,,,,,,,,,,,,,,,,,,,,,,,,,,,,,,,,,,,,,,,,,,,,,,,,,,,,,,,,,,,,,,,,,,698343,2010-12-29_13h43.54.019,eb_02psyexp,2022.2.4,119.98591145150542,
,,,,,,,,,,,,,,,,,,,,,,,,,,,22.676654636044987,22.676654636044987,22.676654636044987,space,1.091580443782732,,,,,,,,,,,,,,,,,,,,,,,,,,,,,,,,,,,,,,,,,,,,,,,,,,,,,,,,,,,,,,,,,,,,,,,,,,,,,,,,698343,2010-12-29_13h43.54.019,eb_02psyexp,2022.2.4,119.98591145150542,
,,,,,,,,,,,,,,,,,,,,,,,,,,,,,,,,23.776726204319857,23.776726204319857,23.776726204319857,space,1.3115266603417695,,,,,,,,,,,,,,,,,,,,,,,,,,,,,,,,,,,,,,,,,,,,,,,,,,,,,,,,,,,,,,,,,,,,,,,,,,,698343,2010-12-29_13h43.54.019,eb_02psyexp,2022.2.4,119.98591145150542,
,,,,,,,,,,,,,,,,,,,,,,,,,,,,,,,,,,,,,25.110186817124486,25.110186817124486,25.110186817124486,1,[1.8665635954821482],[1.86656812322326],0,,,26.968685319530778,28.96050159994047,28.96050159994047,space,1.1278089177794755,,,,,,,,,,,,,,,,,,,,,,,,,,,,,,,,,,,,,,,,,,,,,,,,,,,,,,,,,,,,,698343,2010-12-29_13h43.54.019,eb_02psyexp,2022.2.4,119.98591145150542,
,,,,,,,,,,,,,,,,,,,,,,,,,,,,,,,,,,,,,,,,,,,,,,,,,,,30.10226147994399,33.094185218564235,33.094185218564235,space,19.88857759349048,,,,,,,,,,,,,,,,,,,,,,,,,,,,,,,,,,,,,,,,,,,,,,,,,,,,,,,,698343,2010-12-29_13h43.54.019,eb_02psyexp,2022.2.4,119.98591145150542,
,,,,,,,,,,,,,,,,,,,,,,,,,,,,,,,,,,,,,,,,,,,,,,,,,,,,,,,,52.99581668013707,55.98770872456953,55.98770872456953,space,6.155210432945751,,,,,,,,,,,,,,,,,,,,,,,,,,,,,,,,,,,,,,,,,,,,,,,,,,,698343,2010-12-29_13h43.54.019,eb_02psyexp,2022.2.4,119.98591145150542,
0,0,0,0,,,,,,,,,,,,,,,,,,,,,,,,,,,,,,,,,,,,,,,,,,,,,,,,,,,,,,,,,,62.16321014787536,67.20529176841956,67.20529176841956,67.20529176841956,67.20529176841956,67.20529176841956,67.20529176841956,l,1,1.4807369550690055,68.69707499642391,69.73051740776282,,,,,,,,,,,,,,,,,,,,,,,,,,,,,,,,,,,,,,,698343,2010-12-29_13h43.54.019,eb_02psyexp,2022.2.4,119.98591145150542,
1,0,1,0,,,,,,,,,,,,,,,,,,,,,,,,,,,,,,,,,,,,,,,,,,,,,,,,,,,,,,,,,,,69.73051740776282,69.73051740776282,69.73051740776282,69.73051740776282,69.73051740776282,69.73051740776282,s,1,0.5955435652285814,70.33888453058898,71.35561931936536,,,,,,,,,,,,,,,,,,,,,,,,,,,,,,,,,,,,,,,698343,2010-12-29_13h43.54.019,eb_02psyexp,2022.2.4,119.98591145150542,
2,0,2,0,,,,,,,,,,,,,,,,,,,,,,,,,,,,,,,,,,,,,,,,,,,,,,,,,,,,,,,,,,,71.35561931936536,71.35561931936536,71.35561931936536,71.35561931936536,71.35561931936536,71.35561931936536,s,1,0.6664571613073349,72.03069347608835,73.0640933268005,,,,,,,,,,,,,,,,,,,,,,,,,,,,,,,,,,,,,,,698343,2010-12-29_13h43.54.019,eb_02psyexp,2022.2.4,119.98591145150542,
3,0,3,0,,,,,,,,,,,,,,,,,,,,,,,,,,,,,,,,,,,,,,,,,,,,,,,,,,,,,,,,,,,73.0640933268005,73.0640933268005,73.0640933268005,73.0640933268005,73.0640933268005,73.0640933268005,s,1,0.6700259174685925,73.74750061810482,74.76423661434092,,,,,,,,,,,,,,,,,,,,,,,,,,,,,,,,,,,,,,,698343,2010-12-29_13h43.54.019,eb_02psyexp,2022.2.4,119.98591145150542,
4,0,4,0,,,,,,,,,,,,,,,,,,,,,,,,,,,,,,,,,,,,,,,,,,,,,,,,,,,,,,,,,,,74.76423661434092,74.76423661434092,74.76423661434092,74.76423661434092,74.76423661434092,74.76423661434092,l,1,0.5939226381015033,75.37262909242418,76.3976991288364,,,,,,,,,,,,,,,,,,,,,,,,,,,,,,,,,,,,,,,698343,2010-12-29_13h43.54.019,eb_02psyexp,2022.2.4,119.98591145150542,
5,0,5,0,,,,,,,,,,,,,,,,,,,,,,,,,,,,,,,,,,,,,,,,,,,,,,,,,,,,,,,,,,,76.3976991288364,76.3976991288364,76.3976991288364,76.3976991288364,76.3976991288364,76.3976991288364,l,1,0.7684780679410324,77.18109407450538,78.1978481815895,,,,,,,,,,,,,,,,,,,,,,,,,,,,,,,,,,,,,,,698343,2010-12-29_13h43.54.019,eb_02psyexp,2022.2.4,119.98591145150542,
6,0,6,0,,,,,,,,,,,,,,,,,,,,,,,,,,,,,,,,,,,,,,,,,,,,,,,,,,,,,,,,,,,78.1978481815895,78.1978481815895,78.1978481815895,78.1978481815895,78.1978481815895,78.1978481815895,s,1,0.5443452111212537,78.75626267958432,79.78136984340381,,,,,,,,,,,,,,,,,,,,,,,,,,,,,,,,,,,,,,,698343,2010-12-29_13h43.54.019,eb_02psyexp,2022.2.4,119.98591145150542,
7,0,7,0,,,,,,,,,,,,,,,,,,,,,,,,,,,,,,,,,,,,,,,,,,,,,,,,,,,,,,,,,,,79.78136984340381,79.78136984340381,79.78136984340381,79.78136984340381,79.78136984340381,79.78136984340381,l,0,0.07285647257231176,79.86467734351754,80.88140066212509,,,,,,,,,,,,,,,,,,,,,,,,,,,,,,,,,,,,,,,698343,2010-12-29_13h43.54.019,eb_02psyexp,2022.2.4,119.98591145150542,
8,0,8,0,,,,,,,,,,,,,,,,,,,,,,,,,,,,,,,,,,,,,,,,,,,,,,,,,,,,,,,,,,,80.88140066212509,80.88140066212509,80.88140066212509,80.88140066212509,80.88140066212509,80.88140066212509,s,1,0.6848385343328118,81.58147241151892,82.6065409387229,,,,,,,,,,,,,,,,,,,,,,,,,,,,,,,,,,,,,,,698343,2010-12-29_13h43.54.019,eb_02psyexp,2022.2.4,119.98591145150542,
9,0,9,0,,,,,,,,,,,,,,,,,,,,,,,,,,,,,,,,,,,,,,,,,,,,,,,,,,,,,,,,,,,82.6065409387229,82.6065409387229,82.6065409387229,82.6065409387229,82.6065409387229,82.6065409387229,l,1,0.6387287441175431,83.25659093994182,84.27336044132244,,,,,,,,,,,,,,,,,,,,,,,,,,,,,,,,,,,,,,,698343,2010-12-29_13h43.54.019,eb_02psyexp,2022.2.4,119.98591145150542,
10,0,10,0,,,,,,,,,,,,,,,,,,,,,,,,,,,,,,,,,,,,,,,,,,,,,,,,,,,,,,,,,,,84.27336044132244,84.27336044132244,84.27336044132244,84.27336044132244,84.27336044132244,84.27336044132244,s,1,1.931959577719681,86.21518636588007,87.24027934274636,,,,,,,,,,,,,,,,,,,,,,,,,,,,,,,,,,,,,,,698343,2010-12-29_13h43.54.019,eb_02psyexp,2022.2.4,119.98591145150542,
11,0,11,0,,,,,,,,,,,,,,,,,,,,,,,,,,,,,,,,,,,,,,,,,,,,,,,,,,,,,,,,,,,87.24027934274636,87.24027934274636,87.24027934274636,87.24027934274636,87.24027934274636,87.24027934274636,l,1,1.5970790690043941,88.84871770185418,89.88213747460395,,,,,,,,,,,,,,,,,,,,,,,,,,,,,,,,,,,,,,,698343,2010-12-29_13h43.54.019,eb_02psyexp,2022.2.4,119.98591145150542,
12,0,12,0,,,,,,,,,,,,,,,,,,,,,,,,,,,,,,,,,,,,,,,,,,,,,,,,,,,,,,,,,,,89.88213747460395,89.88213747460395,89.88213747460395,89.88213747460395,89.88213747460395,89.88213747460395,s,1,0.5232441819971427,90.41551634680945,91.44059272203594,,,,,,,,,,,,,,,,,,,,,,,,,,,,,,,,,,,,,,,698343,2010-12-29_13h43.54.019,eb_02psyexp,2022.2.4,119.98591145150542,
13,0,13,0,,,,,,,,,,,,,,,,,,,,,,,,,,,,,,,,,,,,,,,,,,,,,,,,,,,,,,,,,,,91.44059272203594,91.44059272203594,91.44059272203594,91.44059272203594,91.44059272203594,91.44059272203594,l,1,0.5408567467238754,91.99065989837982,93.00740313902497,,,,,,,,,,,,,,,,,,,,,,,,,,,,,,,,,,,,,,,698343,2010-12-29_13h43.54.019,eb_02psyexp,2022.2.4,119.98591145150542,
14,0,14,0,,,,,,,,,,,,,,,,,,,,,,,,,,,,,,,,,,,,,,,,,,,,,,,,,,,,,,,,,,,93.00740313902497,93.00740313902497,93.00740313902497,93.00740313902497,93.00740313902497,93.00740313902497,l,1,0.5020634649554268,93.52411876048427,94.54918698582333,,,,,,,,,,,,,,,,,,,,,,,,,,,,,,,,,,,,,,,698343,2010-12-29_13h43.54.019,eb_02psyexp,2022.2.4,119.98591145150542,
15,0,15,0,,,,,,,,,,,,,,,,,,,,,,,,,,,,,,,,,,,,,,,,,,,,,,,,,,,,,,,,,,,94.54918698582333,94.54918698582333,94.54918698582333,94.54918698582333,94.54918698582333,94.54918698582333,s,1,0.5762880385154858,95.14089930965565,96.16597266646568,,,,,,,,,,,,,,,,,,,,,,,,,,,,,,,,,,,,,,,698343,2010-12-29_13h43.54.019,eb_02psyexp,2022.2.4,119.98591145150542,
16,0,16,0,,,,,,,,,,,,,,,,,,,,,,,,,,,,,,,,,,,,,,,,,,,,,,,,,,,,,,,,,,,96.16597266646568,96.16597266646568,96.16597266646568,96.16597266646568,96.16597266646568,96.16597266646568,s,0,0.7905510495183989,96.96607251791283,97.99950194975827,,,,,,,,,,,,,,,,,,,,,,,,,,,,,,,,,,,,,,,698343,2010-12-29_13h43.54.019,eb_02psyexp,2022.2.4,119.98591145150542,
17,0,17,0,,,,,,,,,,,,,,,,,,,,,,,,,,,,,,,,,,,,,,,,,,,,,,,,,,,,,,,,,,,97.99950194975827,97.99950194975827,97.99950194975827,97.99950194975827,97.99950194975827,97.99950194975827,s,1,1.6290463462937623,99.64128793973941,100.66637035191525,,,,,,,,,,,,,,,,,,,,,,,,,,,,,,,,,,,,,,,698343,2010-12-29_13h43.54.019,eb_02psyexp,2022.2.4,119.98591145150542,
18,0,18,0,,,,,,,,,,,,,,,,,,,,,,,,,,,,,,,,,,,,,,,,,,,,,,,,,,,,,,,,,,,100.66637035191525,100.66637035191525,100.66637035191525,100.66637035191525,100.66637035191525,100.66637035191525,s,1,0.7782123837387189,101.45810235629324,102.49152363825124,,,,,,,,,,,,,,,,,,,,,,,,,,,,,,,,,,,,,,,698343,2010-12-29_13h43.54.019,eb_02psyexp,2022.2.4,119.98591145150542,
19,0,19,0,,,,,,,,,,,,,,,,,,,,,,,,,,,,,,,,,,,,,,,,,,,,,,,,,,,,,,,,,,,102.49152363825124,102.49152363825124,102.49152363825124,102.49152363825124,102.49152363825124,102.49152363825124,l,1,0.9451228937832639,103.44991441082675,104.466683006729,,,,,,,,,,,,,,,,,,,,,,,,,,,,,,,,,,,,,,,698343,2010-12-29_13h43.54.019,eb_02psyexp,2022.2.4,119.98591145150542,
20,0,20,0,,,,,,,,,,,,,,,,,,,,,,,,,,,,,,,,,,,,,,,,,,,,,,,,,,,,,,,,,,,104.466683006729,104.466683006729,104.466683006729,104.466683006729,104.466683006729,104.466683006729,l,1,0.7459731410490349,105.2250776430592,106.25016337563284,,,,,,,,,,,,,,,,,,,,,,,,,,,,,,,,,,,,,,,698343,2010-12-29_13h43.54.019,eb_02psyexp,2022.2.4,119.98591145150542,
21,0,21,0,,,,,,,,,,,,,,,,,,,,,,,,,,,,,,,,,,,,,,,,,,,,,,,,,,,,,,,,,,,106.25016337563284,106.25016337563284,106.25016337563284,106.25016337563284,106.25016337563284,106.25016337563284,s,1,0.6265274195466191,106.89188295882195,107.90862469025888,,,,,,,,,,,,,,,,,,,,,,,,,,,,,,,,,,,,,,,698343,2010-12-29_13h43.54.019,eb_02psyexp,2022.2.4,119.98591145150542,
22,0,22,0,,,,,,,,,,,,,,,,,,,,,,,,,,,,,,,,,,,,,,,,,,,,,,,,,,,,,,,,,,,107.90862469025888,107.90862469025888,107.90862469025888,107.90862469025888,107.90862469025888,107.90862469025888,l,1,0.6160882872063667,108.53369038004894,109.55878577171825,,,,,,,,,,,,,,,,,,,,,,,,,,,,,,,,,,,,,,,698343,2010-12-29_13h43.54.019,eb_02psyexp,2022.2.4,119.98591145150542,
23,0,23,0,,,,,,,,,,,,,,,,,,,,,,,,,,,,,,,,,,,,,,,,,,,,,,,,,,,,,,,,,,,109.55878577171825,109.55878577171825,109.55878577171825,109.55878577171825,109.55878577171825,109.55878577171825,s,1,0.45399045140948147,110.02547360805329,111.05055873689707,,,,,,,,,,,,,,,,,,,,,,,,,,,,,,,,,,,,,,,698343,2010-12-29_13h43.54.019,eb_02psyexp,2022.2.4,119.98591145150542,
24,0,24,0,,,,,,,,,,,,,,,,,,,,,,,,,,,,,,,,,,,,,,,,,,,,,,,,,,,,,,,,,,,111.05055873689707,111.05055873689707,111.05055873689707,111.05055873689707,111.05055873689707,111.05055873689707,l,1,0.5052431382937357,111.567265906604,112.59234831877984,,,,,,,,,,,,,,,,,,,,,,,,,,,,,,,,,,,,,,,698343,2010-12-29_13h43.54.019,eb_02psyexp,2022.2.4,119.98591145150542,
25,0,25,0,,,,,,,,,,,,,,,,,,,,,,,,,,,,,,,,,,,,,,,,,,,,,,,,,,,,,,,,,,,112.59234831877984,112.59234831877984,112.59234831877984,112.59234831877984,112.59234831877984,112.59234831877984,l,0,0.3954351410502568,113.00071598496288,114.02581892278977,,,,,,,,,,,,,,,,,,,,,,,,,,,,,,,,,,,,,,,698343,2010-12-29_13h43.54.019,eb_02psyexp,2022.2.4,119.98591145150542,
26,0,26,0,,,,,,,,,,,,,,,,,,,,,,,,,,,,,,,,,,,,,,,,,,,,,,,,,,,,,,,,,,,114.02581892278977,114.02581892278977,114.02581892278977,114.02581892278977,114.02581892278977,114.02581892278977,l,1,0.61802011821419,114.65918726054952,115.68425397668034,,,,,,,,,,,,,,,,,,,,,,,,,,,,,,,,,,,,,,,698343,2010-12-29_13h43.54.019,eb_02psyexp,2022.2.4,119.98591145150542,
27,0,27,0,,,,,,,,,,,,,,,,,,,,,,,,,,,,,,,,,,,,,,,,,,,,,,,,,,,,,,,,,,,115.68425397668034,115.68425397668034,115.68425397668034,115.68425397668034,115.68425397668034,115.68425397668034,s,1,0.5195875879144296,116.21764733758755,117.23440446332097,,,,,,,,,,,,,,,,,,,,,,,,,,,,,,,,,,,,,,,698343,2010-12-29_13h43.54.019,eb_02psyexp,2022.2.4,119.98591145150542,
28,0,28,0,,,,,,,,,,,,,,,,,,,,,,,,,,,,,,,,,,,,,,,,,,,,,,,,,,,,,,,,,,,117.23440446332097,117.23440446332097,117.23440446332097,117.23440446332097,117.23440446332097,117.23440446332097,l,1,0.48147074901498854,117.72610438102856,118.75950332626235,,,,,,,,,,,,,,,,,,,,,,,,,,,,,,,,,,,,,,,698343,2010-12-29_13h43.54.019,eb_02psyexp,2022.2.4,119.98591145150542,
29,0,29,0,,,,,,,,,,,,,,,,,,,,,,,,,,,,,,,,,,,,,,,,,,,,,,,,,,,,,,,,,,,118.75950332626235,118.75950332626235,118.75950332626235,118.75950332626235,118.75950332626235,118.75950332626235,s,1,0.5483920953702182,119.31791540933773,120.33463540766388,,,,,,,,,,,,,,,,,,,,,,,,,,,,,,,,,,,,,,,698343,2010-12-29_13h43.54.019,eb_02psyexp,2022.2.4,119.98591145150542,
30,0,30,0,,,,,,,,,,,,,,,,,,,,,,,,,,,,,,,,,,,,,,,,,,,,,,,,,,,,,,,,,,,120.33463540766388,120.33463540766388,120.33463540766388,120.33463540766388,120.33463540766388,120.33463540766388,l,1,0.5172856904100627,120.86805352021474,121.89310061617289,,,,,,,,,,,,,,,,,,,,,,,,,,,,,,,,,,,,,,,698343,2010-12-29_13h43.54.019,eb_02psyexp,2022.2.4,119.98591145150542,
31,0,31,0,,,,,,,,,,,,,,,,,,,,,,,,,,,,,,,,,,,,,,,,,,,,,,,,,,,,,,,,,,,121.89310061617289,121.89310061617289,121.89310061617289,121.89310061617289,121.89310061617289,121.89310061617289,s,1,0.49487282731570303,122.40146921796259,123.41822060849518,,,,,,,,,,,,,,,,,,,,,,,,,,,,,,,,,,,,,,,698343,2010-12-29_13h43.54.019,eb_02psyexp,2022.2.4,119.98591145150542,
32,0,32,0,,,,,,,,,,,,,,,,,,,,,,,,,,,,,,,,,,,,,,,,,,,,,,,,,,,,,,,,,,,123.41822060849518,123.41822060849518,123.41822060849518,123.41822060849518,123.41822060849518,123.41822060849518,l,1,0.7457838819827884,124.17664512782358,125.20171788078733,,,,,,,,,,,,,,,,,,,,,,,,,,,,,,,,,,,,,,,698343,2010-12-29_13h43.54.019,eb_02psyexp,2022.2.4,119.98591145150542,
33,0,33,0,,,,,,,,,,,,,,,,,,,,,,,,,,,,,,,,,,,,,,,,,,,,,,,,,,,,,,,,,,,125.20171788078733,125.20171788078733,125.20171788078733,125.20171788078733,125.20171788078733,125.20171788078733,s,1,0.4823035493027419,125.69342474115547,126.7185092662694,,,,,,,,,,,,,,,,,,,,,,,,,,,,,,,,,,,,,,,698343,2010-12-29_13h43.54.019,eb_02psyexp,2022.2.4,119.98591145150542,
34,0,34,0,,,,,,,,,,,,,,,,,,,,,,,,,,,,,,,,,,,,,,,,,,,,,,,,,,,,,,,,,,,126.7185092662694,126.7185092662694,126.7185092662694,126.7185092662694,126.7185092662694,126.7185092662694,l,1,0.7725877368357033,127.50191930436995,128.51866435608827,,,,,,,,,,,,,,,,,,,,,,,,,,,,,,,,,,,,,,,698343,2010-12-29_13h43.54.019,eb_02psyexp,2022.2.4,119.98591145150542,
35,0,35,0,,,,,,,,,,,,,,,,,,,,,,,,,,,,,,,,,,,,,,,,,,,,,,,,,,,,,,,,,,,128.51866435608827,128.51866435608827,128.51866435608827,128.51866435608827,128.51866435608827,128.51866435608827,s,0,0.5563765949336812,129.0853621836286,130.1187867859844,,,,,,,,,,,,,,,,,,,,,,,,,,,,,,,,,,,,,,,698343,2010-12-29_13h43.54.019,eb_02psyexp,2022.2.4,119.98591145150542,
36,0,36,0,,,,,,,,,,,,,,,,,,,,,,,,,,,,,,,,,,,,,,,,,,,,,,,,,,,,,,,,,,,130.1187867859844,130.1187867859844,130.1187867859844,130.1187867859844,130.1187867859844,130.1187867859844,l,1,0.8043117239139974,130.93552091077436,131.9522529829992,,,,,,,,,,,,,,,,,,,,,,,,,,,,,,,,,,,,,,,698343,2010-12-29_13h43.54.019,eb_02psyexp,2022.2.4,119.98591145150542,
37,0,37,0,,,,,,,,,,,,,,,,,,,,,,,,,,,,,,,,,,,,,,,,,,,,,,,,,,,,,,,,,,,131.9522529829992,131.9522529829992,131.9522529829992,131.9522529829992,131.9522529829992,131.9522529829992,l,1,0.5148702978622168,132.47731260559522,133.50238928268664,,,,,,,,,,,,,,,,,,,,,,,,,,,,,,,,,,,,,,,698343,2010-12-29_13h43.54.019,eb_02psyexp,2022.2.4,119.98591145150542,
38,0,38,0,,,,,,,,,,,,,,,,,,,,,,,,,,,,,,,,,,,,,,,,,,,,,,,,,,,,,,,,,,,133.50238928268664,133.50238928268664,133.50238928268664,133.50238928268664,133.50238928268664,133.50238928268664,s,1,0.5647658733651042,134.07743322430179,135.0942111775512,,,,,,,,,,,,,,,,,,,,,,,,,,,,,,,,,,,,,,,698343,2010-12-29_13h43.54.019,eb_02psyexp,2022.2.4,119.98591145150542,
39,0,39,0,,,,,,,,,,,,,,,,,,,,,,,,,,,,,,,,,,,,,,,,,,,,,,,,,,,,,,,,,,,135.0942111775512,135.0942111775512,135.0942111775512,135.0942111775512,135.0942111775512,135.0942111775512,l,1,0.5089697611983865,135.61923155980185,136.65265857696068,,,,,,,,,,,,,,,,,,,,,,,,,,,,,,,,,,,,,,,698343,2010-12-29_13h43.54.019,eb_02psyexp,2022.2.4,119.98591145150542,
40,0,40,0,,,,,,,,,,,,,,,,,,,,,,,,,,,,,,,,,,,,,,,,,,,,,,,,,,,,,,,,,,,136.65265857696068,136.65265857696068,136.65265857696068,136.65265857696068,136.65265857696068,136.65265857696068,s,1,1.182578140986152,137.8444411107339,138.8695199007634,,,,,,,,,,,,,,,,,,,,,,,,,,,,,,,,,,,,,,,698343,2010-12-29_13h43.54.019,eb_02psyexp,2022.2.4,119.98591145150542,
41,0,41,0,,,,,,,,,,,,,,,,,,,,,,,,,,,,,,,,,,,,,,,,,,,,,,,,,,,,,,,,,,,138.8695199007634,138.8695199007634,138.8695199007634,138.8695199007634,138.8695199007634,138.8695199007634,l,1,0.7897457174258307,139.66958383226302,140.68629900098313,,,,,,,,,,,,,,,,,,,,,,,,,,,,,,,,,,,,,,,698343,2010-12-29_13h43.54.019,eb_02psyexp,2022.2.4,119.98591145150542,
42,0,42,0,,,,,,,,,,,,,,,,,,,,,,,,,,,,,,,,,,,,,,,,,,,,,,,,,,,,,,,,,,,140.68629900098313,140.68629900098313,140.68629900098313,140.68629900098313,140.68629900098313,140.68629900098313,s,1,2.740017667878419,143.43654463032726,144.4699641012121,,,,,,,,,,,,,,,,,,,,,,,,,,,,,,,,,,,,,,,698343,2010-12-29_13h43.54.019,eb_02psyexp,2022.2.4,119.98591145150542,
43,0,43,0,,,,,,,,,,,,,,,,,,,,,,,,,,,,,,,,,,,,,,,,,,,,,,,,,,,,,,,,,,,144.4699641012121,144.4699641012121,144.4699641012121,144.4699641012121,144.4699641012121,144.4699641012121,s,1,1.8684270856902003,146.35347045911476,147.37018774077296,,,,,,,,,,,,,,,,,,,,,,,,,,,,,,,,,,,,,,,698343,2010-12-29_13h43.54.019,eb_02psyexp,2022.2.4,119.98591145150542,
44,0,44,0,,,,,,,,,,,,,,,,,,,,,,,,,,,,,,,,,,,,,,,,,,,,,,,,,,,,,,,,,,,147.37018774077296,147.37018774077296,147.37018774077296,147.37018774077296,147.37018774077296,147.37018774077296,l,1,1.064237789134495,148.4452906937804,149.47038185968995,,,,,,,,,,,,,,,,,,,,,,,,,,,,,,,,,,,,,,,698343,2010-12-29_13h43.54.019,eb_02psyexp,2022.2.4,119.98591145150542,
45,0,45,0,,,,,,,,,,,,,,,,,,,,,,,,,,,,,,,,,,,,,,,,,,,,,,,,,,,,,,,,,,,149.47038185968995,149.47038185968995,149.47038185968995,149.47038185968995,149.47038185968995,149.47038185968995,s,1,0.4760543775046244,149.96208147564903,150.97882773471065,,,,,,,,,,,,,,,,,,,,,,,,,,,,,,,,,,,,,,,698343,2010-12-29_13h43.54.019,eb_02psyexp,2022.2.4,119.98591145150542,
46,0,46,0,,,,,,,,,,,,,,,,,,,,,,,,,,,,,,,,,,,,,,,,,,,,,,,,,,,,,,,,,,,150.97882773471065,150.97882773471065,150.97882773471065,150.97882773471065,150.97882773471065,150.97882773471065,l,1,0.7116384651744738,151.70389194542076,152.7289586615516,,,,,,,,,,,,,,,,,,,,,,,,,,,,,,,,,,,,,,,698343,2010-12-29_13h43.54.019,eb_02psyexp,2022.2.4,119.98591145150542,
47,0,47,0,,,,,,,,,,,,,,,,,,,,,,,,,,,,,,,,,,,,,,,,,,,,,,,,,,,,,,,,,,,152.7289586615516,152.7289586615516,152.7289586615516,152.7289586615516,152.7289586615516,152.7289586615516,l,1,0.9295538442675024,153.6707073127618,154.6957858010428,,,,,,,,,,,,,,,,,,,,,,,,,,,,,,,,,,,,,,,698343,2010-12-29_13h43.54.019,eb_02psyexp,2022.2.4,119.98591145150542,
48,0,48,0,,,,,,,,,,,,,,,,,,,,,,,,,,,,,,,,,,,,,,,,,,,,,,,,,,,,,,,,,,,154.6957858010428,154.6957858010428,154.6957858010428,154.6957858010428,154.6957858010428,154.6957858010428,l,1,0.7867486624745652,155.49586995644495,156.5209360687295,,,,,,,,,,,,,,,,,,,,,,,,,,,,,,,,,,,,,,,698343,2010-12-29_13h43.54.019,eb_02psyexp,2022.2.4,119.98591145150542,
49,0,49,0,,,,,,,,,,,,,,,,,,,,,,,,,,,,,,,,,,,,,,,,,,,,,,,,,,,,,,,,,,,156.5209360687295,156.5209360687295,156.5209360687295,156.5209360687295,156.5209360687295,156.5209360687295,l,1,0.6816380334785208,157.21266985405236,158.22940826509148,,,,,,,,,,,,,,,,,,,,,,,,,,,,,,,,,,,,,,,698343,2010-12-29_13h43.54.019,eb_02psyexp,2022.2.4,119.98591145150542,
50,0,50,0,,,,,,,,,,,,,,,,,,,,,,,,,,,,,,,,,,,,,,,,,,,,,,,,,,,,,,,,,,,158.22940826509148,158.22940826509148,158.22940826509148,158.22940826509148,158.22940826509148,158.22940826509148,s,1,1.0121676963753998,159.2545235787984,160.28794304968324,,,,,,,,,,,,,,,,,,,,,,,,,,,,,,,,,,,,,,,698343,2010-12-29_13h43.54.019,eb_02psyexp,2022.2.4,119.98591145150542,
51,0,51,0,,,,,,,,,,,,,,,,,,,,,,,,,,,,,,,,,,,,,,,,,,,,,,,,,,,,,,,,,,,160.28794304968324,160.28794304968324,160.28794304968324,160.28794304968324,160.28794304968324,160.28794304968324,s,1,0.5616628696443513,160.86296827660408,161.88804314262234,,,,,,,,,,,,,,,,,,,,,,,,,,,,,,,,,,,,,,,698343,2010-12-29_13h43.54.019,eb_02psyexp,2022.2.4,119.98591145150542,
52,0,52,0,,,,,,,,,,,,,,,,,,,,,,,,,,,,,,,,,,,,,,,,,,,,,,,,,,,,,,,,,,,161.88804314262234,161.88804314262234,161.88804314262234,161.88804314262234,161.88804314262234,161.88804314262234,l,1,0.8416449639480561,162.73813002975658,163.75486451678444,,,,,,,,,,,,,,,,,,,,,,,,,,,,,,,,,,,,,,,698343,2010-12-29_13h43.54.019,eb_02psyexp,2022.2.4,119.98591145150542,
53,0,53,0,,,,,,,,,,,,,,,,,,,,,,,,,,,,,,,,,,,,,,,,,,,,,,,,,,,,,,,,,,,163.75486451678444,163.75486451678444,163.75486451678444,163.75486451678444,163.75486451678444,163.75486451678444,s,1,0.5268325583310798,164.29659131425433,165.33000927581452,,,,,,,,,,,,,,,,,,,,,,,,,,,,,,,,,,,,,,,698343,2010-12-29_13h43.54.019,eb_02psyexp,2022.2.4,119.98591145150542,
54,0,54,0,,,,,,,,,,,,,,,,,,,,,,,,,,,,,,,,,,,,,,,,,,,,,,,,,,,,,,,,,,,165.33000927581452,165.33000927581452,165.33000927581452,165.33000927581452,165.33000927581452,165.33000927581452,s,1,1.7837491928366944,167.13017040258273,168.15521598933265,,,,,,,,,,,,,,,,,,,,,,,,,,,,,,,,,,,,,,,698343,2010-12-29_13h43.54.019,eb_02psyexp,2022.2.4,119.98591145150542,
55,0,55,0,,,,,,,,,,,,,,,,,,,,,,,,,,,,,,,,,,,,,,,,,,,,,,,,,,,,,,,,,,,168.15521598933265,168.15521598933265,168.15521598933265,168.15521598933265,168.15521598933265,168.15521598933265,l,1,2.2385692473035306,170.4053908351343,171.4304771713214,,,,,,,,,,,,,,,,,,,,,,,,,,,,,,,,,,,,,,,698343,2010-12-29_13h43.54.019,eb_02psyexp,2022.2.4,119.98591145150542,
56,0,56,0,,,,,,,,,,,,,,,,,,,,,,,,,,,,,,,,,,,,,,,,,,,,,,,,,,,,,,,,,,,171.4304771713214,171.4304771713214,171.4304771713214,171.4304771713214,171.4304771713214,171.4304771713214,l,1,0.5953383080195636,172.038898928673,173.05561651219614,,,,,,,,,,,,,,,,,,,,,,,,,,,,,,,,,,,,,,,698343,2010-12-29_13h43.54.019,eb_02psyexp,2022.2.4,119.98591145150542,
57,0,57,0,,,,,,,,,,,,,,,,,,,,,,,,,,,,,,,,,,,,,,,,,,,,,,,,,,,,,,,,,,,173.05561651219614,173.05561651219614,173.05561651219614,173.05561651219614,173.05561651219614,173.05561651219614,l,1,0.5062488977564499,173.57236503518652,174.59742209210526,,,,,,,,,,,,,,,,,,,,,,,,,,,,,,,,,,,,,,,698343,2010-12-29_13h43.54.019,eb_02psyexp,2022.2.4,119.98591145150542,
58,0,58,0,,,,,,,,,,,,,,,,,,,,,,,,,,,,,,,,,,,,,,,,,,,,,,,,,,,,,,,,,,,174.59742209210526,174.59742209210526,174.59742209210526,174.59742209210526,174.59742209210526,174.59742209210526,s,1,1.6514818478608504,176.26424219855107,177.28100022976287,,,,,,,,,,,,,,,,,,,,,,,,,,,,,,,,,,,,,,,698343,2010-12-29_13h43.54.019,eb_02psyexp,2022.2.4,119.98591145150542,
59,0,59,0,,,,,,,,,,,,,,,,,,,,,,,,,,,,,,,,,,,,,,,,,,,,,,,,,,,,,,,,,,,177.28100022976287,177.28100022976287,177.28100022976287,177.28100022976287,177.28100022976287,177.28100022976287,l,1,1.2399526195367798,178.53111983719282,179.56451183988247,,,,,,,,,,,,,,,,,,,,,,,,,,,,,,,,,,,,,,,698343,2010-12-29_13h43.54.019,eb_02psyexp,2022.2.4,119.98591145150542,
60,0,60,0,,,,,,,,,,,,,,,,,,,,,,,,,,,,,,,,,,,,,,,,,,,,,,,,,,,,,,,,,,,179.56451183988247,179.56451183988247,179.56451183988247,179.56451183988247,179.56451183988247,179.56451183988247,s,1,1.0764569228049368,180.65626627148595,181.68135411699768,,,,,,,,,,,,,,,,,,,,,,,,,,,,,,,,,,,,,,,698343,2010-12-29_13h43.54.019,eb_02psyexp,2022.2.4,119.98591145150542,
61,0,61,0,,,,,,,,,,,,,,,,,,,,,,,,,,,,,,,,,,,,,,,,,,,,,,,,,,,,,,,,,,,181.68135411699768,181.68135411699768,181.68135411699768,181.68135411699768,181.68135411699768,181.68135411699768,l,1,0.7516675150254741,182.4480972822057,183.47314860404003,,,,,,,,,,,,,,,,,,,,,,,,,,,,,,,,,,,,,,,698343,2010-12-29_13h43.54.019,eb_02psyexp,2022.2.4,119.98591145150542,
62,0,62,0,,,,,,,,,,,,,,,,,,,,,,,,,,,,,,,,,,,,,,,,,,,,,,,,,,,,,,,,,,,183.47314860404003,183.47314860404003,183.47314860404003,183.47314860404003,183.47314860404003,183.47314860404003,l,1,0.9998890984570608,184.48159553552978,185.4983351540286,,,,,,,,,,,,,,,,,,,,,,,,,,,,,,,,,,,,,,,698343,2010-12-29_13h43.54.019,eb_02psyexp,2022.2.4,119.98591145150542,
63,0,63,0,,,,,,,,,,,,,,,,,,,,,,,,,,,,,,,,,,,,,,,,,,,,,,,,,,,,,,,,,,,185.4983351540286,185.4983351540286,185.4983351540286,185.4983351540286,185.4983351540286,185.4983351540286,l,1,0.5347313327947631,186.04837757884525,187.07347719639074,,,,,,,,,,,,,,,,,,,,,,,,,,,,,,,,,,,,,,,698343,2010-12-29_13h43.54.019,eb_02psyexp,2022.2.4,119.98591145150542,
64,0,64,0,,,,,,,,,,,,,,,,,,,,,,,,,,,,,,,,,,,,,,,,,,,,,,,,,,,,,,,,,,,187.07347719639074,187.07347719639074,187.07347719639074,187.07347719639074,187.07347719639074,187.07347719639074,s,1,0.8707633939338848,187.956879718462,188.98196635663044,,,,,,,,,,,,,,,,,,,,,,,,,,,,,,,,,,,,,,,698343,2010-12-29_13h43.54.019,eb_02psyexp,2022.2.4,119.98591145150542,
65,0,65,0,,,,,,,,,,,,,,,,,,,,,,,,,,,,,,,,,,,,,,,,,,,,,,,,,,,,,,,,,,,188.98196635663044,188.98196635663044,188.98196635663044,188.98196635663044,188.98196635663044,188.98196635663044,l,1,0.7142005561618134,189.7070091360947,190.73209607601166,,,,,,,,,,,,,,,,,,,,,,,,,,,,,,,,,,,,,,,698343,2010-12-29_13h43.54.019,eb_02psyexp,2022.2.4,119.98591145150542,
66,0,66,0,,,,,,,,,,,,,,,,,,,,,,,,,,,,,,,,,,,,,,,,,,,,,,,,,,,,,,,,,,,190.73209607601166,190.73209607601166,190.73209607601166,190.73209607601166,190.73209607601166,190.73209607601166,s,1,0.8921182776102796,191.64051611279137,192.65723762032576,,,,,,,,,,,,,,,,,,,,,,,,,,,,,,,,,,,,,,,698343,2010-12-29_13h43.54.019,eb_02psyexp,2022.2.4,119.98591145150542,
67,0,67,0,,,,,,,,,,,,,,,,,,,,,,,,,,,,,,,,,,,,,,,,,,,,,,,,,,,,,,,,,,,192.65723762032576,192.65723762032576,192.65723762032576,192.65723762032576,192.65723762032576,192.65723762032576,l,1,0.8309601268265396,193.49898986367043,194.53239001624752,,,,,,,,,,,,,,,,,,,,,,,,,,,,,,,,,,,,,,,698343,2010-12-29_13h43.54.019,eb_02psyexp,2022.2.4,119.98591145150542,
68,0,68,0,,,,,,,,,,,,,,,,,,,,,,,,,,,,,,,,,,,,,,,,,,,,,,,,,,,,,,,,,,,194.53239001624752,194.53239001624752,194.53239001624752,194.53239001624752,194.53239001624752,194.53239001624752,s,1,0.8438762289006263,195.39080762316007,196.41587645222899,,,,,,,,,,,,,,,,,,,,,,,,,,,,,,,,,,,,,,,698343,2010-12-29_13h43.54.019,eb_02psyexp,2022.2.4,119.98591145150542,
69,0,69,0,,,,,,,,,,,,,,,,,,,,,,,,,,,,,,,,,,,,,,,,,,,,,,,,,,,,,,,,,,,196.41587645222899,196.41587645222899,196.41587645222899,196.41587645222899,196.41587645222899,196.41587645222899,l,1,0.6483845793409273,197.07428162300494,198.09101550630294,,,,,,,,,,,,,,,,,,,,,,,,,,,,,,,,,,,,,,,698343,2010-12-29_13h43.54.019,eb_02psyexp,2022.2.4,119.98591145150542,
70,0,70,0,,,,,,,,,,,,,,,,,,,,,,,,,,,,,,,,,,,,,,,,,,,,,,,,,,,,,,,,,,,198.09101550630294,198.09101550630294,198.09101550630294,198.09101550630294,198.09101550630294,198.09101550630294,l,1,0.5492934153880924,198.64938804728445,199.68283257156145,,,,,,,,,,,,,,,,,,,,,,,,,,,,,,,,,,,,,,,698343,2010-12-29_13h43.54.019,eb_02psyexp,2022.2.4,119.98591145150542,
71,0,71,0,,,,,,,,,,,,,,,,,,,,,,,,,,,,,,,,,,,,,,,,,,,,,,,,,,,,,,,,,,,199.68283257156145,199.68283257156145,199.68283257156145,199.68283257156145,199.68283257156145,199.68283257156145,s,1,0.9254960934631526,200.6245736766141,201.64130967285018,,,,,,,,,,,,,,,,,,,,,,,,,,,,,,,,,,,,,,,698343,2010-12-29_13h43.54.019,eb_02psyexp,2022.2.4,119.98591145150542,
72,0,72,0,,,,,,,,,,,,,,,,,,,,,,,,,,,,,,,,,,,,,,,,,,,,,,,,,,,,,,,,,,,201.64130967285018,201.64130967285018,201.64130967285018,201.64130967285018,201.64130967285018,201.64130967285018,s,1,0.6390420630341396,202.29137476650067,203.32480932981707,,,,,,,,,,,,,,,,,,,,,,,,,,,,,,,,,,,,,,,698343,2010-12-29_13h43.54.019,eb_02psyexp,2022.2.4,119.98591145150542,
73,0,73,0,,,,,,,,,,,,,,,,,,,,,,,,,,,,,,,,,,,,,,,,,,,,,,,,,,,,,,,,,,,203.32480932981707,203.32480932981707,203.32480932981707,203.32480932981707,203.32480932981707,203.32480932981707,s,1,0.523568065604195,203.85817341145594,204.87490638915915,,,,,,,,,,,,,,,,,,,,,,,,,,,,,,,,,,,,,,,698343,2010-12-29_13h43.54.019,eb_02psyexp,2022.2.4,119.98591145150542,
74,0,74,0,,,,,,,,,,,,,,,,,,,,,,,,,,,,,,,,,,,,,,,,,,,,,,,,,,,,,,,,,,,204.87490638915915,204.87490638915915,204.87490638915915,204.87490638915915,204.87490638915915,204.87490638915915,s,0,0.3325344182085246,205.21660897834226,206.250033882563,,,,,,,,,,,,,,,,,,,,,,,,,,,,,,,,,,,,,,,698343,2010-12-29_13h43.54.019,eb_02psyexp,2022.2.4,119.98591145150542,
75,0,75,0,,,,,,,,,,,,,,,,,,,,,,,,,,,,,,,,,,,,,,,,,,,,,,,,,,,,,,,,,,,206.250033882563,206.250033882563,206.250033882563,206.250033882563,206.250033882563,206.250033882563,s,1,0.9013741634553298,207.16677799855825,208.18352757801767,,,,,,,,,,,,,,,,,,,,,,,,,,,,,,,,,,,,,,,698343,2010-12-29_13h43.54.019,eb_02psyexp,2022.2.4,119.98591145150542,
76,0,76,0,,,,,,,,,,,,,,,,,,,,,,,,,,,,,,,,,,,,,,,,,,,,,,,,,,,,,,,,,,,208.18352757801767,208.18352757801767,208.18352757801767,208.18352757801767,208.18352757801767,208.18352757801767,l,1,1.0239449236541986,209.21692682499997,210.2503475032281,,,,,,,,,,,,,,,,,,,,,,,,,,,,,,,,,,,,,,,698343,2010-12-29_13h43.54.019,eb_02psyexp,2022.2.4,119.98591145150542,
77,0,77,0,,,,,,,,,,,,,,,,,,,,,,,,,,,,,,,,,,,,,,,,,,,,,,,,,,,,,,,,,,,210.2503475032281,210.2503475032281,210.2503475032281,210.2503475032281,210.2503475032281,210.2503475032281,s,1,0.7331563470652327,210.992090057116,212.01717820449267,,,,,,,,,,,,,,,,,,,,,,,,,,,,,,,,,,,,,,,698343,2010-12-29_13h43.54.019,eb_02psyexp,2022.2.4,119.98591145150542,
78,0,78,0,,,,,,,,,,,,,,,,,,,,,,,,,,,,,,,,,,,,,,,,,,,,,,,,,,,,,,,,,,,212.01717820449267,212.01717820449267,212.01717820449267,212.01717820449267,212.01717820449267,212.01717820449267,l,1,0.7663542610825971,212.79223910998553,213.82569118053652,,,,,,,,,,,,,,,,,,,,,,,,,,,,,,,,,,,,,,,698343,2010-12-29_13h43.54.019,eb_02psyexp,2022.2.4,119.98591145150542,
79,0,79,0,,,,,,,,,,,,,,,,,,,,,,,,,,,,,,,,,,,,,,,,,,,,,,,,,,,,,,,,,,,213.82569118053652,213.82569118053652,213.82569118053652,213.82569118053652,213.82569118053652,213.82569118053652,s,1,0.3898642231943086,214.22568224580027,215.25077371345833,,,,,,,,,,,,,,,,,,,,,,,,,,,,,,,,,,,,,,,698343,2010-12-29_13h43.54.019,eb_02psyexp,2022.2.4,119.98591145150542,
80,0,80,0,,,,,,,,,,,,,,,,,,,,,,,,,,,,,,,,,,,,,,,,,,,,,,,,,,,,,,,,,,,215.25077371345833,215.25077371345833,215.25077371345833,215.25077371345833,215.25077371345833,215.25077371345833,l,1,0.3888101677875966,215.65080401906744,216.67587435734458,,,,,,,,,,,,,,,,,,,,,,,,,,,,,,,,,,,,,,,698343,2010-12-29_13h43.54.019,eb_02psyexp,2022.2.4,119.98591145150542,
81,0,81,0,,,,,,,,,,,,,,,,,,,,,,,,,,,,,,,,,,,,,,,,,,,,,,,,,,,,,,,,,,,216.67587435734458,216.67587435734458,216.67587435734458,216.67587435734458,216.67587435734458,216.67587435734458,l,1,0.7077334496425465,217.39261388522573,218.41768392163794,,,,,,,,,,,,,,,,,,,,,,,,,,,,,,,,,,,,,,,698343,2010-12-29_13h43.54.019,eb_02psyexp,2022.2.4,119.98591145150542,
82,0,82,0,,,,,,,,,,,,,,,,,,,,,,,,,,,,,,,,,,,,,,,,,,,,,,,,,,,,,,,,,,,218.41768392163794,218.41768392163794,218.41768392163794,218.41768392163794,218.41768392163794,218.41768392163794,s,1,0.885961773339659,219.31778833107091,220.34288040245883,,,,,,,,,,,,,,,,,,,,,,,,,,,,,,,,,,,,,,,698343,2010-12-29_13h43.54.019,eb_02psyexp,2022.2.4,119.98591145150542,
83,0,83,0,,,,,,,,,,,,,,,,,,,,,,,,,,,,,,,,,,,,,,,,,,,,,,,,,,,,,,,,,,,220.34288040245883,220.34288040245883,220.34288040245883,220.34288040245883,220.34288040245883,220.34288040245883,l,1,0.7597923740977421,221.11789512517862,222.14300923142582,,,,,,,,,,,,,,,,,,,,,,,,,,,,,,,,,,,,,,,698343,2010-12-29_13h43.54.019,eb_02psyexp,2022.2.4,119.98591145150542,
84,0,84,0,,,,,,,,,,,,,,,,,,,,,,,,,,,,,,,,,,,,,,,,,,,,,,,,,,,,,,,,,,,222.14300923142582,222.14300923142582,222.14300923142582,222.14300923142582,222.14300923142582,222.14300923142582,s,1,0.8076882024761289,222.95977173000574,223.98486168845557,,,,,,,,,,,,,,,,,,,,,,,,,,,,,,,,,,,,,,,698343,2010-12-29_13h43.54.019,eb_02psyexp,2022.2.4,119.98591145150542,
85,0,85,0,,,,,,,,,,,,,,,,,,,,,,,,,,,,,,,,,,,,,,,,,,,,,,,,,,,,,,,,,,,223.98486168845557,223.98486168845557,223.98486168845557,223.98486168845557,223.98486168845557,223.98486168845557,l,1,0.9419613314094022,224.9432482351549,225.9683037828654,,,,,,,,,,,,,,,,,,,,,,,,,,,,,,,,,,,,,,,698343,2010-12-29_13h43.54.019,eb_02psyexp,2022.2.4,119.98591145150542,
86,0,86,0,,,,,,,,,,,,,,,,,,,,,,,,,,,,,,,,,,,,,,,,,,,,,,,,,,,,,,,,,,,225.9683037828654,225.9683037828654,225.9683037828654,225.9683037828654,225.9683037828654,225.9683037828654,s,1,0.8304898466449231,226.8100385189755,227.83514206053223,,,,,,,,,,,,,,,,,,,,,,,,,,,,,,,,,,,,,,,698343,2010-12-29_13h43.54.019,eb_02psyexp,2022.2.4,119.98591145150542,
87,0,87,0,,,,,,,,,,,,,,,,,,,,,,,,,,,,,,,,,,,,,,,,,,,,,,,,,,,,,,,,,,,227.83514206053223,227.83514206053223,227.83514206053223,227.83514206053223,227.83514206053223,227.83514206053223,l,1,0.7397121971007437,228.58520024188329,229.61028808739502,,,,,,,,,,,,,,,,,,,,,,,,,,,,,,,,,,,,,,,698343,2010-12-29_13h43.54.019,eb_02psyexp,2022.2.4,119.98591145150542,
88,0,88,0,,,,,,,,,,,,,,,,,,,,,,,,,,,,,,,,,,,,,,,,,,,,,,,,,,,,,,,,,,,229.61028808739502,229.61028808739502,229.61028808739502,229.61028808739502,229.61028808739502,229.61028808739502,s,1,0.7405504307243973,230.36034838156775,231.38542717159726,,,,,,,,,,,,,,,,,,,,,,,,,,,,,,,,,,,,,,,698343,2010-12-29_13h43.54.019,eb_02psyexp,2022.2.4,119.98591145150542,
89,0,89,0,,,,,,,,,,,,,,,,,,,,,,,,,,,,,,,,,,,,,,,,,,,,,,,,,,,,,,,,,,,231.38542717159726,231.38542717159726,231.38542717159726,231.38542717159726,231.38542717159726,231.38542717159726,l,1,0.8454612359637395,232.2438402508851,233.2772536847042,,,,,,,,,,,,,,,,,,,,,,,,,,,,,,,,,,,,,,,698343,2010-12-29_13h43.54.019,eb_02psyexp,2022.2.4,119.98591145150542,
90,0,90,0,,,,,,,,,,,,,,,,,,,,,,,,,,,,,,,,,,,,,,,,,,,,,,,,,,,,,,,,,,,233.2772536847042,233.2772536847042,233.2772536847042,233.2772536847042,233.2772536847042,233.2772536847042,s,1,0.689658151124604,233.9773118509911,234.99408920051064,,,,,,,,,,,,,,,,,,,,,,,,,,,,,,,,,,,,,,,698343,2010-12-29_13h43.54.019,eb_02psyexp,2022.2.4,119.98591145150542,
91,0,91,0,,,,,,,,,,,,,,,,,,,,,,,,,,,,,,,,,,,,,,,,,,,,,,,,,,,,,,,,,,,234.99408920051064,234.99408920051064,234.99408920051064,234.99408920051064,234.99408920051064,234.99408920051064,s,1,0.8038912488846108,235.8107771425275,236.83584868814796,,,,,,,,,,,,,,,,,,,,,,,,,,,,,,,,,,,,,,,698343,2010-12-29_13h43.54.019,eb_02psyexp,2022.2.4,119.98591145150542,
92,0,92,0,,,,,,,,,,,,,,,,,,,,,,,,,,,,,,,,,,,,,,,,,,,,,,,,,,,,,,,,,,,236.83584868814796,236.83584868814796,236.83584868814796,236.83584868814796,236.83584868814796,236.83584868814796,l,1,0.8021646747365594,237.65260786633007,238.66936801047996,,,,,,,,,,,,,,,,,,,,,,,,,,,,,,,,,,,,,,,698343,2010-12-29_13h43.54.019,eb_02psyexp,2022.2.4,119.98591145150542,
93,0,93,0,,,,,,,,,,,,,,,,,,,,,,,,,,,,,,,,,,,,,,,,,,,,,,,,,,,,,,,,,,,238.66936801047996,238.66936801047996,238.66936801047996,238.66936801047996,238.66936801047996,238.66936801047996,s,0,0.9206308975117281,239.60275605891366,240.63618035940453,,,,,,,,,,,,,,,,,,,,,,,,,,,,,,,,,,,,,,,698343,2010-12-29_13h43.54.019,eb_02psyexp,2022.2.4,119.98591145150542,
94,0,94,0,,,,,,,,,,,,,,,,,,,,,,,,,,,,,,,,,,,,,,,,,,,,,,,,,,,,,,,,,,,240.63618035940453,240.63618035940453,240.63618035940453,240.63618035940453,240.63618035940453,240.63618035940453,s,1,1.369861017446965,242.01961895241402,243.04472370143048,,,,,,,,,,,,,,,,,,,,,,,,,,,,,,,,,,,,,,,698343,2010-12-29_13h43.54.019,eb_02psyexp,2022.2.4,119.98591145150542,
95,0,95,0,,,,,,,,,,,,,,,,,,,,,,,,,,,,,,,,,,,,,,,,,,,,,,,,,,,,,,,,,,,243.04472370143048,243.04472370143048,243.04472370143048,243.04472370143048,243.04472370143048,243.04472370143048,l,1,0.9213514100993052,243.9781253329711,244.99488426977769,,,,,,,,,,,,,,,,,,,,,,,,,,,,,,,,,,,,,,,698343,2010-12-29_13h43.54.019,eb_02psyexp,2022.2.4,119.98591145150542,
96,0,96,0,,,,,,,,,,,,,,,,,,,,,,,,,,,,,,,,,,,,,,,,,,,,,,,,,,,,,,,,,,,244.99488426977769,244.99488426977769,244.99488426977769,244.99488426977769,244.99488426977769,244.99488426977769,s,1,0.9472687356173992,245.9532771552913,246.98672681103926,,,,,,,,,,,,,,,,,,,,,,,,,,,,,,,,,,,,,,,698343,2010-12-29_13h43.54.019,eb_02psyexp,2022.2.4,119.98591145150542,
97,0,97,0,,,,,,,,,,,,,,,,,,,,,,,,,,,,,,,,,,,,,,,,,,,,,,,,,,,,,,,,,,,246.98672681103926,246.98672681103926,246.98672681103926,246.98672681103926,246.98672681103926,246.98672681103926,s,1,0.8994166752090678,247.89513688685838,248.92020390473772,,,,,,,,,,,,,,,,,,,,,,,,,,,,,,,,,,,,,,,698343,2010-12-29_13h43.54.019,eb_02psyexp,2022.2.4,119.98591145150542,
98,0,98,0,,,,,,,,,,,,,,,,,,,,,,,,,,,,,,,,,,,,,,,,,,,,,,,,,,,,,,,,,,,248.92020390473772,248.92020390473772,248.92020390473772,248.92020390473772,248.92020390473772,248.92020390473772,l,1,1.1099763056263328,250.04528725275304,251.07038385188207,,,,,,,,,,,,,,,,,,,,,,,,,,,,,,,,,,,,,,,698343,2010-12-29_13h43.54.019,eb_02psyexp,2022.2.4,119.98591145150542,
99,0,99,0,,,,,,,,,,,,,,,,,,,,,,,,,,,,,,,,,,,,,,,,,,,,,,,,,,,,,,,,,,,251.07038385188207,251.07038385188207,251.07038385188207,251.07038385188207,251.07038385188207,251.07038385188207,s,1,0.7988503770902753,251.87878001248464,252.90388204483315,,,,,,,,,,,,,,,,,,,,,,,,,,,,,,,,,,,,,,,698343,2010-12-29_13h43.54.019,eb_02psyexp,2022.2.4,119.98591145150542,
100,0,100,0,,,,,,,,,,,,,,,,,,,,,,,,,,,,,,,,,,,,,,,,,,,,,,,,,,,,,,,,,,,252.90388204483315,252.90388204483315,252.90388204483315,252.90388204483315,252.90388204483315,252.90388204483315,l,1,0.8133868025615811,253.72893209883478,254.7539997205604,,,,,,,,,,,,,,,,,,,,,,,,,,,,,,,,,,,,,,,698343,2010-12-29_13h43.54.019,eb_02psyexp,2022.2.4,119.98591145150542,
101,0,101,0,,,,,,,,,,,,,,,,,,,,,,,,,,,,,,,,,,,,,,,,,,,,,,,,,,,,,,,,,,,254.7539997205604,254.7539997205604,254.7539997205604,254.7539997205604,254.7539997205604,254.7539997205604,s,1,0.8112946897745132,255.57908418530133,256.6041714270832,,,,,,,,,,,,,,,,,,,,,,,,,,,,,,,,,,,,,,,698343,2010-12-29_13h43.54.019,eb_02psyexp,2022.2.4,119.98591145150542,
102,0,102,0,,,,,,,,,,,,,,,,,,,,,,,,,,,,,,,,,,,,,,,,,,,,,,,,,,,,,,,,,,,256.6041714270832,256.6041714270832,256.6041714270832,256.6041714270832,256.6041714270832,256.6041714270832,l,1,0.7771495748311281,257.39589769626036,258.4209864473669,,,,,,,,,,,,,,,,,,,,,,,,,,,,,,,,,,,,,,,698343,2010-12-29_13h43.54.019,eb_02psyexp,2022.2.4,119.98591145150542,
103,0,103,0,,,,,,,,,,,,,,,,,,,,,,,,,,,,,,,,,,,,,,,,,,,,,,,,,,,,,,,,,,,258.4209864473669,258.4209864473669,258.4209864473669,258.4209864473669,258.4209864473669,258.4209864473669,s,1,0.41634811845142394,258.8460206844611,259.86276060482487,,,,,,,,,,,,,,,,,,,,,,,,,,,,,,,,,,,,,,,698343,2010-12-29_13h43.54.019,eb_02psyexp,2022.2.4,119.98591145150542,
104,0,104,0,,,,,,,,,,,,,,,,,,,,,,,,,,,,,,,,,,,,,,,,,,,,,,,,,,,,,,,,,,,259.86276060482487,259.86276060482487,259.86276060482487,259.86276060482487,259.86276060482487,259.86276060482487,s,1,1.2226319424808025,261.0962033784017,262.1296370361233,,,,,,,,,,,,,,,,,,,,,,,,,,,,,,,,,,,,,,,698343,2010-12-29_13h43.54.019,eb_02psyexp,2022.2.4,119.98591145150542,
105,0,105,0,,,,,,,,,,,,,,,,,,,,,,,,,,,,,,,,,,,,,,,,,,,,,,,,,,,,,,,,,,,262.1296370361233,262.1296370361233,262.1296370361233,262.1296370361233,262.1296370361233,262.1296370361233,s,1,1.6678046134766191,263.813076021499,264.83817292249296,,,,,,,,,,,,,,,,,,,,,,,,,,,,,,,,,,,,,,,698343,2010-12-29_13h43.54.019,eb_02psyexp,2022.2.4,119.98591145150542,
106,0,106,0,,,,,,,,,,,,,,,,,,,,,,,,,,,,,,,,,,,,,,,,,,,,,,,,,,,,,,,,,,,264.83817292249296,264.83817292249296,264.83817292249296,264.83817292249296,264.83817292249296,264.83817292249296,l,1,1.1753256244119257,266.02994187304284,267.06334564776625,,,,,,,,,,,,,,,,,,,,,,,,,,,,,,,,,,,,,,,698343,2010-12-29_13h43.54.019,eb_02psyexp,2022.2.4,119.98591145150542,
107,0,107,0,,,,,,,,,,,,,,,,,,,,,,,,,,,,,,,,,,,,,,,,,,,,,,,,,,,,,,,,,,,267.06334564776625,267.06334564776625,267.06334564776625,267.06334564776625,267.06334564776625,267.06334564776625,s,1,0.6931432952405885,267.77175204106607,268.78849437611643,,,,,,,,,,,,,,,,,,,,,,,,,,,,,,,,,,,,,,,698343,2010-12-29_13h43.54.019,eb_02psyexp,2022.2.4,119.98591145150542,
108,0,108,0,,,,,,,,,,,,,,,,,,,,,,,,,,,,,,,,,,,,,,,,,,,,,,,,,,,,,,,,,,,268.78849437611643,268.78849437611643,268.78849437611643,268.78849437611643,268.78849437611643,268.78849437611643,s,1,1.0880282893776894,269.88858979044016,270.91368578583933,,,,,,,,,,,,,,,,,,,,,,,,,,,,,,,,,,,,,,,698343,2010-12-29_13h43.54.019,eb_02psyexp,2022.2.4,119.98591145150542,
109,0,109,0,,,,,,,,,,,,,,,,,,,,,,,,,,,,,,,,,,,,,,,,,,,,,,,,,,,,,,,,,,,270.91368578583933,270.91368578583933,270.91368578583933,270.91368578583933,270.91368578583933,270.91368578583933,s,1,0.8268712854478508,271.75541116460226,272.78049508610275,,,,,,,,,,,,,,,,,,,,,,,,,,,,,,,,,,,,,,,698343,2010-12-29_13h43.54.019,eb_02psyexp,2022.2.4,119.98591145150542,
110,0,110,0,,,,,,,,,,,,,,,,,,,,,,,,,,,,,,,,,,,,,,,,,,,,,,,,,,,,,,,,,,,272.78049508610275,272.78049508610275,272.78049508610275,272.78049508610275,272.78049508610275,272.78049508610275,l,1,0.896099359029904,273.6889009360457,274.7139854611596,,,,,,,,,,,,,,,,,,,,,,,,,,,,,,,,,,,,,,,698343,2010-12-29_13h43.54.019,eb_02psyexp,2022.2.4,119.98591145150542,
111,0,111,0,,,,,,,,,,,,,,,,,,,,,,,,,,,,,,,,,,,,,,,,,,,,,,,,,,,,,,,,,,,274.7139854611596,274.7139854611596,274.7139854611596,274.7139854611596,274.7139854611596,274.7139854611596,s,1,0.7946507573360577,275.52238554577343,276.53913844563067,,,,,,,,,,,,,,,,,,,,,,,,,,,,,,,,,,,,,,,698343,2010-12-29_13h43.54.019,eb_02psyexp,2022.2.4,119.98591145150542,
112,0,112,0,,,,,,,,,,,,,,,,,,,,,,,,,,,,,,,,,,,,,,,,,,,,,,,,,,,,,,,,,,,276.53913844563067,276.53913844563067,276.53913844563067,276.53913844563067,276.53913844563067,276.53913844563067,s,1,0.7775371484458447,277.33086622401606,278.35594350483734,,,,,,,,,,,,,,,,,,,,,,,,,,,,,,,,,,,,,,,698343,2010-12-29_13h43.54.019,eb_02psyexp,2022.2.4,119.98591145150542,
113,0,113,0,,,,,,,,,,,,,,,,,,,,,,,,,,,,,,,,,,,,,,,,,,,,,,,,,,,,,,,,,,,278.35594350483734,278.35594350483734,278.35594350483734,278.35594350483734,278.35594350483734,278.35594350483734,s,1,0.6967537064338103,279.0643571424298,280.08943291404285,,,,,,,,,,,,,,,,,,,,,,,,,,,,,,,,,,,,,,,698343,2010-12-29_13h43.54.019,eb_02psyexp,2022.2.4,119.98591145150542,
114,0,114,0,,,,,,,,,,,,,,,,,,,,,,,,,,,,,,,,,,,,,,,,,,,,,,,,,,,,,,,,,,,280.08943291404285,280.08943291404285,280.08943291404285,280.08943291404285,280.08943291404285,280.08943291404285,l,1,0.7633016661275178,280.86449200846255,281.88956113928,,,,,,,,,,,,,,,,,,,,,,,,,,,,,,,,,,,,,,,698343,2010-12-29_13h43.54.019,eb_02psyexp,2022.2.4,119.98591145150542,
115,0,115,0,,,,,,,,,,,,,,,,,,,,,,,,,,,,,,,,,,,,,,,,,,,,,,,,,,,,,,,,,,,281.88956113928,281.88956113928,281.88956113928,281.88956113928,281.88956113928,281.88956113928,s,0,0.7542021378176287,282.65630822849926,283.68976271385327,,,,,,,,,,,,,,,,,,,,,,,,,,,,,,,,,,,,,,,698343,2010-12-29_13h43.54.019,eb_02psyexp,2022.2.4,119.98591145150542,
116,0,116,0,,,,,,,,,,,,,,,,,,,,,,,,,,,,,,,,,,,,,,,,,,,,,,,,,,,,,,,,,,,283.68976271385327,283.68976271385327,283.68976271385327,283.68976271385327,283.68976271385327,283.68976271385327,s,1,0.9860119103686884,284.68980768928304,285.70654157258105,,,,,,,,,,,,,,,,,,,,,,,,,,,,,,,,,,,,,,,698343,2010-12-29_13h43.54.019,eb_02psyexp,2022.2.4,119.98591145150542,
117,0,117,0,,,,,,,,,,,,,,,,,,,,,,,,,,,,,,,,,,,,,,,,,,,,,,,,,,,,,,,,,,,285.70654157258105,285.70654157258105,285.70654157258105,285.70654157258105,285.70654157258105,285.70654157258105,s,1,1.2253268469357863,286.9483174807392,287.97339325235225,,,,,,,,,,,,,,,,,,,,,,,,,,,,,,,,,,,,,,,698343,2010-12-29_13h43.54.019,eb_02psyexp,2022.2.4,119.98591145150542,
118,0,118,0,,,,,,,,,,,,,,,,,,,,,,,,,,,,,,,,,,,,,,,,,,,,,,,,,,,,,,,,,,,287.97339325235225,287.97339325235225,287.97339325235225,287.97339325235225,287.97339325235225,287.97339325235225,l,1,0.9744849157286808,288.95684832625557,289.973559570848,,,,,,,,,,,,,,,,,,,,,,,,,,,,,,,,,,,,,,,698343,2010-12-29_13h43.54.019,eb_02psyexp,2022.2.4,119.98591145150542,
119,0,119,0,,,,,,,,,,,,,,,,,,,,,,,,,,,,,,,,,,,,,,,,,,,,,,,,,,,,,,,,,,,289.973559570848,289.973559570848,289.973559570848,289.973559570848,289.973559570848,289.973559570848,s,1,0.8543331703403965,290.8403109161882,291.8653954413021,,,,,,,,,,,,,,,,,,,,,,,,,,,,,,,,,,,,,,,698343,2010-12-29_13h43.54.019,eb_02psyexp,2022.2.4,119.98591145150542,
120,0,120,0,,,,,,,,,,,,,,,,,,,,,,,,,,,,,,,,,,,,,,,,,,,,,,,,,,,,,,,,,,,291.8653954413021,291.8653954413021,291.8653954413021,291.8653954413021,291.8653954413021,291.8653954413021,l,1,0.8905308557441458,292.76546996773686,293.78220385103486,,,,,,,,,,,,,,,,,,,,,,,,,,,,,,,,,,,,,,,698343,2010-12-29_13h43.54.019,eb_02psyexp,2022.2.4,119.98591145150542,
121,0,121,0,,,,,,,,,,,,,,,,,,,,,,,,,,,,,,,,,,,,,,,,,,,,,,,,,,,,,,,,,,,293.78220385103486,293.78220385103486,293.78220385103486,293.78220385103486,293.78220385103486,293.78220385103486,s,1,0.8137740741949528,294.6073015971342,295.63238038728014,,,,,,,,,,,,,,,,,,,,,,,,,,,,,,,,,,,,,,,698343,2010-12-29_13h43.54.019,eb_02psyexp,2022.2.4,119.98591145150542,
122,0,122,0,,,,,,,,,,,,,,,,,,,,,,,,,,,,,,,,,,,,,,,,,,,,,,,,,,,,,,,,,,,295.63238038728014,295.63238038728014,295.63238038728014,295.63238038728014,295.63238038728014,295.63238038728014,l,1,1.6996420958312228,297.3408447353868,298.3742463971721,,,,,,,,,,,,,,,,,,,,,,,,,,,,,,,,,,,,,,,698343,2010-12-29_13h43.54.019,eb_02psyexp,2022.2.4,119.98591145150542,
123,0,123,0,,,,,,,,,,,,,,,,,,,,,,,,,,,,,,,,,,,,,,,,,,,,,,,,,,,,,,,,,,,298.3742463971721,298.3742463971721,298.3742463971721,298.3742463971721,298.3742463971721,298.3742463971721,s,1,1.4288153717061505,299.81603111943696,300.8327822081046,,,,,,,,,,,,,,,,,,,,,,,,,,,,,,,,,,,,,,,698343,2010-12-29_13h43.54.019,eb_02psyexp,2022.2.4,119.98591145150542,
124,0,124,0,,,,,,,,,,,,,,,,,,,,,,,,,,,,,,,,,,,,,,,,,,,,,,,,,,,,,,,,,,,300.8327822081046,300.8327822081046,300.8327822081046,300.8327822081046,300.8327822081046,300.8327822081046,s,1,0.8743110207142308,301.7162254797295,302.7412891773274,,,,,,,,,,,,,,,,,,,,,,,,,,,,,,,,,,,,,,,698343,2010-12-29_13h43.54.019,eb_02psyexp,2022.2.4,119.98591145150542,
125,0,125,0,,,,,,,,,,,,,,,,,,,,,,,,,,,,,,,,,,,,,,,,,,,,,,,,,,,,,,,,,,,302.7412891773274,302.7412891773274,302.7412891773274,302.7412891773274,302.7412891773274,302.7412891773274,s,1,1.181844950770028,303.93305088358466,304.9497754095355,,,,,,,,,,,,,,,,,,,,,,,,,,,,,,,,,,,,,,,698343,2010-12-29_13h43.54.019,eb_02psyexp,2022.2.4,119.98591145150542,
126,0,126,0,,,,,,,,,,,,,,,,,,,,,,,,,,,,,,,,,,,,,,,,,,,,,,,,,,,,,,,,,,,304.9497754095355,304.9497754095355,304.9497754095355,304.9497754095355,304.9497754095355,304.9497754095355,s,1,0.9494000886334106,305.9082265518373,306.9333183213603,,,,,,,,,,,,,,,,,,,,,,,,,,,,,,,,,,,,,,,698343,2010-12-29_13h43.54.019,eb_02psyexp,2022.2.4,119.98591145150542,
127,0,127,0,,,,,,,,,,,,,,,,,,,,,,,,,,,,,,,,,,,,,,,,,,,,,,,,,,,,,,,,,,,306.9333183213603,306.9333183213603,306.9333183213603,306.9333183213603,306.9333183213603,306.9333183213603,l,1,0.9738899720832705,307.91671423299704,308.93344690895174,,,,,,,,,,,,,,,,,,,,,,,,,,,,,,,,,,,,,,,698343,2010-12-29_13h43.54.019,eb_02psyexp,2022.2.4,119.98591145150542,
128,0,128,0,,,,,,,,,,,,,,,,,,,,,,,,,,,,,,,,,,,,,,,,,,,,,,,,,,,,,,,,,,,308.93344690895174,308.93344690895174,308.93344690895174,308.93344690895174,308.93344690895174,308.93344690895174,s,1,1.0217939503490925,309.96687060571276,311.0003477296559,,,,,,,,,,,,,,,,,,,,,,,,,,,,,,,,,,,,,,,698343,2010-12-29_13h43.54.019,eb_02psyexp,2022.2.4,119.98591145150542,
129,0,129,0,,,,,,,,,,,,,,,,,,,,,,,,,,,,,,,,,,,,,,,,,,,,,,,,,,,,,,,,,,,311.0003477296559,311.0003477296559,311.0003477296559,311.0003477296559,311.0003477296559,311.0003477296559,s,1,0.7709275693632662,311.7836952850921,312.80876683071256,,,,,,,,,,,,,,,,,,,,,,,,,,,,,,,,,,,,,,,698343,2010-12-29_13h43.54.019,eb_02psyexp,2022.2.4,119.98591145150542,
130,0,130,0,,,,,,,,,,,,,,,,,,,,,,,,,,,,,,,,,,,,,,,,,,,,,,,,,,,,,,,,,,,312.80876683071256,312.80876683071256,312.80876683071256,312.80876683071256,312.80876683071256,312.80876683071256,l,1,0.8745540088275447,313.69218625628855,314.72560512344353,,,,,,,,,,,,,,,,,,,,,,,,,,,,,,,,,,,,,,,698343,2010-12-29_13h43.54.019,eb_02psyexp,2022.2.4,119.98591145150542,
131,0,131,0,,,,,,,,,,,,,,,,,,,,,,,,,,,,,,,,,,,,,,,,,,,,,,,,,,,,,,,,,,,314.72560512344353,314.72560512344353,314.72560512344353,314.72560512344353,314.72560512344353,314.72560512344353,s,1,0.8287400301778689,315.5673706480302,316.58409155195113,,,,,,,,,,,,,,,,,,,,,,,,,,,,,,,,,,,,,,,698343,2010-12-29_13h43.54.019,eb_02psyexp,2022.2.4,119.98591145150542,
132,0,132,0,,,,,,,,,,,,,,,,,,,,,,,,,,,,,,,,,,,,,,,,,,,,,,,,,,,,,,,,,,,316.58409155195113,316.58409155195113,316.58409155195113,316.58409155195113,316.58409155195113,316.58409155195113,l,1,0.818261657608673,317.4174871164141,318.44257948955055,,,,,,,,,,,,,,,,,,,,,,,,,,,,,,,,,,,,,,,698343,2010-12-29_13h43.54.019,eb_02psyexp,2022.2.4,119.98591145150542,
133,0,133,0,,,,,,,,,,,,,,,,,,,,,,,,,,,,,,,,,,,,,,,,,,,,,,,,,,,,,,,,,,,318.44257948955055,318.44257948955055,318.44257948955055,318.44257948955055,318.44257948955055,318.44257948955055,l,1,0.9838114340091124,319.4426582721062,320.4593930608826,,,,,,,,,,,,,,,,,,,,,,,,,,,,,,,,,,,,,,,698343,2010-12-29_13h43.54.019,eb_02psyexp,2022.2.4,119.98591145150542,
134,0,134,0,,,,,,,,,,,,,,,,,,,,,,,,,,,,,,,,,,,,,,,,,,,,,,,,,,,,,,,,,,,320.4593930608826,320.4593930608826,320.4593930608826,320.4593930608826,320.4593930608826,320.4593930608826,s,1,0.959023927920498,321.43451500020456,322.4596109956037,,,,,,,,,,,,,,,,,,,,,,,,,,,,,,,,,,,,,,,698343,2010-12-29_13h43.54.019,eb_02psyexp,2022.2.4,119.98591145150542,
135,0,135,0,,,,,,,,,,,,,,,,,,,,,,,,,,,,,,,,,,,,,,,,,,,,,,,,,,,,,,,,,,,322.4596109956037,322.4596109956037,322.4596109956037,322.4596109956037,322.4596109956037,322.4596109956037,l,1,0.8708593817427754,323.34298001253046,324.35971932904795,,,,,,,,,,,,,,,,,,,,,,,,,,,,,,,,,,,,,,,698343,2010-12-29_13h43.54.019,eb_02psyexp,2022.2.4,119.98591145150542,
136,0,136,0,,,,,,,,,,,,,,,,,,,,,,,,,,,,,,,,,,,,,,,,,,,,,,,,,,,,,,,,,,,324.35971932904795,324.35971932904795,324.35971932904795,324.35971932904795,324.35971932904795,324.35971932904795,s,1,0.946796040632762,325.31814179581124,326.3432254154468,,,,,,,,,,,,,,,,,,,,,,,,,,,,,,,,,,,,,,,698343,2010-12-29_13h43.54.019,eb_02psyexp,2022.2.4,119.98591145150542,
137,0,137,0,,,,,,,,,,,,,,,,,,,,,,,,,,,,,,,,,,,,,,,,,,,,,,,,,,,,,,,,,,,326.3432254154468,326.3432254154468,326.3432254154468,326.3432254154468,326.3432254154468,326.3432254154468,s,1,0.8432996980845928,327.2016466445057,328.2183630206855,,,,,,,,,,,,,,,,,,,,,,,,,,,,,,,,,,,,,,,698343,2010-12-29_13h43.54.019,eb_02psyexp,2022.2.4,119.98591145150542,
138,0,138,0,,,,,,,,,,,,,,,,,,,,,,,,,,,,,,,,,,,,,,,,,,,,,,,,,,,,,,,,,,,328.2183630206855,328.2183630206855,328.2183630206855,328.2183630206855,328.2183630206855,328.2183630206855,s,1,3.0792532484047115,331.3102985614678,332.33538550150115,,,,,,,,,,,,,,,,,,,,,,,,,,,,,,,,,,,,,,,698343,2010-12-29_13h43.54.019,eb_02psyexp,2022.2.4,119.98591145150542,
139,0,139,0,,,,,,,,,,,,,,,,,,,,,,,,,,,,,,,,,,,,,,,,,,,,,,,,,,,,,,,,,,,332.33538550150115,332.33538550150115,332.33538550150115,332.33538550150115,332.33538550150115,332.33538550150115,l,1,0.8422562073683366,333.1938031084137,334.2188749558991,,,,,,,,,,,,,,,,,,,,,,,,,,,,,,,,,,,,,,,698343,2010-12-29_13h43.54.019,eb_02psyexp,2022.2.4,119.98591145150542,
140,0,140,0,,,,,,,,,,,,,,,,,,,,,,,,,,,,,,,,,,,,,,,,,,,,,,,,,,,,,,,,,,,334.2188749558991,334.2188749558991,334.2188749558991,334.2188749558991,334.2188749558991,334.2188749558991,l,1,1.0227915600407869,335.2522895971779,336.27737261308357,,,,,,,,,,,,,,,,,,,,,,,,,,,,,,,,,,,,,,,698343,2010-12-29_13h43.54.019,eb_02psyexp,2022.2.4,119.98591145150542,
141,0,141,0,,,,,,,,,,,,,,,,,,,,,,,,,,,,,,,,,,,,,,,,,,,,,,,,,,,,,,,,,,,336.27737261308357,336.27737261308357,336.27737261308357,336.27737261308357,336.27737261308357,336.27737261308357,l,1,1.0603481678990647,337.3524640959222,338.3775296045933,,,,,,,,,,,,,,,,,,,,,,,,,,,,,,,,,,,,,,,698343,2010-12-29_13h43.54.019,eb_02psyexp,2022.2.4,119.98591145150542,
142,0,142,0,,,,,,,,,,,,,,,,,,,,,,,,,,,,,,,,,,,,,,,,,,,,,,,,,,,,,,,,,,,338.3775296045933,338.3775296045933,338.3775296045933,338.3775296045933,338.3775296045933,338.3775296045933,l,1,0.984227079548873,339.37762981827836,340.4110523076961,,,,,,,,,,,,,,,,,,,,,,,,,,,,,,,,,,,,,,,698343,2010-12-29_13h43.54.019,eb_02psyexp,2022.2.4,119.98591145150542,
143,0,143,0,,,,,,,,,,,,,,,,,,,,,,,,,,,,,,,,,,,,,,,,,,,,,,,,,,,,,,,,,,,340.4110523076961,340.4110523076961,340.4110523076961,340.4110523076961,340.4110523076961,340.4110523076961,s,1,1.1347239677561447,341.561147435219,342.58620871801395,,,,,,,,,,,,,,,,,,,,,,,,,,,,,,,,,,,,,,,698343,2010-12-29_13h43.54.019,eb_02psyexp,2022.2.4,119.98591145150542,
144,0,144,0,,,,,,,,,,,,,,,,,,,,,,,,,,,,,,,,,,,,,,,,,,,,,,,,,,,,,,,,,,,342.58620871801395,342.58620871801395,342.58620871801395,342.58620871801395,342.58620871801395,342.58620871801395,l,1,0.8316124215489253,343.4279854110209,344.45304880687036,,,,,,,,,,,,,,,,,,,,,,,,,,,,,,,,,,,,,,,698343,2010-12-29_13h43.54.019,eb_02psyexp,2022.2.4,119.98591145150542,
145,0,145,0,,,,,,,,,,,,,,,,,,,,,,,,,,,,,,,,,,,,,,,,,,,,,,,,,,,,,,,,,,,344.45304880687036,344.45304880687036,344.45304880687036,344.45304880687036,344.45304880687036,344.45304880687036,l,1,0.9958216884406283,345.46144351852126,346.4865292510949,,,,,,,,,,,,,,,,,,,,,,,,,,,,,,,,,,,,,,,698343,2010-12-29_13h43.54.019,eb_02psyexp,2022.2.4,119.98591145150542,
146,0,146,0,,,,,,,,,,,,,,,,,,,,,,,,,,,,,,,,,,,,,,,,,,,,,,,,,,,,,,,,,,,346.4865292510949,346.4865292510949,346.4865292510949,346.4865292510949,346.4865292510949,346.4865292510949,l,1,0.7943458902882412,347.29497038712725,348.32834729738533,,,,,,,,,,,,,,,,,,,,,,,,,,,,,,,,,,,,,,,698343,2010-12-29_13h43.54.019,eb_02psyexp,2022.2.4,119.98591145150542,
147,0,147,0,,,,,,,,,,,,,,,,,,,,,,,,,,,,,,,,,,,,,,,,,,,,,,,,,,,,,,,,,,,348.32834729738533,348.32834729738533,348.32834729738533,348.32834729738533,348.32834729738533,348.32834729738533,s,1,0.9765610304893926,349.3201116598211,350.33684584498405,,,,,,,,,,,,,,,,,,,,,,,,,,,,,,,,,,,,,,,698343,2010-12-29_13h43.54.019,eb_02psyexp,2022.2.4,119.98591145150542,
148,0,148,0,,,,,,,,,,,,,,,,,,,,,,,,,,,,,,,,,,,,,,,,,,,,,,,,,,,,,,,,,,,350.33684584498405,350.33684584498405,350.33684584498405,350.33684584498405,350.33684584498405,350.33684584498405,l,1,0.9600960941752419,351.31192160153296,352.3453643147368,,,,,,,,,,,,,,,,,,,,,,,,,,,,,,,,,,,,,,,698343,2010-12-29_13h43.54.019,eb_02psyexp,2022.2.4,119.98591145150542,
149,0,149,0,,,,,,,,,,,,,,,,,,,,,,,,,,,,,,,,,,,,,,,,,,,,,,,,,,,,,,,,,,,352.3453643147368,352.3453643147368,352.3453643147368,352.3453643147368,352.3453643147368,352.3453643147368,s,1,1.0396187145961449,353.3954470362514,354.4121860510204,,,,,,,,,,,,,,,,,,,,,,,,,,,,,,,,,,,,,,,698343,2010-12-29_13h43.54.019,eb_02psyexp,2022.2.4,119.98591145150542,
150,0,150,0,,,,,,,,,,,,,,,,,,,,,,,,,,,,,,,,,,,,,,,,,,,,,,,,,,,,,,,,,,,354.4121860510204,354.4121860510204,354.4121860510204,354.4121860510204,354.4121860510204,354.4121860510204,l,1,0.9968531051417813,355.420610343921,356.4456809840631,,,,,,,,,,,,,,,,,,,,,,,,,,,,,,,,,,,,,,,698343,2010-12-29_13h43.54.019,eb_02psyexp,2022.2.4,119.98591145150542,
151,0,151,0,,,,,,,,,,,,,,,,,,,,,,,,,,,,,,,,,,,,,,,,,,,,,,,,,,,,,,,,,,,356.4456809840631,356.4456809840631,356.4456809840631,356.4456809840631,356.4456809840631,356.4456809840631,l,1,0.8273874466540292,357.28743443475105,358.32086567766964,,,,,,,,,,,,,,,,,,,,,,,,,,,,,,,,,,,,,,,698343,2010-12-29_13h43.54.019,eb_02psyexp,2022.2.4,119.98591145150542,
152,0,152,0,,,,,,,,,,,,,,,,,,,,,,,,,,,,,,,,,,,,,,,,,,,,,,,,,,,,,,,,,,,358.32086567766964,358.32086567766964,358.32086567766964,358.32086567766964,358.32086567766964,358.32086567766964,s,1,1.1202282917220145,359.45427702879533,360.47934495226946,,,,,,,,,,,,,,,,,,,,,,,,,,,,,,,,,,,,,,,698343,2010-12-29_13h43.54.019,eb_02psyexp,2022.2.4,119.98591145150542,
153,0,153,0,,,,,,,,,,,,,,,,,,,,,,,,,,,,,,,,,,,,,,,,,,,,,,,,,,,,,,,,,,,360.47934495226946,360.47934495226946,360.47934495226946,360.47934495226946,360.47934495226946,360.47934495226946,s,1,0.9607553315581754,361.4544388196664,362.4878425943898,,,,,,,,,,,,,,,,,,,,,,,,,,,,,,,,,,,,,,,698343,2010-12-29_13h43.54.019,eb_02psyexp,2022.2.4,119.98591145150542,
154,0,154,0,,,,,,,,,,,,,,,,,,,,,,,,,,,,,,,,,,,,,,,,,,,,,,,,,,,,,,,,,,,362.4878425943898,362.4878425943898,362.4878425943898,362.4878425943898,362.4878425943898,362.4878425943898,l,1,0.8803132802713662,363.37959756946657,364.4046866223216,,,,,,,,,,,,,,,,,,,,,,,,,,,,,,,,,,,,,,,698343,2010-12-29_13h43.54.019,eb_02psyexp,2022.2.4,119.98591145150542,
155,0,155,0,,,,,,,,,,,,,,,,,,,,,,,,,,,,,,,,,,,,,,,,,,,,,,,,,,,,,,,,,,,364.4046866223216,364.4046866223216,364.4046866223216,364.4046866223216,364.4046866223216,364.4046866223216,l,1,1.2435059814015403,365.66308563540224,366.696521104197,,,,,,,,,,,,,,,,,,,,,,,,,,,,,,,,,,,,,,,698343,2010-12-29_13h43.54.019,eb_02psyexp,2022.2.4,119.98591145150542,
156,0,156,0,,,,,,,,,,,,,,,,,,,,,,,,,,,,,,,,,,,,,,,,,,,,,,,,,,,,,,,,,,,366.696521104197,366.696521104197,366.696521104197,366.696521104197,366.696521104197,366.696521104197,s,1,0.5677460245788097,367.27991961163934,368.30498602590524,,,,,,,,,,,,,,,,,,,,,,,,,,,,,,,,,,,,,,,698343,2010-12-29_13h43.54.019,eb_02psyexp,2022.2.4,119.98591145150542,
157,0,157,0,,,,,,,,,,,,,,,,,,,,,,,,,,,,,,,,,,,,,,,,,,,,,,,,,,,,,,,,,,,368.30498602590524,368.30498602590524,368.30498602590524,368.30498602590524,368.30498602590524,368.30498602590524,s,1,0.5432805910240859,368.8634119940689,369.89678558392916,,,,,,,,,,,,,,,,,,,,,,,,,,,,,,,,,,,,,,,698343,2010-12-29_13h43.54.019,eb_02psyexp,2022.2.4,119.98591145150542,
158,0,158,0,,,,,,,,,,,,,,,,,,,,,,,,,,,,,,,,,,,,,,,,,,,,,,,,,,,,,,,,,,,369.89678558392916,369.89678558392916,369.89678558392916,369.89678558392916,369.89678558392916,369.89678558392916,l,1,0.3994880624813959,370.30518132203724,371.3219004147686,,,,,,,,,,,,,,,,,,,,,,,,,,,,,,,,,,,,,,,698343,2010-12-29_13h43.54.019,eb_02psyexp,2022.2.4,119.98591145150542,
159,0,159,0,,,,,,,,,,,,,,,,,,,,,,,,,,,,,,,,,,,,,,,,,,,,,,,,,,,,,,,,,,,371.3219004147686,371.3219004147686,371.3219004147686,371.3219004147686,371.3219004147686,371.3219004147686,l,1,0.6544345311122015,371.9886287591653,373.0220403819112,,,,,,,,,,,,,,,,,,,,,,,,,,,,,,,,,,,,,,,698343,2010-12-29_13h43.54.019,eb_02psyexp,2022.2.4,119.98591145150542,
160,0,160,0,,,,,,,,,,,,,,,,,,,,,,,,,,,,,,,,,,,,,,,,,,,,,,,,,,,,,,,,,,,373.0220403819112,373.0220403819112,373.0220403819112,373.0220403819112,373.0220403819112,373.0220403819112,s,1,0.5943102117162198,373.63047240220476,374.65550772601273,,,,,,,,,,,,,,,,,,,,,,,,,,,,,,,,,,,,,,,698343,2010-12-29_13h43.54.019,eb_02psyexp,2022.2.4,119.98591145150542,
161,0,161,0,,,,,,,,,,,,,,,,,,,,,,,,,,,,,,,,,,,,,,,,,,,,,,,,,,,,,,,,,,,374.65550772601273,374.65550772601273,374.65550772601273,374.65550772601273,374.65550772601273,374.65550772601273,l,1,0.4808761072345078,375.14723088615574,376.1806440182263,,,,,,,,,,,,,,,,,,,,,,,,,,,,,,,,,,,,,,,698343,2010-12-29_13h43.54.019,eb_02psyexp,2022.2.4,119.98591145150542,
162,0,162,0,,,,,,,,,,,,,,,,,,,,,,,,,,,,,,,,,,,,,,,,,,,,,,,,,,,,,,,,,,,376.1806440182263,376.1806440182263,376.1806440182263,376.1806440182263,376.1806440182263,376.1806440182263,s,1,0.4587355115218088,376.65568249637727,377.6807549475925,,,,,,,,,,,,,,,,,,,,,,,,,,,,,,,,,,,,,,,698343,2010-12-29_13h43.54.019,eb_02psyexp,2022.2.4,119.98591145150542,
163,0,163,0,,,,,,,,,,,,,,,,,,,,,,,,,,,,,,,,,,,,,,,,,,,,,,,,,,,,,,,,,,,377.6807549475925,377.6807549475925,377.6807549475925,377.6807549475925,377.6807549475925,377.6807549475925,l,1,0.5666599733522162,378.2558179056505,379.2892310376046,,,,,,,,,,,,,,,,,,,,,,,,,,,,,,,,,,,,,,,698343,2010-12-29_13h43.54.019,eb_02psyexp,2022.2.4,119.98591145150542,
164,0,164,0,,,,,,,,,,,,,,,,,,,,,,,,,,,,,,,,,,,,,,,,,,,,,,,,,,,,,,,,,,,379.2892310376046,379.2892310376046,379.2892310376046,379.2892310376046,379.2892310376046,379.2892310376046,l,1,0.7262566915014759,380.0309479344869,381.05603608174715,,,,,,,,,,,,,,,,,,,,,,,,,,,,,,,,,,,,,,,698343,2010-12-29_13h43.54.019,eb_02psyexp,2022.2.4,119.98591145150542,
165,0,165,0,,,,,,,,,,,,,,,,,,,,,,,,,,,,,,,,,,,,,,,,,,,,,,,,,,,,,,,,,,,381.05603608174715,381.05603608174715,381.05603608174715,381.05603608174715,381.05603608174715,381.05603608174715,l,1,0.519483148236759,381.5894366870634,382.6144949514419,,,,,,,,,,,,,,,,,,,,,,,,,,,,,,,,,,,,,,,698343,2010-12-29_13h43.54.019,eb_02psyexp,2022.2.4,119.98591145150542,
166,0,166,0,,,,,,,,,,,,,,,,,,,,,,,,,,,,,,,,,,,,,,,,,,,,,,,,,,,,,,,,,,,382.6144949514419,382.6144949514419,382.6144949514419,382.6144949514419,382.6144949514419,382.6144949514419,s,1,0.5050300330622122,383.1312193265185,384.1563062664354,,,,,,,,,,,,,,,,,,,,,,,,,,,,,,,,,,,,,,,698343,2010-12-29_13h43.54.019,eb_02psyexp,2022.2.4,119.98591145150542,
167,0,167,0,,,,,,,,,,,,,,,,,,,,,,,,,,,,,,,,,,,,,,,,,,,,,,,,,,,,,,,,,,,384.1563062664354,384.1563062664354,384.1563062664354,384.1563062664354,384.1563062664354,384.1563062664354,l,1,0.5072211521910504,384.67302671750076,385.7064332088921,,,,,,,,,,,,,,,,,,,,,,,,,,,,,,,,,,,,,,,698343,2010-12-29_13h43.54.019,eb_02psyexp,2022.2.4,119.98591145150542,
168,0,168,0,,,,,,,,,,,,,,,,,,,,,,,,,,,,,,,,,,,,,,,,,,,,,,,,,,,,,,,,,,,385.7064332088921,385.7064332088921,385.7064332088921,385.7064332088921,385.7064332088921,385.7064332088921,l,1,0.4291603846941143,386.14814820408355,387.1732194478391,,,,,,,,,,,,,,,,,,,,,,,,,,,,,,,,,,,,,,,698343,2010-12-29_13h43.54.019,eb_02psyexp,2022.2.4,119.98591145150542,
169,0,169,0,,,,,,,,,,,,,,,,,,,,,,,,,,,,,,,,,,,,,,,,,,,,,,,,,,,,,,,,,,,387.1732194478391,387.1732194478391,387.1732194478391,387.1732194478391,387.1732194478391,387.1732194478391,s,1,0.4983495195629075,387.6815949921729,388.71499454113655,,,,,,,,,,,,,,,,,,,,,,,,,,,,,,,,,,,,,,,698343,2010-12-29_13h43.54.019,eb_02psyexp,2022.2.4,119.98591145150542,
170,0,170,0,,,,,,,,,,,,,,,,,,,,,,,,,,,,,,,,,,,,,,,,,,,,,,,,,,,,,,,,,,,388.71499454113655,388.71499454113655,388.71499454113655,388.71499454113655,388.71499454113655,388.71499454113655,s,1,0.5006314951460809,389.2317424603971,390.2567919710418,,,,,,,,,,,,,,,,,,,,,,,,,,,,,,,,,,,,,,,698343,2010-12-29_13h43.54.019,eb_02psyexp,2022.2.4,119.98591145150542,
171,0,171,0,,,,,,,,,,,,,,,,,,,,,,,,,,,,,,,,,,,,,,,,,,,,,,,,,,,,,,,,,,,390.2567919710418,390.2567919710418,390.2567919710418,390.2567919710418,390.2567919710418,390.2567919710418,l,1,0.4468387522501871,390.7151762539288,391.7486162504647,,,,,,,,,,,,,,,,,,,,,,,,,,,,,,,,,,,,,,,698343,2010-12-29_13h43.54.019,eb_02psyexp,2022.2.4,119.98591145150542,
172,0,172,0,,,,,,,,,,,,,,,,,,,,,,,,,,,,,,,,,,,,,,,,,,,,,,,,,,,,,,,,,,,391.7486162504647,391.7486162504647,391.7486162504647,391.7486162504647,391.7486162504647,391.7486162504647,s,1,0.4420224557397887,392.20696702820715,393.2320639290847,,,,,,,,,,,,,,,,,,,,,,,,,,,,,,,,,,,,,,,698343,2010-12-29_13h43.54.019,eb_02psyexp,2022.2.4,119.98591145150542,
173,0,173,0,,,,,,,,,,,,,,,,,,,,,,,,,,,,,,,,,,,,,,,,,,,,,,,,,,,,,,,,,,,393.2320639290847,393.2320639290847,393.2320639290847,393.2320639290847,393.2320639290847,393.2320639290847,l,1,0.7266204190673307,393.9737723742146,395.0071981837973,,,,,,,,,,,,,,,,,,,,,,,,,,,,,,,,,,,,,,,698343,2010-12-29_13h43.54.019,eb_02psyexp,2022.2.4,119.98591145150542,
174,0,174,0,,,,,,,,,,,,,,,,,,,,,,,,,,,,,,,,,,,,,,,,,,,,,,,,,,,,,,,,,,,395.0071981837973,395.0071981837973,395.0071981837973,395.0071981837973,395.0071981837973,395.0071981837973,l,1,0.5835891526658088,395.6072418311378,396.63231096207164,,,,,,,,,,,,,,,,,,,,,,,,,,,,,,,,,,,,,,,698343,2010-12-29_13h43.54.019,eb_02psyexp,2022.2.4,119.98591145150542,
175,0,175,0,,,,,,,,,,,,,,,,,,,,,,,,,,,,,,,,,,,,,,,,,,,,,,,,,,,,,,,,,,,396.63231096207164,396.63231096207164,396.63231096207164,396.63231096207164,396.63231096207164,396.63231096207164,s,1,0.44643186032772064,397.09070671512745,398.1241008307552,,,,,,,,,,,,,,,,,,,,,,,,,,,,,,,,,,,,,,,698343,2010-12-29_13h43.54.019,eb_02psyexp,2022.2.4,119.98591145150542,
176,0,176,0,,,,,,,,,,,,,,,,,,,,,,,,,,,,,,,,,,,,,,,,,,,,,,,,,,,,,,,,,,,398.1241008307552,398.1241008307552,398.1241008307552,398.1241008307552,398.1241008307552,398.1241008307552,s,1,0.45866518083494157,398.5991577216191,399.6242250414798,,,,,,,,,,,,,,,,,,,,,,,,,,,,,,,,,,,,,,,698343,2010-12-29_13h43.54.019,eb_02psyexp,2022.2.4,119.98591145150542,
177,0,177,0,,,,,,,,,,,,,,,,,,,,,,,,,,,,,,,,,,,,,,,,,,,,,,,,,,,,,,,,,,,399.6242250414798,399.6242250414798,399.6242250414798,399.6242250414798,399.6242250414798,399.6242250414798,s,1,0.39057205815333873,400.0242665153928,401.0576766290469,,,,,,,,,,,,,,,,,,,,,,,,,,,,,,,,,,,,,,,698343,2010-12-29_13h43.54.019,eb_02psyexp,2022.2.4,119.98591145150542,
178,0,178,0,,,,,,,,,,,,,,,,,,,,,,,,,,,,,,,,,,,,,,,,,,,,,,,,,,,,,,,,,,,401.0576766290469,401.0576766290469,401.0576766290469,401.0576766290469,401.0576766290469,401.0576766290469,l,1,0.40516100521199405,401.4743919183966,402.49946014373563,,,,,,,,,,,,,,,,,,,,,,,,,,,,,,,,,,,,,,,698343,2010-12-29_13h43.54.019,eb_02psyexp,2022.2.4,119.98591145150542,
179,0,179,0,,,,,,,,,,,,,,,,,,,,,,,,,,,,,,,,,,,,,,,,,,,,,,,,,,,,,,,,,,,402.49946014373563,402.49946014373563,402.49946014373563,402.49946014373563,402.49946014373563,402.49946014373563,l,1,0.6753897671587765,403.19119996600784,404.2246200405061,,,,,,,,,,,,,,,,,,,,,,,,,,,,,,,,,,,,,,,698343,2010-12-29_13h43.54.019,eb_02psyexp,2022.2.4,119.98591145150542,
180,0,180,0,,,,,,,,,,,,,,,,,,,,,,,,,,,,,,,,,,,,,,,,,,,,,,,,,,,,,,,,,,,404.2246200405061,404.2246200405061,404.2246200405061,404.2246200405061,404.2246200405061,404.2246200405061,s,1,0.6382572565926239,404.8746715510497,405.89974007813726,,,,,,,,,,,,,,,,,,,,,,,,,,,,,,,,,,,,,,,698343,2010-12-29_13h43.54.019,eb_02psyexp,2022.2.4,119.98591145150542,
181,0,181,0,,,,,,,,,,,,,,,,,,,,,,,,,,,,,,,,,,,,,,,,,,,,,,,,,,,,,,,,,,,405.89974007813726,405.89974007813726,405.89974007813726,405.89974007813726,405.89974007813726,405.89974007813726,l,1,0.6431644094409421,406.5581561154686,407.59156139951665,,,,,,,,,,,,,,,,,,,,,,,,,,,,,,,,,,,,,,,698343,2010-12-29_13h43.54.019,eb_02psyexp,2022.2.4,119.98591145150542,
182,0,182,0,,,,,,,,,,,,,,,,,,,,,,,,,,,,,,,,,,,,,,,,,,,,,,,,,,,,,,,,,,,407.59156139951665,407.59156139951665,407.59156139951665,407.59156139951665,407.59156139951665,407.59156139951665,l,1,1.686390036251396,409.2917140442878,410.3167638569139,,,,,,,,,,,,,,,,,,,,,,,,,,,,,,,,,,,,,,,698343,2010-12-29_13h43.54.019,eb_02psyexp,2022.2.4,119.98591145150542,
183,0,183,0,,,,,,,,,,,,,,,,,,,,,,,,,,,,,,,,,,,,,,,,,,,,,,,,,,,,,,,,,,,410.3167638569139,410.3167638569139,410.3167638569139,410.3167638569139,410.3167638569139,410.3167638569139,s,1,0.4812398348003626,410.80850060028024,411.8418953195214,,,,,,,,,,,,,,,,,,,,,,,,,,,,,,,,,,,,,,,698343,2010-12-29_13h43.54.019,eb_02psyexp,2022.2.4,119.98591145150542,
184,0,184,0,,,,,,,,,,,,,,,,,,,,,,,,,,,,,,,,,,,,,,,,,,,,,,,,,,,,,,,,,,,411.8418953195214,411.8418953195214,411.8418953195214,411.8418953195214,411.8418953195214,411.8418953195214,s,1,0.612119581666775,412.4669610093115,413.4920461381553,,,,,,,,,,,,,,,,,,,,,,,,,,,,,,,,,,,,,,,698343,2010-12-29_13h43.54.019,eb_02psyexp,2022.2.4,119.98591145150542,
185,0,185,0,,,,,,,,,,,,,,,,,,,,,,,,,,,,,,,,,,,,,,,,,,,,,,,,,,,,,,,,,,,413.4920461381553,413.4920461381553,413.4920461381553,413.4920461381553,413.4920461381553,413.4920461381553,s,1,3.7380619907053187,417.2423355355859,418.275756213814,,,,,,,,,,,,,,,,,,,,,,,,,,,,,,,,,,,,,,,698343,2010-12-29_13h43.54.019,eb_02psyexp,2022.2.4,119.98591145150542,
186,0,186,0,,,,,,,,,,,,,,,,,,,,,,,,,,,,,,,,,,,,,,,,,,,,,,,,,,,,,,,,,,,418.275756213814,418.275756213814,418.275756213814,418.275756213814,418.275756213814,418.275756213814,l,1,0.7943736603483558,419.08418618142605,420.10090557602234,,,,,,,,,,,,,,,,,,,,,,,,,,,,,,,,,,,,,,,698343,2010-12-29_13h43.54.019,eb_02psyexp,2022.2.4,119.98591145150542,
187,0,187,0,,,,,,,,,,,,,,,,,,,,,,,,,,,,,,,,,,,,,,,,,,,,,,,,,,,,,,,,,,,420.10090557602234,420.10090557602234,420.10090557602234,420.10090557602234,420.10090557602234,420.10090557602234,s,1,0.6252747478429228,420.7426408553729,421.7760425171582,,,,,,,,,,,,,,,,,,,,,,,,,,,,,,,,,,,,,,,698343,2010-12-29_13h43.54.019,eb_02psyexp,2022.2.4,119.98591145150542,
188,0,188,0,,,,,,,,,,,,,,,,,,,,,,,,,,,,,,,,,,,,,,,,,,,,,,,,,,,,,,,,,,,421.7760425171582,421.7760425171582,421.7760425171582,421.7760425171582,421.7760425171582,421.7760425171582,s,1,0.5901504359208047,422.3761078976095,423.39284268650226,,,,,,,,,,,,,,,,,,,,,,,,,,,,,,,,,,,,,,,698343,2010-12-29_13h43.54.019,eb_02psyexp,2022.2.4,119.98591145150542,
189,0,189,0,,,,,,,,,,,,,,,,,,,,,,,,,,,,,,,,,,,,,,,,,,,,,,,,,,,,,,,,,,,423.39284268650226,423.39284268650226,423.39284268650226,423.39284268650226,423.39284268650226,423.39284268650226,l,1,0.4363676239736378,423.8429083235096,424.86796326749027,,,,,,,,,,,,,,,,,,,,,,,,,,,,,,,,,,,,,,,698343,2010-12-29_13h43.54.019,eb_02psyexp,2022.2.4,119.98591145150542,
190,0,190,0,,,,,,,,,,,,,,,,,,,,,,,,,,,,,,,,,,,,,,,,,,,,,,,,,,,,,,,,,,,424.86796326749027,424.86796326749027,424.86796326749027,424.86796326749027,424.86796326749027,424.86796326749027,s,1,0.5132819705177099,425.3930210790131,426.40977518621366,,,,,,,,,,,,,,,,,,,,,,,,,,,,,,,,,,,,,,,698343,2010-12-29_13h43.54.019,eb_02psyexp,2022.2.4,119.98591145150542,
191,0,191,0,,,,,,,,,,,,,,,,,,,,,,,,,,,,,,,,,,,,,,,,,,,,,,,,,,,,,,,,,,,426.40977518621366,426.40977518621366,426.40977518621366,426.40977518621366,426.40977518621366,426.40977518621366,l,1,0.4834867959143594,426.9014467302477,427.93488159542903,,,,,,,,,,,,,,,,,,,,,,,,,,,,,,,,,,,,,,,698343,2010-12-29_13h43.54.019,eb_02psyexp,2022.2.4,119.98591145150542,
192,0,192,0,,,,,,,,,,,,,,,,,,,,,,,,,,,,,,,,,,,,,,,,,,,,,,,,,,,,,,,,,,,427.93488159542903,427.93488159542903,427.93488159542903,427.93488159542903,427.93488159542903,427.93488159542903,l,1,0.5586241596611217,428.5016108151758,429.51835616864264,,,,,,,,,,,,,,,,,,,,,,,,,,,,,,,,,,,,,,,698343,2010-12-29_13h43.54.019,eb_02psyexp,2022.2.4,119.98591145150542,
193,0,193,0,,,,,,,,,,,,,,,,,,,,,,,,,,,,,,,,,,,,,,,,,,,,,,,,,,,,,,,,,,,429.51835616864264,429.51835616864264,429.51835616864264,429.51835616864264,429.51835616864264,429.51835616864264,l,1,0.7509648115374148,430.28508816543035,431.31853450089693,,,,,,,,,,,,,,,,,,,,,,,,,,,,,,,,,,,,,,,698343,2010-12-29_13h43.54.019,eb_02psyexp,2022.2.4,119.98591145150542,
194,0,194,0,,,,,,,,,,,,,,,,,,,,,,,,,,,,,,,,,,,,,,,,,,,,,,,,,,,,,,,,,,,431.31853450089693,431.31853450089693,431.31853450089693,431.31853450089693,431.31853450089693,431.31853450089693,s,1,1.1188446178566664,432.45193619281054,433.47700260707643,,,,,,,,,,,,,,,,,,,,,,,,,,,,,,,,,,,,,,,698343,2010-12-29_13h43.54.019,eb_02psyexp,2022.2.4,119.98591145150542,
195,0,195,0,,,,,,,,,,,,,,,,,,,,,,,,,,,,,,,,,,,,,,,,,,,,,,,,,,,,,,,,,,,433.47700260707643,433.47700260707643,433.47700260707643,433.47700260707643,433.47700260707643,433.47700260707643,s,1,0.464398795273155,433.95205829059705,434.98548289295286,,,,,,,,,,,,,,,,,,,,,,,,,,,,,,,,,,,,,,,698343,2010-12-29_13h43.54.019,eb_02psyexp,2022.2.4,119.98591145150542,
196,0,196,0,,,,,,,,,,,,,,,,,,,,,,,,,,,,,,,,,,,,,,,,,,,,,,,,,,,,,,,,,,,434.98548289295286,434.98548289295286,434.98548289295286,434.98548289295286,434.98548289295286,434.98548289295286,s,1,0.3959386246278882,435.39385569037404,436.4189109362196,,,,,,,,,,,,,,,,,,,,,,,,,,,,,,,,,,,,,,,698343,2010-12-29_13h43.54.019,eb_02psyexp,2022.2.4,119.98591145150542,
197,0,197,0,,,,,,,,,,,,,,,,,,,,,,,,,,,,,,,,,,,,,,,,,,,,,,,,,,,,,,,,,,,436.4189109362196,436.4189109362196,436.4189109362196,436.4189109362196,436.4189109362196,436.4189109362196,s,1,0.8584944552276284,437.28566529997624,438.31908235605806,,,,,,,,,,,,,,,,,,,,,,,,,,,,,,,,,,,,,,,698343,2010-12-29_13h43.54.019,eb_02psyexp,2022.2.4,119.98591145150542,
198,0,198,0,,,,,,,,,,,,,,,,,,,,,,,,,,,,,,,,,,,,,,,,,,,,,,,,,,,,,,,,,,,438.31908235605806,438.31908235605806,438.31908235605806,438.31908235605806,438.31908235605806,438.31908235605806,s,1,0.5973863509716466,438.9274648731807,439.94420026568696,,,,,,,,,,,,,,,,,,,,,,,,,,,,,,,,,,,,,,,698343,2010-12-29_13h43.54.019,eb_02psyexp,2022.2.4,119.98591145150542,
199,0,199,0,,,,,0,0,0,0,,,,,,,,,,,,,,,,,,,,,,,,,,,,,,,,,,,,,,,,,,,,,,,,,,,439.94420026568696,439.94420026568696,439.94420026568696,439.94420026568696,439.94420026568696,439.94420026568696,l,1,0.4523022121284157,440.4109191924799,441.41100220079534,441.41100220079534,441.41100220079534,space,1.6815501955570653,,,,,,,,,,,,,,,,,,,,,,,,,,,,,,,,,,,698343,2010-12-29_13h43.54.019,eb_02psyexp,2022.2.4,119.98591145150542,
199,0,199,0,,,,,,,,,,,,,,,,,,,,,,,,,,,,,,,,,,,,,,,,,,,,,,,,,,,,,,,,,,,,,,,,,,,,,,,,,,,,,,,,,,,,,,,,,,,,,,,,,,,,,,,,,,,,698343,2010-12-29_13h43.54.019,eb_02psyexp,2022.2.4,119.98591145150542,
200,0,200,0,,,,,,,,,,,,,,,,,,,,,,,,,,,,,,,,,,,,,,,,,,,,,,,,,,,,,,,,,,,443.13614911807235,443.13614911807235,443.13614911807235,443.13614911807235,443.13614911807235,443.13614911807235,l,1,1.124414932099171,444.26960121875163,445.28630552091636,,,,,,,,,,,,,,,,,,,,,,,,,,,,,,,,,,,,,,,698343,2010-12-29_13h43.54.019,eb_02psyexp,2022.2.4,119.98591145150542,
201,0,201,0,,,,,,,,,,,,,,,,,,,,,,,,,,,,,,,,,,,,,,,,,,,,,,,,,,,,,,,,,,,445.28630552091636,445.28630552091636,445.28630552091636,445.28630552091636,445.28630552091636,445.28630552091636,l,1,0.6382883469341323,445.936374840443,446.9697834447725,,,,,,,,,,,,,,,,,,,,,,,,,,,,,,,,,,,,,,,698343,2010-12-29_13h43.54.019,eb_02psyexp,2022.2.4,119.98591145150542,
202,0,202,0,,,,,,,,,,,,,,,,,,,,,,,,,,,,,,,,,,,,,,,,,,,,,,,,,,,,,,,,,,,446.9697834447725,446.9697834447725,446.9697834447725,446.9697834447725,446.9697834447725,446.9697834447725,s,1,0.4668256579898298,447.4448279598728,448.46156576729845,,,,,,,,,,,,,,,,,,,,,,,,,,,,,,,,,,,,,,,698343,2010-12-29_13h43.54.019,eb_02psyexp,2022.2.4,119.98591145150542,
203,0,203,0,,,,,,,,,,,,,,,,,,,,,,,,,,,,,,,,,,,,,,,,,,,,,,,,,,,,,,,,,,,448.46156576729845,448.46156576729845,448.46156576729845,448.46156576729845,448.46156576729845,448.46156576729845,l,1,0.6471270780311897,449.11996942874976,450.1450273912633,,,,,,,,,,,,,,,,,,,,,,,,,,,,,,,,,,,,,,,698343,2010-12-29_13h43.54.019,eb_02psyexp,2022.2.4,119.98591145150542,
204,0,204,0,,,,,,,,,,,,,,,,,,,,,,,,,,,,,,,,,,,,,,,,,,,,,,,,,,,,,,,,,,,450.1450273912633,450.1450273912633,450.1450273912633,450.1450273912633,450.1450273912633,450.1450273912633,s,1,1.3637099465122446,451.5201666567009,452.5369008418638,,,,,,,,,,,,,,,,,,,,,,,,,,,,,,,,,,,,,,,698343,2010-12-29_13h43.54.019,eb_02psyexp,2022.2.4,119.98591145150542,
205,0,205,0,,,,,,,,,,,,,,,,,,,,,,,,,,,,,,,,,,,,,,,,,,,,,,,,,,,,,,,,,,,452.5369008418638,452.5369008418638,452.5369008418638,452.5369008418638,452.5369008418638,452.5369008418638,l,1,0.5158141785068437,453.06194174988195,454.0953488450032,,,,,,,,,,,,,,,,,,,,,,,,,,,,,,,,,,,,,,,698343,2010-12-29_13h43.54.019,eb_02psyexp,2022.2.4,119.98591145150542,
206,0,206,0,,,,,,,,,,,,,,,,,,,,,,,,,,,,,,,,,,,,,,,,,,,,,,,,,,,,,,,,,,,454.0953488450032,454.0953488450032,454.0953488450032,454.0953488450032,454.0953488450032,454.0953488450032,s,1,0.4764090495882556,454.58708468277473,455.6121719245566,,,,,,,,,,,,,,,,,,,,,,,,,,,,,,,,,,,,,,,698343,2010-12-29_13h43.54.019,eb_02psyexp,2022.2.4,119.98591145150542,
207,0,207,0,,,,,,,,,,,,,,,,,,,,,,,,,,,,,,,,,,,,,,,,,,,,,,,,,,,,,,,,,,,455.6121719245566,455.6121719245566,455.6121719245566,455.6121719245566,455.6121719245566,455.6121719245566,l,1,1.2236159689491615,456.84558541874867,457.8790057952283,,,,,,,,,,,,,,,,,,,,,,,,,,,,,,,,,,,,,,,698343,2010-12-29_13h43.54.019,eb_02psyexp,2022.2.4,119.98591145150542,
208,0,208,0,,,,,,,,,,,,,,,,,,,,,,,,,,,,,,,,,,,,,,,,,,,,,,,,,,,,,,,,,,,457.8790057952283,457.8790057952283,457.8790057952283,457.8790057952283,457.8790057952283,457.8790057952283,s,1,0.5088112907251343,458.40406571968924,459.42080624366645,,,,,,,,,,,,,,,,,,,,,,,,,,,,,,,,,,,,,,,698343,2010-12-29_13h43.54.019,eb_02psyexp,2022.2.4,119.98591145150542,
209,0,209,0,,,,,,,,,,,,,,,,,,,,,,,,,,,,,,,,,,,,,,,,,,,,,,,,,,,,,,,,,,,459.42080624366645,459.42080624366645,459.42080624366645,459.42080624366645,459.42080624366645,459.42080624366645,l,1,1.4870594759704545,460.9209754298208,461.94602584606037,,,,,,,,,,,,,,,,,,,,,,,,,,,,,,,,,,,,,,,698343,2010-12-29_13h43.54.019,eb_02psyexp,2022.2.4,119.98591145150542,
210,0,210,0,,,,,,,,,,,,,,,,,,,,,,,,,,,,,,,,,,,,,,,,,,,,,,,,,,,,,,,,,,,461.94602584606037,461.94602584606037,461.94602584606037,461.94602584606037,461.94602584606037,461.94602584606037,s,1,0.44192676979582757,462.40441224188544,463.4211268068757,,,,,,,,,,,,,,,,,,,,,,,,,,,,,,,,,,,,,,,698343,2010-12-29_13h43.54.019,eb_02psyexp,2022.2.4,119.98591145150542,
211,0,211,0,,,,,,,,,,,,,,,,,,,,,,,,,,,,,,,,,,,,,,,,,,,,,,,,,,,,,,,,,,,463.4211268068757,463.4211268068757,463.4211268068757,463.4211268068757,463.4211268068757,463.4211268068757,l,1,0.43878241279162467,463.87117946438957,464.8962473878637,,,,,,,,,,,,,,,,,,,,,,,,,,,,,,,,,,,,,,,698343,2010-12-29_13h43.54.019,eb_02psyexp,2022.2.4,119.98591145150542,
212,0,212,0,,,,,,,,,,,,,,,,,,,,,,,,,,,,,,,,,,,,,,,,,,,,,,,,,,,,,,,,,,,464.8962473878637,464.8962473878637,464.8962473878637,464.8962473878637,464.8962473878637,464.8962473878637,l,1,0.579706473974511,465.4879959335085,466.5214138951851,,,,,,,,,,,,,,,,,,,,,,,,,,,,,,,,,,,,,,,698343,2010-12-29_13h43.54.019,eb_02psyexp,2022.2.4,119.98591145150542,
213,0,213,0,,,,,,,,,,,,,,,,,,,,,,,,,,,,,,,,,,,,,,,,,,,,,,,,,,,,,,,,,,,466.5214138951851,466.5214138951851,466.5214138951851,466.5214138951851,466.5214138951851,466.5214138951851,l,1,0.4985647377325222,467.02977193228435,468.05484045948833,,,,,,,,,,,,,,,,,,,,,,,,,,,,,,,,,,,,,,,698343,2010-12-29_13h43.54.019,eb_02psyexp,2022.2.4,119.98591145150542,
214,0,214,0,,,,,,,,,,,,,,,,,,,,,,,,,,,,,,,,,,,,,,,,,,,,,,,,,,,,,,,,,,,468.05484045948833,468.05484045948833,468.05484045948833,468.05484045948833,468.05484045948833,468.05484045948833,s,1,0.613152205827646,468.6799082622165,469.7133099240018,,,,,,,,,,,,,,,,,,,,,,,,,,,,,,,,,,,,,,,698343,2010-12-29_13h43.54.019,eb_02psyexp,2022.2.4,119.98591145150542,
215,0,215,0,,,,,,,,,,,,,,,,,,,,,,,,,,,,,,,,,,,,,,,,,,,,,,,,,,,,,,,,,,,469.7133099240018,469.7133099240018,469.7133099240018,469.7133099240018,469.7133099240018,469.7133099240018,s,1,0.537706654635258,470.26336895045824,471.2801188317826,,,,,,,,,,,,,,,,,,,,,,,,,,,,,,,,,,,,,,,698343,2010-12-29_13h43.54.019,eb_02psyexp,2022.2.4,119.98591145150542,
216,0,216,0,,,,,,,,,,,,,,,,,,,,,,,,,,,,,,,,,,,,,,,,,,,,,,,,,,,,,,,,,,,471.2801188317826,471.2801188317826,471.2801188317826,471.2801188317826,471.2801188317826,471.2801188317826,l,1,0.842949251877144,472.13853945722803,473.17192753579,,,,,,,,,,,,,,,,,,,,,,,,,,,,,,,,,,,,,,,698343,2010-12-29_13h43.54.019,eb_02psyexp,2022.2.4,119.98591145150542,
217,0,217,0,,,,,,,,,,,,,,,,,,,,,,,,,,,,,,,,,,,,,,,,,,,,,,,,,,,,,,,,,,,473.17192753579,473.17192753579,473.17192753579,473.17192753579,473.17192753579,473.17192753579,s,1,0.4471967447316274,473.63029582076706,474.64704751304816,,,,,,,,,,,,,,,,,,,,,,,,,,,,,,,,,,,,,,,698343,2010-12-29_13h43.54.019,eb_02psyexp,2022.2.4,119.98591145150542,
218,0,218,0,,,,,,,,,,,,,,,,,,,,,,,,,,,,,,,,,,,,,,,,,,,,,,,,,,,,,,,,,,,474.64704751304816,474.64704751304816,474.64704751304816,474.64704751304816,474.64704751304816,474.64704751304816,s,1,0.5400631866650656,475.19711016176734,476.23051061620936,,,,,,,,,,,,,,,,,,,,,,,,,,,,,,,,,,,,,,,698343,2010-12-29_13h43.54.019,eb_02psyexp,2022.2.4,119.98591145150542,
219,0,219,0,,,,,,,,,,,,,,,,,,,,,,,,,,,,,,,,,,,,,,,,,,,,,,,,,,,,,,,,,,,476.23051061620936,476.23051061620936,476.23051061620936,476.23051061620936,476.23051061620936,476.23051061620936,l,1,0.6526213265024126,476.8972703528125,477.91398401232436,,,,,,,,,,,,,,,,,,,,,,,,,,,,,,,,,,,,,,,698343,2010-12-29_13h43.54.019,eb_02psyexp,2022.2.4,119.98591145150542,
220,0,220,0,,,,,,,,,,,,,,,,,,,,,,,,,,,,,,,,,,,,,,,,,,,,,,,,,,,,,,,,,,,477.91398401232436,477.91398401232436,477.91398401232436,477.91398401232436,477.91398401232436,477.91398401232436,l,1,0.4891790570691228,478.4140360811725,479.43910732504446,,,,,,,,,,,,,,,,,,,,,,,,,,,,,,,,,,,,,,,698343,2010-12-29_13h43.54.019,eb_02psyexp,2022.2.4,119.98591145150542,
221,0,221,0,,,,,,,,,,,,,,,,,,,,,,,,,,,,,,,,,,,,,,,,,,,,,,,,,,,,,,,,,,,479.43910732504446,479.43910732504446,479.43910732504446,479.43910732504446,479.43910732504446,479.43910732504446,l,1,0.4520993698388338,479.9058292702539,480.9392587020993,,,,,,,,,,,,,,,,,,,,,,,,,,,,,,,,,,,,,,,698343,2010-12-29_13h43.54.019,eb_02psyexp,2022.2.4,119.98591145150542,
222,0,222,0,,,,,,,,,,,,,,,,,,,,,,,,,,,,,,,,,,,,,,,,,,,,,,,,,,,,,,,,,,,480.9392587020993,480.9392587020993,480.9392587020993,480.9392587020993,480.9392587020993,480.9392587020993,s,1,0.5119538365397602,481.4643080618698,482.4810238343198,,,,,,,,,,,,,,,,,,,,,,,,,,,,,,,,,,,,,,,698343,2010-12-29_13h43.54.019,eb_02psyexp,2022.2.4,119.98591145150542,
223,0,223,0,,,,,,,,,,,,,,,,,,,,,,,,,,,,,,,,,,,,,,,,,,,,,,,,,,,,,,,,,,,482.4810238343198,482.4810238343198,482.4810238343198,482.4810238343198,482.4810238343198,482.4810238343198,l,1,0.5542099255835637,483.0477283024229,484.08115139545407,,,,,,,,,,,,,,,,,,,,,,,,,,,,,,,,,,,,,,,698343,2010-12-29_13h43.54.019,eb_02psyexp,2022.2.4,119.98591145150542,
224,0,224,0,,,,,,,,,,,,,,,,,,,,,,,,,,,,,,,,,,,,,,,,,,,,,,,,,,,,,,,,,,,484.08115139545407,484.08115139545407,484.08115139545407,484.08115139545407,484.08115139545407,484.08115139545407,l,1,0.40210991946514696,484.4978694015881,485.5229403435951,,,,,,,,,,,,,,,,,,,,,,,,,,,,,,,,,,,,,,,698343,2010-12-29_13h43.54.019,eb_02psyexp,2022.2.4,119.98591145150542,
225,0,225,0,,,,,,,,,,,,,,,,,,,,,,,,,,,,,,,,,,,,,,,,,,,,,,,,,,,,,,,,,,,485.5229403435951,485.5229403435951,485.5229403435951,485.5229403435951,485.5229403435951,485.5229403435951,l,1,0.4313466742169112,485.9646595645463,486.9897271862719,,,,,,,,,,,,,,,,,,,,,,,,,,,,,,,,,,,,,,,698343,2010-12-29_13h43.54.019,eb_02psyexp,2022.2.4,119.98591145150542,
226,0,226,0,,,,,,,,,,,,,,,,,,,,,,,,,,,,,,,,,,,,,,,,,,,,,,,,,,,,,,,,,,,486.9897271862719,486.9897271862719,486.9897271862719,486.9897271862719,486.9897271862719,486.9897271862719,s,1,0.564592310343869,487.56480493489653,488.5898571622092,,,,,,,,,,,,,,,,,,,,,,,,,,,,,,,,,,,,,,,698343,2010-12-29_13h43.54.019,eb_02psyexp,2022.2.4,119.98591145150542,
227,0,227,0,,,,,,,,,,,,,,,,,,,,,,,,,,,,,,,,,,,,,,,,,,,,,,,,,,,,,,,,,,,488.5898571622092,488.5898571622092,488.5898571622092,488.5898571622092,488.5898571622092,488.5898571622092,l,1,0.5004838911117986,489.10658636689186,490.1399850102607,,,,,,,,,,,,,,,,,,,,,,,,,,,,,,,,,,,,,,,698343,2010-12-29_13h43.54.019,eb_02psyexp,2022.2.4,119.98591145150542,
228,0,228,0,,,,,,,,,,,,,,,,,,,,,,,,,,,,,,,,,,,,,,,,,,,,,,,,,,,,,,,,,,,490.1399850102607,490.1399850102607,490.1399850102607,490.1399850102607,490.1399850102607,490.1399850102607,l,1,0.4783870636019856,490.63169096503407,491.65677730122115,,,,,,,,,,,,,,,,,,,,,,,,,,,,,,,,,,,,,,,698343,2010-12-29_13h43.54.019,eb_02psyexp,2022.2.4,119.98591145150542,
229,0,229,0,,,,,,,,,,,,,,,,,,,,,,,,,,,,,,,,,,,,,,,,,,,,,,,,,,,,,,,,,,,491.65677730122115,491.65677730122115,491.65677730122115,491.65677730122115,491.65677730122115,491.65677730122115,l,1,0.4496181742288172,492.11516188597307,493.1318818841828,,,,,,,,,,,,,,,,,,,,,,,,,,,,,,,,,,,,,,,698343,2010-12-29_13h43.54.019,eb_02psyexp,2022.2.4,119.98591145150542,
230,0,230,0,,,,,,,,,,,,,,,,,,,,,,,,,,,,,,,,,,,,,,,,,,,,,,,,,,,,,,,,,,,493.1318818841828,493.1318818841828,493.1318818841828,493.1318818841828,493.1318818841828,493.1318818841828,l,1,0.5025446116924286,493.64860686298925,494.6736913882196,,,,,,,,,,,,,,,,,,,,,,,,,,,,,,,,,,,,,,,698343,2010-12-29_13h43.54.019,eb_02psyexp,2022.2.4,119.98591145150542,
231,0,231,0,,,,,,,,,,,,,,,,,,,,,,,,,,,,,,,,,,,,,,,,,,,,,,,,,,,,,,,,,,,494.6736913882196,494.6736913882196,494.6736913882196,494.6736913882196,494.6736913882196,494.6736913882196,s,1,0.4967729643685743,495.18208504340146,496.1988355284557,,,,,,,,,,,,,,,,,,,,,,,,,,,,,,,,,,,,,,,698343,2010-12-29_13h43.54.019,eb_02psyexp,2022.2.4,119.98591145150542,
232,0,232,0,,,,,,,,,,,,,,,,,,,,,,,,,,,,,,,,,,,,,,,,,,,,,,,,,,,,,,,,,,,496.1988355284557,496.1988355284557,496.1988355284557,496.1988355284557,496.1988355284557,496.1988355284557,l,1,0.4676605713320896,496.6822192152031,497.71560940670315,,,,,,,,,,,,,,,,,,,,,,,,,,,,,,,,,,,,,,,698343,2010-12-29_13h43.54.019,eb_02psyexp,2022.2.4,119.98591145150542,
233,0,233,0,,,,,,,,,,,,,,,,,,,,,,,,,,,,,,,,,,,,,,,,,,,,,,,,,,,,,,,,,,,497.71560940670315,497.71560940670315,497.71560940670315,497.71560940670315,497.71560940670315,497.71560940670315,s,1,0.4948954660212621,498.22398012143094,499.24908547417726,,,,,,,,,,,,,,,,,,,,,,,,,,,,,,,,,,,,,,,698343,2010-12-29_13h43.54.019,eb_02psyexp,2022.2.4,119.98591145150542,
234,0,234,0,,,,,,,,,,,,,,,,,,,,,,,,,,,,,,,,,,,,,,,,,,,,,,,,,,,,,,,,,,,499.24908547417726,499.24908547417726,499.24908547417726,499.24908547417726,499.24908547417726,499.24908547417726,l,1,0.46545798203442246,499.7241345170187,500.7491915739374,,,,,,,,,,,,,,,,,,,,,,,,,,,,,,,,,,,,,,,698343,2010-12-29_13h43.54.019,eb_02psyexp,2022.2.4,119.98591145150542,
235,0,235,0,,,,,,,,,,,,,,,,,,,,,,,,,,,,,,,,,,,,,,,,,,,,,,,,,,,,,,,,,,,500.7491915739374,500.7491915739374,500.7491915739374,500.7491915739374,500.7491915739374,500.7491915739374,s,1,0.6683554871706292,501.43257803772576,502.4493297301233,,,,,,,,,,,,,,,,,,,,,,,,,,,,,,,,,,,,,,,698343,2010-12-29_13h43.54.019,eb_02psyexp,2022.2.4,119.98591145150542,
236,0,236,0,,,,,,,,,,,,,,,,,,,,,,,,,,,,,,,,,,,,,,,,,,,,,,,,,,,,,,,,,,,502.4493297301233,502.4493297301233,502.4493297301233,502.4493297301233,502.4493297301233,502.4493297301233,l,0,0.7442550187697634,503.2077168201795,504.2411429316271,,,,,,,,,,,,,,,,,,,,,,,,,,,,,,,,,,,,,,,698343,2010-12-29_13h43.54.019,eb_02psyexp,2022.2.4,119.98591145150542,
237,0,237,0,,,,,,,,,,,,,,,,,,,,,,,,,,,,,,,,,,,,,,,,,,,,,,,,,,,,,,,,,,,504.2411429316271,504.2411429316271,504.2411429316271,504.2411429316271,504.2411429316271,504.2411429316271,s,1,0.8964670106070116,505.1495572334388,506.1663010776974,,,,,,,,,,,,,,,,,,,,,,,,,,,,,,,,,,,,,,,698343,2010-12-29_13h43.54.019,eb_02psyexp,2022.2.4,119.98591145150542,
238,0,238,0,,,,,,,,,,,,,,,,,,,,,,,,,,,,,,,,,,,,,,,,,,,,,,,,,,,,,,,,,,,506.1663010776974,506.1663010776974,506.1663010776974,506.1663010776974,506.1663010776974,506.1663010776974,l,1,0.8593550256919116,507.0413894816302,508.07480502850376,,,,,,,,,,,,,,,,,,,,,,,,,,,,,,,,,,,,,,,698343,2010-12-29_13h43.54.019,eb_02psyexp,2022.2.4,119.98591145150542,
239,0,239,0,,,,,,,,,,,,,,,,,,,,,,,,,,,,,,,,,,,,,,,,,,,,,,,,,,,,,,,,,,,508.07480502850376,508.07480502850376,508.07480502850376,508.07480502850376,508.07480502850376,508.07480502850376,s,1,0.4868940629530698,508.5748724916484,509.5916015453404,,,,,,,,,,,,,,,,,,,,,,,,,,,,,,,,,,,,,,,698343,2010-12-29_13h43.54.019,eb_02psyexp,2022.2.4,119.98591145150542,
240,0,240,0,,,,,,,,,,,,,,,,,,,,,,,,,,,,,,,,,,,,,,,,,,,,,,,,,,,,,,,,,,,509.5916015453404,509.5916015453404,509.5916015453404,509.5916015453404,509.5916015453404,509.5916015453404,s,1,0.46611088048666716,510.06663459027186,511.10003927047364,,,,,,,,,,,,,,,,,,,,,,,,,,,,,,,,,,,,,,,698343,2010-12-29_13h43.54.019,eb_02psyexp,2022.2.4,119.98591145150542,
241,0,241,0,,,,,,,,,,,,,,,,,,,,,,,,,,,,,,,,,,,,,,,,,,,,,,,,,,,,,,,,,,,511.10003927047364,511.10003927047364,511.10003927047364,511.10003927047364,511.10003927047364,511.10003927047364,s,1,0.4217149867909029,511.53343803458847,512.5584920729743,,,,,,,,,,,,,,,,,,,,,,,,,,,,,,,,,,,,,,,698343,2010-12-29_13h43.54.019,eb_02psyexp,2022.2.4,119.98591145150542,
242,0,242,0,,,,,,,,,,,,,,,,,,,,,,,,,,,,,,,,,,,,,,,,,,,,,,,,,,,,,,,,,,,512.5584920729743,512.5584920729743,512.5584920729743,512.5584920729743,512.5584920729743,512.5584920729743,l,1,0.3952953851548955,512.9668887165608,513.9919433586765,,,,,,,,,,,,,,,,,,,,,,,,,,,,,,,,,,,,,,,698343,2010-12-29_13h43.54.019,eb_02psyexp,2022.2.4,119.98591145150542,
243,0,243,0,,,,,,,,,,,,,,,,,,,,,,,,,,,,,,,,,,,,,,,,,,,,,,,,,,,,,,,,,,,513.9919433586765,513.9919433586765,513.9919433586765,513.9919433586765,513.9919433586765,513.9919433586765,l,1,0.4898687810637057,514.4920038793935,515.5170678788563,,,,,,,,,,,,,,,,,,,,,,,,,,,,,,,,,,,,,,,698343,2010-12-29_13h43.54.019,eb_02psyexp,2022.2.4,119.98591145150542,
244,0,244,0,,,,,,,,,,,,,,,,,,,,,,,,,,,,,,,,,,,,,,,,,,,,,,,,,,,,,,,,,,,515.5170678788563,515.5170678788563,515.5170678788563,515.5170678788563,515.5170678788563,515.5170678788563,l,1,0.524749802891165,516.0504612397635,517.0838665238116,,,,,,,,,,,,,,,,,,,,,,,,,,,,,,,,,,,,,,,698343,2010-12-29_13h43.54.019,eb_02psyexp,2022.2.4,119.98591145150542,
245,0,245,0,,,,,,,,,,,,,,,,,,,,,,,,,,,,,,,,,,,,,,,,,,,,,,,,,,,,,,,,,,,517.0838665238116,517.0838665238116,517.0838665238116,517.0838665238116,517.0838665238116,517.0838665238116,s,1,0.3969766820082441,517.4922441508388,518.5840523116058,,,,,,,,,,,,,,,,,,,,,,,,,,,,,,,,,,,,,,,698343,2010-12-29_13h43.54.019,eb_02psyexp,2022.2.4,119.98591145150542,
246,0,246,0,,,,,,,,,,,,,,,,,,,,,,,,,,,,,,,,,,,,,,,,,,,,,,,,,,,,,,,,,,,518.5840523116058,518.5840523116058,518.5840523116058,518.5840523116058,518.5840523116058,518.5840523116058,l,1,0.4888198571279645,519.0840452181874,520.1091110287234,,,,,,,,,,,,,,,,,,,,,,,,,,,,,,,,,,,,,,,698343,2010-12-29_13h43.54.019,eb_02psyexp,2022.2.4,119.98591145150542,
247,0,247,0,,,,,,,,,,,,,,,,,,,,,,,,,,,,,,,,,,,,,,,,,,,,,,,,,,,,,,,,,,,520.1091110287234,520.1091110287234,520.1091110287234,520.1091110287234,520.1091110287234,520.1091110287234,s,1,0.5637821487616748,520.684189079213,521.7009495252278,,,,,,,,,,,,,,,,,,,,,,,,,,,,,,,,,,,,,,,698343,2010-12-29_13h43.54.019,eb_02psyexp,2022.2.4,119.98591145150542,
248,0,248,0,,,,,,,,,,,,,,,,,,,,,,,,,,,,,,,,,,,,,,,,,,,,,,,,,,,,,,,,,,,521.7009495252278,521.7009495252278,521.7009495252278,521.7009495252278,521.7009495252278,521.7009495252278,l,1,0.5239903518231586,522.2343027403113,523.2676992706256,,,,,,,,,,,,,,,,,,,,,,,,,,,,,,,,,,,,,,,698343,2010-12-29_13h43.54.019,eb_02psyexp,2022.2.4,119.98591145150542,
249,0,249,0,,,,,,,,,,,,,,,,,,,,,,,,,,,,,,,,,,,,,,,,,,,,,,,,,,,,,,,,,,,523.2676992706256,523.2676992706256,523.2676992706256,523.2676992706256,523.2676992706256,523.2676992706256,s,1,0.5172549018170685,523.8011246275855,524.8261668939376,,,,,,,,,,,,,,,,,,,,,,,,,,,,,,,,,,,,,,,698343,2010-12-29_13h43.54.019,eb_02psyexp,2022.2.4,119.98591145150542,
250,0,250,0,,,,,,,,,,,,,,,,,,,,,,,,,,,,,,,,,,,,,,,,,,,,,,,,,,,,,,,,,,,524.8261668939376,524.8261668939376,524.8261668939376,524.8261668939376,524.8261668939376,524.8261668939376,l,1,0.5988134910585359,525.4345660127001,526.4679848798551,,,,,,,,,,,,,,,,,,,,,,,,,,,,,,,,,,,,,,,698343,2010-12-29_13h43.54.019,eb_02psyexp,2022.2.4,119.98591145150542,
251,0,251,0,,,,,,,,,,,,,,,,,,,,,,,,,,,,,,,,,,,,,,,,,,,,,,,,,,,,,,,,,,,526.4679848798551,526.4679848798551,526.4679848798551,526.4679848798551,526.4679848798551,526.4679848798551,s,1,0.5330231714760885,527.0097080550622,528.0347626971779,,,,,,,,,,,,,,,,,,,,,,,,,,,,,,,,,,,,,,,698343,2010-12-29_13h43.54.019,eb_02psyexp,2022.2.4,119.98591145150542,
252,0,252,0,,,,,,,,,,,,,,,,,,,,,,,,,,,,,,,,,,,,,,,,,,,,,,,,,,,,,,,,,,,528.0347626971779,528.0347626971779,528.0347626971779,528.0347626971779,528.0347626971779,528.0347626971779,l,1,0.934281699010171,528.9848571607145,530.0015889310744,,,,,,,,,,,,,,,,,,,,,,,,,,,,,,,,,,,,,,,698343,2010-12-29_13h43.54.019,eb_02psyexp,2022.2.4,119.98591145150542,
253,0,253,0,,,,,,,,,,,,,,,,,,,,,,,,,,,,,,,,,,,,,,,,,,,,,,,,,,,,,,,,,,,530.0015889310744,530.0015889310744,530.0015889310744,530.0015889310744,530.0015889310744,530.0015889310744,s,1,0.8794877243926749,530.8933463208377,531.9184145461768,,,,,,,,,,,,,,,,,,,,,,,,,,,,,,,,,,,,,,,698343,2010-12-29_13h43.54.019,eb_02psyexp,2022.2.4,119.98591145150542,
254,0,254,0,,,,,,,,,,,,,,,,,,,,,,,,,,,,,,,,,,,,,,,,,,,,,,,,,,,,,,,,,,,531.9184145461768,531.9184145461768,531.9184145461768,531.9184145461768,531.9184145461768,531.9184145461768,l,1,0.8337063454091549,532.7684996222379,533.7935832418734,,,,,,,,,,,,,,,,,,,,,,,,,,,,,,,,,,,,,,,698343,2010-12-29_13h43.54.019,eb_02psyexp,2022.2.4,119.98591145150542,
255,0,255,0,,,,,,,,,,,,,,,,,,,,,,,,,,,,,,,,,,,,,,,,,,,,,,,,,,,,,,,,,,,533.7935832418734,533.7935832418734,533.7935832418734,533.7935832418734,533.7935832418734,533.7935832418734,l,1,0.5665464783087373,534.3686129965354,535.4020520875929,,,,,,,,,,,,,,,,,,,,,,,,,,,,,,,,,,,,,,,698343,2010-12-29_13h43.54.019,eb_02psyexp,2022.2.4,119.98591145150542,
256,0,256,0,,,,,,,,,,,,,,,,,,,,,,,,,,,,,,,,,,,,,,,,,,,,,,,,,,,,,,,,,,,535.4020520875929,535.4020520875929,535.4020520875929,535.4020520875929,535.4020520875929,535.4020520875929,s,1,0.4941064337035641,535.9104249153752,536.9354925369844,,,,,,,,,,,,,,,,,,,,,,,,,,,,,,,,,,,,,,,698343,2010-12-29_13h43.54.019,eb_02psyexp,2022.2.4,119.98591145150542,
257,0,257,0,,,,,,,,,,,,,,,,,,,,,,,,,,,,,,,,,,,,,,,,,,,,,,,,,,,,,,,,,,,536.9354925369844,536.9354925369844,536.9354925369844,536.9354925369844,536.9354925369844,536.9354925369844,l,1,0.67270210722927,537.6188965078909,538.6356306930538,,,,,,,,,,,,,,,,,,,,,,,,,,,,,,,,,,,,,,,698343,2010-12-29_13h43.54.019,eb_02psyexp,2022.2.4,119.98591145150542,
258,0,258,0,,,,,,,,,,,,,,,,,,,,,,,,,,,,,,,,,,,,,,,,,,,,,,,,,,,,,,,,,,,538.6356306930538,538.6356306930538,538.6356306930538,538.6356306930538,538.6356306930538,538.6356306930538,s,1,1.3166224686428905,539.9607379473746,540.9941583238542,,,,,,,,,,,,,,,,,,,,,,,,,,,,,,,,,,,,,,,698343,2010-12-29_13h43.54.019,eb_02psyexp,2022.2.4,119.98591145150542,
259,0,259,0,,,,,,,,,,,,,,,,,,,,,,,,,,,,,,,,,,,,,,,,,,,,,,,,,,,,,,,,,,,540.9941583238542,540.9941583238542,540.9941583238542,540.9941583238542,540.9941583238542,540.9941583238542,s,1,0.49410341517068446,541.5025498662144,542.5276165822288,,,,,,,,,,,,,,,,,,,,,,,,,,,,,,,,,,,,,,,698343,2010-12-29_13h43.54.019,eb_02psyexp,2022.2.4,119.98591145150542,
260,0,260,0,,,,,,,,,,,,,,,,,,,,,,,,,,,,,,,,,,,,,,,,,,,,,,,,,,,,,,,,,,,542.5276165822288,542.5276165822288,542.5276165822288,542.5276165822288,542.5276165822288,542.5276165822288,l,1,1.0246799250598997,543.5610598991625,544.5861187671544,,,,,,,,,,,,,,,,,,,,,,,,,,,,,,,,,,,,,,,698343,2010-12-29_13h43.54.019,eb_02psyexp,2022.2.4,119.98591145150542,
261,0,261,0,,,,,,,,,,,,,,,,,,,,,,,,,,,,,,,,,,,,,,,,,,,,,,,,,,,,,,,,,,,544.5861187671544,544.5861187671544,544.5861187671544,544.5861187671544,544.5861187671544,544.5861187671544,s,1,0.4862049425719306,545.0861750619952,546.1112441928126,,,,,,,,,,,,,,,,,,,,,,,,,,,,,,,,,,,,,,,698343,2010-12-29_13h43.54.019,eb_02psyexp,2022.2.4,119.98591145150542,
262,0,262,0,,,,,,,,,,,,,,,,,,,,,,,,,,,,,,,,,,,,,,,,,,,,,,,,,,,,,,,,,,,546.1112441928126,546.1112441928126,546.1112441928126,546.1112441928126,546.1112441928126,546.1112441928126,l,1,0.4411169099621475,546.5613203945104,547.5947323191212,,,,,,,,,,,,,,,,,,,,,,,,,,,,,,,,,,,,,,,698343,2010-12-29_13h43.54.019,eb_02psyexp,2022.2.4,119.98591145150542,
263,0,263,0,,,,,,,,,,,,,,,,,,,,,,,,,,,,,,,,,,,,,,,,,,,,,,,,,,,,,,,,,,,547.5947323191212,547.5947323191212,547.5947323191212,547.5947323191212,547.5947323191212,547.5947323191212,s,1,0.5086721384432167,548.1197717179311,549.1365019790828,,,,,,,,,,,,,,,,,,,,,,,,,,,,,,,,,,,,,,,698343,2010-12-29_13h43.54.019,eb_02psyexp,2022.2.4,119.98591145150542,
264,0,264,0,,,,,,,,,,,,,,,,,,,,,,,,,,,,,,,,,,,,,,,,,,,,,,,,,,,,,,,,,,,549.1365019790828,549.1365019790828,549.1365019790828,549.1365019790828,549.1365019790828,549.1365019790828,l,1,0.43890345410909504,549.5865757659776,550.6199484503595,,,,,,,,,,,,,,,,,,,,,,,,,,,,,,,,,,,,,,,698343,2010-12-29_13h43.54.019,eb_02psyexp,2022.2.4,119.98591145150542,
265,0,265,0,,,,,,,,,,,,,,,,,,,,,,,,,,,,,,,,,,,,,,,,,,,,,,,,,,,,,,,,,,,550.6199484503595,550.6199484503595,550.6199484503595,550.6199484503595,550.6199484503595,550.6199484503595,s,1,0.5635219551622868,551.1950105028227,552.2117449898506,,,,,,,,,,,,,,,,,,,,,,,,,,,,,,,,,,,,,,,698343,2010-12-29_13h43.54.019,eb_02psyexp,2022.2.4,119.98591145150542,
266,0,266,0,,,,,,,,,,,,,,,,,,,,,,,,,,,,,,,,,,,,,,,,,,,,,,,,,,,,,,,,,,,552.2117449898506,552.2117449898506,552.2117449898506,552.2117449898506,552.2117449898506,552.2117449898506,s,1,0.5237337804865092,552.7451528395759,553.7702077835565,,,,,,,,,,,,,,,,,,,,,,,,,,,,,,,,,,,,,,,698343,2010-12-29_13h43.54.019,eb_02psyexp,2022.2.4,119.98591145150542,
267,0,267,0,,,,,,,,,,,,,,,,,,,,,,,,,,,,,,,,,,,,,,,,,,,,,,,,,,,,,,,,,,,553.7702077835565,553.7702077835565,553.7702077835565,553.7702077835565,553.7702077835565,553.7702077835565,s,1,0.661302492604591,554.4452783180168,555.470345939626,,,,,,,,,,,,,,,,,,,,,,,,,,,,,,,,,,,,,,,698343,2010-12-29_13h43.54.019,eb_02psyexp,2022.2.4,119.98591145150542,
268,0,268,0,,,,,,,,,,,,,,,,,,,,,,,,,,,,,,,,,,,,,,,,,,,,,,,,,,,,,,,,,,,555.470345939626,555.470345939626,555.470345939626,555.470345939626,555.470345939626,555.470345939626,l,1,0.41716673190239817,555.9037516461685,556.9287978366483,,,,,,,,,,,,,,,,,,,,,,,,,,,,,,,,,,,,,,,698343,2010-12-29_13h43.54.019,eb_02psyexp,2022.2.4,119.98591145150542,
269,0,269,0,,,,,,,,,,,,,,,,,,,,,,,,,,,,,,,,,,,,,,,,,,,,,,,,,,,,,,,,,,,556.9287978366483,556.9287978366483,556.9287978366483,556.9287978366483,556.9287978366483,556.9287978366483,s,1,0.43074056215118617,557.3705318481661,558.3872521483572,,,,,,,,,,,,,,,,,,,,,,,,,,,,,,,,,,,,,,,698343,2010-12-29_13h43.54.019,eb_02psyexp,2022.2.4,119.98591145150542,
270,0,270,0,,,,,,,,,,,,,,,,,,,,,,,,,,,,,,,,,,,,,,,,,,,,,,,,,,,,,,,,,,,558.3872521483572,558.3872521483572,558.3872521483572,558.3872521483572,558.3872521483572,558.3872521483572,s,1,0.4283109826501459,558.828973180498,559.8623908401933,,,,,,,,,,,,,,,,,,,,,,,,,,,,,,,,,,,,,,,698343,2010-12-29_13h43.54.019,eb_02psyexp,2022.2.4,119.98591145150542,
