trials.thisRepN,trials.thisTrialN,trials.thisN,trials.thisIndex,image_loop.thisRepN,image_loop.thisTrialN,image_loop.thisN,image_loop.thisIndex,break_loop.thisRepN,break_loop.thisTrialN,break_loop.thisN,break_loop.thisIndex,test_trials.thisRepN,test_trials.thisTrialN,test_trials.thisN,test_trials.thisIndex,distance matrix,tools,welcome_text.started,instructions_0_keypress.started,instructions_0_keypress.keys,instructions_0_keypress.rt,consent_image_0.started,consent0_key_resp.started,consent0_text.started,consent0_key_resp.keys,consent0_key_resp.rt,consent_image_1.started,consent1_key_resp.started,consent1_text.started,consent1_key_resp.keys,consent1_key_resp.rt,consent2_text.started,consent_image_2.started,consent2_key_resp.started,consent2_key_resp.keys,consent2_key_resp.rt,agree_button.started,disagree_button.started,consent_image_3.started,agree_button.numClicks,agree_button.timesOn,agree_button.timesOff,disagree_button.numClicks,disagree_button.timesOn,disagree_button.timesOff,instructions_text1.started,instructions1_key_resp.started,instr1_cnt_text.started,instructions1_key_resp.keys,instructions1_key_resp.rt,instructions_text2.started,instr2_cnt_text.started,instructions2_key_resp.started,instructions2_key_resp.keys,instructions2_key_resp.rt,instructions_text3.started,instructions3_key_resp.started,instr3_cnt_text.started,instructions3_key_resp.keys,instructions3_key_resp.rt,text_countdown.started,image.started,small_large_keyresp.started,task_question_text.started,smalleroption_text.started,largeroption_text.started,accuracy_score_text.started,small_large_keyresp.keys,small_large_keyresp.corr,small_large_keyresp.rt,fb_2.started,fb_2.stopped,break_text.started,break_key_resp.started,break_key_resp.keys,break_key_resp.rt,reveal_seq_text.started,start_test_text.started,continue_to_test.started,continue_to_test.keys,continue_to_test.rt,test_structure_info.started,start_test_text_2.started,continue_to_test_2.started,continue_to_test_2.keys,continue_to_test_2.rt,test_cntdown_text.started,test_cntdown_text.stopped,parent index,left child index,right child index,left distance,right distance,parent_image.started,top_image_text.started,left_child_image.started,right_child_image.started,path_resp.started,child_choice_text.started,left_choice_text.started,right_choice_text.started,path_resp.keys,path_resp.rt,graph.started,debrief_text.started,debriefing_title.started,demo_scr_adv.started,demo_scr_adv_keypress.started,demo_scr_adv_keypress.keys,demo_scr_adv_keypress.rt,text_countdown_2.started,participant,date,expName,psychopyVersion,frameRate,
,,,,,,,,,,,,,,,,"[[0. 1. 1. 2. 2. 3. 4. 5. 5. 6. 6. 7.]
 [1. 0. 2. 1. 1. 2. 3. 4. 4. 5. 5. 6.]
 [1. 2. 0. 1. 1. 2. 3. 4. 4. 5. 5. 6.]
 [2. 1. 1. 0. 1. 1. 2. 3. 3. 4. 4. 5.]
 [2. 1. 1. 1. 0. 1. 2. 3. 3. 4. 4. 5.]
 [3. 2. 2. 1. 1. 0. 1. 2. 2. 3. 3. 4.]
 [4. 3. 3. 2. 2. 1. 0. 1. 1. 2. 2. 3.]
 [5. 4. 4. 3. 3. 2. 1. 0. 1. 1. 1. 2.]
 [5. 4. 4. 3. 3. 2. 1. 1. 0. 1. 1. 2.]
 [6. 5. 5. 4. 4. 3. 2. 1. 1. 0. 2. 1.]
 [6. 5. 5. 4. 4. 3. 2. 1. 1. 2. 0. 1.]
 [7. 6. 6. 5. 5. 4. 3. 2. 2. 1. 1. 0.]]",[ 1  8 11  2 10  0  5  9  7  6  3  4],11.04457617632579,11.04457617632579,return,13.535389064694755,,,,,,,,,,,,,,,,,,,,,,,,,,,,,,,,,,,,,,,,,,,,,,,,,,,,,,,,,,,,,,,,,,,,,,,,,,,,,,,,,,,,,,,,,,,862978,2023-05-16_15h01.49.206,eb_02psyexp,2022.2.4,60.00615824349793,
,,,,,,,,,,,,,,,,,,,,,,24.610107945860364,24.610107945860364,24.610107945860364,space,16.41689073177986,,,,,,,,,,,,,,,,,,,,,,,,,,,,,,,,,,,,,,,,,,,,,,,,,,,,,,,,,,,,,,,,,,,,,,,,,,,,,,,,,,,,,,862978,2023-05-16_15h01.49.206,eb_02psyexp,2022.2.4,60.00615824349793,
,,,,,,,,,,,,,,,,,,,,,,,,,,,41.05877376056742,41.05877376056742,41.05877376056742,space,19.287376563414,,,,,,,,,,,,,,,,,,,,,,,,,,,,,,,,,,,,,,,,,,,,,,,,,,,,,,,,,,,,,,,,,,,,,,,,,,,,,,,,,862978,2023-05-16_15h01.49.206,eb_02psyexp,2022.2.4,60.00615824349793,
,,,,,,,,,,,,,,,,,,,,,,,,,,,,,,,,60.373933807830326,60.373933807830326,60.373933807830326,space,31.833480377681553,,,,,,,,,,,,,,,,,,,,,,,,,,,,,,,,,,,,,,,,,,,,,,,,,,,,,,,,,,,,,,,,,,,,,,,,,,,,862978,2023-05-16_15h01.49.206,eb_02psyexp,2022.2.4,60.00615824349793,
,,,,,,,,,,,,,,,,,,,,,,,,,,,,,,,,,,,,,92.23809296707623,92.23809296707623,92.23809296707623,1,[3.565819126088172],[3.5658236537128687],0,,,95.80416051158682,97.78764385182876,97.78764385182876,space,2.2997392314719036,,,,,,,,,,,,,,,,,,,,,,,,,,,,,,,,,,,,,,,,,,,,,,,,,,,,,,,,,,,,,,862978,2023-05-16_15h01.49.206,eb_02psyexp,2022.2.4,60.00615824349793,
,,,,,,,,,,,,,,,,,,,,,,,,,,,,,,,,,,,,,,,,,,,,,,,,,,,100.10414258192759,103.08724318270106,103.08724318270106,space,9.311224134056829,,,,,,,,,,,,,,,,,,,,,,,,,,,,,,,,,,,,,,,,,,,,,,,,,,,,,,,,,862978,2023-05-16_15h01.49.206,eb_02psyexp,2022.2.4,60.00615824349793,
,,,,,,,,,,,,,,,,,,,,,,,,,,,,,,,,,,,,,,,,,,,,,,,,,,,,,,,,112.4198211991461,115.40292210166808,115.40292210166808,space,9.71460141800344,,,,,,,,,,,,,,,,,,,,,,,,,,,,,,,,,,,,,,,,,,,,,,,,,,,,862978,2023-05-16_15h01.49.206,eb_02psyexp,2022.2.4,60.00615824349793,
0,0,0,0,,,,,,,,,,,,,,,,,,,,,,,,,,,,,,,,,,,,,,,,,,,,,,,,,,,,,,,,,,125.15218212851323,130.20177859184332,130.20177859184332,130.20177859184332,130.20177859184332,130.20177859184332,130.20177859184332,s,1,1.6757708623772487,131.9015994166257,132.91791444388218,,,,,,,,,,,,,,,,,,,,,,,,,,,,,,,,,,,,,,,,862978,2023-05-16_15h01.49.206,eb_02psyexp,2022.2.4,60.00615824349793,
1,0,1,0,,,,,,,,,,,,,,,,,,,,,,,,,,,,,,,,,,,,,,,,,,,,,,,,,,,,,,,,,,,132.91791444388218,132.91791444388218,132.91791444388218,132.91791444388218,132.91791444388218,132.91791444388218,s,1,0.7756203020690009,133.7181597230956,134.75142063375097,,,,,,,,,,,,,,,,,,,,,,,,,,,,,,,,,,,,,,,,862978,2023-05-16_15h01.49.206,eb_02psyexp,2022.2.4,60.00615824349793,
2,0,2,0,,,,,,,,,,,,,,,,,,,,,,,,,,,,,,,,,,,,,,,,,,,,,,,,,,,,,,,,,,,134.75142063375097,134.75142063375097,134.75142063375097,134.75142063375097,134.75142063375097,134.75142063375097,l,1,0.6941402470692992,135.4680255530402,136.48466415819712,,,,,,,,,,,,,,,,,,,,,,,,,,,,,,,,,,,,,,,,862978,2023-05-16_15h01.49.206,eb_02psyexp,2022.2.4,60.00615824349793,
3,0,3,0,,,,,,,,,,,,,,,,,,,,,,,,,,,,,,,,,,,,,,,,,,,,,,,,,,,,,,,,,,,136.48466415819712,136.48466415819712,136.48466415819712,136.48466415819712,136.48466415819712,136.48466415819712,s,1,0.5929222418926656,137.10122826788574,138.11779141181614,,,,,,,,,,,,,,,,,,,,,,,,,,,,,,,,,,,,,,,,862978,2023-05-16_15h01.49.206,eb_02psyexp,2022.2.4,60.00615824349793,
4,0,4,0,,,,,,,,,,,,,,,,,,,,,,,,,,,,,,,,,,,,,,,,,,,,,,,,,,,,,,,,,,,138.11779141181614,138.11779141181614,138.11779141181614,138.11779141181614,138.11779141181614,138.11779141181614,l,1,0.9038042392348871,139.05109421850648,140.06736728933174,,,,,,,,,,,,,,,,,,,,,,,,,,,,,,,,,,,,,,,,862978,2023-05-16_15h01.49.206,eb_02psyexp,2022.2.4,60.00615824349793,
5,0,5,0,,,,,,,,,,,,,,,,,,,,,,,,,,,,,,,,,,,,,,,,,,,,,,,,,,,,,,,,,,,140.06736728933174,140.06736728933174,140.06736728933174,140.06736728933174,140.06736728933174,140.06736728933174,l,1,0.9612408260582015,141.05092095944565,142.08416315575596,,,,,,,,,,,,,,,,,,,,,,,,,,,,,,,,,,,,,,,,862978,2023-05-16_15h01.49.206,eb_02psyexp,2022.2.4,60.00615824349793,
6,0,6,0,,,,,,,,,,,,,,,,,,,,,,,,,,,,,,,,,,,,,,,,,,,,,,,,,,,,,,,,,,,142.08416315575596,142.08416315575596,142.08416315575596,142.08416315575596,142.08416315575596,142.08416315575596,s,1,0.5524496490834281,142.66748718218878,143.68407236074563,,,,,,,,,,,,,,,,,,,,,,,,,,,,,,,,,,,,,,,,862978,2023-05-16_15h01.49.206,eb_02psyexp,2022.2.4,60.00615824349793,
7,0,7,0,,,,,,,,,,,,,,,,,,,,,,,,,,,,,,,,,,,,,,,,,,,,,,,,,,,,,,,,,,,143.68407236074563,143.68407236074563,143.68407236074563,143.68407236074563,143.68407236074563,143.68407236074563,l,1,0.6245417190948501,144.3340102712391,145.35063800995704,,,,,,,,,,,,,,,,,,,,,,,,,,,,,,,,,,,,,,,,862978,2023-05-16_15h01.49.206,eb_02psyexp,2022.2.4,60.00615824349793,
8,0,8,0,,,,,,,,,,,,,,,,,,,,,,,,,,,,,,,,,,,,,,,,,,,,,,,,,,,,,,,,,,,145.35063800995704,145.35063800995704,145.35063800995704,145.35063800995704,145.35063800995704,145.35063800995704,l,1,0.7260027095908299,146.10026357113384,147.13376293936744,,,,,,,,,,,,,,,,,,,,,,,,,,,,,,,,,,,,,,,,862978,2023-05-16_15h01.49.206,eb_02psyexp,2022.2.4,60.00615824349793,
9,0,9,0,,,,,,,,,,,,,,,,,,,,,,,,,,,,,,,,,,,,,,,,,,,,,,,,,,,,,,,,,,,147.13376293936744,147.13376293936744,147.13376293936744,147.13376293936744,147.13376293936744,147.13376293936744,l,1,0.9668874415801838,148.13374241394922,149.1502919747727,,,,,,,,,,,,,,,,,,,,,,,,,,,,,,,,,,,,,,,,862978,2023-05-16_15h01.49.206,eb_02psyexp,2022.2.4,60.00615824349793,
10,0,10,0,,,,,,,,,,,,,,,,,,,,,,,,,,,,,,,,,,,,,,,,,,,,,,,,,,,,,,,,,,,149.1502919747727,149.1502919747727,149.1502919747727,149.1502919747727,149.1502919747727,149.1502919747727,s,1,0.5343652061419562,149.71693875989877,150.7501519790385,,,,,,,,,,,,,,,,,,,,,,,,,,,,,,,,,,,,,,,,862978,2023-05-16_15h01.49.206,eb_02psyexp,2022.2.4,60.00615824349793,
11,0,11,0,,,,,,,,,,,,,,,,,,,,,,,,,,,,,,,,,,,,,,,,,,,,,,,,,,,,,,,,,,,150.7501519790385,150.7501519790385,150.7501519790385,150.7501519790385,150.7501519790385,150.7501519790385,l,1,0.550522972131148,151.33347902388778,152.35004065860994,,,,,,,,,,,,,,,,,,,,,,,,,,,,,,,,,,,,,,,,862978,2023-05-16_15h01.49.206,eb_02psyexp,2022.2.4,60.00615824349793,
12,0,12,0,,,,,,,,,,,,,,,,,,,,,,,,,,,,,,,,,,,,,,,,,,,,,,,,,,,,,,,,,,,152.35004065860994,152.35004065860994,152.35004065860994,152.35004065860994,152.35004065860994,152.35004065860994,l,1,0.5586404913337901,152.93335683702026,153.94992420671042,,,,,,,,,,,,,,,,,,,,,,,,,,,,,,,,,,,,,,,,862978,2023-05-16_15h01.49.206,eb_02psyexp,2022.2.4,60.00615824349793,
13,0,13,0,,,,,,,,,,,,,,,,,,,,,,,,,,,,,,,,,,,,,,,,,,,,,,,,,,,,,,,,,,,153.94992420671042,153.94992420671042,153.94992420671042,153.94992420671042,153.94992420671042,153.94992420671042,l,1,0.9187464751303196,154.89984841342084,155.93314101779833,,,,,,,,,,,,,,,,,,,,,,,,,,,,,,,,,,,,,,,,862978,2023-05-16_15h01.49.206,eb_02psyexp,2022.2.4,60.00615824349793,
14,0,14,0,,,,,,,,,,,,,,,,,,,,,,,,,,,,,,,,,,,,,,,,,,,,,,,,,,,,,,,,,,,155.93314101779833,155.93314101779833,155.93314101779833,155.93314101779833,155.93314101779833,155.93314101779833,l,1,0.7345717889256775,156.69973661005497,157.71629703731742,,,,,,,,,,,,,,,,,,,,,,,,,,,,,,,,,,,,,,,,862978,2023-05-16_15h01.49.206,eb_02psyexp,2022.2.4,60.00615824349793,
15,0,15,0,,,,,,,,,,,,,,,,,,,,,,,,,,,,,,,,,,,,,,,,,,,,,,,,,,,,,,,,,,,157.71629703731742,157.71629703731742,157.71629703731742,157.71629703731742,157.71629703731742,157.71629703731742,s,1,0.6314189569093287,158.36627509316895,159.38285393302795,,,,,,,,,,,,,,,,,,,,,,,,,,,,,,,,,,,,,,,,862978,2023-05-16_15h01.49.206,eb_02psyexp,2022.2.4,60.00615824349793,
16,0,16,0,,,,,,,,,,,,,,,,,,,,,,,,,,,,,,,,,,,,,,,,,,,,,,,,,,,,,,,,,,,159.38285393302795,159.38285393302795,159.38285393302795,159.38285393302795,159.38285393302795,159.38285393302795,l,1,0.5568789235549048,159.96613207901828,160.99937548255548,,,,,,,,,,,,,,,,,,,,,,,,,,,,,,,,,,,,,,,,862978,2023-05-16_15h01.49.206,eb_02psyexp,2022.2.4,60.00615824349793,
17,0,17,0,,,,,,,,,,,,,,,,,,,,,,,,,,,,,,,,,,,,,,,,,,,,,,,,,,,,,,,,,,,160.99937548255548,160.99937548255548,160.99937548255548,160.99937548255548,160.99937548255548,160.99937548255548,s,1,0.6603604648262262,161.68267542182002,162.69924701738637,,,,,,,,,,,,,,,,,,,,,,,,,,,,,,,,,,,,,,,,862978,2023-05-16_15h01.49.206,eb_02psyexp,2022.2.4,60.00615824349793,
18,0,18,0,,,,,,,,,,,,,,,,,,,,,,,,,,,,,,,,,,,,,,,,,,,,,,,,,,,,,,,,,,,162.69924701738637,162.69924701738637,162.69924701738637,162.69924701738637,162.69924701738637,162.69924701738637,l,1,0.4564653354464099,163.18251876428258,164.1991350328317,,,,,,,,,,,,,,,,,,,,,,,,,,,,,,,,,,,,,,,,862978,2023-05-16_15h01.49.206,eb_02psyexp,2022.2.4,60.00615824349793,
19,0,19,0,,,,,,,,,,,,,,,,,,,,,,,,,,,,,,,,,,,,,,,,,,,,,,,,,,,,,,,,,,,164.1991350328317,164.1991350328317,164.1991350328317,164.1991350328317,164.1991350328317,164.1991350328317,s,1,0.5086102766217664,164.73243518336676,165.74902458768338,,,,,,,,,,,,,,,,,,,,,,,,,,,,,,,,,,,,,,,,862978,2023-05-16_15h01.49.206,eb_02psyexp,2022.2.4,60.00615824349793,
20,0,20,0,,,,,,,,,,,,,,,,,,,,,,,,,,,,,,,,,,,,,,,,,,,,,,,,,,,,,,,,,,,165.74902458768338,165.74902458768338,165.74902458768338,165.74902458768338,165.74902458768338,165.74902458768338,l,1,0.43867730430793017,166.21563509106636,167.24891049030703,,,,,,,,,,,,,,,,,,,,,,,,,,,,,,,,,,,,,,,,862978,2023-05-16_15h01.49.206,eb_02psyexp,2022.2.4,60.00615824349793,
21,0,21,0,,,,,,,,,,,,,,,,,,,,,,,,,,,,,,,,,,,,,,,,,,,,,,,,,,,,,,,,,,,167.24891049030703,167.24891049030703,167.24891049030703,167.24891049030703,167.24891049030703,167.24891049030703,l,1,0.4988298930693418,167.7655149869388,168.78210922086146,,,,,,,,,,,,,,,,,,,,,,,,,,,,,,,,,,,,,,,,862978,2023-05-16_15h01.49.206,eb_02psyexp,2022.2.4,60.00615824349793,
22,0,22,0,,,,,,,,,,,,,,,,,,,,,,,,,,,,,,,,,,,,,,,,,,,,,,,,,,,,,,,,,,,168.78210922086146,168.78210922086146,168.78210922086146,168.78210922086146,168.78210922086146,168.78210922086146,l,1,0.8776813604636118,169.68202524760272,170.71528555452824,,,,,,,,,,,,,,,,,,,,,,,,,,,,,,,,,,,,,,,,862978,2023-05-16_15h01.49.206,eb_02psyexp,2022.2.4,60.00615824349793,
23,0,23,0,,,,,,,,,,,,,,,,,,,,,,,,,,,,,,,,,,,,,,,,,,,,,,,,,,,,,,,,,,,170.71528555452824,170.71528555452824,170.71528555452824,170.71528555452824,170.71528555452824,170.71528555452824,l,1,0.6075318445218727,171.3485905949492,172.3651709439,,,,,,,,,,,,,,,,,,,,,,,,,,,,,,,,,,,,,,,,862978,2023-05-16_15h01.49.206,eb_02psyexp,2022.2.4,60.00615824349793,
24,0,24,0,,,,,,,,,,,,,,,,,,,,,,,,,,,,,,,,,,,,,,,,,,,,,,,,,,,,,,,,,,,172.3651709439,172.3651709439,172.3651709439,172.3651709439,172.3651709439,172.3651709439,l,1,0.5416031487984583,172.93181139032822,173.96505962347146,,,,,,,,,,,,,,,,,,,,,,,,,,,,,,,,,,,,,,,,862978,2023-05-16_15h01.49.206,eb_02psyexp,2022.2.4,60.00615824349793,
25,0,25,0,,,,,,,,,,,,,,,,,,,,,,,,,,,,,,,,,,,,,,,,,,,,,,,,,,,,,,,,,,,173.96505962347146,173.96505962347146,173.96505962347146,173.96505962347146,173.96505962347146,173.96505962347146,s,1,0.5977324447594583,174.58166991558392,175.61492810957134,,,,,,,,,,,,,,,,,,,,,,,,,,,,,,,,,,,,,,,,862978,2023-05-16_15h01.49.206,eb_02psyexp,2022.2.4,60.00615824349793,
26,0,26,0,,,,,,,,,,,,,,,,,,,,,,,,,,,,,,,,,,,,,,,,,,,,,,,,,,,,,,,,,,,175.61492810957134,175.61492810957134,175.61492810957134,175.61492810957134,175.61492810957134,175.61492810957134,s,1,0.507870152592659,176.14821286604274,177.18147317296825,,,,,,,,,,,,,,,,,,,,,,,,,,,,,,,,,,,,,,,,862978,2023-05-16_15h01.49.206,eb_02psyexp,2022.2.4,60.00615824349793,
27,0,27,0,,,,,,,,,,,,,,,,,,,,,,,,,,,,,,,,,,,,,,,,,,,,,,,,,,,,,,,,,,,177.18147317296825,177.18147317296825,177.18147317296825,177.18147317296825,177.18147317296825,177.18147317296825,l,1,0.5253472832264379,177.73143215221353,178.74802125478163,,,,,,,,,,,,,,,,,,,,,,,,,,,,,,,,,,,,,,,,862978,2023-05-16_15h01.49.206,eb_02psyexp,2022.2.4,60.00615824349793,
28,0,28,0,,,,,,,,,,,,,,,,,,,,,,,,,,,,,,,,,,,,,,,,,,,,,,,,,,,,,,,,,,,178.74802125478163,178.74802125478163,178.74802125478163,178.74802125478163,178.74802125478163,178.74802125478163,s,1,0.5508103285683319,179.33130634319969,180.34788971068338,,,,,,,,,,,,,,,,,,,,,,,,,,,,,,,,,,,,,,,,862978,2023-05-16_15h01.49.206,eb_02psyexp,2022.2.4,60.00615824349793,
29,0,29,0,,,,,,,,,,,,,,,,,,,,,,,,,,,,,,,,,,,,,,,,,,,,,,,,,,,,,,,,,,,180.34788971068338,180.34788971068338,180.34788971068338,180.34788971068338,180.34788971068338,180.34788971068338,l,1,0.470927637652494,180.8478631483158,181.8644902833039,,,,,,,,,,,,,,,,,,,,,,,,,,,,,,,,,,,,,,,,862978,2023-05-16_15h01.49.206,eb_02psyexp,2022.2.4,60.00615824349793,
30,0,30,0,,,,,,,,,,,,,,,,,,,,,,,,,,,,,,,,,,,,,,,,,,,,,,,,,,,,,,,,,,,181.8644902833039,181.8644902833039,181.8644902833039,181.8644902833039,181.8644902833039,181.8644902833039,s,1,0.5943692871369421,182.48105137469247,183.5143017207738,,,,,,,,,,,,,,,,,,,,,,,,,,,,,,,,,,,,,,,,862978,2023-05-16_15h01.49.206,eb_02psyexp,2022.2.4,60.00615824349793,
31,0,31,0,,,,,,,,,,,,,,,,,,,,,,,,,,,,,,,,,,,,,,,,,,,,,,,,,,,,,,,,,,,183.5143017207738,183.5143017207738,183.5143017207738,183.5143017207738,183.5143017207738,183.5143017207738,l,1,0.5045694768195972,184.04760821000673,185.06418765347917,,,,,,,,,,,,,,,,,,,,,,,,,,,,,,,,,,,,,,,,862978,2023-05-16_15h01.49.206,eb_02psyexp,2022.2.4,60.00615824349793,
32,0,32,0,,,,,,,,,,,,,,,,,,,,,,,,,,,,,,,,,,,,,,,,,,,,,,,,,,,,,,,,,,,185.06418765347917,185.06418765347917,185.06418765347917,185.06418765347917,185.06418765347917,185.06418765347917,s,1,0.5626803855411708,185.64747877884656,186.6807448208565,,,,,,,,,,,,,,,,,,,,,,,,,,,,,,,,,,,,,,,,862978,2023-05-16_15h01.49.206,eb_02psyexp,2022.2.4,60.00615824349793,
33,0,33,0,,,,,,,,,,,,,,,,,,,,,,,,,,,,,,,,,,,,,,,,,,,,,,,,,,,,,,,,,,,186.6807448208565,186.6807448208565,186.6807448208565,186.6807448208565,186.6807448208565,186.6807448208565,s,1,1.025141424848698,187.73065882513765,188.74725426640362,,,,,,,,,,,,,,,,,,,,,,,,,,,,,,,,,,,,,,,,862978,2023-05-16_15h01.49.206,eb_02psyexp,2022.2.4,60.00615824349793,
34,0,34,0,,,,,,,,,,,,,,,,,,,,,,,,,,,,,,,,,,,,,,,,,,,,,,,,,,,,,,,,,,,188.74725426640362,188.74725426640362,188.74725426640362,188.74725426640362,188.74725426640362,188.74725426640362,s,1,0.6306489502312616,189.3971936861053,190.43043376947753,,,,,,,,,,,,,,,,,,,,,,,,,,,,,,,,,,,,,,,,862978,2023-05-16_15h01.49.206,eb_02psyexp,2022.2.4,60.00615824349793,
35,0,35,0,,,,,,,,,,,,,,,,,,,,,,,,,,,,,,,,,,,,,,,,,,,,,,,,,,,,,,,,,,,190.43043376947753,190.43043376947753,190.43043376947753,190.43043376947753,190.43043376947753,190.43043376947753,l,1,0.5314729268429801,190.9803812786704,191.99700328230392,,,,,,,,,,,,,,,,,,,,,,,,,,,,,,,,,,,,,,,,862978,2023-05-16_15h01.49.206,eb_02psyexp,2022.2.4,60.00615824349793,
36,0,36,0,,,,,,,,,,,,,,,,,,,,,,,,,,,,,,,,,,,,,,,,,,,,,,,,,,,,,,,,,,,191.99700328230392,191.99700328230392,191.99700328230392,191.99700328230392,191.99700328230392,191.99700328230392,l,1,0.5248905916232616,192.54694898042362,193.56354744010605,,,,,,,,,,,,,,,,,,,,,,,,,,,,,,,,,,,,,,,,862978,2023-05-16_15h01.49.206,eb_02psyexp,2022.2.4,60.00615824349793,
37,0,37,0,,,,,,,,,,,,,,,,,,,,,,,,,,,,,,,,,,,,,,,,,,,,,,,,,,,,,,,,,,,193.56354744010605,193.56354744010605,193.56354744010605,193.56354744010605,193.56354744010605,193.56354744010605,l,1,0.34236790344584733,193.93017720116768,194.9467835088726,,,,,,,,,,,,,,,,,,,,,,,,,,,,,,,,,,,,,,,,862978,2023-05-16_15h01.49.206,eb_02psyexp,2022.2.4,60.00615824349793,
38,0,38,0,,,,,,,,,,,,,,,,,,,,,,,,,,,,,,,,,,,,,,,,,,,,,,,,,,,,,,,,,,,194.9467835088726,194.9467835088726,194.9467835088726,194.9467835088726,194.9467835088726,194.9467835088726,s,1,0.3511259378865361,195.33004915853962,196.34665727731772,,,,,,,,,,,,,,,,,,,,,,,,,,,,,,,,,,,,,,,,862978,2023-05-16_15h01.49.206,eb_02psyexp,2022.2.4,60.00615824349793,
39,0,39,0,,,,,,,,,,,,,,,,,,,,,,,,,,,,,,,,,,,,,,,,,,,,,,,,,,,,,,,,,,,196.34665727731772,196.34665727731772,196.34665727731772,196.34665727731772,196.34665727731772,196.34665727731772,l,1,0.7433059775503352,197.11326494335663,198.14651619491633,,,,,,,,,,,,,,,,,,,,,,,,,,,,,,,,,,,,,,,,862978,2023-05-16_15h01.49.206,eb_02psyexp,2022.2.4,60.00615824349793,
40,0,40,0,,,,,,,,,,,,,,,,,,,,,,,,,,,,,,,,,,,,,,,,,,,,,,,,,,,,,,,,,,,198.14651619491633,198.14651619491633,198.14651619491633,198.14651619491633,198.14651619491633,198.14651619491633,s,1,0.9034393085166812,199.0797788562486,200.1130119971931,,,,,,,,,,,,,,,,,,,,,,,,,,,,,,,,,,,,,,,,862978,2023-05-16_15h01.49.206,eb_02psyexp,2022.2.4,60.00615824349793,
41,0,41,0,,,,,,,,,,,,,,,,,,,,,,,,,,,,,,,,,,,,,,,,,,,,,,,,,,,,,,,,,,,200.1130119971931,200.1130119971931,200.1130119971931,200.1130119971931,200.1130119971931,200.1130119971931,s,1,0.5209204235579818,200.6629902945133,201.69622766121756,,,,,,,,,,,,,,,,,,,,,,,,,,,,,,,,,,,,,,,,862978,2023-05-16_15h01.49.206,eb_02psyexp,2022.2.4,60.00615824349793,
42,0,42,0,,,,,,,,,,,,,,,,,,,,,,,,,,,,,,,,,,,,,,,,,,,,,,,,,,,,,,,,,,,201.69622766121756,201.69622766121756,201.69622766121756,201.69622766121756,201.69622766121756,201.69622766121756,s,1,0.6328113682102412,202.3461912284838,203.36275678721722,,,,,,,,,,,,,,,,,,,,,,,,,,,,,,,,,,,,,,,,862978,2023-05-16_15h01.49.206,eb_02psyexp,2022.2.4,60.00615824349793,
43,0,43,0,,,,,,,,,,,,,,,,,,,,,,,,,,,,,,,,,,,,,,,,,,,,,,,,,,,,,,,,,,,203.36275678721722,203.36275678721722,203.36275678721722,203.36275678721722,203.36275678721722,203.36275678721722,l,1,0.6381980950245634,204.0294199322816,205.06262711447198,,,,,,,,,,,,,,,,,,,,,,,,,,,,,,,,,,,,,,,,862978,2023-05-16_15h01.49.206,eb_02psyexp,2022.2.4,60.00615824349793,
44,0,44,0,,,,,,,,,,,,,,,,,,,,,,,,,,,,,,,,,,,,,,,,,,,,,,,,,,,,,,,,,,,205.06262711447198,205.06262711447198,205.06262711447198,205.06262711447198,205.06262711447198,205.06262711447198,l,1,0.5143688765820116,205.59594265907072,206.6125236118678,,,,,,,,,,,,,,,,,,,,,,,,,,,,,,,,,,,,,,,,862978,2023-05-16_15h01.49.206,eb_02psyexp,2022.2.4,60.00615824349793,
45,0,45,0,,,,,,,,,,,,,,,,,,,,,,,,,,,,,,,,,,,,,,,,,,,,,,,,,,,,,,,,,,,206.6125236118678,206.6125236118678,206.6125236118678,206.6125236118678,206.6125236118678,206.6125236118678,l,1,0.36445722670760006,206.9958318215795,208.01242726296186,,,,,,,,,,,,,,,,,,,,,,,,,,,,,,,,,,,,,,,,862978,2023-05-16_15h01.49.206,eb_02psyexp,2022.2.4,60.00615824349793,
46,0,46,0,,,,,,,,,,,,,,,,,,,,,,,,,,,,,,,,,,,,,,,,,,,,,,,,,,,,,,,,,,,208.01242726296186,208.01242726296186,208.01242726296186,208.01242726296186,208.01242726296186,208.01242726296186,s,1,0.5085988064529374,208.5457180562662,209.57895632844884,,,,,,,,,,,,,,,,,,,,,,,,,,,,,,,,,,,,,,,,862978,2023-05-16_15h01.49.206,eb_02psyexp,2022.2.4,60.00615824349793,
47,0,47,0,,,,,,,,,,,,,,,,,,,,,,,,,,,,,,,,,,,,,,,,,,,,,,,,,,,,,,,,,,,209.57895632844884,209.57895632844884,209.57895632844884,209.57895632844884,209.57895632844884,209.57895632844884,s,0,0.5020783495856449,210.11224500881508,211.12883803539444,,,,,,,,,,,,,,,,,,,,,,,,,,,,,,,,,,,,,,,,862978,2023-05-16_15h01.49.206,eb_02psyexp,2022.2.4,60.00615824349793,
48,0,48,0,,,,,,,,,,,,,,,,,,,,,,,,,,,,,,,,,,,,,,,,,,,,,,,,,,,,,,,,,,,211.12883803539444,211.12883803539444,211.12883803539444,211.12883803539444,211.12883803539444,211.12883803539444,s,1,0.5841714518610388,211.74545345886145,212.77872070821468,,,,,,,,,,,,,,,,,,,,,,,,,,,,,,,,,,,,,,,,862978,2023-05-16_15h01.49.206,eb_02psyexp,2022.2.4,60.00615824349793,
49,0,49,0,,,,,,,,,,,,,,,,,,,,,,,,,,,,,,,,,,,,,,,,,,,,,,,,,,,,,,,,,,,212.77872070821468,212.77872070821468,212.77872070821468,212.77872070821468,212.77872070821468,212.77872070821468,s,1,1.4063062329078093,214.21194443153217,215.22854228760116,,,,,,,,,,,,,,,,,,,,,,,,,,,,,,,,,,,,,,,,862978,2023-05-16_15h01.49.206,eb_02psyexp,2022.2.4,60.00615824349793,
50,0,50,0,,,,,,,,,,,,,,,,,,,,,,,,,,,,,,,,,,,,,,,,,,,,,,,,,,,,,,,,,,,215.22854228760116,215.22854228760116,215.22854228760116,215.22854228760116,215.22854228760116,215.22854228760116,l,1,0.9485385824227706,216.1950984589057,217.21170959610026,,,,,,,,,,,,,,,,,,,,,,,,,,,,,,,,,,,,,,,,862978,2023-05-16_15h01.49.206,eb_02psyexp,2022.2.4,60.00615824349793,
51,0,51,0,,,,,,,,,,,,,,,,,,,,,,,,,,,,,,,,,,,,,,,,,,,,,,,,,,,,,,,,,,,217.21170959610026,217.21170959610026,217.21170959610026,217.21170959610026,217.21170959610026,217.21170959610026,l,1,0.8123977077193558,218.0449749137042,219.0615549609065,,,,,,,,,,,,,,,,,,,,,,,,,,,,,,,,,,,,,,,,862978,2023-05-16_15h01.49.206,eb_02psyexp,2022.2.4,60.00615824349793,
52,0,52,0,,,,,,,,,,,,,,,,,,,,,,,,,,,,,,,,,,,,,,,,,,,,,,,,,,,,,,,,,,,219.0615549609065,219.0615549609065,219.0615549609065,219.0615549609065,219.0615549609065,219.0615549609065,l,1,0.650506732868962,219.74484795762692,220.76145426533185,,,,,,,,,,,,,,,,,,,,,,,,,,,,,,,,,,,,,,,,862978,2023-05-16_15h01.49.206,eb_02psyexp,2022.2.4,60.00615824349793,
53,0,53,0,,,,,,,,,,,,,,,,,,,,,,,,,,,,,,,,,,,,,,,,,,,,,,,,,,,,,,,,,,,220.76145426533185,220.76145426533185,220.76145426533185,220.76145426533185,220.76145426533185,220.76145426533185,l,1,0.5266162399202585,221.3113936247537,222.32798363280017,,,,,,,,,,,,,,,,,,,,,,,,,,,,,,,,,,,,,,,,862978,2023-05-16_15h01.49.206,eb_02psyexp,2022.2.4,60.00615824349793,
54,0,54,0,,,,,,,,,,,,,,,,,,,,,,,,,,,,,,,,,,,,,,,,,,,,,,,,,,,,,,,,,,,222.32798363280017,222.32798363280017,222.32798363280017,222.32798363280017,222.32798363280017,222.32798363280017,s,1,1.0160809417720884,223.3611947390018,224.37783334415872,,,,,,,,,,,,,,,,,,,,,,,,,,,,,,,,,,,,,,,,862978,2023-05-16_15h01.49.206,eb_02psyexp,2022.2.4,60.00615824349793,
55,0,55,0,,,,,,,,,,,,,,,,,,,,,,,,,,,,,,,,,,,,,,,,,,,,,,,,,,,,,,,,,,,224.37783334415872,224.37783334415872,224.37783334415872,224.37783334415872,224.37783334415872,224.37783334415872,l,1,0.6782607822678983,225.07777279405855,226.09435072832275,,,,,,,,,,,,,,,,,,,,,,,,,,,,,,,,,,,,,,,,862978,2023-05-16_15h01.49.206,eb_02psyexp,2022.2.4,60.00615824349793,
56,0,56,0,,,,,,,,,,,,,,,,,,,,,,,,,,,,,,,,,,,,,,,,,,,,,,,,,,,,,,,,,,,226.09435072832275,226.09435072832275,226.09435072832275,226.09435072832275,226.09435072832275,226.09435072832275,s,1,0.6737270693993196,226.79429108370095,227.81089316564612,,,,,,,,,,,,,,,,,,,,,,,,,,,,,,,,,,,,,,,,862978,2023-05-16_15h01.49.206,eb_02psyexp,2022.2.4,60.00615824349793,
57,0,57,0,,,,,,,,,,,,,,,,,,,,,,,,,,,,,,,,,,,,,,,,,,,,,,,,,,,,,,,,,,,227.81089316564612,227.81089316564612,227.81089316564612,227.81089316564612,227.81089316564612,227.81089316564612,l,1,0.5732033079257235,228.4108573064441,229.42743403324857,,,,,,,,,,,,,,,,,,,,,,,,,,,,,,,,,,,,,,,,862978,2023-05-16_15h01.49.206,eb_02psyexp,2022.2.4,60.00615824349793,
58,0,58,0,,,,,,,,,,,,,,,,,,,,,,,,,,,,,,,,,,,,,,,,,,,,,,,,,,,,,,,,,,,229.42743403324857,229.42743403324857,229.42743403324857,229.42743403324857,229.42743403324857,229.42743403324857,l,1,0.6766872640000656,230.12738495331723,231.14397647057194,,,,,,,,,,,,,,,,,,,,,,,,,,,,,,,,,,,,,,,,862978,2023-05-16_15h01.49.206,eb_02psyexp,2022.2.4,60.00615824349793,
59,0,59,0,,,,,,,,,,,,,,,,,,,,,,,,,,,,,,,,,,,,,,,,,,,,,,,,,,,,,,,,,,,231.14397647057194,231.14397647057194,231.14397647057194,231.14397647057194,231.14397647057194,231.14397647057194,l,1,0.47214558254927397,231.64393391041085,232.6605133539997,,,,,,,,,,,,,,,,,,,,,,,,,,,,,,,,,,,,,,,,862978,2023-05-16_15h01.49.206,eb_02psyexp,2022.2.4,60.00615824349793,
60,0,60,0,,,,,,,,,,,,,,,,,,,,,,,,,,,,,,,,,,,,,,,,,,,,,,,,,,,,,,,,,,,232.6605133539997,232.6605133539997,232.6605133539997,232.6605133539997,232.6605133539997,232.6605133539997,s,1,0.6986700358102098,233.37713849684224,234.39372518460732,,,,,,,,,,,,,,,,,,,,,,,,,,,,,,,,,,,,,,,,862978,2023-05-16_15h01.49.206,eb_02psyexp,2022.2.4,60.00615824349793,
61,0,61,0,,,,,,,,,,,,,,,,,,,,,,,,,,,,,,,,,,,,,,,,,,,,,,,,,,,,,,,,,,,234.39372518460732,234.39372518460732,234.39372518460732,234.39372518460732,234.39372518460732,234.39372518460732,l,1,0.6054125903174281,235.027002455201,236.04360634821933,,,,,,,,,,,,,,,,,,,,,,,,,,,,,,,,,,,,,,,,862978,2023-05-16_15h01.49.206,eb_02psyexp,2022.2.4,60.00615824349793,
62,0,62,0,,,,,,,,,,,,,,,,,,,,,,,,,,,,,,,,,,,,,,,,,,,,,,,,,,,,,,,,,,,236.04360634821933,236.04360634821933,236.04360634821933,236.04360634821933,236.04360634821933,236.04360634821933,l,1,0.6275541328359395,236.693524336908,237.71012521139346,,,,,,,,,,,,,,,,,,,,,,,,,,,,,,,,,,,,,,,,862978,2023-05-16_15h01.49.206,eb_02psyexp,2022.2.4,60.00615824349793,
63,0,63,0,,,,,,,,,,,,,,,,,,,,,,,,,,,,,,,,,,,,,,,,,,,,,,,,,,,,,,,,,,,237.71012521139346,237.71012521139346,237.71012521139346,237.71012521139346,237.71012521139346,237.71012521139346,s,1,0.6490436899475753,238.37674700375646,239.3933261454804,,,,,,,,,,,,,,,,,,,,,,,,,,,,,,,,,,,,,,,,862978,2023-05-16_15h01.49.206,eb_02psyexp,2022.2.4,60.00615824349793,
64,0,64,0,,,,,,,,,,,,,,,,,,,,,,,,,,,,,,,,,,,,,,,,,,,,,,,,,,,,,,,,,,,239.3933261454804,239.3933261454804,239.3933261454804,239.3933261454804,239.3933261454804,239.3933261454804,l,1,0.5738085072953254,239.99321874894667,241.0098676168127,,,,,,,,,,,,,,,,,,,,,,,,,,,,,,,,,,,,,,,,862978,2023-05-16_15h01.49.206,eb_02psyexp,2022.2.4,60.00615824349793,
65,0,65,0,,,,,,,,,,,,,,,,,,,,,,,,,,,,,,,,,,,,,,,,,,,,,,,,,,,,,,,,,,,241.0098676168127,241.0098676168127,241.0098676168127,241.0098676168127,241.0098676168127,241.0098676168127,l,1,0.6453092629089952,241.6764332660241,242.6930682490347,,,,,,,,,,,,,,,,,,,,,,,,,,,,,,,,,,,,,,,,862978,2023-05-16_15h01.49.206,eb_02psyexp,2022.2.4,60.00615824349793,
66,0,66,0,,,,,,,,,,,,,,,,,,,,,,,,,,,,,,,,,,,,,,,,,,,,,,,,,,,,,,,,,,,242.6930682490347,242.6930682490347,242.6930682490347,242.6930682490347,242.6930682490347,242.6930682490347,l,1,0.5461006402038038,243.2596748888027,244.2762920629466,,,,,,,,,,,,,,,,,,,,,,,,,,,,,,,,,,,,,,,,862978,2023-05-16_15h01.49.206,eb_02psyexp,2022.2.4,60.00615824349793,
67,0,67,0,,,,,,,,,,,,,,,,,,,,,,,,,,,,,,,,,,,,,,,,,,,,,,,,,,,,,,,,,,,244.2762920629466,244.2762920629466,244.2762920629466,244.2762920629466,244.2762920629466,244.2762920629466,s,1,0.6189005367923528,244.92622816225048,245.9428172648186,,,,,,,,,,,,,,,,,,,,,,,,,,,,,,,,,,,,,,,,862978,2023-05-16_15h01.49.206,eb_02psyexp,2022.2.4,60.00615824349793,
68,0,68,0,,,,,,,,,,,,,,,,,,,,,,,,,,,,,,,,,,,,,,,,,,,,,,,,,,,,,,,,,,,245.9428172648186,245.9428172648186,245.9428172648186,245.9428172648186,245.9428172648186,245.9428172648186,l,1,0.992397574824281,246.95941572461743,247.97601508989464,,,,,,,,,,,,,,,,,,,,,,,,,,,,,,,,,,,,,,,,862978,2023-05-16_15h01.49.206,eb_02psyexp,2022.2.4,60.00615824349793,
69,0,69,0,,,,,,,,,,,,,,,,,,,,,,,,,,,,,,,,,,,,,,,,,,,,,,,,,,,,,,,,,,,247.97601508989464,247.97601508989464,247.97601508989464,247.97601508989464,247.97601508989464,247.97601508989464,s,1,0.7272152211517096,248.72595064598136,249.74252858024556,,,,,,,,,,,,,,,,,,,,,,,,,,,,,,,,,,,,,,,,862978,2023-05-16_15h01.49.206,eb_02psyexp,2022.2.4,60.00615824349793,
70,0,70,0,,,,,,,,,,,,,,,,,,,,,,,,,,,,,,,,,,,,,,,,,,,,,,,,,,,,,,,,,,,249.74252858024556,249.74252858024556,249.74252858024556,249.74252858024556,249.74252858024556,249.74252858024556,l,1,1.6396985668689013,251.40906072466169,252.4256229629973,,,,,,,,,,,,,,,,,,,,,,,,,,,,,,,,,,,,,,,,862978,2023-05-16_15h01.49.206,eb_02psyexp,2022.2.4,60.00615824349793,
71,0,71,0,,,,,,,,,,,,,,,,,,,,,,,,,,,,,,,,,,,,,,,,,,,,,,,,,,,,,,,,,,,252.4256229629973,252.4256229629973,252.4256229629973,252.4256229629973,252.4256229629973,252.4256229629973,s,1,0.6286256827879697,253.0755928689614,254.09214876859915,,,,,,,,,,,,,,,,,,,,,,,,,,,,,,,,,,,,,,,,862978,2023-05-16_15h01.49.206,eb_02psyexp,2022.2.4,60.00615824349793,
72,0,72,0,,,,,,,,,,,,,,,,,,,,,,,,,,,,,,,,,,,,,,,,,,,,,,,,,,,,,,,,,,,254.09214876859915,254.09214876859915,254.09214876859915,254.09214876859915,254.09214876859915,254.09214876859915,l,1,0.9941114510875195,255.10849337663967,256.1253794947406,,,,,,,,,,,,,,,,,,,,,,,,,,,,,,,,,,,,,,,,862978,2023-05-16_15h01.49.206,eb_02psyexp,2022.2.4,60.00615824349793,
73,0,73,0,,,,,,,,,,,,,,,,,,,,,,,,,,,,,,,,,,,,,,,,,,,,,,,,,,,,,,,,,,,256.1253794947406,256.1253794947406,256.1253794947406,256.1253794947406,256.1253794947406,256.1253794947406,s,1,0.8888749827165157,257.04196853691246,258.0585401324788,,,,,,,,,,,,,,,,,,,,,,,,,,,,,,,,,,,,,,,,862978,2023-05-16_15h01.49.206,eb_02psyexp,2022.2.4,60.00615824349793,
74,0,74,0,,,,,,,,,,,,,,,,,,,,,,,,,,,,,,,,,,,,,,,,,,,,,,,,,,,,,,,,,,,258.0585401324788,258.0585401324788,258.0585401324788,258.0585401324788,258.0585401324788,258.0585401324788,l,1,0.6677577816881239,258.7585115778493,259.79175226495136,,,,,,,,,,,,,,,,,,,,,,,,,,,,,,,,,,,,,,,,862978,2023-05-16_15h01.49.206,eb_02psyexp,2022.2.4,60.00615824349793,
75,0,75,0,,,,,,,,,,,,,,,,,,,,,,,,,,,,,,,,,,,,,,,,,,,,,,,,,,,,,,,,,,,259.79175226495136,259.79175226495136,259.79175226495136,259.79175226495136,259.79175226495136,259.79175226495136,s,1,1.3745159113314003,261.19163297570776,262.2082214746624,,,,,,,,,,,,,,,,,,,,,,,,,,,,,,,,,,,,,,,,862978,2023-05-16_15h01.49.206,eb_02psyexp,2022.2.4,60.00615824349793,
76,0,76,0,,,,,,,,,,,,,,,,,,,,,,,,,,,,,,,,,,,,,,,,,,,,,,,,,,,,,,,,,,,262.2082214746624,262.2082214746624,262.2082214746624,262.2082214746624,262.2082214746624,262.2082214746624,s,1,0.6300621634582058,262.8581856456585,263.87484930385835,,,,,,,,,,,,,,,,,,,,,,,,,,,,,,,,,,,,,,,,862978,2023-05-16_15h01.49.206,eb_02psyexp,2022.2.4,60.00615824349793,
77,0,77,0,,,,,,,,,,,,,,,,,,,,,,,,,,,,,,,,,,,,,,,,,,,,,,,,,,,,,,,,,,,263.87484930385835,263.87484930385835,263.87484930385835,263.87484930385835,263.87484930385835,263.87484930385835,l,1,0.6105041129048914,264.5080607723212,265.5246465546079,,,,,,,,,,,,,,,,,,,,,,,,,,,,,,,,,,,,,,,,862978,2023-05-16_15h01.49.206,eb_02psyexp,2022.2.4,60.00615824349793,
78,0,78,0,,,,,,,,,,,,,,,,,,,,,,,,,,,,,,,,,,,,,,,,,,,,,,,,,,,,,,,,,,,265.5246465546079,265.5246465546079,265.5246465546079,265.5246465546079,265.5246465546079,265.5246465546079,s,1,0.5526645628269762,266.1079020621255,267.1245216510724,,,,,,,,,,,,,,,,,,,,,,,,,,,,,,,,,,,,,,,,862978,2023-05-16_15h01.49.206,eb_02psyexp,2022.2.4,60.00615824349793,
79,0,79,0,,,,,,,,,,,,,,,,,,,,,,,,,,,,,,,,,,,,,,,,,,,,,,,,,,,,,,,,,,,267.1245216510724,267.1245216510724,267.1245216510724,267.1245216510724,267.1245216510724,267.1245216510724,l,1,0.512813167180866,267.65781576465815,268.6744066782994,,,,,,,,,,,,,,,,,,,,,,,,,,,,,,,,,,,,,,,,862978,2023-05-16_15h01.49.206,eb_02psyexp,2022.2.4,60.00615824349793,
80,0,80,0,,,,,,,,,,,,,,,,,,,,,,,,,,,,,,,,,,,,,,,,,,,,,,,,,,,,,,,,,,,268.6744066782994,268.6744066782994,268.6744066782994,268.6744066782994,268.6744066782994,268.6744066782994,s,1,0.5309217578032985,269.224350263481,270.2409478176851,,,,,,,,,,,,,,,,,,,,,,,,,,,,,,,,,,,,,,,,862978,2023-05-16_15h01.49.206,eb_02psyexp,2022.2.4,60.00615824349793,
81,0,81,0,,,,,,,,,,,,,,,,,,,,,,,,,,,,,,,,,,,,,,,,,,,,,,,,,,,,,,,,,,,270.2409478176851,270.2409478176851,270.2409478176851,270.2409478176851,270.2409478176851,270.2409478176851,l,1,0.5643707178533077,270.84090743074194,,,,,,,,,,,,,,,,,,,,,,,,,,,,,,,,,,,,,,,,,862978,2023-05-16_15h01.49.206,eb_02psyexp,2022.2.4,60.00615824349793,
82,0,82,0,,,,,,,,,,,,,,,,,,,,,,,,,,,,,,,,,,,,,,,,,,,,,,,,,,,,,,,,,,,271.8574923075503,271.8574923075503,271.8574923075503,271.8574923075503,271.8574923075503,271.8574923075503,s,1,0.5638488277327269,272.44075747416355,273.45737132802606,,,,,,,,,,,,,,,,,,,,,,,,,,,,,,,,,,,,,,,,862978,2023-05-16_15h01.49.206,eb_02psyexp,2022.2.4,60.00615824349793,
83,0,83,0,,,,,,,,,,,,,,,,,,,,,,,,,,,,,,,,,,,,,,,,,,,,,,,,,,,,,,,,,,,273.45737132802606,273.45737132802606,273.45737132802606,273.45737132802606,273.45737132802606,273.45737132802606,l,1,0.8600137655157596,274.34064241079614,275.3572197414469,,,,,,,,,,,,,,,,,,,,,,,,,,,,,,,,,,,,,,,,862978,2023-05-16_15h01.49.206,eb_02psyexp,2022.2.4,60.00615824349793,
84,0,84,0,,,,,,,,,,,,,,,,,,,,,,,,,,,,,,,,,,,,,,,,,,,,,,,,,,,,,,,,,,,275.3572197414469,275.3572197414469,275.3572197414469,275.3572197414469,275.3572197414469,275.3572197414469,l,1,0.9121511606499553,276.29047666769475,277.3070887104841,,,,,,,,,,,,,,,,,,,,,,,,,,,,,,,,,,,,,,,,862978,2023-05-16_15h01.49.206,eb_02psyexp,2022.2.4,60.00615824349793,
85,0,85,0,,,,,,,,,,,,,,,,,,,,,,,,,,,,,,,,,,,,,,,,,,,,,,,,,,,,,,,,,,,277.3070887104841,277.3070887104841,277.3070887104841,277.3070887104841,277.3070887104841,277.3070887104841,l,1,0.6742803514935076,278.0070154828718,279.0236094149295,,,,,,,,,,,,,,,,,,,,,,,,,,,,,,,,,,,,,,,,862978,2023-05-16_15h01.49.206,eb_02psyexp,2022.2.4,60.00615824349793,
86,0,86,0,,,,,,,,,,,,,,,,,,,,,,,,,,,,,,,,,,,,,,,,,,,,,,,,,,,,,,,,,,,279.0236094149295,279.0236094149295,279.0236094149295,279.0236094149295,279.0236094149295,279.0236094149295,s,1,0.5977913045790046,279.6402390251169,280.6568079040153,,,,,,,,,,,,,,,,,,,,,,,,,,,,,,,,,,,,,,,,862978,2023-05-16_15h01.49.206,eb_02psyexp,2022.2.4,60.00615824349793,
87,0,87,0,,,,,,,,,,,,,,,,,,,,,,,,,,,,,,,,,,,,,,,,,,,,,,,,,,,,,,,,,,,280.6568079040153,280.6568079040153,280.6568079040153,280.6568079040153,280.6568079040153,280.6568079040153,l,1,0.5395868238992989,281.2234453319106,282.24003473634366,,,,,,,,,,,,,,,,,,,,,,,,,,,,,,,,,,,,,,,,862978,2023-05-16_15h01.49.206,eb_02psyexp,2022.2.4,60.00615824349793,
88,0,88,0,,,,,,,,,,,,,,,,,,,,,,,,,,,,,,,,,,,,,,,,,,,,,,,,,,,,,,,,,,,282.24003473634366,282.24003473634366,282.24003473634366,282.24003473634366,282.24003473634366,282.24003473634366,l,1,0.548361761495471,282.80663684848696,283.82324375980534,,,,,,,,,,,,,,,,,,,,,,,,,,,,,,,,,,,,,,,,862978,2023-05-16_15h01.49.206,eb_02psyexp,2022.2.4,60.00615824349793,
89,0,89,0,,,,,,,,,,,,,,,,,,,,,,,,,,,,,,,,,,,,,,,,,,,,,,,,,,,,,,,,,,,283.82324375980534,283.82324375980534,283.82324375980534,283.82324375980534,283.82324375980534,283.82324375980534,s,1,0.5971861052094027,284.4398483168334,285.45645643561147,,,,,,,,,,,,,,,,,,,,,,,,,,,,,,,,,,,,,,,,862978,2023-05-16_15h01.49.206,eb_02psyexp,2022.2.4,60.00615824349793,
90,0,90,0,,,,,,,,,,,,,,,,,,,,,,,,,,,,,,,,,,,,,,,,,,,,,,,,,,,,,,,,,,,285.45645643561147,285.45645643561147,285.45645643561147,285.45645643561147,285.45645643561147,285.45645643561147,l,1,0.4359664338408038,285.92306693899445,286.93967626511585,,,,,,,,,,,,,,,,,,,,,,,,,,,,,,,,,,,,,,,,862978,2023-05-16_15h01.49.206,eb_02psyexp,2022.2.4,60.00615824349793,
91,0,91,0,,,,,,,,,,,,,,,,,,,,,,,,,,,,,,,,,,,,,,,,,,,,,,,,,,,,,,,,,,,286.93967626511585,286.93967626511585,286.93967626511585,286.93967626511585,286.93967626511585,286.93967626511585,s,1,1.440775731112808,288.4062411899213,289.4228318016976,,,,,,,,,,,,,,,,,,,,,,,,,,,,,,,,,,,,,,,,862978,2023-05-16_15h01.49.206,eb_02psyexp,2022.2.4,60.00615824349793,
92,0,92,0,,,,,,,,,,,,,,,,,,,,,,,,,,,,,,,,,,,,,,,,,,,,,,,,,,,,,,,,,,,289.4228318016976,289.4228318016976,289.4228318016976,289.4228318016976,289.4228318016976,289.4228318016976,l,1,0.5256123031722382,289.97277025552467,290.9893563395599,,,,,,,,,,,,,,,,,,,,,,,,,,,,,,,,,,,,,,,,862978,2023-05-16_15h01.49.206,eb_02psyexp,2022.2.4,60.00615824349793,
93,0,93,0,,,,,,,,,,,,,,,,,,,,,,,,,,,,,,,,,,,,,,,,,,,,,,,,,,,,,,,,,,,290.9893563395599,290.9893563395599,290.9893563395599,290.9893563395599,290.9893563395599,290.9893563395599,s,1,1.3191037992946804,292.3392611677991,293.3558508740971,,,,,,,,,,,,,,,,,,,,,,,,,,,,,,,,,,,,,,,,862978,2023-05-16_15h01.49.206,eb_02psyexp,2022.2.4,60.00615824349793,
94,0,94,0,,,,,,,,,,,,,,,,,,,,,,,,,,,,,,,,,,,,,,,,,,,,,,,,,,,,,,,,,,,293.3558508740971,293.3558508740971,293.3558508740971,293.3558508740971,293.3558508740971,293.3558508740971,l,1,1.0406224542530254,294.4224454400828,295.4390279019717,,,,,,,,,,,,,,,,,,,,,,,,,,,,,,,,,,,,,,,,862978,2023-05-16_15h01.49.206,eb_02psyexp,2022.2.4,60.00615824349793,
95,0,95,0,,,,,,,,,,,,,,,,,,,,,,,,,,,,,,,,,,,,,,,,,,,,,,,,,,,,,,,,,,,295.4390279019717,295.4390279019717,295.4390279019717,295.4390279019717,295.4390279019717,295.4390279019717,s,1,0.5644727415638044,296.02231268852483,297.0388945468003,,,,,,,,,,,,,,,,,,,,,,,,,,,,,,,,,,,,,,,,862978,2023-05-16_15h01.49.206,eb_02psyexp,2022.2.4,60.00615824349793,
96,0,96,0,,,,,,,,,,,,,,,,,,,,,,,,,,,,,,,,,,,,,,,,,,,,,,,,,,,,,,,,,,,297.0388945468003,297.0388945468003,297.0388945468003,297.0388945468003,297.0388945468003,297.0388945468003,l,1,0.5006059494335204,297.57219258439727,298.5887581430143,,,,,,,,,,,,,,,,,,,,,,,,,,,,,,,,,,,,,,,,862978,2023-05-16_15h01.49.206,eb_02psyexp,2022.2.4,60.00615824349793,
97,0,97,0,,,,,,,,,,,,,,,,,,,,,,,,,,,,,,,,,,,,,,,,,,,,,,,,,,,,,,,,,,,298.5887581430143,298.5887581430143,298.5887581430143,298.5887581430143,298.5887581430143,298.5887581430143,s,1,1.174786243820563,299.78868431178853,300.8052797530545,,,,,,,,,,,,,,,,,,,,,,,,,,,,,,,,,,,,,,,,862978,2023-05-16_15h01.49.206,eb_02psyexp,2022.2.4,60.00615824349793,
98,0,98,0,,,,,,,,,,,,,,,,,,,,,,,,,,,,,,,,,,,,,,,,,,,,,,,,,,,,,,,,,,,300.8052797530545,300.8052797530545,300.8052797530545,300.8052797530545,300.8052797530545,300.8052797530545,l,1,0.5822323991451412,301.4052152185468,302.42181730049197,,,,,,,,,,,,,,,,,,,,,,,,,,,,,,,,,,,,,,,,862978,2023-05-16_15h01.49.206,eb_02psyexp,2022.2.4,60.00615824349793,
99,0,99,0,,,,,,,,,,,,,,,,,,,,,,,,,,,,,,,,,,,,,,,,,,,,,,,,,,,,,,,,,,,302.42181730049197,302.42181730049197,302.42181730049197,302.42181730049197,302.42181730049197,302.42181730049197,s,1,0.533671566285193,302.9884230346652,304.00504775496665,,,,,,,,,,,,,,,,,,,,,,,,,,,,,,,,,,,,,,,,862978,2023-05-16_15h01.49.206,eb_02psyexp,2022.2.4,60.00615824349793,
100,0,100,0,,,,,,,,,,,,,,,,,,,,,,,,,,,,,,,,,,,,,,,,,,,,,,,,,,,,,,,,,,,304.00504775496665,304.00504775496665,304.00504775496665,304.00504775496665,304.00504775496665,304.00504775496665,l,1,0.446467925212346,304.4716398457531,305.4882449461147,,,,,,,,,,,,,,,,,,,,,,,,,,,,,,,,,,,,,,,,862978,2023-05-16_15h01.49.206,eb_02psyexp,2022.2.4,60.00615824349793,
101,0,101,0,,,,,,,,,,,,,,,,,,,,,,,,,,,,,,,,,,,,,,,,,,,,,,,,,,,,,,,,,,,305.4882449461147,305.4882449461147,305.4882449461147,305.4882449461147,305.4882449461147,305.4882449461147,l,1,1.2192920902743936,306.7381500158226,307.7547481737565,,,,,,,,,,,,,,,,,,,,,,,,,,,,,,,,,,,,,,,,862978,2023-05-16_15h01.49.206,eb_02psyexp,2022.2.4,60.00615824349793,
102,0,102,0,,,,,,,,,,,,,,,,,,,,,,,,,,,,,,,,,,,,,,,,,,,,,,,,,,,,,,,,,,,307.7547481737565,307.7547481737565,307.7547481737565,307.7547481737565,307.7547481737565,307.7547481737565,l,1,0.9208020399091765,308.7046581937466,309.7212575590238,,,,,,,,,,,,,,,,,,,,,,,,,,,,,,,,,,,,,,,,862978,2023-05-16_15h01.49.206,eb_02psyexp,2022.2.4,60.00615824349793,
103,0,103,0,,,,,,,,,,,,,,,,,,,,,,,,,,,,,,,,,,,,,,,,,,,,,,,,,,,,,,,,,,,309.7212575590238,309.7212575590238,309.7212575590238,309.7212575590238,309.7212575590238,309.7212575590238,s,1,0.530318973120302,310.2712201604154,311.28782314783894,,,,,,,,,,,,,,,,,,,,,,,,,,,,,,,,,,,,,,,,862978,2023-05-16_15h01.49.206,eb_02psyexp,2022.2.4,60.00615824349793,
104,0,104,0,,,,,,,,,,,,,,,,,,,,,,,,,,,,,,,,,,,,,,,,,,,,,,,,,,,,,,,,,,,311.28782314783894,311.28782314783894,311.28782314783894,311.28782314783894,311.28782314783894,311.28782314783894,l,1,0.5067650977289304,311.8211051876424,312.83767044439446,,,,,,,,,,,,,,,,,,,,,,,,,,,,,,,,,,,,,,,,862978,2023-05-16_15h01.49.206,eb_02psyexp,2022.2.4,60.00615824349793,
105,0,105,0,,,,,,,,,,,,,,,,,,,,,,,,,,,,,,,,,,,,,,,,,,,,,,,,,,,,,,,,,,,312.83767044439446,312.83767044439446,312.83767044439446,312.83767044439446,312.83767044439446,312.83767044439446,l,1,0.6849252193933353,313.55429649271537,314.570890726638,,,,,,,,,,,,,,,,,,,,,,,,,,,,,,,,,,,,,,,,862978,2023-05-16_15h01.49.206,eb_02psyexp,2022.2.4,60.00615824349793,
106,0,106,0,,,,,,,,,,,,,,,,,,,,,,,,,,,,,,,,,,,,,,,,,,,,,,,,,,,,,,,,,,,314.570890726638,314.570890726638,314.570890726638,314.570890726638,314.570890726638,314.570890726638,l,1,0.5356827598297969,315.13750883657485,316.1540792246815,,,,,,,,,,,,,,,,,,,,,,,,,,,,,,,,,,,,,,,,862978,2023-05-16_15h01.49.206,eb_02psyexp,2022.2.4,60.00615824349793,
107,0,107,0,,,,,,,,,,,,,,,,,,,,,,,,,,,,,,,,,,,,,,,,,,,,,,,,,,,,,,,,,,,316.1540792246815,316.1540792246815,316.1540792246815,316.1540792246815,316.1540792246815,316.1540792246815,l,1,0.6165274310624227,316.787381246686,317.80395072931424,,,,,,,,,,,,,,,,,,,,,,,,,,,,,,,,,,,,,,,,862978,2023-05-16_15h01.49.206,eb_02psyexp,2022.2.4,60.00615824349793,
108,0,108,0,,,,,,,,,,,,,,,,,,,,,,,,,,,,,,,,,,,,,,,,,,,,,,,,,,,,,,,,,,,317.80395072931424,317.80395072931424,317.80395072931424,317.80395072931424,317.80395072931424,317.80395072931424,l,1,0.5506832518149167,318.38725905970205,319.40386597113684,,,,,,,,,,,,,,,,,,,,,,,,,,,,,,,,,,,,,,,,862978,2023-05-16_15h01.49.206,eb_02psyexp,2022.2.4,60.00615824349793,
109,0,109,0,,,,,,,,,,,,,,,,,,,,,,,,,,,,,,,,,,,,,,,,,,,,,,,,,,,,,,,,,,,319.40386597113684,319.40386597113684,319.40386597113684,319.40386597113684,319.40386597113684,319.40386597113684,s,1,0.5507653537206352,319.9871465319302,321.0203820875613,,,,,,,,,,,,,,,,,,,,,,,,,,,,,,,,,,,,,,,,862978,2023-05-16_15h01.49.206,eb_02psyexp,2022.2.4,60.00615824349793,
110,0,110,0,,,,,,,,,,,,,,,,,,,,,,,,,,,,,,,,,,,,,,,,,,,,,,,,,,,,,,,,,,,321.0203820875613,321.0203820875613,321.0203820875613,321.0203820875613,321.0203820875613,321.0203820875613,s,1,1.486223635962233,322.53692108381074,323.5535186380148,,,,,,,,,,,,,,,,,,,,,,,,,,,,,,,,,,,,,,,,862978,2023-05-16_15h01.49.206,eb_02psyexp,2022.2.4,60.00615824349793,
111,0,111,0,,,,,,,,,,,,,,,,,,,,,,,,,,,,,,,,,,,,,,,,,,,,,,,,,,,,,,,,,,,323.5535186380148,323.5535186380148,323.5535186380148,323.5535186380148,323.5535186380148,323.5535186380148,l,0,0.43310464080423117,324.00345642783213,325.0200702815782,,,,,,,,,,,,,,,,,,,,,,,,,,,,,,,,,,,,,,,,862978,2023-05-16_15h01.49.206,eb_02psyexp,2022.2.4,60.00615824349793,
112,0,112,0,,,,,,,,,,,,,,,,,,,,,,,,,,,,,,,,,,,,,,,,,,,,,,,,,,,,,,,,,,,325.0200702815782,325.0200702815782,325.0200702815782,325.0200702815782,325.0200702815782,325.0200702815782,l,1,0.590568755986169,325.63670381577685,326.65328265563585,,,,,,,,,,,,,,,,,,,,,,,,,,,,,,,,,,,,,,,,862978,2023-05-16_15h01.49.206,eb_02psyexp,2022.2.4,60.00615824349793,
113,0,113,0,,,,,,,,,,,,,,,,,,,,,,,,,,,,,,,,,,,,,,,,,,,,,,,,,,,,,,,,,,,326.65328265563585,326.65328265563585,326.65328265563585,326.65328265563585,326.65328265563585,326.65328265563585,l,1,1.2603855782654136,327.9365156455897,328.96976538794115,,,,,,,,,,,,,,,,,,,,,,,,,,,,,,,,,,,,,,,,862978,2023-05-16_15h01.49.206,eb_02psyexp,2022.2.4,60.00615824349793,
114,0,114,0,,,,,,,,,,,,,,,,,,,,,,,,,,,,,,,,,,,,,,,,,,,,,,,,,,,,,,,,,,,328.96976538794115,328.96976538794115,328.96976538794115,328.96976538794115,328.96976538794115,328.96976538794115,s,1,0.5039120583096519,329.5030622181948,330.5196766756708,,,,,,,,,,,,,,,,,,,,,,,,,,,,,,,,,,,,,,,,862978,2023-05-16_15h01.49.206,eb_02psyexp,2022.2.4,60.00615824349793,
115,0,115,0,,,,,,,,,,,,,,,,,,,,,,,,,,,,,,,,,,,,,,,,,,,,,,,,,,,,,,,,,,,330.5196766756708,330.5196766756708,330.5196766756708,330.5196766756708,330.5196766756708,330.5196766756708,s,1,0.5620178356766701,331.10295180324465,332.13620184746105,,,,,,,,,,,,,,,,,,,,,,,,,,,,,,,,,,,,,,,,862978,2023-05-16_15h01.49.206,eb_02psyexp,2022.2.4,60.00615824349793,
116,0,116,0,,,,,,,,,,,,,,,,,,,,,,,,,,,,,,,,,,,,,,,,,,,,,,,,,,,,,,,,,,,332.13620184746105,332.13620184746105,332.13620184746105,332.13620184746105,332.13620184746105,332.13620184746105,l,1,0.6335436443332583,332.80281699926127,333.81940247968305,,,,,,,,,,,,,,,,,,,,,,,,,,,,,,,,,,,,,,,,862978,2023-05-16_15h01.49.206,eb_02psyexp,2022.2.4,60.00615824349793,
117,0,117,0,,,,,,,,,,,,,,,,,,,,,,,,,,,,,,,,,,,,,,,,,,,,,,,,,,,,,,,,,,,333.81940247968305,333.81940247968305,333.81940247968305,333.81940247968305,333.81940247968305,333.81940247968305,l,1,0.6462996164336801,334.4860182350967,335.50261216715444,,,,,,,,,,,,,,,,,,,,,,,,,,,,,,,,,,,,,,,,862978,2023-05-16_15h01.49.206,eb_02psyexp,2022.2.4,60.00615824349793,
118,0,118,0,,,,,,,,,,,,,,,,,,,,,,,,,,,,,,,,,,,,,,,,,,,,,,,,,,,,,,,,,,,335.50261216715444,335.50261216715444,335.50261216715444,335.50261216715444,335.50261216715444,335.50261216715444,l,1,0.5070826387964189,336.0358821331756,337.06914274196606,,,,,,,,,,,,,,,,,,,,,,,,,,,,,,,,,,,,,,,,862978,2023-05-16_15h01.49.206,eb_02psyexp,2022.2.4,60.00615824349793,
119,0,119,0,,,,,,,,,,,,,,,,,,,,,,,,,,,,,,,,,,,,,,,,,,,,,,,,,,,,,,,,,,,337.06914274196606,337.06914274196606,337.06914274196606,337.06914274196606,337.06914274196606,337.06914274196606,s,1,0.5245818041730672,337.61910655070096,338.65235297277104,,,,,,,,,,,,,,,,,,,,,,,,,,,,,,,,,,,,,,,,862978,2023-05-16_15h01.49.206,eb_02psyexp,2022.2.4,60.00615824349793,
120,0,120,0,,,,,,,,,,,,,,,,,,,,,,,,,,,,,,,,,,,,,,,,,,,,,,,,,,,,,,,,,,,338.65235297277104,338.65235297277104,338.65235297277104,338.65235297277104,338.65235297277104,338.65235297277104,l,1,0.6133939775172621,339.2856414116686,340.31889175774995,,,,,,,,,,,,,,,,,,,,,,,,,,,,,,,,,,,,,,,,862978,2023-05-16_15h01.49.206,eb_02psyexp,2022.2.4,60.00615824349793,
121,0,121,0,,,,,,,,,,,,,,,,,,,,,,,,,,,,,,,,,,,,,,,,,,,,,,,,,,,,,,,,,,,340.31889175774995,340.31889175774995,340.31889175774995,340.31889175774995,340.31889175774995,340.31889175774995,s,1,2.1138693834654987,342.45206368446816,343.4686711996328,,,,,,,,,,,,,,,,,,,,,,,,,,,,,,,,,,,,,,,,862978,2023-05-16_15h01.49.206,eb_02psyexp,2022.2.4,60.00615824349793,
122,0,122,0,,,,,,,,,,,,,,,,,,,,,,,,,,,,,,,,,,,,,,,,,,,,,,,,,,,,,,,,,,,343.4686711996328,343.4686711996328,343.4686711996328,343.4686711996328,343.4686711996328,343.4686711996328,l,1,0.5161132392240688,344.0019402600592,345.0185372105334,,,,,,,,,,,,,,,,,,,,,,,,,,,,,,,,,,,,,,,,862978,2023-05-16_15h01.49.206,eb_02psyexp,2022.2.4,60.00615824349793,
123,0,123,0,,,,,,,,,,,,,,,,,,,,,,,,,,,,,,,,,,,,,,,,,,,,,,,,,,,,,,,,,,,345.0185372105334,345.0185372105334,345.0185372105334,345.0185372105334,345.0185372105334,345.0185372105334,l,1,0.4782380231190473,345.5185166851152,346.55176854040474,,,,,,,,,,,,,,,,,,,,,,,,,,,,,,,,,,,,,,,,862978,2023-05-16_15h01.49.206,eb_02psyexp,2022.2.4,60.00615824349793,
124,0,124,0,,,,,,,,,,,,,,,,,,,,,,,,,,,,,,,,,,,,,,,,,,,,,,,,,,,,,,,,,,,346.55176854040474,346.55176854040474,346.55176854040474,346.55176854040474,346.55176854040474,346.55176854040474,s,1,0.6409557515289634,347.21838037192356,348.23495015630033,,,,,,,,,,,,,,,,,,,,,,,,,,,,,,,,,,,,,,,,862978,2023-05-16_15h01.49.206,eb_02psyexp,2022.2.4,60.00615824349793,
125,0,125,0,,,,,,,,,,,,,,,,,,,,,,,,,,,,,,,,,,,,,,,,,,,,,,,,,,,,,,,,,,,348.23495015630033,348.23495015630033,348.23495015630033,348.23495015630033,348.23495015630033,348.23495015630033,l,1,0.789913269225508,349.0515702281846,350.08481544291135,,,,,,,,,,,,,,,,,,,,,,,,,,,,,,,,,,,,,,,,862978,2023-05-16_15h01.49.206,eb_02psyexp,2022.2.4,60.00615824349793,
126,0,126,0,,,,,,,,,,,,,,,,,,,,,,,,,,,,,,,,,,,,,,,,,,,,,,,,,,,,,,,,,,,350.08481544291135,350.08481544291135,350.08481544291135,350.08481544291135,350.08481544291135,350.08481544291135,l,1,0.8919691963819787,351.0014201810118,352.01799781341106,,,,,,,,,,,,,,,,,,,,,,,,,,,,,,,,,,,,,,,,862978,2023-05-16_15h01.49.206,eb_02psyexp,2022.2.4,60.00615824349793,
127,0,127,0,,,,,,,,,,,,,,,,,,,,,,,,,,,,,,,,,,,,,,,,,,,,,,,,,,,,,,,,,,,352.01799781341106,352.01799781341106,352.01799781341106,352.01799781341106,352.01799781341106,352.01799781341106,l,1,0.5508042917354032,352.6013010125607,353.6345543770585,,,,,,,,,,,,,,,,,,,,,,,,,,,,,,,,,,,,,,,,862978,2023-05-16_15h01.49.206,eb_02psyexp,2022.2.4,60.00615824349793,
128,0,128,0,,,,,,,,,,,,,,,,,,,,,,,,,,,,,,,,,,,,,,,,,,,,,,,,,,,,,,,,,,,353.6345543770585,353.6345543770585,353.6345543770585,353.6345543770585,353.6345543770585,353.6345543770585,l,1,0.806247916421853,354.4677988673793,355.5010866422672,,,,,,,,,,,,,,,,,,,,,,,,,,,,,,,,,,,,,,,,862978,2023-05-16_15h01.49.206,eb_02psyexp,2022.2.4,60.00615824349793,
129,0,129,0,,,,,,,,,,,,,,,,,,,,,,,,,,,,,,,,,,,,,,,,,,,,,,,,,,,,,,,,,,,355.5010866422672,355.5010866422672,355.5010866422672,355.5010866422672,355.5010866422672,355.5010866422672,s,1,0.579730405472219,356.1010290501872,357.1176033623051,,,,,,,,,,,,,,,,,,,,,,,,,,,,,,,,,,,,,,,,862978,2023-05-16_15h01.49.206,eb_02psyexp,2022.2.4,60.00615824349793,
130,0,130,0,,,,,,,,,,,,,,,,,,,,,,,,,,,,,,,,,,,,,,,,,,,,,,,,,,,,,,,,,,,357.1176033623051,357.1176033623051,357.1176033623051,357.1176033623051,357.1176033623051,357.1176033623051,l,1,0.5382605165941641,357.6842066817917,358.7174410300795,,,,,,,,,,,,,,,,,,,,,,,,,,,,,,,,,,,,,,,,862978,2023-05-16_15h01.49.206,eb_02psyexp,2022.2.4,60.00615824349793,
131,0,131,0,,,,,,,,,,,,,,,,,,,,,,,,,,,,,,,,,,,,,,,,,,,,,,,,,,,,,,,,,,,358.7174410300795,358.7174410300795,358.7174410300795,358.7174410300795,358.7174410300795,358.7174410300795,s,1,0.8584242494544014,359.6007670486579,360.6173217409523,,,,,,,,,,,,,,,,,,,,,,,,,,,,,,,,,,,,,,,,862978,2023-05-16_15h01.49.206,eb_02psyexp,2022.2.4,60.00615824349793,
132,0,132,0,,,,,,,,,,,,,,,,,,,,,,,,,,,,,,,,,,,,,,,,,,,,,,,,,,,,,,,,,,,360.6173217409523,360.6173217409523,360.6173217409523,360.6173217409523,360.6173217409523,360.6173217409523,l,1,0.5745317280525342,361.2172982573975,362.2505428683944,,,,,,,,,,,,,,,,,,,,,,,,,,,,,,,,,,,,,,,,862978,2023-05-16_15h01.49.206,eb_02psyexp,2022.2.4,60.00615824349793,
133,0,133,0,,,,,,,,,,,,,,,,,,,,,,,,,,,,,,,,,,,,,,,,,,,,,,,,,,,,,,,,,,,362.2505428683944,362.2505428683944,362.2505428683944,362.2505428683944,362.2505428683944,362.2505428683944,l,1,0.509309651562944,362.7838255118113,363.80042940482963,,,,,,,,,,,,,,,,,,,,,,,,,,,,,,,,,,,,,,,,862978,2023-05-16_15h01.49.206,eb_02psyexp,2022.2.4,60.00615824349793,
134,0,134,0,,,,,,,,,,,,,,,,,,,,,,,,,,,,,,,,,,,,,,,,,,,,,,,,,,,,,,,,,,,363.80042940482963,363.80042940482963,363.80042940482963,363.80042940482963,363.80042940482963,363.80042940482963,l,1,0.4314082716591656,364.25038409791887,365.26698980189394,,,,,,,,,,,,,,,,,,,,,,,,,,,,,,,,,,,,,,,,862978,2023-05-16_15h01.49.206,eb_02psyexp,2022.2.4,60.00615824349793,
135,0,135,0,,,,,,,,,,,,,,,,,,,,,,,,,,,,,,,,,,,,,,,,,,,,,,,,,,,,,,,,,,,365.26698980189394,365.26698980189394,365.26698980189394,365.26698980189394,365.26698980189394,365.26698980189394,l,1,0.49286301992833614,365.7836000336101,366.8168703013798,,,,,,,,,,,,,,,,,,,,,,,,,,,,,,,,,,,,,,,,862978,2023-05-16_15h01.49.206,eb_02psyexp,2022.2.4,60.00615824349793,
136,0,136,0,,,,,,,,,,,,,,,,,,,,,,,,,,,,,,,,,,,,,,,,,,,,,,,,,,,,,,,,,,,366.8168703013798,366.8168703013798,366.8168703013798,366.8168703013798,366.8168703013798,366.8168703013798,l,1,0.6310002978425473,367.46680338238366,368.48341270850506,,,,,,,,,,,,,,,,,,,,,,,,,,,,,,,,,,,,,,,,862978,2023-05-16_15h01.49.206,eb_02psyexp,2022.2.4,60.00615824349793,
137,0,137,0,,,,,,,,,,,,,,,,,,,,,,,,,,,,,,,,,,,,,,,,,,,,,,,,,,,,,,,,,,,368.48341270850506,368.48341270850506,368.48341270850506,368.48341270850506,368.48341270850506,368.48341270850506,l,1,1.3084867012221366,369.8166541804094,370.84988460468594,,,,,,,,,,,,,,,,,,,,,,,,,,,,,,,,,,,,,,,,862978,2023-05-16_15h01.49.206,eb_02psyexp,2022.2.4,60.00615824349793,
138,0,138,0,,,,,,,,,,,,,,,,,,,,,,,,,,,,,,,,,,,,,,,,,,,,,,,,,,,,,,,,,,,370.84988460468594,370.84988460468594,370.84988460468594,370.84988460468594,370.84988460468594,370.84988460468594,s,1,1.0140606928616762,371.8831545707071,372.9163877115352,,,,,,,,,,,,,,,,,,,,,,,,,,,,,,,,,,,,,,,,862978,2023-05-16_15h01.49.206,eb_02psyexp,2022.2.4,60.00615824349793,
139,0,139,0,,,,,,,,,,,,,,,,,,,,,,,,,,,,,,,,,,,,,,,,,,,,,,,,,,,,,,,,,,,372.9163877115352,372.9163877115352,372.9163877115352,372.9163877115352,372.9163877115352,372.9163877115352,l,1,0.514571112813428,373.4497129152296,374.46628209599294,,,,,,,,,,,,,,,,,,,,,,,,,,,,,,,,,,,,,,,,862978,2023-05-16_15h01.49.206,eb_02psyexp,2022.2.4,60.00615824349793,
140,0,140,0,,,,,,,,,,,,,,,,,,,,,,,,,,,,,,,,,,,,,,,,,,,,,,,,,,,,,,,,,,,374.46628209599294,374.46628209599294,374.46628209599294,374.46628209599294,374.46628209599294,374.46628209599294,s,1,0.5086576662724838,374.9995813409332,376.0328202168457,,,,,,,,,,,,,,,,,,,,,,,,,,,,,,,,,,,,,,,,862978,2023-05-16_15h01.49.206,eb_02psyexp,2022.2.4,60.00615824349793,
141,0,141,0,,,,,,,,,,,,,,,,,,,,,,,,,,,,,,,,,,,,,,,,,,,,,,,,,,,,,,,,,,,376.0328202168457,376.0328202168457,376.0328202168457,376.0328202168457,376.0328202168457,376.0328202168457,s,1,0.9261320199584588,376.98277038231026,377.9990159851732,,,,,,,,,,,,,,,,,,,,,,,,,,,,,,,,,,,,,,,,862978,2023-05-16_15h01.49.206,eb_02psyexp,2022.2.4,60.00615824349793,
142,0,142,0,,,,,,,,,,,,,,,,,,,,,,,,,,,,,,,,,,,,,,,,,,,,,,,,,,,,,,,,,,,377.9990159851732,377.9990159851732,377.9990159851732,377.9990159851732,377.9990159851732,377.9990159851732,s,1,0.59993983770255,378.61596675845794,379.6491983900778,,,,,,,,,,,,,,,,,,,,,,,,,,,,,,,,,,,,,,,,862978,2023-05-16_15h01.49.206,eb_02psyexp,2022.2.4,60.00615824349793,
143,0,143,0,,,,,,,,,,,,,,,,,,,,,,,,,,,,,,,,,,,,,,,,,,,,,,,,,,,,,,,,,,,379.6491983900778,379.6491983900778,379.6491983900778,379.6491983900778,379.6491983900778,379.6491983900778,l,1,0.6297606201842427,380.2991737293778,381.3324065684574,,,,,,,,,,,,,,,,,,,,,,,,,,,,,,,,,,,,,,,,862978,2023-05-16_15h01.49.206,eb_02psyexp,2022.2.4,60.00615824349793,
144,0,144,0,,,,,,,,,,,,,,,,,,,,,,,,,,,,,,,,,,,,,,,,,,,,,,,,,,,,,,,,,,,381.3324065684574,381.3324065684574,381.3324065684574,381.3324065684574,381.3324065684574,381.3324065684574,s,1,0.4505515870405361,381.81568827619776,382.8323151093209,,,,,,,,,,,,,,,,,,,,,,,,,,,,,,,,,,,,,,,,862978,2023-05-16_15h01.49.206,eb_02psyexp,2022.2.4,60.00615824349793,
145,0,145,0,,,,,,,,,,,,,,,,,,,,,,,,,,,,,,,,,,,,,,,,,,,,,,,,,,,,,,,,,,,382.8323151093209,382.8323151093209,382.8323151093209,382.8323151093209,382.8323151093209,382.8323151093209,l,1,0.4226580852409825,383.2822882150067,384.29886886582244,,,,,,,,,,,,,,,,,,,,,,,,,,,,,,,,,,,,,,,,862978,2023-05-16_15h01.49.206,eb_02psyexp,2022.2.4,60.00615824349793,
146,0,146,0,,,,,,,,,,,,,,,,,,,,,,,,,,,,,,,,,,,,,,,,,,,,,,,,,,,,,,,,,,,384.29886886582244,384.29886886582244,384.29886886582244,384.29886886582244,384.29886886582244,384.29886886582244,l,1,0.6441175785148516,384.9655000154162,385.98204384127166,,,,,,,,,,,,,,,,,,,,,,,,,,,,,,,,,,,,,,,,862978,2023-05-16_15h01.49.206,eb_02psyexp,2022.2.4,60.00615824349793,
147,0,147,0,,,,,,,,,,,,,,,,,,,,,,,,,,,,,,,,,,,,,,,,,,,,,,,,,,,,,,,,,,,385.98204384127166,385.98204384127166,385.98204384127166,385.98204384127166,385.98204384127166,385.98204384127166,l,1,0.5529286772944033,386.56539231713396,387.5986001030542,,,,,,,,,,,,,,,,,,,,,,,,,,,,,,,,,,,,,,,,862978,2023-05-16_15h01.49.206,eb_02psyexp,2022.2.4,60.00615824349793,
148,0,148,0,,,,,,,,,,,,,,,,,,,,,,,,,,,,,,,,,,,,,,,,,,,,,,,,,,,,,,,,,,,387.5986001030542,387.5986001030542,387.5986001030542,387.5986001030542,387.5986001030542,387.5986001030542,s,1,0.7835081170778722,388.41522953205276,389.44844908989035,,,,,,,,,,,,,,,,,,,,,,,,,,,,,,,,,,,,,,,,862978,2023-05-16_15h01.49.206,eb_02psyexp,2022.2.4,60.00615824349793,
149,0,149,0,,,,,,,,,,,,,,,,,,,,,,,,,,,,,,,,,,,,,,,,,,,,,,,,,,,,,,,,,,,389.44844908989035,389.44844908989035,389.44844908989035,389.44844908989035,389.44844908989035,389.44844908989035,l,1,0.501614413689822,389.9817679548869,390.9983636980178,,,,,,,,,,,,,,,,,,,,,,,,,,,,,,,,,,,,,,,,862978,2023-05-16_15h01.49.206,eb_02psyexp,2022.2.4,60.00615824349793,
150,0,150,0,,,,,,,,,,,,,,,,,,,,,,,,,,,,,,,,,,,,,,,,,,,,,,,,,,,,,,,,,,,390.9983636980178,390.9983636980178,390.9983636980178,390.9983636980178,390.9983636980178,390.9983636980178,l,1,1.05565826210659,392.08160984842107,393.09819653618615,,,,,,,,,,,,,,,,,,,,,,,,,,,,,,,,,,,,,,,,862978,2023-05-16_15h01.49.206,eb_02psyexp,2022.2.4,60.00615824349793,
151,0,151,0,,,,,,,,,,,,,,,,,,,,,,,,,,,,,,,,,,,,,,,,,,,,,,,,,,,,,,,,,,,393.09819653618615,393.09819653618615,393.09819653618615,393.09819653618615,393.09819653618615,393.09819653618615,l,1,0.7318425059784204,393.84812847012654,394.8647341741016,,,,,,,,,,,,,,,,,,,,,,,,,,,,,,,,,,,,,,,,862978,2023-05-16_15h01.49.206,eb_02psyexp,2022.2.4,60.00615824349793,
152,0,152,0,,,,,,,,,,,,,,,,,,,,,,,,,,,,,,,,,,,,,,,,,,,,,,,,,,,,,,,,,,,394.8647341741016,394.8647341741016,394.8647341741016,394.8647341741016,394.8647341741016,394.8647341741016,l,1,0.4933248428860679,395.38136070547625,396.41462765296455,,,,,,,,,,,,,,,,,,,,,,,,,,,,,,,,,,,,,,,,862978,2023-05-16_15h01.49.206,eb_02psyexp,2022.2.4,60.00615824349793,
153,0,153,0,,,,,,,,,,,,,,,,,,,,,,,,,,,,,,,,,,,,,,,,,,,,,,,,,,,,,,,,,,,396.41462765296455,396.41462765296455,396.41462765296455,396.41462765296455,396.41462765296455,396.41462765296455,l,1,0.5594189497642219,396.9979036861332,398.0144659244688,,,,,,,,,,,,,,,,,,,,,,,,,,,,,,,,,,,,,,,,862978,2023-05-16_15h01.49.206,eb_02psyexp,2022.2.4,60.00615824349793,
154,0,154,0,,,,,,,,,,,,,,,,,,,,,,,,,,,,,,,,,,,,,,,,,,,,,,,,,,,,,,,,,,,398.0144659244688,398.0144659244688,398.0144659244688,398.0144659244688,398.0144659244688,398.0144659244688,l,1,0.479605381260626,398.5144668299472,399.5477099317359,,,,,,,,,,,,,,,,,,,,,,,,,,,,,,,,,,,,,,,,862978,2023-05-16_15h01.49.206,eb_02psyexp,2022.2.4,60.00615824349793,
155,0,155,0,,,,,,,,,,,,,,,,,,,,,,,,,,,,,,,,,,,,,,,,,,,,,,,,,,,,,,,,,,,399.5477099317359,399.5477099317359,399.5477099317359,399.5477099317359,399.5477099317359,399.5477099317359,l,1,0.4743873857660219,400.04766254208516,401.06424681516364,,,,,,,,,,,,,,,,,,,,,,,,,,,,,,,,,,,,,,,,862978,2023-05-16_15h01.49.206,eb_02psyexp,2022.2.4,60.00615824349793,
156,0,156,0,,,,,,,,,,,,,,,,,,,,,,,,,,,,,,,,,,,,,,,,,,,,,,,,,,,,,,,,,,,401.06424681516364,401.06424681516364,401.06424681516364,401.06424681516364,401.06424681516364,401.06424681516364,s,1,0.5977867769543082,401.68087250122335,402.71409658680204,,,,,,,,,,,,,,,,,,,,,,,,,,,,,,,,,,,,,,,,862978,2023-05-16_15h01.49.206,eb_02psyexp,2022.2.4,60.00615824349793,
157,0,157,0,,,,,,,,,,,,,,,,,,,,,,,,,,,,,,,,,,,,,,,,,,,,,,,,,,,,,,,,,,,402.71409658680204,402.71409658680204,402.71409658680204,402.71409658680204,402.71409658680204,402.71409658680204,s,1,0.5479932087473571,403.28074488113634,404.2973367003724,,,,,,,,,,,,,,,,,,,,,,,,,,,,,,,,,,,,,,,,862978,2023-05-16_15h01.49.206,eb_02psyexp,2022.2.4,60.00615824349793,
158,0,158,0,,,,,,,,,,,,,,,,,,,,,,,,,,,,,,,,,,,,,,,,,,,,,,,,,,,,,,,,,,,404.2973367003724,404.2973367003724,404.2973367003724,404.2973367003724,404.2973367003724,404.2973367003724,s,1,0.5237496173940599,404.84727968182415,405.8638977614464,,,,,,,,,,,,,,,,,,,,,,,,,,,,,,,,,,,,,,,,862978,2023-05-16_15h01.49.206,eb_02psyexp,2022.2.4,60.00615824349793,
159,0,159,0,,,,,,,,,,,,,,,,,,,,,,,,,,,,,,,,,,,,,,,,,,,,,,,,,,,,,,,,,,,405.8638977614464,405.8638977614464,405.8638977614464,405.8638977614464,405.8638977614464,405.8638977614464,s,0,0.5971933495020494,406.4805050351424,407.497105305898,,,,,,,,,,,,,,,,,,,,,,,,,,,,,,,,,,,,,,,,862978,2023-05-16_15h01.49.206,eb_02psyexp,2022.2.4,60.00615824349793,
160,0,160,0,,,,,,,,,,,,,,,,,,,,,,,,,,,,,,,,,,,,,,,,,,,,,,,,,,,,,,,,,,,407.497105305898,407.497105305898,407.497105305898,407.497105305898,407.497105305898,407.497105305898,l,1,0.5480212803231552,408.06372462317813,409.0803176496411,,,,,,,,,,,,,,,,,,,,,,,,,,,,,,,,,,,,,,,,862978,2023-05-16_15h01.49.206,eb_02psyexp,2022.2.4,60.00615824349793,
161,0,161,0,,,,,,,,,,,,,,,,,,,,,,,,,,,,,,,,,,,,,,,,,,,,,,,,,,,,,,,,,,,409.0803176496411,409.0803176496411,409.0803176496411,409.0803176496411,409.0803176496411,409.0803176496411,s,1,0.6527654393576086,409.76355631439947,410.7801885807421,,,,,,,,,,,,,,,,,,,,,,,,,,,,,,,,,,,,,,,,862978,2023-05-16_15h01.49.206,eb_02psyexp,2022.2.4,60.00615824349793,
162,0,162,0,,,,,,,,,,,,,,,,,,,,,,,,,,,,,,,,,,,,,,,,,,,,,,,,,,,,,,,,,,,410.7801885807421,410.7801885807421,410.7801885807421,410.7801885807421,410.7801885807421,410.7801885807421,l,1,0.4329703198745847,411.2301538384054,412.24674233724363,,,,,,,,,,,,,,,,,,,,,,,,,,,,,,,,,,,,,,,,862978,2023-05-16_15h01.49.206,eb_02psyexp,2022.2.4,60.00615824349793,
163,0,163,0,,,,,,,,,,,,,,,,,,,,,,,,,,,,,,,,,,,,,,,,,,,,,,,,,,,,,,,,,,,412.24674233724363,412.24674233724363,412.24674233724363,412.24674233724363,412.24674233724363,412.24674233724363,s,1,0.7023860503686592,412.98000910365954,413.9965861324454,,,,,,,,,,,,,,,,,,,,,,,,,,,,,,,,,,,,,,,,862978,2023-05-16_15h01.49.206,eb_02psyexp,2022.2.4,60.00615824349793,
164,0,164,0,,,,,,,,,,,,,,,,,,,,,,,,,,,,,,,,,,,,,,,,,,,,,,,,,,,,,,,,,,,413.9965861324454,413.9965861324454,413.9965861324454,413.9965861324454,413.9965861324454,413.9965861324454,l,1,0.5605804495280609,414.5798775595613,415.59649986505974,,,,,,,,,,,,,,,,,,,,,,,,,,,,,,,,,,,,,,,,862978,2023-05-16_15h01.49.206,eb_02psyexp,2022.2.4,60.00615824349793,
165,0,165,0,,,,,,,,,,,,,,,,,,,,,,,,,,,,,,,,,,,,,,,,,,,,,,,,,,,,,,,,,,,415.59649986505974,415.59649986505974,415.59649986505974,415.59649986505974,415.59649986505974,415.59649986505974,l,1,0.544672611169517,416.16307752777357,417.1796814206755,,,,,,,,,,,,,,,,,,,,,,,,,,,,,,,,,,,,,,,,862978,2023-05-16_15h01.49.206,eb_02psyexp,2022.2.4,60.00615824349793,
166,0,166,0,,,,,,,,,,,,,,,,,,,,,,,,,,,,,,,,,,,,,,,,,,,,,,,,,,,,,,,,,,,417.1796814206755,417.1796814206755,417.1796814206755,417.1796814206755,417.1796814206755,417.1796814206755,s,1,0.6894860981265083,417.89630595978815,418.9128863088554,,,,,,,,,,,,,,,,,,,,,,,,,,,,,,,,,,,,,,,,862978,2023-05-16_15h01.49.206,eb_02psyexp,2022.2.4,60.00615824349793,
167,0,167,0,,,,,,,,,,,,,,,,,,,,,,,,,,,,,,,,,,,,,,,,,,,,,,,,,,,,,,,,,,,418.9128863088554,418.9128863088554,418.9128863088554,418.9128863088554,418.9128863088554,418.9128863088554,l,1,0.5553485690616071,419.4961777360877,420.5127758939052,,,,,,,,,,,,,,,,,,,,,,,,,,,,,,,,,,,,,,,,862978,2023-05-16_15h01.49.206,eb_02psyexp,2022.2.4,60.00615824349793,
168,0,168,0,,,,,,,,,,,,,,,,,,,,,,,,,,,,,,,,,,,,,,,,,,,,,,,,,,,,,,,,,,,420.5127758939052,420.5127758939052,420.5127758939052,420.5127758939052,420.5127758939052,420.5127758939052,s,1,0.6114250421524048,421.14605588116683,422.17928449448664,,,,,,,,,,,,,,,,,,,,,,,,,,,,,,,,,,,,,,,,862978,2023-05-16_15h01.49.206,eb_02psyexp,2022.2.4,60.00615824349793,
169,0,169,0,,,,,,,,,,,,,,,,,,,,,,,,,,,,,,,,,,,,,,,,,,,,,,,,,,,,,,,,,,,422.17928449448664,422.17928449448664,422.17928449448664,422.17928449448664,422.17928449448664,422.17928449448664,s,1,0.6569293920183554,422.86258533922955,423.8791841007769,,,,,,,,,,,,,,,,,,,,,,,,,,,,,,,,,,,,,,,,862978,2023-05-16_15h01.49.206,eb_02psyexp,2022.2.4,60.00615824349793,
170,0,170,0,,,,,,,,,,,,,,,,,,,,,,,,,,,,,,,,,,,,,,,,,,,,,,,,,,,,,,,,,,,423.8791841007769,423.8791841007769,423.8791841007769,423.8791841007769,423.8791841007769,423.8791841007769,s,1,0.693035796051845,424.5957941513043,425.6290523454081,,,,,,,,,,,,,,,,,,,,,,,,,,,,,,,,,,,,,,,,862978,2023-05-16_15h01.49.206,eb_02psyexp,2022.2.4,60.00615824349793,
171,0,171,0,,,,,,,,,,,,,,,,,,,,,,,,,,,,,,,,,,,,,,,,,,,,,,,,,,,,,,,,,,,425.6290523454081,425.6290523454081,425.6290523454081,425.6290523454081,425.6290523454081,425.6290523454081,s,1,0.8311519448179752,426.4789665308781,427.49557555513456,,,,,,,,,,,,,,,,,,,,,,,,,,,,,,,,,,,,,,,,862978,2023-05-16_15h01.49.206,eb_02psyexp,2022.2.4,60.00615824349793,
172,0,172,0,,,,,,,,,,,,,,,,,,,,,,,,,,,,,,,,,,,,,,,,,,,,,,,,,,,,,,,,,,,427.49557555513456,427.49557555513456,427.49557555513456,427.49557555513456,427.49557555513456,427.49557555513456,s,1,0.5646707519190386,428.0788579270011,429.09544461476617,,,,,,,,,,,,,,,,,,,,,,,,,,,,,,,,,,,,,,,,862978,2023-05-16_15h01.49.206,eb_02psyexp,2022.2.4,60.00615824349793,
173,0,173,0,,,,,,,,,,,,,,,,,,,,,,,,,,,,,,,,,,,,,,,,,,,,,,,,,,,,,,,,,,,429.09544461476617,429.09544461476617,429.09544461476617,429.09544461476617,429.09544461476617,429.09544461476617,l,1,0.5088067777687684,429.6287151845172,430.64531394606456,,,,,,,,,,,,,,,,,,,,,,,,,,,,,,,,,,,,,,,,862978,2023-05-16_15h01.49.206,eb_02psyexp,2022.2.4,60.00615824349793,
174,0,174,0,,,,,,,,,,,,,,,,,,,,,,,,,,,,,,,,,,,,,,,,,,,,,,,,,,,,,,,,,,,430.64531394606456,430.64531394606456,430.64531394606456,430.64531394606456,430.64531394606456,430.64531394606456,s,1,0.5348910202737898,431.21194412966724,432.22852779901586,,,,,,,,,,,,,,,,,,,,,,,,,,,,,,,,,,,,,,,,862978,2023-05-16_15h01.49.206,eb_02psyexp,2022.2.4,60.00615824349793,
175,0,175,0,,,,,,,,,,,,,,,,,,,,,,,,,,,,,,,,,,,,,,,,,,,,,,,,,,,,,,,,,,,432.22852779901586,432.22852779901586,432.22852779901586,432.22852779901586,432.22852779901586,432.22852779901586,l,1,0.4876782273640856,432.7451498027658,433.76175188459456,,,,,,,,,,,,,,,,,,,,,,,,,,,,,,,,,,,,,,,,862978,2023-05-16_15h01.49.206,eb_02psyexp,2022.2.4,60.00615824349793,
176,0,176,0,,,,,,,,,,,,,,,,,,,,,,,,,,,,,,,,,,,,,,,,,,,,,,,,,,,,,,,,,,,433.76175188459456,433.76175188459456,433.76175188459456,433.76175188459456,433.76175188459456,433.76175188459456,l,1,0.5856043103849515,434.3783766651759,435.39496848441195,,,,,,,,,,,,,,,,,,,,,,,,,,,,,,,,,,,,,,,,862978,2023-05-16_15h01.49.206,eb_02psyexp,2022.2.4,60.00615824349793,
177,0,177,0,,,,,,,,,,,,,,,,,,,,,,,,,,,,,,,,,,,,,,,,,,,,,,,,,,,,,,,,,,,435.39496848441195,435.39496848441195,435.39496848441195,435.39496848441195,435.39496848441195,435.39496848441195,l,1,0.6243083928711712,436.04490337637253,437.06150817486923,,,,,,,,,,,,,,,,,,,,,,,,,,,,,,,,,,,,,,,,862978,2023-05-16_15h01.49.206,eb_02psyexp,2022.2.4,60.00615824349793,
178,0,178,0,,,,,,,,,,,,,,,,,,,,,,,,,,,,,,,,,,,,,,,,,,,,,,,,,,,,,,,,,,,437.06150817486923,437.06150817486923,437.06150817486923,437.06150817486923,437.06150817486923,437.06150817486923,s,1,0.5257876751711592,437.6114635319682,438.6280592750991,,,,,,,,,,,,,,,,,,,,,,,,,,,,,,,,,,,,,,,,862978,2023-05-16_15h01.49.206,eb_02psyexp,2022.2.4,60.00615824349793,
179,0,179,0,,,,,,,,,,,,,,,,,,,,,,,,,,,,,,,,,,,,,,,,,,,,,,,,,,,,,,,,,,,438.6280592750991,438.6280592750991,438.6280592750991,438.6280592750991,438.6280592750991,438.6280592750991,l,1,0.9752035747515038,439.62796570314094,440.644563257345,,,,,,,,,,,,,,,,,,,,,,,,,,,,,,,,,,,,,,,,862978,2023-05-16_15h01.49.206,eb_02psyexp,2022.2.4,60.00615824349793,
180,0,180,0,,,,,,,,,,,,,,,,,,,,,,,,,,,,,,,,,,,,,,,,,,,,,,,,,,,,,,,,,,,440.644563257345,440.644563257345,440.644563257345,440.644563257345,440.644563257345,440.644563257345,l,1,0.4387349566677585,441.11119368253276,442.1277643725043,,,,,,,,,,,,,,,,,,,,,,,,,,,,,,,,,,,,,,,,862978,2023-05-16_15h01.49.206,eb_02psyexp,2022.2.4,60.00615824349793,
181,0,181,0,,,,,,,,,,,,,,,,,,,,,,,,,,,,,,,,,,,,,,,,,,,,,,,,,,,,,,,,,,,442.1277643725043,442.1277643725043,442.1277643725043,442.1277643725043,442.1277643725043,442.1277643725043,s,1,0.5795483930269256,442.7277260986157,443.74431610666215,,,,,,,,,,,,,,,,,,,,,,,,,,,,,,,,,,,,,,,,862978,2023-05-16_15h01.49.206,eb_02psyexp,2022.2.4,60.00615824349793,
182,0,182,0,,,,,,,,,,,,,,,,,,,,,,,,,,,,,,,,,,,,,,,,,,,,,,,,,,,,,,,,,,,443.74431610666215,443.74431610666215,443.74431610666215,443.74431610666215,443.74431610666215,443.74431610666215,l,1,0.5310267998138443,444.2942938003689,445.3108795825392,,,,,,,,,,,,,,,,,,,,,,,,,,,,,,,,,,,,,,,,862978,2023-05-16_15h01.49.206,eb_02psyexp,2022.2.4,60.00615824349793,
183,0,183,0,,,,,,,,,,,,,,,,,,,,,,,,,,,,,,,,,,,,,,,,,,,,,,,,,,,,,,,,,,,445.3108795825392,445.3108795825392,445.3108795825392,445.3108795825392,445.3108795825392,445.3108795825392,s,1,0.6204429650679231,445.96082292625215,446.9774138398934,,,,,,,,,,,,,,,,,,,,,,,,,,,,,,,,,,,,,,,,862978,2023-05-16_15h01.49.206,eb_02psyexp,2022.2.4,60.00615824349793,
184,0,184,0,,,,,,,,,,,,,,,,,,,,,,,,,,,,,,,,,,,,,,,,,,,,,,,,,,,,,,,,,,,446.9774138398934,446.9774138398934,446.9774138398934,446.9774138398934,446.9774138398934,446.9774138398934,l,1,0.6019292984856293,447.61071978579275,448.62726270605344,,,,,,,,,,,,,,,,,,,,,,,,,,,,,,,,,,,,,,,,862978,2023-05-16_15h01.49.206,eb_02psyexp,2022.2.4,60.00615824349793,
185,0,185,0,,,,,,,,,,,,,,,,,,,,,,,,,,,,,,,,,,,,,,,,,,,,,,,,,,,,,,,,,,,448.62726270605344,448.62726270605344,448.62726270605344,448.62726270605344,448.62726270605344,448.62726270605344,s,1,1.3441143790259957,449.993839040515,451.01045651652385,,,,,,,,,,,,,,,,,,,,,,,,,,,,,,,,,,,,,,,,862978,2023-05-16_15h01.49.206,eb_02psyexp,2022.2.4,60.00615824349793,
186,0,186,0,,,,,,,,,,,,,,,,,,,,,,,,,,,,,,,,,,,,,,,,,,,,,,,,,,,,,,,,,,,451.01045651652385,451.01045651652385,451.01045651652385,451.01045651652385,451.01045651652385,451.01045651652385,l,1,0.5439542200183496,451.57706104335375,452.59364350535907,,,,,,,,,,,,,,,,,,,,,,,,,,,,,,,,,,,,,,,,862978,2023-05-16_15h01.49.206,eb_02psyexp,2022.2.4,60.00615824349793,
187,0,187,0,,,,,,,,,,,,,,,,,,,,,,,,,,,,,,,,,,,,,,,,,,,,,,,,,,,,,,,,,,,452.59364350535907,452.59364350535907,452.59364350535907,452.59364350535907,452.59364350535907,452.59364350535907,s,1,0.5127527982695028,453.12693278945517,454.1435366823571,,,,,,,,,,,,,,,,,,,,,,,,,,,,,,,,,,,,,,,,862978,2023-05-16_15h01.49.206,eb_02psyexp,2022.2.4,60.00615824349793,
188,0,188,0,,,,,,,,,,,,,,,,,,,,,,,,,,,,,,,,,,,,,,,,,,,,,,,,,,,,,,,,,,,454.1435366823571,454.1435366823571,454.1435366823571,454.1435366823571,454.1435366823571,454.1435366823571,l,1,0.3868145883316174,454.56014866475016,455.5767516521737,,,,,,,,,,,,,,,,,,,,,,,,,,,,,,,,,,,,,,,,862978,2023-05-16_15h01.49.206,eb_02psyexp,2022.2.4,60.00615824349793,
189,0,189,0,,,,,,,,,,,,,,,,,,,,,,,,,,,,,,,,,,,,,,,,,,,,,,,,,,,,,,,,,,,455.5767516521737,455.5767516521737,455.5767516521737,455.5767516521737,455.5767516521737,455.5767516521737,s,1,0.5216490776510909,456.12669674656354,457.1433042616118,,,,,,,,,,,,,,,,,,,,,,,,,,,,,,,,,,,,,,,,862978,2023-05-16_15h01.49.206,eb_02psyexp,2022.2.4,60.00615824349793,
190,0,190,0,,,,,,,,,,,,,,,,,,,,,,,,,,,,,,,,,,,,,,,,,,,,,,,,,,,,,,,,,,,457.1433042616118,457.1433042616118,457.1433042616118,457.1433042616118,457.1433042616118,457.1433042616118,l,1,0.5550865675322711,457.7265510157449,458.7431847914122,,,,,,,,,,,,,,,,,,,,,,,,,,,,,,,,,,,,,,,,862978,2023-05-16_15h01.49.206,eb_02psyexp,2022.2.4,60.00615824349793,
191,0,191,0,,,,,,,,,,,,,,,,,,,,,,,,,,,,,,,,,,,,,,,,,,,,,,,,,,,,,,,,,,,458.7431847914122,458.7431847914122,458.7431847914122,458.7431847914122,458.7431847914122,458.7431847914122,s,1,0.5552178701618686,459.32646293740254,460.35970875574276,,,,,,,,,,,,,,,,,,,,,,,,,,,,,,,,,,,,,,,,862978,2023-05-16_15h01.49.206,eb_02psyexp,2022.2.4,60.00615824349793,
192,0,192,0,,,,,,,,,,,,,,,,,,,,,,,,,,,,,,,,,,,,,,,,,,,,,,,,,,,,,,,,,,,460.35970875574276,460.35970875574276,460.35970875574276,460.35970875574276,460.35970875574276,460.35970875574276,s,1,0.6106927660293877,460.99300081678666,462.00956365885213,,,,,,,,,,,,,,,,,,,,,,,,,,,,,,,,,,,,,,,,862978,2023-05-16_15h01.49.206,eb_02psyexp,2022.2.4,60.00615824349793,
193,0,193,0,,,,,,,,,,,,,,,,,,,,,,,,,,,,,,,,,,,,,,,,,,,,,,,,,,,,,,,,,,,462.00956365885213,462.00956365885213,462.00956365885213,462.00956365885213,462.00956365885213,462.00956365885213,l,1,0.5848659973125905,462.62620383361354,463.6428050099639,,,,,,,,,,,,,,,,,,,,,,,,,,,,,,,,,,,,,,,,862978,2023-05-16_15h01.49.206,eb_02psyexp,2022.2.4,60.00615824349793,
194,0,194,0,,,,,,,,,,,,,,,,,,,,,,,,,,,,,,,,,,,,,,,,,,,,,,,,,,,,,,,,,,,463.6428050099639,463.6428050099639,463.6428050099639,463.6428050099639,463.6428050099639,463.6428050099639,l,1,0.5356676676310599,464.2094182902947,465.2260152407689,,,,,,,,,,,,,,,,,,,,,,,,,,,,,,,,,,,,,,,,862978,2023-05-16_15h01.49.206,eb_02psyexp,2022.2.4,60.00615824349793,
195,0,195,0,,,,,,,,,,,,,,,,,,,,,,,,,,,,,,,,,,,,,,,,,,,,,,,,,,,,,,,,,,,465.2260152407689,465.2260152407689,465.2260152407689,465.2260152407689,465.2260152407689,465.2260152407689,l,1,0.5444124207133427,465.7926013551187,466.8092333195964,,,,,,,,,,,,,,,,,,,,,,,,,,,,,,,,,,,,,,,,862978,2023-05-16_15h01.49.206,eb_02psyexp,2022.2.4,60.00615824349793,
196,0,196,0,,,,,,,,,,,,,,,,,,,,,,,,,,,,,,,,,,,,,,,,,,,,,,,,,,,,,,,,,,,466.8092333195964,466.8092333195964,466.8092333195964,466.8092333195964,466.8092333195964,466.8092333195964,l,1,0.40020232216920704,467.24250835657585,468.2591200975003,,,,,,,,,,,,,,,,,,,,,,,,,,,,,,,,,,,,,,,,862978,2023-05-16_15h01.49.206,eb_02psyexp,2022.2.4,60.00615824349793,
197,0,197,0,,,,,,,,,,,,,,,,,,,,,,,,,,,,,,,,,,,,,,,,,,,,,,,,,,,,,,,,,,,468.2591200975003,468.2591200975003,468.2591200975003,468.2591200975003,468.2591200975003,468.2591200975003,l,1,0.3903353090863675,468.6757538127713,469.6923519707052,,,,,,,,,,,,,,,,,,,,,,,,,,,,,,,,,,,,,,,,862978,2023-05-16_15h01.49.206,eb_02psyexp,2022.2.4,60.00615824349793,
198,0,198,0,,,,,,,,,,,,,,,,,,,,,,,,,,,,,,,,,,,,,,,,,,,,,,,,,,,,,,,,,,,469.6923519707052,469.6923519707052,469.6923519707052,469.6923519707052,469.6923519707052,469.6923519707052,l,1,0.49312894546892494,470.2089398658136,471.2255549270194,,,,,,,,,,,,,,,,,,,,,,,,,,,,,,,,,,,,,,,,862978,2023-05-16_15h01.49.206,eb_02psyexp,2022.2.4,60.00615824349793,
199,0,199,0,,,,,0,0,0,0,,,,,,,,,,,,,,,,,,,,,,,,,,,,,,,,,,,,,,,,,,,,,,,,,,,471.2255549270194,471.2255549270194,471.2255549270194,471.2255549270194,471.2255549270194,471.2255549270194,s,1,0.5279310769401491,471.7755262820283,472.77544478385244,472.77544478385244,472.77544478385244,space,7.594055971945636,,,,,,,,,,,,,,,,,,,,,,,,,,,,,,,,,,,,862978,2023-05-16_15h01.49.206,eb_02psyexp,2022.2.4,60.00615824349793,
199,0,199,0,,,,,,,,,,,,,,,,,,,,,,,,,,,,,,,,,,,,,,,,,,,,,,,,,,,,,,,,,,,,,,,,,,,,,,,,,,,,,,,,,,,,,,,,,,,,,,,,,,,,,,,,,,,,,862978,2023-05-16_15h01.49.206,eb_02psyexp,2022.2.4,60.00615824349793,
200,0,200,0,,,,,,,,,,,,,,,,,,,,,,,,,,,,,,,,,,,,,,,,,,,,,,,,,,,,,,,,,,,480.4081817518454,480.4081817518454,480.4081817518454,480.4081817518454,480.4081817518454,480.4081817518454,l,1,1.7053546966053545,482.1413944879314,483.15797302592546,,,,,,,,,,,,,,,,,,,,,,,,,,,,,,,,,,,,,,,,862978,2023-05-16_15h01.49.206,eb_02psyexp,2022.2.4,60.00615824349793,
201,0,201,0,,,,,,,,,,,,,,,,,,,,,,,,,,,,,,,,,,,,,,,,,,,,,,,,,,,,,,,,,,,483.15797302592546,483.15797302592546,483.15797302592546,483.15797302592546,483.15797302592546,483.15797302592546,s,1,0.5785815832205117,483.7579489387572,484.7745250619482,,,,,,,,,,,,,,,,,,,,,,,,,,,,,,,,,,,,,,,,862978,2023-05-16_15h01.49.206,eb_02psyexp,2022.2.4,60.00615824349793,
202,0,202,0,,,,,,,,,,,,,,,,,,,,,,,,,,,,,,,,,,,,,,,,,,,,,,,,,,,,,,,,,,,484.7745250619482,484.7745250619482,484.7745250619482,484.7745250619482,484.7745250619482,484.7745250619482,l,1,0.5620127043221146,485.35779203963466,486.37438536807895,,,,,,,,,,,,,,,,,,,,,,,,,,,,,,,,,,,,,,,,862978,2023-05-16_15h01.49.206,eb_02psyexp,2022.2.4,60.00615824349793,
203,0,203,0,,,,,,,,,,,,,,,,,,,,,,,,,,,,,,,,,,,,,,,,,,,,,,,,,,,,,,,,,,,486.37438536807895,486.37438536807895,486.37438536807895,486.37438536807895,486.37438536807895,486.37438536807895,s,1,0.5381491357693449,486.9410176646197,487.95760918187443,,,,,,,,,,,,,,,,,,,,,,,,,,,,,,,,,,,,,,,,862978,2023-05-16_15h01.49.206,eb_02psyexp,2022.2.4,60.00615824349793,
204,0,204,0,,,,,,,,,,,,,,,,,,,,,,,,,,,,,,,,,,,,,,,,,,,,,,,,,,,,,,,,,,,487.95760918187443,487.95760918187443,487.95760918187443,487.95760918187443,487.95760918187443,487.95760918187443,l,1,0.49896451586391777,488.4742200173205,489.4908341730479,,,,,,,,,,,,,,,,,,,,,,,,,,,,,,,,,,,,,,,,862978,2023-05-16_15h01.49.206,eb_02psyexp,2022.2.4,60.00615824349793,
205,0,205,0,,,,,,,,,,,,,,,,,,,,,,,,,,,,,,,,,,,,,,,,,,,,,,,,,,,,,,,,,,,489.4908341730479,489.4908341730479,489.4908341730479,489.4908341730479,489.4908341730479,489.4908341730479,l,1,0.49374712398275733,490.0074356511468,491.02404527924955,,,,,,,,,,,,,,,,,,,,,,,,,,,,,,,,,,,,,,,,862978,2023-05-16_15h01.49.206,eb_02psyexp,2022.2.4,60.00615824349793,
206,0,206,0,,,,,,,,,,,,,,,,,,,,,,,,,,,,,,,,,,,,,,,,,,,,,,,,,,,,,,,,,,,491.02404527924955,491.02404527924955,491.02404527924955,491.02404527924955,491.02404527924955,491.02404527924955,l,1,0.7285644685616717,491.77398536296096,492.7905928780092,,,,,,,,,,,,,,,,,,,,,,,,,,,,,,,,,,,,,,,,862978,2023-05-16_15h01.49.206,eb_02psyexp,2022.2.4,60.00615824349793,
207,0,207,0,,,,,,,,,,,,,,,,,,,,,,,,,,,,,,,,,,,,,,,,,,,,,,,,,,,,,,,,,,,492.7905928780092,492.7905928780092,492.7905928780092,492.7905928780092,492.7905928780092,492.7905928780092,l,1,0.5379773860331625,493.3571829163702,494.37379495904315,,,,,,,,,,,,,,,,,,,,,,,,,,,,,,,,,,,,,,,,862978,2023-05-16_15h01.49.206,eb_02psyexp,2022.2.4,60.00615824349793,
208,0,208,0,,,,,,,,,,,,,,,,,,,,,,,,,,,,,,,,,,,,,,,,,,,,,,,,,,,,,,,,,,,494.37379495904315,494.37379495904315,494.37379495904315,494.37379495904315,494.37379495904315,494.37379495904315,s,1,0.5707903585862368,494.97372589691076,496.0069886186393,,,,,,,,,,,,,,,,,,,,,,,,,,,,,,,,,,,,,,,,862978,2023-05-16_15h01.49.206,eb_02psyexp,2022.2.4,60.00615824349793,
209,0,209,0,,,,,,,,,,,,,,,,,,,,,,,,,,,,,,,,,,,,,,,,,,,,,,,,,,,,,,,,,,,496.0069886186393,496.0069886186393,496.0069886186393,496.0069886186393,496.0069886186393,496.0069886186393,s,1,1.3456432241946459,497.37356344389264,498.3898295722902,,,,,,,,,,,,,,,,,,,,,,,,,,,,,,,,,,,,,,,,862978,2023-05-16_15h01.49.206,eb_02psyexp,2022.2.4,60.00615824349793,
210,0,210,0,,,,,,,,,,,,,,,,,,,,,,,,,,,,,,,,,,,,,,,,,,,,,,,,,,,,,,,,,,,498.3898295722902,498.3898295722902,498.3898295722902,498.3898295722902,498.3898295722902,498.3898295722902,s,1,0.5618023183196783,498.97343944595195,499.99002492637374,,,,,,,,,,,,,,,,,,,,,,,,,,,,,,,,,,,,,,,,862978,2023-05-16_15h01.49.206,eb_02psyexp,2022.2.4,60.00615824349793,
211,0,211,0,,,,,,,,,,,,,,,,,,,,,,,,,,,,,,,,,,,,,,,,,,,,,,,,,,,,,,,,,,,499.99002492637374,499.99002492637374,499.99002492637374,499.99002492637374,499.99002492637374,499.99002492637374,l,1,0.5136248285416514,500.5233039477607,501.55653950339183,,,,,,,,,,,,,,,,,,,,,,,,,,,,,,,,,,,,,,,,862978,2023-05-16_15h01.49.206,eb_02psyexp,2022.2.4,60.00615824349793,
212,0,212,0,,,,,,,,,,,,,,,,,,,,,,,,,,,,,,,,,,,,,,,,,,,,,,,,,,,,,,,,,,,501.55653950339183,501.55653950339183,501.55653950339183,501.55653950339183,501.55653950339183,501.55653950339183,s,1,0.8830949516268447,502.45647967769764,503.4897339477902,,,,,,,,,,,,,,,,,,,,,,,,,,,,,,,,,,,,,,,,862978,2023-05-16_15h01.49.206,eb_02psyexp,2022.2.4,60.00615824349793,
213,0,213,0,,,,,,,,,,,,,,,,,,,,,,,,,,,,,,,,,,,,,,,,,,,,,,,,,,,,,,,,,,,503.4897339477902,503.4897339477902,503.4897339477902,503.4897339477902,503.4897339477902,503.4897339477902,s,1,0.9739358255174011,504.48969410418067,505.52294958161656,,,,,,,,,,,,,,,,,,,,,,,,,,,,,,,,,,,,,,,,862978,2023-05-16_15h01.49.206,eb_02psyexp,2022.2.4,60.00615824349793,
214,0,214,0,,,,,,,,,,,,,,,,,,,,,,,,,,,,,,,,,,,,,,,,,,,,,,,,,,,,,,,,,,,505.52294958161656,505.52294958161656,505.52294958161656,505.52294958161656,505.52294958161656,505.52294958161656,s,1,0.6287171418080106,506.17285549652297,507.20611731277313,,,,,,,,,,,,,,,,,,,,,,,,,,,,,,,,,,,,,,,,862978,2023-05-16_15h01.49.206,eb_02psyexp,2022.2.4,60.00615824349793,
215,0,215,0,,,,,,,,,,,,,,,,,,,,,,,,,,,,,,,,,,,,,,,,,,,,,,,,,,,,,,,,,,,507.20611731277313,507.20611731277313,507.20611731277313,507.20611731277313,507.20611731277313,507.20611731277313,s,1,1.0095785955199972,508.23938335466664,509.25598362553865,,,,,,,,,,,,,,,,,,,,,,,,,,,,,,,,,,,,,,,,862978,2023-05-16_15h01.49.206,eb_02psyexp,2022.2.4,60.00615824349793,
216,0,216,0,,,,,,,,,,,,,,,,,,,,,,,,,,,,,,,,,,,,,,,,,,,,,,,,,,,,,,,,,,,509.25598362553865,509.25598362553865,509.25598362553865,509.25598362553865,509.25598362553865,509.25598362553865,l,1,0.6317105392226949,509.9059206304373,510.9391827485524,,,,,,,,,,,,,,,,,,,,,,,,,,,,,,,,,,,,,,,,862978,2023-05-16_15h01.49.206,eb_02psyexp,2022.2.4,60.00615824349793,
217,0,217,0,,,,,,,,,,,,,,,,,,,,,,,,,,,,,,,,,,,,,,,,,,,,,,,,,,,,,,,,,,,510.9391827485524,510.9391827485524,510.9391827485524,510.9391827485524,510.9391827485524,510.9391827485524,s,1,1.2524950467050076,512.2224278122885,513.2390108779073,,,,,,,,,,,,,,,,,,,,,,,,,,,,,,,,,,,,,,,,862978,2023-05-16_15h01.49.206,eb_02psyexp,2022.2.4,60.00615824349793,
218,0,218,0,,,,,,,,,,,,,,,,,,,,,,,,,,,,,,,,,,,,,,,,,,,,,,,,,,,,,,,,,,,513.2390108779073,513.2390108779073,513.2390108779073,513.2390108779073,513.2390108779073,513.2390108779073,l,1,0.9437063448131084,514.205609005643,515.2388333929703,,,,,,,,,,,,,,,,,,,,,,,,,,,,,,,,,,,,,,,,862978,2023-05-16_15h01.49.206,eb_02psyexp,2022.2.4,60.00615824349793,
219,0,219,0,,,,,,,,,,,,,,,,,,,,,,,,,,,,,,,,,,,,,,,,,,,,,,,,,,,,,,,,,,,515.2388333929703,515.2388333929703,515.2388333929703,515.2388333929703,515.2388333929703,515.2388333929703,s,1,0.44790229306090623,515.7054952100152,516.7387624594849,,,,,,,,,,,,,,,,,,,,,,,,,,,,,,,,,,,,,,,,862978,2023-05-16_15h01.49.206,eb_02psyexp,2022.2.4,60.00615824349793,
220,0,220,0,,,,,,,,,,,,,,,,,,,,,,,,,,,,,,,,,,,,,,,,,,,,,,,,,,,,,,,,,,,516.7387624594849,516.7387624594849,516.7387624594849,516.7387624594849,516.7387624594849,516.7387624594849,s,1,0.4519705605925992,517.2220480912365,518.2553283199668,,,,,,,,,,,,,,,,,,,,,,,,,,,,,,,,,,,,,,,,862978,2023-05-16_15h01.49.206,eb_02psyexp,2022.2.4,60.00615824349793,
221,0,221,0,,,,,,,,,,,,,,,,,,,,,,,,,,,,,,,,,,,,,,,,,,,,,,,,,,,,,,,,,,,518.2553283199668,518.2553283199668,518.2553283199668,518.2553283199668,518.2553283199668,518.2553283199668,l,1,0.44742175564169884,518.7219339937437,519.7385122298729,,,,,,,,,,,,,,,,,,,,,,,,,,,,,,,,,,,,,,,,862978,2023-05-16_15h01.49.206,eb_02psyexp,2022.2.4,60.00615824349793,
222,0,222,0,,,,,,,,,,,,,,,,,,,,,,,,,,,,,,,,,,,,,,,,,,,,,,,,,,,,,,,,,,,519.7385122298729,519.7385122298729,519.7385122298729,519.7385122298729,519.7385122298729,519.7385122298729,l,1,0.5482506825355813,520.3051306415582,521.3217408732744,,,,,,,,,,,,,,,,,,,,,,,,,,,,,,,,,,,,,,,,862978,2023-05-16_15h01.49.206,eb_02psyexp,2022.2.4,60.00615824349793,
223,0,223,0,,,,,,,,,,,,,,,,,,,,,,,,,,,,,,,,,,,,,,,,,,,,,,,,,,,,,,,,,,,521.3217408732744,521.3217408732744,521.3217408732744,521.3217408732744,521.3217408732744,521.3217408732744,l,1,0.5090328596998006,521.8550244222861,522.8882708443562,,,,,,,,,,,,,,,,,,,,,,,,,,,,,,,,,,,,,,,,862978,2023-05-16_15h01.49.206,eb_02psyexp,2022.2.4,60.00615824349793,
224,0,224,0,,,,,,,,,,,,,,,,,,,,,,,,,,,,,,,,,,,,,,,,,,,,,,,,,,,,,,,,,,,522.8882708443562,522.8882708443562,522.8882708443562,522.8882708443562,522.8882708443562,522.8882708443562,l,1,0.5745157302590087,523.4882174781524,524.5048165415647,,,,,,,,,,,,,,,,,,,,,,,,,,,,,,,,,,,,,,,,862978,2023-05-16_15h01.49.206,eb_02psyexp,2022.2.4,60.00615824349793,
225,0,225,0,,,,,,,,,,,,,,,,,,,,,,,,,,,,,,,,,,,,,,,,,,,,,,,,,,,,,,,,,,,524.5048165415647,524.5048165415647,524.5048165415647,524.5048165415647,524.5048165415647,524.5048165415647,l,1,1.005936231231317,525.5380596433533,526.571305159945,,,,,,,,,,,,,,,,,,,,,,,,,,,,,,,,,,,,,,,,862978,2023-05-16_15h01.49.206,eb_02psyexp,2022.2.4,60.00615824349793,
226,0,226,0,,,,,,,,,,,,,,,,,,,,,,,,,,,,,,,,,,,,,,,,,,,,,,,,,,,,,,,,,,,526.571305159945,526.571305159945,526.571305159945,526.571305159945,526.571305159945,526.571305159945,s,1,0.7154927664669231,527.3046102607623,528.3212081167148,,,,,,,,,,,,,,,,,,,,,,,,,,,,,,,,,,,,,,,,862978,2023-05-16_15h01.49.206,eb_02psyexp,2022.2.4,60.00615824349793,
227,0,227,0,,,,,,,,,,,,,,,,,,,,,,,,,,,,,,,,,,,,,,,,,,,,,,,,,,,,,,,,,,,528.3212081167148,528.3212081167148,528.3212081167148,528.3212081167148,528.3212081167148,528.3212081167148,l,1,0.7086586925433949,529.054470657371,530.087736397516,,,,,,,,,,,,,,,,,,,,,,,,,,,,,,,,,,,,,,,,862978,2023-05-16_15h01.49.206,eb_02psyexp,2022.2.4,60.00615824349793,
228,0,228,0,,,,,,,,,,,,,,,,,,,,,,,,,,,,,,,,,,,,,,,,,,,,,,,,,,,,,,,,,,,530.087736397516,530.087736397516,530.087736397516,530.087736397516,530.087736397516,530.087736397516,l,1,1.0860468151513487,531.2042507028673,532.2208944393788,,,,,,,,,,,,,,,,,,,,,,,,,,,,,,,,,,,,,,,,862978,2023-05-16_15h01.49.206,eb_02psyexp,2022.2.4,60.00615824349793,
229,0,229,0,,,,,,,,,,,,,,,,,,,,,,,,,,,,,,,,,,,,,,,,,,,,,,,,,,,,,,,,,,,532.2208944393788,532.2208944393788,532.2208944393788,532.2208944393788,532.2208944393788,532.2208944393788,s,1,1.3209037013584748,533.5707935325336,534.6040348232491,,,,,,,,,,,,,,,,,,,,,,,,,,,,,,,,,,,,,,,,862978,2023-05-16_15h01.49.206,eb_02psyexp,2022.2.4,60.00615824349793,
230,0,230,0,,,,,,,,,,,,,,,,,,,,,,,,,,,,,,,,,,,,,,,,,,,,,,,,,,,,,,,,,,,534.6040348232491,534.6040348232491,534.6040348232491,534.6040348232491,534.6040348232491,534.6040348232491,s,1,0.5778109728125855,535.2040062083397,536.2205953109078,,,,,,,,,,,,,,,,,,,,,,,,,,,,,,,,,,,,,,,,862978,2023-05-16_15h01.49.206,eb_02psyexp,2022.2.4,60.00615824349793,
231,0,231,0,,,,,,,,,,,,,,,,,,,,,,,,,,,,,,,,,,,,,,,,,,,,,,,,,,,,,,,,,,,536.2205953109078,536.2205953109078,536.2205953109078,536.2205953109078,536.2205953109078,536.2205953109078,l,1,0.5452600016724318,536.7872436052421,537.8204821794061,,,,,,,,,,,,,,,,,,,,,,,,,,,,,,,,,,,,,,,,862978,2023-05-16_15h01.49.206,eb_02psyexp,2022.2.4,60.00615824349793,
232,0,232,0,,,,,,,,,,,,,,,,,,,,,,,,,,,,,,,,,,,,,,,,,,,,,,,,,,,,,,,,,,,537.8204821794061,537.8204821794061,537.8204821794061,537.8204821794061,537.8204821794061,537.8204821794061,s,1,0.5053708754712716,538.353767237626,539.3703554347157,,,,,,,,,,,,,,,,,,,,,,,,,,,,,,,,,,,,,,,,862978,2023-05-16_15h01.49.206,eb_02psyexp,2022.2.4,60.00615824349793,
233,0,233,0,,,,,,,,,,,,,,,,,,,,,,,,,,,,,,,,,,,,,,,,,,,,,,,,,,,,,,,,,,,539.3703554347157,539.3703554347157,539.3703554347157,539.3703554347157,539.3703554347157,539.3703554347157,l,1,0.4835323855513707,539.8869825697038,540.9201803946635,,,,,,,,,,,,,,,,,,,,,,,,,,,,,,,,,,,,,,,,862978,2023-05-16_15h01.49.206,eb_02psyexp,2022.2.4,60.00615824349793,
234,0,234,0,,,,,,,,,,,,,,,,,,,,,,,,,,,,,,,,,,,,,,,,,,,,,,,,,,,,,,,,,,,540.9201803946635,540.9201803946635,540.9201803946635,540.9201803946635,540.9201803946635,540.9201803946635,s,1,0.3976761809317395,541.3368690457428,542.3531252131797,,,,,,,,,,,,,,,,,,,,,,,,,,,,,,,,,,,,,,,,862978,2023-05-16_15h01.49.206,eb_02psyexp,2022.2.4,60.00615824349793,
235,0,235,0,,,,,,,,,,,,,,,,,,,,,,,,,,,,,,,,,,,,,,,,,,,,,,,,,,,,,,,,,,,542.3531252131797,542.3531252131797,542.3531252131797,542.3531252131797,542.3531252131797,542.3531252131797,s,1,0.5487538583111018,542.9200569400564,543.9366732087219,,,,,,,,,,,,,,,,,,,,,,,,,,,,,,,,,,,,,,,,862978,2023-05-16_15h01.49.206,eb_02psyexp,2022.2.4,60.00615824349793,
236,0,236,0,,,,,,,,,,,,,,,,,,,,,,,,,,,,,,,,,,,,,,,,,,,,,,,,,,,,,,,,,,,543.9366732087219,543.9366732087219,543.9366732087219,543.9366732087219,543.9366732087219,543.9366732087219,l,1,0.46825449785683304,544.4366125378292,545.4532294101082,,,,,,,,,,,,,,,,,,,,,,,,,,,,,,,,,,,,,,,,862978,2023-05-16_15h01.49.206,eb_02psyexp,2022.2.4,60.00615824349793,
237,0,237,0,,,,,,,,,,,,,,,,,,,,,,,,,,,,,,,,,,,,,,,,,,,,,,,,,,,,,,,,,,,545.4532294101082,545.4532294101082,545.4532294101082,545.4532294101082,545.4532294101082,545.4532294101082,s,1,0.39166946429759264,545.8698679548688,546.8864437763114,,,,,,,,,,,,,,,,,,,,,,,,,,,,,,,,,,,,,,,,862978,2023-05-16_15h01.49.206,eb_02psyexp,2022.2.4,60.00615824349793,
238,0,238,0,,,,,,,,,,,,,,,,,,,,,,,,,,,,,,,,,,,,,,,,,,,,,,,,,,,,,,,,,,,546.8864437763114,546.8864437763114,546.8864437763114,546.8864437763114,546.8864437763114,546.8864437763114,l,1,0.5104551536496729,547.4197013665689,548.4530003097607,,,,,,,,,,,,,,,,,,,,,,,,,,,,,,,,,,,,,,,,862978,2023-05-16_15h01.49.206,eb_02psyexp,2022.2.4,60.00615824349793,
239,0,239,0,,,,,,,,,,,,,,,,,,,,,,,,,,,,,,,,,,,,,,,,,,,,,,,,,,,,,,,,,,,548.4530003097607,548.4530003097607,548.4530003097607,548.4530003097607,548.4530003097607,548.4530003097607,s,1,0.5279247381258756,549.0029556668596,550.0195429583546,,,,,,,,,,,,,,,,,,,,,,,,,,,,,,,,,,,,,,,,862978,2023-05-16_15h01.49.206,eb_02psyexp,2022.2.4,60.00615824349793,
240,0,240,0,,,,,,,,,,,,,,,,,,,,,,,,,,,,,,,,,,,,,,,,,,,,,,,,,,,,,,,,,,,550.0195429583546,550.0195429583546,550.0195429583546,550.0195429583546,550.0195429583546,550.0195429583546,l,1,0.5693731959909201,550.6194980437867,551.6360774872592,,,,,,,,,,,,,,,,,,,,,,,,,,,,,,,,,,,,,,,,862978,2023-05-16_15h01.49.206,eb_02psyexp,2022.2.4,60.00615824349793,
241,0,241,0,,,,,,,,,,,,,,,,,,,,,,,,,,,,,,,,,,,,,,,,,,,,,,,,,,,,,,,,,,,551.6360774872592,551.6360774872592,551.6360774872592,551.6360774872592,551.6360774872592,551.6360774872592,s,1,0.5288830962963402,552.186041597859,553.2026237579994,,,,,,,,,,,,,,,,,,,,,,,,,,,,,,,,,,,,,,,,862978,2023-05-16_15h01.49.206,eb_02psyexp,2022.2.4,60.00615824349793,
242,0,242,0,,,,,,,,,,,,,,,,,,,,,,,,,,,,,,,,,,,,,,,,,,,,,,,,,,,,,,,,,,,553.2026237579994,553.2026237579994,553.2026237579994,553.2026237579994,553.2026237579994,553.2026237579994,l,1,0.4743131318828091,553.7025953845587,554.7358288273681,,,,,,,,,,,,,,,,,,,,,,,,,,,,,,,,,,,,,,,,862978,2023-05-16_15h01.49.206,eb_02psyexp,2022.2.4,60.00615824349793,
243,0,243,0,,,,,,,,,,,,,,,,,,,,,,,,,,,,,,,,,,,,,,,,,,,,,,,,,,,,,,,,,,,554.7358288273681,554.7358288273681,554.7358288273681,554.7358288273681,554.7358288273681,554.7358288273681,s,1,0.4531405121088028,555.219137399341,556.2357367646182,,,,,,,,,,,,,,,,,,,,,,,,,,,,,,,,,,,,,,,,862978,2023-05-16_15h01.49.206,eb_02psyexp,2022.2.4,60.00615824349793,
244,0,244,0,,,,,,,,,,,,,,,,,,,,,,,,,,,,,,,,,,,,,,,,,,,,,,,,,,,,,,,,,,,556.2357367646182,556.2357367646182,556.2357367646182,556.2357367646182,556.2357367646182,556.2357367646182,l,1,0.5532193540129811,556.8190019312315,557.8522631437518,,,,,,,,,,,,,,,,,,,,,,,,,,,,,,,,,,,,,,,,862978,2023-05-16_15h01.49.206,eb_02psyexp,2022.2.4,60.00615824349793,
245,0,245,0,,,,,,,,,,,,,,,,,,,,,,,,,,,,,,,,,,,,,,,,,,,,,,,,,,,,,,,,,,,557.8522631437518,557.8522631437518,557.8522631437518,557.8522631437518,557.8522631437518,557.8522631437518,s,1,0.4967393141705543,558.3688926935429,559.3854830034543,,,,,,,,,,,,,,,,,,,,,,,,,,,,,,,,,,,,,,,,862978,2023-05-16_15h01.49.206,eb_02psyexp,2022.2.4,60.00615824349793,
246,0,246,0,,,,,,,,,,,,,,,,,,,,,,,,,,,,,,,,,,,,,,,,,,,,,,,,,,,,,,,,,,,559.3854830034543,559.3854830034543,559.3854830034543,559.3854830034543,559.3854830034543,559.3854830034543,s,1,0.6115044273901731,560.0187684239354,561.0353632614715,,,,,,,,,,,,,,,,,,,,,,,,,,,,,,,,,,,,,,,,862978,2023-05-16_15h01.49.206,eb_02psyexp,2022.2.4,60.00615824349793,
247,0,247,0,,,,,,,,,,,,,,,,,,,,,,,,,,,,,,,,,,,,,,,,,,,,,,,,,,,,,,,,,,,561.0353632614715,561.0353632614715,561.0353632614715,561.0353632614715,561.0353632614715,561.0353632614715,l,1,0.5046189794084057,561.5686422828585,562.585251307115,,,,,,,,,,,,,,,,,,,,,,,,,,,,,,,,,,,,,,,,862978,2023-05-16_15h01.49.206,eb_02psyexp,2022.2.4,60.00615824349793,
248,0,248,0,,,,,,,,,,,,,,,,,,,,,,,,,,,,,,,,,,,,,,,,,,,,,,,,,,,,,,,,,,,562.585251307115,562.585251307115,562.585251307115,562.585251307115,562.585251307115,562.585251307115,s,1,0.5147802914725617,563.1185276119504,564.1351432767697,,,,,,,,,,,,,,,,,,,,,,,,,,,,,,,,,,,,,,,,862978,2023-05-16_15h01.49.206,eb_02psyexp,2022.2.4,60.00615824349793,
249,0,249,0,,,,,,,,,,,,,,,,,,,,,,,,,,,,,,,,,,,,,,,,,,,,,,,,,,,,,,,,,,,564.1351432767697,564.1351432767697,564.1351432767697,564.1351432767697,564.1351432767697,564.1351432767697,l,1,0.5008673472329974,564.6683987542056,565.7016177084297,,,,,,,,,,,,,,,,,,,,,,,,,,,,,,,,,,,,,,,,862978,2023-05-16_15h01.49.206,eb_02psyexp,2022.2.4,60.00615824349793,
250,0,250,0,,,,,,,,,,,,,,,,,,,,,,,,,,,,,,,,,,,,,,,,,,,,,,,,,,,,,,,,,,,565.7016177084297,565.7016177084297,565.7016177084297,565.7016177084297,565.7016177084297,565.7016177084297,s,1,0.5184253723127767,566.2516334345564,567.2682273666142,,,,,,,,,,,,,,,,,,,,,,,,,,,,,,,,,,,,,,,,862978,2023-05-16_15h01.49.206,eb_02psyexp,2022.2.4,60.00615824349793,
251,0,251,0,,,,,,,,,,,,,,,,,,,,,,,,,,,,,,,,,,,,,,,,,,,,,,,,,,,,,,,,,,,567.2682273666142,567.2682273666142,567.2682273666142,567.2682273666142,567.2682273666142,567.2682273666142,l,1,0.41579201573040336,567.7015066294698,568.7180906006834,,,,,,,,,,,,,,,,,,,,,,,,,,,,,,,,,,,,,,,,862978,2023-05-16_15h01.49.206,eb_02psyexp,2022.2.4,60.00615824349793,
252,0,252,0,,,,,,,,,,,,,,,,,,,,,,,,,,,,,,,,,,,,,,,,,,,,,,,,,,,,,,,,,,,568.7180906006834,568.7180906006834,568.7180906006834,568.7180906006834,568.7180906006834,568.7180906006834,l,1,0.5819803585764021,569.3180662115337,570.3346583325183,,,,,,,,,,,,,,,,,,,,,,,,,,,,,,,,,,,,,,,,862978,2023-05-16_15h01.49.206,eb_02psyexp,2022.2.4,60.00615824349793,
253,0,253,0,,,,,,,,,,,,,,,,,,,,,,,,,,,,,,,,,,,,,,,,,,,,,,,,,,,,,,,,,,,570.3346583325183,570.3346583325183,570.3346583325183,570.3346583325183,570.3346583325183,570.3346583325183,l,1,0.4773952717659995,570.8346203000983,571.8678612889489,,,,,,,,,,,,,,,,,,,,,,,,,,,,,,,,,,,,,,,,862978,2023-05-16_15h01.49.206,eb_02psyexp,2022.2.4,60.00615824349793,
254,0,254,0,,,,,,,,,,,,,,,,,,,,,,,,,,,,,,,,,,,,,,,,,,,,,,,,,,,,,,,,,,,571.8678612889489,571.8678612889489,571.8678612889489,571.8678612889489,571.8678612889489,571.8678612889489,s,1,0.4801972993882373,572.3677822055761,573.3844202070031,,,,,,,,,,,,,,,,,,,,,,,,,,,,,,,,,,,,,,,,862978,2023-05-16_15h01.49.206,eb_02psyexp,2022.2.4,60.00615824349793,
255,0,255,0,,,,,,,,,,,,,,,,,,,,,,,,,,,,,,,,,,,,,,,,,,,,,,,,,,,,,,,,,,,573.3844202070031,573.3844202070031,573.3844202070031,573.3844202070031,573.3844202070031,573.3844202070031,l,1,0.41962816461455077,573.8343911996344,574.86764788453,,,,,,,,,,,,,,,,,,,,,,,,,,,,,,,,,,,,,,,,862978,2023-05-16_15h01.49.206,eb_02psyexp,2022.2.4,60.00615824349793,
256,0,256,0,,,,,,,,,,,,,,,,,,,,,,,,,,,,,,,,,,,,,,,,,,,,,,,,,,,,,,,,,,,574.86764788453,574.86764788453,574.86764788453,574.86764788453,574.86764788453,574.86764788453,s,1,0.8394584188936278,575.7342344817007,576.767476678011,,,,,,,,,,,,,,,,,,,,,,,,,,,,,,,,,,,,,,,,862978,2023-05-16_15h01.49.206,eb_02psyexp,2022.2.4,60.00615824349793,
257,0,257,0,,,,,,,,,,,,,,,,,,,,,,,,,,,,,,,,,,,,,,,,,,,,,,,,,,,,,,,,,,,576.767476678011,576.767476678011,576.767476678011,576.767476678011,576.767476678011,576.767476678011,l,1,0.5235983929596841,577.3174573900178,578.3339988010703,,,,,,,,,,,,,,,,,,,,,,,,,,,,,,,,,,,,,,,,862978,2023-05-16_15h01.49.206,eb_02psyexp,2022.2.4,60.00615824349793,
258,0,258,0,,,,,,,,,,,,,,,,,,,,,,,,,,,,,,,,,,,,,,,,,,,,,,,,,,,,,,,,,,,578.3339988010703,578.3339988010703,578.3339988010703,578.3339988010703,578.3339988010703,578.3339988010703,l,1,0.6130981692112982,578.9673216503579,580.0672399107134,,,,,,,,,,,,,,,,,,,,,,,,,,,,,,,,,,,,,,,,862978,2023-05-16_15h01.49.206,eb_02psyexp,2022.2.4,60.00615824349793,
259,0,259,0,,,,,,,,,,,,,,,,,,,,,,,,,,,,,,,,,,,,,,,,,,,,,,,,,,,,,,,,,,,580.0672399107134,580.0672399107134,580.0672399107134,580.0672399107134,580.0672399107134,580.0672399107134,s,1,0.5598379105795175,580.6505044737132,581.683798285434,,,,,,,,,,,,,,,,,,,,,,,,,,,,,,,,,,,,,,,,862978,2023-05-16_15h01.49.206,eb_02psyexp,2022.2.4,60.00615824349793,
260,0,260,0,,,,,,,,,,,,,,,,,,,,,,,,,,,,,,,,,,,,,,,,,,,,,,,,,,,,,,,,,,,581.683798285434,581.683798285434,581.683798285434,581.683798285434,581.683798285434,581.683798285434,s,1,0.5913140114862472,582.3004103886196,583.3169904358219,,,,,,,,,,,,,,,,,,,,,,,,,,,,,,,,,,,,,,,,862978,2023-05-16_15h01.49.206,eb_02psyexp,2022.2.4,60.00615824349793,
261,0,261,0,,,,,,,,,,,,,,,,,,,,,,,,,,,,,,,,,,,,,,,,,,,,,,,,,,,,,,,,,,,583.3169904358219,583.3169904358219,583.3169904358219,583.3169904358219,583.3169904358219,583.3169904358219,l,1,0.5021082322346047,583.8502757959068,584.8835403285921,,,,,,,,,,,,,,,,,,,,,,,,,,,,,,,,,,,,,,,,862978,2023-05-16_15h01.49.206,eb_02psyexp,2022.2.4,60.00615824349793,
262,0,262,0,,,,,,,,,,,,,,,,,,,,,,,,,,,,,,,,,,,,,,,,,,,,,,,,,,,,,,,,,,,584.8835403285921,584.8835403285921,584.8835403285921,584.8835403285921,584.8835403285921,584.8835403285921,s,1,0.7596086291596293,585.6667983717052,586.7000900706043,,,,,,,,,,,,,,,,,,,,,,,,,,,,,,,,,,,,,,,,862978,2023-05-16_15h01.49.206,eb_02psyexp,2022.2.4,60.00615824349793,
263,0,263,0,,,,,,,,,,,,,,,,,,,,,,,,,,,,,,,,,,,,,,,,,,,,,,,,,,,,,,,,,,,586.7000900706043,586.7000900706043,586.7000900706043,586.7000900706043,586.7000900706043,586.7000900706043,l,1,0.4630609517917037,587.1833213702776,588.2166142764036,,,,,,,,,,,,,,,,,,,,,,,,,,,,,,,,,,,,,,,,862978,2023-05-16_15h01.49.206,eb_02psyexp,2022.2.4,60.00615824349793,
264,0,264,0,,,,,,,,,,,,,,,,,,,,,,,,,,,,,,,,,,,,,,,,,,,,,,,,,,,,,,,,,,,588.2166142764036,588.2166142764036,588.2166142764036,588.2166142764036,588.2166142764036,588.2166142764036,s,1,0.6185268526896834,588.8665751271183,589.8831811330747,,,,,,,,,,,,,,,,,,,,,,,,,,,,,,,,,,,,,,,,862978,2023-05-16_15h01.49.206,eb_02psyexp,2022.2.4,60.00615824349793,
265,0,265,0,,,,,,,,,,,,,,,,,,,,,,,,,,,,,,,,,,,,,,,,,,,,,,,,,,,,,,,,,,,589.8831811330747,589.8831811330747,589.8831811330747,589.8831811330747,589.8831811330747,589.8831811330747,l,1,0.48707876296248287,590.3997964961454,591.4330640473636,,,,,,,,,,,,,,,,,,,,,,,,,,,,,,,,,,,,,,,,862978,2023-05-16_15h01.49.206,eb_02psyexp,2022.2.4,60.00615824349793,
266,0,266,0,,,,,,,,,,,,,,,,,,,,,,,,,,,,,,,,,,,,,,,,,,,,,,,,,,,,,,,,,,,591.4330640473636,591.4330640473636,591.4330640473636,591.4330640473636,591.4330640473636,591.4330640473636,l,1,0.9611065050121397,592.4162941395771,593.4495632000035,,,,,,,,,,,,,,,,,,,,,,,,,,,,,,,,,,,,,,,,862978,2023-05-16_15h01.49.206,eb_02psyexp,2022.2.4,60.00615824349793,
267,0,267,0,,,,,,,,,,,,,,,,,,,,,,,,,,,,,,,,,,,,,,,,,,,,,,,,,,,,,,,,,,,593.4495632000035,593.4495632000035,593.4495632000035,593.4495632000035,593.4495632000035,593.4495632000035,s,1,0.7526009941939265,594.2328363354318,595.2660918128677,,,,,,,,,,,,,,,,,,,,,,,,,,,,,,,,,,,,,,,,862978,2023-05-16_15h01.49.206,eb_02psyexp,2022.2.4,60.00615824349793,
268,0,268,0,,,,,,,,,,,,,,,,,,,,,,,,,,,,,,,,,,,,,,,,,,,,,,,,,,,,,,,,,,,595.2660918128677,595.2660918128677,595.2660918128677,595.2660918128677,595.2660918128677,595.2660918128677,l,1,0.5040747527964413,595.7993841153802,596.8159517869353,,,,,,,,,,,,,,,,,,,,,,,,,,,,,,,,,,,,,,,,862978,2023-05-16_15h01.49.206,eb_02psyexp,2022.2.4,60.00615824349793,
269,0,269,0,,,,,,,,,,,,,,,,,,,,,,,,,,,,,,,,,,,,,,,,,,,,,,,,,,,,,,,,,,,596.8159517869353,596.8159517869353,596.8159517869353,596.8159517869353,596.8159517869353,596.8159517869353,l,1,1.2422628010390326,598.0825458698673,599.0991328594973,,,,,,,,,,,,,,,,,,,,,,,,,,,,,,,,,,,,,,,,862978,2023-05-16_15h01.49.206,eb_02psyexp,2022.2.4,60.00615824349793,
270,0,270,0,,,,,,,,,,,,,,,,,,,,,,,,,,,,,,,,,,,,,,,,,,,,,,,,,,,,,,,,,,,599.0991328594973,599.0991328594973,599.0991328594973,599.0991328594973,599.0991328594973,599.0991328594973,l,1,0.8070710479514673,599.9324202118441,600.9489890907425,,,,,,,,,,,,,,,,,,,,,,,,,,,,,,,,,,,,,,,,862978,2023-05-16_15h01.49.206,eb_02psyexp,2022.2.4,60.00615824349793,
