trials.thisRepN,trials.thisTrialN,trials.thisN,trials.thisIndex,image_loop.thisRepN,image_loop.thisTrialN,image_loop.thisN,image_loop.thisIndex,break_loop.thisRepN,break_loop.thisTrialN,break_loop.thisN,break_loop.thisIndex,test_trials.thisRepN,test_trials.thisTrialN,test_trials.thisN,test_trials.thisIndex,distance matrix,tools,welcome_text.started,instructions_0_keypress.started,instructions_0_keypress.keys,instructions_0_keypress.rt,consent_image_0.started,consent0_key_resp.started,consent0_text.started,consent0_key_resp.keys,consent0_key_resp.rt,consent_image_1.started,consent1_key_resp.started,consent1_text.started,consent1_key_resp.keys,consent1_key_resp.rt,consent2_text.started,consent_image_2.started,consent2_key_resp.started,consent2_key_resp.keys,consent2_key_resp.rt,agree_button.started,disagree_button.started,consent_image_3.started,agree_button.numClicks,agree_button.timesOn,agree_button.timesOff,disagree_button.numClicks,disagree_button.timesOn,disagree_button.timesOff,instructions_text1.started,instructions1_key_resp.started,instr1_cnt_text.started,instructions1_key_resp.keys,instructions1_key_resp.rt,instructions_text2.started,instr2_cnt_text.started,instructions2_key_resp.started,instructions2_key_resp.keys,instructions2_key_resp.rt,instructions_text3.started,instructions3_key_resp.started,instr3_cnt_text.started,instructions3_key_resp.keys,instructions3_key_resp.rt,text_countdown.started,image.started,small_large_keyresp.started,task_question_text.started,smalleroption_text.started,largeroption_text.started,accuracy_score_text.started,small_large_keyresp.keys,small_large_keyresp.corr,small_large_keyresp.rt,fb_2.started,fb_2.stopped,break_text.started,break_key_resp.started,break_key_resp.keys,break_key_resp.rt,reveal_seq_text.started,start_test_text.started,continue_to_test.started,continue_to_test.keys,continue_to_test.rt,test_structure_info.started,start_test_text_2.started,continue_to_test_2.started,continue_to_test_2.keys,continue_to_test_2.rt,test_cntdown_text.started,parent index,left child index,right child index,left distance,right distance,parent_image.started,top_image_text.started,left_child_image.started,right_child_image.started,path_resp.started,child_choice_text.started,left_choice_text.started,right_choice_text.started,path_resp.keys,path_resp.rt,graph.started,debrief_text.started,debriefing_title.started,demo_scr_adv.started,demo_scr_adv_keypress.started,demo_scr_adv_keypress.keys,demo_scr_adv_keypress.rt,text_countdown_2.started,participant,date,expName,psychopyVersion,frameRate,
,,,,,,,,,,,,,,,,"[[0. 1. 1. 2. 2. 3. 4. 5. 5. 6. 6. 7.]
 [1. 0. 2. 1. 1. 2. 3. 4. 4. 5. 5. 6.]
 [1. 2. 0. 1. 1. 2. 3. 4. 4. 5. 5. 6.]
 [2. 1. 1. 0. 1. 1. 2. 3. 3. 4. 4. 5.]
 [2. 1. 1. 1. 0. 1. 2. 3. 3. 4. 4. 5.]
 [3. 2. 2. 1. 1. 0. 1. 2. 2. 3. 3. 4.]
 [4. 3. 3. 2. 2. 1. 0. 1. 1. 2. 2. 3.]
 [5. 4. 4. 3. 3. 2. 1. 0. 1. 1. 1. 2.]
 [5. 4. 4. 3. 3. 2. 1. 1. 0. 1. 1. 2.]
 [6. 5. 5. 4. 4. 3. 2. 1. 1. 0. 2. 1.]
 [6. 5. 5. 4. 4. 3. 2. 1. 1. 2. 0. 1.]
 [7. 6. 6. 5. 5. 4. 3. 2. 2. 1. 1. 0.]]",[ 6  7  1  4  3 10  0  2  9  8  5 11],9.586862522060983,9.586862522060983,return,6.191299126599915,,,,,,,,,,,,,,,,,,,,,,,,,,,,,,,,,,,,,,,,,,,,,,,,,,,,,,,,,,,,,,,,,,,,,,,,,,,,,,,,,,,,,,,,,,976014,2010-12-29_12h03.00.969,eb_02psyexp,2022.2.4,119.98373857367405,
,,,,,,,,,,,,,,,,,,,,,,15.78700535686221,15.78700535686221,15.78700535686221,space,9.15031110367272,,,,,,,,,,,,,,,,,,,,,,,,,,,,,,,,,,,,,,,,,,,,,,,,,,,,,,,,,,,,,,,,,,,,,,,,,,,,,,,,,,,,,976014,2010-12-29_12h03.00.969,eb_02psyexp,2022.2.4,119.98373857367405,
,,,,,,,,,,,,,,,,,,,,,,,,,,,24.94609013979789,24.94609013979789,24.94609013979789,space,1.5352347918087617,,,,,,,,,,,,,,,,,,,,,,,,,,,,,,,,,,,,,,,,,,,,,,,,,,,,,,,,,,,,,,,,,,,,,,,,,,,,,,,,976014,2010-12-29_12h03.00.969,eb_02psyexp,2022.2.4,119.98373857367405,
,,,,,,,,,,,,,,,,,,,,,,,,,,,,,,,,26.49620470649097,26.49620470649097,26.49620470649097,space,1.7051281698513776,,,,,,,,,,,,,,,,,,,,,,,,,,,,,,,,,,,,,,,,,,,,,,,,,,,,,,,,,,,,,,,,,,,,,,,,,,,976014,2010-12-29_12h03.00.969,eb_02psyexp,2022.2.4,119.98373857367405,
,,,,,,,,,,,,,,,,,,,,,,,,,,,,,,,,,,,,,28.221363395801745,28.221363395801745,28.221363395801745,1,[7.141930122743361],[7.141935254097916],0,,,35.355277324910276,37.34710809402168,37.34710809402168,space,1.7974549065111205,,,,,,,,,,,,,,,,,,,,,,,,,,,,,,,,,,,,,,,,,,,,,,,,,,,,,,,,,,,,,976014,2010-12-29_12h03.00.969,eb_02psyexp,2022.2.4,119.98373857367405,
,,,,,,,,,,,,,,,,,,,,,,,,,,,,,,,,,,,,,,,,,,,,,,,,,,,39.155575189040974,42.14750194607768,42.14750194607768,space,5.453233088832349,,,,,,,,,,,,,,,,,,,,,,,,,,,,,,,,,,,,,,,,,,,,,,,,,,,,,,,,976014,2010-12-29_12h03.00.969,eb_02psyexp,2022.2.4,119.98373857367405,
,,,,,,,,,,,,,,,,,,,,,,,,,,,,,,,,,,,,,,,,,,,,,,,,,,,,,,,,47.61459788179491,50.606524940696545,50.606524940696545,space,10.889424556284212,,,,,,,,,,,,,,,,,,,,,,,,,,,,,,,,,,,,,,,,,,,,,,,,,,,976014,2010-12-29_12h03.00.969,eb_02psyexp,2022.2.4,119.98373857367405,
0,0,0,0,,,,,,,,,,,,,,,,,,,,,,,,,,,,,,,,,,,,,,,,,,,,,,,,,,,,,,,,,,61.51573370792903,66.55783736333251,66.55783736333251,66.55783736333251,66.55783736333251,66.55783736333251,66.55783736333251,l,1,1.3052246406441554,67.87460725719575,68.89969389524776,,,,,,,,,,,,,,,,,,,,,,,,,,,,,,,,,,,,,,,976014,2010-12-29_12h03.00.969,eb_02psyexp,2022.2.4,119.98373857367405,
1,0,1,0,,,,,,,,,,,,,,,,,,,,,,,,,,,,,,,,,,,,,,,,,,,,,,,,,,,,,,,,,,,68.89969389524776,68.89969389524776,68.89969389524776,68.89969389524776,68.89969389524776,68.89969389524776,l,1,2.6114038742380217,71.52492016856559,72.54999382712413,,,,,,,,,,,,,,,,,,,,,,,,,,,,,,,,,,,,,,,976014,2010-12-29_12h03.00.969,eb_02psyexp,2022.2.4,119.98373857367405,
2,0,2,0,,,,,,,,,,,,,,,,,,,,,,,,,,,,,,,,,,,,,,,,,,,,,,,,,,,,,,,,,,,72.54999382712413,72.54999382712413,72.54999382712413,72.54999382712413,72.54999382712413,72.54999382712413,s,1,1.5531709381612018,74.11680092383176,75.14186281035654,,,,,,,,,,,,,,,,,,,,,,,,,,,,,,,,,,,,,,,976014,2010-12-29_12h03.00.969,eb_02psyexp,2022.2.4,119.98373857367405,
3,0,3,0,,,,,,,,,,,,,,,,,,,,,,,,,,,,,,,,,,,,,,,,,,,,,,,,,,,,,,,,,,,75.14186281035654,75.14186281035654,75.14186281035654,75.14186281035654,75.14186281035654,75.14186281035654,l,1,2.649355903849937,77.80040109634865,78.82548049010802,,,,,,,,,,,,,,,,,,,,,,,,,,,,,,,,,,,,,,,976014,2010-12-29_12h03.00.969,eb_02psyexp,2022.2.4,119.98373857367405,
4,0,4,0,,,,,,,,,,,,,,,,,,,,,,,,,,,,,,,,,,,,,,,,,,,,,,,,,,,,,,,,,,,78.82548049010802,78.82548049010802,78.82548049010802,78.82548049010802,78.82548049010802,78.82548049010802,s,1,1.157817474915646,79.99228474940173,81.01737048197538,,,,,,,,,,,,,,,,,,,,,,,,,,,,,,,,,,,,,,,976014,2010-12-29_12h03.00.969,eb_02psyexp,2022.2.4,119.98373857367405,
5,0,5,0,,,,,,,,,,,,,,,,,,,,,,,,,,,,,,,,,,,,,,,,,,,,,,,,,,,,,,,,,,,81.01737048197538,81.01737048197538,81.01737048197538,81.01737048197538,81.01737048197538,81.01737048197538,l,1,2.0059517035260797,83.0342027680017,84.05926646559965,,,,,,,,,,,,,,,,,,,,,,,,,,,,,,,,,,,,,,,976014,2010-12-29_12h03.00.969,eb_02psyexp,2022.2.4,119.98373857367405,
6,0,6,0,,,,,,,,,,,,,,,,,,,,,,,,,,,,,,,,,,,,,,,,,,,,,,,,,,,,,,,,,,,84.05926646559965,84.05926646559965,84.05926646559965,84.05926646559965,84.05926646559965,84.05926646559965,s,1,2.0191231694770977,86.09277317067608,87.11784018867183,,,,,,,,,,,,,,,,,,,,,,,,,,,,,,,,,,,,,,,976014,2010-12-29_12h03.00.969,eb_02psyexp,2022.2.4,119.98373857367405,
7,0,7,0,,,,,,,,,,,,,,,,,,,,,,,,,,,,,,,,,,,,,,,,,,,,,,,,,,,,,,,,,,,87.11784018867183,87.11784018867183,87.11784018867183,87.11784018867183,87.11784018867183,87.11784018867183,l,1,1.6885723773157224,88.81799222982954,89.84308430110104,,,,,,,,,,,,,,,,,,,,,,,,,,,,,,,,,,,,,,,976014,2010-12-29_12h03.00.969,eb_02psyexp,2022.2.4,119.98373857367405,
8,0,8,0,,,,,,,,,,,,,,,,,,,,,,,,,,,,,,,,,,,,,,,,,,,,,,,,,,,,,,,,,,,89.84308430110104,89.84308430110104,89.84308430110104,89.84308430110104,89.84308430110104,89.84308430110104,l,1,1.5073862390127033,91.35986934776884,92.38494240271393,,,,,,,,,,,,,,,,,,,,,,,,,,,,,,,,,,,,,,,976014,2010-12-29_12h03.00.969,eb_02psyexp,2022.2.4,119.98373857367405,
9,0,9,0,,,,,,,,,,,,,,,,,,,,,,,,,,,,,,,,,,,,,,,,,,,,,,,,,,,,,,,,,,,92.38494240271393,92.38494240271393,92.38494240271393,92.38494240271393,92.38494240271393,92.38494240271393,l,1,1.3735495831351727,93.76842174527701,94.79349359276239,,,,,,,,,,,,,,,,,,,,,,,,,,,,,,,,,,,,,,,976014,2010-12-29_12h03.00.969,eb_02psyexp,2022.2.4,119.98373857367405,
10,0,10,0,,,,,,,,,,,,,,,,,,,,,,,,,,,,,,,,,,,,,,,,,,,,,,,,,,,,,,,,,,,94.79349359276239,94.79349359276239,94.79349359276239,94.79349359276239,94.79349359276239,94.79349359276239,s,1,0.9970052124699578,95.8018759287661,96.82697765924968,,,,,,,,,,,,,,,,,,,,,,,,,,,,,,,,,,,,,,,976014,2010-12-29_12h03.00.969,eb_02psyexp,2022.2.4,119.98373857367405,
11,0,11,0,,,,,,,,,,,,,,,,,,,,,,,,,,,,,,,,,,,,,,,,,,,,,,,,,,,,,,,,,,,96.82697765924968,96.82697765924968,96.82697765924968,96.82697765924968,96.82697765924968,96.82697765924968,s,1,1.9866321849403903,98.82717295526527,99.85224601021037,,,,,,,,,,,,,,,,,,,,,,,,,,,,,,,,,,,,,,,976014,2010-12-29_12h03.00.969,eb_02psyexp,2022.2.4,119.98373857367405,
12,0,12,0,,,,,,,,,,,,,,,,,,,,,,,,,,,,,,,,,,,,,,,,,,,,,,,,,,,,,,,,,,,99.85224601021037,99.85224601021037,99.85224601021037,99.85224601021037,99.85224601021037,99.85224601021037,s,1,0.6013677096925676,100.46896015258972,101.50238052906934,,,,,,,,,,,,,,,,,,,,,,,,,,,,,,,,,,,,,,,976014,2010-12-29_12h03.00.969,eb_02psyexp,2022.2.4,119.98373857367405,
13,0,13,0,,,,,,,,,,,,,,,,,,,,,,,,,,,,,,,,,,,,,,,,,,,,,,,,,,,,,,,,,,,101.50238052906934,101.50238052906934,101.50238052906934,101.50238052906934,101.50238052906934,101.50238052906934,l,1,1.7592982235364616,103.27752383926418,104.31095960992388,,,,,,,,,,,,,,,,,,,,,,,,,,,,,,,,,,,,,,,976014,2010-12-29_12h03.00.969,eb_02psyexp,2022.2.4,119.98373857367405,
14,0,14,0,,,,,,,,,,,,,,,,,,,,,,,,,,,,,,,,,,,,,,,,,,,,,,,,,,,,,,,,,,,104.31095960992388,104.31095960992388,104.31095960992388,104.31095960992388,104.31095960992388,104.31095960992388,s,1,1.0867354472866282,105.41100371000357,106.44443676399533,,,,,,,,,,,,,,,,,,,,,,,,,,,,,,,,,,,,,,,976014,2010-12-29_12h03.00.969,eb_02psyexp,2022.2.4,119.98373857367405,
15,0,15,0,,,,,,,,,,,,,,,,,,,,,,,,,,,,,,,,,,,,,,,,,,,,,,,,,,,,,,,,,,,106.44443676399533,106.44443676399533,106.44443676399533,106.44443676399533,106.44443676399533,106.44443676399533,l,1,0.7932939233724028,107.25285133742727,108.27794823830482,,,,,,,,,,,,,,,,,,,,,,,,,,,,,,,,,,,,,,,976014,2010-12-29_12h03.00.969,eb_02psyexp,2022.2.4,119.98373857367405,
16,0,16,0,,,,,,,,,,,,,,,,,,,,,,,,,,,,,,,,,,,,,,,,,,,,,,,,,,,,,,,,,,,108.27794823830482,108.27794823830482,108.27794823830482,108.27794823830482,108.27794823830482,108.27794823830482,s,1,0.9758299286477268,109.26968603814021,110.3031073200982,,,,,,,,,,,,,,,,,,,,,,,,,,,,,,,,,,,,,,,976014,2010-12-29_12h03.00.969,eb_02psyexp,2022.2.4,119.98373857367405,
17,0,17,0,,,,,,,,,,,,,,,,,,,,,,,,,,,,,,,,,,,,,,,,,,,,,,,,,,,,,,,,,,,110.3031073200982,110.3031073200982,110.3031073200982,110.3031073200982,110.3031073200982,110.3031073200982,s,1,1.4066982958465815,111.71991346601862,112.73662229592446,,,,,,,,,,,,,,,,,,,,,,,,,,,,,,,,,,,,,,,976014,2010-12-29_12h03.00.969,eb_02psyexp,2022.2.4,119.98373857367405,
18,0,18,0,,,,,,,,,,,,,,,,,,,,,,,,,,,,,,,,,,,,,,,,,,,,,,,,,,,,,,,,,,,112.73662229592446,112.73662229592446,112.73662229592446,112.73662229592446,112.73662229592446,112.73662229592446,l,1,1.0372346898075193,113.78673852270003,114.82016674720217,,,,,,,,,,,,,,,,,,,,,,,,,,,,,,,,,,,,,,,976014,2010-12-29_12h03.00.969,eb_02psyexp,2022.2.4,119.98373857367405,
19,0,19,0,,,,,,,,,,,,,,,,,,,,,,,,,,,,,,,,,,,,,,,,,,,,,,,,,,,,,,,,,,,114.82016674720217,114.82016674720217,114.82016674720217,114.82016674720217,114.82016674720217,114.82016674720217,s,1,0.8407170568825677,115.67022797721438,116.68695642717648,,,,,,,,,,,,,,,,,,,,,,,,,,,,,,,,,,,,,,,976014,2010-12-29_12h03.00.969,eb_02psyexp,2022.2.4,119.98373857367405,
20,0,20,0,,,,,,,,,,,,,,,,,,,,,,,,,,,,,,,,,,,,,,,,,,,,,,,,,,,,,,,,,,,116.68695642717648,116.68695642717648,116.68695642717648,116.68695642717648,116.68695642717648,116.68695642717648,l,1,0.7420004869345576,117.44536223192699,118.47042955167126,,,,,,,,,,,,,,,,,,,,,,,,,,,,,,,,,,,,,,,976014,2010-12-29_12h03.00.969,eb_02psyexp,2022.2.4,119.98373857367405,
21,0,21,0,,,,,,,,,,,,,,,,,,,,,,,,,,,,,,,,,,,,,,,,,,,,,,,,,,,,,,,,,,,118.47042955167126,118.47042955167126,118.47042955167126,118.47042955167126,118.47042955167126,118.47042955167126,s,1,0.8945291180862114,119.37885441805702,120.39558558480348,,,,,,,,,,,,,,,,,,,,,,,,,,,,,,,,,,,,,,,976014,2010-12-29_12h03.00.969,eb_02psyexp,2022.2.4,119.98373857367405,
22,0,22,0,,,,,,,,,,,,,,,,,,,,,,,,,,,,,,,,,,,,,,,,,,,,,,,,,,,,,,,,,,,120.39558558480348,120.39558558480348,120.39558558480348,120.39558558480348,120.39558558480348,120.39558558480348,l,1,0.745404735673219,121.15398806903977,122.18742082128301,,,,,,,,,,,,,,,,,,,,,,,,,,,,,,,,,,,,,,,976014,2010-12-29_12h03.00.969,eb_02psyexp,2022.2.4,119.98373857367405,
23,0,23,0,,,,,,,,,,,,,,,,,,,,,,,,,,,,,,,,,,,,,,,,,,,,,,,,,,,,,,,,,,,122.18742082128301,122.18742082128301,122.18742082128301,122.18742082128301,122.18742082128301,122.18742082128301,s,1,0.6735883103683591,122.8708078886848,123.90420955047011,,,,,,,,,,,,,,,,,,,,,,,,,,,,,,,,,,,,,,,976014,2010-12-29_12h03.00.969,eb_02psyexp,2022.2.4,119.98373857367405,
24,0,24,0,,,,,,,,,,,,,,,,,,,,,,,,,,,,,,,,,,,,,,,,,,,,,,,,,,,,,,,,,,,123.90420955047011,123.90420955047011,123.90420955047011,123.90420955047011,123.90420955047011,123.90420955047011,s,1,0.6048238762887195,124.52092701324727,125.53768172417767,,,,,,,,,,,,,,,,,,,,,,,,,,,,,,,,,,,,,,,976014,2010-12-29_12h03.00.969,eb_02psyexp,2022.2.4,119.98373857367405,
25,0,25,0,,,,,,,,,,,,,,,,,,,,,,,,,,,,,,,,,,,,,,,,,,,,,,,,,,,,,,,,,,,125.53768172417767,125.53768172417767,125.53768172417767,125.53768172417767,125.53768172417767,125.53768172417767,l,1,0.6754006093833596,126.22943241288885,127.2545039585093,,,,,,,,,,,,,,,,,,,,,,,,,,,,,,,,,,,,,,,976014,2010-12-29_12h03.00.969,eb_02psyexp,2022.2.4,119.98373857367405,
26,0,26,0,,,,,,,,,,,,,,,,,,,,,,,,,,,,,,,,,,,,,,,,,,,,,,,,,,,,,,,,,,,127.2545039585093,127.2545039585093,127.2545039585093,127.2545039585093,127.2545039585093,127.2545039585093,s,0,3.061625566915609,130.32976538210642,131.34649232286029,,,,,,,,,,,,,,,,,,,,,,,,,,,,,,,,,,,,,,,976014,2010-12-29_12h03.00.969,eb_02psyexp,2022.2.4,119.98373857367405,
27,0,27,0,,,,,,,,,,,,,,,,,,,,,,,,,,,,,,,,,,,,,,,,,,,,,,,,,,,,,,,,,,,131.34649232286029,131.34649232286029,131.34649232286029,131.34649232286029,131.34649232286029,131.34649232286029,l,1,1.529670816496946,132.888322956278,133.91336944850627,,,,,,,,,,,,,,,,,,,,,,,,,,,,,,,,,,,,,,,976014,2010-12-29_12h03.00.969,eb_02psyexp,2022.2.4,119.98373857367405,
28,0,28,0,,,,,,,,,,,,,,,,,,,,,,,,,,,,,,,,,,,,,,,,,,,,,,,,,,,,,,,,,,,133.91336944850627,133.91336944850627,133.91336944850627,133.91336944850627,133.91336944850627,133.91336944850627,s,1,0.9388254018267617,134.86343584011775,135.88024910958484,,,,,,,,,,,,,,,,,,,,,,,,,,,,,,,,,,,,,,,976014,2010-12-29_12h03.00.969,eb_02psyexp,2022.2.4,119.98373857367405,
29,0,29,0,,,,,,,,,,,,,,,,,,,,,,,,,,,,,,,,,,,,,,,,,,,,,,,,,,,,,,,,,,,135.88024910958484,135.88024910958484,135.88024910958484,135.88024910958484,135.88024910958484,135.88024910958484,l,1,0.6600096506299451,136.55527497048024,137.58870862820186,,,,,,,,,,,,,,,,,,,,,,,,,,,,,,,,,,,,,,,976014,2010-12-29_12h03.00.969,eb_02psyexp,2022.2.4,119.98373857367405,
30,0,30,0,,,,,,,,,,,,,,,,,,,,,,,,,,,,,,,,,,,,,,,,,,,,,,,,,,,,,,,,,,,137.58870862820186,137.58870862820186,137.58870862820186,137.58870862820186,137.58870862820186,137.58870862820186,s,1,0.895562345860526,138.49709938571323,139.51382240245584,,,,,,,,,,,,,,,,,,,,,,,,,,,,,,,,,,,,,,,976014,2010-12-29_12h03.00.969,eb_02psyexp,2022.2.4,119.98373857367405,
31,0,31,0,,,,,,,,,,,,,,,,,,,,,,,,,,,,,,,,,,,,,,,,,,,,,,,,,,,,,,,,,,,139.51382240245584,139.51382240245584,139.51382240245584,139.51382240245584,139.51382240245584,139.51382240245584,l,1,0.8745008589467034,140.39728016289882,141.42237253603525,,,,,,,,,,,,,,,,,,,,,,,,,,,,,,,,,,,,,,,976014,2010-12-29_12h03.00.969,eb_02psyexp,2022.2.4,119.98373857367405,
32,0,32,0,,,,,,,,,,,,,,,,,,,,,,,,,,,,,,,,,,,,,,,,,,,,,,,,,,,,,,,,,,,141.42237253603525,141.42237253603525,141.42237253603525,141.42237253603525,141.42237253603525,141.42237253603525,s,1,0.7899557796772569,142.22243043070193,143.23913986422122,,,,,,,,,,,,,,,,,,,,,,,,,,,,,,,,,,,,,,,976014,2010-12-29_12h03.00.969,eb_02psyexp,2022.2.4,119.98373857367405,
33,0,33,0,,,,,,,,,,,,,,,,,,,,,,,,,,,,,,,,,,,,,,,,,,,,,,,,,,,,,,,,,,,143.23913986422122,143.23913986422122,143.23913986422122,143.23913986422122,143.23913986422122,143.23913986422122,l,1,1.3243047932628542,144.57261617318727,145.5976687023649,,,,,,,,,,,,,,,,,,,,,,,,,,,,,,,,,,,,,,,976014,2010-12-29_12h03.00.969,eb_02psyexp,2022.2.4,119.98373857367405,
34,0,34,0,,,,,,,,,,,,,,,,,,,,,,,,,,,,,,,,,,,,,,,,,,,,,,,,,,,,,,,,,,,145.5976687023649,145.5976687023649,145.5976687023649,145.5976687023649,145.5976687023649,145.5976687023649,s,1,0.9577685152180493,146.56443335919175,147.58116905356292,,,,,,,,,,,,,,,,,,,,,,,,,,,,,,,,,,,,,,,976014,2010-12-29_12h03.00.969,eb_02psyexp,2022.2.4,119.98373857367405,
35,0,35,0,,,,,,,,,,,,,,,,,,,,,,,,,,,,,,,,,,,,,,,,,,,,,,,,,,,,,,,,,,,147.58116905356292,147.58116905356292,147.58116905356292,147.58116905356292,147.58116905356292,147.58116905356292,l,1,1.3343267708551139,148.9313110280782,149.9563819700852,,,,,,,,,,,,,,,,,,,,,,,,,,,,,,,,,,,,,,,976014,2010-12-29_12h03.00.969,eb_02psyexp,2022.2.4,119.98373857367405,
36,0,36,0,,,,,,,,,,,,,,,,,,,,,,,,,,,,,,,,,,,,,,,,,,,,,,,,,,,,,,,,,,,149.9563819700852,149.9563819700852,149.9563819700852,149.9563819700852,149.9563819700852,149.9563819700852,l,1,1.1831262736814097,151.1481599761173,152.16488118178677,,,,,,,,,,,,,,,,,,,,,,,,,,,,,,,,,,,,,,,976014,2010-12-29_12h03.00.969,eb_02psyexp,2022.2.4,119.98373857367405,
37,0,37,0,,,,,,,,,,,,,,,,,,,,,,,,,,,,,,,,,,,,,,,,,,,,,,,,,,,,,,,,,,,152.16488118178677,152.16488118178677,152.16488118178677,152.16488118178677,152.16488118178677,152.16488118178677,l,1,0.9426736697787419,153.12330213922542,154.148411415983,,,,,,,,,,,,,,,,,,,,,,,,,,,,,,,,,,,,,,,976014,2010-12-29_12h03.00.969,eb_02psyexp,2022.2.4,119.98373857367405,
38,0,38,0,,,,,,,,,,,,,,,,,,,,,,,,,,,,,,,,,,,,,,,,,,,,,,,,,,,,,,,,,,,154.148411415983,154.148411415983,154.148411415983,154.148411415983,154.148411415983,154.148411415983,s,1,0.5431383958784863,154.7067664497299,155.7318736135494,,,,,,,,,,,,,,,,,,,,,,,,,,,,,,,,,,,,,,,976014,2010-12-29_12h03.00.969,eb_02psyexp,2022.2.4,119.98373857367405,
39,0,39,0,,,,,,,,,,,,,,,,,,,,,,,,,,,,,,,,,,,,,,,,,,,,,,,,,,,,,,,,,,,155.7318736135494,155.7318736135494,155.7318736135494,155.7318736135494,155.7318736135494,155.7318736135494,l,1,0.65573426685296,156.39862610585988,157.43200090306345,,,,,,,,,,,,,,,,,,,,,,,,,,,,,,,,,,,,,,,976014,2010-12-29_12h03.00.969,eb_02psyexp,2022.2.4,119.98373857367405,
40,0,40,0,,,,,,,,,,,,,,,,,,,,,,,,,,,,,,,,,,,,,,,,,,,,,,,,,,,,,,,,,,,157.43200090306345,157.43200090306345,157.43200090306345,157.43200090306345,157.43200090306345,157.43200090306345,s,1,0.6116302607115358,158.05706659285352,159.07378538383637,,,,,,,,,,,,,,,,,,,,,,,,,,,,,,,,,,,,,,,976014,2010-12-29_12h03.00.969,eb_02psyexp,2022.2.4,119.98373857367405,
41,0,41,0,,,,,,,,,,,,,,,,,,,,,,,,,,,,,,,,,,,,,,,,,,,,,,,,,,,,,,,,,,,159.07378538383637,159.07378538383637,159.07378538383637,159.07378538383637,159.07378538383637,159.07378538383637,s,1,1.9449227437144145,161.03229629213456,162.05739681527484,,,,,,,,,,,,,,,,,,,,,,,,,,,,,,,,,,,,,,,976014,2010-12-29_12h03.00.969,eb_02psyexp,2022.2.4,119.98373857367405,
42,0,42,0,,,,,,,,,,,,,,,,,,,,,,,,,,,,,,,,,,,,,,,,,,,,,,,,,,,,,,,,,,,162.05739681527484,162.05739681527484,162.05739681527484,162.05739681527484,162.05739681527484,162.05739681527484,l,1,1.049340932047926,163.11584738409147,164.13257643778343,,,,,,,,,,,,,,,,,,,,,,,,,,,,,,,,,,,,,,,976014,2010-12-29_12h03.00.969,eb_02psyexp,2022.2.4,119.98373857367405,
43,0,43,0,,,,,,,,,,,,,,,,,,,,,,,,,,,,,,,,,,,,,,,,,,,,,,,,,,,,,,,,,,,164.13257643778343,164.13257643778343,164.13257643778343,164.13257643778343,164.13257643778343,164.13257643778343,l,1,0.5181767230387777,164.66591244761366,165.69935002934653,,,,,,,,,,,,,,,,,,,,,,,,,,,,,,,,,,,,,,,976014,2010-12-29_12h03.00.969,eb_02psyexp,2022.2.4,119.98373857367405,
44,0,44,0,,,,,,,,,,,,,,,,,,,,,,,,,,,,,,,,,,,,,,,,,,,,,,,,,,,,,,,,,,,165.69935002934653,165.69935002934653,165.69935002934653,165.69935002934653,165.69935002934653,165.69935002934653,s,1,1.2874472667463124,166.99947176489513,168.02452670887578,,,,,,,,,,,,,,,,,,,,,,,,,,,,,,,,,,,,,,,976014,2010-12-29_12h03.00.969,eb_02psyexp,2022.2.4,119.98373857367405,
45,0,45,0,,,,,,,,,,,,,,,,,,,,,,,,,,,,,,,,,,,,,,,,,,,,,,,,,,,,,,,,,,,168.02452670887578,168.02452670887578,168.02452670887578,168.02452670887578,168.02452670887578,168.02452670887578,s,1,0.49829214403871447,168.53293455101084,169.54968594154343,,,,,,,,,,,,,,,,,,,,,,,,,,,,,,,,,,,,,,,976014,2010-12-29_12h03.00.969,eb_02psyexp,2022.2.4,119.98373857367405,
46,0,46,0,,,,,,,,,,,,,,,,,,,,,,,,,,,,,,,,,,,,,,,,,,,,,,,,,,,,,,,,,,,169.54968594154343,169.54968594154343,169.54968594154343,169.54968594154343,169.54968594154343,169.54968594154343,l,1,0.549124053795822,170.1080171292415,171.13314904470462,,,,,,,,,,,,,,,,,,,,,,,,,,,,,,,,,,,,,,,976014,2010-12-29_12h03.00.969,eb_02psyexp,2022.2.4,119.98373857367405,
47,0,47,0,,,,,,,,,,,,,,,,,,,,,,,,,,,,,,,,,,,,,,,,,,,,,,,,,,,,,,,,,,,171.13314904470462,171.13314904470462,171.13314904470462,171.13314904470462,171.13314904470462,171.13314904470462,l,1,0.829695054795593,171.9748538977001,172.99160287342966,,,,,,,,,,,,,,,,,,,,,,,,,,,,,,,,,,,,,,,976014,2010-12-29_12h03.00.969,eb_02psyexp,2022.2.4,119.98373857367405,
48,0,48,0,,,,,,,,,,,,,,,,,,,,,,,,,,,,,,,,,,,,,,,,,,,,,,,,,,,,,,,,,,,172.99160287342966,172.99160287342966,172.99160287342966,172.99160287342966,172.99160287342966,172.99160287342966,s,1,0.6192908765515313,173.62505089922342,174.6584235834889,,,,,,,,,,,,,,,,,,,,,,,,,,,,,,,,,,,,,,,976014,2010-12-29_12h03.00.969,eb_02psyexp,2022.2.4,119.98373857367405,
49,0,49,0,,,,,,,,,,,,,,,,,,,,,,,,,,,,,,,,,,,,,,,,,,,,,,,,,,,,,,,,,,,174.6584235834889,174.6584235834889,174.6584235834889,174.6584235834889,174.6584235834889,174.6584235834889,s,1,0.7445003972388804,175.41681520128623,176.4418945950456,,,,,,,,,,,,,,,,,,,,,,,,,,,,,,,,,,,,,,,976014,2010-12-29_12h03.00.969,eb_02psyexp,2022.2.4,119.98373857367405,
50,0,50,0,,,,,,,,,,,,,,,,,,,,,,,,,,,,,,,,,,,,,,,,,,,,,,,,,,,,,,,,,,,176.4418945950456,176.4418945950456,176.4418945950456,176.4418945950456,176.4418945950456,176.4418945950456,s,1,0.5360715162241831,176.99195241415873,178.00868418451864,,,,,,,,,,,,,,,,,,,,,,,,,,,,,,,,,,,,,,,976014,2010-12-29_12h03.00.969,eb_02psyexp,2022.2.4,119.98373857367405,
51,0,51,0,,,,,,,,,,,,,,,,,,,,,,,,,,,,,,,,,,,,,,,,,,,,,,,,,,,,,,,,,,,178.00868418451864,178.00868418451864,178.00868418451864,178.00868418451864,178.00868418451864,178.00868418451864,s,1,0.9212976567214355,178.94213924335781,179.96717939677183,,,,,,,,,,,,,,,,,,,,,,,,,,,,,,,,,,,,,,,976014,2010-12-29_12h03.00.969,eb_02psyexp,2022.2.4,119.98373857367405,
52,0,52,0,,,,,,,,,,,,,,,,,,,,,,,,,,,,,,,,,,,,,,,,,,,,,,,,,,,,,,,,,,,179.96717939677183,179.96717939677183,179.96717939677183,179.96717939677183,179.96717939677183,179.96717939677183,s,1,0.8668480911292136,180.84226327296346,181.87570357136428,,,,,,,,,,,,,,,,,,,,,,,,,,,,,,,,,,,,,,,976014,2010-12-29_12h03.00.969,eb_02psyexp,2022.2.4,119.98373857367405,
53,0,53,0,,,,,,,,,,,,,,,,,,,,,,,,,,,,,,,,,,,,,,,,,,,,,,,,,,,,,,,,,,,181.87570357136428,181.87570357136428,181.87570357136428,181.87570357136428,181.87570357136428,181.87570357136428,s,1,0.8783464103471488,182.76743077626452,183.78421778499614,,,,,,,,,,,,,,,,,,,,,,,,,,,,,,,,,,,,,,,976014,2010-12-29_12h03.00.969,eb_02psyexp,2022.2.4,119.98373857367405,
54,0,54,0,,,,,,,,,,,,,,,,,,,,,,,,,,,,,,,,,,,,,,,,,,,,,,,,,,,,,,,,,,,183.78421778499614,183.78421778499614,183.78421778499614,183.78421778499614,183.78421778499614,183.78421778499614,l,1,0.6818574529606849,184.4759053873131,185.50099081802182,,,,,,,,,,,,,,,,,,,,,,,,,,,,,,,,,,,,,,,976014,2010-12-29_12h03.00.969,eb_02psyexp,2022.2.4,119.98373857367405,
55,0,55,0,,,,,,,,,,,,,,,,,,,,,,,,,,,,,,,,,,,,,,,,,,,,,,,,,,,,,,,,,,,185.50099081802182,185.50099081802182,185.50099081802182,185.50099081802182,185.50099081802182,185.50099081802182,l,1,0.9971232352545485,186.50938975566532,187.52613933512475,,,,,,,,,,,,,,,,,,,,,,,,,,,,,,,,,,,,,,,976014,2010-12-29_12h03.00.969,eb_02psyexp,2022.2.4,119.98373857367405,
56,0,56,0,,,,,,,,,,,,,,,,,,,,,,,,,,,,,,,,,,,,,,,,,,,,,,,,,,,,,,,,,,,187.52613933512475,187.52613933512475,187.52613933512475,187.52613933512475,187.52613933512475,187.52613933512475,l,1,0.4919925634749234,188.03453449963126,189.05960000830237,,,,,,,,,,,,,,,,,,,,,,,,,,,,,,,,,,,,,,,976014,2010-12-29_12h03.00.969,eb_02psyexp,2022.2.4,119.98373857367405,
57,0,57,0,,,,,,,,,,,,,,,,,,,,,,,,,,,,,,,,,,,,,,,,,,,,,,,,,,,,,,,,,,,189.05960000830237,189.05960000830237,189.05960000830237,189.05960000830237,189.05960000830237,189.05960000830237,s,1,0.6945492816157639,189.76801183482166,190.8014433796052,,,,,,,,,,,,,,,,,,,,,,,,,,,,,,,,,,,,,,,976014,2010-12-29_12h03.00.969,eb_02psyexp,2022.2.4,119.98373857367405,
58,0,58,0,,,,,,,,,,,,,,,,,,,,,,,,,,,,,,,,,,,,,,,,,,,,,,,,,,,,,,,,,,,190.8014433796052,190.8014433796052,190.8014433796052,190.8014433796052,190.8014433796052,190.8014433796052,s,1,0.5527317485539243,191.36811011680402,192.38490919931792,,,,,,,,,,,,,,,,,,,,,,,,,,,,,,,,,,,,,,,976014,2010-12-29_12h03.00.969,eb_02psyexp,2022.2.4,119.98373857367405,
59,0,59,0,,,,,,,,,,,,,,,,,,,,,,,,,,,,,,,,,,,,,,,,,,,,,,,,,,,,,,,,,,,192.38490919931792,192.38490919931792,192.38490919931792,192.38490919931792,192.38490919931792,192.38490919931792,l,1,0.8323757722973824,193.2266294467263,194.2600510304328,,,,,,,,,,,,,,,,,,,,,,,,,,,,,,,,,,,,,,,976014,2010-12-29_12h03.00.969,eb_02psyexp,2022.2.4,119.98373857367405,
60,0,60,0,,,,,,,,,,,,,,,,,,,,,,,,,,,,,,,,,,,,,,,,,,,,,,,,,,,,,,,,,,,194.2600510304328,194.2600510304328,194.2600510304328,194.2600510304328,194.2600510304328,194.2600510304328,s,1,0.741222019540146,195.0101240023505,196.02688686316833,,,,,,,,,,,,,,,,,,,,,,,,,,,,,,,,,,,,,,,976014,2010-12-29_12h03.00.969,eb_02psyexp,2022.2.4,119.98373857367405,
61,0,61,0,,,,,,,,,,,,,,,,,,,,,,,,,,,,,,,,,,,,,,,,,,,,,,,,,,,,,,,,,,,196.02688686316833,196.02688686316833,196.02688686316833,196.02688686316833,196.02688686316833,196.02688686316833,s,1,0.8944089823635295,196.93526796158403,197.96038901037537,,,,,,,,,,,,,,,,,,,,,,,,,,,,,,,,,,,,,,,976014,2010-12-29_12h03.00.969,eb_02psyexp,2022.2.4,119.98373857367405,
62,0,62,0,,,,,,,,,,,,,,,,,,,,,,,,,,,,,,,,,,,,,,,,,,,,,,,,,,,,,,,,,,,197.96038901037537,197.96038901037537,197.96038901037537,197.96038901037537,197.96038901037537,197.96038901037537,s,1,0.8489466574974358,198.8187565105036,199.84384375228547,,,,,,,,,,,,,,,,,,,,,,,,,,,,,,,,,,,,,,,976014,2010-12-29_12h03.00.969,eb_02psyexp,2022.2.4,119.98373857367405,
63,0,63,0,,,,,,,,,,,,,,,,,,,,,,,,,,,,,,,,,,,,,,,,,,,,,,,,,,,,,,,,,,,199.84384375228547,199.84384375228547,199.84384375228547,199.84384375228547,199.84384375228547,199.84384375228547,s,1,0.885522861033678,200.74391314724926,201.76898710767273,,,,,,,,,,,,,,,,,,,,,,,,,,,,,,,,,,,,,,,976014,2010-12-29_12h03.00.969,eb_02psyexp,2022.2.4,119.98373857367405,
64,0,64,0,,,,,,,,,,,,,,,,,,,,,,,,,,,,,,,,,,,,,,,,,,,,,,,,,,,,,,,,,,,201.76898710767273,201.76898710767273,201.76898710767273,201.76898710767273,201.76898710767273,201.76898710767273,l,1,0.5684155004564673,202.35239980206825,203.3774954956025,,,,,,,,,,,,,,,,,,,,,,,,,,,,,,,,,,,,,,,976014,2010-12-29_12h03.00.969,eb_02psyexp,2022.2.4,119.98373857367405,
65,0,65,0,,,,,,,,,,,,,,,,,,,,,,,,,,,,,,,,,,,,,,,,,,,,,,,,,,,,,,,,,,,203.3774954956025,203.3774954956025,203.3774954956025,203.3774954956025,203.3774954956025,203.3774954956025,l,1,0.8079190923599526,204.19420426513534,205.21929754386656,,,,,,,,,,,,,,,,,,,,,,,,,,,,,,,,,,,,,,,976014,2010-12-29_12h03.00.969,eb_02psyexp,2022.2.4,119.98373857367405,
66,0,66,0,,,,,,,,,,,,,,,,,,,,,,,,,,,,,,,,,,,,,,,,,,,,,,,,,,,,,,,,,,,205.21929754386656,205.21929754386656,205.21929754386656,205.21929754386656,205.21929754386656,205.21929754386656,s,1,0.5981497016036883,205.8276876071468,206.8527573416941,,,,,,,,,,,,,,,,,,,,,,,,,,,,,,,,,,,,,,,976014,2010-12-29_12h03.00.969,eb_02psyexp,2022.2.4,119.98373857367405,
67,0,67,0,,,,,,,,,,,,,,,,,,,,,,,,,,,,,,,,,,,,,,,,,,,,,,,,,,,,,,,,,,,206.8527573416941,206.8527573416941,206.8527573416941,206.8527573416941,206.8527573416941,206.8527573416941,s,1,0.7717642693314701,207.6361700964626,208.6612343977904,,,,,,,,,,,,,,,,,,,,,,,,,,,,,,,,,,,,,,,976014,2010-12-29_12h03.00.969,eb_02psyexp,2022.2.4,119.98373857367405,
68,0,68,0,,,,,,,,,,,,,,,,,,,,,,,,,,,,,,,,,,,,,,,,,,,,,,,,,,,,,,,,,,,208.6612343977904,208.6612343977904,208.6612343977904,208.6612343977904,208.6612343977904,208.6612343977904,s,1,0.5952658400638029,209.26966551248915,210.29469811962917,,,,,,,,,,,,,,,,,,,,,,,,,,,,,,,,,,,,,,,976014,2010-12-29_12h03.00.969,eb_02psyexp,2022.2.4,119.98373857367405,
69,0,69,0,,,,,,,,,,,,,,,,,,,,,,,,,,,,,,,,,,,,,,,,,,,,,,,,,,,,,,,,,,,210.29469811962917,210.29469811962917,210.29469811962917,210.29469811962917,210.29469811962917,210.29469811962917,s,1,0.4818694666028023,210.786417053896,211.81152633065358,,,,,,,,,,,,,,,,,,,,,,,,,,,,,,,,,,,,,,,976014,2010-12-29_12h03.00.969,eb_02psyexp,2022.2.4,119.98373857367405,
70,0,70,0,,,,,,,,,,,,,,,,,,,,,,,,,,,,,,,,,,,,,,,,,,,,,,,,,,,,,,,,,,,211.81152633065358,211.81152633065358,211.81152633065358,211.81152633065358,211.81152633065358,211.81152633065358,s,1,0.5490497990977019,212.36988076067064,213.4033017407637,,,,,,,,,,,,,,,,,,,,,,,,,,,,,,,,,,,,,,,976014,2010-12-29_12h03.00.969,eb_02psyexp,2022.2.4,119.98373857367405,
71,0,71,0,,,,,,,,,,,,,,,,,,,,,,,,,,,,,,,,,,,,,,,,,,,,,,,,,,,,,,,,,,,213.4033017407637,213.4033017407637,213.4033017407637,213.4033017407637,213.4033017407637,213.4033017407637,l,1,0.541287460247986,213.9533447693102,214.97844589618035,,,,,,,,,,,,,,,,,,,,,,,,,,,,,,,,,,,,,,,976014,2010-12-29_12h03.00.969,eb_02psyexp,2022.2.4,119.98373857367405,
72,0,72,0,,,,,,,,,,,,,,,,,,,,,,,,,,,,,,,,,,,,,,,,,,,,,,,,,,,,,,,,,,,214.97844589618035,214.97844589618035,214.97844589618035,214.97844589618035,214.97844589618035,214.97844589618035,s,1,0.6061849116813391,215.5951467572013,216.61188335716724,,,,,,,,,,,,,,,,,,,,,,,,,,,,,,,,,,,,,,,976014,2010-12-29_12h03.00.969,eb_02psyexp,2022.2.4,119.98373857367405,
73,0,73,0,,,,,,,,,,,,,,,,,,,,,,,,,,,,,,,,,,,,,,,,,,,,,,,,,,,,,,,,,,,216.61188335716724,216.61188335716724,216.61188335716724,216.61188335716724,216.61188335716724,216.61188335716724,s,1,0.5327925347955897,217.15361226757523,218.17870373523328,,,,,,,,,,,,,,,,,,,,,,,,,,,,,,,,,,,,,,,976014,2010-12-29_12h03.00.969,eb_02psyexp,2022.2.4,119.98373857367405,
74,0,74,0,,,,,,,,,,,,,,,,,,,,,,,,,,,,,,,,,,,,,,,,,,,,,,,,,,,,,,,,,,,218.17870373523328,218.17870373523328,218.17870373523328,218.17870373523328,218.17870373523328,218.17870373523328,s,1,0.4539855974726379,218.64541421015747,219.67046975786798,,,,,,,,,,,,,,,,,,,,,,,,,,,,,,,,,,,,,,,976014,2010-12-29_12h03.00.969,eb_02psyexp,2022.2.4,119.98373857367405,
75,0,75,0,,,,,,,,,,,,,,,,,,,,,,,,,,,,,,,,,,,,,,,,,,,,,,,,,,,,,,,,,,,219.67046975786798,219.67046975786798,219.67046975786798,219.67046975786798,219.67046975786798,219.67046975786798,l,1,0.6342378159752116,220.3205517550232,221.34563235624228,,,,,,,,,,,,,,,,,,,,,,,,,,,,,,,,,,,,,,,976014,2010-12-29_12h03.00.969,eb_02psyexp,2022.2.4,119.98373857367405,
76,0,76,0,,,,,,,,,,,,,,,,,,,,,,,,,,,,,,,,,,,,,,,,,,,,,,,,,,,,,,,,,,,221.34563235624228,221.34563235624228,221.34563235624228,221.34563235624228,221.34563235624228,221.34563235624228,s,1,0.5191003798972815,221.87900096562225,222.9040999794379,,,,,,,,,,,,,,,,,,,,,,,,,,,,,,,,,,,,,,,976014,2010-12-29_12h03.00.969,eb_02psyexp,2022.2.4,119.98373857367405,
77,0,77,0,,,,,,,,,,,,,,,,,,,,,,,,,,,,,,,,,,,,,,,,,,,,,,,,,,,,,,,,,,,222.9040999794379,222.9040999794379,222.9040999794379,222.9040999794379,222.9040999794379,222.9040999794379,s,1,0.5676859323866665,223.48746800026856,224.52088928222656,,,,,,,,,,,,,,,,,,,,,,,,,,,,,,,,,,,,,,,976014,2010-12-29_12h03.00.969,eb_02psyexp,2022.2.4,119.98373857367405,
78,0,78,0,,,,,,,,,,,,,,,,,,,,,,,,,,,,,,,,,,,,,,,,,,,,,,,,,,,,,,,,,,,224.52088928222656,224.52088928222656,224.52088928222656,224.52088928222656,224.52088928222656,224.52088928222656,s,1,0.46287685015704483,224.9959295714507,226.02934481645934,,,,,,,,,,,,,,,,,,,,,,,,,,,,,,,,,,,,,,,976014,2010-12-29_12h03.00.969,eb_02psyexp,2022.2.4,119.98373857367405,
79,0,79,0,,,,,,,,,,,,,,,,,,,,,,,,,,,,,,,,,,,,,,,,,,,,,,,,,,,,,,,,,,,226.02934481645934,226.02934481645934,226.02934481645934,226.02934481645934,226.02934481645934,226.02934481645934,l,1,0.802454425022006,226.84606113214977,227.87949961947743,,,,,,,,,,,,,,,,,,,,,,,,,,,,,,,,,,,,,,,976014,2010-12-29_12h03.00.969,eb_02psyexp,2022.2.4,119.98373857367405,
80,0,80,0,,,,,,,,,,,,,,,,,,,,,,,,,,,,,,,,,,,,,,,,,,,,,,,,,,,,,,,,,,,227.87949961947743,227.87949961947743,227.87949961947743,227.87949961947743,227.87949961947743,227.87949961947743,s,1,0.568344566039741,228.4628809215501,229.48800015938468,,,,,,,,,,,,,,,,,,,,,,,,,,,,,,,,,,,,,,,976014,2010-12-29_12h03.00.969,eb_02psyexp,2022.2.4,119.98373857367405,
81,0,81,0,,,,,,,,,,,,,,,,,,,,,,,,,,,,,,,,,,,,,,,,,,,,,,,,,,,,,,,,,,,229.48800015938468,229.48800015938468,229.48800015938468,229.48800015938468,229.48800015938468,229.48800015938468,s,1,0.5038847950054333,230.0046729183523,231.02976800815668,,,,,,,,,,,,,,,,,,,,,,,,,,,,,,,,,,,,,,,976014,2010-12-29_12h03.00.969,eb_02psyexp,2022.2.4,119.98373857367405,
82,0,82,0,,,,,,,,,,,,,,,,,,,,,,,,,,,,,,,,,,,,,,,,,,,,,,,,,,,,,,,,,,,231.02976800815668,231.02976800815668,231.02976800815668,231.02976800815668,231.02976800815668,231.02976800815668,s,1,0.570145696750842,231.6131345196627,232.646574516315,,,,,,,,,,,,,,,,,,,,,,,,,,,,,,,,,,,,,,,976014,2010-12-29_12h03.00.969,eb_02psyexp,2022.2.4,119.98373857367405,
83,0,83,0,,,,,,,,,,,,,,,,,,,,,,,,,,,,,,,,,,,,,,,,,,,,,,,,,,,,,,,,,,,232.646574516315,232.646574516315,232.646574516315,232.646574516315,232.646574516315,232.646574516315,l,1,0.7853601344395429,233.44662486459129,234.4717112008948,,,,,,,,,,,,,,,,,,,,,,,,,,,,,,,,,,,,,,,976014,2010-12-29_12h03.00.969,eb_02psyexp,2022.2.4,119.98373857367405,
84,0,84,0,,,,,,,,,,,,,,,,,,,,,,,,,,,,,,,,,,,,,,,,,,,,,,,,,,,,,,,,,,,234.4717112008948,234.4717112008948,234.4717112008948,234.4717112008948,234.4717112008948,234.4717112008948,s,1,0.5842782487161458,235.0717738646781,236.09686050273012,,,,,,,,,,,,,,,,,,,,,,,,,,,,,,,,,,,,,,,976014,2010-12-29_12h03.00.969,eb_02psyexp,2022.2.4,119.98373857367405,
85,0,85,0,,,,,,,,,,,,,,,,,,,,,,,,,,,,,,,,,,,,,,,,,,,,,,,,,,,,,,,,,,,236.09686050273012,236.09686050273012,236.09686050273012,236.09686050273012,236.09686050273012,236.09686050273012,s,1,0.5671290216268972,236.6802285235608,237.7053272355115,,,,,,,,,,,,,,,,,,,,,,,,,,,,,,,,,,,,,,,976014,2010-12-29_12h03.00.969,eb_02psyexp,2022.2.4,119.98373857367405,
86,0,86,0,,,,,,,,,,,,,,,,,,,,,,,,,,,,,,,,,,,,,,,,,,,,,,,,,,,,,,,,,,,237.7053272355115,237.7053272355115,237.7053272355115,237.7053272355115,237.7053272355115,237.7053272355115,s,1,0.5977678630733863,238.31371609144844,239.34710417001043,,,,,,,,,,,,,,,,,,,,,,,,,,,,,,,,,,,,,,,976014,2010-12-29_12h03.00.969,eb_02psyexp,2022.2.4,119.98373857367405,
87,0,87,0,,,,,,,,,,,,,,,,,,,,,,,,,,,,,,,,,,,,,,,,,,,,,,,,,,,,,,,,,,,239.34710417001043,239.34710417001043,239.34710417001043,239.34710417001043,239.34710417001043,239.34710417001043,l,1,0.6839356806594878,240.0472073117271,241.07228066842072,,,,,,,,,,,,,,,,,,,,,,,,,,,,,,,,,,,,,,,976014,2010-12-29_12h03.00.969,eb_02psyexp,2022.2.4,119.98373857367405,
88,0,88,0,,,,,,,,,,,,,,,,,,,,,,,,,,,,,,,,,,,,,,,,,,,,,,,,,,,,,,,,,,,241.07228066842072,241.07228066842072,241.07228066842072,241.07228066842072,241.07228066842072,241.07228066842072,s,1,0.5828351104864851,241.66398635157384,242.68906755640637,,,,,,,,,,,,,,,,,,,,,,,,,,,,,,,,,,,,,,,976014,2010-12-29_12h03.00.969,eb_02psyexp,2022.2.4,119.98373857367405,
89,0,89,0,,,,,,,,,,,,,,,,,,,,,,,,,,,,,,,,,,,,,,,,,,,,,,,,,,,,,,,,,,,242.68906755640637,242.68906755640637,242.68906755640637,242.68906755640637,242.68906755640637,242.68906755640637,l,1,0.4700267381267622,243.17244369687978,244.2058541122824,,,,,,,,,,,,,,,,,,,,,,,,,,,,,,,,,,,,,,,976014,2010-12-29_12h03.00.969,eb_02psyexp,2022.2.4,119.98373857367405,
90,0,90,0,,,,,,,,,,,,,,,,,,,,,,,,,,,,,,,,,,,,,,,,,,,,,,,,,,,,,,,,,,,244.2058541122824,244.2058541122824,244.2058541122824,244.2058541122824,244.2058541122824,244.2058541122824,s,1,0.4972679716302082,244.71422301593702,245.73932263359893,,,,,,,,,,,,,,,,,,,,,,,,,,,,,,,,,,,,,,,976014,2010-12-29_12h03.00.969,eb_02psyexp,2022.2.4,119.98373857367405,
91,0,91,0,,,,,,,,,,,,,,,,,,,,,,,,,,,,,,,,,,,,,,,,,,,,,,,,,,,,,,,,,,,245.73932263359893,245.73932263359893,245.73932263359893,245.73932263359893,245.73932263359893,245.73932263359893,s,1,0.5158500740071759,246.26434573251754,247.28945953701623,,,,,,,,,,,,,,,,,,,,,,,,,,,,,,,,,,,,,,,976014,2010-12-29_12h03.00.969,eb_02psyexp,2022.2.4,119.98373857367405,
92,0,92,0,,,,,,,,,,,,,,,,,,,,,,,,,,,,,,,,,,,,,,,,,,,,,,,,,,,,,,,,,,,247.28945953701623,247.28945953701623,247.28945953701623,247.28945953701623,247.28945953701623,247.28945953701623,l,1,0.6537076552631333,247.9561755056493,248.9812464475399,,,,,,,,,,,,,,,,,,,,,,,,,,,,,,,,,,,,,,,976014,2010-12-29_12h03.00.969,eb_02psyexp,2022.2.4,119.98373857367405,
93,0,93,0,,,,,,,,,,,,,,,,,,,,,,,,,,,,,,,,,,,,,,,,,,,,,,,,,,,,,,,,,,,248.9812464475399,248.9812464475399,248.9812464475399,248.9812464475399,248.9812464475399,248.9812464475399,s,1,0.4579754323931411,249.44795330031775,250.48137488414068,,,,,,,,,,,,,,,,,,,,,,,,,,,,,,,,,,,,,,,976014,2010-12-29_12h03.00.969,eb_02psyexp,2022.2.4,119.98373857367405,
94,0,94,0,,,,,,,,,,,,,,,,,,,,,,,,,,,,,,,,,,,,,,,,,,,,,,,,,,,,,,,,,,,250.48137488414068,250.48137488414068,250.48137488414068,250.48137488414068,250.48137488414068,250.48137488414068,l,1,0.6218668525107205,251.11474593856838,252.14817506854888,,,,,,,,,,,,,,,,,,,,,,,,,,,,,,,,,,,,,,,976014,2010-12-29_12h03.00.969,eb_02psyexp,2022.2.4,119.98373857367405,
95,0,95,0,,,,,,,,,,,,,,,,,,,,,,,,,,,,,,,,,,,,,,,,,,,,,,,,,,,,,,,,,,,252.14817506854888,252.14817506854888,252.14817506854888,252.14817506854888,252.14817506854888,252.14817506854888,s,1,0.5390718914568424,252.6981885158457,253.72330564074218,,,,,,,,,,,,,,,,,,,,,,,,,,,,,,,,,,,,,,,976014,2010-12-29_12h03.00.969,eb_02psyexp,2022.2.4,119.98373857367405,
96,0,96,0,,,,,,,,,,,,,,,,,,,,,,,,,,,,,,,,,,,,,,,,,,,,,,,,,,,,,,,,,,,253.72330564074218,253.72330564074218,253.72330564074218,253.72330564074218,253.72330564074218,253.72330564074218,s,1,0.5470370725961402,254.28168542601634,255.30677296966314,,,,,,,,,,,,,,,,,,,,,,,,,,,,,,,,,,,,,,,976014,2010-12-29_12h03.00.969,eb_02psyexp,2022.2.4,119.98373857367405,
97,0,97,0,,,,,,,,,,,,,,,,,,,,,,,,,,,,,,,,,,,,,,,,,,,,,,,,,,,,,,,,,,,255.30677296966314,255.30677296966314,255.30677296966314,255.30677296966314,255.30677296966314,255.30677296966314,s,1,0.5395826192107052,255.85680754645728,256.881916219485,,,,,,,,,,,,,,,,,,,,,,,,,,,,,,,,,,,,,,,976014,2010-12-29_12h03.00.969,eb_02psyexp,2022.2.4,119.98373857367405,
98,0,98,0,,,,,,,,,,,,,,,,,,,,,,,,,,,,,,,,,,,,,,,,,,,,,,,,,,,,,,,,,,,256.881916219485,256.881916219485,256.881916219485,256.881916219485,256.881916219485,256.881916219485,l,1,0.6524335521971807,257.54863550839946,258.5736889431719,,,,,,,,,,,,,,,,,,,,,,,,,,,,,,,,,,,,,,,976014,2010-12-29_12h03.00.969,eb_02psyexp,2022.2.4,119.98373857367405,
99,0,99,0,,,,,,,,,,,,,,,,,,,,,,,,,,,,,,,,,,,,,,,,,,,,,,,,,,,,,,,,,,,258.5736889431719,258.5736889431719,258.5736889431719,258.5736889431719,258.5736889431719,258.5736889431719,l,1,0.6007117927074432,259.1904260261217,260.21551749377977,,,,,,,,,,,,,,,,,,,,,,,,,,,,,,,,,,,,,,,976014,2010-12-29_12h03.00.969,eb_02psyexp,2022.2.4,119.98373857367405,
100,0,100,0,,,,,,,,,,,,,,,,,,,,,,,,,,,,,,,,,,,,,,,,,,,,,,,,,,,,,,,,,,,260.21551749377977,260.21551749377977,260.21551749377977,260.21551749377977,260.21551749377977,260.21551749377977,s,1,0.6869097950402647,260.91555754910223,261.94898999936413,,,,,,,,,,,,,,,,,,,,,,,,,,,,,,,,,,,,,,,976014,2010-12-29_12h03.00.969,eb_02psyexp,2022.2.4,119.98373857367405,
101,0,101,0,,,,,,,,,,,,,,,,,,,,,,,,,,,,,,,,,,,,,,,,,,,,,,,,,,,,,,,,,,,261.94898999936413,261.94898999936413,261.94898999936413,261.94898999936413,261.94898999936413,261.94898999936413,s,1,1.2814489310840145,263.24076803564094,264.26585799409077,,,,,,,,,,,,,,,,,,,,,,,,,,,,,,,,,,,,,,,976014,2010-12-29_12h03.00.969,eb_02psyexp,2022.2.4,119.98373857367405,
102,0,102,0,,,,,,,,,,,,,,,,,,,,,,,,,,,,,,,,,,,,,,,,,,,,,,,,,,,,,,,,,,,264.26585799409077,264.26585799409077,264.26585799409077,264.26585799409077,264.26585799409077,264.26585799409077,s,1,0.4526091677835211,264.73257510969415,265.757644240628,,,,,,,,,,,,,,,,,,,,,,,,,,,,,,,,,,,,,,,976014,2010-12-29_12h03.00.969,eb_02psyexp,2022.2.4,119.98373857367405,
103,0,103,0,,,,,,,,,,,,,,,,,,,,,,,,,,,,,,,,,,,,,,,,,,,,,,,,,,,,,,,,,,,265.757644240628,265.757644240628,265.757644240628,265.757644240628,265.757644240628,265.757644240628,l,1,0.8249186023604125,266.59104946418665,267.61610621924046,,,,,,,,,,,,,,,,,,,,,,,,,,,,,,,,,,,,,,,976014,2010-12-29_12h03.00.969,eb_02psyexp,2022.2.4,119.98373857367405,
104,0,104,0,,,,,,,,,,,,,,,,,,,,,,,,,,,,,,,,,,,,,,,,,,,,,,,,,,,,,,,,,,,267.61610621924046,267.61610621924046,267.61610621924046,267.61610621924046,267.61610621924046,267.61610621924046,s,1,0.534443948417902,268.1661371738883,269.19958803697955,,,,,,,,,,,,,,,,,,,,,,,,,,,,,,,,,,,,,,,976014,2010-12-29_12h03.00.969,eb_02psyexp,2022.2.4,119.98373857367405,
105,0,105,0,,,,,,,,,,,,,,,,,,,,,,,,,,,,,,,,,,,,,,,,,,,,,,,,,,,,,,,,,,,269.19958803697955,269.19958803697955,269.19958803697955,269.19958803697955,269.19958803697955,269.19958803697955,s,1,0.5580279842251912,269.76630095695145,270.79973461467307,,,,,,,,,,,,,,,,,,,,,,,,,,,,,,,,,,,,,,,976014,2010-12-29_12h03.00.969,eb_02psyexp,2022.2.4,119.98373857367405,
106,0,106,0,,,,,,,,,,,,,,,,,,,,,,,,,,,,,,,,,,,,,,,,,,,,,,,,,,,,,,,,,,,270.79973461467307,270.79973461467307,270.79973461467307,270.79973461467307,270.79973461467307,270.79973461467307,l,1,0.5419379440136254,271.35809900565073,272.3831660236465,,,,,,,,,,,,,,,,,,,,,,,,,,,,,,,,,,,,,,,976014,2010-12-29_12h03.00.969,eb_02psyexp,2022.2.4,119.98373857367405,
107,0,107,0,,,,,,,,,,,,,,,,,,,,,,,,,,,,,,,,,,,,,,,,,,,,,,,,,,,,,,,,,,,272.3831660236465,272.3831660236465,272.3831660236465,272.3831660236465,272.3831660236465,272.3831660236465,s,1,0.5184535183943808,272.9165750807151,273.9416306284256,,,,,,,,,,,,,,,,,,,,,,,,,,,,,,,,,,,,,,,976014,2010-12-29_12h03.00.969,eb_02psyexp,2022.2.4,119.98373857367405,
108,0,108,0,,,,,,,,,,,,,,,,,,,,,,,,,,,,,,,,,,,,,,,,,,,,,,,,,,,,,,,,,,,273.9416306284256,273.9416306284256,273.9416306284256,273.9416306284256,273.9416306284256,273.9416306284256,s,1,0.5120096541941166,274.4667207377497,275.5001220976701,,,,,,,,,,,,,,,,,,,,,,,,,,,,,,,,,,,,,,,976014,2010-12-29_12h03.00.969,eb_02psyexp,2022.2.4,119.98373857367405,
109,0,109,0,,,,,,,,,,,,,,,,,,,,,,,,,,,,,,,,,,,,,,,,,,,,,,,,,,,,,,,,,,,275.5001220976701,275.5001220976701,275.5001220976701,275.5001220976701,275.5001220976701,275.5001220976701,l,1,0.6335625806823373,276.1501606287202,277.1752297595376,,,,,,,,,,,,,,,,,,,,,,,,,,,,,,,,,,,,,,,976014,2010-12-29_12h03.00.969,eb_02psyexp,2022.2.4,119.98373857367405,
110,0,110,0,,,,,,,,,,,,,,,,,,,,,,,,,,,,,,,,,,,,,,,,,,,,,,,,,,,,,,,,,,,277.1752297595376,277.1752297595376,277.1752297595376,277.1752297595376,277.1752297595376,277.1752297595376,s,1,0.5584867941215634,277.74193875549827,278.77538086497225,,,,,,,,,,,,,,,,,,,,,,,,,,,,,,,,,,,,,,,976014,2010-12-29_12h03.00.969,eb_02psyexp,2022.2.4,119.98373857367405,
111,0,111,0,,,,,,,,,,,,,,,,,,,,,,,,,,,,,,,,,,,,,,,,,,,,,,,,,,,,,,,,,,,278.77538086497225,278.77538086497225,278.77538086497225,278.77538086497225,278.77538086497225,278.77538086497225,l,1,0.6623960656579584,279.45043449592777,280.4838923015632,,,,,,,,,,,,,,,,,,,,,,,,,,,,,,,,,,,,,,,976014,2010-12-29_12h03.00.969,eb_02psyexp,2022.2.4,119.98373857367405,
112,0,112,0,,,,,,,,,,,,,,,,,,,,,,,,,,,,,,,,,,,,,,,,,,,,,,,,,,,,,,,,,,,280.4838923015632,280.4838923015632,280.4838923015632,280.4838923015632,280.4838923015632,280.4838923015632,s,1,0.6098747091600671,281.10890305496287,282.1256405604072,,,,,,,,,,,,,,,,,,,,,,,,,,,,,,,,,,,,,,,976014,2010-12-29_12h03.00.969,eb_02psyexp,2022.2.4,119.98373857367405,
113,0,113,0,,,,,,,,,,,,,,,,,,,,,,,,,,,,,,,,,,,,,,,,,,,,,,,,,,,,,,,,,,,282.1256405604072,282.1256405604072,282.1256405604072,282.1256405604072,282.1256405604072,282.1256405604072,l,1,0.5361403377028182,282.6757023035316,283.7091205670731,,,,,,,,,,,,,,,,,,,,,,,,,,,,,,,,,,,,,,,976014,2010-12-29_12h03.00.969,eb_02psyexp,2022.2.4,119.98373857367405,
114,0,114,0,,,,,,,,,,,,,,,,,,,,,,,,,,,,,,,,,,,,,,,,,,,,,,,,,,,,,,,,,,,283.7091205670731,283.7091205670731,283.7091205670731,283.7091205670731,283.7091205670731,283.7091205670731,s,1,0.432689574197866,284.1508186586434,285.17591767257545,,,,,,,,,,,,,,,,,,,,,,,,,,,,,,,,,,,,,,,976014,2010-12-29_12h03.00.969,eb_02psyexp,2022.2.4,119.98373857367405,
115,0,115,0,,,,,,,,,,,,,,,,,,,,,,,,,,,,,,,,,,,,,,,,,,,,,,,,,,,,,,,,,,,285.17591767257545,285.17591767257545,285.17591767257545,285.17591767257545,285.17591767257545,285.17591767257545,s,1,0.4449506647652015,285.6342817315599,286.6510156148579,,,,,,,,,,,,,,,,,,,,,,,,,,,,,,,,,,,,,,,976014,2010-12-29_12h03.00.969,eb_02psyexp,2022.2.4,119.98373857367405,
116,0,116,0,,,,,,,,,,,,,,,,,,,,,,,,,,,,,,,,,,,,,,,,,,,,,,,,,,,,,,,,,,,286.6510156148579,286.6510156148579,286.6510156148579,286.6510156148579,286.6510156148579,286.6510156148579,l,1,0.44196598569396883,287.1094164993847,288.13446842494886,,,,,,,,,,,,,,,,,,,,,,,,,,,,,,,,,,,,,,,976014,2010-12-29_12h03.00.969,eb_02psyexp,2022.2.4,119.98373857367405,
117,0,117,0,,,,,,,,,,,,,,,,,,,,,,,,,,,,,,,,,,,,,,,,,,,,,,,,,,,,,,,,,,,288.13446842494886,288.13446842494886,288.13446842494886,288.13446842494886,288.13446842494886,288.13446842494886,s,1,0.4304238985059783,288.5762033420615,289.59290009806864,,,,,,,,,,,,,,,,,,,,,,,,,,,,,,,,,,,,,,,976014,2010-12-29_12h03.00.969,eb_02psyexp,2022.2.4,119.98373857367405,
118,0,118,0,,,,,,,,,,,,,,,,,,,,,,,,,,,,,,,,,,,,,,,,,,,,,,,,,,,,,,,,,,,289.59290009806864,289.59290009806864,289.59290009806864,289.59290009806864,289.59290009806864,289.59290009806864,s,1,0.44401916000060737,290.05131486756727,291.0764006001409,,,,,,,,,,,,,,,,,,,,,,,,,,,,,,,,,,,,,,,976014,2010-12-29_12h03.00.969,eb_02psyexp,2022.2.4,119.98373857367405,
119,0,119,0,,,,,,,,,,,,,,,,,,,,,,,,,,,,,,,,,,,,,,,,,,,,,,,,,,,,,,,,,,,291.0764006001409,291.0764006001409,291.0764006001409,291.0764006001409,291.0764006001409,291.0764006001409,l,1,0.8245850597741082,291.90981186076533,292.9265433292603,,,,,,,,,,,,,,,,,,,,,,,,,,,,,,,,,,,,,,,976014,2010-12-29_12h03.00.969,eb_02psyexp,2022.2.4,119.98373857367405,
120,0,120,0,,,,,,,,,,,,,,,,,,,,,,,,,,,,,,,,,,,,,,,,,,,,,,,,,,,,,,,,,,,292.9265433292603,292.9265433292603,292.9265433292603,292.9265433292603,292.9265433292603,292.9265433292603,s,1,0.5505744364345446,293.4932613805868,294.51833081338555,,,,,,,,,,,,,,,,,,,,,,,,,,,,,,,,,,,,,,,976014,2010-12-29_12h03.00.969,eb_02psyexp,2022.2.4,119.98373857367405,
121,0,121,0,,,,,,,,,,,,,,,,,,,,,,,,,,,,,,,,,,,,,,,,,,,,,,,,,,,,,,,,,,,294.51833081338555,294.51833081338555,294.51833081338555,294.51833081338555,294.51833081338555,294.51833081338555,s,1,0.48665497452020645,295.0184028042713,296.0518083900679,,,,,,,,,,,,,,,,,,,,,,,,,,,,,,,,,,,,,,,976014,2010-12-29_12h03.00.969,eb_02psyexp,2022.2.4,119.98373857367405,
122,0,122,0,,,,,,,,,,,,,,,,,,,,,,,,,,,,,,,,,,,,,,,,,,,,,,,,,,,,,,,,,,,296.0518083900679,296.0518083900679,296.0518083900679,296.0518083900679,296.0518083900679,296.0518083900679,s,1,0.48121777549386024,296.5435224947287,297.5685846831184,,,,,,,,,,,,,,,,,,,,,,,,,,,,,,,,,,,,,,,976014,2010-12-29_12h03.00.969,eb_02psyexp,2022.2.4,119.98373857367405,
123,0,123,0,,,,,,,,,,,,,,,,,,,,,,,,,,,,,,,,,,,,,,,,,,,,,,,,,,,,,,,,,,,297.5685846831184,297.5685846831184,297.5685846831184,297.5685846831184,297.5685846831184,297.5685846831184,l,1,0.5404827317688614,298.11865940573625,299.1437155571766,,,,,,,,,,,,,,,,,,,,,,,,,,,,,,,,,,,,,,,976014,2010-12-29_12h03.00.969,eb_02psyexp,2022.2.4,119.98373857367405,
124,0,124,0,,,,,,,,,,,,,,,,,,,,,,,,,,,,,,,,,,,,,,,,,,,,,,,,,,,,,,,,,,,299.1437155571766,299.1437155571766,299.1437155571766,299.1437155571766,299.1437155571766,299.1437155571766,l,1,0.5173735040007159,299.6770808461588,300.69387811771594,,,,,,,,,,,,,,,,,,,,,,,,,,,,,,,,,,,,,,,976014,2010-12-29_12h03.00.969,eb_02psyexp,2022.2.4,119.98373857367405,
125,0,125,0,,,,,,,,,,,,,,,,,,,,,,,,,,,,,,,,,,,,,,,,,,,,,,,,,,,,,,,,,,,300.69387811771594,300.69387811771594,300.69387811771594,300.69387811771594,300.69387811771594,300.69387811771594,s,1,0.5662901843897998,301.26890636316966,302.2940083955182,,,,,,,,,,,,,,,,,,,,,,,,,,,,,,,,,,,,,,,976014,2010-12-29_12h03.00.969,eb_02psyexp,2022.2.4,119.98373857367405,
126,0,126,0,,,,,,,,,,,,,,,,,,,,,,,,,,,,,,,,,,,,,,,,,,,,,,,,,,,,,,,,,,,302.2940083955182,302.2940083955182,302.2940083955182,302.2940083955182,302.2940083955182,302.2940083955182,s,1,0.5341424017678946,302.84405112219974,303.8607720261207,,,,,,,,,,,,,,,,,,,,,,,,,,,,,,,,,,,,,,,976014,2010-12-29_12h03.00.969,eb_02psyexp,2022.2.4,119.98373857367405,
127,0,127,0,,,,,,,,,,,,,,,,,,,,,,,,,,,,,,,,,,,,,,,,,,,,,,,,,,,,,,,,,,,303.8607720261207,303.8607720261207,303.8607720261207,303.8607720261207,303.8607720261207,303.8607720261207,l,1,0.6074107189197093,304.477506996016,305.5109261650359,,,,,,,,,,,,,,,,,,,,,,,,,,,,,,,,,,,,,,,976014,2010-12-29_12h03.00.969,eb_02psyexp,2022.2.4,119.98373857367405,
128,0,128,0,,,,,,,,,,,,,,,,,,,,,,,,,,,,,,,,,,,,,,,,,,,,,,,,,,,,,,,,,,,305.5109261650359,305.5109261650359,305.5109261650359,305.5109261650359,305.5109261650359,305.5109261650359,s,1,0.6132780521875247,306.13597042358015,307.1610416674521,,,,,,,,,,,,,,,,,,,,,,,,,,,,,,,,,,,,,,,976014,2010-12-29_12h03.00.969,eb_02psyexp,2022.2.4,119.98373857367405,
129,0,129,0,,,,,,,,,,,,,,,,,,,,,,,,,,,,,,,,,,,,,,,,,,,,,,,,,,,,,,,,,,,307.1610416674521,307.1610416674521,307.1610416674521,307.1610416674521,307.1610416674521,307.1610416674521,s,1,0.4271850629011169,307.6027584737167,308.6195309936302,,,,,,,,,,,,,,,,,,,,,,,,,,,,,,,,,,,,,,,976014,2010-12-29_12h03.00.969,eb_02psyexp,2022.2.4,119.98373857367405,
130,0,130,0,,,,,,,,,,,,,,,,,,,,,,,,,,,,,,,,,,,,,,,,,,,,,,,,,,,,,,,,,,,308.6195309936302,308.6195309936302,308.6195309936302,308.6195309936302,308.6195309936302,308.6195309936302,s,1,0.5527223912067711,309.1862475357484,310.2113296460593,,,,,,,,,,,,,,,,,,,,,,,,,,,,,,,,,,,,,,,976014,2010-12-29_12h03.00.969,eb_02psyexp,2022.2.4,119.98373857367405,
131,0,131,0,,,,,,,,,,,,,,,,,,,,,,,,,,,,,,,,,,,,,,,,,,,,,,,,,,,,,,,,,,,310.2113296460593,310.2113296460593,310.2113296460593,310.2113296460593,310.2113296460593,310.2113296460593,l,1,0.38496972352731973,310.61138440144714,311.6281098329928,,,,,,,,,,,,,,,,,,,,,,,,,,,,,,,,,,,,,,,976014,2010-12-29_12h03.00.969,eb_02psyexp,2022.2.4,119.98373857367405,
132,0,132,0,,,,,,,,,,,,,,,,,,,,,,,,,,,,,,,,,,,,,,,,,,,,,,,,,,,,,,,,,,,311.6281098329928,311.6281098329928,311.6281098329928,311.6281098329928,311.6281098329928,311.6281098329928,l,1,0.5682150730863214,312.21147694822866,313.236574754701,,,,,,,,,,,,,,,,,,,,,,,,,,,,,,,,,,,,,,,976014,2010-12-29_12h03.00.969,eb_02psyexp,2022.2.4,119.98373857367405,
133,0,133,0,,,,,,,,,,,,,,,,,,,,,,,,,,,,,,,,,,,,,,,,,,,,,,,,,,,,,,,,,,,313.236574754701,313.236574754701,313.236574754701,313.236574754701,313.236574754701,313.236574754701,s,1,0.47974354692269117,313.7282846334856,314.7616929359501,,,,,,,,,,,,,,,,,,,,,,,,,,,,,,,,,,,,,,,976014,2010-12-29_12h03.00.969,eb_02psyexp,2022.2.4,119.98373857367405,
134,0,134,0,,,,,,,,,,,,,,,,,,,,,,,,,,,,,,,,,,,,,,,,,,,,,,,,,,,,,,,,,,,314.7616929359501,314.7616929359501,314.7616929359501,314.7616929359501,314.7616929359501,314.7616929359501,s,1,0.5377754515502602,315.3117139295209,316.3368032843573,,,,,,,,,,,,,,,,,,,,,,,,,,,,,,,,,,,,,,,976014,2010-12-29_12h03.00.969,eb_02psyexp,2022.2.4,119.98373857367405,
135,0,135,0,,,,,,,,,,,,,,,,,,,,,,,,,,,,,,,,,,,,,,,,,,,,,,,,,,,,,,,,,,,316.3368032843573,316.3368032843573,316.3368032843573,316.3368032843573,316.3368032843573,316.3368032843573,l,1,0.5465827904408798,316.895200878731,317.92028389463667,,,,,,,,,,,,,,,,,,,,,,,,,,,,,,,,,,,,,,,976014,2010-12-29_12h03.00.969,eb_02psyexp,2022.2.4,119.98373857367405,
136,0,136,0,,,,,,,,,,,,,,,,,,,,,,,,,,,,,,,,,,,,,,,,,,,,,,,,,,,,,,,,,,,317.92028389463667,317.92028389463667,317.92028389463667,317.92028389463667,317.92028389463667,317.92028389463667,l,1,1.1311228893464431,319.06201449537184,320.07878158194944,,,,,,,,,,,,,,,,,,,,,,,,,,,,,,,,,,,,,,,976014,2010-12-29_12h03.00.969,eb_02psyexp,2022.2.4,119.98373857367405,
137,0,137,0,,,,,,,,,,,,,,,,,,,,,,,,,,,,,,,,,,,,,,,,,,,,,,,,,,,,,,,,,,,320.07878158194944,320.07878158194944,320.07878158194944,320.07878158194944,320.07878158194944,320.07878158194944,s,1,1.0926894111325964,321.18723578809295,322.2122898265952,,,,,,,,,,,,,,,,,,,,,,,,,,,,,,,,,,,,,,,976014,2010-12-29_12h03.00.969,eb_02psyexp,2022.2.4,119.98373857367405,
138,0,138,0,,,,,,,,,,,,,,,,,,,,,,,,,,,,,,,,,,,,,,,,,,,,,,,,,,,,,,,,,,,322.2122898265952,322.2122898265952,322.2122898265952,322.2122898265952,322.2122898265952,322.2122898265952,s,1,0.5191972733009607,322.74566900066566,323.77910597866867,,,,,,,,,,,,,,,,,,,,,,,,,,,,,,,,,,,,,,,976014,2010-12-29_12h03.00.969,eb_02psyexp,2022.2.4,119.98373857367405,
139,0,139,0,,,,,,,,,,,,,,,,,,,,,,,,,,,,,,,,,,,,,,,,,,,,,,,,,,,,,,,,,,,323.77910597866867,323.77910597866867,323.77910597866867,323.77910597866867,323.77910597866867,323.77910597866867,s,1,0.5684124820400029,324.36245437932666,325.38755158206914,,,,,,,,,,,,,,,,,,,,,,,,,,,,,,,,,,,,,,,976014,2010-12-29_12h03.00.969,eb_02psyexp,2022.2.4,119.98373857367405,
140,0,140,0,,,,,,,,,,,,,,,,,,,,,,,,,,,,,,,,,,,,,,,,,,,,,,,,,,,,,,,,,,,325.38755158206914,325.38755158206914,325.38755158206914,325.38755158206914,325.38755158206914,325.38755158206914,s,1,0.5599842651281506,325.96260729583446,326.97936079930514,,,,,,,,,,,,,,,,,,,,,,,,,,,,,,,,,,,,,,,976014,2010-12-29_12h03.00.969,eb_02psyexp,2022.2.4,119.98373857367405,
141,0,141,0,,,,,,,,,,,,,,,,,,,,,,,,,,,,,,,,,,,,,,,,,,,,,,,,,,,,,,,,,,,326.97936079930514,326.97936079930514,326.97936079930514,326.97936079930514,326.97936079930514,326.97936079930514,l,1,0.5282122839707881,327.52107673021965,328.5461473702453,,,,,,,,,,,,,,,,,,,,,,,,,,,,,,,,,,,,,,,976014,2010-12-29_12h03.00.969,eb_02psyexp,2022.2.4,119.98373857367405,
142,0,142,0,,,,,,,,,,,,,,,,,,,,,,,,,,,,,,,,,,,,,,,,,,,,,,,,,,,,,,,,,,,328.5461473702453,328.5461473702453,328.5461473702453,328.5461473702453,328.5461473702453,328.5461473702453,s,1,0.5214381973491982,329.07954857929144,330.09632109932136,,,,,,,,,,,,,,,,,,,,,,,,,,,,,,,,,,,,,,,976014,2010-12-29_12h03.00.969,eb_02psyexp,2022.2.4,119.98373857367405,
143,0,143,0,,,,,,,,,,,,,,,,,,,,,,,,,,,,,,,,,,,,,,,,,,,,,,,,,,,,,,,,,,,330.09632109932136,330.09632109932136,330.09632109932136,330.09632109932136,330.09632109932136,330.09632109932136,l,1,0.5793128390796483,330.6880083696451,331.71307448204607,,,,,,,,,,,,,,,,,,,,,,,,,,,,,,,,,,,,,,,976014,2010-12-29_12h03.00.969,eb_02psyexp,2022.2.4,119.98373857367405,
144,0,144,0,,,,,,,,,,,,,,,,,,,,,,,,,,,,,,,,,,,,,,,,,,,,,,,,,,,,,,,,,,,331.71307448204607,331.71307448204607,331.71307448204607,331.71307448204607,331.71307448204607,331.71307448204607,s,1,0.5936225760960951,332.3214899005834,333.3382092951797,,,,,,,,,,,,,,,,,,,,,,,,,,,,,,,,,,,,,,,976014,2010-12-29_12h03.00.969,eb_02psyexp,2022.2.4,119.98373857367405,
145,0,145,0,,,,,,,,,,,,,,,,,,,,,,,,,,,,,,,,,,,,,,,,,,,,,,,,,,,,,,,,,,,333.3382092951797,333.3382092951797,333.3382092951797,333.3382092951797,333.3382092951797,333.3382092951797,l,1,0.6564798328327015,334.00494971347507,335.0383522808552,,,,,,,,,,,,,,,,,,,,,,,,,,,,,,,,,,,,,,,976014,2010-12-29_12h03.00.969,eb_02psyexp,2022.2.4,119.98373857367405,
146,0,146,0,,,,,,,,,,,,,,,,,,,,,,,,,,,,,,,,,,,,,,,,,,,,,,,,,,,,,,,,,,,335.0383522808552,335.0383522808552,335.0383522808552,335.0383522808552,335.0383522808552,335.0383522808552,s,1,0.5723513044649735,335.62177674728446,336.64682535245083,,,,,,,,,,,,,,,,,,,,,,,,,,,,,,,,,,,,,,,976014,2010-12-29_12h03.00.969,eb_02psyexp,2022.2.4,119.98373857367405,
147,0,147,0,,,,,,,,,,,,,,,,,,,,,,,,,,,,,,,,,,,,,,,,,,,,,,,,,,,,,,,,,,,336.64682535245083,336.64682535245083,336.64682535245083,336.64682535245083,336.64682535245083,336.64682535245083,s,1,1.7479357363190502,338.4053060156293,339.4220670652576,,,,,,,,,,,,,,,,,,,,,,,,,,,,,,,,,,,,,,,976014,2010-12-29_12h03.00.969,eb_02psyexp,2022.2.4,119.98373857367405,
148,0,148,0,,,,,,,,,,,,,,,,,,,,,,,,,,,,,,,,,,,,,,,,,,,,,,,,,,,,,,,,,,,339.4220670652576,339.4220670652576,339.4220670652576,339.4220670652576,339.4220670652576,339.4220670652576,l,1,0.5647235900396481,339.9971097995294,341.03051387611777,,,,,,,,,,,,,,,,,,,,,,,,,,,,,,,,,,,,,,,976014,2010-12-29_12h03.00.969,eb_02psyexp,2022.2.4,119.98373857367405,
149,0,149,0,,,,,,,,,,,,,,,,,,,,,,,,,,,,,,,,,,,,,,,,,,,,,,,,,,,,,,,,,,,341.03051387611777,341.03051387611777,341.03051387611777,341.03051387611777,341.03051387611777,341.03051387611777,s,1,0.564316094503738,341.60557834338397,342.6306740369182,,,,,,,,,,,,,,,,,,,,,,,,,,,,,,,,,,,,,,,976014,2010-12-29_12h03.00.969,eb_02psyexp,2022.2.4,119.98373857367405,
150,0,150,0,,,,,,,,,,,,,,,,,,,,,,,,,,,,,,,,,,,,,,,,,,,,,,,,,,,,,,,,,,,342.6306740369182,342.6306740369182,342.6306740369182,342.6306740369182,342.6306740369182,342.6306740369182,s,1,0.5321713302982971,343.17237578099594,344.1890994014684,,,,,,,,,,,,,,,,,,,,,,,,,,,,,,,,,,,,,,,976014,2010-12-29_12h03.00.969,eb_02psyexp,2022.2.4,119.98373857367405,
151,0,151,0,,,,,,,,,,,,,,,,,,,,,,,,,,,,,,,,,,,,,,,,,,,,,,,,,,,,,,,,,,,344.1890994014684,344.1890994014684,344.1890994014684,344.1890994014684,344.1890994014684,344.1890994014684,l,1,0.5977732964092866,344.79752146068495,345.83095632574987,,,,,,,,,,,,,,,,,,,,,,,,,,,,,,,,,,,,,,,976014,2010-12-29_12h03.00.969,eb_02psyexp,2022.2.4,119.98373857367405,
152,0,152,0,,,,,,,,,,,,,,,,,,,,,,,,,,,,,,,,,,,,,,,,,,,,,,,,,,,,,,,,,,,345.83095632574987,345.83095632574987,345.83095632574987,345.83095632574987,345.83095632574987,345.83095632574987,s,1,0.5310315499082208,346.37263814779,347.38937384216115,,,,,,,,,,,,,,,,,,,,,,,,,,,,,,,,,,,,,,,976014,2010-12-29_12h03.00.969,eb_02psyexp,2022.2.4,119.98373857367405,
153,0,153,0,,,,,,,,,,,,,,,,,,,,,,,,,,,,,,,,,,,,,,,,,,,,,,,,,,,,,,,,,,,347.38937384216115,347.38937384216115,347.38937384216115,347.38937384216115,347.38937384216115,347.38937384216115,l,1,0.5806023363256827,347.9810864678584,349.01450925902463,,,,,,,,,,,,,,,,,,,,,,,,,,,,,,,,,,,,,,,976014,2010-12-29_12h03.00.969,eb_02psyexp,2022.2.4,119.98373857367405,
154,0,154,0,,,,,,,,,,,,,,,,,,,,,,,,,,,,,,,,,,,,,,,,,,,,,,,,,,,,,,,,,,,349.01450925902463,349.01450925902463,349.01450925902463,349.01450925902463,349.01450925902463,349.01450925902463,s,1,0.4194393256912008,349.447879951098,350.4729708151426,,,,,,,,,,,,,,,,,,,,,,,,,,,,,,,,,,,,,,,976014,2010-12-29_12h03.00.969,eb_02psyexp,2022.2.4,119.98373857367405,
155,0,155,0,,,,,,,,,,,,,,,,,,,,,,,,,,,,,,,,,,,,,,,,,,,,,,,,,,,,,,,,,,,350.4729708151426,350.4729708151426,350.4729708151426,350.4729708151426,350.4729708151426,350.4729708151426,s,1,1.409035509568639,351.89815718401223,352.9148322067922,,,,,,,,,,,,,,,,,,,,,,,,,,,,,,,,,,,,,,,976014,2010-12-29_12h03.00.969,eb_02psyexp,2022.2.4,119.98373857367405,
156,0,156,0,,,,,,,,,,,,,,,,,,,,,,,,,,,,,,,,,,,,,,,,,,,,,,,,,,,,,,,,,,,352.9148322067922,352.9148322067922,352.9148322067922,352.9148322067922,352.9148322067922,352.9148322067922,s,1,0.5191933492897078,353.44820383470505,354.48162602225784,,,,,,,,,,,,,,,,,,,,,,,,,,,,,,,,,,,,,,,976014,2010-12-29_12h03.00.969,eb_02psyexp,2022.2.4,119.98373857367405,
157,0,157,0,,,,,,,,,,,,,,,,,,,,,,,,,,,,,,,,,,,,,,,,,,,,,,,,,,,,,,,,,,,354.48162602225784,354.48162602225784,354.48162602225784,354.48162602225784,354.48162602225784,354.48162602225784,s,1,0.48041697102598846,354.9733310714364,355.9900933285244,,,,,,,,,,,,,,,,,,,,,,,,,,,,,,,,,,,,,,,976014,2010-12-29_12h03.00.969,eb_02psyexp,2022.2.4,119.98373857367405,
158,0,158,0,,,,,,,,,,,,,,,,,,,,,,,,,,,,,,,,,,,,,,,,,,,,,,,,,,,,,,,,,,,355.9900933285244,355.9900933285244,355.9900933285244,355.9900933285244,355.9900933285244,355.9900933285244,s,1,0.7479828245704994,356.7485093961004,357.7819186040433,,,,,,,,,,,,,,,,,,,,,,,,,,,,,,,,,,,,,,,976014,2010-12-29_12h03.00.969,eb_02psyexp,2022.2.4,119.98373857367405,
159,0,159,0,,,,,,,,,,,,,,,,,,,,,,,,,,,,,,,,,,,,,,,,,,,,,,,,,,,,,,,,,,,357.7819186040433,357.7819186040433,357.7819186040433,357.7819186040433,357.7819186040433,357.7819186040433,s,1,1.1482005782891065,358.94032543501817,359.9570895031793,,,,,,,,,,,,,,,,,,,,,,,,,,,,,,,,,,,,,,,976014,2010-12-29_12h03.00.969,eb_02psyexp,2022.2.4,119.98373857367405,
160,0,160,0,,,,,,,,,,,,,,,,,,,,,,,,,,,,,,,,,,,,,,,,,,,,,,,,,,,,,,,,,,,359.9570895031793,359.9570895031793,359.9570895031793,359.9570895031793,359.9570895031793,359.9570895031793,s,1,0.9330730728106573,360.8988390599843,361.9239266036311,,,,,,,,,,,,,,,,,,,,,,,,,,,,,,,,,,,,,,,976014,2010-12-29_12h03.00.969,eb_02psyexp,2022.2.4,119.98373857367405,
161,0,161,0,,,,,,,,,,,,,,,,,,,,,,,,,,,,,,,,,,,,,,,,,,,,,,,,,,,,,,,,,,,361.9239266036311,361.9239266036311,361.9239266036311,361.9239266036311,361.9239266036311,361.9239266036311,s,1,0.5493184444494545,362.4823420071043,363.4990583831677,,,,,,,,,,,,,,,,,,,,,,,,,,,,,,,,,,,,,,,976014,2010-12-29_12h03.00.969,eb_02psyexp,2022.2.4,119.98373857367405,
162,0,162,0,,,,,,,,,,,,,,,,,,,,,,,,,,,,,,,,,,,,,,,,,,,,,,,,,,,,,,,,,,,363.4990583831677,363.4990583831677,363.4990583831677,363.4990583831677,363.4990583831677,363.4990583831677,l,1,0.5661256768507883,364.07411530427635,365.1075051940279,,,,,,,,,,,,,,,,,,,,,,,,,,,,,,,,,,,,,,,976014,2010-12-29_12h03.00.969,eb_02psyexp,2022.2.4,119.98373857367405,
163,0,163,0,,,,,,,,,,,,,,,,,,,,,,,,,,,,,,,,,,,,,,,,,,,,,,,,,,,,,,,,,,,365.1075051940279,365.1075051940279,365.1075051940279,365.1075051940279,365.1075051940279,365.1075051940279,s,1,0.5577409261604771,365.674247996998,366.69932497595437,,,,,,,,,,,,,,,,,,,,,,,,,,,,,,,,,,,,,,,976014,2010-12-29_12h03.00.969,eb_02psyexp,2022.2.4,119.98373857367405,
164,0,164,0,,,,,,,,,,,,,,,,,,,,,,,,,,,,,,,,,,,,,,,,,,,,,,,,,,,,,,,,,,,366.69932497595437,366.69932497595437,366.69932497595437,366.69932497595437,366.69932497595437,366.69932497595437,s,1,0.46992501511704177,367.18269206094556,368.1994395274669,,,,,,,,,,,,,,,,,,,,,,,,,,,,,,,,,,,,,,,976014,2010-12-29_12h03.00.969,eb_02psyexp,2022.2.4,119.98373857367405,
165,0,165,0,,,,,,,,,,,,,,,,,,,,,,,,,,,,,,,,,,,,,,,,,,,,,,,,,,,,,,,,,,,368.1994395274669,368.1994395274669,368.1994395274669,368.1994395274669,368.1994395274669,368.1994395274669,s,1,0.561862668953836,368.77446596184745,369.7995906329015,,,,,,,,,,,,,,,,,,,,,,,,,,,,,,,,,,,,,,,976014,2010-12-29_12h03.00.969,eb_02psyexp,2022.2.4,119.98373857367405,
166,0,166,0,,,,,,,,,,,,,,,,,,,,,,,,,,,,,,,,,,,,,,,,,,,,,,,,,,,,,,,,,,,369.7995906329015,369.7995906329015,369.7995906329015,369.7995906329015,369.7995906329015,369.7995906329015,l,1,0.5457421420142055,370.35795442026574,371.3747100366745,,,,,,,,,,,,,,,,,,,,,,,,,,,,,,,,,,,,,,,976014,2010-12-29_12h03.00.969,eb_02psyexp,2022.2.4,119.98373857367405,
167,0,167,0,,,,,,,,,,,,,,,,,,,,,,,,,,,,,,,,,,,,,,,,,,,,,,,,,,,,,,,,,,,371.3747100366745,371.3747100366745,371.3747100366745,371.3747100366745,371.3747100366745,371.3747100366745,l,1,0.6666786937275901,372.0497745341854,373.0748309873743,,,,,,,,,,,,,,,,,,,,,,,,,,,,,,,,,,,,,,,976014,2010-12-29_12h03.00.969,eb_02psyexp,2022.2.4,119.98373857367405,
168,0,168,0,,,,,,,,,,,,,,,,,,,,,,,,,,,,,,,,,,,,,,,,,,,,,,,,,,,,,,,,,,,373.0748309873743,373.0748309873743,373.0748309873743,373.0748309873743,373.0748309873743,373.0748309873743,l,1,0.5425549225183204,373.6332246577367,374.64996125770267,,,,,,,,,,,,,,,,,,,,,,,,,,,,,,,,,,,,,,,976014,2010-12-29_12h03.00.969,eb_02psyexp,2022.2.4,119.98373857367405,
169,0,169,0,,,,,,,,,,,,,,,,,,,,,,,,,,,,,,,,,,,,,,,,,,,,,,,,,,,,,,,,,,,374.64996125770267,374.64996125770267,374.64996125770267,374.64996125770267,374.64996125770267,374.64996125770267,l,1,0.6154308365657926,375.2749970644945,376.30011781142093,,,,,,,,,,,,,,,,,,,,,,,,,,,,,,,,,,,,,,,976014,2010-12-29_12h03.00.969,eb_02psyexp,2022.2.4,119.98373857367405,
170,0,170,0,,,,,,,,,,,,,,,,,,,,,,,,,,,,,,,,,,,,,,,,,,,,,,,,,,,,,,,,,,,376.30011781142093,376.30011781142093,376.30011781142093,376.30011781142093,376.30011781142093,376.30011781142093,l,1,0.5174018776742741,376.8334894393338,377.85022302076686,,,,,,,,,,,,,,,,,,,,,,,,,,,,,,,,,,,,,,,976014,2010-12-29_12h03.00.969,eb_02psyexp,2022.2.4,119.98373857367405,
171,0,171,0,,,,,,,,,,,,,,,,,,,,,,,,,,,,,,,,,,,,,,,,,,,,,,,,,,,,,,,,,,,377.85022302076686,377.85022302076686,377.85022302076686,377.85022302076686,377.85022302076686,377.85022302076686,l,1,0.47031560726463795,378.33359644468874,379.3670361393597,,,,,,,,,,,,,,,,,,,,,,,,,,,,,,,,,,,,,,,976014,2010-12-29_12h03.00.969,eb_02psyexp,2022.2.4,119.98373857367405,
172,0,172,0,,,,,,,,,,,,,,,,,,,,,,,,,,,,,,,,,,,,,,,,,,,,,,,,,,,,,,,,,,,379.3670361393597,379.3670361393597,379.3670361393597,379.3670361393597,379.3670361393597,379.3670361393597,s,1,0.47345453104935586,379.85042012797203,380.86715974635445,,,,,,,,,,,,,,,,,,,,,,,,,,,,,,,,,,,,,,,976014,2010-12-29_12h03.00.969,eb_02psyexp,2022.2.4,119.98373857367405,
173,0,173,0,,,,,,,,,,,,,,,,,,,,,,,,,,,,,,,,,,,,,,,,,,,,,,,,,,,,,,,,,,,380.86715974635445,380.86715974635445,380.86715974635445,380.86715974635445,380.86715974635445,380.86715974635445,l,1,0.6213531062239781,381.5005449876189,382.5256512458436,,,,,,,,,,,,,,,,,,,,,,,,,,,,,,,,,,,,,,,976014,2010-12-29_12h03.00.969,eb_02psyexp,2022.2.4,119.98373857367405,
174,0,174,0,,,,,,,,,,,,,,,,,,,,,,,,,,,,,,,,,,,,,,,,,,,,,,,,,,,,,,,,,,,382.5256512458436,382.5256512458436,382.5256512458436,382.5256512458436,382.5256512458436,382.5256512458436,s,1,0.7068973045097664,383.24236722954083,384.2590884352103,,,,,,,,,,,,,,,,,,,,,,,,,,,,,,,,,,,,,,,976014,2010-12-29_12h03.00.969,eb_02psyexp,2022.2.4,119.98373857367405,
175,0,175,0,,,,,,,,,,,,,,,,,,,,,,,,,,,,,,,,,,,,,,,,,,,,,,,,,,,,,,,,,,,384.2590884352103,384.2590884352103,384.2590884352103,384.2590884352103,384.2590884352103,384.2590884352103,s,1,0.5734838404459879,384.84249931853265,385.86757478828076,,,,,,,,,,,,,,,,,,,,,,,,,,,,,,,,,,,,,,,976014,2010-12-29_12h03.00.969,eb_02psyexp,2022.2.4,119.98373857367405,
176,0,176,0,,,,,,,,,,,,,,,,,,,,,,,,,,,,,,,,,,,,,,,,,,,,,,,,,,,,,,,,,,,385.86757478828076,385.86757478828076,385.86757478828076,385.86757478828076,385.86757478828076,385.86757478828076,l,1,0.5490510064410046,386.42594944208395,387.44270626595244,,,,,,,,,,,,,,,,,,,,,,,,,,,,,,,,,,,,,,,976014,2010-12-29_12h03.00.969,eb_02psyexp,2022.2.4,119.98373857367405,
177,0,177,0,,,,,,,,,,,,,,,,,,,,,,,,,,,,,,,,,,,,,,,,,,,,,,,,,,,,,,,,,,,387.44270626595244,387.44270626595244,387.44270626595244,387.44270626595244,387.44270626595244,387.44270626595244,l,1,0.5019381734309718,387.95941403938923,388.9844801517902,,,,,,,,,,,,,,,,,,,,,,,,,,,,,,,,,,,,,,,976014,2010-12-29_12h03.00.969,eb_02psyexp,2022.2.4,119.98373857367405,
178,0,178,0,,,,,,,,,,,,,,,,,,,,,,,,,,,,,,,,,,,,,,,,,,,,,,,,,,,,,,,,,,,388.9844801517902,388.9844801517902,388.9844801517902,388.9844801517902,388.9844801517902,388.9844801517902,s,1,0.6801758543588221,389.6762311423663,390.6929725719383,,,,,,,,,,,,,,,,,,,,,,,,,,,,,,,,,,,,,,,976014,2010-12-29_12h03.00.969,eb_02psyexp,2022.2.4,119.98373857367405,
179,0,179,0,,,,,,,,,,,,,,,,,,,,,,,,,,,,,,,,,,,,,,,,,,,,,,,,,,,,,,,,,,,390.6929725719383,390.6929725719383,390.6929725719383,390.6929725719383,390.6929725719383,390.6929725719383,s,1,0.531714633340016,391.23469997302163,392.2597582372837,,,,,,,,,,,,,,,,,,,,,,,,,,,,,,,,,,,,,,,976014,2010-12-29_12h03.00.969,eb_02psyexp,2022.2.4,119.98373857367405,
180,0,180,0,,,,,,,,,,,,,,,,,,,,,,,,,,,,,,,,,,,,,,,,,,,,,,,,,,,,,,,,,,,392.2597582372837,392.2597582372837,392.2597582372837,392.2597582372837,392.2597582372837,392.2597582372837,s,1,0.5169641971588135,392.7931349966675,393.80987401132006,,,,,,,,,,,,,,,,,,,,,,,,,,,,,,,,,,,,,,,976014,2010-12-29_12h03.00.969,eb_02psyexp,2022.2.4,119.98373857367405,
181,0,181,0,,,,,,,,,,,,,,,,,,,,,,,,,,,,,,,,,,,,,,,,,,,,,,,,,,,,,,,,,,,393.80987401132006,393.80987401132006,393.80987401132006,393.80987401132006,393.80987401132006,393.80987401132006,l,1,0.5108559887157753,394.3349215600174,395.3683561233338,,,,,,,,,,,,,,,,,,,,,,,,,,,,,,,,,,,,,,,976014,2010-12-29_12h03.00.969,eb_02psyexp,2022.2.4,119.98373857367405,
182,0,182,0,,,,,,,,,,,,,,,,,,,,,,,,,,,,,,,,,,,,,,,,,,,,,,,,,,,,,,,,,,,395.3683561233338,395.3683561233338,395.3683561233338,395.3683561233338,395.3683561233338,395.3683561233338,s,1,0.4634029722074047,395.8433816219913,396.8601628956385,,,,,,,,,,,,,,,,,,,,,,,,,,,,,,,,,,,,,,,976014,2010-12-29_12h03.00.969,eb_02psyexp,2022.2.4,119.98373857367405,
183,0,183,0,,,,,,,,,,,,,,,,,,,,,,,,,,,,,,,,,,,,,,,,,,,,,,,,,,,,,,,,,,,396.8601628956385,396.8601628956385,396.8601628956385,396.8601628956385,396.8601628956385,396.8601628956385,l,1,0.603642440866679,397.47688579163514,398.5102847367525,,,,,,,,,,,,,,,,,,,,,,,,,,,,,,,,,,,,,,,976014,2010-12-29_12h03.00.969,eb_02psyexp,2022.2.4,119.98373857367405,
184,0,184,0,,,,,,,,,,,,,,,,,,,,,,,,,,,,,,,,,,,,,,,,,,,,,,,,,,,,,,,,,,,398.5102847367525,398.5102847367525,398.5102847367525,398.5102847367525,398.5102847367525,398.5102847367525,s,1,0.9775498621165752,399.50202434766106,400.51876336243004,,,,,,,,,,,,,,,,,,,,,,,,,,,,,,,,,,,,,,,976014,2010-12-29_12h03.00.969,eb_02psyexp,2022.2.4,119.98373857367405,
185,0,185,0,,,,,,,,,,,,,,,,,,,,,,,,,,,,,,,,,,,,,,,,,,,,,,,,,,,,,,,,,,,400.51876336243004,400.51876336243004,400.51876336243004,400.51876336243004,400.51876336243004,400.51876336243004,l,1,0.5050780026940629,401.035503735533,402.06056864047423,,,,,,,,,,,,,,,,,,,,,,,,,,,,,,,,,,,,,,,976014,2010-12-29_12h03.00.969,eb_02psyexp,2022.2.4,119.98373857367405,
186,0,186,0,,,,,,,,,,,,,,,,,,,,,,,,,,,,,,,,,,,,,,,,,,,,,,,,,,,,,,,,,,,402.06056864047423,402.06056864047423,402.06056864047423,402.06056864047423,402.06056864047423,402.06056864047423,s,1,0.5633178810821846,402.6356346170651,403.6523579356726,,,,,,,,,,,,,,,,,,,,,,,,,,,,,,,,,,,,,,,976014,2010-12-29_12h03.00.969,eb_02psyexp,2022.2.4,119.98373857367405,
187,0,187,0,,,,,,,,,,,,,,,,,,,,,,,,,,,,,,,,,,,,,,,,,,,,,,,,,,,,,,,,,,,403.6523579356726,403.6523579356726,403.6523579356726,403.6523579356726,403.6523579356726,403.6523579356726,s,1,0.4675539943855256,404.13575973326806,405.16084606957156,,,,,,,,,,,,,,,,,,,,,,,,,,,,,,,,,,,,,,,976014,2010-12-29_12h03.00.969,eb_02psyexp,2022.2.4,119.98373857367405,
188,0,188,0,,,,,,,,,,,,,,,,,,,,,,,,,,,,,,,,,,,,,,,,,,,,,,,,,,,,,,,,,,,405.16084606957156,405.16084606957156,405.16084606957156,405.16084606957156,405.16084606957156,405.16084606957156,l,1,0.49508017289917916,405.66922131204046,406.6859322548844,,,,,,,,,,,,,,,,,,,,,,,,,,,,,,,,,,,,,,,976014,2010-12-29_12h03.00.969,eb_02psyexp,2022.2.4,119.98373857367405,
189,0,189,0,,,,,,,,,,,,,,,,,,,,,,,,,,,,,,,,,,,,,,,,,,,,,,,,,,,,,,,,,,,406.6859322548844,406.6859322548844,406.6859322548844,406.6859322548844,406.6859322548844,406.6859322548844,l,1,0.49801293399650604,407.1943464358337,408.2194007760845,,,,,,,,,,,,,,,,,,,,,,,,,,,,,,,,,,,,,,,976014,2010-12-29_12h03.00.969,eb_02psyexp,2022.2.4,119.98373857367405,
190,0,190,0,,,,,,,,,,,,,,,,,,,,,,,,,,,,,,,,,,,,,,,,,,,,,,,,,,,,,,,,,,,408.2194007760845,408.2194007760845,408.2194007760845,408.2194007760845,408.2194007760845,408.2194007760845,s,1,0.45967423636466265,408.6944561578566,409.7111921540927,,,,,,,,,,,,,,,,,,,,,,,,,,,,,,,,,,,,,,,976014,2010-12-29_12h03.00.969,eb_02psyexp,2022.2.4,119.98373857367405,
191,0,191,0,,,,,,,,,,,,,,,,,,,,,,,,,,,,,,,,,,,,,,,,,,,,,,,,,,,,,,,,,,,409.7111921540927,409.7111921540927,409.7111921540927,409.7111921540927,409.7111921540927,409.7111921540927,l,1,0.47184628166723996,410.1945809721947,411.2279838414397,,,,,,,,,,,,,,,,,,,,,,,,,,,,,,,,,,,,,,,976014,2010-12-29_12h03.00.969,eb_02psyexp,2022.2.4,119.98373857367405,
192,0,192,0,,,,,,,,,,,,,,,,,,,,,,,,,,,,,,,,,,,,,,,,,,,,,,,,,,,,,,,,,,,411.2279838414397,411.2279838414397,411.2279838414397,411.2279838414397,411.2279838414397,411.2279838414397,s,1,0.5550354571314529,411.79472815361805,412.81977917358745,,,,,,,,,,,,,,,,,,,,,,,,,,,,,,,,,,,,,,,976014,2010-12-29_12h03.00.969,eb_02psyexp,2022.2.4,119.98373857367405,
193,0,193,0,,,,,,,,,,,,,,,,,,,,,,,,,,,,,,,,,,,,,,,,,,,,,,,,,,,,,,,,,,,412.81977917358745,412.81977917358745,412.81977917358745,412.81977917358745,412.81977917358745,412.81977917358745,s,1,0.5072836104081944,413.33652015030384,414.3532479966525,,,,,,,,,,,,,,,,,,,,,,,,,,,,,,,,,,,,,,,976014,2010-12-29_12h03.00.969,eb_02psyexp,2022.2.4,119.98373857367405,
194,0,194,0,,,,,,,,,,,,,,,,,,,,,,,,,,,,,,,,,,,,,,,,,,,,,,,,,,,,,,,,,,,414.3532479966525,414.3532479966525,414.3532479966525,414.3532479966525,414.3532479966525,414.3532479966525,l,1,0.5419234553119168,414.9116446855478,415.94507109886035,,,,,,,,,,,,,,,,,,,,,,,,,,,,,,,,,,,,,,,976014,2010-12-29_12h03.00.969,eb_02psyexp,2022.2.4,119.98373857367405,
195,0,195,0,,,,,,,,,,,,,,,,,,,,,,,,,,,,,,,,,,,,,,,,,,,,,,,,,,,,,,,,,,,415.94507109886035,415.94507109886035,415.94507109886035,415.94507109886035,415.94507109886035,415.94507109886035,s,1,0.5501762981293723,416.5034342824947,417.5201874842169,,,,,,,,,,,,,,,,,,,,,,,,,,,,,,,,,,,,,,,976014,2010-12-29_12h03.00.969,eb_02psyexp,2022.2.4,119.98373857367405,
196,0,196,0,,,,,,,,,,,,,,,,,,,,,,,,,,,,,,,,,,,,,,,,,,,,,,,,,,,,,,,,,,,417.5201874842169,417.5201874842169,417.5201874842169,417.5201874842169,417.5201874842169,417.5201874842169,s,1,0.6709785271668807,418.2035772681702,419.2286424750928,,,,,,,,,,,,,,,,,,,,,,,,,,,,,,,,,,,,,,,976014,2010-12-29_12h03.00.969,eb_02psyexp,2022.2.4,119.98373857367405,
197,0,197,0,,,,,,,,,,,,,,,,,,,,,,,,,,,,,,,,,,,,,,,,,,,,,,,,,,,,,,,,,,,419.2286424750928,419.2286424750928,419.2286424750928,419.2286424750928,419.2286424750928,419.2286424750928,s,1,0.46658506034873426,419.7037002715515,420.72040366812143,,,,,,,,,,,,,,,,,,,,,,,,,,,,,,,,,,,,,,,976014,2010-12-29_12h03.00.969,eb_02psyexp,2022.2.4,119.98373857367405,
198,0,198,0,,,,,,,,,,,,,,,,,,,,,,,,,,,,,,,,,,,,,,,,,,,,,,,,,,,,,,,,,,,420.72040366812143,420.72040366812143,420.72040366812143,420.72040366812143,420.72040366812143,420.72040366812143,l,1,0.49477983347605914,421.2288272064179,422.25389301695395,,,,,,,,,,,,,,,,,,,,,,,,,,,,,,,,,,,,,,,976014,2010-12-29_12h03.00.969,eb_02psyexp,2022.2.4,119.98373857367405,
199,0,199,0,,,,,0,0,0,0,,,,,,,,,,,,,,,,,,,,,,,,,,,,,,,,,,,,,,,,,,,,,,,,,,,422.25389301695395,422.25389301695395,422.25389301695395,422.25389301695395,422.25389301695395,422.25389301695395,s,1,0.4813321760157123,422.7456164789619,423.74571427796036,423.74571427796036,423.74571427796036,space,24.371960350195877,,,,,,,,,,,,,,,,,,,,,,,,,,,,,,,,,,,976014,2010-12-29_12h03.00.969,eb_02psyexp,2022.2.4,119.98373857367405,
199,0,199,0,,,,,,,,,,,,,,,,,,,,,,,,,,,,,,,,,,,,,,,,,,,,,,,,,,,,,,,,,,,,,,,,,,,,,,,,,,,,,,,,,,,,,,,,,,,,,,,,,,,,,,,,,,,,976014,2010-12-29_12h03.00.969,eb_02psyexp,2022.2.4,119.98373857367405,
200,0,200,0,,,,,,,,,,,,,,,,,,,,,,,,,,,,,,,,,,,,,,,,,,,,,,,,,,,,,,,,,,,448.14770026062615,448.14770026062615,448.14770026062615,448.14770026062615,448.14770026062615,448.14770026062615,l,1,4.194046552758664,452.35639839060605,453.3898181633558,,,,,,,,,,,,,,,,,,,,,,,,,,,,,,,,,,,,,,,976014,2010-12-29_12h03.00.969,eb_02psyexp,2022.2.4,119.98373857367405,
201,0,201,0,,,,,,,,,,,,,,,,,,,,,,,,,,,,,,,,,,,,,,,,,,,,,,,,,,,,,,,,,,,453.3898181633558,453.3898181633558,453.3898181633558,453.3898181633558,453.3898181633558,453.3898181633558,s,1,0.6799702955177054,454.08153836533893,455.0982728523668,,,,,,,,,,,,,,,,,,,,,,,,,,,,,,,,,,,,,,,976014,2010-12-29_12h03.00.969,eb_02psyexp,2022.2.4,119.98373857367405,
202,0,202,0,,,,,,,,,,,,,,,,,,,,,,,,,,,,,,,,,,,,,,,,,,,,,,,,,,,,,,,,,,,455.0982728523668,455.0982728523668,455.0982728523668,455.0982728523668,455.0982728523668,455.0982728523668,s,1,0.49157903087325394,455.5983318637591,456.6234106537886,,,,,,,,,,,,,,,,,,,,,,,,,,,,,,,,,,,,,,,976014,2010-12-29_12h03.00.969,eb_02psyexp,2022.2.4,119.98373857367405,
203,0,203,0,,,,,,,,,,,,,,,,,,,,,,,,,,,,,,,,,,,,,,,,,,,,,,,,,,,,,,,,,,,456.6234106537886,456.6234106537886,456.6234106537886,456.6234106537886,456.6234106537886,456.6234106537886,l,1,0.46141107322182506,457.09846784663387,458.115221953718,,,,,,,,,,,,,,,,,,,,,,,,,,,,,,,,,,,,,,,976014,2010-12-29_12h03.00.969,eb_02psyexp,2022.2.4,119.98373857367405,
204,0,204,0,,,,,,,,,,,,,,,,,,,,,,,,,,,,,,,,,,,,,,,,,,,,,,,,,,,,,,,,,,,458.115221953718,458.115221953718,458.115221953718,458.115221953718,458.115221953718,458.115221953718,l,1,0.4496483347611502,458.573577862815,459.607006691047,,,,,,,,,,,,,,,,,,,,,,,,,,,,,,,,,,,,,,,976014,2010-12-29_12h03.00.969,eb_02psyexp,2022.2.4,119.98373857367405,
205,0,205,0,,,,,,,,,,,,,,,,,,,,,,,,,,,,,,,,,,,,,,,,,,,,,,,,,,,,,,,,,,,459.607006691047,459.607006691047,459.607006691047,459.607006691047,459.607006691047,459.607006691047,s,1,0.37396854907274246,459.9903686144389,461.00712815497536,,,,,,,,,,,,,,,,,,,,,,,,,,,,,,,,,,,,,,,976014,2010-12-29_12h03.00.969,eb_02psyexp,2022.2.4,119.98373857367405,
206,0,206,0,,,,,,,,,,,,,,,,,,,,,,,,,,,,,,,,,,,,,,,,,,,,,,,,,,,,,,,,,,,461.00712815497536,461.00712815497536,461.00712815497536,461.00712815497536,461.00712815497536,461.00712815497536,l,1,0.5577901274664328,461.57383866002783,462.6072261349764,,,,,,,,,,,,,,,,,,,,,,,,,,,,,,,,,,,,,,,976014,2010-12-29_12h03.00.969,eb_02psyexp,2022.2.4,119.98373857367405,
207,0,207,0,,,,,,,,,,,,,,,,,,,,,,,,,,,,,,,,,,,,,,,,,,,,,,,,,,,,,,,,,,,462.6072261349764,462.6072261349764,462.6072261349764,462.6072261349764,462.6072261349764,462.6072261349764,s,1,0.44567027187440544,463.06558294966817,464.08235094184056,,,,,,,,,,,,,,,,,,,,,,,,,,,,,,,,,,,,,,,976014,2010-12-29_12h03.00.969,eb_02psyexp,2022.2.4,119.98373857367405,
208,0,208,0,,,,,,,,,,,,,,,,,,,,,,,,,,,,,,,,,,,,,,,,,,,,,,,,,,,,,,,,,,,464.08235094184056,464.08235094184056,464.08235094184056,464.08235094184056,464.08235094184056,464.08235094184056,l,1,0.44261978985741735,464.54073733766563,465.5741495641414,,,,,,,,,,,,,,,,,,,,,,,,,,,,,,,,,,,,,,,976014,2010-12-29_12h03.00.969,eb_02psyexp,2022.2.4,119.98373857367405,
209,0,209,0,,,,,,,,,,,,,,,,,,,,,,,,,,,,,,,,,,,,,,,,,,,,,,,,,,,,,,,,,,,465.5741495641414,465.5741495641414,465.5741495641414,465.5741495641414,465.5741495641414,465.5741495641414,s,1,0.4068398628151044,465.99086545722093,467.00759058701806,,,,,,,,,,,,,,,,,,,,,,,,,,,,,,,,,,,,,,,976014,2010-12-29_12h03.00.969,eb_02psyexp,2022.2.4,119.98373857367405,
210,0,210,0,,,,,,,,,,,,,,,,,,,,,,,,,,,,,,,,,,,,,,,,,,,,,,,,,,,,,,,,,,,467.00759058701806,467.00759058701806,467.00759058701806,467.00759058701806,467.00759058701806,467.00759058701806,s,1,0.4614029233343899,467.48264596867375,468.50773139938246,,,,,,,,,,,,,,,,,,,,,,,,,,,,,,,,,,,,,,,976014,2010-12-29_12h03.00.969,eb_02psyexp,2022.2.4,119.98373857367405,
211,0,211,0,,,,,,,,,,,,,,,,,,,,,,,,,,,,,,,,,,,,,,,,,,,,,,,,,,,,,,,,,,,468.50773139938246,468.50773139938246,468.50773139938246,468.50773139938246,468.50773139938246,468.50773139938246,s,1,0.4333240599371493,468.94942737801466,469.98285831918474,,,,,,,,,,,,,,,,,,,,,,,,,,,,,,,,,,,,,,,976014,2010-12-29_12h03.00.969,eb_02psyexp,2022.2.4,119.98373857367405,
212,0,212,0,,,,,,,,,,,,,,,,,,,,,,,,,,,,,,,,,,,,,,,,,,,,,,,,,,,,,,,,,,,469.98285831918474,469.98285831918474,469.98285831918474,469.98285831918474,469.98285831918474,469.98285831918474,s,1,0.46220101113431156,470.45790585281793,471.48295808013063,,,,,,,,,,,,,,,,,,,,,,,,,,,,,,,,,,,,,,,976014,2010-12-29_12h03.00.969,eb_02psyexp,2022.2.4,119.98373857367405,
213,0,213,0,,,,,,,,,,,,,,,,,,,,,,,,,,,,,,,,,,,,,,,,,,,,,,,,,,,,,,,,,,,471.48295808013063,471.48295808013063,471.48295808013063,471.48295808013063,471.48295808013063,471.48295808013063,s,1,0.3621406111633405,471.8580055835191,472.8914289784152,,,,,,,,,,,,,,,,,,,,,,,,,,,,,,,,,,,,,,,976014,2010-12-29_12h03.00.969,eb_02psyexp,2022.2.4,119.98373857367405,
214,0,214,0,,,,,,,,,,,,,,,,,,,,,,,,,,,,,,,,,,,,,,,,,,,,,,,,,,,,,,,,,,,472.8914289784152,472.8914289784152,472.8914289784152,472.8914289784152,472.8914289784152,472.8914289784152,s,1,0.3606832860969007,473.2664574653609,474.2832046300173,,,,,,,,,,,,,,,,,,,,,,,,,,,,,,,,,,,,,,,976014,2010-12-29_12h03.00.969,eb_02psyexp,2022.2.4,119.98373857367405,
215,0,215,0,,,,,,,,,,,,,,,,,,,,,,,,,,,,,,,,,,,,,,,,,,,,,,,,,,,,,,,,,,,474.2832046300173,474.2832046300173,474.2832046300173,474.2832046300173,474.2832046300173,474.2832046300173,l,1,0.4729438031790778,474.7665804687422,475.7916683142539,,,,,,,,,,,,,,,,,,,,,,,,,,,,,,,,,,,,,,,976014,2010-12-29_12h03.00.969,eb_02psyexp,2022.2.4,119.98373857367405,
216,0,216,0,,,,,,,,,,,,,,,,,,,,,,,,,,,,,,,,,,,,,,,,,,,,,,,,,,,,,,,,,,,475.7916683142539,475.7916683142539,475.7916683142539,475.7916683142539,475.7916683142539,475.7916683142539,l,1,0.7325121777830645,476.5333785703406,477.5501281498,,,,,,,,,,,,,,,,,,,,,,,,,,,,,,,,,,,,,,,976014,2010-12-29_12h03.00.969,eb_02psyexp,2022.2.4,119.98373857367405,
217,0,217,0,,,,,,,,,,,,,,,,,,,,,,,,,,,,,,,,,,,,,,,,,,,,,,,,,,,,,,,,,,,477.5501281498,477.5501281498,477.5501281498,477.5501281498,477.5501281498,477.5501281498,l,1,0.5100717861205339,478.0751832446549,479.1086250523804,,,,,,,,,,,,,,,,,,,,,,,,,,,,,,,,,,,,,,,976014,2010-12-29_12h03.00.969,eb_02psyexp,2022.2.4,119.98373857367405,
218,0,218,0,,,,,,,,,,,,,,,,,,,,,,,,,,,,,,,,,,,,,,,,,,,,,,,,,,,,,,,,,,,479.1086250523804,479.1086250523804,479.1086250523804,479.1086250523804,479.1086250523804,479.1086250523804,s,1,0.4635825721779838,479.5836366659496,480.6170654941816,,,,,,,,,,,,,,,,,,,,,,,,,,,,,,,,,,,,,,,976014,2010-12-29_12h03.00.969,eb_02psyexp,2022.2.4,119.98373857367405,
219,0,219,0,,,,,,,,,,,,,,,,,,,,,,,,,,,,,,,,,,,,,,,,,,,,,,,,,,,,,,,,,,,480.6170654941816,480.6170654941816,480.6170654941816,480.6170654941816,480.6170654941816,480.6170654941816,s,1,0.5151790645904839,481.14208919683006,482.1588611131301,,,,,,,,,,,,,,,,,,,,,,,,,,,,,,,,,,,,,,,976014,2010-12-29_12h03.00.969,eb_02psyexp,2022.2.4,119.98373857367405,
220,0,220,0,,,,,,,,,,,,,,,,,,,,,,,,,,,,,,,,,,,,,,,,,,,,,,,,,,,,,,,,,,,482.1588611131301,482.1588611131301,482.1588611131301,482.1588611131301,482.1588611131301,482.1588611131301,s,1,0.573417735635303,482.7422215875704,483.767312451615,,,,,,,,,,,,,,,,,,,,,,,,,,,,,,,,,,,,,,,976014,2010-12-29_12h03.00.969,eb_02psyexp,2022.2.4,119.98373857367405,
221,0,221,0,,,,,,,,,,,,,,,,,,,,,,,,,,,,,,,,,,,,,,,,,,,,,,,,,,,,,,,,,,,483.767312451615,483.767312451615,483.767312451615,483.767312451615,483.767312451615,483.767312451615,l,1,0.6049935151822865,484.3840338384034,485.4007755697239,,,,,,,,,,,,,,,,,,,,,,,,,,,,,,,,,,,,,,,976014,2010-12-29_12h03.00.969,eb_02psyexp,2022.2.4,119.98373857367405,
222,0,222,0,,,,,,,,,,,,,,,,,,,,,,,,,,,,,,,,,,,,,,,,,,,,,,,,,,,,,,,,,,,485.4007755697239,485.4007755697239,485.4007755697239,485.4007755697239,485.4007755697239,485.4007755697239,s,1,0.523554457933642,485.93416108272504,486.9676028903341,,,,,,,,,,,,,,,,,,,,,,,,,,,,,,,,,,,,,,,976014,2010-12-29_12h03.00.969,eb_02psyexp,2022.2.4,119.98373857367405,
223,0,223,0,,,,,,,,,,,,,,,,,,,,,,,,,,,,,,,,,,,,,,,,,,,,,,,,,,,,,,,,,,,486.9676028903341,486.9676028903341,486.9676028903341,486.9676028903341,486.9676028903341,486.9676028903341,s,1,0.4838082402711734,487.46764288528357,488.4927307307953,,,,,,,,,,,,,,,,,,,,,,,,,,,,,,,,,,,,,,,976014,2010-12-29_12h03.00.969,eb_02psyexp,2022.2.4,119.98373857367405,
224,0,224,0,,,,,,,,,,,,,,,,,,,,,,,,,,,,,,,,,,,,,,,,,,,,,,,,,,,,,,,,,,,488.4927307307953,488.4927307307953,488.4927307307953,488.4927307307953,488.4927307307953,488.4927307307953,s,1,0.48665406892541796,488.99276831094176,490.00952634215355,,,,,,,,,,,,,,,,,,,,,,,,,,,,,,,,,,,,,,,976014,2010-12-29_12h03.00.969,eb_02psyexp,2022.2.4,119.98373857367405,
225,0,225,0,,,,,,,,,,,,,,,,,,,,,,,,,,,,,,,,,,,,,,,,,,,,,,,,,,,,,,,,,,,490.00952634215355,490.00952634215355,490.00952634215355,490.00952634215355,490.00952634215355,490.00952634215355,s,1,0.5218761797295883,490.5428892163327,491.5762860486284,,,,,,,,,,,,,,,,,,,,,,,,,,,,,,,,,,,,,,,976014,2010-12-29_12h03.00.969,eb_02psyexp,2022.2.4,119.98373857367405,
226,0,226,0,,,,,,,,,,,,,,,,,,,,,,,,,,,,,,,,,,,,,,,,,,,,,,,,,,,,,,,,,,,491.5762860486284,491.5762860486284,491.5762860486284,491.5762860486284,491.5762860486284,491.5762860486284,s,1,0.41915619163773954,492.0096624759026,493.0264057164313,,,,,,,,,,,,,,,,,,,,,,,,,,,,,,,,,,,,,,,976014,2010-12-29_12h03.00.969,eb_02psyexp,2022.2.4,119.98373857367405,
227,0,227,0,,,,,,,,,,,,,,,,,,,,,,,,,,,,,,,,,,,,,,,,,,,,,,,,,,,,,,,,,,,493.0264057164313,493.0264057164313,493.0264057164313,493.0264057164313,493.0264057164313,493.0264057164313,l,1,0.5930614395765588,493.634819022147,494.65991531929467,,,,,,,,,,,,,,,,,,,,,,,,,,,,,,,,,,,,,,,976014,2010-12-29_12h03.00.969,eb_02psyexp,2022.2.4,119.98373857367405,
228,0,228,0,,,,,,,,,,,,,,,,,,,,,,,,,,,,,,,,,,,,,,,,,,,,,,,,,,,,,,,,,,,494.65991531929467,494.65991531929467,494.65991531929467,494.65991531929467,494.65991531929467,494.65991531929467,s,1,0.4075869381194934,495.0766221570084,496.1100147634279,,,,,,,,,,,,,,,,,,,,,,,,,,,,,,,,,,,,,,,976014,2010-12-29_12h03.00.969,eb_02psyexp,2022.2.4,119.98373857367405,
229,0,229,0,,,,,,,,,,,,,,,,,,,,,,,,,,,,,,,,,,,,,,,,,,,,,,,,,,,,,,,,,,,496.1100147634279,496.1100147634279,496.1100147634279,496.1100147634279,496.1100147634279,496.1100147634279,s,1,0.3655086379731074,496.4850544187939,497.50179343344644,,,,,,,,,,,,,,,,,,,,,,,,,,,,,,,,,,,,,,,976014,2010-12-29_12h03.00.969,eb_02psyexp,2022.2.4,119.98373857367405,
230,0,230,0,,,,,,,,,,,,,,,,,,,,,,,,,,,,,,,,,,,,,,,,,,,,,,,,,,,,,,,,,,,497.50179343344644,497.50179343344644,497.50179343344644,497.50179343344644,497.50179343344644,497.50179343344644,s,1,0.3657576630357653,497.8768352017505,498.90189014573116,,,,,,,,,,,,,,,,,,,,,,,,,,,,,,,,,,,,,,,976014,2010-12-29_12h03.00.969,eb_02psyexp,2022.2.4,119.98373857367405,
231,0,231,0,,,,,,,,,,,,,,,,,,,,,,,,,,,,,,,,,,,,,,,,,,,,,,,,,,,,,,,,,,,498.90189014573116,498.90189014573116,498.90189014573116,498.90189014573116,498.90189014573116,498.90189014573116,l,1,0.38166267005726695,499.2936365180649,500.3103595348075,,,,,,,,,,,,,,,,,,,,,,,,,,,,,,,,,,,,,,,976014,2010-12-29_12h03.00.969,eb_02psyexp,2022.2.4,119.98373857367405,
232,0,232,0,,,,,,,,,,,,,,,,,,,,,,,,,,,,,,,,,,,,,,,,,,,,,,,,,,,,,,,,,,,500.3103595348075,500.3103595348075,500.3103595348075,500.3103595348075,500.3103595348075,500.3103595348075,s,1,0.4372468844521791,500.76040072215255,501.78547951218206,,,,,,,,,,,,,,,,,,,,,,,,,,,,,,,,,,,,,,,976014,2010-12-29_12h03.00.969,eb_02psyexp,2022.2.4,119.98373857367405,
233,0,233,0,,,,,,,,,,,,,,,,,,,,,,,,,,,,,,,,,,,,,,,,,,,,,,,,,,,,,,,,,,,501.78547951218206,501.78547951218206,501.78547951218206,501.78547951218206,501.78547951218206,501.78547951218206,l,1,0.48121747362893075,502.2771821465576,503.29393625375815,,,,,,,,,,,,,,,,,,,,,,,,,,,,,,,,,,,,,,,976014,2010-12-29_12h03.00.969,eb_02psyexp,2022.2.4,119.98373857367405,
234,0,234,0,,,,,,,,,,,,,,,,,,,,,,,,,,,,,,,,,,,,,,,,,,,,,,,,,,,,,,,,,,,503.29393625375815,503.29393625375815,503.29393625375815,503.29393625375815,503.29393625375815,503.29393625375815,s,1,0.44472669321112335,503.7523190273205,504.7773854415864,,,,,,,,,,,,,,,,,,,,,,,,,,,,,,,,,,,,,,,976014,2010-12-29_12h03.00.969,eb_02psyexp,2022.2.4,119.98373857367405,
235,0,235,0,,,,,,,,,,,,,,,,,,,,,,,,,,,,,,,,,,,,,,,,,,,,,,,,,,,,,,,,,,,504.7773854415864,504.7773854415864,504.7773854415864,504.7773854415864,504.7773854415864,504.7773854415864,s,1,0.449297284707427,505.23578451504,506.25249787268694,,,,,,,,,,,,,,,,,,,,,,,,,,,,,,,,,,,,,,,976014,2010-12-29_12h03.00.969,eb_02psyexp,2022.2.4,119.98373857367405,
236,0,236,0,,,,,,,,,,,,,,,,,,,,,,,,,,,,,,,,,,,,,,,,,,,,,,,,,,,,,,,,,,,506.25249787268694,506.25249787268694,506.25249787268694,506.25249787268694,506.25249787268694,506.25249787268694,l,1,0.49417855113279074,506.7608646634035,507.78597394016106,,,,,,,,,,,,,,,,,,,,,,,,,,,,,,,,,,,,,,,976014,2010-12-29_12h03.00.969,eb_02psyexp,2022.2.4,119.98373857367405,
237,0,237,0,,,,,,,,,,,,,,,,,,,,,,,,,,,,,,,,,,,,,,,,,,,,,,,,,,,,,,,,,,,507.78597394016106,507.78597394016106,507.78597394016106,507.78597394016106,507.78597394016106,507.78597394016106,s,0,0.37676095054484904,508.17767352599185,509.19439744821284,,,,,,,,,,,,,,,,,,,,,,,,,,,,,,,,,,,,,,,976014,2010-12-29_12h03.00.969,eb_02psyexp,2022.2.4,119.98373857367405,
238,0,238,0,,,,,,,,,,,,,,,,,,,,,,,,,,,,,,,,,,,,,,,,,,,,,,,,,,,,,,,,,,,509.19439744821284,509.19439744821284,509.19439744821284,509.19439744821284,509.19439744821284,509.19439744821284,s,1,1.0563812491018325,510.2611986589618,511.2862554140156,,,,,,,,,,,,,,,,,,,,,,,,,,,,,,,,,,,,,,,976014,2010-12-29_12h03.00.969,eb_02psyexp,2022.2.4,119.98373857367405,
239,0,239,0,,,,,,,,,,,,,,,,,,,,,,,,,,,,,,,,,,,,,,,,,,,,,,,,,,,,,,,,,,,511.2862554140156,511.2862554140156,511.2862554140156,511.2862554140156,511.2862554140156,511.2862554140156,l,1,0.652520484640263,511.9529614215717,512.9697179435752,,,,,,,,,,,,,,,,,,,,,,,,,,,,,,,,,,,,,,,976014,2010-12-29_12h03.00.969,eb_02psyexp,2022.2.4,119.98373857367405,
240,0,240,0,,,,,,,,,,,,,,,,,,,,,,,,,,,,,,,,,,,,,,,,,,,,,,,,,,,,,,,,,,,512.9697179435752,512.9697179435752,512.9697179435752,512.9697179435752,512.9697179435752,512.9697179435752,l,1,0.6651196457678452,513.6447872706922,514.6698862845078,,,,,,,,,,,,,,,,,,,,,,,,,,,,,,,,,,,,,,,976014,2010-12-29_12h03.00.969,eb_02psyexp,2022.2.4,119.98373857367405,
241,0,241,0,,,,,,,,,,,,,,,,,,,,,,,,,,,,,,,,,,,,,,,,,,,,,,,,,,,,,,,,,,,514.6698862845078,514.6698862845078,514.6698862845078,514.6698862845078,514.6698862845078,514.6698862845078,l,1,1.3089732985245064,515.9949630522169,517.0117259129183,,,,,,,,,,,,,,,,,,,,,,,,,,,,,,,,,,,,,,,976014,2010-12-29_12h03.00.969,eb_02psyexp,2022.2.4,119.98373857367405,
242,0,242,0,,,,,,,,,,,,,,,,,,,,,,,,,,,,,,,,,,,,,,,,,,,,,,,,,,,,,,,,,,,517.0117259129183,517.0117259129183,517.0117259129183,517.0117259129183,517.0117259129183,517.0117259129183,s,1,0.5431715992745012,517.5701153574046,518.6035152081167,,,,,,,,,,,,,,,,,,,,,,,,,,,,,,,,,,,,,,,976014,2010-12-29_12h03.00.969,eb_02psyexp,2022.2.4,119.98373857367405,
243,0,243,0,,,,,,,,,,,,,,,,,,,,,,,,,,,,,,,,,,,,,,,,,,,,,,,,,,,,,,,,,,,518.6035152081167,518.6035152081167,518.6035152081167,518.6035152081167,518.6035152081167,518.6035152081167,s,1,0.5984216672368348,519.2119155342225,520.2286581712542,,,,,,,,,,,,,,,,,,,,,,,,,,,,,,,,,,,,,,,976014,2010-12-29_12h03.00.969,eb_02psyexp,2022.2.4,119.98373857367405,
244,0,244,0,,,,,,,,,,,,,,,,,,,,,,,,,,,,,,,,,,,,,,,,,,,,,,,,,,,,,,,,,,,520.2286581712542,520.2286581712542,520.2286581712542,520.2286581712542,520.2286581712542,520.2286581712542,l,1,0.7013348384061828,520.9453720420133,521.9704921852099,,,,,,,,,,,,,,,,,,,,,,,,,,,,,,,,,,,,,,,976014,2010-12-29_12h03.00.969,eb_02psyexp,2022.2.4,119.98373857367405,
245,0,245,0,,,,,,,,,,,,,,,,,,,,,,,,,,,,,,,,,,,,,,,,,,,,,,,,,,,,,,,,,,,521.9704921852099,521.9704921852099,521.9704921852099,521.9704921852099,521.9704921852099,521.9704921852099,l,1,0.7354941401863471,522.7205289353151,523.7373056811048,,,,,,,,,,,,,,,,,,,,,,,,,,,,,,,,,,,,,,,976014,2010-12-29_12h03.00.969,eb_02psyexp,2022.2.4,119.98373857367405,
246,0,246,0,,,,,,,,,,,,,,,,,,,,,,,,,,,,,,,,,,,,,,,,,,,,,,,,,,,,,,,,,,,523.7373056811048,523.7373056811048,523.7373056811048,523.7373056811048,523.7373056811048,523.7373056811048,l,1,0.5207068182062358,524.2706643295242,525.2957509675762,,,,,,,,,,,,,,,,,,,,,,,,,,,,,,,,,,,,,,,976014,2010-12-29_12h03.00.969,eb_02psyexp,2022.2.4,119.98373857367405,
247,0,247,0,,,,,,,,,,,,,,,,,,,,,,,,,,,,,,,,,,,,,,,,,,,,,,,,,,,,,,,,,,,525.2957509675762,525.2957509675762,525.2957509675762,525.2957509675762,525.2957509675762,525.2957509675762,l,1,0.6423216237453744,525.9541624771664,526.9708710052073,,,,,,,,,,,,,,,,,,,,,,,,,,,,,,,,,,,,,,,976014,2010-12-29_12h03.00.969,eb_02psyexp,2022.2.4,119.98373857367405,
248,0,248,0,,,,,,,,,,,,,,,,,,,,,,,,,,,,,,,,,,,,,,,,,,,,,,,,,,,,,,,,,,,526.9708710052073,526.9708710052073,526.9708710052073,526.9708710052073,526.9708710052073,526.9708710052073,l,1,0.5271914318436757,527.5126023304183,528.5377007406205,,,,,,,,,,,,,,,,,,,,,,,,,,,,,,,,,,,,,,,976014,2010-12-29_12h03.00.969,eb_02psyexp,2022.2.4,119.98373857367405,
249,0,249,0,,,,,,,,,,,,,,,,,,,,,,,,,,,,,,,,,,,,,,,,,,,,,,,,,,,,,,,,,,,528.5377007406205,528.5377007406205,528.5377007406205,528.5377007406205,528.5377007406205,528.5377007406205,s,1,0.5203986307606101,529.0710518427659,530.1044827838195,,,,,,,,,,,,,,,,,,,,,,,,,,,,,,,,,,,,,,,976014,2010-12-29_12h03.00.969,eb_02psyexp,2022.2.4,119.98373857367405,
250,0,250,0,,,,,,,,,,,,,,,,,,,,,,,,,,,,,,,,,,,,,,,,,,,,,,,,,,,,,,,,,,,530.1044827838195,530.1044827838195,530.1044827838195,530.1044827838195,530.1044827838195,530.1044827838195,s,1,0.513629675609991,530.6295230882242,531.646283836104,,,,,,,,,,,,,,,,,,,,,,,,,,,,,,,,,,,,,,,976014,2010-12-29_12h03.00.969,eb_02psyexp,2022.2.4,119.98373857367405,
251,0,251,0,,,,,,,,,,,,,,,,,,,,,,,,,,,,,,,,,,,,,,,,,,,,,,,,,,,,,,,,,,,531.646283836104,531.646283836104,531.646283836104,531.646283836104,531.646283836104,531.646283836104,l,1,0.5078625561436638,532.1629973446252,533.1964023266919,,,,,,,,,,,,,,,,,,,,,,,,,,,,,,,,,,,,,,,976014,2010-12-29_12h03.00.969,eb_02psyexp,2022.2.4,119.98373857367405,
252,0,252,0,,,,,,,,,,,,,,,,,,,,,,,,,,,,,,,,,,,,,,,,,,,,,,,,,,,,,,,,,,,533.1964023266919,533.1964023266919,533.1964023266919,533.1964023266919,533.1964023266919,533.1964023266919,s,1,0.5898020783206448,533.79646589607,534.8215193308424,,,,,,,,,,,,,,,,,,,,,,,,,,,,,,,,,,,,,,,976014,2010-12-29_12h03.00.969,eb_02psyexp,2022.2.4,119.98373857367405,
253,0,253,0,,,,,,,,,,,,,,,,,,,,,,,,,,,,,,,,,,,,,,,,,,,,,,,,,,,,,,,,,,,534.8215193308424,534.8215193308424,534.8215193308424,534.8215193308424,534.8215193308424,534.8215193308424,s,1,0.523670669645071,535.3549268785864,536.3716465750476,,,,,,,,,,,,,,,,,,,,,,,,,,,,,,,,,,,,,,,976014,2010-12-29_12h03.00.969,eb_02psyexp,2022.2.4,119.98373857367405,
254,0,254,0,,,,,,,,,,,,,,,,,,,,,,,,,,,,,,,,,,,,,,,,,,,,,,,,,,,,,,,,,,,536.3716465750476,536.3716465750476,536.3716465750476,536.3716465750476,536.3716465750476,536.3716465750476,l,1,0.5096051280852407,536.8967077069683,537.9217928358121,,,,,,,,,,,,,,,,,,,,,,,,,,,,,,,,,,,,,,,976014,2010-12-29_12h03.00.969,eb_02psyexp,2022.2.4,119.98373857367405,
255,0,255,0,,,,,,,,,,,,,,,,,,,,,,,,,,,,,,,,,,,,,,,,,,,,,,,,,,,,,,,,,,,537.9217928358121,537.9217928358121,537.9217928358121,537.9217928358121,537.9217928358121,537.9217928358121,l,1,0.6234539726283401,538.5551925657783,539.6469436771004,,,,,,,,,,,,,,,,,,,,,,,,,,,,,,,,,,,,,,,976014,2010-12-29_12h03.00.969,eb_02psyexp,2022.2.4,119.98373857367405,
256,0,256,0,,,,,,,,,,,,,,,,,,,,,,,,,,,,,,,,,,,,,,,,,,,,,,,,,,,,,,,,,,,539.6469436771004,539.6469436771004,539.6469436771004,539.6469436771004,539.6469436771004,539.6469436771004,s,1,0.554330640588887,540.2136623321567,541.2387145595858,,,,,,,,,,,,,,,,,,,,,,,,,,,,,,,,,,,,,,,976014,2010-12-29_12h03.00.969,eb_02psyexp,2022.2.4,119.98373857367405,
257,0,257,0,,,,,,,,,,,,,,,,,,,,,,,,,,,,,,,,,,,,,,,,,,,,,,,,,,,,,,,,,,,541.2387145595858,541.2387145595858,541.2387145595858,541.2387145595858,541.2387145595858,541.2387145595858,s,1,0.5225840146886185,541.7721166741103,542.8055147137493,,,,,,,,,,,,,,,,,,,,,,,,,,,,,,,,,,,,,,,976014,2010-12-29_12h03.00.969,eb_02psyexp,2022.2.4,119.98373857367405,
258,0,258,0,,,,,,,,,,,,,,,,,,,,,,,,,,,,,,,,,,,,,,,,,,,,,,,,,,,,,,,,,,,542.8055147137493,542.8055147137493,542.8055147137493,542.8055147137493,542.8055147137493,542.8055147137493,s,1,0.5718122029211372,543.3889135230565,544.4139760133112,,,,,,,,,,,,,,,,,,,,,,,,,,,,,,,,,,,,,,,976014,2010-12-29_12h03.00.969,eb_02psyexp,2022.2.4,119.98373857367405,
259,0,259,0,,,,,,,,,,,,,,,,,,,,,,,,,,,,,,,,,,,,,,,,,,,,,,,,,,,,,,,,,,,544.4139760133112,544.4139760133112,544.4139760133112,544.4139760133112,544.4139760133112,544.4139760133112,s,1,0.5794006770011038,545.0057233514963,546.0224774586968,,,,,,,,,,,,,,,,,,,,,,,,,,,,,,,,,,,,,,,976014,2010-12-29_12h03.00.969,eb_02psyexp,2022.2.4,119.98373857367405,
260,0,260,0,,,,,,,,,,,,,,,,,,,,,,,,,,,,,,,,,,,,,,,,,,,,,,,,,,,,,,,,,,,546.0224774586968,546.0224774586968,546.0224774586968,546.0224774586968,546.0224774586968,546.0224774586968,l,1,0.5949018106330186,546.6308521276806,547.6559278991772,,,,,,,,,,,,,,,,,,,,,,,,,,,,,,,,,,,,,,,976014,2010-12-29_12h03.00.969,eb_02psyexp,2022.2.4,119.98373857367405,
261,0,261,0,,,,,,,,,,,,,,,,,,,,,,,,,,,,,,,,,,,,,,,,,,,,,,,,,,,,,,,,,,,547.6559278991772,547.6559278991772,547.6559278991772,547.6559278991772,547.6559278991772,547.6559278991772,s,1,0.5934942904859781,548.2643125292379,549.2810464125359,,,,,,,,,,,,,,,,,,,,,,,,,,,,,,,,,,,,,,,976014,2010-12-29_12h03.00.969,eb_02psyexp,2022.2.4,119.98373857367405,
262,0,262,0,,,,,,,,,,,,,,,,,,,,,,,,,,,,,,,,,,,,,,,,,,,,,,,,,,,,,,,,,,,549.2810464125359,549.2810464125359,549.2810464125359,549.2810464125359,549.2810464125359,549.2810464125359,l,1,0.9034270114498213,550.1977736250265,551.2228717333637,,,,,,,,,,,,,,,,,,,,,,,,,,,,,,,,,,,,,,,976014,2010-12-29_12h03.00.969,eb_02psyexp,2022.2.4,119.98373857367405,
263,0,263,0,,,,,,,,,,,,,,,,,,,,,,,,,,,,,,,,,,,,,,,,,,,,,,,,,,,,,,,,,,,551.2228717333637,551.2228717333637,551.2228717333637,551.2228717333637,551.2228717333637,551.2228717333637,s,1,0.5215918383328244,551.7562798848376,552.7896764152683,,,,,,,,,,,,,,,,,,,,,,,,,,,,,,,,,,,,,,,976014,2010-12-29_12h03.00.969,eb_02psyexp,2022.2.4,119.98373857367405,
264,0,264,0,,,,,,,,,,,,,,,,,,,,,,,,,,,,,,,,,,,,,,,,,,,,,,,,,,,,,,,,,,,552.7896764152683,552.7896764152683,552.7896764152683,552.7896764152683,552.7896764152683,552.7896764152683,s,1,0.6588372704572976,553.4647321591619,554.4814781163586,,,,,,,,,,,,,,,,,,,,,,,,,,,,,,,,,,,,,,,976014,2010-12-29_12h03.00.969,eb_02psyexp,2022.2.4,119.98373857367405,
265,0,265,0,,,,,,,,,,,,,,,,,,,,,,,,,,,,,,,,,,,,,,,,,,,,,,,,,,,,,,,,,,,554.4814781163586,554.4814781163586,554.4814781163586,554.4814781163586,554.4814781163586,554.4814781163586,l,1,0.6870583046693355,555.181551676942,556.2149805050576,,,,,,,,,,,,,,,,,,,,,,,,,,,,,,,,,,,,,,,976014,2010-12-29_12h03.00.969,eb_02psyexp,2022.2.4,119.98373857367405,
266,0,266,0,,,,,,,,,,,,,,,,,,,,,,,,,,,,,,,,,,,,,,,,,,,,,,,,,,,,,,,,,,,556.2149805050576,556.2149805050576,556.2149805050576,556.2149805050576,556.2149805050576,556.2149805050576,s,1,0.5295739229768515,556.7567024729215,557.7734122083057,,,,,,,,,,,,,,,,,,,,,,,,,,,,,,,,,,,,,,,976014,2010-12-29_12h03.00.969,eb_02psyexp,2022.2.4,119.98373857367405,
267,0,267,0,,,,,,,,,,,,,,,,,,,,,,,,,,,,,,,,,,,,,,,,,,,,,,,,,,,,,,,,,,,557.7734122083057,557.7734122083057,557.7734122083057,557.7734122083057,557.7734122083057,557.7734122083057,l,1,0.547216068720445,558.3317913899664,559.3652117663296,,,,,,,,,,,,,,,,,,,,,,,,,,,,,,,,,,,,,,,976014,2010-12-29_12h03.00.969,eb_02psyexp,2022.2.4,119.98373857367405,
268,0,268,0,,,,,,,,,,,,,,,,,,,,,,,,,,,,,,,,,,,,,,,,,,,,,,,,,,,,,,,,,,,559.3652117663296,559.3652117663296,559.3652117663296,559.3652117663296,559.3652117663296,559.3652117663296,s,1,0.5794079212937504,559.9569422011264,560.9737228709273,,,,,,,,,,,,,,,,,,,,,,,,,,,,,,,,,,,,,,,976014,2010-12-29_12h03.00.969,eb_02psyexp,2022.2.4,119.98373857367405,
269,0,269,0,,,,,,,,,,,,,,,,,,,,,,,,,,,,,,,,,,,,,,,,,,,,,,,,,,,,,,,,,,,560.9737228709273,560.9737228709273,560.9737228709273,560.9737228709273,560.9737228709273,560.9737228709273,l,1,0.7469182045897469,561.7320885297377,562.7571555477334,,,,,,,,,,,,,,,,,,,,,,,,,,,,,,,,,,,,,,,976014,2010-12-29_12h03.00.969,eb_02psyexp,2022.2.4,119.98373857367405,
270,0,270,0,,,,,,,,,,,,,,,,,,,,,,,,,,,,,,,,,,,,,,,,,,,,,,,,,,,,,,,,,,,562.7571555477334,562.7571555477334,562.7571555477334,562.7571555477334,562.7571555477334,562.7571555477334,s,1,0.595544446259737,563.3655504405033,564.3822939830134,,,,,,,,,,,,,,,,,,,,,,,,,,,,,,,,,,,,,,,976014,2010-12-29_12h03.00.969,eb_02psyexp,2022.2.4,119.98373857367405,
