trials.thisRepN,trials.thisTrialN,trials.thisN,trials.thisIndex,image_loop.thisRepN,image_loop.thisTrialN,image_loop.thisN,image_loop.thisIndex,break_loop.thisRepN,break_loop.thisTrialN,break_loop.thisN,break_loop.thisIndex,test_trials.thisRepN,test_trials.thisTrialN,test_trials.thisN,test_trials.thisIndex,distance matrix,tools,welcome_text.started,instructions_0_keypress.started,instructions_0_keypress.keys,instructions_0_keypress.rt,consent_image_0.started,consent0_key_resp.started,consent0_text.started,consent0_key_resp.keys,consent0_key_resp.rt,consent_image_1.started,consent1_key_resp.started,consent1_text.started,consent1_key_resp.keys,consent1_key_resp.rt,consent2_text.started,consent_image_2.started,consent2_key_resp.started,consent2_key_resp.keys,consent2_key_resp.rt,agree_button.started,disagree_button.started,consent_image_3.started,agree_button.numClicks,agree_button.timesOn,agree_button.timesOff,disagree_button.numClicks,disagree_button.timesOn,disagree_button.timesOff,instructions_text1.started,instructions1_key_resp.started,instr1_cnt_text.started,instructions1_key_resp.keys,instructions1_key_resp.rt,instructions_text2.started,instr2_cnt_text.started,instructions2_key_resp.started,instructions2_key_resp.keys,instructions2_key_resp.rt,instructions_text3.started,instructions3_key_resp.started,instr3_cnt_text.started,instructions3_key_resp.keys,instructions3_key_resp.rt,text_countdown.started,image.started,small_large_keyresp.started,task_question_text.started,smalleroption_text.started,largeroption_text.started,accuracy_score_text.started,small_large_keyresp.keys,small_large_keyresp.corr,small_large_keyresp.rt,fb_2.started,fb_2.stopped,break_text.started,break_key_resp.started,break_key_resp.keys,break_key_resp.rt,reveal_seq_text.started,start_test_text.started,continue_to_test.started,continue_to_test.keys,continue_to_test.rt,test_structure_info.started,start_test_text_2.started,continue_to_test_2.started,continue_to_test_2.keys,continue_to_test_2.rt,test_cntdown_text.started,test_cntdown_text.stopped,parent index,left child index,right child index,left distance,right distance,parent_image.started,top_image_text.started,left_child_image.started,right_child_image.started,path_resp.started,child_choice_text.started,left_choice_text.started,right_choice_text.started,path_resp.keys,path_resp.rt,graph.started,debrief_text.started,debriefing_title.started,demo_scr_adv.started,demo_scr_adv_keypress.started,demo_scr_adv_keypress.keys,demo_scr_adv_keypress.rt,text_countdown_2.started,participant,date,expName,psychopyVersion,frameRate,
,,,,,,,,,,,,,,,,"[[0. 1. 1. 2. 2. 3. 4. 5. 5. 6. 6. 7.]
 [1. 0. 2. 1. 1. 2. 3. 4. 4. 5. 5. 6.]
 [1. 2. 0. 1. 1. 2. 3. 4. 4. 5. 5. 6.]
 [2. 1. 1. 0. 1. 1. 2. 3. 3. 4. 4. 5.]
 [2. 1. 1. 1. 0. 1. 2. 3. 3. 4. 4. 5.]
 [3. 2. 2. 1. 1. 0. 1. 2. 2. 3. 3. 4.]
 [4. 3. 3. 2. 2. 1. 0. 1. 1. 2. 2. 3.]
 [5. 4. 4. 3. 3. 2. 1. 0. 1. 1. 1. 2.]
 [5. 4. 4. 3. 3. 2. 1. 1. 0. 1. 1. 2.]
 [6. 5. 5. 4. 4. 3. 2. 1. 1. 0. 2. 1.]
 [6. 5. 5. 4. 4. 3. 2. 1. 1. 2. 0. 1.]
 [7. 6. 6. 5. 5. 4. 3. 2. 2. 1. 1. 0.]]",[ 7  6  5  0  2 10  8  4  9  1 11  3],9.297097940929234,9.297097940929234,return,11.837898905971088,,,,,,,,,,,,,,,,,,,,,,,,,,,,,,,,,,,,,,,,,,,,,,,,,,,,,,,,,,,,,,,,,,,,,,,,,,,,,,,,,,,,,,,,,,,991156,2023-05-16_14h00.41.842,eb_02psyexp,2022.2.4,60.00007243370069,
,,,,,,,,,,,,,,,,,,,,,,21.162760590435937,21.162760590435937,21.162760590435937,space,6.284213649341837,,,,,,,,,,,,,,,,,,,,,,,,,,,,,,,,,,,,,,,,,,,,,,,,,,,,,,,,,,,,,,,,,,,,,,,,,,,,,,,,,,,,,,991156,2023-05-16_14h00.41.842,eb_02psyexp,2022.2.4,60.00007243370069,
,,,,,,,,,,,,,,,,,,,,,,,,,,,27.478952947771177,27.478952947771177,27.478952947771177,space,1.3119924501515925,,,,,,,,,,,,,,,,,,,,,,,,,,,,,,,,,,,,,,,,,,,,,,,,,,,,,,,,,,,,,,,,,,,,,,,,,,,,,,,,,991156,2023-05-16_14h00.41.842,eb_02psyexp,2022.2.4,60.00007243370069,
,,,,,,,,,,,,,,,,,,,,,,,,,,,,,,,,28.81215427420102,28.81215427420102,28.81215427420102,space,1.098829168244265,,,,,,,,,,,,,,,,,,,,,,,,,,,,,,,,,,,,,,,,,,,,,,,,,,,,,,,,,,,,,,,,,,,,,,,,,,,,991156,2023-05-16_14h00.41.842,eb_02psyexp,2022.2.4,60.00007243370069,
,,,,,,,,,,,,,,,,,,,,,,,,,,,,,,,,,,,,,29.928734381799586,29.928734381799586,29.928734381799586,1,[1.9824733666609973],[1.982477894402109],0,,,31.9115941101918,33.895078657893464,33.895078657893464,space,1.36695119086653,,,,,,,,,,,,,,,,,,,,,,,,,,,,,,,,,,,,,,,,,,,,,,,,,,,,,,,,,,,,,,991156,2023-05-16_14h00.41.842,eb_02psyexp,2022.2.4,60.00007243370069,
,,,,,,,,,,,,,,,,,,,,,,,,,,,,,,,,,,,,,,,,,,,,,,,,,,,35.29499136423692,38.27806208236143,38.27806208236143,space,26.422135711763985,,,,,,,,,,,,,,,,,,,,,,,,,,,,,,,,,,,,,,,,,,,,,,,,,,,,,,,,,991156,2023-05-16_14h00.41.842,eb_02psyexp,2022.2.4,60.00007243370069,
,,,,,,,,,,,,,,,,,,,,,,,,,,,,,,,,,,,,,,,,,,,,,,,,,,,,,,,,64.72597086953465,67.70905154850334,67.70905154850334,space,5.535172158386558,,,,,,,,,,,,,,,,,,,,,,,,,,,,,,,,,,,,,,,,,,,,,,,,,,,,991156,2023-05-16_14h00.41.842,eb_02psyexp,2022.2.4,60.00007243370069,
0,0,0,0,,,,,,,,,,,,,,,,,,,,,,,,,,,,,,,,,,,,,,,,,,,,,,,,,,,,,,,,,,73.29193789965939,78.32487311947625,78.32487311947625,78.32487311947625,78.32487311947625,78.32487311947625,78.32487311947625,s,1,2.646379424026236,80.99134187633172,82.00793701584917,,,,,,,,,,,,,,,,,,,,,,,,,,,,,,,,,,,,,,,,991156,2023-05-16_14h00.41.842,eb_02psyexp,2022.2.4,60.00007243370069,
1,0,1,0,,,,,,,,,,,,,,,,,,,,,,,,,,,,,,,,,,,,,,,,,,,,,,,,,,,,,,,,,,,82.00793701584917,82.00793701584917,82.00793701584917,82.00793701584917,82.00793701584917,82.00793701584917,l,1,1.0673594061518088,83.10784259869251,84.12445011385716,,,,,,,,,,,,,,,,,,,,,,,,,,,,,,,,,,,,,,,,991156,2023-05-16_14h00.41.842,eb_02psyexp,2022.2.4,60.00007243370069,
2,0,2,0,,,,,,,,,,,,,,,,,,,,,,,,,,,,,,,,,,,,,,,,,,,,,,,,,,,,,,,,,,,84.12445011385716,84.12445011385716,84.12445011385716,84.12445011385716,84.12445011385716,84.12445011385716,l,1,0.9909014492295682,85.1410217093071,86.15765095723327,,,,,,,,,,,,,,,,,,,,,,,,,,,,,,,,,,,,,,,,991156,2023-05-16_14h00.41.842,eb_02psyexp,2022.2.4,60.00007243370069,
3,0,3,0,,,,,,,,,,,,,,,,,,,,,,,,,,,,,,,,,,,,,,,,,,,,,,,,,,,,,,,,,,,86.15765095723327,86.15765095723327,86.15765095723327,86.15765095723327,86.15765095723327,86.15765095723327,s,1,1.1976465996121988,87.37417317100335,88.39047129487153,,,,,,,,,,,,,,,,,,,,,,,,,,,,,,,,,,,,,,,,991156,2023-05-16_14h00.41.842,eb_02psyexp,2022.2.4,60.00007243370069,
4,0,4,0,,,,,,,,,,,,,,,,,,,,,,,,,,,,,,,,,,,,,,,,,,,,,,,,,,,,,,,,,,,88.39047129487153,88.39047129487153,88.39047129487153,88.39047129487153,88.39047129487153,88.39047129487153,s,1,0.8848487917566672,89.30735795630608,90.32394675700925,,,,,,,,,,,,,,,,,,,,,,,,,,,,,,,,,,,,,,,,991156,2023-05-16_14h00.41.842,eb_02psyexp,2022.2.4,60.00007243370069,
5,0,5,0,,,,,,,,,,,,,,,,,,,,,,,,,,,,,,,,,,,,,,,,,,,,,,,,,,,,,,,,,,,90.32394675700925,90.32394675700925,90.32394675700925,90.32394675700925,90.32394675700925,90.32394675700925,s,1,1.527389385504648,91.87384083960205,92.89041273691691,,,,,,,,,,,,,,,,,,,,,,,,,,,,,,,,,,,,,,,,991156,2023-05-16_14h00.41.842,eb_02psyexp,2022.2.4,60.00007243370069,
6,0,6,0,,,,,,,,,,,,,,,,,,,,,,,,,,,,,,,,,,,,,,,,,,,,,,,,,,,,,,,,,,,92.89041273691691,92.89041273691691,92.89041273691691,92.89041273691691,92.89041273691691,92.89041273691691,l,1,0.6889238812727854,93.60702459863387,94.64026619109791,,,,,,,,,,,,,,,,,,,,,,,,,,,,,,,,,,,,,,,,991156,2023-05-16_14h00.41.842,eb_02psyexp,2022.2.4,60.00007243370069,
7,0,7,0,,,,,,,,,,,,,,,,,,,,,,,,,,,,,,,,,,,,,,,,,,,,,,,,,,,,,,,,,,,94.64026619109791,94.64026619109791,94.64026619109791,94.64026619109791,94.64026619109791,94.64026619109791,s,1,1.2581239736173302,95.92350099224132,96.93979519209825,,,,,,,,,,,,,,,,,,,,,,,,,,,,,,,,,,,,,,,,991156,2023-05-16_14h00.41.842,eb_02psyexp,2022.2.4,60.00007243370069,
8,0,8,0,,,,,,,,,,,,,,,,,,,,,,,,,,,,,,,,,,,,,,,,,,,,,,,,,,,,,,,,,,,96.93979519209825,96.93979519209825,96.93979519209825,96.93979519209825,96.93979519209825,96.93979519209825,s,1,0.5986048973863944,97.55670431081671,98.57331605174113,,,,,,,,,,,,,,,,,,,,,,,,,,,,,,,,,,,,,,,,991156,2023-05-16_14h00.41.842,eb_02psyexp,2022.2.4,60.00007243370069,
9,0,9,0,,,,,,,,,,,,,,,,,,,,,,,,,,,,,,,,,,,,,,,,,,,,,,,,,,,,,,,,,,,98.57331605174113,98.57331605174113,98.57331605174113,98.57331605174113,98.57331605174113,98.57331605174113,l,1,0.669042554567568,99.27323467435781,100.28985335770994,,,,,,,,,,,,,,,,,,,,,,,,,,,,,,,,,,,,,,,,991156,2023-05-16_14h00.41.842,eb_02psyexp,2022.2.4,60.00007243370069,
10,0,10,0,,,,,,,,,,,,,,,,,,,,,,,,,,,,,,,,,,,,,,,,,,,,,,,,,,,,,,,,,,,100.28985335770994,100.28985335770994,100.28985335770994,100.28985335770994,100.28985335770994,100.28985335770994,l,1,0.5925341895781457,100.90644040761981,101.92305154493079,,,,,,,,,,,,,,,,,,,,,,,,,,,,,,,,,,,,,,,,991156,2023-05-16_14h00.41.842,eb_02psyexp,2022.2.4,60.00007243370069,
11,0,11,0,,,,,,,,,,,,,,,,,,,,,,,,,,,,,,,,,,,,,,,,,,,,,,,,,,,,,,,,,,,101.92305154493079,101.92305154493079,101.92305154493079,101.92305154493079,101.92305154493079,101.92305154493079,l,1,0.46334631578065455,102.40634321351536,103.42293352354318,,,,,,,,,,,,,,,,,,,,,,,,,,,,,,,,,,,,,,,,991156,2023-05-16_14h00.41.842,eb_02psyexp,2022.2.4,60.00007243370069,
12,0,12,0,,,,,,,,,,,,,,,,,,,,,,,,,,,,,,,,,,,,,,,,,,,,,,,,,,,,,,,,,,,103.42293352354318,103.42293352354318,103.42293352354318,103.42293352354318,103.42293352354318,103.42293352354318,s,1,0.5554917639819905,104.00619567173999,105.03944994171616,,,,,,,,,,,,,,,,,,,,,,,,,,,,,,,,,,,,,,,,991156,2023-05-16_14h00.41.842,eb_02psyexp,2022.2.4,60.00007243370069,
13,0,13,0,,,,,,,,,,,,,,,,,,,,,,,,,,,,,,,,,,,,,,,,,,,,,,,,,,,,,,,,,,,105.03944994171616,105.03944994171616,105.03944994171616,105.03944994171616,105.03944994171616,105.03944994171616,s,1,0.850967287668027,105.92270563042257,106.93930167541839,,,,,,,,,,,,,,,,,,,,,,,,,,,,,,,,,,,,,,,,991156,2023-05-16_14h00.41.842,eb_02psyexp,2022.2.4,60.00007243370069,
14,0,14,0,,,,,,,,,,,,,,,,,,,,,,,,,,,,,,,,,,,,,,,,,,,,,,,,,,,,,,,,,,,106.93930167541839,106.93930167541839,106.93930167541839,106.93930167541839,106.93930167541839,106.93930167541839,l,1,0.7191370623186231,107.68924115551636,108.72249874589033,,,,,,,,,,,,,,,,,,,,,,,,,,,,,,,,,,,,,,,,991156,2023-05-16_14h00.41.842,eb_02psyexp,2022.2.4,60.00007243370069,
15,0,15,0,,,,,,,,,,,,,,,,,,,,,,,,,,,,,,,,,,,,,,,,,,,,,,,,,,,,,,,,,,,108.72249874589033,108.72249874589033,108.72249874589033,108.72249874589033,108.72249874589033,108.72249874589033,s,1,0.4959642963949591,109.23910626093857,110.25572434067726,,,,,,,,,,,,,,,,,,,,,,,,,,,,,,,,,,,,,,,,991156,2023-05-16_14h00.41.842,eb_02psyexp,2022.2.4,60.00007243370069,
16,0,16,0,,,,,,,,,,,,,,,,,,,,,,,,,,,,,,,,,,,,,,,,,,,,,,,,,,,,,,,,,,,110.25572434067726,110.25572434067726,110.25572434067726,110.25572434067726,110.25572434067726,110.25572434067726,s,1,0.777694399934262,111.05564272170886,112.07226080144756,,,,,,,,,,,,,,,,,,,,,,,,,,,,,,,,,,,,,,,,991156,2023-05-16_14h00.41.842,eb_02psyexp,2022.2.4,60.00007243370069,
17,0,17,0,,,,,,,,,,,,,,,,,,,,,,,,,,,,,,,,,,,,,,,,,,,,,,,,,,,,,,,,,,,112.07226080144756,112.07226080144756,112.07226080144756,112.07226080144756,112.07226080144756,112.07226080144756,s,1,0.5931940227746964,112.68884875695221,113.72212053404655,,,,,,,,,,,,,,,,,,,,,,,,,,,,,,,,,,,,,,,,991156,2023-05-16_14h00.41.842,eb_02psyexp,2022.2.4,60.00007243370069,
18,0,18,0,,,,,,,,,,,,,,,,,,,,,,,,,,,,,,,,,,,,,,,,,,,,,,,,,,,,,,,,,,,113.72212053404655,113.72212053404655,113.72212053404655,113.72212053404655,113.72212053404655,113.72212053404655,s,1,1.3673336285864934,115.12199068022892,116.1385616720654,,,,,,,,,,,,,,,,,,,,,,,,,,,,,,,,,,,,,,,,991156,2023-05-16_14h00.41.842,eb_02psyexp,2022.2.4,60.00007243370069,
19,0,19,0,,,,,,,,,,,,,,,,,,,,,,,,,,,,,,,,,,,,,,,,,,,,,,,,,,,,,,,,,,,116.1385616720654,116.1385616720654,116.1385616720654,116.1385616720654,116.1385616720654,116.1385616720654,s,1,0.6149238486541435,116.77189357671887,117.7884561169194,,,,,,,,,,,,,,,,,,,,,,,,,,,,,,,,,,,,,,,,991156,2023-05-16_14h00.41.842,eb_02psyexp,2022.2.4,60.00007243370069,
20,0,20,0,,,,,,,,,,,,,,,,,,,,,,,,,,,,,,,,,,,,,,,,,,,,,,,,,,,,,,,,,,,117.7884561169194,117.7884561169194,117.7884561169194,117.7884561169194,117.7884561169194,117.7884561169194,s,1,1.0370218649040908,118.85502985550556,119.87158847169485,,,,,,,,,,,,,,,,,,,,,,,,,,,,,,,,,,,,,,,,991156,2023-05-16_14h00.41.842,eb_02psyexp,2022.2.4,60.00007243370069,
21,0,21,0,,,,,,,,,,,,,,,,,,,,,,,,,,,,,,,,,,,,,,,,,,,,,,,,,,,,,,,,,,,119.87158847169485,119.87158847169485,119.87158847169485,119.87158847169485,119.87158847169485,119.87158847169485,l,1,0.60189531033393,120.50493365747388,121.5215396634303,,,,,,,,,,,,,,,,,,,,,,,,,,,,,,,,,,,,,,,,991156,2023-05-16_14h00.41.842,eb_02psyexp,2022.2.4,60.00007243370069,
22,0,22,0,,,,,,,,,,,,,,,,,,,,,,,,,,,,,,,,,,,,,,,,,,,,,,,,,,,,,,,,,,,121.5215396634303,121.5215396634303,121.5215396634303,121.5215396634303,121.5215396634303,121.5215396634303,l,1,0.5839687322732061,122.1381010565674,123.15471762698144,,,,,,,,,,,,,,,,,,,,,,,,,,,,,,,,,,,,,,,,991156,2023-05-16_14h00.41.842,eb_02psyexp,2022.2.4,60.00007243370069,
23,0,23,0,,,,,,,,,,,,,,,,,,,,,,,,,,,,,,,,,,,,,,,,,,,,,,,,,,,,,,,,,,,123.15471762698144,123.15471762698144,123.15471762698144,123.15471762698144,123.15471762698144,123.15471762698144,l,1,0.8867851278046146,124.0712912750896,125.08790241228417,,,,,,,,,,,,,,,,,,,,,,,,,,,,,,,,,,,,,,,,991156,2023-05-16_14h00.41.842,eb_02psyexp,2022.2.4,60.00007243370069,
24,0,24,0,,,,,,,,,,,,,,,,,,,,,,,,,,,,,,,,,,,,,,,,,,,,,,,,,,,,,,,,,,,125.08790241228417,125.08790241228417,125.08790241228417,125.08790241228417,125.08790241228417,125.08790241228417,s,1,0.992620758828707,126.10446163220331,127.13773522037081,,,,,,,,,,,,,,,,,,,,,,,,,,,,,,,,,,,,,,,,991156,2023-05-16_14h00.41.842,eb_02psyexp,2022.2.4,60.00007243370069,
25,0,25,0,,,,,,,,,,,,,,,,,,,,,,,,,,,,,,,,,,,,,,,,,,,,,,,,,,,,,,,,,,,127.13773522037081,127.13773522037081,127.13773522037081,127.13773522037081,127.13773522037081,127.13773522037081,s,1,1.8308315057074651,128.98756911500823,130.004186892882,,,,,,,,,,,,,,,,,,,,,,,,,,,,,,,,,,,,,,,,991156,2023-05-16_14h00.41.842,eb_02psyexp,2022.2.4,60.00007243370069,
26,0,26,0,,,,,,,,,,,,,,,,,,,,,,,,,,,,,,,,,,,,,,,,,,,,,,,,,,,,,,,,,,,130.004186892882,130.004186892882,130.004186892882,130.004186892882,130.004186892882,130.004186892882,l,1,0.5083610729780048,130.537460782798,131.5540553185856,,,,,,,,,,,,,,,,,,,,,,,,,,,,,,,,,,,,,,,,991156,2023-05-16_14h00.41.842,eb_02psyexp,2022.2.4,60.00007243370069,
27,0,27,0,,,,,,,,,,,,,,,,,,,,,,,,,,,,,,,,,,,,,,,,,,,,,,,,,,,,,,,,,,,131.5540553185856,131.5540553185856,131.5540553185856,131.5540553185856,131.5540553185856,131.5540553185856,s,1,0.5105132282478735,132.08734067867044,133.10393461072817,,,,,,,,,,,,,,,,,,,,,,,,,,,,,,,,,,,,,,,,991156,2023-05-16_14h00.41.842,eb_02psyexp,2022.2.4,60.00007243370069,
28,0,28,0,,,,,,,,,,,,,,,,,,,,,,,,,,,,,,,,,,,,,,,,,,,,,,,,,,,,,,,,,,,133.10393461072817,133.10393461072817,133.10393461072817,133.10393461072817,133.10393461072817,133.10393461072817,l,1,0.4966386182932183,133.6205545014236,134.65379337745253,,,,,,,,,,,,,,,,,,,,,,,,,,,,,,,,,,,,,,,,991156,2023-05-16_14h00.41.842,eb_02psyexp,2022.2.4,60.00007243370069,
29,0,29,0,,,,,,,,,,,,,,,,,,,,,,,,,,,,,,,,,,,,,,,,,,,,,,,,,,,,,,,,,,,134.65379337745253,134.65379337745253,134.65379337745253,134.65379337745253,134.65379337745253,134.65379337745253,s,1,0.4348201466491446,135.12038335530087,136.1370400711894,,,,,,,,,,,,,,,,,,,,,,,,,,,,,,,,,,,,,,,,991156,2023-05-16_14h00.41.842,eb_02psyexp,2022.2.4,60.00007243370069,
30,0,30,0,,,,,,,,,,,,,,,,,,,,,,,,,,,,,,,,,,,,,,,,,,,,,,,,,,,,,,,,,,,136.1370400711894,136.1370400711894,136.1370400711894,136.1370400711894,136.1370400711894,136.1370400711894,s,1,0.727539221290499,136.88695329066832,137.92021933267824,,,,,,,,,,,,,,,,,,,,,,,,,,,,,,,,,,,,,,,,991156,2023-05-16_14h00.41.842,eb_02psyexp,2022.2.4,60.00007243370069,
31,0,31,0,,,,,,,,,,,,,,,,,,,,,,,,,,,,,,,,,,,,,,,,,,,,,,,,,,,,,,,,,,,137.92021933267824,137.92021933267824,137.92021933267824,137.92021933267824,137.92021933267824,137.92021933267824,s,1,0.9684022205183282,138.92012274230365,139.93640396289993,,,,,,,,,,,,,,,,,,,,,,,,,,,,,,,,,,,,,,,,991156,2023-05-16_14h00.41.842,eb_02psyexp,2022.2.4,60.00007243370069,
32,0,32,0,,,,,,,,,,,,,,,,,,,,,,,,,,,,,,,,,,,,,,,,,,,,,,,,,,,,,,,,,,,139.93640396289993,139.93640396289993,139.93640396289993,139.93640396289993,139.93640396289993,139.93640396289993,s,1,0.47221905121114105,140.43669524334837,141.4532520484645,,,,,,,,,,,,,,,,,,,,,,,,,,,,,,,,,,,,,,,,991156,2023-05-16_14h00.41.842,eb_02psyexp,2022.2.4,60.00007243370069,
33,0,33,0,,,,,,,,,,,,,,,,,,,,,,,,,,,,,,,,,,,,,,,,,,,,,,,,,,,,,,,,,,,141.4532520484645,141.4532520484645,141.4532520484645,141.4532520484645,141.4532520484645,141.4532520484645,l,1,0.4913496891967952,141.96990152006038,142.986485189409,,,,,,,,,,,,,,,,,,,,,,,,,,,,,,,,,,,,,,,,991156,2023-05-16_14h00.41.842,eb_02psyexp,2022.2.4,60.00007243370069,
34,0,34,0,,,,,,,,,,,,,,,,,,,,,,,,,,,,,,,,,,,,,,,,,,,,,,,,,,,,,,,,,,,142.986485189409,142.986485189409,142.986485189409,142.986485189409,142.986485189409,142.986485189409,s,1,0.8051357377553359,143.81974145164713,144.83632723393384,,,,,,,,,,,,,,,,,,,,,,,,,,,,,,,,,,,,,,,,991156,2023-05-16_14h00.41.842,eb_02psyexp,2022.2.4,60.00007243370069,
35,0,35,0,,,,,,,,,,,,,,,,,,,,,,,,,,,,,,,,,,,,,,,,,,,,,,,,,,,,,,,,,,,144.83632723393384,144.83632723393384,144.83632723393384,144.83632723393384,144.83632723393384,144.83632723393384,l,1,0.5232975737890229,145.38629104266874,146.40288044710178,,,,,,,,,,,,,,,,,,,,,,,,,,,,,,,,,,,,,,,,991156,2023-05-16_14h00.41.842,eb_02psyexp,2022.2.4,60.00007243370069,
36,0,36,0,,,,,,,,,,,,,,,,,,,,,,,,,,,,,,,,,,,,,,,,,,,,,,,,,,,,,,,,,,,146.40288044710178,146.40288044710178,146.40288044710178,146.40288044710178,146.40288044710178,146.40288044710178,l,1,0.468753568129614,146.90283969801385,147.9194553628331,,,,,,,,,,,,,,,,,,,,,,,,,,,,,,,,,,,,,,,,991156,2023-05-16_14h00.41.842,eb_02psyexp,2022.2.4,60.00007243370069,
37,0,37,0,,,,,,,,,,,,,,,,,,,,,,,,,,,,,,,,,,,,,,,,,,,,,,,,,,,,,,,,,,,147.9194553628331,147.9194553628331,147.9194553628331,147.9194553628331,147.9194553628331,147.9194553628331,s,1,0.3921887580072507,148.3360854559578,149.36932795413304,,,,,,,,,,,,,,,,,,,,,,,,,,,,,,,,,,,,,,,,991156,2023-05-16_14h00.41.842,eb_02psyexp,2022.2.4,60.00007243370069,
38,0,38,0,,,,,,,,,,,,,,,,,,,,,,,,,,,,,,,,,,,,,,,,,,,,,,,,,,,,,,,,,,,149.36932795413304,149.36932795413304,149.36932795413304,149.36932795413304,149.36932795413304,149.36932795413304,s,1,0.5743308196542785,149.9692235760158,150.9858787826961,,,,,,,,,,,,,,,,,,,,,,,,,,,,,,,,,,,,,,,,991156,2023-05-16_14h00.41.842,eb_02psyexp,2022.2.4,60.00007243370069,
39,0,39,0,,,,,,,,,,,,,,,,,,,,,,,,,,,,,,,,,,,,,,,,,,,,,,,,,,,,,,,,,,,150.9858787826961,150.9858787826961,150.9858787826961,150.9858787826961,150.9858787826961,150.9858787826961,s,1,0.5737820653012022,151.5858051928226,152.60241633013356,,,,,,,,,,,,,,,,,,,,,,,,,,,,,,,,,,,,,,,,991156,2023-05-16_14h00.41.842,eb_02psyexp,2022.2.4,60.00007243370069,
40,0,40,0,,,,,,,,,,,,,,,,,,,,,,,,,,,,,,,,,,,,,,,,,,,,,,,,,,,,,,,,,,,152.60241633013356,152.60241633013356,152.60241633013356,152.60241633013356,152.60241633013356,152.60241633013356,s,1,0.5012689214199781,153.13568297575694,154.15228234103415,,,,,,,,,,,,,,,,,,,,,,,,,,,,,,,,,,,,,,,,991156,2023-05-16_14h00.41.842,eb_02psyexp,2022.2.4,60.00007243370069,
41,0,41,0,,,,,,,,,,,,,,,,,,,,,,,,,,,,,,,,,,,,,,,,,,,,,,,,,,,,,,,,,,,154.15228234103415,154.15228234103415,154.15228234103415,154.15228234103415,154.15228234103415,154.15228234103415,l,1,0.42339651857037097,154.60223220463376,155.6188442474231,,,,,,,,,,,,,,,,,,,,,,,,,,,,,,,,,,,,,,,,991156,2023-05-16_14h00.41.842,eb_02psyexp,2022.2.4,60.00007243370069,
42,0,42,0,,,,,,,,,,,,,,,,,,,,,,,,,,,,,,,,,,,,,,,,,,,,,,,,,,,,,,,,,,,155.6188442474231,155.6188442474231,155.6188442474231,155.6188442474231,155.6188442474231,155.6188442474231,s,1,0.46883476444054395,156.11878870788496,157.13540558016393,,,,,,,,,,,,,,,,,,,,,,,,,,,,,,,,,,,,,,,,991156,2023-05-16_14h00.41.842,eb_02psyexp,2022.2.4,60.00007243370069,
43,0,43,0,,,,,,,,,,,,,,,,,,,,,,,,,,,,,,,,,,,,,,,,,,,,,,,,,,,,,,,,,,,157.13540558016393,157.13540558016393,157.13540558016393,157.13540558016393,157.13540558016393,157.13540558016393,s,1,0.6562998635927215,157.81866265740246,158.851912097889,,,,,,,,,,,,,,,,,,,,,,,,,,,,,,,,,,,,,,,,991156,2023-05-16_14h00.41.842,eb_02psyexp,2022.2.4,60.00007243370069,
44,0,44,0,,,,,,,,,,,,,,,,,,,,,,,,,,,,,,,,,,,,,,,,,,,,,,,,,,,,,,,,,,,158.851912097889,158.851912097889,158.851912097889,158.851912097889,158.851912097889,158.851912097889,s,1,0.8747925219358876,159.7518329541199,160.76844529877417,,,,,,,,,,,,,,,,,,,,,,,,,,,,,,,,,,,,,,,,991156,2023-05-16_14h00.41.842,eb_02psyexp,2022.2.4,60.00007243370069,
45,0,45,0,,,,,,,,,,,,,,,,,,,,,,,,,,,,,,,,,,,,,,,,,,,,,,,,,,,,,,,,,,,160.76844529877417,160.76844529877417,160.76844529877417,160.76844529877417,160.76844529877417,160.76844529877417,l,1,0.5502855404047295,161.35171257832553,162.38498103513848,,,,,,,,,,,,,,,,,,,,,,,,,,,,,,,,,,,,,,,,991156,2023-05-16_14h00.41.842,eb_02psyexp,2022.2.4,60.00007243370069,
46,0,46,0,,,,,,,,,,,,,,,,,,,,,,,,,,,,,,,,,,,,,,,,,,,,,,,,,,,,,,,,,,,162.38498103513848,162.38498103513848,162.38498103513848,162.38498103513848,162.38498103513848,162.38498103513848,s,1,0.509743221453391,162.91823651257437,163.93484976270702,,,,,,,,,,,,,,,,,,,,,,,,,,,,,,,,,,,,,,,,991156,2023-05-16_14h00.41.842,eb_02psyexp,2022.2.4,60.00007243370069,
47,0,47,0,,,,,,,,,,,,,,,,,,,,,,,,,,,,,,,,,,,,,,,,,,,,,,,,,,,,,,,,,,,163.93484976270702,163.93484976270702,163.93484976270702,163.93484976270702,163.93484976270702,163.93484976270702,l,1,0.43189858843106776,164.38481139822397,165.4014131781878,,,,,,,,,,,,,,,,,,,,,,,,,,,,,,,,,,,,,,,,991156,2023-05-16_14h00.41.842,eb_02psyexp,2022.2.4,60.00007243370069,
48,0,48,0,,,,,,,,,,,,,,,,,,,,,,,,,,,,,,,,,,,,,,,,,,,,,,,,,,,,,,,,,,,165.4014131781878,165.4014131781878,165.4014131781878,165.4014131781878,165.4014131781878,165.4014131781878,s,1,0.3813386355759576,165.80137025588192,166.8179512085626,,,,,,,,,,,,,,,,,,,,,,,,,,,,,,,,,,,,,,,,991156,2023-05-16_14h00.41.842,eb_02psyexp,2022.2.4,60.00007243370069,
49,0,49,0,,,,,,,,,,,,,,,,,,,,,,,,,,,,,,,,,,,,,,,,,,,,,,,,,,,,,,,,,,,166.8179512085626,166.8179512085626,166.8179512085626,166.8179512085626,166.8179512085626,166.8179512085626,l,1,0.49279250856488943,167.33457562699914,168.35117257758975,,,,,,,,,,,,,,,,,,,,,,,,,,,,,,,,,,,,,,,,991156,2023-05-16_14h00.41.842,eb_02psyexp,2022.2.4,60.00007243370069,
50,0,50,0,,,,,,,,,,,,,,,,,,,,,,,,,,,,,,,,,,,,,,,,,,,,,,,,,,,,,,,,,,,168.35117257758975,168.35117257758975,168.35117257758975,168.35117257758975,168.35117257758975,168.35117257758975,l,1,1.3756047869101167,169.75106023077387,170.78431118058506,,,,,,,,,,,,,,,,,,,,,,,,,,,,,,,,,,,,,,,,991156,2023-05-16_14h00.41.842,eb_02psyexp,2022.2.4,60.00007243370069,
51,0,51,0,,,,,,,,,,,,,,,,,,,,,,,,,,,,,,,,,,,,,,,,,,,,,,,,,,,,,,,,,,,170.78431118058506,170.78431118058506,170.78431118058506,170.78431118058506,170.78431118058506,170.78431118058506,s,1,0.7584638511762023,171.56758703256492,172.58419696241617,,,,,,,,,,,,,,,,,,,,,,,,,,,,,,,,,,,,,,,,991156,2023-05-16_14h00.41.842,eb_02psyexp,2022.2.4,60.00007243370069,
52,0,52,0,,,,,,,,,,,,,,,,,,,,,,,,,,,,,,,,,,,,,,,,,,,,,,,,,,,,,,,,,,,172.58419696241617,172.58419696241617,172.58419696241617,172.58419696241617,172.58419696241617,172.58419696241617,l,1,0.5256407971028239,173.13413028477225,174.1507580234902,,,,,,,,,,,,,,,,,,,,,,,,,,,,,,,,,,,,,,,,991156,2023-05-16_14h00.41.842,eb_02psyexp,2022.2.4,60.00007243370069,
53,0,53,0,,,,,,,,,,,,,,,,,,,,,,,,,,,,,,,,,,,,,,,,,,,,,,,,,,,,,,,,,,,174.1507580234902,174.1507580234902,174.1507580234902,174.1507580234902,174.1507580234902,174.1507580234902,l,1,0.6469979045214131,174.83401419525035,175.86726755974814,,,,,,,,,,,,,,,,,,,,,,,,,,,,,,,,,,,,,,,,991156,2023-05-16_14h00.41.842,eb_02psyexp,2022.2.4,60.00007243370069,
54,0,54,0,,,,,,,,,,,,,,,,,,,,,,,,,,,,,,,,,,,,,,,,,,,,,,,,,,,,,,,,,,,175.86726755974814,175.86726755974814,175.86726755974814,175.86726755974814,175.86726755974814,175.86726755974814,s,1,0.7465536488452926,176.63386375561822,177.65047217626125,,,,,,,,,,,,,,,,,,,,,,,,,,,,,,,,,,,,,,,,991156,2023-05-16_14h00.41.842,eb_02psyexp,2022.2.4,60.00007243370069,
55,0,55,0,,,,,,,,,,,,,,,,,,,,,,,,,,,,,,,,,,,,,,,,,,,,,,,,,,,,,,,,,,,177.65047217626125,177.65047217626125,177.65047217626125,177.65047217626125,177.65047217626125,177.65047217626125,l,1,0.7073415610939264,178.3837235486135,179.41699442011304,,,,,,,,,,,,,,,,,,,,,,,,,,,,,,,,,,,,,,,,991156,2023-05-16_14h00.41.842,eb_02psyexp,2022.2.4,60.00007243370069,
56,0,56,0,,,,,,,,,,,,,,,,,,,,,,,,,,,,,,,,,,,,,,,,,,,,,,,,,,,,,,,,,,,179.41699442011304,179.41699442011304,179.41699442011304,179.41699442011304,179.41699442011304,179.41699442011304,s,1,1.0848440829431638,180.53355339856353,181.55013918085024,,,,,,,,,,,,,,,,,,,,,,,,,,,,,,,,,,,,,,,,991156,2023-05-16_14h00.41.842,eb_02psyexp,2022.2.4,60.00007243370069,
57,0,57,0,,,,,,,,,,,,,,,,,,,,,,,,,,,,,,,,,,,,,,,,,,,,,,,,,,,,,,,,,,,181.55013918085024,181.55013918085024,181.55013918085024,181.55013918085024,181.55013918085024,181.55013918085024,s,1,0.5916938529117033,182.1667543023359,183.18335064919665,,,,,,,,,,,,,,,,,,,,,,,,,,,,,,,,,,,,,,,,991156,2023-05-16_14h00.41.842,eb_02psyexp,2022.2.4,60.00007243370069,
58,0,58,0,,,,,,,,,,,,,,,,,,,,,,,,,,,,,,,,,,,,,,,,,,,,,,,,,,,,,,,,,,,183.18335064919665,183.18335064919665,183.18335064919665,183.18335064919665,183.18335064919665,183.18335064919665,l,1,0.5665190696017817,183.76663694507442,184.78323419741355,,,,,,,,,,,,,,,,,,,,,,,,,,,,,,,,,,,,,,,,991156,2023-05-16_14h00.41.842,eb_02psyexp,2022.2.4,60.00007243370069,
59,0,59,0,,,,,,,,,,,,,,,,,,,,,,,,,,,,,,,,,,,,,,,,,,,,,,,,,,,,,,,,,,,184.78323419741355,184.78323419741355,184.78323419741355,184.78323419741355,184.78323419741355,184.78323419741355,l,1,0.5026024729013443,185.3165117094759,186.33311258396134,,,,,,,,,,,,,,,,,,,,,,,,,,,,,,,,,,,,,,,,991156,2023-05-16_14h00.41.842,eb_02psyexp,2022.2.4,60.00007243370069,
60,0,60,0,,,,,,,,,,,,,,,,,,,,,,,,,,,,,,,,,,,,,,,,,,,,,,,,,,,,,,,,,,,186.33311258396134,186.33311258396134,186.33311258396134,186.33311258396134,186.33311258396134,186.33311258396134,s,1,0.5447660017525777,186.89972827909514,187.91634092561435,,,,,,,,,,,,,,,,,,,,,,,,,,,,,,,,,,,,,,,,991156,2023-05-16_14h00.41.842,eb_02psyexp,2022.2.4,60.00007243370069,
61,0,61,0,,,,,,,,,,,,,,,,,,,,,,,,,,,,,,,,,,,,,,,,,,,,,,,,,,,,,,,,,,,187.91634092561435,187.91634092561435,187.91634092561435,187.91634092561435,187.91634092561435,187.91634092561435,l,1,0.5295252409996465,188.4662830014713,189.48287361324765,,,,,,,,,,,,,,,,,,,,,,,,,,,,,,,,,,,,,,,,991156,2023-05-16_14h00.41.842,eb_02psyexp,2022.2.4,60.00007243370069,
62,0,62,0,,,,,,,,,,,,,,,,,,,,,,,,,,,,,,,,,,,,,,,,,,,,,,,,,,,,,,,,,,,189.48287361324765,189.48287361324765,189.48287361324765,189.48287361324765,189.48287361324765,189.48287361324765,s,1,0.9299842870095745,190.4328071771888,191.46604333654977,,,,,,,,,,,,,,,,,,,,,,,,,,,,,,,,,,,,,,,,991156,2023-05-16_14h00.41.842,eb_02psyexp,2022.2.4,60.00007243370069,
63,0,63,0,,,,,,,,,,,,,,,,,,,,,,,,,,,,,,,,,,,,,,,,,,,,,,,,,,,,,,,,,,,191.46604333654977,191.46604333654977,191.46604333654977,191.46604333654977,191.46604333654977,191.46604333654977,s,1,0.7708494594553486,192.26597892283462,193.28254931094125,,,,,,,,,,,,,,,,,,,,,,,,,,,,,,,,,,,,,,,,991156,2023-05-16_14h00.41.842,eb_02psyexp,2022.2.4,60.00007243370069,
64,0,64,0,,,,,,,,,,,,,,,,,,,,,,,,,,,,,,,,,,,,,,,,,,,,,,,,,,,,,,,,,,,193.28254931094125,193.28254931094125,193.28254931094125,193.28254931094125,193.28254931094125,193.28254931094125,l,1,0.490349676576443,193.7991468651453,194.83244943036698,,,,,,,,,,,,,,,,,,,,,,,,,,,,,,,,,,,,,,,,991156,2023-05-16_14h00.41.842,eb_02psyexp,2022.2.4,60.00007243370069,
65,0,65,0,,,,,,,,,,,,,,,,,,,,,,,,,,,,,,,,,,,,,,,,,,,,,,,,,,,,,,,,,,,194.83244943036698,194.83244943036698,194.83244943036698,194.83244943036698,194.83244943036698,194.83244943036698,s,1,0.5004563545808196,195.36572935734876,196.38236675504595,,,,,,,,,,,,,,,,,,,,,,,,,,,,,,,,,,,,,,,,991156,2023-05-16_14h00.41.842,eb_02psyexp,2022.2.4,60.00007243370069,
66,0,66,0,,,,,,,,,,,,,,,,,,,,,,,,,,,,,,,,,,,,,,,,,,,,,,,,,,,,,,,,,,,196.38236675504595,196.38236675504595,196.38236675504595,196.38236675504595,196.38236675504595,196.38236675504595,l,1,0.5185903001111001,196.93228075944353,197.96554891427513,,,,,,,,,,,,,,,,,,,,,,,,,,,,,,,,,,,,,,,,991156,2023-05-16_14h00.41.842,eb_02psyexp,2022.2.4,60.00007243370069,
67,0,67,0,,,,,,,,,,,,,,,,,,,,,,,,,,,,,,,,,,,,,,,,,,,,,,,,,,,,,,,,,,,197.96554891427513,197.96554891427513,197.96554891427513,197.96554891427513,197.96554891427513,197.96554891427513,s,1,0.5113879751879722,198.4988222005777,199.51543786551338,,,,,,,,,,,,,,,,,,,,,,,,,,,,,,,,,,,,,,,,991156,2023-05-16_14h00.41.842,eb_02psyexp,2022.2.4,60.00007243370069,
68,0,68,0,,,,,,,,,,,,,,,,,,,,,,,,,,,,,,,,,,,,,,,,,,,,,,,,,,,,,,,,,,,199.51543786551338,199.51543786551338,199.51543786551338,199.51543786551338,199.51543786551338,199.51543786551338,l,1,0.5215015957364812,200.06539110979065,201.09864085214213,,,,,,,,,,,,,,,,,,,,,,,,,,,,,,,,,,,,,,,,991156,2023-05-16_14h00.41.842,eb_02psyexp,2022.2.4,60.00007243370069,
69,0,69,0,,,,,,,,,,,,,,,,,,,,,,,,,,,,,,,,,,,,,,,,,,,,,,,,,,,,,,,,,,,201.09864085214213,201.09864085214213,201.09864085214213,201.09864085214213,201.09864085214213,201.09864085214213,s,1,0.6263142736861482,201.74857514048927,202.76518657954875,,,,,,,,,,,,,,,,,,,,,,,,,,,,,,,,,,,,,,,,991156,2023-05-16_14h00.41.842,eb_02psyexp,2022.2.4,60.00007243370069,
70,0,70,0,,,,,,,,,,,,,,,,,,,,,,,,,,,,,,,,,,,,,,,,,,,,,,,,,,,,,,,,,,,202.76518657954875,202.76518657954875,202.76518657954875,202.76518657954875,202.76518657954875,202.76518657954875,l,1,0.5117836941499263,203.29845081048552,204.33171353221405,,,,,,,,,,,,,,,,,,,,,,,,,,,,,,,,,,,,,,,,991156,2023-05-16_14h00.41.842,eb_02psyexp,2022.2.4,60.00007243370069,
71,0,71,0,,,,,,,,,,,,,,,,,,,,,,,,,,,,,,,,,,,,,,,,,,,,,,,,,,,,,,,,,,,204.33171353221405,204.33171353221405,204.33171353221405,204.33171353221405,204.33171353221405,204.33171353221405,s,1,0.504286466515623,204.86499164800625,205.88160429440904,,,,,,,,,,,,,,,,,,,,,,,,,,,,,,,,,,,,,,,,991156,2023-05-16_14h00.41.842,eb_02psyexp,2022.2.4,60.00007243370069,
72,0,72,0,,,,,,,,,,,,,,,,,,,,,,,,,,,,,,,,,,,,,,,,,,,,,,,,,,,,,,,,,,,205.88160429440904,205.88160429440904,205.88160429440904,205.88160429440904,205.88160429440904,205.88160429440904,l,1,0.514350886340253,206.41487456229515,207.4314887180226,,,,,,,,,,,,,,,,,,,,,,,,,,,,,,,,,,,,,,,,991156,2023-05-16_14h00.41.842,eb_02psyexp,2022.2.4,60.00007243370069,
73,0,73,0,,,,,,,,,,,,,,,,,,,,,,,,,,,,,,,,,,,,,,,,,,,,,,,,,,,,,,,,,,,207.4314887180226,207.4314887180226,207.4314887180226,207.4314887180226,207.4314887180226,207.4314887180226,l,1,0.5244853341719136,207.9814368308289,208.9980337813031,,,,,,,,,,,,,,,,,,,,,,,,,,,,,,,,,,,,,,,,991156,2023-05-16_14h00.41.842,eb_02psyexp,2022.2.4,60.00007243370069,
74,0,74,0,,,,,,,,,,,,,,,,,,,,,,,,,,,,,,,,,,,,,,,,,,,,,,,,,,,,,,,,,,,208.9980337813031,208.9980337813031,208.9980337813031,208.9980337813031,208.9980337813031,208.9980337813031,l,1,1.3659653649665415,210.38124962651636,211.39783088106196,,,,,,,,,,,,,,,,,,,,,,,,,,,,,,,,,,,,,,,,991156,2023-05-16_14h00.41.842,eb_02psyexp,2022.2.4,60.00007243370069,
75,0,75,0,,,,,,,,,,,,,,,,,,,,,,,,,,,,,,,,,,,,,,,,,,,,,,,,,,,,,,,,,,,211.39783088106196,211.39783088106196,211.39783088106196,211.39783088106196,211.39783088106196,211.39783088106196,s,1,0.4781801892677322,211.89779677253682,212.91437863081228,,,,,,,,,,,,,,,,,,,,,,,,,,,,,,,,,,,,,,,,991156,2023-05-16_14h00.41.842,eb_02psyexp,2022.2.4,60.00007243370069,
76,0,76,0,,,,,,,,,,,,,,,,,,,,,,,,,,,,,,,,,,,,,,,,,,,,,,,,,,,,,,,,,,,212.91437863081228,212.91437863081228,212.91437863081228,212.91437863081228,212.91437863081228,212.91437863081228,l,1,0.46562222752254456,213.39767241245136,214.430945396889,,,,,,,,,,,,,,,,,,,,,,,,,,,,,,,,,,,,,,,,991156,2023-05-16_14h00.41.842,eb_02psyexp,2022.2.4,60.00007243370069,
77,0,77,0,,,,,,,,,,,,,,,,,,,,,,,,,,,,,,,,,,,,,,,,,,,,,,,,,,,,,,,,,,,214.430945396889,214.430945396889,214.430945396889,214.430945396889,214.430945396889,214.430945396889,s,1,0.5570520011242479,215.0141963767819,216.0308334727306,,,,,,,,,,,,,,,,,,,,,,,,,,,,,,,,,,,,,,,,991156,2023-05-16_14h00.41.842,eb_02psyexp,2022.2.4,60.00007243370069,
78,0,78,0,,,,,,,,,,,,,,,,,,,,,,,,,,,,,,,,,,,,,,,,,,,,,,,,,,,,,,,,,,,216.0308334727306,216.0308334727306,216.0308334727306,216.0308334727306,216.0308334727306,216.0308334727306,l,1,0.4931897366186604,216.54743796936236,217.56402163871098,,,,,,,,,,,,,,,,,,,,,,,,,,,,,,,,,,,,,,,,991156,2023-05-16_14h00.41.842,eb_02psyexp,2022.2.4,60.00007243370069,
79,0,79,0,,,,,,,,,,,,,,,,,,,,,,,,,,,,,,,,,,,,,,,,,,,,,,,,,,,,,,,,,,,217.56402163871098,217.56402163871098,217.56402163871098,217.56402163871098,217.56402163871098,217.56402163871098,l,1,0.7120261964155361,218.29729112179484,219.3305484103039,,,,,,,,,,,,,,,,,,,,,,,,,,,,,,,,,,,,,,,,991156,2023-05-16_14h00.41.842,eb_02psyexp,2022.2.4,60.00007243370069,
80,0,80,0,,,,,,,,,,,,,,,,,,,,,,,,,,,,,,,,,,,,,,,,,,,,,,,,,,,,,,,,,,,219.3305484103039,219.3305484103039,219.3305484103039,219.3305484103039,219.3305484103039,219.3305484103039,l,1,1.4405422233976424,220.79709250770975,221.81369881541468,,,,,,,,,,,,,,,,,,,,,,,,,,,,,,,,,,,,,,,,991156,2023-05-16_14h00.41.842,eb_02psyexp,2022.2.4,60.00007243370069,
81,0,81,0,,,,,,,,,,,,,,,,,,,,,,,,,,,,,,,,,,,,,,,,,,,,,,,,,,,,,,,,,,,221.81369881541468,221.81369881541468,221.81369881541468,221.81369881541468,221.81369881541468,221.81369881541468,s,1,0.7253517501521856,222.56361927918624,223.59689648950007,,,,,,,,,,,,,,,,,,,,,,,,,,,,,,,,,,,,,,,,991156,2023-05-16_14h00.41.842,eb_02psyexp,2022.2.4,60.00007243370069,
82,0,82,0,,,,,,,,,,,,,,,,,,,,,,,,,,,,,,,,,,,,,,,,,,,,,,,,,,,,,,,,,,,223.59689648950007,223.59689648950007,223.59689648950007,223.59689648950007,223.59689648950007,223.59689648950007,s,1,0.5181613783352077,224.14683886733837,225.16345241933595,,,,,,,,,,,,,,,,,,,,,,,,,,,,,,,,,,,,,,,,991156,2023-05-16_14h00.41.842,eb_02psyexp,2022.2.4,60.00007243370069,
83,0,83,0,,,,,,,,,,,,,,,,,,,,,,,,,,,,,,,,,,,,,,,,,,,,,,,,,,,,,,,,,,,225.16345241933595,225.16345241933595,225.16345241933595,225.16345241933595,225.16345241933595,225.16345241933595,s,1,0.5036314628086984,225.69672812032513,226.7299857106991,,,,,,,,,,,,,,,,,,,,,,,,,,,,,,,,,,,,,,,,991156,2023-05-16_14h00.41.842,eb_02psyexp,2022.2.4,60.00007243370069,
84,0,84,0,,,,,,,,,,,,,,,,,,,,,,,,,,,,,,,,,,,,,,,,,,,,,,,,,,,,,,,,,,,226.7299857106991,226.7299857106991,226.7299857106991,226.7299857106991,226.7299857106991,226.7299857106991,s,1,0.6331039764918387,227.37992422480602,228.39650578121655,,,,,,,,,,,,,,,,,,,,,,,,,,,,,,,,,,,,,,,,991156,2023-05-16_14h00.41.842,eb_02psyexp,2022.2.4,60.00007243370069,
85,0,85,0,,,,,,,,,,,,,,,,,,,,,,,,,,,,,,,,,,,,,,,,,,,,,,,,,,,,,,,,,,,228.39650578121655,228.39650578121655,228.39650578121655,228.39650578121655,228.39650578121655,228.39650578121655,l,1,0.6226052016718313,229.0464470119914,230.07973146659788,,,,,,,,,,,,,,,,,,,,,,,,,,,,,,,,,,,,,,,,991156,2023-05-16_14h00.41.842,eb_02psyexp,2022.2.4,60.00007243370069,
86,0,86,0,,,,,,,,,,,,,,,,,,,,,,,,,,,,,,,,,,,,,,,,,,,,,,,,,,,,,,,,,,,230.07973146659788,230.07973146659788,230.07973146659788,230.07973146659788,230.07973146659788,230.07973146659788,s,1,0.4914206227986142,230.59633747243788,231.62959174253047,,,,,,,,,,,,,,,,,,,,,,,,,,,,,,,,,,,,,,,,991156,2023-05-16_14h00.41.842,eb_02psyexp,2022.2.4,60.00007243370069,
87,0,87,0,,,,,,,,,,,,,,,,,,,,,,,,,,,,,,,,,,,,,,,,,,,,,,,,,,,,,,,,,,,231.62959174253047,231.62959174253047,231.62959174253047,231.62959174253047,231.62959174253047,231.62959174253047,l,1,0.5655401860130951,232.212882264168,233.2294861570699,,,,,,,,,,,,,,,,,,,,,,,,,,,,,,,,,,,,,,,,991156,2023-05-16_14h00.41.842,eb_02psyexp,2022.2.4,60.00007243370069,
88,0,88,0,,,,,,,,,,,,,,,,,,,,,,,,,,,,,,,,,,,,,,,,,,,,,,,,,,,,,,,,,,,233.2294861570699,233.2294861570699,233.2294861570699,233.2294861570699,233.2294861570699,233.2294861570699,l,1,0.8296361992834136,234.07939853146672,235.12932913727127,,,,,,,,,,,,,,,,,,,,,,,,,,,,,,,,,,,,,,,,991156,2023-05-16_14h00.41.842,eb_02psyexp,2022.2.4,60.00007243370069,
89,0,89,0,,,,,,,,,,,,,,,,,,,,,,,,,,,,,,,,,,,,,,,,,,,,,,,,,,,,,,,,,,,235.12932913727127,235.12932913727127,235.12932913727127,235.12932913727127,235.12932913727127,235.12932913727127,s,1,0.4578177217626944,235.61264223698527,236.62922409526072,,,,,,,,,,,,,,,,,,,,,,,,,,,,,,,,,,,,,,,,991156,2023-05-16_14h00.41.842,eb_02psyexp,2022.2.4,60.00007243370069,
90,0,90,0,,,,,,,,,,,,,,,,,,,,,,,,,,,,,,,,,,,,,,,,,,,,,,,,,,,,,,,,,,,236.62922409526072,236.62922409526072,236.62922409526072,236.62922409526072,236.62922409526072,236.62922409526072,s,1,0.5409217030974105,237.1958204722032,238.22908892901614,,,,,,,,,,,,,,,,,,,,,,,,,,,,,,,,,,,,,,,,991156,2023-05-16_14h00.41.842,eb_02psyexp,2022.2.4,60.00007243370069,
91,0,91,0,,,,,,,,,,,,,,,,,,,,,,,,,,,,,,,,,,,,,,,,,,,,,,,,,,,,,,,,,,,238.22908892901614,238.22908892901614,238.22908892901614,238.22908892901614,238.22908892901614,238.22908892901614,l,1,0.7090807923814282,238.96236112865154,239.97895928658545,,,,,,,,,,,,,,,,,,,,,,,,,,,,,,,,,,,,,,,,991156,2023-05-16_14h00.41.842,eb_02psyexp,2022.2.4,60.00007243370069,
92,0,92,0,,,,,,,,,,,,,,,,,,,,,,,,,,,,,,,,,,,,,,,,,,,,,,,,,,,,,,,,,,,239.97895928658545,239.97895928658545,239.97895928658545,239.97895928658545,239.97895928658545,239.97895928658545,s,1,0.5912193524418399,240.59557803033385,241.62881690624636,,,,,,,,,,,,,,,,,,,,,,,,,,,,,,,,,,,,,,,,991156,2023-05-16_14h00.41.842,eb_02psyexp,2022.2.4,60.00007243370069,
93,0,93,0,,,,,,,,,,,,,,,,,,,,,,,,,,,,,,,,,,,,,,,,,,,,,,,,,,,,,,,,,,,241.62881690624636,241.62881690624636,241.62881690624636,241.62881690624636,241.62881690624636,241.62881690624636,s,1,0.6533604965079576,242.31211171415634,243.32869779819157,,,,,,,,,,,,,,,,,,,,,,,,,,,,,,,,,,,,,,,,991156,2023-05-16_14h00.41.842,eb_02psyexp,2022.2.4,60.00007243370069,
94,0,94,0,,,,,,,,,,,,,,,,,,,,,,,,,,,,,,,,,,,,,,,,,,,,,,,,,,,,,,,,,,,243.32869779819157,243.32869779819157,243.32869779819157,243.32869779819157,243.32869779819157,243.32869779819157,s,1,0.5214925403706729,243.87868062325288,244.91191436781082,,,,,,,,,,,,,,,,,,,,,,,,,,,,,,,,,,,,,,,,991156,2023-05-16_14h00.41.842,eb_02psyexp,2022.2.4,60.00007243370069,
95,0,95,0,,,,,,,,,,,,,,,,,,,,,,,,,,,,,,,,,,,,,,,,,,,,,,,,,,,,,,,,,,,244.91191436781082,244.91191436781082,244.91191436781082,244.91191436781082,244.91191436781082,244.91191436781082,s,1,0.5302756278542802,245.46185372711625,246.47844282968435,,,,,,,,,,,,,,,,,,,,,,,,,,,,,,,,,,,,,,,,991156,2023-05-16_14h00.41.842,eb_02psyexp,2022.2.4,60.00007243370069,
96,0,96,0,,,,,,,,,,,,,,,,,,,,,,,,,,,,,,,,,,,,,,,,,,,,,,,,,,,,,,,,,,,246.47844282968435,246.47844282968435,246.47844282968435,246.47844282968435,246.47844282968435,246.47844282968435,s,1,0.5717600053176284,247.0783991224598,248.11165248707402,,,,,,,,,,,,,,,,,,,,,,,,,,,,,,,,,,,,,,,,991156,2023-05-16_14h00.41.842,eb_02psyexp,2022.2.4,60.00007243370069,
97,0,97,0,,,,,,,,,,,,,,,,,,,,,,,,,,,,,,,,,,,,,,,,,,,,,,,,,,,,,,,,,,,248.11165248707402,248.11165248707402,248.11165248707402,248.11165248707402,248.11165248707402,248.11165248707402,l,1,0.8505733798956499,248.99491964583285,250.01149516541045,,,,,,,,,,,,,,,,,,,,,,,,,,,,,,,,,,,,,,,,991156,2023-05-16_14h00.41.842,eb_02psyexp,2022.2.4,60.00007243370069,
98,0,98,0,,,,,,,,,,,,,,,,,,,,,,,,,,,,,,,,,,,,,,,,,,,,,,,,,,,,,,,,,,,250.01149516541045,250.01149516541045,250.01149516541045,250.01149516541045,250.01149516541045,250.01149516541045,l,1,0.590719798929058,250.62813383084722,251.66139625071082,,,,,,,,,,,,,,,,,,,,,,,,,,,,,,,,,,,,,,,,991156,2023-05-16_14h00.41.842,eb_02psyexp,2022.2.4,60.00007243370069,
99,0,99,0,,,,,,,,,,,,,,,,,,,,,,,,,,,,,,,,,,,,,,,,,,,,,,,,,,,,,,,,,,,251.66139625071082,251.66139625071082,251.66139625071082,251.66139625071082,251.66139625071082,251.66139625071082,s,1,0.7318326653912663,252.4113348253304,253.42791547614615,,,,,,,,,,,,,,,,,,,,,,,,,,,,,,,,,,,,,,,,991156,2023-05-16_14h00.41.842,eb_02psyexp,2022.2.4,60.00007243370069,
100,0,100,0,,,,,,,,,,,,,,,,,,,,,,,,,,,,,,,,,,,,,,,,,,,,,,,,,,,,,,,,,,,253.42791547614615,253.42791547614615,253.42791547614615,253.42791547614615,253.42791547614615,253.42791547614615,l,1,0.5813405674416572,254.02785486564972,255.0611236243276,,,,,,,,,,,,,,,,,,,,,,,,,,,,,,,,,,,,,,,,991156,2023-05-16_14h00.41.842,eb_02psyexp,2022.2.4,60.00007243370069,
101,0,101,0,,,,,,,,,,,,,,,,,,,,,,,,,,,,,,,,,,,,,,,,,,,,,,,,,,,,,,,,,,,255.0611236243276,255.0611236243276,255.0611236243276,255.0611236243276,255.0611236243276,255.0611236243276,s,1,0.500197371467948,255.5944186433917,256.62766023597214,,,,,,,,,,,,,,,,,,,,,,,,,,,,,,,,,,,,,,,,991156,2023-05-16_14h00.41.842,eb_02psyexp,2022.2.4,60.00007243370069,
102,0,102,0,,,,,,,,,,,,,,,,,,,,,,,,,,,,,,,,,,,,,,,,,,,,,,,,,,,,,,,,,,,256.62766023597214,256.62766023597214,256.62766023597214,256.62766023597214,256.62766023597214,256.62766023597214,l,1,0.5335953198373318,257.19428589195013,258.2108801258728,,,,,,,,,,,,,,,,,,,,,,,,,,,,,,,,,,,,,,,,991156,2023-05-16_14h00.41.842,eb_02psyexp,2022.2.4,60.00007243370069,
103,0,103,0,,,,,,,,,,,,,,,,,,,,,,,,,,,,,,,,,,,,,,,,,,,,,,,,,,,,,,,,,,,258.2108801258728,258.2108801258728,258.2108801258728,258.2108801258728,258.2108801258728,258.2108801258728,s,1,0.47039017197676003,258.71083726384677,259.7440975708887,,,,,,,,,,,,,,,,,,,,,,,,,,,,,,,,,,,,,,,,991156,2023-05-16_14h00.41.842,eb_02psyexp,2022.2.4,60.00007243370069,
104,0,104,0,,,,,,,,,,,,,,,,,,,,,,,,,,,,,,,,,,,,,,,,,,,,,,,,,,,,,,,,,,,259.7440975708887,259.7440975708887,259.7440975708887,259.7440975708887,259.7440975708887,259.7440975708887,s,1,0.5851767162093893,260.36072808655445,261.37733288505115,,,,,,,,,,,,,,,,,,,,,,,,,,,,,,,,,,,,,,,,991156,2023-05-16_14h00.41.842,eb_02psyexp,2022.2.4,60.00007243370069,
105,0,105,0,,,,,,,,,,,,,,,,,,,,,,,,,,,,,,,,,,,,,,,,,,,,,,,,,,,,,,,,,,,261.37733288505115,261.37733288505115,261.37733288505115,261.37733288505115,261.37733288505115,261.37733288505115,l,1,0.5599678243743256,261.96058688347694,262.99386530101765,,,,,,,,,,,,,,,,,,,,,,,,,,,,,,,,,,,,,,,,991156,2023-05-16_14h00.41.842,eb_02psyexp,2022.2.4,60.00007243370069,
106,0,106,0,,,,,,,,,,,,,,,,,,,,,,,,,,,,,,,,,,,,,,,,,,,,,,,,,,,,,,,,,,,262.99386530101765,262.99386530101765,262.99386530101765,262.99386530101765,262.99386530101765,262.99386530101765,s,1,0.5194620287511498,263.54379439761396,264.5604151939042,,,,,,,,,,,,,,,,,,,,,,,,,,,,,,,,,,,,,,,,991156,2023-05-16_14h00.41.842,eb_02psyexp,2022.2.4,60.00007243370069,
107,0,107,0,,,,,,,,,,,,,,,,,,,,,,,,,,,,,,,,,,,,,,,,,,,,,,,,,,,,,,,,,,,264.5604151939042,264.5604151939042,264.5604151939042,264.5604151939042,264.5604151939042,264.5604151939042,l,1,0.4808762692846358,265.060345769627,266.09360607655253,,,,,,,,,,,,,,,,,,,,,,,,,,,,,,,,,,,,,,,,991156,2023-05-16_14h00.41.842,eb_02psyexp,2022.2.4,60.00007243370069,
108,0,108,0,,,,,,,,,,,,,,,,,,,,,,,,,,,,,,,,,,,,,,,,,,,,,,,,,,,,,,,,,,,266.09360607655253,266.09360607655253,266.09360607655253,266.09360607655253,266.09360607655253,266.09360607655253,s,1,0.4357093822909519,266.56023408693727,267.576836168766,,,,,,,,,,,,,,,,,,,,,,,,,,,,,,,,,,,,,,,,991156,2023-05-16_14h00.41.842,eb_02psyexp,2022.2.4,60.00007243370069,
109,0,109,0,,,,,,,,,,,,,,,,,,,,,,,,,,,,,,,,,,,,,,,,,,,,,,,,,,,,,,,,,,,267.576836168766,267.576836168766,267.576836168766,267.576836168766,267.576836168766,267.576836168766,l,1,1.1914841309189796,268.79338494490366,269.82665068504866,,,,,,,,,,,,,,,,,,,,,,,,,,,,,,,,,,,,,,,,991156,2023-05-16_14h00.41.842,eb_02psyexp,2022.2.4,60.00007243370069,
110,0,110,0,,,,,,,,,,,,,,,,,,,,,,,,,,,,,,,,,,,,,,,,,,,,,,,,,,,,,,,,,,,269.82665068504866,269.82665068504866,269.82665068504866,269.82665068504866,269.82665068504866,269.82665068504866,l,1,0.845685300999321,270.6932454321068,271.726504531689,,,,,,,,,,,,,,,,,,,,,,,,,,,,,,,,,,,,,,,,991156,2023-05-16_14h00.41.842,eb_02psyexp,2022.2.4,60.00007243370069,
111,0,111,0,,,,,,,,,,,,,,,,,,,,,,,,,,,,,,,,,,,,,,,,,,,,,,,,,,,,,,,,,,,271.726504531689,271.726504531689,271.726504531689,271.726504531689,271.726504531689,271.726504531689,s,1,1.601859088987112,273.3597552399151,274.37630449887365,,,,,,,,,,,,,,,,,,,,,,,,,,,,,,,,,,,,,,,,991156,2023-05-16_14h00.41.842,eb_02psyexp,2022.2.4,60.00007243370069,
112,0,112,0,,,,,,,,,,,,,,,,,,,,,,,,,,,,,,,,,,,,,,,,,,,,,,,,,,,,,,,,,,,274.37630449887365,274.37630449887365,274.37630449887365,274.37630449887365,274.37630449887365,274.37630449887365,l,1,0.48005072318483144,274.8762625424424,275.90952164202463,,,,,,,,,,,,,,,,,,,,,,,,,,,,,,,,,,,,,,,,991156,2023-05-16_14h00.41.842,eb_02psyexp,2022.2.4,60.00007243370069,
113,0,113,0,,,,,,,,,,,,,,,,,,,,,,,,,,,,,,,,,,,,,,,,,,,,,,,,,,,,,,,,,,,275.90952164202463,275.90952164202463,275.90952164202463,275.90952164202463,275.90952164202463,275.90952164202463,l,1,0.6268545764032751,276.5594643820077,277.59271804837044,,,,,,,,,,,,,,,,,,,,,,,,,,,,,,,,,,,,,,,,991156,2023-05-16_14h00.41.842,eb_02psyexp,2022.2.4,60.00007243370069,
114,0,114,0,,,,,,,,,,,,,,,,,,,,,,,,,,,,,,,,,,,,,,,,,,,,,,,,,,,,,,,,,,,277.59271804837044,277.59271804837044,277.59271804837044,277.59271804837044,277.59271804837044,277.59271804837044,s,1,0.7756747546372935,278.39265454013366,279.425904886215,,,,,,,,,,,,,,,,,,,,,,,,,,,,,,,,,,,,,,,,991156,2023-05-16_14h00.41.842,eb_02psyexp,2022.2.4,60.00007243370069,
115,0,115,0,,,,,,,,,,,,,,,,,,,,,,,,,,,,,,,,,,,,,,,,,,,,,,,,,,,,,,,,,,,279.425904886215,279.425904886215,279.425904886215,279.425904886215,279.425904886215,279.425904886215,l,1,0.9184993844246492,280.37583301693667,281.39243540063035,,,,,,,,,,,,,,,,,,,,,,,,,,,,,,,,,,,,,,,,991156,2023-05-16_14h00.41.842,eb_02psyexp,2022.2.4,60.00007243370069,
116,0,116,0,,,,,,,,,,,,,,,,,,,,,,,,,,,,,,,,,,,,,,,,,,,,,,,,,,,,,,,,,,,281.39243540063035,281.39243540063035,281.39243540063035,281.39243540063035,281.39243540063035,281.39243540063035,s,1,0.5199642988154665,281.9423862301046,282.97564140567556,,,,,,,,,,,,,,,,,,,,,,,,,,,,,,,,,,,,,,,,991156,2023-05-16_14h00.41.842,eb_02psyexp,2022.2.4,60.00007243370069,
117,0,117,0,,,,,,,,,,,,,,,,,,,,,,,,,,,,,,,,,,,,,,,,,,,,,,,,,,,,,,,,,,,282.97564140567556,282.97564140567556,282.97564140567556,282.97564140567556,282.97564140567556,282.97564140567556,l,1,0.58376106293872,283.5922501885798,284.60884140396956,,,,,,,,,,,,,,,,,,,,,,,,,,,,,,,,,,,,,,,,991156,2023-05-16_14h00.41.842,eb_02psyexp,2022.2.4,60.00007243370069,
118,0,118,0,,,,,,,,,,,,,,,,,,,,,,,,,,,,,,,,,,,,,,,,,,,,,,,,,,,,,,,,,,,284.60884140396956,284.60884140396956,284.60884140396956,284.60884140396956,284.60884140396956,284.60884140396956,s,1,0.48658023541793227,285.1254703501472,286.15873277001083,,,,,,,,,,,,,,,,,,,,,,,,,,,,,,,,,,,,,,,,991156,2023-05-16_14h00.41.842,eb_02psyexp,2022.2.4,60.00007243370069,
119,0,119,0,,,,,,,,,,,,,,,,,,,,,,,,,,,,,,,,,,,,,,,,,,,,,,,,,,,,,,,,,,,286.15873277001083,286.15873277001083,286.15873277001083,286.15873277001083,286.15873277001083,286.15873277001083,s,1,0.752697101328522,286.9419986610301,287.958543090499,,,,,,,,,,,,,,,,,,,,,,,,,,,,,,,,,,,,,,,,991156,2023-05-16_14h00.41.842,eb_02psyexp,2022.2.4,60.00007243370069,
120,0,120,0,,,,,,,,,,,,,,,,,,,,,,,,,,,,,,,,,,,,,,,,,,,,,,,,,,,,,,,,,,,287.958543090499,287.958543090499,287.958543090499,287.958543090499,287.958543090499,287.958543090499,s,1,0.4328638889128342,288.40854728617705,289.44183898495976,,,,,,,,,,,,,,,,,,,,,,,,,,,,,,,,,,,,,,,,991156,2023-05-16_14h00.41.842,eb_02psyexp,2022.2.4,60.00007243370069,
121,0,121,0,,,,,,,,,,,,,,,,,,,,,,,,,,,,,,,,,,,,,,,,,,,,,,,,,,,,,,,,,,,289.44183898495976,289.44183898495976,289.44183898495976,289.44183898495976,289.44183898495976,289.44183898495976,s,1,0.38961854740045965,289.85843647888396,290.8750331274932,,,,,,,,,,,,,,,,,,,,,,,,,,,,,,,,,,,,,,,,991156,2023-05-16_14h00.41.842,eb_02psyexp,2022.2.4,60.00007243370069,
122,0,122,0,,,,,,,,,,,,,,,,,,,,,,,,,,,,,,,,,,,,,,,,,,,,,,,,,,,,,,,,,,,290.8750331274932,290.8750331274932,290.8750331274932,290.8750331274932,290.8750331274932,290.8750331274932,l,1,0.42041851533576846,291.32498751871753,292.3415862803813,,,,,,,,,,,,,,,,,,,,,,,,,,,,,,,,,,,,,,,,991156,2023-05-16_14h00.41.842,eb_02psyexp,2022.2.4,60.00007243370069,
123,0,123,0,,,,,,,,,,,,,,,,,,,,,,,,,,,,,,,,,,,,,,,,,,,,,,,,,,,,,,,,,,,292.3415862803813,292.3415862803813,292.3415862803813,292.3415862803813,292.3415862803813,292.3415862803813,l,1,0.49788886052556336,292.858199228649,293.8914800611092,,,,,,,,,,,,,,,,,,,,,,,,,,,,,,,,,,,,,,,,991156,2023-05-16_14h00.41.842,eb_02psyexp,2022.2.4,60.00007243370069,
124,0,124,0,,,,,,,,,,,,,,,,,,,,,,,,,,,,,,,,,,,,,,,,,,,,,,,,,,,,,,,,,,,293.8914800611092,293.8914800611092,293.8914800611092,293.8914800611092,293.8914800611092,293.8914800611092,s,1,0.4999785339459777,294.40808697242755,295.4246790934121,,,,,,,,,,,,,,,,,,,,,,,,,,,,,,,,,,,,,,,,991156,2023-05-16_14h00.41.842,eb_02psyexp,2022.2.4,60.00007243370069,
125,0,125,0,,,,,,,,,,,,,,,,,,,,,,,,,,,,,,,,,,,,,,,,,,,,,,,,,,,,,,,,,,,295.4246790934121,295.4246790934121,295.4246790934121,295.4246790934121,295.4246790934121,295.4246790934121,s,1,0.5268198038684204,295.9746356579708,296.9912464933004,,,,,,,,,,,,,,,,,,,,,,,,,,,,,,,,,,,,,,,,991156,2023-05-16_14h00.41.842,eb_02psyexp,2022.2.4,60.00007243370069,
126,0,126,0,,,,,,,,,,,,,,,,,,,,,,,,,,,,,,,,,,,,,,,,,,,,,,,,,,,,,,,,,,,296.9912464933004,296.9912464933004,296.9912464933004,296.9912464933004,296.9912464933004,296.9912464933004,l,1,0.5122844550060108,297.5245086114155,298.5410998268053,,,,,,,,,,,,,,,,,,,,,,,,,,,,,,,,,,,,,,,,991156,2023-05-16_14h00.41.842,eb_02psyexp,2022.2.4,60.00007243370069,
127,0,127,0,,,,,,,,,,,,,,,,,,,,,,,,,,,,,,,,,,,,,,,,,,,,,,,,,,,,,,,,,,,298.5410998268053,298.5410998268053,298.5410998268053,298.5410998268053,298.5410998268053,298.5410998268053,s,1,0.49743367813061923,299.0577384319622,300.07399882527534,,,,,,,,,,,,,,,,,,,,,,,,,,,,,,,,,,,,,,,,991156,2023-05-16_14h00.41.842,eb_02psyexp,2022.2.4,60.00007243370069,
128,0,128,0,,,,,,,,,,,,,,,,,,,,,,,,,,,,,,,,,,,,,,,,,,,,,,,,,,,,,,,,,,,300.07399882527534,300.07399882527534,300.07399882527534,300.07399882527534,300.07399882527534,300.07399882527534,s,1,0.5965260905213654,300.69095472991467,301.70755590626504,,,,,,,,,,,,,,,,,,,,,,,,,,,,,,,,,,,,,,,,991156,2023-05-16_14h00.41.842,eb_02psyexp,2022.2.4,60.00007243370069,
129,0,129,0,,,,,,,,,,,,,,,,,,,,,,,,,,,,,,,,,,,,,,,,,,,,,,,,,,,,,,,,,,,301.70755590626504,301.70755590626504,301.70755590626504,301.70755590626504,301.70755590626504,301.70755590626504,s,1,0.6189622335368767,302.3574805355165,303.3740771842422,,,,,,,,,,,,,,,,,,,,,,,,,,,,,,,,,,,,,,,,991156,2023-05-16_14h00.41.842,eb_02psyexp,2022.2.4,60.00007243370069,
130,0,130,0,,,,,,,,,,,,,,,,,,,,,,,,,,,,,,,,,,,,,,,,,,,,,,,,,,,,,,,,,,,303.3740771842422,303.3740771842422,303.3740771842422,303.3740771842422,303.3740771842422,303.3740771842422,l,1,0.4644429187756032,303.8573691546917,304.89062553772237,,,,,,,,,,,,,,,,,,,,,,,,,,,,,,,,,,,,,,,,991156,2023-05-16_14h00.41.842,eb_02psyexp,2022.2.4,60.00007243370069,
131,0,131,0,,,,,,,,,,,,,,,,,,,,,,,,,,,,,,,,,,,,,,,,,,,,,,,,,,,,,,,,,,,304.89062553772237,304.89062553772237,304.89062553772237,304.89062553772237,304.89062553772237,304.89062553772237,s,1,0.4359082981245592,305.3572423798032,306.37385442259256,,,,,,,,,,,,,,,,,,,,,,,,,,,,,,,,,,,,,,,,991156,2023-05-16_14h00.41.842,eb_02psyexp,2022.2.4,60.00007243370069,
132,0,132,0,,,,,,,,,,,,,,,,,,,,,,,,,,,,,,,,,,,,,,,,,,,,,,,,,,,,,,,,,,,306.37385442259256,306.37385442259256,306.37385442259256,306.37385442259256,306.37385442259256,306.37385442259256,s,1,0.49669747811276466,306.8904136425117,307.9070766970981,,,,,,,,,,,,,,,,,,,,,,,,,,,,,,,,,,,,,,,,991156,2023-05-16_14h00.41.842,eb_02psyexp,2022.2.4,60.00007243370069,
133,0,133,0,,,,,,,,,,,,,,,,,,,,,,,,,,,,,,,,,,,,,,,,,,,,,,,,,,,,,,,,,,,307.9070766970981,307.9070766970981,307.9070766970981,307.9070766970981,307.9070766970981,307.9070766970981,l,1,0.49947083042934537,308.4236748549156,309.4402850866318,,,,,,,,,,,,,,,,,,,,,,,,,,,,,,,,,,,,,,,,991156,2023-05-16_14h00.41.842,eb_02psyexp,2022.2.4,60.00007243370069,
134,0,134,0,,,,,,,,,,,,,,,,,,,,,,,,,,,,,,,,,,,,,,,,,,,,,,,,,,,,,,,,,,,309.4402850866318,309.4402850866318,309.4402850866318,309.4402850866318,309.4402850866318,309.4402850866318,l,1,0.5582678329665214,310.02355447912123,311.05681931378786,,,,,,,,,,,,,,,,,,,,,,,,,,,,,,,,,,,,,,,,991156,2023-05-16_14h00.41.842,eb_02psyexp,2022.2.4,60.00007243370069,
135,0,135,0,,,,,,,,,,,,,,,,,,,,,,,,,,,,,,,,,,,,,,,,,,,,,,,,,,,,,,,,,,,311.05681931378786,311.05681931378786,311.05681931378786,311.05681931378786,311.05681931378786,311.05681931378786,s,1,0.4697493549901992,311.5567604539683,312.5733474435983,,,,,,,,,,,,,,,,,,,,,,,,,,,,,,,,,,,,,,,,991156,2023-05-16_14h00.41.842,eb_02psyexp,2022.2.4,60.00007243370069,
136,0,136,0,,,,,,,,,,,,,,,,,,,,,,,,,,,,,,,,,,,,,,,,,,,,,,,,,,,,,,,,,,,312.5733474435983,312.5733474435983,312.5733474435983,312.5733474435983,312.5733474435983,312.5733474435983,s,1,0.513224400463514,313.1065947712632,314.1231887033209,,,,,,,,,,,,,,,,,,,,,,,,,,,,,,,,,,,,,,,,991156,2023-05-16_14h00.41.842,eb_02psyexp,2022.2.4,60.00007243370069,
137,0,137,0,,,,,,,,,,,,,,,,,,,,,,,,,,,,,,,,,,,,,,,,,,,,,,,,,,,,,,,,,,,314.1231887033209,314.1231887033209,314.1231887033209,314.1231887033209,314.1231887033209,314.1231887033209,l,1,0.4983890177682042,314.63986232248135,315.6564810058335,,,,,,,,,,,,,,,,,,,,,,,,,,,,,,,,,,,,,,,,991156,2023-05-16_14h00.41.842,eb_02psyexp,2022.2.4,60.00007243370069,
138,0,138,0,,,,,,,,,,,,,,,,,,,,,,,,,,,,,,,,,,,,,,,,,,,,,,,,,,,,,,,,,,,315.6564810058335,315.6564810058335,315.6564810058335,315.6564810058335,315.6564810058335,315.6564810058335,l,1,0.9731291140196845,316.6563889430836,317.6896332522156,,,,,,,,,,,,,,,,,,,,,,,,,,,,,,,,,,,,,,,,991156,2023-05-16_14h00.41.842,eb_02psyexp,2022.2.4,60.00007243370069,
139,0,139,0,,,,,,,,,,,,,,,,,,,,,,,,,,,,,,,,,,,,,,,,,,,,,,,,,,,,,,,,,,,317.6896332522156,317.6896332522156,317.6896332522156,317.6896332522156,317.6896332522156,317.6896332522156,s,1,0.4919853749452159,318.2062615946634,319.2395222034538,,,,,,,,,,,,,,,,,,,,,,,,,,,,,,,,,,,,,,,,991156,2023-05-16_14h00.41.842,eb_02psyexp,2022.2.4,60.00007243370069,
140,0,140,0,,,,,,,,,,,,,,,,,,,,,,,,,,,,,,,,,,,,,,,,,,,,,,,,,,,,,,,,,,,319.2395222034538,319.2395222034538,319.2395222034538,319.2395222034538,319.2395222034538,319.2395222034538,l,1,0.6780994154978544,319.93945289985277,320.95607460162137,,,,,,,,,,,,,,,,,,,,,,,,,,,,,,,,,,,,,,,,991156,2023-05-16_14h00.41.842,eb_02psyexp,2022.2.4,60.00007243370069,
141,0,141,0,,,,,,,,,,,,,,,,,,,,,,,,,,,,,,,,,,,,,,,,,,,,,,,,,,,,,,,,,,,320.95607460162137,320.95607460162137,320.95607460162137,320.95607460162137,320.95607460162137,320.95607460162137,l,1,0.9935649301623926,321.97263110487256,323.0059771358501,,,,,,,,,,,,,,,,,,,,,,,,,,,,,,,,,,,,,,,,991156,2023-05-16_14h00.41.842,eb_02psyexp,2022.2.4,60.00007243370069,
142,0,142,0,,,,,,,,,,,,,,,,,,,,,,,,,,,,,,,,,,,,,,,,,,,,,,,,,,,,,,,,,,,323.0059771358501,323.0059771358501,323.0059771358501,323.0059771358501,323.0059771358501,323.0059771358501,s,1,0.4956479627871886,323.5225152266212,324.5557779483497,,,,,,,,,,,,,,,,,,,,,,,,,,,,,,,,,,,,,,,,991156,2023-05-16_14h00.41.842,eb_02psyexp,2022.2.4,60.00007243370069,
143,0,143,0,,,,,,,,,,,,,,,,,,,,,,,,,,,,,,,,,,,,,,,,,,,,,,,,,,,,,,,,,,,324.5557779483497,324.5557779483497,324.5557779483497,324.5557779483497,324.5557779483497,324.5557779483497,l,1,0.5458801118656993,325.12238519173115,326.13898666994646,,,,,,,,,,,,,,,,,,,,,,,,,,,,,,,,,,,,,,,,991156,2023-05-16_14h00.41.842,eb_02psyexp,2022.2.4,60.00007243370069,
144,0,144,0,,,,,,,,,,,,,,,,,,,,,,,,,,,,,,,,,,,,,,,,,,,,,,,,,,,,,,,,,,,326.13898666994646,326.13898666994646,326.13898666994646,326.13898666994646,326.13898666994646,326.13898666994646,s,1,0.5066556483507156,326.67226780427154,327.70553958124947,,,,,,,,,,,,,,,,,,,,,,,,,,,,,,,,,,,,,,,,991156,2023-05-16_14h00.41.842,eb_02psyexp,2022.2.4,60.00007243370069,
145,0,145,0,,,,,,,,,,,,,,,,,,,,,,,,,,,,,,,,,,,,,,,,,,,,,,,,,,,,,,,,,,,327.70553958124947,327.70553958124947,327.70553958124947,327.70553958124947,327.70553958124947,327.70553958124947,s,1,0.9081445896299556,328.6387946965406,329.65539013780653,,,,,,,,,,,,,,,,,,,,,,,,,,,,,,,,,,,,,,,,991156,2023-05-16_14h00.41.842,eb_02psyexp,2022.2.4,60.00007243370069,
146,0,146,0,,,,,,,,,,,,,,,,,,,,,,,,,,,,,,,,,,,,,,,,,,,,,,,,,,,,,,,,,,,329.65539013780653,329.65539013780653,329.65539013780653,329.65539013780653,329.65539013780653,329.65539013780653,l,1,0.5572980048600584,330.23867945210077,331.27191893174313,,,,,,,,,,,,,,,,,,,,,,,,,,,,,,,,,,,,,,,,991156,2023-05-16_14h00.41.842,eb_02psyexp,2022.2.4,60.00007243370069,
147,0,147,0,,,,,,,,,,,,,,,,,,,,,,,,,,,,,,,,,,,,,,,,,,,,,,,,,,,,,,,,,,,331.27191893174313,331.27191893174313,331.27191893174313,331.27191893174313,331.27191893174313,331.27191893174313,l,1,0.924778365297243,332.22184072365053,333.2384376741247,,,,,,,,,,,,,,,,,,,,,,,,,,,,,,,,,,,,,,,,991156,2023-05-16_14h00.41.842,eb_02psyexp,2022.2.4,60.00007243370069,
148,0,148,0,,,,,,,,,,,,,,,,,,,,,,,,,,,,,,,,,,,,,,,,,,,,,,,,,,,,,,,,,,,333.2384376741247,333.2384376741247,333.2384376741247,333.2384376741247,333.2384376741247,333.2384376741247,l,1,0.5423138124169782,333.80506393383257,334.83831246884074,,,,,,,,,,,,,,,,,,,,,,,,,,,,,,,,,,,,,,,,991156,2023-05-16_14h00.41.842,eb_02psyexp,2022.2.4,60.00007243370069,
149,0,149,0,,,,,,,,,,,,,,,,,,,,,,,,,,,,,,,,,,,,,,,,,,,,,,,,,,,,,,,,,,,334.83831246884074,334.83831246884074,334.83831246884074,334.83831246884074,334.83831246884074,334.83831246884074,l,1,0.4464303150307387,335.30494138470385,336.3381953529315,,,,,,,,,,,,,,,,,,,,,,,,,,,,,,,,,,,,,,,,991156,2023-05-16_14h00.41.842,eb_02psyexp,2022.2.4,60.00007243370069,
150,0,150,0,,,,,,,,,,,,,,,,,,,,,,,,,,,,,,,,,,,,,,,,,,,,,,,,,,,,,,,,,,,336.3381953529315,336.3381953529315,336.3381953529315,336.3381953529315,336.3381953529315,336.3381953529315,s,1,0.5625295833451673,336.9214873837773,337.938094597077,,,,,,,,,,,,,,,,,,,,,,,,,,,,,,,,,,,,,,,,991156,2023-05-16_14h00.41.842,eb_02psyexp,2022.2.4,60.00007243370069,
151,0,151,0,,,,,,,,,,,,,,,,,,,,,,,,,,,,,,,,,,,,,,,,,,,,,,,,,,,,,,,,,,,337.938094597077,337.938094597077,337.938094597077,337.938094597077,337.938094597077,337.938094597077,s,1,0.4906204314902425,338.45472233579494,339.4879974331707,,,,,,,,,,,,,,,,,,,,,,,,,,,,,,,,,,,,,,,,991156,2023-05-16_14h00.41.842,eb_02psyexp,2022.2.4,60.00007243370069,
152,0,152,0,,,,,,,,,,,,,,,,,,,,,,,,,,,,,,,,,,,,,,,,,,,,,,,,,,,,,,,,,,,339.4879974331707,339.4879974331707,339.4879974331707,339.4879974331707,339.4879974331707,339.4879974331707,l,1,0.5007346556521952,340.0212432515109,341.03785408695694,,,,,,,,,,,,,,,,,,,,,,,,,,,,,,,,,,,,,,,,991156,2023-05-16_14h00.41.842,eb_02psyexp,2022.2.4,60.00007243370069,
153,0,153,0,,,,,,,,,,,,,,,,,,,,,,,,,,,,,,,,,,,,,,,,,,,,,,,,,,,,,,,,,,,341.03785408695694,341.03785408695694,341.03785408695694,341.03785408695694,341.03785408695694,341.03785408695694,s,1,0.5188749399967492,341.5877892203862,342.6210513385013,,,,,,,,,,,,,,,,,,,,,,,,,,,,,,,,,,,,,,,,991156,2023-05-16_14h00.41.842,eb_02psyexp,2022.2.4,60.00007243370069,
154,0,154,0,,,,,,,,,,,,,,,,,,,,,,,,,,,,,,,,,,,,,,,,,,,,,,,,,,,,,,,,,,,342.6210513385013,342.6210513385013,342.6210513385013,342.6210513385013,342.6210513385013,342.6210513385013,l,1,0.5837145787663758,343.23766072501894,344.2542863507988,,,,,,,,,,,,,,,,,,,,,,,,,,,,,,,,,,,,,,,,991156,2023-05-16_14h00.41.842,eb_02psyexp,2022.2.4,60.00007243370069,
155,0,155,0,,,,,,,,,,,,,,,,,,,,,,,,,,,,,,,,,,,,,,,,,,,,,,,,,,,,,,,,,,,344.2542863507988,344.2542863507988,344.2542863507988,344.2542863507988,344.2542863507988,344.2542863507988,l,1,0.5495472274487838,344.82085193961393,345.85412582952995,,,,,,,,,,,,,,,,,,,,,,,,,,,,,,,,,,,,,,,,991156,2023-05-16_14h00.41.842,eb_02psyexp,2022.2.4,60.00007243370069,
156,0,156,0,,,,,,,,,,,,,,,,,,,,,,,,,,,,,,,,,,,,,,,,,,,,,,,,,,,,,,,,,,,345.85412582952995,345.85412582952995,345.85412582952995,345.85412582952995,345.85412582952995,345.85412582952995,s,1,0.4936313359066844,346.3707559830509,347.38736319635063,,,,,,,,,,,,,,,,,,,,,,,,,,,,,,,,,,,,,,,,991156,2023-05-16_14h00.41.842,eb_02psyexp,2022.2.4,60.00007243370069,
157,0,157,0,,,,,,,,,,,,,,,,,,,,,,,,,,,,,,,,,,,,,,,,,,,,,,,,,,,,,,,,,,,347.38736319635063,347.38736319635063,347.38736319635063,347.38736319635063,347.38736319635063,347.38736319635063,s,1,0.5844236129196361,348.00403717765585,349.03722685284447,,,,,,,,,,,,,,,,,,,,,,,,,,,,,,,,,,,,,,,,991156,2023-05-16_14h00.41.842,eb_02psyexp,2022.2.4,60.00007243370069,
158,0,158,0,,,,,,,,,,,,,,,,,,,,,,,,,,,,,,,,,,,,,,,,,,,,,,,,,,,,,,,,,,,349.03722685284447,349.03722685284447,349.03722685284447,349.03722685284447,349.03722685284447,349.03722685284447,s,1,0.614551673643291,349.6705044254195,350.6871203921037,,,,,,,,,,,,,,,,,,,,,,,,,,,,,,,,,,,,,,,,991156,2023-05-16_14h00.41.842,eb_02psyexp,2022.2.4,60.00007243370069,
159,0,159,0,,,,,,,,,,,,,,,,,,,,,,,,,,,,,,,,,,,,,,,,,,,,,,,,,,,,,,,,,,,350.6871203921037,350.6871203921037,350.6871203921037,350.6871203921037,350.6871203921037,350.6871203921037,s,1,1.0927192205563188,351.80368601111695,352.83694179041777,,,,,,,,,,,,,,,,,,,,,,,,,,,,,,,,,,,,,,,,991156,2023-05-16_14h00.41.842,eb_02psyexp,2022.2.4,60.00007243370069,
160,0,160,0,,,,,,,,,,,,,,,,,,,,,,,,,,,,,,,,,,,,,,,,,,,,,,,,,,,,,,,,,,,352.83694179041777,352.83694179041777,352.83694179041777,352.83694179041777,352.83694179041777,352.83694179041777,s,1,0.9748749858699739,353.83682920224965,354.8534647888737,,,,,,,,,,,,,,,,,,,,,,,,,,,,,,,,,,,,,,,,991156,2023-05-16_14h00.41.842,eb_02psyexp,2022.2.4,60.00007243370069,
161,0,161,0,,,,,,,,,,,,,,,,,,,,,,,,,,,,,,,,,,,,,,,,,,,,,,,,,,,,,,,,,,,354.8534647888737,354.8534647888737,354.8534647888737,354.8534647888737,354.8534647888737,354.8534647888737,l,1,0.39036350103560835,355.2700779787265,356.3033271173481,,,,,,,,,,,,,,,,,,,,,,,,,,,,,,,,,,,,,,,,991156,2023-05-16_14h00.41.842,eb_02psyexp,2022.2.4,60.00007243370069,
162,0,162,0,,,,,,,,,,,,,,,,,,,,,,,,,,,,,,,,,,,,,,,,,,,,,,,,,,,,,,,,,,,356.3033271173481,356.3033271173481,356.3033271173481,356.3033271173481,356.3033271173481,356.3033271173481,s,1,0.46050293534062803,356.7866269358201,357.80321211437695,,,,,,,,,,,,,,,,,,,,,,,,,,,,,,,,,,,,,,,,991156,2023-05-16_14h00.41.842,eb_02psyexp,2022.2.4,60.00007243370069,
163,0,163,0,,,,,,,,,,,,,,,,,,,,,,,,,,,,,,,,,,,,,,,,,,,,,,,,,,,,,,,,,,,357.80321211437695,357.80321211437695,357.80321211437695,357.80321211437695,357.80321211437695,357.80321211437695,s,1,0.6326412479393184,358.4531587783713,359.48642844252754,,,,,,,,,,,,,,,,,,,,,,,,,,,,,,,,,,,,,,,,991156,2023-05-16_14h00.41.842,eb_02psyexp,2022.2.4,60.00007243370069,
164,0,164,0,,,,,,,,,,,,,,,,,,,,,,,,,,,,,,,,,,,,,,,,,,,,,,,,,,,,,,,,,,,359.48642844252754,359.48642844252754,359.48642844252754,359.48642844252754,359.48642844252754,359.48642844252754,l,1,0.5164091677870601,360.0197035399033,361.0362814741675,,,,,,,,,,,,,,,,,,,,,,,,,,,,,,,,,,,,,,,,991156,2023-05-16_14h00.41.842,eb_02psyexp,2022.2.4,60.00007243370069,
165,0,165,0,,,,,,,,,,,,,,,,,,,,,,,,,,,,,,,,,,,,,,,,,,,,,,,,,,,,,,,,,,,361.0362814741675,361.0362814741675,361.0362814741675,361.0362814741675,361.0362814741675,361.0362814741675,l,1,0.4545925072161481,361.51958974427544,362.5528603140265,,,,,,,,,,,,,,,,,,,,,,,,,,,,,,,,,,,,,,,,991156,2023-05-16_14h00.41.842,eb_02psyexp,2022.2.4,60.00007243370069,
166,0,166,0,,,,,,,,,,,,,,,,,,,,,,,,,,,,,,,,,,,,,,,,,,,,,,,,,,,,,,,,,,,362.5528603140265,362.5528603140265,362.5528603140265,362.5528603140265,362.5528603140265,362.5528603140265,s,1,0.4579743791837245,363.0361393050989,364.052758290316,,,,,,,,,,,,,,,,,,,,,,,,,,,,,,,,,,,,,,,,991156,2023-05-16_14h00.41.842,eb_02psyexp,2022.2.4,60.00007243370069,
167,0,167,0,,,,,,,,,,,,,,,,,,,,,,,,,,,,,,,,,,,,,,,,,,,,,,,,,,,,,,,,,,,364.052758290316,364.052758290316,364.052758290316,364.052758290316,364.052758290316,364.052758290316,l,1,0.5661435743095353,364.6360303994734,365.65262372780126,,,,,,,,,,,,,,,,,,,,,,,,,,,,,,,,,,,,,,,,991156,2023-05-16_14h00.41.842,eb_02psyexp,2022.2.4,60.00007243370069,
168,0,168,0,,,,,,,,,,,,,,,,,,,,,,,,,,,,,,,,,,,,,,,,,,,,,,,,,,,,,,,,,,,365.65262372780126,365.65262372780126,365.65262372780126,365.65262372780126,365.65262372780126,365.65262372780126,l,1,0.5262559572001919,366.20257516100537,367.219185996335,,,,,,,,,,,,,,,,,,,,,,,,,,,,,,,,,,,,,,,,991156,2023-05-16_14h00.41.842,eb_02psyexp,2022.2.4,60.00007243370069,
169,0,169,0,,,,,,,,,,,,,,,,,,,,,,,,,,,,,,,,,,,,,,,,,,,,,,,,,,,,,,,,,,,367.219185996335,367.219185996335,367.219185996335,367.219185996335,367.219185996335,367.219185996335,s,1,0.5597686066757888,367.80244422052056,368.81906018732116,,,,,,,,,,,,,,,,,,,,,,,,,,,,,,,,,,,,,,,,991156,2023-05-16_14h00.41.842,eb_02psyexp,2022.2.4,60.00007243370069,
170,0,170,0,,,,,,,,,,,,,,,,,,,,,,,,,,,,,,,,,,,,,,,,,,,,,,,,,,,,,,,,,,,368.81906018732116,368.81906018732116,368.81906018732116,368.81906018732116,368.81906018732116,368.81906018732116,s,1,0.5118482889374718,369.3523380012484,370.36892167059705,,,,,,,,,,,,,,,,,,,,,,,,,,,,,,,,,,,,,,,,991156,2023-05-16_14h00.41.842,eb_02psyexp,2022.2.4,60.00007243370069,
171,0,171,0,,,,,,,,,,,,,,,,,,,,,,,,,,,,,,,,,,,,,,,,,,,,,,,,,,,,,,,,,,,370.36892167059705,370.36892167059705,370.36892167059705,370.36892167059705,370.36892167059705,370.36892167059705,l,1,0.48198192776180804,370.86889480648097,371.8854911532253,,,,,,,,,,,,,,,,,,,,,,,,,,,,,,,,,,,,,,,,991156,2023-05-16_14h00.41.842,eb_02psyexp,2022.2.4,60.00007243370069,
172,0,172,0,,,,,,,,,,,,,,,,,,,,,,,,,,,,,,,,,,,,,,,,,,,,,,,,,,,,,,,,,,,371.8854911532253,371.8854911532253,371.8854911532253,371.8854911532253,371.8854911532253,371.8854911532253,l,1,0.5254216574830934,372.43542417383287,373.4520359147573,,,,,,,,,,,,,,,,,,,,,,,,,,,,,,,,,,,,,,,,991156,2023-05-16_14h00.41.842,eb_02psyexp,2022.2.4,60.00007243370069,
173,0,173,0,,,,,,,,,,,,,,,,,,,,,,,,,,,,,,,,,,,,,,,,,,,,,,,,,,,,,,,,,,,373.4520359147573,373.4520359147573,373.4520359147573,373.4520359147573,373.4520359147573,373.4520359147573,s,1,0.6868870307225734,374.1686314768158,375.184929600684,,,,,,,,,,,,,,,,,,,,,,,,,,,,,,,,,,,,,,,,991156,2023-05-16_14h00.41.842,eb_02psyexp,2022.2.4,60.00007243370069,
174,0,174,0,,,,,,,,,,,,,,,,,,,,,,,,,,,,,,,,,,,,,,,,,,,,,,,,,,,,,,,,,,,375.184929600684,375.184929600684,375.184929600684,375.184929600684,375.184929600684,375.184929600684,s,1,0.5850282084429637,375.80183238058817,376.81843325519003,,,,,,,,,,,,,,,,,,,,,,,,,,,,,,,,,,,,,,,,991156,2023-05-16_14h00.41.842,eb_02psyexp,2022.2.4,60.00007243370069,
175,0,175,0,,,,,,,,,,,,,,,,,,,,,,,,,,,,,,,,,,,,,,,,,,,,,,,,,,,,,,,,,,,376.81843325519003,376.81843325519003,376.81843325519003,376.81843325519003,376.81843325519003,376.81843325519003,s,1,0.4715054895495996,377.3183653400047,378.35165009635966,,,,,,,,,,,,,,,,,,,,,,,,,,,,,,,,,,,,,,,,991156,2023-05-16_14h00.41.842,eb_02psyexp,2022.2.4,60.00007243370069,
176,0,176,0,,,,,,,,,,,,,,,,,,,,,,,,,,,,,,,,,,,,,,,,,,,,,,,,,,,,,,,,,,,378.35165009635966,378.35165009635966,378.35165009635966,378.35165009635966,378.35165009635966,378.35165009635966,s,1,0.4743102337233722,378.8516042159172,379.86818848899566,,,,,,,,,,,,,,,,,,,,,,,,,,,,,,,,,,,,,,,,991156,2023-05-16_14h00.41.842,eb_02psyexp,2022.2.4,60.00007243370069,
177,0,177,0,,,,,,,,,,,,,,,,,,,,,,,,,,,,,,,,,,,,,,,,,,,,,,,,,,,,,,,,,,,379.86818848899566,379.86818848899566,379.86818848899566,379.86818848899566,379.86818848899566,379.86818848899566,s,1,0.4217704792972654,380.3181377488654,381.3347663930617,,,,,,,,,,,,,,,,,,,,,,,,,,,,,,,,,,,,,,,,991156,2023-05-16_14h00.41.842,eb_02psyexp,2022.2.4,60.00007243370069,
178,0,178,0,,,,,,,,,,,,,,,,,,,,,,,,,,,,,,,,,,,,,,,,,,,,,,,,,,,,,,,,,,,381.3347663930617,381.3347663930617,381.3347663930617,381.3347663930617,381.3347663930617,381.3347663930617,l,1,0.5071757273981348,381.8680408867076,382.88462606538087,,,,,,,,,,,,,,,,,,,,,,,,,,,,,,,,,,,,,,,,991156,2023-05-16_14h00.41.842,eb_02psyexp,2022.2.4,60.00007243370069,
179,0,179,0,,,,,,,,,,,,,,,,,,,,,,,,,,,,,,,,,,,,,,,,,,,,,,,,,,,,,,,,,,,382.88462606538087,382.88462606538087,382.88462606538087,382.88462606538087,382.88462606538087,382.88462606538087,s,1,0.621379408868961,383.53456216468476,384.551163944765,,,,,,,,,,,,,,,,,,,,,,,,,,,,,,,,,,,,,,,,991156,2023-05-16_14h00.41.842,eb_02psyexp,2022.2.4,60.00007243370069,
180,0,180,0,,,,,,,,,,,,,,,,,,,,,,,,,,,,,,,,,,,,,,,,,,,,,,,,,,,,,,,,,,,384.551163944765,384.551163944765,384.551163944765,384.551163944765,384.551163944765,384.551163944765,s,1,0.4748460086993873,385.0511144421762,386.0677352384664,,,,,,,,,,,,,,,,,,,,,,,,,,,,,,,,,,,,,,,,991156,2023-05-16_14h00.41.842,eb_02psyexp,2022.2.4,60.00007243370069,
181,0,181,0,,,,,,,,,,,,,,,,,,,,,,,,,,,,,,,,,,,,,,,,,,,,,,,,,,,,,,,,,,,386.0677352384664,386.0677352384664,386.0677352384664,386.0677352384664,386.0677352384664,386.0677352384664,l,1,0.5342660195892677,386.6343630073825,387.6509581467835,,,,,,,,,,,,,,,,,,,,,,,,,,,,,,,,,,,,,,,,991156,2023-05-16_14h00.41.842,eb_02psyexp,2022.2.4,60.00007243370069,
182,0,182,0,,,,,,,,,,,,,,,,,,,,,,,,,,,,,,,,,,,,,,,,,,,,,,,,,,,,,,,,,,,387.6509581467835,387.6509581467835,387.6509581467835,387.6509581467835,387.6509581467835,387.6509581467835,s,1,0.5030353188049048,388.1841683475068,389.20082959102,,,,,,,,,,,,,,,,,,,,,,,,,,,,,,,,,,,,,,,,991156,2023-05-16_14h00.41.842,eb_02psyexp,2022.2.4,60.00007243370069,
183,0,183,0,,,,,,,,,,,,,,,,,,,,,,,,,,,,,,,,,,,,,,,,,,,,,,,,,,,,,,,,,,,389.20082959102,389.20082959102,389.20082959102,389.20082959102,389.20082959102,389.20082959102,l,1,0.9852155939443037,390.2173860942712,391.2340065886965,,,,,,,,,,,,,,,,,,,,,,,,,,,,,,,,,,,,,,,,991156,2023-05-16_14h00.41.842,eb_02psyexp,2022.2.4,60.00007243370069,
184,0,184,0,,,,,,,,,,,,,,,,,,,,,,,,,,,,,,,,,,,,,,,,,,,,,,,,,,,,,,,,,,,391.2340065886965,391.2340065886965,391.2340065886965,391.2340065886965,391.2340065886965,391.2340065886965,s,1,1.0470056921476498,392.30056463135406,393.31684705941007,,,,,,,,,,,,,,,,,,,,,,,,,,,,,,,,,,,,,,,,991156,2023-05-16_14h00.41.842,eb_02psyexp,2022.2.4,60.00007243370069,
185,0,185,0,,,,,,,,,,,,,,,,,,,,,,,,,,,,,,,,,,,,,,,,,,,,,,,,,,,,,,,,,,,393.31684705941007,393.31684705941007,393.31684705941007,393.31684705941007,393.31684705941007,393.31684705941007,s,1,0.7721851238748059,394.117086905404,395.1503568714252,,,,,,,,,,,,,,,,,,,,,,,,,,,,,,,,,,,,,,,,991156,2023-05-16_14h00.41.842,eb_02psyexp,2022.2.4,60.00007243370069,
186,0,186,0,,,,,,,,,,,,,,,,,,,,,,,,,,,,,,,,,,,,,,,,,,,,,,,,,,,,,,,,,,,395.1503568714252,395.1503568714252,395.1503568714252,395.1503568714252,395.1503568714252,395.1503568714252,s,1,1.3866942723980173,396.56690124061424,397.5835048316512,,,,,,,,,,,,,,,,,,,,,,,,,,,,,,,,,,,,,,,,991156,2023-05-16_14h00.41.842,eb_02psyexp,2022.2.4,60.00007243370069,
187,0,187,0,,,,,,,,,,,,,,,,,,,,,,,,,,,,,,,,,,,,,,,,,,,,,,,,,,,,,,,,,,,397.5835048316512,397.5835048316512,397.5835048316512,397.5835048316512,397.5835048316512,397.5835048316512,l,1,0.5375540177337825,398.1501166027738,399.16672351420857,,,,,,,,,,,,,,,,,,,,,,,,,,,,,,,,,,,,,,,,991156,2023-05-16_14h00.41.842,eb_02psyexp,2022.2.4,60.00007243370069,
188,0,188,0,,,,,,,,,,,,,,,,,,,,,,,,,,,,,,,,,,,,,,,,,,,,,,,,,,,,,,,,,,,399.16672351420857,399.16672351420857,399.16672351420857,399.16672351420857,399.16672351420857,399.16672351420857,l,1,0.5303492781240493,399.7166583458893,400.73328065138776,,,,,,,,,,,,,,,,,,,,,,,,,,,,,,,,,,,,,,,,991156,2023-05-16_14h00.41.842,eb_02psyexp,2022.2.4,60.00007243370069,
189,0,189,0,,,,,,,,,,,,,,,,,,,,,,,,,,,,,,,,,,,,,,,,,,,,,,,,,,,,,,,,,,,400.73328065138776,400.73328065138776,400.73328065138776,400.73328065138776,400.73328065138776,400.73328065138776,l,1,0.6437911025714129,401.3998345285654,402.4164583432721,,,,,,,,,,,,,,,,,,,,,,,,,,,,,,,,,,,,,,,,991156,2023-05-16_14h00.41.842,eb_02psyexp,2022.2.4,60.00007243370069,
190,0,190,0,,,,,,,,,,,,,,,,,,,,,,,,,,,,,,,,,,,,,,,,,,,,,,,,,,,,,,,,,,,402.4164583432721,402.4164583432721,402.4164583432721,402.4164583432721,402.4164583432721,402.4164583432721,s,1,0.8326386520639062,403.26638339518104,404.28267065261025,,,,,,,,,,,,,,,,,,,,,,,,,,,,,,,,,,,,,,,,991156,2023-05-16_14h00.41.842,eb_02psyexp,2022.2.4,60.00007243370069,
191,0,191,0,,,,,,,,,,,,,,,,,,,,,,,,,,,,,,,,,,,,,,,,,,,,,,,,,,,,,,,,,,,404.28267065261025,404.28267065261025,404.28267065261025,404.28267065261025,404.28267065261025,404.28267065261025,s,1,0.6464243988739327,404.94958764954936,405.9661951645976,,,,,,,,,,,,,,,,,,,,,,,,,,,,,,,,,,,,,,,,991156,2023-05-16_14h00.41.842,eb_02psyexp,2022.2.4,60.00007243370069,
192,0,192,0,,,,,,,,,,,,,,,,,,,,,,,,,,,,,,,,,,,,,,,,,,,,,,,,,,,,,,,,,,,405.9661951645976,405.9661951645976,405.9661951645976,405.9661951645976,405.9661951645976,405.9661951645976,l,1,0.5459558749571443,406.5327960692812,407.54940177337267,,,,,,,,,,,,,,,,,,,,,,,,,,,,,,,,,,,,,,,,991156,2023-05-16_14h00.41.842,eb_02psyexp,2022.2.4,60.00007243370069,
193,0,193,0,,,,,,,,,,,,,,,,,,,,,,,,,,,,,,,,,,,,,,,,,,,,,,,,,,,,,,,,,,,407.54940177337267,407.54940177337267,407.54940177337267,407.54940177337267,407.54940177337267,407.54940177337267,l,1,0.4987020310945809,408.066032832372,409.0826252552215,,,,,,,,,,,,,,,,,,,,,,,,,,,,,,,,,,,,,,,,991156,2023-05-16_14h00.41.842,eb_02psyexp,2022.2.4,60.00007243370069,
194,0,194,0,,,,,,,,,,,,,,,,,,,,,,,,,,,,,,,,,,,,,,,,,,,,,,,,,,,,,,,,,,,409.0826252552215,409.0826252552215,409.0826252552215,409.0826252552215,409.0826252552215,409.0826252552215,s,1,0.5015103975310922,409.6159124263795,410.63250213256106,,,,,,,,,,,,,,,,,,,,,,,,,,,,,,,,,,,,,,,,991156,2023-05-16_14h00.41.842,eb_02psyexp,2022.2.4,60.00007243370069,
195,0,195,0,,,,,,,,,,,,,,,,,,,,,,,,,,,,,,,,,,,,,,,,,,,,,,,,,,,,,,,,,,,410.63250213256106,410.63250213256106,410.63250213256106,410.63250213256106,410.63250213256106,410.63250213256106,l,1,0.6236504911212251,411.2824421559926,412.29903518245555,,,,,,,,,,,,,,,,,,,,,,,,,,,,,,,,,,,,,,,,991156,2023-05-16_14h00.41.842,eb_02psyexp,2022.2.4,60.00007243370069,
196,0,196,0,,,,,,,,,,,,,,,,,,,,,,,,,,,,,,,,,,,,,,,,,,,,,,,,,,,,,,,,,,,412.29903518245555,412.29903518245555,412.29903518245555,412.29903518245555,412.29903518245555,412.29903518245555,s,1,0.4611027013743296,412.78233168064617,413.79892500909045,,,,,,,,,,,,,,,,,,,,,,,,,,,,,,,,,,,,,,,,991156,2023-05-16_14h00.41.842,eb_02psyexp,2022.2.4,60.00007243370069,
197,0,197,0,,,,,,,,,,,,,,,,,,,,,,,,,,,,,,,,,,,,,,,,,,,,,,,,,,,,,,,,,,,413.79892500909045,413.79892500909045,413.79892500909045,413.79892500909045,413.79892500909045,413.79892500909045,l,1,1.9612463796511292,415.78209895815235,416.79868353297934,,,,,,,,,,,,,,,,,,,,,,,,,,,,,,,,,,,,,,,,991156,2023-05-16_14h00.41.842,eb_02psyexp,2022.2.4,60.00007243370069,
198,0,198,0,,,,,,,,,,,,,,,,,,,,,,,,,,,,,,,,,,,,,,,,,,,,,,,,,,,,,,,,,,,416.79868353297934,416.79868353297934,416.79868353297934,416.79868353297934,416.79868353297934,416.79868353297934,l,1,0.4974964619614184,417.3153136865003,418.3319097314961,,,,,,,,,,,,,,,,,,,,,,,,,,,,,,,,,,,,,,,,991156,2023-05-16_14h00.41.842,eb_02psyexp,2022.2.4,60.00007243370069,
199,0,199,0,,,,,0,0,0,0,,,,,,,,,,,,,,,,,,,,,,,,,,,,,,,,,,,,,,,,,,,,,,,,,,,418.3319097314961,418.3319097314961,418.3319097314961,418.3319097314961,418.3319097314961,418.3319097314961,l,1,0.4522589431144297,418.81520321115386,419.81514374772087,419.81514374772087,419.81514374772087,space,54.213339524227194,,,,,,,,,,,,,,,,,,,,,,,,,,,,,,,,,,,,991156,2023-05-16_14h00.41.842,eb_02psyexp,2022.2.4,60.00007243370069,
199,0,199,0,,,,,,,,,,,,,,,,,,,,,,,,,,,,,,,,,,,,,,,,,,,,,,,,,,,,,,,,,,,,,,,,,,,,,,,,,,,,,,,,,,,,,,,,,,,,,,,,,,,,,,,,,,,,,991156,2023-05-16_14h00.41.842,eb_02psyexp,2022.2.4,60.00007243370069,
200,0,200,0,,,,,,,,,,,,,,,,,,,,,,,,,,,,,,,,,,,,,,,,,,,,,,,,,,,,,,,,,,,474.07766171498224,474.07766171498224,474.07766171498224,474.07766171498224,474.07766171498224,474.07766171498224,l,1,2.7588550423970446,476.860735632712,477.8773718230659,,,,,,,,,,,,,,,,,,,,,,,,,,,,,,,,,,,,,,,,991156,2023-05-16_14h00.41.842,eb_02psyexp,2022.2.4,60.00007243370069,
201,0,201,0,,,,,,,,,,,,,,,,,,,,,,,,,,,,,,,,,,,,,,,,,,,,,,,,,,,,,,,,,,,477.8773718230659,477.8773718230659,477.8773718230659,477.8773718230659,477.8773718230659,477.8773718230659,s,1,0.8871431160951033,478.793940943433,479.81052310357336,,,,,,,,,,,,,,,,,,,,,,,,,,,,,,,,,,,,,,,,991156,2023-05-16_14h00.41.842,eb_02psyexp,2022.2.4,60.00007243370069,
202,0,202,0,,,,,,,,,,,,,,,,,,,,,,,,,,,,,,,,,,,,,,,,,,,,,,,,,,,,,,,,,,,479.81052310357336,479.81052310357336,479.81052310357336,479.81052310357336,479.81052310357336,479.81052310357336,l,1,1.138032200629823,480.97710112843197,481.99372373579536,,,,,,,,,,,,,,,,,,,,,,,,,,,,,,,,,,,,,,,,991156,2023-05-16_14h00.41.842,eb_02psyexp,2022.2.4,60.00007243370069,
203,0,203,0,,,,,,,,,,,,,,,,,,,,,,,,,,,,,,,,,,,,,,,,,,,,,,,,,,,,,,,,,,,481.99372373579536,481.99372373579536,481.99372373579536,481.99372373579536,481.99372373579536,481.99372373579536,l,1,0.6348543759668246,482.6603023642674,483.67690987931564,,,,,,,,,,,,,,,,,,,,,,,,,,,,,,,,,,,,,,,,991156,2023-05-16_14h00.41.842,eb_02psyexp,2022.2.4,60.00007243370069,
204,0,204,0,,,,,,,,,,,,,,,,,,,,,,,,,,,,,,,,,,,,,,,,,,,,,,,,,,,,,,,,,,,483.67690987931564,483.67690987931564,483.67690987931564,483.67690987931564,483.67690987931564,483.67690987931564,l,1,0.4716618452221155,484.1768573583104,485.193481474882,,,,,,,,,,,,,,,,,,,,,,,,,,,,,,,,,,,,,,,,991156,2023-05-16_14h00.41.842,eb_02psyexp,2022.2.4,60.00007243370069,
205,0,205,0,,,,,,,,,,,,,,,,,,,,,,,,,,,,,,,,,,,,,,,,,,,,,,,,,,,,,,,,,,,485.193481474882,485.193481474882,485.193481474882,485.193481474882,485.193481474882,485.193481474882,l,1,0.4820552761666477,485.6934075228637,486.72666390577797,,,,,,,,,,,,,,,,,,,,,,,,,,,,,,,,,,,,,,,,991156,2023-05-16_14h00.41.842,eb_02psyexp,2022.2.4,60.00007243370069,
206,0,206,0,,,,,,,,,,,,,,,,,,,,,,,,,,,,,,,,,,,,,,,,,,,,,,,,,,,,,,,,,,,486.72666390577797,486.72666390577797,486.72666390577797,486.72666390577797,486.72666390577797,486.72666390577797,s,1,0.580892025725916,487.3265712998109,488.3432355617406,,,,,,,,,,,,,,,,,,,,,,,,,,,,,,,,,,,,,,,,991156,2023-05-16_14h00.41.842,eb_02psyexp,2022.2.4,60.00007243370069,
207,0,207,0,,,,,,,,,,,,,,,,,,,,,,,,,,,,,,,,,,,,,,,,,,,,,,,,,,,,,,,,,,,488.3432355617406,488.3432355617406,488.3432355617406,488.3432355617406,488.3432355617406,488.3432355617406,s,1,0.5003814969677478,488.87645723251626,489.9097631180193,,,,,,,,,,,,,,,,,,,,,,,,,,,,,,,,,,,,,,,,991156,2023-05-16_14h00.41.842,eb_02psyexp,2022.2.4,60.00007243370069,
208,0,208,0,,,,,,,,,,,,,,,,,,,,,,,,,,,,,,,,,,,,,,,,,,,,,,,,,,,,,,,,,,,489.9097631180193,489.9097631180193,489.9097631180193,489.9097631180193,489.9097631180193,489.9097631180193,s,1,0.5178196897031739,490.45971123094205,491.47632961242925,,,,,,,,,,,,,,,,,,,,,,,,,,,,,,,,,,,,,,,,991156,2023-05-16_14h00.41.842,eb_02psyexp,2022.2.4,60.00007243370069,
209,0,209,0,,,,,,,,,,,,,,,,,,,,,,,,,,,,,,,,,,,,,,,,,,,,,,,,,,,,,,,,,,,491.47632961242925,491.47632961242925,491.47632961242925,491.47632961242925,491.47632961242925,491.47632961242925,l,1,0.4232709511416033,491.9262752501527,492.9595412921626,,,,,,,,,,,,,,,,,,,,,,,,,,,,,,,,,,,,,,,,991156,2023-05-16_14h00.41.842,eb_02psyexp,2022.2.4,60.00007243370069,
210,0,210,0,,,,,,,,,,,,,,,,,,,,,,,,,,,,,,,,,,,,,,,,,,,,,,,,,,,,,,,,,,,492.9595412921626,492.9595412921626,492.9595412921626,492.9595412921626,492.9595412921626,492.9595412921626,s,1,0.5560583272017539,493.5428088735789,494.55941397394054,,,,,,,,,,,,,,,,,,,,,,,,,,,,,,,,,,,,,,,,991156,2023-05-16_14h00.41.842,eb_02psyexp,2022.2.4,60.00007243370069,
211,0,211,0,,,,,,,,,,,,,,,,,,,,,,,,,,,,,,,,,,,,,,,,,,,,,,,,,,,,,,,,,,,494.55941397394054,494.55941397394054,494.55941397394054,494.55941397394054,494.55941397394054,494.55941397394054,l,1,0.468179760617204,495.0593554159859,496.07596625131555,,,,,,,,,,,,,,,,,,,,,,,,,,,,,,,,,,,,,,,,991156,2023-05-16_14h00.41.842,eb_02psyexp,2022.2.4,60.00007243370069,
212,0,212,0,,,,,,,,,,,,,,,,,,,,,,,,,,,,,,,,,,,,,,,,,,,,,,,,,,,,,,,,,,,496.07596625131555,496.07596625131555,496.07596625131555,496.07596625131555,496.07596625131555,496.07596625131555,s,1,0.5516598409740254,496.65923473832663,497.67585644009523,,,,,,,,,,,,,,,,,,,,,,,,,,,,,,,,,,,,,,,,991156,2023-05-16_14h00.41.842,eb_02psyexp,2022.2.4,60.00007243370069,
213,0,213,0,,,,,,,,,,,,,,,,,,,,,,,,,,,,,,,,,,,,,,,,,,,,,,,,,,,,,,,,,,,497.67585644009523,497.67585644009523,497.67585644009523,497.67585644009523,497.67585644009523,497.67585644009523,s,1,0.8877640113933012,498.5924213347025,499.60898266744334,,,,,,,,,,,,,,,,,,,,,,,,,,,,,,,,,,,,,,,,991156,2023-05-16_14h00.41.842,eb_02psyexp,2022.2.4,60.00007243370069,
214,0,214,0,,,,,,,,,,,,,,,,,,,,,,,,,,,,,,,,,,,,,,,,,,,,,,,,,,,,,,,,,,,499.60898266744334,499.60898266744334,499.60898266744334,499.60898266744334,499.60898266744334,499.60898266744334,l,1,0.7457136140437797,500.3756356103113,501.39191351050977,,,,,,,,,,,,,,,,,,,,,,,,,,,,,,,,,,,,,,,,991156,2023-05-16_14h00.41.842,eb_02psyexp,2022.2.4,60.00007243370069,
215,0,215,0,,,,,,,,,,,,,,,,,,,,,,,,,,,,,,,,,,,,,,,,,,,,,,,,,,,,,,,,,,,501.39191351050977,501.39191351050977,501.39191351050977,501.39191351050977,501.39191351050977,501.39191351050977,s,1,0.5627275937004015,501.975493501639,502.9920919613214,,,,,,,,,,,,,,,,,,,,,,,,,,,,,,,,,,,,,,,,991156,2023-05-16_14h00.41.842,eb_02psyexp,2022.2.4,60.00007243370069,
216,0,216,0,,,,,,,,,,,,,,,,,,,,,,,,,,,,,,,,,,,,,,,,,,,,,,,,,,,,,,,,,,,502.9920919613214,502.9920919613214,502.9920919613214,502.9920919613214,502.9920919613214,502.9920919613214,l,1,0.5145543299149722,503.525386678637,504.5420014379779,,,,,,,,,,,,,,,,,,,,,,,,,,,,,,,,,,,,,,,,991156,2023-05-16_14h00.41.842,eb_02psyexp,2022.2.4,60.00007243370069,
217,0,217,0,,,,,,,,,,,,,,,,,,,,,,,,,,,,,,,,,,,,,,,,,,,,,,,,,,,,,,,,,,,504.5420014379779,504.5420014379779,504.5420014379779,504.5420014379779,504.5420014379779,504.5420014379779,l,1,0.532674390473403,505.0919317420339,506.125199595117,,,,,,,,,,,,,,,,,,,,,,,,,,,,,,,,,,,,,,,,991156,2023-05-16_14h00.41.842,eb_02psyexp,2022.2.4,60.00007243370069,
218,0,218,0,,,,,,,,,,,,,,,,,,,,,,,,,,,,,,,,,,,,,,,,,,,,,,,,,,,,,,,,,,,506.125199595117,506.125199595117,506.125199595117,506.125199595117,506.125199595117,506.125199595117,s,1,0.4054720535641536,506.5584770467831,507.575107502169,,,,,,,,,,,,,,,,,,,,,,,,,,,,,,,,,,,,,,,,991156,2023-05-16_14h00.41.842,eb_02psyexp,2022.2.4,60.00007243370069,
219,0,219,0,,,,,,,,,,,,,,,,,,,,,,,,,,,,,,,,,,,,,,,,,,,,,,,,,,,,,,,,,,,507.575107502169,507.575107502169,507.575107502169,507.575107502169,507.575107502169,507.575107502169,s,1,0.539583925739862,508.14170025708154,509.1749388311291,,,,,,,,,,,,,,,,,,,,,,,,,,,,,,,,,,,,,,,,991156,2023-05-16_14h00.41.842,eb_02psyexp,2022.2.4,60.00007243370069,
220,0,220,0,,,,,,,,,,,,,,,,,,,,,,,,,,,,,,,,,,,,,,,,,,,,,,,,,,,,,,,,,,,509.1749388311291,509.1749388311291,509.1749388311291,509.1749388311291,509.1749388311291,509.1749388311291,s,1,0.4597540578106418,509.65823683852796,510.6748597477563,,,,,,,,,,,,,,,,,,,,,,,,,,,,,,,,,,,,,,,,991156,2023-05-16_14h00.41.842,eb_02psyexp,2022.2.4,60.00007243370069,
221,0,221,0,,,,,,,,,,,,,,,,,,,,,,,,,,,,,,,,,,,,,,,,,,,,,,,,,,,,,,,,,,,510.6748597477563,510.6748597477563,510.6748597477563,510.6748597477563,510.6748597477563,510.6748597477563,s,1,0.6958521308843046,511.39144051936455,512.4080682580825,,,,,,,,,,,,,,,,,,,,,,,,,,,,,,,,,,,,,,,,991156,2023-05-16_14h00.41.842,eb_02psyexp,2022.2.4,60.00007243370069,
222,0,222,0,,,,,,,,,,,,,,,,,,,,,,,,,,,,,,,,,,,,,,,,,,,,,,,,,,,,,,,,,,,512.4080682580825,512.4080682580825,512.4080682580825,512.4080682580825,512.4080682580825,512.4080682580825,l,1,0.5866397592471913,513.0246580246603,514.0412447124254,,,,,,,,,,,,,,,,,,,,,,,,,,,,,,,,,,,,,,,,991156,2023-05-16_14h00.41.842,eb_02psyexp,2022.2.4,60.00007243370069,
223,0,223,0,,,,,,,,,,,,,,,,,,,,,,,,,,,,,,,,,,,,,,,,,,,,,,,,,,,,,,,,,,,514.0412447124254,514.0412447124254,514.0412447124254,514.0412447124254,514.0412447124254,514.0412447124254,s,1,0.4414643601048738,514.5078793634893,515.5244808415882,,,,,,,,,,,,,,,,,,,,,,,,,,,,,,,,,,,,,,,,991156,2023-05-16_14h00.41.842,eb_02psyexp,2022.2.4,60.00007243370069,
224,0,224,0,,,,,,,,,,,,,,,,,,,,,,,,,,,,,,,,,,,,,,,,,,,,,,,,,,,,,,,,,,,515.5244808415882,515.5244808415882,515.5244808415882,515.5244808415882,515.5244808415882,515.5244808415882,l,1,0.6532783946022391,516.2077382206917,517.2410057719098,,,,,,,,,,,,,,,,,,,,,,,,,,,,,,,,,,,,,,,,991156,2023-05-16_14h00.41.842,eb_02psyexp,2022.2.4,60.00007243370069,
225,0,225,0,,,,,,,,,,,,,,,,,,,,,,,,,,,,,,,,,,,,,,,,,,,,,,,,,,,,,,,,,,,517.2410057719098,517.2410057719098,517.2410057719098,517.2410057719098,517.2410057719098,517.2410057719098,s,1,1.0407460293499753,518.3075915843947,519.3241867237957,,,,,,,,,,,,,,,,,,,,,,,,,,,,,,,,,,,,,,,,991156,2023-05-16_14h00.41.842,eb_02psyexp,2022.2.4,60.00007243370069,
226,0,226,0,,,,,,,,,,,,,,,,,,,,,,,,,,,,,,,,,,,,,,,,,,,,,,,,,,,,,,,,,,,519.3241867237957,519.3241867237957,519.3241867237957,519.3241867237957,519.3241867237957,519.3241867237957,l,1,0.5255816353019327,519.8741644175025,520.8907299761195,,,,,,,,,,,,,,,,,,,,,,,,,,,,,,,,,,,,,,,,991156,2023-05-16_14h00.41.842,eb_02psyexp,2022.2.4,60.00007243370069,
227,0,227,0,,,,,,,,,,,,,,,,,,,,,,,,,,,,,,,,,,,,,,,,,,,,,,,,,,,,,,,,,,,520.8907299761195,520.8907299761195,520.8907299761195,520.8907299761195,520.8907299761195,520.8907299761195,l,1,0.5910352270584553,521.5073257796466,522.5239212209126,,,,,,,,,,,,,,,,,,,,,,,,,,,,,,,,,,,,,,,,991156,2023-05-16_14h00.41.842,eb_02psyexp,2022.2.4,60.00007243370069,
228,0,228,0,,,,,,,,,,,,,,,,,,,,,,,,,,,,,,,,,,,,,,,,,,,,,,,,,,,,,,,,,,,522.5239212209126,522.5239212209126,522.5239212209126,522.5239212209126,522.5239212209126,522.5239212209126,s,1,0.4858422242105007,523.0405489596305,524.0571341381874,,,,,,,,,,,,,,,,,,,,,,,,,,,,,,,,,,,,,,,,991156,2023-05-16_14h00.41.842,eb_02psyexp,2022.2.4,60.00007243370069,
229,0,229,0,,,,,,,,,,,,,,,,,,,,,,,,,,,,,,,,,,,,,,,,,,,,,,,,,,,,,,,,,,,524.0571341381874,524.0571341381874,524.0571341381874,524.0571341381874,524.0571341381874,524.0571341381874,l,1,0.44063338066916913,524.5237881072098,525.5403941130498,,,,,,,,,,,,,,,,,,,,,,,,,,,,,,,,,,,,,,,,991156,2023-05-16_14h00.41.842,eb_02psyexp,2022.2.4,60.00007243370069,
230,0,230,0,,,,,,,,,,,,,,,,,,,,,,,,,,,,,,,,,,,,,,,,,,,,,,,,,,,,,,,,,,,525.5403941130498,525.5403941130498,525.5403941130498,525.5403941130498,525.5403941130498,525.5403941130498,l,1,0.437389149912633,526.0069883167744,527.0236097167945,,,,,,,,,,,,,,,,,,,,,,,,,,,,,,,,,,,,,,,,991156,2023-05-16_14h00.41.842,eb_02psyexp,2022.2.4,60.00007243370069,
231,0,231,0,,,,,,,,,,,,,,,,,,,,,,,,,,,,,,,,,,,,,,,,,,,,,,,,,,,,,,,,,,,527.0236097167945,527.0236097167945,527.0236097167945,527.0236097167945,527.0236097167945,527.0236097167945,l,1,0.5942212016088888,527.6402323845541,528.656804281869,,,,,,,,,,,,,,,,,,,,,,,,,,,,,,,,,,,,,,,,991156,2023-05-16_14h00.41.842,eb_02psyexp,2022.2.4,60.00007243370069,
232,0,232,0,,,,,,,,,,,,,,,,,,,,,,,,,,,,,,,,,,,,,,,,,,,,,,,,,,,,,,,,,,,528.656804281869,528.656804281869,528.656804281869,528.656804281869,528.656804281869,528.656804281869,s,1,0.8010040825465694,529.4900581293041,530.5066517596133,,,,,,,,,,,,,,,,,,,,,,,,,,,,,,,,,,,,,,,,991156,2023-05-16_14h00.41.842,eb_02psyexp,2022.2.4,60.00007243370069,
233,0,233,0,,,,,,,,,,,,,,,,,,,,,,,,,,,,,,,,,,,,,,,,,,,,,,,,,,,,,,,,,,,530.5066517596133,530.5066517596133,530.5066517596133,530.5066517596133,530.5066517596133,530.5066517596133,s,1,0.902208806714043,531.4399005360901,532.456496581086,,,,,,,,,,,,,,,,,,,,,,,,,,,,,,,,,,,,,,,,991156,2023-05-16_14h00.41.842,eb_02psyexp,2022.2.4,60.00007243370069,
234,0,234,0,,,,,,,,,,,,,,,,,,,,,,,,,,,,,,,,,,,,,,,,,,,,,,,,,,,,,,,,,,,532.456496581086,532.456496581086,532.456496581086,532.456496581086,532.456496581086,532.456496581086,l,1,0.5683084070915356,533.0564525719965,534.0730706517352,,,,,,,,,,,,,,,,,,,,,,,,,,,,,,,,,,,,,,,,991156,2023-05-16_14h00.41.842,eb_02psyexp,2022.2.4,60.00007243370069,
235,0,235,0,,,,,,,,,,,,,,,,,,,,,,,,,,,,,,,,,,,,,,,,,,,,,,,,,,,,,,,,,,,534.0730706517352,534.0730706517352,534.0730706517352,534.0730706517352,534.0730706517352,534.0730706517352,s,1,0.5437581411097199,534.6396634065313,535.6729382020421,,,,,,,,,,,,,,,,,,,,,,,,,,,,,,,,,,,,,,,,991156,2023-05-16_14h00.41.842,eb_02psyexp,2022.2.4,60.00007243370069,
236,0,236,0,,,,,,,,,,,,,,,,,,,,,,,,,,,,,,,,,,,,,,,,,,,,,,,,,,,,,,,,,,,535.6729382020421,535.6729382020421,535.6729382020421,535.6729382020421,535.6729382020421,535.6729382020421,s,1,0.5438933676341549,536.2395336736226,537.256123983534,,,,,,,,,,,,,,,,,,,,,,,,,,,,,,,,,,,,,,,,991156,2023-05-16_14h00.41.842,eb_02psyexp,2022.2.4,60.00007243370069,
237,0,237,0,,,,,,,,,,,,,,,,,,,,,,,,,,,,,,,,,,,,,,,,,,,,,,,,,,,,,,,,,,,537.256123983534,537.256123983534,537.256123983534,537.256123983534,537.256123983534,537.256123983534,l,1,0.4407178972614929,537.7227658787742,538.7560258838348,,,,,,,,,,,,,,,,,,,,,,,,,,,,,,,,,,,,,,,,991156,2023-05-16_14h00.41.842,eb_02psyexp,2022.2.4,60.00007243370069,
238,0,238,0,,,,,,,,,,,,,,,,,,,,,,,,,,,,,,,,,,,,,,,,,,,,,,,,,,,,,,,,,,,538.7560258838348,538.7560258838348,538.7560258838348,538.7560258838348,538.7560258838348,538.7560258838348,s,1,0.4368277182802558,539.2226454425836,540.2392363562249,,,,,,,,,,,,,,,,,,,,,,,,,,,,,,,,,,,,,,,,991156,2023-05-16_14h00.41.842,eb_02psyexp,2022.2.4,60.00007243370069,
239,0,239,0,,,,,,,,,,,,,,,,,,,,,,,,,,,,,,,,,,,,,,,,,,,,,,,,,,,,,,,,,,,540.2392363562249,540.2392363562249,540.2392363562249,540.2392363562249,540.2392363562249,540.2392363562249,s,1,0.5296248499071226,540.7891853745095,541.8057895693928,,,,,,,,,,,,,,,,,,,,,,,,,,,,,,,,,,,,,,,,991156,2023-05-16_14h00.41.842,eb_02psyexp,2022.2.4,60.00007243370069,
240,0,240,0,,,,,,,,,,,,,,,,,,,,,,,,,,,,,,,,,,,,,,,,,,,,,,,,,,,,,,,,,,,541.8057895693928,541.8057895693928,541.8057895693928,541.8057895693928,541.8057895693928,541.8057895693928,l,1,0.5950977596221492,542.4223521698732,543.439012507908,,,,,,,,,,,,,,,,,,,,,,,,,,,,,,,,,,,,,,,,991156,2023-05-16_14h00.41.842,eb_02psyexp,2022.2.4,60.00007243370069,
241,0,241,0,,,,,,,,,,,,,,,,,,,,,,,,,,,,,,,,,,,,,,,,,,,,,,,,,,,,,,,,,,,543.439012507908,543.439012507908,543.439012507908,543.439012507908,543.439012507908,543.439012507908,l,1,0.5458897708449513,544.0056103941752,545.0222517158836,,,,,,,,,,,,,,,,,,,,,,,,,,,,,,,,,,,,,,,,991156,2023-05-16_14h00.41.842,eb_02psyexp,2022.2.4,60.00007243370069,
242,0,242,0,,,,,,,,,,,,,,,,,,,,,,,,,,,,,,,,,,,,,,,,,,,,,,,,,,,,,,,,,,,545.0222517158836,545.0222517158836,545.0222517158836,545.0222517158836,545.0222517158836,545.0222517158836,l,1,0.44265302596613765,545.4888299218146,546.5054320037598,,,,,,,,,,,,,,,,,,,,,,,,,,,,,,,,,,,,,,,,991156,2023-05-16_14h00.41.842,eb_02psyexp,2022.2.4,60.00007243370069,
243,0,243,0,,,,,,,,,,,,,,,,,,,,,,,,,,,,,,,,,,,,,,,,,,,,,,,,,,,,,,,,,,,546.5054320037598,546.5054320037598,546.5054320037598,546.5054320037598,546.5054320037598,546.5054320037598,l,1,0.40650375990662724,546.9387212274596,547.9719854583964,,,,,,,,,,,,,,,,,,,,,,,,,,,,,,,,,,,,,,,,991156,2023-05-16_14h00.41.842,eb_02psyexp,2022.2.4,60.00007243370069,
244,0,244,0,,,,,,,,,,,,,,,,,,,,,,,,,,,,,,,,,,,,,,,,,,,,,,,,,,,,,,,,,,,547.9719854583964,547.9719854583964,547.9719854583964,547.9719854583964,547.9719854583964,547.9719854583964,s,1,0.5319342664442956,548.5219350804109,549.5385555748362,,,,,,,,,,,,,,,,,,,,,,,,,,,,,,,,,,,,,,,,991156,2023-05-16_14h00.41.842,eb_02psyexp,2022.2.4,60.00007243370069,
245,0,245,0,,,,,,,,,,,,,,,,,,,,,,,,,,,,,,,,,,,,,,,,,,,,,,,,,,,,,,,,,,,549.5385555748362,549.5385555748362,549.5385555748362,549.5385555748362,549.5385555748362,549.5385555748362,s,1,0.5573583738878369,550.1218110824702,551.138405014528,,,,,,,,,,,,,,,,,,,,,,,,,,,,,,,,,,,,,,,,991156,2023-05-16_14h00.41.842,eb_02psyexp,2022.2.4,60.00007243370069,
246,0,246,0,,,,,,,,,,,,,,,,,,,,,,,,,,,,,,,,,,,,,,,,,,,,,,,,,,,,,,,,,,,551.138405014528,551.138405014528,551.138405014528,551.138405014528,551.138405014528,551.138405014528,l,1,0.4295131068211049,551.588387779193,552.6049892574083,,,,,,,,,,,,,,,,,,,,,,,,,,,,,,,,,,,,,,,,991156,2023-05-16_14h00.41.842,eb_02psyexp,2022.2.4,60.00007243370069,
247,0,247,0,,,,,,,,,,,,,,,,,,,,,,,,,,,,,,,,,,,,,,,,,,,,,,,,,,,,,,,,,,,552.6049892574083,552.6049892574083,552.6049892574083,552.6049892574083,552.6049892574083,552.6049892574083,s,1,0.466985359787941,553.1049231532961,554.1215128595941,,,,,,,,,,,,,,,,,,,,,,,,,,,,,,,,,,,,,,,,991156,2023-05-16_14h00.41.842,eb_02psyexp,2022.2.4,60.00007243370069,
248,0,248,0,,,,,,,,,,,,,,,,,,,,,,,,,,,,,,,,,,,,,,,,,,,,,,,,,,,,,,,,,,,554.1215128595941,554.1215128595941,554.1215128595941,554.1215128595941,554.1215128595941,554.1215128595941,s,1,0.5264437048463151,554.6714211287908,555.6880449436139,,,,,,,,,,,,,,,,,,,,,,,,,,,,,,,,,,,,,,,,991156,2023-05-16_14h00.41.842,eb_02psyexp,2022.2.4,60.00007243370069,
249,0,249,0,,,,,,,,,,,,,,,,,,,,,,,,,,,,,,,,,,,,,,,,,,,,,,,,,,,,,,,,,,,555.6880449436139,555.6880449436139,555.6880449436139,555.6880449436139,555.6880449436139,555.6880449436139,s,1,0.4159276644932106,556.1213848772459,557.1546110756462,,,,,,,,,,,,,,,,,,,,,,,,,,,,,,,,,,,,,,,,991156,2023-05-16_14h00.41.842,eb_02psyexp,2022.2.4,60.00007243370069,
250,0,250,0,,,,,,,,,,,,,,,,,,,,,,,,,,,,,,,,,,,,,,,,,,,,,,,,,,,,,,,,,,,557.1546110756462,557.1546110756462,557.1546110756462,557.1546110756462,557.1546110756462,557.1546110756462,s,1,0.421350612770766,557.6045850868104,558.6211898853071,,,,,,,,,,,,,,,,,,,,,,,,,,,,,,,,,,,,,,,,991156,2023-05-16_14h00.41.842,eb_02psyexp,2022.2.4,60.00007243370069,
251,0,251,0,,,,,,,,,,,,,,,,,,,,,,,,,,,,,,,,,,,,,,,,,,,,,,,,,,,,,,,,,,,558.6211898853071,558.6211898853071,558.6211898853071,558.6211898853071,558.6211898853071,558.6211898853071,s,1,0.44277285842690617,559.0877952573355,560.1044184683124,,,,,,,,,,,,,,,,,,,,,,,,,,,,,,,,,,,,,,,,991156,2023-05-16_14h00.41.842,eb_02psyexp,2022.2.4,60.00007243370069,
252,0,252,0,,,,,,,,,,,,,,,,,,,,,,,,,,,,,,,,,,,,,,,,,,,,,,,,,,,,,,,,,,,560.1044184683124,560.1044184683124,560.1044184683124,560.1044184683124,560.1044184683124,560.1044184683124,l,1,0.4955839717295021,560.6210096838186,561.6376087472308,,,,,,,,,,,,,,,,,,,,,,,,,,,,,,,,,,,,,,,,991156,2023-05-16_14h00.41.842,eb_02psyexp,2022.2.4,60.00007243370069,
253,0,253,0,,,,,,,,,,,,,,,,,,,,,,,,,,,,,,,,,,,,,,,,,,,,,,,,,,,,,,,,,,,561.6376087472308,561.6376087472308,561.6376087472308,561.6376087472308,561.6376087472308,561.6376087472308,s,1,0.41038850590121,562.0709088373696,563.1041546558263,,,,,,,,,,,,,,,,,,,,,,,,,,,,,,,,,,,,,,,,991156,2023-05-16_14h00.41.842,eb_02psyexp,2022.2.4,60.00007243370069,
254,0,254,0,,,,,,,,,,,,,,,,,,,,,,,,,,,,,,,,,,,,,,,,,,,,,,,,,,,,,,,,,,,563.1041546558263,563.1041546558263,563.1041546558263,563.1041546558263,563.1041546558263,563.1041546558263,s,1,0.47084565623663366,563.6041133030085,564.6207132720156,,,,,,,,,,,,,,,,,,,,,,,,,,,,,,,,,,,,,,,,991156,2023-05-16_14h00.41.842,eb_02psyexp,2022.2.4,60.00007243370069,
255,0,255,0,,,,,,,,,,,,,,,,,,,,,,,,,,,,,,,,,,,,,,,,,,,,,,,,,,,,,,,,,,,564.6207132720156,564.6207132720156,564.6207132720156,564.6207132720156,564.6207132720156,564.6207132720156,s,1,0.4503591302782297,565.1040215421235,566.1206169833895,,,,,,,,,,,,,,,,,,,,,,,,,,,,,,,,,,,,,,,,991156,2023-05-16_14h00.41.842,eb_02psyexp,2022.2.4,60.00007243370069,
256,0,256,0,,,,,,,,,,,,,,,,,,,,,,,,,,,,,,,,,,,,,,,,,,,,,,,,,,,,,,,,,,,566.1206169833895,566.1206169833895,566.1206169833895,566.1206169833895,566.1206169833895,566.1206169833895,s,1,0.4144054598873481,566.5538890019525,567.5871592698386,,,,,,,,,,,,,,,,,,,,,,,,,,,,,,,,,,,,,,,,991156,2023-05-16_14h00.41.842,eb_02psyexp,2022.2.4,60.00007243370069,
257,0,257,0,,,,,,,,,,,,,,,,,,,,,,,,,,,,,,,,,,,,,,,,,,,,,,,,,,,,,,,,,,,567.5871592698386,567.5871592698386,567.5871592698386,567.5871592698386,567.5871592698386,567.5871592698386,s,1,1.067858959781006,568.6870630416088,569.7036802157527,,,,,,,,,,,,,,,,,,,,,,,,,,,,,,,,,,,,,,,,991156,2023-05-16_14h00.41.842,eb_02psyexp,2022.2.4,60.00007243370069,
258,0,258,0,,,,,,,,,,,,,,,,,,,,,,,,,,,,,,,,,,,,,,,,,,,,,,,,,,,,,,,,,,,569.7036802157527,569.7036802157527,569.7036802157527,569.7036802157527,569.7036802157527,569.7036802157527,s,1,0.7513442318886518,570.4869340329897,571.5035192115465,,,,,,,,,,,,,,,,,,,,,,,,,,,,,,,,,,,,,,,,991156,2023-05-16_14h00.41.842,eb_02psyexp,2022.2.4,60.00007243370069,
259,0,259,0,,,,,,,,,,,,,,,,,,,,,,,,,,,,,,,,,,,,,,,,,,,,,,,,,,,,,,,,,,,571.5035192115465,571.5035192115465,571.5035192115465,571.5035192115465,571.5035192115465,571.5035192115465,s,1,0.43152037647087127,571.9534802433336,572.9867468890734,,,,,,,,,,,,,,,,,,,,,,,,,,,,,,,,,,,,,,,,991156,2023-05-16_14h00.41.842,eb_02psyexp,2022.2.4,60.00007243370069,
260,0,260,0,,,,,,,,,,,,,,,,,,,,,,,,,,,,,,,,,,,,,,,,,,,,,,,,,,,,,,,,,,,572.9867468890734,572.9867468890734,572.9867468890734,572.9867468890734,572.9867468890734,572.9867468890734,s,1,0.35629485303070396,573.3700375917833,574.4699582669418,,,,,,,,,,,,,,,,,,,,,,,,,,,,,,,,,,,,,,,,991156,2023-05-16_14h00.41.842,eb_02psyexp,2022.2.4,60.00007243370069,
261,0,261,0,,,,,,,,,,,,,,,,,,,,,,,,,,,,,,,,,,,,,,,,,,,,,,,,,,,,,,,,,,,574.4699582669418,574.4699582669418,574.4699582669418,574.4699582669418,574.4699582669418,574.4699582669418,s,1,0.5450898815179244,575.0365787915653,576.06982974126,,,,,,,,,,,,,,,,,,,,,,,,,,,,,,,,,,,,,,,,991156,2023-05-16_14h00.41.842,eb_02psyexp,2022.2.4,60.00007243370069,
262,0,262,0,,,,,,,,,,,,,,,,,,,,,,,,,,,,,,,,,,,,,,,,,,,,,,,,,,,,,,,,,,,576.06982974126,576.06982974126,576.06982974126,576.06982974126,576.06982974126,576.06982974126,s,1,0.5203437181189656,576.6197838910157,577.6364064983791,,,,,,,,,,,,,,,,,,,,,,,,,,,,,,,,,,,,,,,,991156,2023-05-16_14h00.41.842,eb_02psyexp,2022.2.4,60.00007243370069,
263,0,263,0,,,,,,,,,,,,,,,,,,,,,,,,,,,,,,,,,,,,,,,,,,,,,,,,,,,,,,,,,,,577.6364064983791,577.6364064983791,577.6364064983791,577.6364064983791,577.6364064983791,577.6364064983791,l,1,0.44965794414747506,578.1030070409179,579.1196169707691,,,,,,,,,,,,,,,,,,,,,,,,,,,,,,,,,,,,,,,,991156,2023-05-16_14h00.41.842,eb_02psyexp,2022.2.4,60.00007243370069,
264,0,264,0,,,,,,,,,,,,,,,,,,,,,,,,,,,,,,,,,,,,,,,,,,,,,,,,,,,,,,,,,,,579.1196169707691,579.1196169707691,579.1196169707691,579.1196169707691,579.1196169707691,579.1196169707691,s,1,0.47049702517688274,579.6195569036063,580.652827171376,,,,,,,,,,,,,,,,,,,,,,,,,,,,,,,,,,,,,,,,991156,2023-05-16_14h00.41.842,eb_02psyexp,2022.2.4,60.00007243370069,
265,0,265,0,,,,,,,,,,,,,,,,,,,,,,,,,,,,,,,,,,,,,,,,,,,,,,,,,,,,,,,,,,,580.652827171376,580.652827171376,580.652827171376,580.652827171376,580.652827171376,580.652827171376,s,1,0.4332795295631513,581.102777940454,582.1193978312658,,,,,,,,,,,,,,,,,,,,,,,,,,,,,,,,,,,,,,,,991156,2023-05-16_14h00.41.842,eb_02psyexp,2022.2.4,60.00007243370069,
266,0,266,0,,,,,,,,,,,,,,,,,,,,,,,,,,,,,,,,,,,,,,,,,,,,,,,,,,,,,,,,,,,582.1193978312658,582.1193978312658,582.1193978312658,582.1193978312658,582.1193978312658,582.1193978312658,s,1,0.43074523843824863,582.5693507131655,583.585947965621,,,,,,,,,,,,,,,,,,,,,,,,,,,,,,,,,,,,,,,,991156,2023-05-16_14h00.41.842,eb_02psyexp,2022.2.4,60.00007243370069,
267,0,267,0,,,,,,,,,,,,,,,,,,,,,,,,,,,,,,,,,,,,,,,,,,,,,,,,,,,,,,,,,,,583.585947965621,583.585947965621,583.585947965621,583.585947965621,583.585947965621,583.585947965621,l,1,0.35617441684007645,583.9692214631941,584.9858187155332,,,,,,,,,,,,,,,,,,,,,,,,,,,,,,,,,,,,,,,,991156,2023-05-16_14h00.41.842,eb_02psyexp,2022.2.4,60.00007243370069,
268,0,268,0,,,,,,,,,,,,,,,,,,,,,,,,,,,,,,,,,,,,,,,,,,,,,,,,,,,,,,,,,,,584.9858187155332,584.9858187155332,584.9858187155332,584.9858187155332,584.9858187155332,584.9858187155332,l,1,0.3882973715662956,585.4024747672956,586.4190445517888,,,,,,,,,,,,,,,,,,,,,,,,,,,,,,,,,,,,,,,,991156,2023-05-16_14h00.41.842,eb_02psyexp,2022.2.4,60.00007243370069,
269,0,269,0,,,,,,,,,,,,,,,,,,,,,,,,,,,,,,,,,,,,,,,,,,,,,,,,,,,,,,,,,,,586.4190445517888,586.4190445517888,586.4190445517888,586.4190445517888,586.4190445517888,586.4190445517888,l,1,0.6190838771872222,587.0689857825637,588.0855984289665,,,,,,,,,,,,,,,,,,,,,,,,,,,,,,,,,,,,,,,,991156,2023-05-16_14h00.41.842,eb_02psyexp,2022.2.4,60.00007243370069,
270,0,270,0,,,,,,,,,,,,,,,,,,,,,,,,,,,,,,,,,,,,,,,,,,,,,,,,,,,,,,,,,,,588.0855984289665,588.0855984289665,588.0855984289665,588.0855984289665,588.0855984289665,588.0855984289665,s,1,0.5605352931888774,588.6688687270507,589.6855015971232,,,,,,,,,,,,,,,,,,,,,,,,,,,,,,,,,,,,,,,,991156,2023-05-16_14h00.41.842,eb_02psyexp,2022.2.4,60.00007243370069,
