trials.thisRepN,trials.thisTrialN,trials.thisN,trials.thisIndex,image_loop.thisRepN,image_loop.thisTrialN,image_loop.thisN,image_loop.thisIndex,break_loop.thisRepN,break_loop.thisTrialN,break_loop.thisN,break_loop.thisIndex,test_trials.thisRepN,test_trials.thisTrialN,test_trials.thisN,test_trials.thisIndex,distance matrix,tools,welcome_text.started,instructions_0_keypress.started,instructions_0_keypress.keys,instructions_0_keypress.rt,consent_image_0.started,consent0_key_resp.started,consent0_text.started,consent0_key_resp.keys,consent0_key_resp.rt,consent_image_1.started,consent1_key_resp.started,consent1_text.started,consent1_key_resp.keys,consent1_key_resp.rt,consent2_text.started,consent_image_2.started,consent2_key_resp.started,consent2_key_resp.keys,consent2_key_resp.rt,agree_button.started,disagree_button.started,consent_image_3.started,agree_button.numClicks,agree_button.timesOn,agree_button.timesOff,disagree_button.numClicks,disagree_button.timesOn,disagree_button.timesOff,instructions_text1.started,instructions1_key_resp.started,instr1_cnt_text.started,instructions1_key_resp.keys,instructions1_key_resp.rt,instructions_text2.started,instr2_cnt_text.started,instructions2_key_resp.started,instructions2_key_resp.keys,instructions2_key_resp.rt,instructions_text3.started,instructions3_key_resp.started,instr3_cnt_text.started,instructions3_key_resp.keys,instructions3_key_resp.rt,text_countdown.started,image.started,small_large_keyresp.started,task_question_text.started,smalleroption_text.started,largeroption_text.started,accuracy_score_text.started,small_large_keyresp.keys,small_large_keyresp.corr,small_large_keyresp.rt,fb_2.started,fb_2.stopped,break_text.started,break_key_resp.started,break_key_resp.keys,break_key_resp.rt,reveal_seq_text.started,start_test_text.started,continue_to_test.started,continue_to_test.keys,continue_to_test.rt,test_structure_info.started,start_test_text_2.started,continue_to_test_2.started,continue_to_test_2.keys,continue_to_test_2.rt,test_cntdown_text.started,parent index,left child index,right child index,left distance,right distance,parent_image.started,top_image_text.started,left_child_image.started,right_child_image.started,path_resp.started,child_choice_text.started,left_choice_text.started,right_choice_text.started,path_resp.keys,path_resp.rt,graph.started,debrief_text.started,debriefing_title.started,demo_scr_adv.started,demo_scr_adv_keypress.started,demo_scr_adv_keypress.keys,demo_scr_adv_keypress.rt,text_countdown_2.started,participant,date,expName,psychopyVersion,frameRate,
,,,,,,,,,,,,,,,,"[[0. 1. 1. 2. 2. 3. 4. 5. 5. 6. 6. 7.]
 [1. 0. 2. 1. 1. 2. 3. 4. 4. 5. 5. 6.]
 [1. 2. 0. 1. 1. 2. 3. 4. 4. 5. 5. 6.]
 [2. 1. 1. 0. 1. 1. 2. 3. 3. 4. 4. 5.]
 [2. 1. 1. 1. 0. 1. 2. 3. 3. 4. 4. 5.]
 [3. 2. 2. 1. 1. 0. 1. 2. 2. 3. 3. 4.]
 [4. 3. 3. 2. 2. 1. 0. 1. 1. 2. 2. 3.]
 [5. 4. 4. 3. 3. 2. 1. 0. 1. 1. 1. 2.]
 [5. 4. 4. 3. 3. 2. 1. 1. 0. 1. 1. 2.]
 [6. 5. 5. 4. 4. 3. 2. 1. 1. 0. 2. 1.]
 [6. 5. 5. 4. 4. 3. 2. 1. 1. 2. 0. 1.]
 [7. 6. 6. 5. 5. 4. 3. 2. 2. 1. 1. 0.]]",[ 1  5  8  0 11  7  9 10  2  4  6  3],9.104136243229732,9.104136243229732,return,5.652781207463704,,,,,,,,,,,,,,,,,,,,,,,,,,,,,,,,,,,,,,,,,,,,,,,,,,,,,,,,,,,,,,,,,,,,,,,,,,,,,,,,,,,,,,,,,,997751,2023-05-16_15h06.53.556,eb_02psyexp,2022.2.4,99.93719535836568,
,,,,,,,,,,,,,,,,,,,,,,14.767760714166798,14.767760714166798,14.767760714166798,space,8.180177268688567,,,,,,,,,,,,,,,,,,,,,,,,,,,,,,,,,,,,,,,,,,,,,,,,,,,,,,,,,,,,,,,,,,,,,,,,,,,,,,,,,,,,,997751,2023-05-16_15h06.53.556,eb_02psyexp,2022.2.4,99.93719535836568,
,,,,,,,,,,,,,,,,,,,,,,,,,,,22.962704024626873,22.962704024626873,22.962704024626873,space,1.8172291117953137,,,,,,,,,,,,,,,,,,,,,,,,,,,,,,,,,,,,,,,,,,,,,,,,,,,,,,,,,,,,,,,,,,,,,,,,,,,,,,,,997751,2023-05-16_15h06.53.556,eb_02psyexp,2022.2.4,99.93719535836568,
,,,,,,,,,,,,,,,,,,,,,,,,,,,,,,,,24.793882989208214,24.793882989208214,24.793882989208214,space,5.2100614386145025,,,,,,,,,,,,,,,,,,,,,,,,,,,,,,,,,,,,,,,,,,,,,,,,,,,,,,,,,,,,,,,,,,,,,,,,,,,997751,2023-05-16_15h06.53.556,eb_02psyexp,2022.2.4,99.93719535836568,
,,,,,,,,,,,,,,,,,,,,,,,,,,,,,,,,,,,,,30.02724785520695,30.02724785520695,30.02724785520695,1,[9.135430331458338],[9.135436368407682],0,,,39.153122979565524,41.144396638846956,41.144396638846956,space,2.210657582618296,,,,,,,,,,,,,,,,,,,,,,,,,,,,,,,,,,,,,,,,,,,,,,,,,,,,,,,,,,,,,997751,2023-05-16_15h06.53.556,eb_02psyexp,2022.2.4,99.93719535836568,
,,,,,,,,,,,,,,,,,,,,,,,,,,,,,,,,,,,,,,,,,,,,,,,,,,,43.366143488674425,46.358073359238915,46.358073359238915,space,16.932085080305114,,,,,,,,,,,,,,,,,,,,,,,,,,,,,,,,,,,,,,,,,,,,,,,,,,,,,,,,997751,2023-05-16_15h06.53.556,eb_02psyexp,2022.2.4,99.93719535836568,
,,,,,,,,,,,,,,,,,,,,,,,,,,,,,,,,,,,,,,,,,,,,,,,,,,,,,,,,63.30898882506881,66.30088519083802,66.30088519083802,space,12.452362427604385,,,,,,,,,,,,,,,,,,,,,,,,,,,,,,,,,,,,,,,,,,,,,,,,,,,997751,2023-05-16_15h06.53.556,eb_02psyexp,2022.2.4,99.93719535836568,
0,0,0,0,,,,,,,,,,,,,,,,,,,,,,,,,,,,,,,,,,,,,,,,,,,,,,,,,,,,,,,,,,78.77891147427727,83.82217945414595,83.82217945414595,83.82217945414595,83.82217945414595,83.82217945414595,83.82217945414595,l,0,6.77814530802425,90.61623570229858,91.63689699652605,,,,,,,,,,,,,,,,,,,,,,,,,,,,,,,,,,,,,,,997751,2023-05-16_15h06.53.556,eb_02psyexp,2022.2.4,99.93719535836568,
1,0,1,0,,,,,,,,,,,,,,,,,,,,,,,,,,,,,,,,,,,,,,,,,,,,,,,,,,,,,,,,,,,91.63689699652605,91.63689699652605,91.63689699652605,91.63689699652605,91.63689699652605,91.63689699652605,l,1,1.6515466612763703,93.30796375928912,94.32862927927636,,,,,,,,,,,,,,,,,,,,,,,,,,,,,,,,,,,,,,,997751,2023-05-16_15h06.53.556,eb_02psyexp,2022.2.4,99.93719535836568,
2,0,2,0,,,,,,,,,,,,,,,,,,,,,,,,,,,,,,,,,,,,,,,,,,,,,,,,,,,,,,,,,,,94.32862927927636,94.32862927927636,94.32862927927636,94.32862927927636,94.32862927927636,94.32862927927636,l,1,0.8316980545641854,95.17914353276137,96.20982336625457,,,,,,,,,,,,,,,,,,,,,,,,,,,,,,,,,,,,,,,997751,2023-05-16_15h06.53.556,eb_02psyexp,2022.2.4,99.93719535836568,
3,0,3,0,,,,,,,,,,,,,,,,,,,,,,,,,,,,,,,,,,,,,,,,,,,,,,,,,,,,,,,,,,,96.20982336625457,96.20982336625457,96.20982336625457,96.20982336625457,96.20982336625457,96.20982336625457,l,1,1.0545276226475835,97.28052604349796,98.30118643213063,,,,,,,,,,,,,,,,,,,,,,,,,,,,,,,,,,,,,,,997751,2023-05-16_15h06.53.556,eb_02psyexp,2022.2.4,99.93719535836568,
4,0,4,0,,,,,,,,,,,,,,,,,,,,,,,,,,,,,,,,,,,,,,,,,,,,,,,,,,,,,,,,,,,98.30118643213063,98.30118643213063,98.30118643213063,98.30118643213063,98.30118643213063,98.30118643213063,s,1,0.7782316358061507,99.0916947935475,100.11241524945945,,,,,,,,,,,,,,,,,,,,,,,,,,,,,,,,,,,,,,,997751,2023-05-16_15h06.53.556,eb_02psyexp,2022.2.4,99.93719535836568,
5,0,5,0,,,,,,,,,,,,,,,,,,,,,,,,,,,,,,,,,,,,,,,,,,,,,,,,,,,,,,,,,,,100.11241524945945,100.11241524945945,100.11241524945945,100.11241524945945,100.11241524945945,100.11241524945945,l,1,0.822944849729538,100.95288470305968,101.98354914248921,,,,,,,,,,,,,,,,,,,,,,,,,,,,,,,,,,,,,,,997751,2023-05-16_15h06.53.556,eb_02psyexp,2022.2.4,99.93719535836568,
6,0,6,0,,,,,,,,,,,,,,,,,,,,,,,,,,,,,,,,,,,,,,,,,,,,,,,,,,,,,,,,,,,101.98354914248921,101.98354914248921,101.98354914248921,101.98354914248921,101.98354914248921,101.98354914248921,l,1,0.8638219148851931,102.86411629721988,103.88477789331228,,,,,,,,,,,,,,,,,,,,,,,,,,,,,,,,,,,,,,,997751,2023-05-16_15h06.53.556,eb_02psyexp,2022.2.4,99.93719535836568,
7,0,7,0,,,,,,,,,,,,,,,,,,,,,,,,,,,,,,,,,,,,,,,,,,,,,,,,,,,,,,,,,,,103.88477789331228,103.88477789331228,103.88477789331228,103.88477789331228,103.88477789331228,103.88477789331228,l,1,0.8106093477690592,104.70530172728468,105.72597026580479,,,,,,,,,,,,,,,,,,,,,,,,,,,,,,,,,,,,,,,997751,2023-05-16_15h06.53.556,eb_02psyexp,2022.2.4,99.93719535836568,
8,0,8,0,,,,,,,,,,,,,,,,,,,,,,,,,,,,,,,,,,,,,,,,,,,,,,,,,,,,,,,,,,,105.72597026580479,105.72597026580479,105.72597026580479,105.72597026580479,105.72597026580479,105.72597026580479,l,1,1.0094078233232722,106.74660801619757,107.77727275749203,,,,,,,,,,,,,,,,,,,,,,,,,,,,,,,,,,,,,,,997751,2023-05-16_15h06.53.556,eb_02psyexp,2022.2.4,99.93719535836568,
9,0,9,0,,,,,,,,,,,,,,,,,,,,,,,,,,,,,,,,,,,,,,,,,,,,,,,,,,,,,,,,,,,107.77727275749203,107.77727275749203,107.77727275749203,107.77727275749203,107.77727275749203,107.77727275749203,s,1,0.9901353182503954,108.77792504464742,109.80858525820076,,,,,,,,,,,,,,,,,,,,,,,,,,,,,,,,,,,,,,,997751,2023-05-16_15h06.53.556,eb_02psyexp,2022.2.4,99.93719535836568,
10,0,10,0,,,,,,,,,,,,,,,,,,,,,,,,,,,,,,,,,,,,,,,,,,,,,,,,,,,,,,,,,,,109.80858525820076,109.80858525820076,109.80858525820076,109.80858525820076,109.80858525820076,109.80858525820076,s,1,2.2068265652051196,112.0300139633473,113.05072023253888,,,,,,,,,,,,,,,,,,,,,,,,,,,,,,,,,,,,,,,997751,2023-05-16_15h06.53.556,eb_02psyexp,2022.2.4,99.93719535836568,
11,0,11,0,,,,,,,,,,,,,,,,,,,,,,,,,,,,,,,,,,,,,,,,,,,,,,,,,,,,,,,,,,,113.05072023253888,113.05072023253888,113.05072023253888,113.05072023253888,113.05072023253888,113.05072023253888,s,1,0.6207228475250304,113.69110776530579,114.72177099739201,,,,,,,,,,,,,,,,,,,,,,,,,,,,,,,,,,,,,,,997751,2023-05-16_15h06.53.556,eb_02psyexp,2022.2.4,99.93719535836568,
12,0,12,0,,,,,,,,,,,,,,,,,,,,,,,,,,,,,,,,,,,,,,,,,,,,,,,,,,,,,,,,,,,114.72177099739201,114.72177099739201,114.72177099739201,114.72177099739201,114.72177099739201,114.72177099739201,s,1,1.284668481675908,116.02259400812909,117.04324383230414,,,,,,,,,,,,,,,,,,,,,,,,,,,,,,,,,,,,,,,997751,2023-05-16_15h06.53.556,eb_02psyexp,2022.2.4,99.93719535836568,
13,0,13,0,,,,,,,,,,,,,,,,,,,,,,,,,,,,,,,,,,,,,,,,,,,,,,,,,,,,,,,,,,,117.04324383230414,117.04324383230414,117.04324383230414,117.04324383230414,117.04324383230414,117.04324383230414,s,1,0.6831920969998464,117.74369822978042,118.7743822891498,,,,,,,,,,,,,,,,,,,,,,,,,,,,,,,,,,,,,,,997751,2023-05-16_15h06.53.556,eb_02psyexp,2022.2.4,99.93719535836568,
14,0,14,0,,,,,,,,,,,,,,,,,,,,,,,,,,,,,,,,,,,,,,,,,,,,,,,,,,,,,,,,,,,118.7743822891498,118.7743822891498,118.7743822891498,118.7743822891498,118.7743822891498,118.7743822891498,s,1,0.608064673258923,119.39476383337751,,,,,,,,,,,,,,,,,,,,,,,,,,,,,,,,,,,,,,,,997751,2023-05-16_15h06.53.556,eb_02psyexp,2022.2.4,99.93719535836568,
15,0,15,0,,,,,,,,,,,,,,,,,,,,,,,,,,,,,,,,,,,,,,,,,,,,,,,,,,,,,,,,,,,120.41576228861231,120.41576228861231,120.41576228861231,120.41576228861231,120.41576228861231,120.41576228861231,s,1,0.5027216534363106,120.93609396799002,121.96642486867495,,,,,,,,,,,,,,,,,,,,,,,,,,,,,,,,,,,,,,,997751,2023-05-16_15h06.53.556,eb_02psyexp,2022.2.4,99.93719535836568,
16,0,16,0,,,,,,,,,,,,,,,,,,,,,,,,,,,,,,,,,,,,,,,,,,,,,,,,,,,,,,,,,,,121.96642486867495,121.96642486867495,121.96642486867495,121.96642486867495,121.96642486867495,121.96642486867495,s,1,0.4960683847311884,122.47676185448654,123.49742103577591,,,,,,,,,,,,,,,,,,,,,,,,,,,,,,,,,,,,,,,997751,2023-05-16_15h06.53.556,eb_02psyexp,2022.2.4,99.93719535836568,
17,0,17,0,,,,,,,,,,,,,,,,,,,,,,,,,,,,,,,,,,,,,,,,,,,,,,,,,,,,,,,,,,,123.49742103577591,123.49742103577591,123.49742103577591,123.49742103577591,123.49742103577591,123.49742103577591,l,1,0.6210663472302258,124.13783211261034,125.16848327079788,,,,,,,,,,,,,,,,,,,,,,,,,,,,,,,,,,,,,,,997751,2023-05-16_15h06.53.556,eb_02psyexp,2022.2.4,99.93719535836568,
18,0,18,0,,,,,,,,,,,,,,,,,,,,,,,,,,,,,,,,,,,,,,,,,,,,,,,,,,,,,,,,,,,125.16848327079788,125.16848327079788,125.16848327079788,125.16848327079788,125.16848327079788,125.16848327079788,s,1,0.6140007580397651,125.79888848576229,126.8196019991301,,,,,,,,,,,,,,,,,,,,,,,,,,,,,,,,,,,,,,,997751,2023-05-16_15h06.53.556,eb_02psyexp,2022.2.4,99.93719535836568,
19,0,19,0,,,,,,,,,,,,,,,,,,,,,,,,,,,,,,,,,,,,,,,,,,,,,,,,,,,,,,,,,,,126.8196019991301,126.8196019991301,126.8196019991301,126.8196019991301,126.8196019991301,126.8196019991301,l,1,0.8029116950929165,127.64009051735047,128.67074741062243,,,,,,,,,,,,,,,,,,,,,,,,,,,,,,,,,,,,,,,997751,2023-05-16_15h06.53.556,eb_02psyexp,2022.2.4,99.93719535836568,
20,0,20,0,,,,,,,,,,,,,,,,,,,,,,,,,,,,,,,,,,,,,,,,,,,,,,,,,,,,,,,,,,,128.67074741062243,128.67074741062243,128.67074741062243,128.67074741062243,128.67074741062243,128.67074741062243,s,1,0.48777519166469574,129.17106917744968,130.2017390500987,,,,,,,,,,,,,,,,,,,,,,,,,,,,,,,,,,,,,,,997751,2023-05-16_15h06.53.556,eb_02psyexp,2022.2.4,99.93719535836568,
21,0,21,0,,,,,,,,,,,,,,,,,,,,,,,,,,,,,,,,,,,,,,,,,,,,,,,,,,,,,,,,,,,130.2017390500987,130.2017390500987,130.2017390500987,130.2017390500987,130.2017390500987,130.2017390500987,s,1,0.6837698285235092,130.90218409046065,131.93285124655813,,,,,,,,,,,,,,,,,,,,,,,,,,,,,,,,,,,,,,,997751,2023-05-16_15h06.53.556,eb_02psyexp,2022.2.4,99.93719535836568,
22,0,22,0,,,,,,,,,,,,,,,,,,,,,,,,,,,,,,,,,,,,,,,,,,,,,,,,,,,,,,,,,,,131.93285124655813,131.93285124655813,131.93285124655813,131.93285124655813,131.93285124655813,131.93285124655813,s,1,0.4966922984458506,132.44317947886884,133.4638416786911,,,,,,,,,,,,,,,,,,,,,,,,,,,,,,,,,,,,,,,997751,2023-05-16_15h06.53.556,eb_02psyexp,2022.2.4,99.93719535836568,
23,0,23,0,,,,,,,,,,,,,,,,,,,,,,,,,,,,,,,,,,,,,,,,,,,,,,,,,,,,,,,,,,,133.4638416786911,133.4638416786911,133.4638416786911,133.4638416786911,133.4638416786911,133.4638416786911,l,1,0.7897071811603382,134.26435469451826,135.29502396343742,,,,,,,,,,,,,,,,,,,,,,,,,,,,,,,,,,,,,,,997751,2023-05-16_15h06.53.556,eb_02psyexp,2022.2.4,99.93719535836568,
24,0,24,0,,,,,,,,,,,,,,,,,,,,,,,,,,,,,,,,,,,,,,,,,,,,,,,,,,,,,,,,,,,135.29502396343742,135.29502396343742,135.29502396343742,135.29502396343742,135.29502396343742,135.29502396343742,s,1,1.1105376897612587,136.41574055573437,137.43645346548874,,,,,,,,,,,,,,,,,,,,,,,,,,,,,,,,,,,,,,,997751,2023-05-16_15h06.53.556,eb_02psyexp,2022.2.4,99.93719535836568,
25,0,25,0,,,,,,,,,,,,,,,,,,,,,,,,,,,,,,,,,,,,,,,,,,,,,,,,,,,,,,,,,,,137.43645346548874,137.43645346548874,137.43645346548874,137.43645346548874,137.43645346548874,137.43645346548874,l,1,0.8331022377824411,138.2869480989175,139.317617669818,,,,,,,,,,,,,,,,,,,,,,,,,,,,,,,,,,,,,,,997751,2023-05-16_15h06.53.556,eb_02psyexp,2022.2.4,99.93719535836568,
26,0,26,0,,,,,,,,,,,,,,,,,,,,,,,,,,,,,,,,,,,,,,,,,,,,,,,,,,,,,,,,,,,139.317617669818,139.317617669818,139.317617669818,139.317617669818,139.317617669818,139.317617669818,l,1,1.9199919599341229,141.24885947839357,142.2695865748683,,,,,,,,,,,,,,,,,,,,,,,,,,,,,,,,,,,,,,,997751,2023-05-16_15h06.53.556,eb_02psyexp,2022.2.4,99.93719535836568,
27,0,27,0,,,,,,,,,,,,,,,,,,,,,,,,,,,,,,,,,,,,,,,,,,,,,,,,,,,,,,,,,,,142.2695865748683,142.2695865748683,142.2695865748683,142.2695865748683,142.2695865748683,142.2695865748683,l,1,2.544011944439262,144.83115874091163,145.86183857452124,,,,,,,,,,,,,,,,,,,,,,,,,,,,,,,,,,,,,,,997751,2023-05-16_15h06.53.556,eb_02psyexp,2022.2.4,99.93719535836568,
28,0,28,0,,,,,,,,,,,,,,,,,,,,,,,,,,,,,,,,,,,,,,,,,,,,,,,,,,,,,,,,,,,145.86183857452124,145.86183857452124,145.86183857452124,145.86183857452124,145.86183857452124,145.86183857452124,l,1,0.7587813439313322,146.63232826977037,147.6529747735476,,,,,,,,,,,,,,,,,,,,,,,,,,,,,,,,,,,,,,,997751,2023-05-16_15h06.53.556,eb_02psyexp,2022.2.4,99.93719535836568,
29,0,29,0,,,,,,,,,,,,,,,,,,,,,,,,,,,,,,,,,,,,,,,,,,,,,,,,,,,,,,,,,,,147.6529747735476,147.6529747735476,147.6529747735476,147.6529747735476,147.6529747735476,147.6529747735476,s,1,0.9836541010299698,148.6536663005827,149.67430525831878,,,,,,,,,,,,,,,,,,,,,,,,,,,,,,,,,,,,,,,997751,2023-05-16_15h06.53.556,eb_02psyexp,2022.2.4,99.93719535836568,
30,0,30,0,,,,,,,,,,,,,,,,,,,,,,,,,,,,,,,,,,,,,,,,,,,,,,,,,,,,,,,,,,,149.67430525831878,149.67430525831878,149.67430525831878,149.67430525831878,149.67430525831878,149.67430525831878,l,1,0.8663450377061963,150.5548648670083,151.57552978338208,,,,,,,,,,,,,,,,,,,,,,,,,,,,,,,,,,,,,,,997751,2023-05-16_15h06.53.556,eb_02psyexp,2022.2.4,99.93719535836568,
31,0,31,0,,,,,,,,,,,,,,,,,,,,,,,,,,,,,,,,,,,,,,,,,,,,,,,,,,,,,,,,,,,151.57552978338208,151.57552978338208,151.57552978338208,151.57552978338208,151.57552978338208,151.57552978338208,s,1,1.381152952555567,152.97642891935539,153.99708478047978,,,,,,,,,,,,,,,,,,,,,,,,,,,,,,,,,,,,,,,997751,2023-05-16_15h06.53.556,eb_02psyexp,2022.2.4,99.93719535836568,
32,0,32,0,,,,,,,,,,,,,,,,,,,,,,,,,,,,,,,,,,,,,,,,,,,,,,,,,,,,,,,,,,,153.99708478047978,153.99708478047978,153.99708478047978,153.99708478047978,153.99708478047978,153.99708478047978,l,1,1.4955833195708692,155.5080607723212,156.52871784067247,,,,,,,,,,,,,,,,,,,,,,,,,,,,,,,,,,,,,,,997751,2023-05-16_15h06.53.556,eb_02psyexp,2022.2.4,99.93719535836568,
33,0,33,0,,,,,,,,,,,,,,,,,,,,,,,,,,,,,,,,,,,,,,,,,,,,,,,,,,,,,,,,,,,156.52871784067247,156.52871784067247,156.52871784067247,156.52871784067247,156.52871784067247,156.52871784067247,s,1,0.7639751918613911,157.30922184942756,158.32992510020267,,,,,,,,,,,,,,,,,,,,,,,,,,,,,,,,,,,,,,,997751,2023-05-16_15h06.53.556,eb_02psyexp,2022.2.4,99.93719535836568,
34,0,34,0,,,,,,,,,,,,,,,,,,,,,,,,,,,,,,,,,,,,,,,,,,,,,,,,,,,,,,,,,,,158.32992510020267,158.32992510020267,158.32992510020267,158.32992510020267,158.32992510020267,158.32992510020267,l,1,1.4107899114023894,159.750782231451,160.7714537883876,,,,,,,,,,,,,,,,,,,,,,,,,,,,,,,,,,,,,,,997751,2023-05-16_15h06.53.556,eb_02psyexp,2022.2.4,99.93719535836568,
35,0,35,0,,,,,,,,,,,,,,,,,,,,,,,,,,,,,,,,,,,,,,,,,,,,,,,,,,,,,,,,,,,160.7714537883876,160.7714537883876,160.7714537883876,160.7714537883876,160.7714537883876,160.7714537883876,l,1,1.6802584648830816,162.4625380098587,163.49320154380985,,,,,,,,,,,,,,,,,,,,,,,,,,,,,,,,,,,,,,,997751,2023-05-16_15h06.53.556,eb_02psyexp,2022.2.4,99.93719535836568,
36,0,36,0,,,,,,,,,,,,,,,,,,,,,,,,,,,,,,,,,,,,,,,,,,,,,,,,,,,,,,,,,,,163.49320154380985,163.49320154380985,163.49320154380985,163.49320154380985,163.49320154380985,163.49320154380985,s,1,0.7585211533587426,164.26371568848845,165.2843633997254,,,,,,,,,,,,,,,,,,,,,,,,,,,,,,,,,,,,,,,997751,2023-05-16_15h06.53.556,eb_02psyexp,2022.2.4,99.93719535836568,
37,0,37,0,,,,,,,,,,,,,,,,,,,,,,,,,,,,,,,,,,,,,,,,,,,,,,,,,,,,,,,,,,,165.2843633997254,165.2843633997254,165.2843633997254,165.2843633997254,165.2843633997254,165.2843633997254,l,1,0.6393635908607394,165.93477309402078,166.95544434909243,,,,,,,,,,,,,,,,,,,,,,,,,,,,,,,,,,,,,,,997751,2023-05-16_15h06.53.556,eb_02psyexp,2022.2.4,99.93719535836568,
38,0,38,0,,,,,,,,,,,,,,,,,,,,,,,,,,,,,,,,,,,,,,,,,,,,,,,,,,,,,,,,,,,166.95544434909243,166.95544434909243,166.95544434909243,166.95544434909243,166.95544434909243,166.95544434909243,s,1,0.8723061757627875,167.8460058956407,168.86667835817207,,,,,,,,,,,,,,,,,,,,,,,,,,,,,,,,,,,,,,,997751,2023-05-16_15h06.53.556,eb_02psyexp,2022.2.4,99.93719535836568,
39,0,39,0,,,,,,,,,,,,,,,,,,,,,,,,,,,,,,,,,,,,,,,,,,,,,,,,,,,,,,,,,,,168.86667835817207,168.86667835817207,168.86667835817207,168.86667835817207,168.86667835817207,168.86667835817207,l,1,0.7690585644450039,169.64719534630422,170.66789105080534,,,,,,,,,,,,,,,,,,,,,,,,,,,,,,,,,,,,,,,997751,2023-05-16_15h06.53.556,eb_02psyexp,2022.2.4,99.93719535836568,
40,0,40,0,,,,,,,,,,,,,,,,,,,,,,,,,,,,,,,,,,,,,,,,,,,,,,,,,,,,,,,,,,,170.66789105080534,170.66789105080534,170.66789105080534,170.66789105080534,170.66789105080534,170.66789105080534,l,1,0.7758832811377943,171.4583477966953,172.48900469008368,,,,,,,,,,,,,,,,,,,,,,,,,,,,,,,,,,,,,,,997751,2023-05-16_15h06.53.556,eb_02psyexp,2022.2.4,99.93719535836568,
41,0,41,0,,,,,,,,,,,,,,,,,,,,,,,,,,,,,,,,,,,,,,,,,,,,,,,,,,,,,,,,,,,172.48900469008368,172.48900469008368,172.48900469008368,172.48900469008368,172.48900469008368,172.48900469008368,s,1,0.8267342125764117,173.32954085140955,174.35021271021105,,,,,,,,,,,,,,,,,,,,,,,,,,,,,,,,,,,,,,,997751,2023-05-16_15h06.53.556,eb_02psyexp,2022.2.4,99.93719535836568,
42,0,42,0,,,,,,,,,,,,,,,,,,,,,,,,,,,,,,,,,,,,,,,,,,,,,,,,,,,,,,,,,,,174.35021271021105,174.35021271021105,174.35021271021105,174.35021271021105,174.35021271021105,174.35021271021105,l,1,1.4855777596822008,175.8511843495071,176.87184262520168,,,,,,,,,,,,,,,,,,,,,,,,,,,,,,,,,,,,,,,997751,2023-05-16_15h06.53.556,eb_02psyexp,2022.2.4,99.93719535836568,
43,0,43,0,,,,,,,,,,,,,,,,,,,,,,,,,,,,,,,,,,,,,,,,,,,,,,,,,,,,,,,,,,,176.87184262520168,176.87184262520168,176.87184262520168,176.87184262520168,176.87184262520168,176.87184262520168,l,1,0.6909359320998192,177.58230137533974,178.60294848284684,,,,,,,,,,,,,,,,,,,,,,,,,,,,,,,,,,,,,,,997751,2023-05-16_15h06.53.556,eb_02psyexp,2022.2.4,99.93719535836568,
44,0,44,0,,,,,,,,,,,,,,,,,,,,,,,,,,,,,,,,,,,,,,,,,,,,,,,,,,,,,,,,,,,178.60294848284684,178.60294848284684,178.60294848284684,178.60294848284684,178.60294848284684,178.60294848284684,s,1,1.0398739506490529,179.65363641793374,180.68430236668792,,,,,,,,,,,,,,,,,,,,,,,,,,,,,,,,,,,,,,,997751,2023-05-16_15h06.53.556,eb_02psyexp,2022.2.4,99.93719535836568,
45,0,45,0,,,,,,,,,,,,,,,,,,,,,,,,,,,,,,,,,,,,,,,,,,,,,,,,,,,,,,,,,,,180.68430236668792,180.68430236668792,180.68430236668792,180.68430236668792,180.68430236668792,180.68430236668792,l,1,1.2944998770253733,181.99514180375263,183.01585229870398,,,,,,,,,,,,,,,,,,,,,,,,,,,,,,,,,,,,,,,997751,2023-05-16_15h06.53.556,eb_02psyexp,2022.2.4,99.93719535836568,
46,0,46,0,,,,,,,,,,,,,,,,,,,,,,,,,,,,,,,,,,,,,,,,,,,,,,,,,,,,,,,,,,,183.01585229870398,183.01585229870398,183.01585229870398,183.01585229870398,183.01585229870398,183.01585229870398,l,1,1.2989837853237987,184.32664827024564,185.3573096912587,,,,,,,,,,,,,,,,,,,,,,,,,,,,,,,,,,,,,,,997751,2023-05-16_15h06.53.556,eb_02psyexp,2022.2.4,99.93719535836568,
47,0,47,0,,,,,,,,,,,,,,,,,,,,,,,,,,,,,,,,,,,,,,,,,,,,,,,,,,,,,,,,,,,185.3573096912587,185.3573096912587,185.3573096912587,185.3573096912587,185.3573096912587,185.3573096912587,l,1,0.7095350207528099,186.07777400140185,187.09843771031592,,,,,,,,,,,,,,,,,,,,,,,,,,,,,,,,,,,,,,,997751,2023-05-16_15h06.53.556,eb_02psyexp,2022.2.4,99.93719535836568,
48,0,48,0,,,,,,,,,,,,,,,,,,,,,,,,,,,,,,,,,,,,,,,,,,,,,,,,,,,,,,,,,,,187.09843771031592,187.09843771031592,187.09843771031592,187.09843771031592,187.09843771031592,187.09843771031592,s,1,1.0643949374789372,188.17912844044622,189.1998045251239,,,,,,,,,,,,,,,,,,,,,,,,,,,,,,,,,,,,,,,997751,2023-05-16_15h06.53.556,eb_02psyexp,2022.2.4,99.93719535836568,
49,0,49,0,,,,,,,,,,,,,,,,,,,,,,,,,,,,,,,,,,,,,,,,,,,,,,,,,,,,,,,,,,,189.1998045251239,189.1998045251239,189.1998045251239,189.1998045251239,189.1998045251239,189.1998045251239,l,1,1.0511318657081574,190.27048788429238,191.29114344343543,,,,,,,,,,,,,,,,,,,,,,,,,,,,,,,,,,,,,,,997751,2023-05-16_15h06.53.556,eb_02psyexp,2022.2.4,99.93719535836568,
50,0,50,0,,,,,,,,,,,,,,,,,,,,,,,,,,,,,,,,,,,,,,,,,,,,,,,,,,,,,,,,,,,191.29114344343543,191.29114344343543,191.29114344343543,191.29114344343543,191.29114344343543,191.29114344343543,s,1,0.7837424209574237,192.09166370355524,193.12232542643324,,,,,,,,,,,,,,,,,,,,,,,,,,,,,,,,,,,,,,,997751,2023-05-16_15h06.53.556,eb_02psyexp,2022.2.4,99.93719535836568,
51,0,51,0,,,,,,,,,,,,,,,,,,,,,,,,,,,,,,,,,,,,,,,,,,,,,,,,,,,,,,,,,,,193.12232542643324,193.12232542643324,193.12232542643324,193.12232542643324,193.12232542643324,193.12232542643324,s,1,0.6955514447763562,193.83279262820724,194.8634471067926,,,,,,,,,,,,,,,,,,,,,,,,,,,,,,,,,,,,,,,997751,2023-05-16_15h06.53.556,eb_02psyexp,2022.2.4,99.93719535836568,
52,0,52,0,,,,,,,,,,,,,,,,,,,,,,,,,,,,,,,,,,,,,,,,,,,,,,,,,,,,,,,,,,,194.8634471067926,194.8634471067926,194.8634471067926,194.8634471067926,194.8634471067926,194.8634471067926,s,1,1.1064552352763712,195.9841754710069,197.00483223749325,,,,,,,,,,,,,,,,,,,,,,,,,,,,,,,,,,,,,,,997751,2023-05-16_15h06.53.556,eb_02psyexp,2022.2.4,99.93719535836568,
53,0,53,0,,,,,,,,,,,,,,,,,,,,,,,,,,,,,,,,,,,,,,,,,,,,,,,,,,,,,,,,,,,197.00483223749325,197.00483223749325,197.00483223749325,197.00483223749325,197.00483223749325,197.00483223749325,l,1,0.7250706842169166,197.74531098792795,198.76602419954725,,,,,,,,,,,,,,,,,,,,,,,,,,,,,,,,,,,,,,,997751,2023-05-16_15h06.53.556,eb_02psyexp,2022.2.4,99.93719535836568,
54,0,54,0,,,,,,,,,,,,,,,,,,,,,,,,,,,,,,,,,,,,,,,,,,,,,,,,,,,,,,,,,,,198.76602419954725,198.76602419954725,198.76602419954725,198.76602419954725,198.76602419954725,198.76602419954725,l,1,1.6518971032928675,200.43703059316613,201.46771072864067,,,,,,,,,,,,,,,,,,,,,,,,,,,,,,,,,,,,,,,997751,2023-05-16_15h06.53.556,eb_02psyexp,2022.2.4,99.93719535836568,
55,0,55,0,,,,,,,,,,,,,,,,,,,,,,,,,,,,,,,,,,,,,,,,,,,,,,,,,,,,,,,,,,,201.46771072864067,201.46771072864067,201.46771072864067,201.46771072864067,201.46771072864067,201.46771072864067,l,1,1.2062240823870525,202.6884937870782,203.7091499499511,,,,,,,,,,,,,,,,,,,,,,,,,,,,,,,,,,,,,,,997751,2023-05-16_15h06.53.556,eb_02psyexp,2022.2.4,99.93719535836568,
56,0,56,0,,,,,,,,,,,,,,,,,,,,,,,,,,,,,,,,,,,,,,,,,,,,,,,,,,,,,,,,,,,203.7091499499511,203.7091499499511,203.7091499499511,203.7091499499511,203.7091499499511,203.7091499499511,l,1,0.8208047682419419,204.54970452387352,205.5803605116671,,,,,,,,,,,,,,,,,,,,,,,,,,,,,,,,,,,,,,,997751,2023-05-16_15h06.53.556,eb_02psyexp,2022.2.4,99.93719535836568,
57,0,57,0,,,,,,,,,,,,,,,,,,,,,,,,,,,,,,,,,,,,,,,,,,,,,,,,,,,,,,,,,,,205.5803605116671,205.5803605116671,205.5803605116671,205.5803605116671,205.5803605116671,205.5803605116671,s,1,0.6606865295907483,206.2607947338838,207.28146055573598,,,,,,,,,,,,,,,,,,,,,,,,,,,,,,,,,,,,,,,997751,2023-05-16_15h06.53.556,eb_02psyexp,2022.2.4,99.93719535836568,
58,0,58,0,,,,,,,,,,,,,,,,,,,,,,,,,,,,,,,,,,,,,,,,,,,,,,,,,,,,,,,,,,,207.28146055573598,207.28146055573598,207.28146055573598,207.28146055573598,207.28146055573598,207.28146055573598,l,1,0.7675203620456159,208.0619624516694,209.08262706617825,,,,,,,,,,,,,,,,,,,,,,,,,,,,,,,,,,,,,,,997751,2023-05-16_15h06.53.556,eb_02psyexp,2022.2.4,99.93719535836568,
59,0,59,0,,,,,,,,,,,,,,,,,,,,,,,,,,,,,,,,,,,,,,,,,,,,,,,,,,,,,,,,,,,209.08262706617825,209.08262706617825,209.08262706617825,209.08262706617825,209.08262706617825,209.08262706617825,l,1,0.670353721245192,209.7630999245448,210.79372180392966,,,,,,,,,,,,,,,,,,,,,,,,,,,,,,,,,,,,,,,997751,2023-05-16_15h06.53.556,eb_02psyexp,2022.2.4,99.93719535836568,
60,0,60,0,,,,,,,,,,,,,,,,,,,,,,,,,,,,,,,,,,,,,,,,,,,,,,,,,,,,,,,,,,,210.79372180392966,210.79372180392966,210.79372180392966,210.79372180392966,210.79372180392966,210.79372180392966,s,1,0.6712806874420494,211.48417728208005,212.51483870309312,,,,,,,,,,,,,,,,,,,,,,,,,,,,,,,,,,,,,,,997751,2023-05-16_15h06.53.556,eb_02psyexp,2022.2.4,99.93719535836568,
61,0,61,0,,,,,,,,,,,,,,,,,,,,,,,,,,,,,,,,,,,,,,,,,,,,,,,,,,,,,,,,,,,212.51483870309312,212.51483870309312,212.51483870309312,212.51483870309312,212.51483870309312,212.51483870309312,s,1,0.6061552013270557,213.13523624511436,214.16590098640881,,,,,,,,,,,,,,,,,,,,,,,,,,,,,,,,,,,,,,,997751,2023-05-16_15h06.53.556,eb_02psyexp,2022.2.4,99.93719535836568,
62,0,62,0,,,,,,,,,,,,,,,,,,,,,,,,,,,,,,,,,,,,,,,,,,,,,,,,,,,,,,,,,,,214.16590098640881,214.16590098640881,214.16590098640881,214.16590098640881,214.16590098640881,214.16590098640881,s,1,0.6111048565944657,214.79631586035248,215.81701579072978,,,,,,,,,,,,,,,,,,,,,,,,,,,,,,,,,,,,,,,997751,2023-05-16_15h06.53.556,eb_02psyexp,2022.2.4,99.93719535836568,
63,0,63,0,,,,,,,,,,,,,,,,,,,,,,,,,,,,,,,,,,,,,,,,,,,,,,,,,,,,,,,,,,,215.81701579072978,215.81701579072978,215.81701579072978,215.81701579072978,215.81701579072978,215.81701579072978,s,1,1.9440052434802055,217.77823685051408,218.80889464938082,,,,,,,,,,,,,,,,,,,,,,,,,,,,,,,,,,,,,,,997751,2023-05-16_15h06.53.556,eb_02psyexp,2022.2.4,99.93719535836568,
64,0,64,0,,,,,,,,,,,,,,,,,,,,,,,,,,,,,,,,,,,,,,,,,,,,,,,,,,,,,,,,,,,218.80889464938082,218.80889464938082,218.80889464938082,218.80889464938082,218.80889464938082,218.80889464938082,s,1,0.6321428534574807,219.45932486921083,220.4900053064339,,,,,,,,,,,,,,,,,,,,,,,,,,,,,,,,,,,,,,,997751,2023-05-16_15h06.53.556,eb_02psyexp,2022.2.4,99.93719535836568,
65,0,65,0,,,,,,,,,,,,,,,,,,,,,,,,,,,,,,,,,,,,,,,,,,,,,,,,,,,,,,,,,,,220.4900053064339,220.4900053064339,220.4900053064339,220.4900053064339,220.4900053064339,220.4900053064339,s,1,0.9990382381947711,221.50064323178958,222.52130090387072,,,,,,,,,,,,,,,,,,,,,,,,,,,,,,,,,,,,,,,997751,2023-05-16_15h06.53.556,eb_02psyexp,2022.2.4,99.93719535836568,
66,0,66,0,,,,,,,,,,,,,,,,,,,,,,,,,,,,,,,,,,,,,,,,,,,,,,,,,,,,,,,,,,,222.52130090387072,222.52130090387072,222.52130090387072,222.52130090387072,222.52130090387072,222.52130090387072,l,1,1.622739172540605,224.16235460876487,225.1930380645208,,,,,,,,,,,,,,,,,,,,,,,,,,,,,,,,,,,,,,,997751,2023-05-16_15h06.53.556,eb_02psyexp,2022.2.4,99.93719535836568,
67,0,67,0,,,,,,,,,,,,,,,,,,,,,,,,,,,,,,,,,,,,,,,,,,,,,,,,,,,,,,,,,,,225.1930380645208,225.1930380645208,225.1930380645208,225.1930380645208,225.1930380645208,225.1930380645208,s,1,0.7990109514212236,226.0035349074751,227.02420374786016,,,,,,,,,,,,,,,,,,,,,,,,,,,,,,,,,,,,,,,997751,2023-05-16_15h06.53.556,eb_02psyexp,2022.2.4,99.93719535836568,
68,0,68,0,,,,,,,,,,,,,,,,,,,,,,,,,,,,,,,,,,,,,,,,,,,,,,,,,,,,,,,,,,,227.02420374786016,227.02420374786016,227.02420374786016,227.02420374786016,227.02420374786016,227.02420374786016,l,1,0.9518948695622385,227.9948281868128,229.01549280132167,,,,,,,,,,,,,,,,,,,,,,,,,,,,,,,,,,,,,,,997751,2023-05-16_15h06.53.556,eb_02psyexp,2022.2.4,99.93719535836568,
69,0,69,0,,,,,,,,,,,,,,,,,,,,,,,,,,,,,,,,,,,,,,,,,,,,,,,,,,,,,,,,,,,229.01549280132167,229.01549280132167,229.01549280132167,229.01549280132167,229.01549280132167,229.01549280132167,l,1,1.2645951815648004,230.2963215954369,231.3169777581934,,,,,,,,,,,,,,,,,,,,,,,,,,,,,,,,,,,,,,,997751,2023-05-16_15h06.53.556,eb_02psyexp,2022.2.4,99.93719535836568,
70,0,70,0,,,,,,,,,,,,,,,,,,,,,,,,,,,,,,,,,,,,,,,,,,,,,,,,,,,,,,,,,,,231.3169777581934,231.3169777581934,231.3169777581934,231.3169777581934,231.3169777581934,231.3169777581934,l,1,0.9470976460725069,232.27758546895348,233.29832011146937,,,,,,,,,,,,,,,,,,,,,,,,,,,,,,,,,,,,,,,997751,2023-05-16_15h06.53.556,eb_02psyexp,2022.2.4,99.93719535836568,
71,0,71,0,,,,,,,,,,,,,,,,,,,,,,,,,,,,,,,,,,,,,,,,,,,,,,,,,,,,,,,,,,,233.29832011146937,233.29832011146937,233.29832011146937,233.29832011146937,233.29832011146937,233.29832011146937,l,1,1.4858150099171326,234.79923983337358,235.81988573353738,,,,,,,,,,,,,,,,,,,,,,,,,,,,,,,,,,,,,,,997751,2023-05-16_15h06.53.556,eb_02psyexp,2022.2.4,99.93719535836568,
72,0,72,0,,,,,,,,,,,,,,,,,,,,,,,,,,,,,,,,,,,,,,,,,,,,,,,,,,,,,,,,,,,235.81988573353738,235.81988573353738,235.81988573353738,235.81988573353738,235.81988573353738,235.81988573353738,l,1,0.8202469586394727,236.6504178440664,237.68109465925954,,,,,,,,,,,,,,,,,,,,,,,,,,,,,,,,,,,,,,,997751,2023-05-16_15h06.53.556,eb_02psyexp,2022.2.4,99.93719535836568,
73,0,73,0,,,,,,,,,,,,,,,,,,,,,,,,,,,,,,,,,,,,,,,,,,,,,,,,,,,,,,,,,,,237.68109465925954,237.68109465925954,237.68109465925954,237.68109465925954,237.68109465925954,237.68109465925954,s,1,0.7110240224283189,238.411544607603,239.44224074075464,,,,,,,,,,,,,,,,,,,,,,,,,,,,,,,,,,,,,,,997751,2023-05-16_15h06.53.556,eb_02psyexp,2022.2.4,99.93719535836568,
74,0,74,0,,,,,,,,,,,,,,,,,,,,,,,,,,,,,,,,,,,,,,,,,,,,,,,,,,,,,,,,,,,239.44224074075464,239.44224074075464,239.44224074075464,239.44224074075464,239.44224074075464,239.44224074075464,l,1,1.4369318063836545,240.89316496008541,241.91381901013665,,,,,,,,,,,,,,,,,,,,,,,,,,,,,,,,,,,,,,,997751,2023-05-16_15h06.53.556,eb_02psyexp,2022.2.4,99.93719535836568,
75,0,75,0,,,,,,,,,,,,,,,,,,,,,,,,,,,,,,,,,,,,,,,,,,,,,,,,,,,,,,,,,,,241.91381901013665,241.91381901013665,241.91381901013665,241.91381901013665,241.91381901013665,241.91381901013665,l,1,0.8373482922324911,242.764369786717,243.79503543360624,,,,,,,,,,,,,,,,,,,,,,,,,,,,,,,,,,,,,,,997751,2023-05-16_15h06.53.556,eb_02psyexp,2022.2.4,99.93719535836568,
76,0,76,0,,,,,,,,,,,,,,,,,,,,,,,,,,,,,,,,,,,,,,,,,,,,,,,,,,,,,,,,,,,243.79503543360624,243.79503543360624,243.79503543360624,243.79503543360624,243.79503543360624,243.79503543360624,s,1,0.8521722048753873,244.66559250070713,245.69627142872196,,,,,,,,,,,,,,,,,,,,,,,,,,,,,,,,,,,,,,,997751,2023-05-16_15h06.53.556,eb_02psyexp,2022.2.4,99.93719535836568,
77,0,77,0,,,,,,,,,,,,,,,,,,,,,,,,,,,,,,,,,,,,,,,,,,,,,,,,,,,,,,,,,,,245.69627142872196,245.69627142872196,245.69627142872196,245.69627142872196,245.69627142872196,245.69627142872196,s,1,0.6549104225123301,246.3667046186747,247.38734931137878,,,,,,,,,,,,,,,,,,,,,,,,,,,,,,,,,,,,,,,997751,2023-05-16_15h06.53.556,eb_02psyexp,2022.2.4,99.93719535836568,
78,0,78,0,,,,,,,,,,,,,,,,,,,,,,,,,,,,,,,,,,,,,,,,,,,,,,,,,,,,,,,,,,,247.38734931137878,247.38734931137878,247.38734931137878,247.38734931137878,247.38734931137878,247.38734931137878,l,1,0.9638575930148363,248.36799168598372,249.3886913144961,,,,,,,,,,,,,,,,,,,,,,,,,,,,,,,,,,,,,,,997751,2023-05-16_15h06.53.556,eb_02psyexp,2022.2.4,99.93719535836568,
79,0,79,0,,,,,,,,,,,,,,,,,,,,,,,,,,,,,,,,,,,,,,,,,,,,,,,,,,,,,,,,,,,249.3886913144961,249.3886913144961,249.3886913144961,249.3886913144961,249.3886913144961,249.3886913144961,l,1,0.8585761496797204,250.2592115565203,251.28987509047147,,,,,,,,,,,,,,,,,,,,,,,,,,,,,,,,,,,,,,,997751,2023-05-16_15h06.53.556,eb_02psyexp,2022.2.4,99.93719535836568,
80,0,80,0,,,,,,,,,,,,,,,,,,,,,,,,,,,,,,,,,,,,,,,,,,,,,,,,,,,,,,,,,,,251.28987509047147,251.28987509047147,251.28987509047147,251.28987509047147,251.28987509047147,251.28987509047147,l,1,0.8853528246982023,252.19045698735863,253.21111254650168,,,,,,,,,,,,,,,,,,,,,,,,,,,,,,,,,,,,,,,997751,2023-05-16_15h06.53.556,eb_02psyexp,2022.2.4,99.93719535836568,
81,0,81,0,,,,,,,,,,,,,,,,,,,,,,,,,,,,,,,,,,,,,,,,,,,,,,,,,,,,,,,,,,,253.21111254650168,253.21111254650168,253.21111254650168,253.21111254650168,253.21111254650168,253.21111254650168,s,1,0.69911895156838,253.92156888195314,254.95223966019694,,,,,,,,,,,,,,,,,,,,,,,,,,,,,,,,,,,,,,,997751,2023-05-16_15h06.53.556,eb_02psyexp,2022.2.4,99.93719535836568,
82,0,82,0,,,,,,,,,,,,,,,,,,,,,,,,,,,,,,,,,,,,,,,,,,,,,,,,,,,,,,,,,,,254.95223966019694,254.95223966019694,254.95223966019694,254.95223966019694,254.95223966019694,254.95223966019694,s,1,1.2540133993607014,256.2230746662244,257.2437000408536,,,,,,,,,,,,,,,,,,,,,,,,,,,,,,,,,,,,,,,997751,2023-05-16_15h06.53.556,eb_02psyexp,2022.2.4,99.93719535836568,
83,0,83,0,,,,,,,,,,,,,,,,,,,,,,,,,,,,,,,,,,,,,,,,,,,,,,,,,,,,,,,,,,,257.2437000408536,257.2437000408536,257.2437000408536,257.2437000408536,257.2437000408536,257.2437000408536,s,1,0.8185638706199825,258.0742478474276,259.0949118582066,,,,,,,,,,,,,,,,,,,,,,,,,,,,,,,,,,,,,,,997751,2023-05-16_15h06.53.556,eb_02psyexp,2022.2.4,99.93719535836568,
84,0,84,0,,,,,,,,,,,,,,,,,,,,,,,,,,,,,,,,,,,,,,,,,,,,,,,,,,,,,,,,,,,259.0949118582066,259.0949118582066,259.0949118582066,259.0949118582066,259.0949118582066,259.0949118582066,l,1,0.7753324140794575,259.8853797724005,260.9060833249241,,,,,,,,,,,,,,,,,,,,,,,,,,,,,,,,,,,,,,,997751,2023-05-16_15h06.53.556,eb_02psyexp,2022.2.4,99.93719535836568,
85,0,85,0,,,,,,,,,,,,,,,,,,,,,,,,,,,,,,,,,,,,,,,,,,,,,,,,,,,,,,,,,,,260.9060833249241,260.9060833249241,260.9060833249241,260.9060833249241,260.9060833249241,260.9060833249241,l,1,1.0682096553500742,261.9867837141501,263.0174505683826,,,,,,,,,,,,,,,,,,,,,,,,,,,,,,,,,,,,,,,997751,2023-05-16_15h06.53.556,eb_02psyexp,2022.2.4,99.93719535836568,
86,0,86,0,,,,,,,,,,,,,,,,,,,,,,,,,,,,,,,,,,,,,,,,,,,,,,,,,,,,,,,,,,,263.0174505683826,263.0174505683826,263.0174505683826,263.0174505683826,263.0174505683826,263.0174505683826,s,1,1.1088431316893548,264.1381852712948,265.168835222139,,,,,,,,,,,,,,,,,,,,,,,,,,,,,,,,,,,,,,,997751,2023-05-16_15h06.53.556,eb_02psyexp,2022.2.4,99.93719535836568,
87,0,87,0,,,,,,,,,,,,,,,,,,,,,,,,,,,,,,,,,,,,,,,,,,,,,,,,,,,,,,,,,,,265.168835222139,265.168835222139,265.168835222139,265.168835222139,265.168835222139,265.168835222139,s,1,1.0214795126812533,266.20950854185503,267.24016935925465,,,,,,,,,,,,,,,,,,,,,,,,,,,,,,,,,,,,,,,997751,2023-05-16_15h06.53.556,eb_02psyexp,2022.2.4,99.93719535836568,
88,0,88,0,,,,,,,,,,,,,,,,,,,,,,,,,,,,,,,,,,,,,,,,,,,,,,,,,,,,,,,,,,,267.24016935925465,267.24016935925465,267.24016935925465,267.24016935925465,267.24016935925465,267.24016935925465,s,1,1.0541370350401849,268.31085784966126,269.3315233697649,,,,,,,,,,,,,,,,,,,,,,,,,,,,,,,,,,,,,,,997751,2023-05-16_15h06.53.556,eb_02psyexp,2022.2.4,99.93719535836568,
89,0,89,0,,,,,,,,,,,,,,,,,,,,,,,,,,,,,,,,,,,,,,,,,,,,,,,,,,,,,,,,,,,269.3315233697649,269.3315233697649,269.3315233697649,269.3315233697649,269.3315233697649,269.3315233697649,l,1,1.0417813094099984,270.39220207440667,271.41286789625883,,,,,,,,,,,,,,,,,,,,,,,,,,,,,,,,,,,,,,,997751,2023-05-16_15h06.53.556,eb_02psyexp,2022.2.4,99.93719535836568,
90,0,90,0,,,,,,,,,,,,,,,,,,,,,,,,,,,,,,,,,,,,,,,,,,,,,,,,,,,,,,,,,,,271.41286789625883,271.41286789625883,271.41286789625883,271.41286789625883,271.41286789625883,271.41286789625883,s,1,0.7924817409366369,272.2234021681361,273.24408036563545,,,,,,,,,,,,,,,,,,,,,,,,,,,,,,,,,,,,,,,997751,2023-05-16_15h06.53.556,eb_02psyexp,2022.2.4,99.93719535836568,
91,0,91,0,,,,,,,,,,,,,,,,,,,,,,,,,,,,,,,,,,,,,,,,,,,,,,,,,,,,,,,,,,,273.24408036563545,273.24408036563545,273.24408036563545,273.24408036563545,273.24408036563545,273.24408036563545,l,1,0.681252138921991,273.9445060879225,274.9651613452006,,,,,,,,,,,,,,,,,,,,,,,,,,,,,,,,,,,,,,,997751,2023-05-16_15h06.53.556,eb_02psyexp,2022.2.4,99.93719535836568,
92,0,92,0,,,,,,,,,,,,,,,,,,,,,,,,,,,,,,,,,,,,,,,,,,,,,,,,,,,,,,,,,,,274.9651613452006,274.9651613452006,274.9651613452006,274.9651613452006,274.9651613452006,274.9651613452006,s,1,1.0402096022153273,276.0158535061637,277.0365513236029,,,,,,,,,,,,,,,,,,,,,,,,,,,,,,,,,,,,,,,997751,2023-05-16_15h06.53.556,eb_02psyexp,2022.2.4,99.93719535836568,
93,0,93,0,,,,,,,,,,,,,,,,,,,,,,,,,,,,,,,,,,,,,,,,,,,,,,,,,,,,,,,,,,,277.0365513236029,277.0365513236029,277.0365513236029,277.0365513236029,277.0365513236029,277.0365513236029,l,1,3.4728574053151533,280.5287450067699,281.5494147526333,,,,,,,,,,,,,,,,,,,,,,,,,,,,,,,,,,,,,,,997751,2023-05-16_15h06.53.556,eb_02psyexp,2022.2.4,99.93719535836568,
94,0,94,0,,,,,,,,,,,,,,,,,,,,,,,,,,,,,,,,,,,,,,,,,,,,,,,,,,,,,,,,,,,281.5494147526333,281.5494147526333,281.5494147526333,281.5494147526333,281.5494147526333,281.5494147526333,s,1,4.438965034787543,286.00228345789947,287.0329569526948,,,,,,,,,,,,,,,,,,,,,,,,,,,,,,,,,,,,,,,997751,2023-05-16_15h06.53.556,eb_02psyexp,2022.2.4,99.93719535836568,
95,0,95,0,,,,,,,,,,,,,,,,,,,,,,,,,,,,,,,,,,,,,,,,,,,,,,,,,,,,,,,,,,,287.0329569526948,287.0329569526948,287.0329569526948,287.0329569526948,287.0329569526948,287.0329569526948,l,1,1.7314900229685009,288.7840724210255,289.80473673378583,,,,,,,,,,,,,,,,,,,,,,,,,,,,,,,,,,,,,,,997751,2023-05-16_15h06.53.556,eb_02psyexp,2022.2.4,99.93719535836568,
96,0,96,0,,,,,,,,,,,,,,,,,,,,,,,,,,,,,,,,,,,,,,,,,,,,,,,,,,,,,,,,,,,289.80473673378583,289.80473673378583,289.80473673378583,289.80473673378583,289.80473673378583,289.80473673378583,s,1,3.8797116425121203,293.6972524251323,294.7279250144493,,,,,,,,,,,,,,,,,,,,,,,,,,,,,,,,,,,,,,,997751,2023-05-16_15h06.53.556,eb_02psyexp,2022.2.4,99.93719535836568,
97,0,97,0,,,,,,,,,,,,,,,,,,,,,,,,,,,,,,,,,,,,,,,,,,,,,,,,,,,,,,,,,,,294.7279250144493,294.7279250144493,294.7279250144493,294.7279250144493,294.7279250144493,294.7279250144493,s,1,0.5885325813433155,295.32830600324087,296.3489645809168,,,,,,,,,,,,,,,,,,,,,,,,,,,,,,,,,,,,,,,997751,2023-05-16_15h06.53.556,eb_02psyexp,2022.2.4,99.93719535836568,
98,0,98,0,,,,,,,,,,,,,,,,,,,,,,,,,,,,,,,,,,,,,,,,,,,,,,,,,,,,,,,,,,,296.3489645809168,296.3489645809168,296.3489645809168,296.3489645809168,296.3489645809168,296.3489645809168,s,1,0.5114950819406658,296.87962570006493,297.90997772989795,,,,,,,,,,,,,,,,,,,,,,,,,,,,,,,,,,,,,,,997751,2023-05-16_15h06.53.556,eb_02psyexp,2022.2.4,99.93719535836568,
99,0,99,0,,,,,,,,,,,,,,,,,,,,,,,,,,,,,,,,,,,,,,,,,,,,,,,,,,,,,,,,,,,297.90997772989795,297.90997772989795,297.90997772989795,297.90997772989795,297.90997772989795,297.90997772989795,s,1,0.4625038178637624,298.3902609088691,299.41093910636846,,,,,,,,,,,,,,,,,,,,,,,,,,,,,,,,,,,,,,,997751,2023-05-16_15h06.53.556,eb_02psyexp,2022.2.4,99.93719535836568,
100,0,100,0,,,,,,,,,,,,,,,,,,,,,,,,,,,,,,,,,,,,,,,,,,,,,,,,,,,,,,,,,,,299.41093910636846,299.41093910636846,299.41093910636846,299.41093910636846,299.41093910636846,299.41093910636846,s,1,0.4735148238250986,299.9015728542581,300.92192385171074,,,,,,,,,,,,,,,,,,,,,,,,,,,,,,,,,,,,,,,997751,2023-05-16_15h06.53.556,eb_02psyexp,2022.2.4,99.93719535836568,
101,0,101,0,,,,,,,,,,,,,,,,,,,,,,,,,,,,,,,,,,,,,,,,,,,,,,,,,,,,,,,,,,,300.92192385171074,300.92192385171074,300.92192385171074,300.92192385171074,300.92192385171074,300.92192385171074,l,1,0.7135685762623325,301.6523861757014,302.6730972743826,,,,,,,,,,,,,,,,,,,,,,,,,,,,,,,,,,,,,,,997751,2023-05-16_15h06.53.556,eb_02psyexp,2022.2.4,99.93719535836568,
102,0,102,0,,,,,,,,,,,,,,,,,,,,,,,,,,,,,,,,,,,,,,,,,,,,,,,,,,,,,,,,,,,302.6730972743826,302.6730972743826,302.6730972743826,302.6730972743826,302.6730972743826,302.6730972743826,l,1,1.8904328770004213,304.5742961425567,305.60494367871433,,,,,,,,,,,,,,,,,,,,,,,,,,,,,,,,,,,,,,,997751,2023-05-16_15h06.53.556,eb_02psyexp,2022.2.4,99.93719535836568,
103,0,103,0,,,,,,,,,,,,,,,,,,,,,,,,,,,,,,,,,,,,,,,,,,,,,,,,,,,,,,,,,,,305.60494367871433,305.60494367871433,305.60494367871433,305.60494367871433,305.60494367871433,305.60494367871433,s,1,1.134580554207787,306.75567634718027,307.7763497153064,,,,,,,,,,,,,,,,,,,,,,,,,,,,,,,,,,,,,,,997751,2023-05-16_15h06.53.556,eb_02psyexp,2022.2.4,99.93719535836568,
104,0,104,0,,,,,,,,,,,,,,,,,,,,,,,,,,,,,,,,,,,,,,,,,,,,,,,,,,,,,,,,,,,307.7763497153064,307.7763497153064,307.7763497153064,307.7763497153064,307.7763497153064,307.7763497153064,s,1,1.3712008191505447,309.16724298952613,310.1879030762939,,,,,,,,,,,,,,,,,,,,,,,,,,,,,,,,,,,,,,,997751,2023-05-16_15h06.53.556,eb_02psyexp,2022.2.4,99.93719535836568,
105,0,105,0,,,,,,,,,,,,,,,,,,,,,,,,,,,,,,,,,,,,,,,,,,,,,,,,,,,,,,,,,,,310.1879030762939,310.1879030762939,310.1879030762939,310.1879030762939,310.1879030762939,310.1879030762939,l,1,1.3756678241770715,311.5788084244123,312.6094737693202,,,,,,,,,,,,,,,,,,,,,,,,,,,,,,,,,,,,,,,997751,2023-05-16_15h06.53.556,eb_02psyexp,2022.2.4,99.93719535836568,
106,0,106,0,,,,,,,,,,,,,,,,,,,,,,,,,,,,,,,,,,,,,,,,,,,,,,,,,,,,,,,,,,,312.6094737693202,312.6094737693202,312.6094737693202,312.6094737693202,312.6094737693202,312.6094737693202,s,1,0.8260952066630125,313.44999725325033,314.4707077482017,,,,,,,,,,,,,,,,,,,,,,,,,,,,,,,,,,,,,,,997751,2023-05-16_15h06.53.556,eb_02psyexp,2022.2.4,99.93719535836568,
107,0,107,0,,,,,,,,,,,,,,,,,,,,,,,,,,,,,,,,,,,,,,,,,,,,,,,,,,,,,,,,,,,314.4707077482017,314.4707077482017,314.4707077482017,314.4707077482017,314.4707077482017,314.4707077482017,l,1,0.9488963407929987,315.4312949334271,316.45195109630004,,,,,,,,,,,,,,,,,,,,,,,,,,,,,,,,,,,,,,,997751,2023-05-16_15h06.53.556,eb_02psyexp,2022.2.4,99.93719535836568,
108,0,108,0,,,,,,,,,,,,,,,,,,,,,,,,,,,,,,,,,,,,,,,,,,,,,,,,,,,,,,,,,,,316.45195109630004,316.45195109630004,316.45195109630004,316.45195109630004,316.45195109630004,316.45195109630004,s,1,0.5746199388522655,317.0423259214731,318.07299398304895,,,,,,,,,,,,,,,,,,,,,,,,,,,,,,,,,,,,,,,997751,2023-05-16_15h06.53.556,eb_02psyexp,2022.2.4,99.93719535836568,
109,0,109,0,,,,,,,,,,,,,,,,,,,,,,,,,,,,,,,,,,,,,,,,,,,,,,,,,,,,,,,,,,,318.07299398304895,318.07299398304895,318.07299398304895,318.07299398304895,318.07299398304895,318.07299398304895,s,1,0.5856016657780856,318.673377990257,319.6940462269122,,,,,,,,,,,,,,,,,,,,,,,,,,,,,,,,,,,,,,,997751,2023-05-16_15h06.53.556,eb_02psyexp,2022.2.4,99.93719535836568,
110,0,110,0,,,,,,,,,,,,,,,,,,,,,,,,,,,,,,,,,,,,,,,,,,,,,,,,,,,,,,,,,,,319.6940462269122,319.6940462269122,319.6940462269122,319.6940462269122,319.6940462269122,319.6940462269122,l,1,2.1325666438788176,321.84543601213954,322.87610105529893,,,,,,,,,,,,,,,,,,,,,,,,,,,,,,,,,,,,,,,997751,2023-05-16_15h06.53.556,eb_02psyexp,2022.2.4,99.93719535836568,
111,0,111,0,,,,,,,,,,,,,,,,,,,,,,,,,,,,,,,,,,,,,,,,,,,,,,,,,,,,,,,,,,,322.87610105529893,322.87610105529893,322.87610105529893,322.87610105529893,322.87610105529893,322.87610105529893,s,1,2.054560221848078,324.94743398495484,325.97810385760386,,,,,,,,,,,,,,,,,,,,,,,,,,,,,,,,,,,,,,,997751,2023-05-16_15h06.53.556,eb_02psyexp,2022.2.4,99.93719535836568,
112,0,112,0,,,,,,,,,,,,,,,,,,,,,,,,,,,,,,,,,,,,,,,,,,,,,,,,,,,,,,,,,,,325.97810385760386,325.97810385760386,325.97810385760386,325.97810385760386,325.97810385760386,325.97810385760386,s,1,1.0245030947262421,327.0187853272073,328.03943666047417,,,,,,,,,,,,,,,,,,,,,,,,,,,,,,,,,,,,,,,997751,2023-05-16_15h06.53.556,eb_02psyexp,2022.2.4,99.93719535836568,
113,0,113,0,,,,,,,,,,,,,,,,,,,,,,,,,,,,,,,,,,,,,,,,,,,,,,,,,,,,,,,,,,,328.03943666047417,328.03943666047417,328.03943666047417,328.03943666047417,328.03943666047417,328.03943666047417,l,1,0.9072079161414877,328.9600399400806,329.98069640481845,,,,,,,,,,,,,,,,,,,,,,,,,,,,,,,,,,,,,,,997751,2023-05-16_15h06.53.556,eb_02psyexp,2022.2.4,99.93719535836568,
114,0,114,0,,,,,,,,,,,,,,,,,,,,,,,,,,,,,,,,,,,,,,,,,,,,,,,,,,,,,,,,,,,329.98069640481845,329.98069640481845,329.98069640481845,329.98069640481845,329.98069640481845,329.98069640481845,s,1,1.5099882713984698,331.50169848208316,332.5323348500533,,,,,,,,,,,,,,,,,,,,,,,,,,,,,,,,,,,,,,,997751,2023-05-16_15h06.53.556,eb_02psyexp,2022.2.4,99.93719535836568,
115,0,115,0,,,,,,,,,,,,,,,,,,,,,,,,,,,,,,,,,,,,,,,,,,,,,,,,,,,,,,,,,,,332.5323348500533,332.5323348500533,332.5323348500533,332.5323348500533,332.5323348500533,332.5323348500533,l,1,1.8693975968053564,334.4135554993991,335.4442175240256,,,,,,,,,,,,,,,,,,,,,,,,,,,,,,,,,,,,,,,997751,2023-05-16_15h06.53.556,eb_02psyexp,2022.2.4,99.93719535836568,
116,0,116,0,,,,,,,,,,,,,,,,,,,,,,,,,,,,,,,,,,,,,,,,,,,,,,,,,,,,,,,,,,,335.4442175240256,335.4442175240256,335.4442175240256,335.4442175240256,335.4442175240256,335.4442175240256,s,1,3.0134800149826333,338.47617235116195,339.5068458459573,,,,,,,,,,,,,,,,,,,,,,,,,,,,,,,,,,,,,,,997751,2023-05-16_15h06.53.556,eb_02psyexp,2022.2.4,99.93719535836568,
117,0,117,0,,,,,,,,,,,,,,,,,,,,,,,,,,,,,,,,,,,,,,,,,,,,,,,,,,,,,,,,,,,339.5068458459573,339.5068458459573,339.5068458459573,339.5068458459573,339.5068458459573,339.5068458459573,l,1,1.0709250535583124,340.59757201874163,341.6282126123551,,,,,,,,,,,,,,,,,,,,,,,,,,,,,,,,,,,,,,,997751,2023-05-16_15h06.53.556,eb_02psyexp,2022.2.4,99.93719535836568,
118,0,118,0,,,,,,,,,,,,,,,,,,,,,,,,,,,,,,,,,,,,,,,,,,,,,,,,,,,,,,,,,,,341.6282126123551,341.6282126123551,341.6282126123551,341.6282126123551,341.6282126123551,341.6282126123551,s,1,0.41355843434575945,342.05849213909823,343.08915295638144,,,,,,,,,,,,,,,,,,,,,,,,,,,,,,,,,,,,,,,997751,2023-05-16_15h06.53.556,eb_02psyexp,2022.2.4,99.93719535836568,
119,0,119,0,,,,,,,,,,,,,,,,,,,,,,,,,,,,,,,,,,,,,,,,,,,,,,,,,,,,,,,,,,,343.08915295638144,343.08915295638144,343.08915295638144,343.08915295638144,343.08915295638144,343.08915295638144,l,1,0.7045642364537343,343.8096151535865,344.83026407216676,,,,,,,,,,,,,,,,,,,,,,,,,,,,,,,,,,,,,,,997751,2023-05-16_15h06.53.556,eb_02psyexp,2022.2.4,99.93719535836568,
120,0,120,0,,,,,,,,,,,,,,,,,,,,,,,,,,,,,,,,,,,,,,,,,,,,,,,,,,,,,,,,,,,344.83026407216676,344.83026407216676,344.83026407216676,344.83026407216676,344.83026407216676,344.83026407216676,s,1,0.6114996699616313,345.46068045531865,346.4913521390408,,,,,,,,,,,,,,,,,,,,,,,,,,,,,,,,,,,,,,,997751,2023-05-16_15h06.53.556,eb_02psyexp,2022.2.4,99.93719535836568,
121,0,121,0,,,,,,,,,,,,,,,,,,,,,,,,,,,,,,,,,,,,,,,,,,,,,,,,,,,,,,,,,,,346.4913521390408,346.4913521390408,346.4913521390408,346.4913521390408,346.4913521390408,346.4913521390408,l,1,0.7743882426293567,347.2818740835646,348.3025190781336,,,,,,,,,,,,,,,,,,,,,,,,,,,,,,,,,,,,,,,997751,2023-05-16_15h06.53.556,eb_02psyexp,2022.2.4,99.93719535836568,
122,0,122,0,,,,,,,,,,,,,,,,,,,,,,,,,,,,,,,,,,,,,,,,,,,,,,,,,,,,,,,,,,,348.3025190781336,348.3025190781336,348.3025190781336,348.3025190781336,348.3025190781336,348.3025190781336,s,1,0.5382291967980564,348.85285385441966,349.87353657966014,,,,,,,,,,,,,,,,,,,,,,,,,,,,,,,,,,,,,,,997751,2023-05-16_15h06.53.556,eb_02psyexp,2022.2.4,99.93719535836568,
123,0,123,0,,,,,,,,,,,,,,,,,,,,,,,,,,,,,,,,,,,,,,,,,,,,,,,,,,,,,,,,,,,349.87353657966014,349.87353657966014,349.87353657966014,349.87353657966014,349.87353657966014,349.87353657966014,l,1,0.639236816088669,350.52395895146765,351.5446169254137,,,,,,,,,,,,,,,,,,,,,,,,,,,,,,,,,,,,,,,997751,2023-05-16_15h06.53.556,eb_02psyexp,2022.2.4,99.93719535836568,
124,0,124,0,,,,,,,,,,,,,,,,,,,,,,,,,,,,,,,,,,,,,,,,,,,,,,,,,,,,,,,,,,,351.5446169254137,351.5446169254137,351.5446169254137,351.5446169254137,351.5446169254137,351.5446169254137,s,1,0.44015068211592734,351.99491632555146,353.0255732188234,,,,,,,,,,,,,,,,,,,,,,,,,,,,,,,,,,,,,,,997751,2023-05-16_15h06.53.556,eb_02psyexp,2022.2.4,99.93719535836568,
125,0,125,0,,,,,,,,,,,,,,,,,,,,,,,,,,,,,,,,,,,,,,,,,,,,,,,,,,,,,,,,,,,353.0255732188234,353.0255732188234,353.0255732188234,353.0255732188234,353.0255732188234,353.0255732188234,l,1,0.3991978538688272,353.4358343812637,,,,,,,,,,,,,,,,,,,,,,,,,,,,,,,,,,,,,,,,997751,2023-05-16_15h06.53.556,eb_02psyexp,2022.2.4,99.93719535836568,
126,0,126,0,,,,,,,,,,,,,,,,,,,,,,,,,,,,,,,,,,,,,,,,,,,,,,,,,,,,,,,,,,,354.45682015886996,354.45682015886996,354.45682015886996,354.45682015886996,354.45682015886996,354.45682015886996,s,0,0.43199331942014396,354.9067627781769,355.9274476163555,,,,,,,,,,,,,,,,,,,,,,,,,,,,,,,,,,,,,,,997751,2023-05-16_15h06.53.556,eb_02psyexp,2022.2.4,99.93719535836568,
127,0,127,0,,,,,,,,,,,,,,,,,,,,,,,,,,,,,,,,,,,,,,,,,,,,,,,,,,,,,,,,,,,355.9274476163555,355.9274476163555,355.9274476163555,355.9274476163555,355.9274476163555,355.9274476163555,s,1,0.6173500308068469,356.5578730548732,357.57851412543096,,,,,,,,,,,,,,,,,,,,,,,,,,,,,,,,,,,,,,,997751,2023-05-16_15h06.53.556,eb_02psyexp,2022.2.4,99.93719535836568,
128,0,128,0,,,,,,,,,,,,,,,,,,,,,,,,,,,,,,,,,,,,,,,,,,,,,,,,,,,,,,,,,,,357.57851412543096,357.57851412543096,357.57851412543096,357.57851412543096,357.57851412543096,357.57851412543096,l,1,1.142308089416474,358.73926412593573,359.7699315837817,,,,,,,,,,,,,,,,,,,,,,,,,,,,,,,,,,,,,,,997751,2023-05-16_15h06.53.556,eb_02psyexp,2022.2.4,99.93719535836568,
129,0,129,0,,,,,,,,,,,,,,,,,,,,,,,,,,,,,,,,,,,,,,,,,,,,,,,,,,,,,,,,,,,359.7699315837817,359.7699315837817,359.7699315837817,359.7699315837817,359.7699315837817,359.7699315837817,l,1,1.4469162372406572,361.23086890927516,362.2515398625983,,,,,,,,,,,,,,,,,,,,,,,,,,,,,,,,,,,,,,,997751,2023-05-16_15h06.53.556,eb_02psyexp,2022.2.4,99.93719535836568,
130,0,130,0,,,,,,,,,,,,,,,,,,,,,,,,,,,,,,,,,,,,,,,,,,,,,,,,,,,,,,,,,,,362.2515398625983,362.2515398625983,362.2515398625983,362.2515398625983,362.2515398625983,362.2515398625983,l,1,0.5803737094393,362.8419198191259,363.87258878618013,,,,,,,,,,,,,,,,,,,,,,,,,,,,,,,,,,,,,,,997751,2023-05-16_15h06.53.556,eb_02psyexp,2022.2.4,99.93719535836568,
131,0,131,0,,,,,,,,,,,,,,,,,,,,,,,,,,,,,,,,,,,,,,,,,,,,,,,,,,,,,,,,,,,363.87258878618013,363.87258878618013,363.87258878618013,363.87258878618013,363.87258878618013,363.87258878618013,s,1,0.5832551222993061,364.47294562740717,365.49361959914677,,,,,,,,,,,,,,,,,,,,,,,,,,,,,,,,,,,,,,,997751,2023-05-16_15h06.53.556,eb_02psyexp,2022.2.4,99.93719535836568,
132,0,132,0,,,,,,,,,,,,,,,,,,,,,,,,,,,,,,,,,,,,,,,,,,,,,,,,,,,,,,,,,,,365.49361959914677,365.49361959914677,365.49361959914677,365.49361959914677,365.49361959914677,365.49361959914677,l,1,0.6022595890099183,366.11403132788837,367.134686283418,,,,,,,,,,,,,,,,,,,,,,,,,,,,,,,,,,,,,,,997751,2023-05-16_15h06.53.556,eb_02psyexp,2022.2.4,99.93719535836568,
133,0,133,0,,,,,,,,,,,,,,,,,,,,,,,,,,,,,,,,,,,,,,,,,,,,,,,,,,,,,,,,,,,367.134686283418,367.134686283418,367.134686283418,367.134686283418,367.134686283418,367.134686283418,l,1,1.1931674726074561,368.34546317823697,369.37613395636436,,,,,,,,,,,,,,,,,,,,,,,,,,,,,,,,,,,,,,,997751,2023-05-16_15h06.53.556,eb_02psyexp,2022.2.4,99.93719535836568,
134,0,134,0,,,,,,,,,,,,,,,,,,,,,,,,,,,,,,,,,,,,,,,,,,,,,,,,,,,,,,,,,,,369.37613395636436,369.37613395636436,369.37613395636436,369.37613395636436,369.37613395636436,369.37613395636436,s,1,0.7117535821162164,370.10660654318053,371.1372679641936,,,,,,,,,,,,,,,,,,,,,,,,,,,,,,,,,,,,,,,997751,2023-05-16_15h06.53.556,eb_02psyexp,2022.2.4,99.93719535836568,
135,0,135,0,,,,,,,,,,,,,,,,,,,,,,,,,,,,,,,,,,,,,,,,,,,,,,,,,,,,,,,,,,,371.1372679641936,371.1372679641936,371.1372679641936,371.1372679641936,371.1372679641936,371.1372679641936,s,1,2.918638184783049,374.06916839873884,375.0998298197519,,,,,,,,,,,,,,,,,,,,,,,,,,,,,,,,,,,,,,,997751,2023-05-16_15h06.53.556,eb_02psyexp,2022.2.4,99.93719535836568,
136,0,136,0,,,,,,,,,,,,,,,,,,,,,,,,,,,,,,,,,,,,,,,,,,,,,,,,,,,,,,,,,,,375.0998298197519,375.0998298197519,375.0998298197519,375.0998298197519,375.0998298197519,375.0998298197519,s,1,1.4521306107053533,376.5707856846275,377.59144697885495,,,,,,,,,,,,,,,,,,,,,,,,,,,,,,,,,,,,,,,997751,2023-05-16_15h06.53.556,eb_02psyexp,2022.2.4,99.93719535836568,
137,0,137,0,,,,,,,,,,,,,,,,,,,,,,,,,,,,,,,,,,,,,,,,,,,,,,,,,,,,,,,,,,,377.59144697885495,377.59144697885495,377.59144697885495,377.59144697885495,377.59144697885495,377.59144697885495,l,1,0.8805060986196622,378.48200429952703,379.51267990714405,,,,,,,,,,,,,,,,,,,,,,,,,,,,,,,,,,,,,,,997751,2023-05-16_15h06.53.556,eb_02psyexp,2022.2.4,99.93719535836568,
138,0,138,0,,,,,,,,,,,,,,,,,,,,,,,,,,,,,,,,,,,,,,,,,,,,,,,,,,,,,,,,,,,379.51267990714405,379.51267990714405,379.51267990714405,379.51267990714405,379.51267990714405,379.51267990714405,s,1,1.1982813315698877,380.7234661591938,381.7541245617904,,,,,,,,,,,,,,,,,,,,,,,,,,,,,,,,,,,,,,,997751,2023-05-16_15h06.53.556,eb_02psyexp,2022.2.4,99.93719535836568,
139,0,139,0,,,,,,,,,,,,,,,,,,,,,,,,,,,,,,,,,,,,,,,,,,,,,,,,,,,,,,,,,,,381.7541245617904,381.7541245617904,381.7541245617904,381.7541245617904,381.7541245617904,381.7541245617904,s,1,0.6448103850707412,382.4145428345073,,,,,,,,,,,,,,,,,,,,,,,,,,,,,,,,,,,,,,,,997751,2023-05-16_15h06.53.556,eb_02psyexp,2022.2.4,99.93719535836568,
140,0,140,0,,,,,,,,,,,,,,,,,,,,,,,,,,,,,,,,,,,,,,,,,,,,,,,,,,,,,,,,,,,383.4355403841473,383.4355403841473,383.4355403841473,383.4355403841473,383.4355403841473,383.4355403841473,s,1,0.6434143516235054,384.09596348635387,385.1263043479994,,,,,,,,,,,,,,,,,,,,,,,,,,,,,,,,,,,,,,,997751,2023-05-16_15h06.53.556,eb_02psyexp,2022.2.4,99.93719535836568,
141,0,141,0,,,,,,,,,,,,,,,,,,,,,,,,,,,,,,,,,,,,,,,,,,,,,,,,,,,,,,,,,,,385.1263043479994,385.1263043479994,385.1263043479994,385.1263043479994,385.1263043479994,385.1263043479994,s,1,0.6726724948966876,385.8167531854706,386.837457643589,,,,,,,,,,,,,,,,,,,,,,,,,,,,,,,,,,,,,,,997751,2023-05-16_15h06.53.556,eb_02psyexp,2022.2.4,99.93719535836568,
142,0,142,0,,,,,,,,,,,,,,,,,,,,,,,,,,,,,,,,,,,,,,,,,,,,,,,,,,,,,,,,,,,386.837457643589,386.837457643589,386.837457643589,386.837457643589,386.837457643589,386.837457643589,s,1,0.7695300463819876,387.6179142626934,388.6485811169259,,,,,,,,,,,,,,,,,,,,,,,,,,,,,,,,,,,,,,,997751,2023-05-16_15h06.53.556,eb_02psyexp,2022.2.4,99.93719535836568,
143,0,143,0,,,,,,,,,,,,,,,,,,,,,,,,,,,,,,,,,,,,,,,,,,,,,,,,,,,,,,,,,,,388.6485811169259,388.6485811169259,388.6485811169259,388.6485811169259,388.6485811169259,388.6485811169259,s,1,0.6063981866464019,389.2689889216563,390.2896348218201,,,,,,,,,,,,,,,,,,,,,,,,,,,,,,,,,,,,,,,997751,2023-05-16_15h06.53.556,eb_02psyexp,2022.2.4,99.93719535836568,
144,0,144,0,,,,,,,,,,,,,,,,,,,,,,,,,,,,,,,,,,,,,,,,,,,,,,,,,,,,,,,,,,,390.2896348218201,390.2896348218201,390.2896348218201,390.2896348218201,390.2896348218201,390.2896348218201,l,1,1.3253656470915303,391.6305084459018,392.651181512163,,,,,,,,,,,,,,,,,,,,,,,,,,,,,,,,,,,,,,,997751,2023-05-16_15h06.53.556,eb_02psyexp,2022.2.4,99.93719535836568,
145,0,145,0,,,,,,,,,,,,,,,,,,,,,,,,,,,,,,,,,,,,,,,,,,,,,,,,,,,,,,,,,,,392.651181512163,392.651181512163,392.651181512163,392.651181512163,392.651181512163,392.651181512163,l,1,1.0358485447941348,393.7018622029573,394.73250943713356,,,,,,,,,,,,,,,,,,,,,,,,,,,,,,,,,,,,,,,997751,2023-05-16_15h06.53.556,eb_02psyexp,2022.2.4,99.93719535836568,
146,0,146,0,,,,,,,,,,,,,,,,,,,,,,,,,,,,,,,,,,,,,,,,,,,,,,,,,,,,,,,,,,,394.73250943713356,394.73250943713356,394.73250943713356,394.73250943713356,394.73250943713356,394.73250943713356,l,1,0.7775129426736385,395.5230217225617,396.5536961229518,,,,,,,,,,,,,,,,,,,,,,,,,,,,,,,,,,,,,,,997751,2023-05-16_15h06.53.556,eb_02psyexp,2022.2.4,99.93719535836568,
147,0,147,0,,,,,,,,,,,,,,,,,,,,,,,,,,,,,,,,,,,,,,,,,,,,,,,,,,,,,,,,,,,396.5536961229518,396.5536961229518,396.5536961229518,396.5536961229518,396.5536961229518,396.5536961229518,s,1,0.6763562120031565,397.24412202020176,398.2648470037384,,,,,,,,,,,,,,,,,,,,,,,,,,,,,,,,,,,,,,,997751,2023-05-16_15h06.53.556,eb_02psyexp,2022.2.4,99.93719535836568,
148,0,148,0,,,,,,,,,,,,,,,,,,,,,,,,,,,,,,,,,,,,,,,,,,,,,,,,,,,,,,,,,,,398.2648470037384,398.2648470037384,398.2648470037384,398.2648470037384,398.2648470037384,398.2648470037384,l,1,0.7572159754345194,399.03529413894285,400.0559587534517,,,,,,,,,,,,,,,,,,,,,,,,,,,,,,,,,,,,,,,997751,2023-05-16_15h06.53.556,eb_02psyexp,2022.2.4,99.93719535836568,
149,0,149,0,,,,,,,,,,,,,,,,,,,,,,,,,,,,,,,,,,,,,,,,,,,,,,,,,,,,,,,,,,,400.0559587534517,400.0559587534517,400.0559587534517,400.0559587534517,400.0559587534517,400.0559587534517,l,1,0.8940794671652839,400.96653383469675,401.997207631357,,,,,,,,,,,,,,,,,,,,,,,,,,,,,,,,,,,,,,,997751,2023-05-16_15h06.53.556,eb_02psyexp,2022.2.4,99.93719535836568,
150,0,150,0,,,,,,,,,,,,,,,,,,,,,,,,,,,,,,,,,,,,,,,,,,,,,,,,,,,,,,,,,,,401.997207631357,401.997207631357,401.997207631357,401.997207631357,401.997207631357,401.997207631357,s,1,0.6248822724446654,402.6376271598274,403.65832527913153,,,,,,,,,,,,,,,,,,,,,,,,,,,,,,,,,,,,,,,997751,2023-05-16_15h06.53.556,eb_02psyexp,2022.2.4,99.93719535836568,
151,0,151,0,,,,,,,,,,,,,,,,,,,,,,,,,,,,,,,,,,,,,,,,,,,,,,,,,,,,,,,,,,,403.65832527913153,403.65832527913153,403.65832527913153,403.65832527913153,403.65832527913153,403.65832527913153,s,1,0.6277564411284402,404.2986841367092,405.31935871206224,,,,,,,,,,,,,,,,,,,,,,,,,,,,,,,,,,,,,,,997751,2023-05-16_15h06.53.556,eb_02psyexp,2022.2.4,99.93719535836568,
152,0,152,0,,,,,,,,,,,,,,,,,,,,,,,,,,,,,,,,,,,,,,,,,,,,,,,,,,,,,,,,,,,405.31935871206224,405.31935871206224,405.31935871206224,405.31935871206224,405.31935871206224,405.31935871206224,l,1,0.7506973295239732,406.08984146488365,407.11050758871716,,,,,,,,,,,,,,,,,,,,,,,,,,,,,,,,,,,,,,,997751,2023-05-16_15h06.53.556,eb_02psyexp,2022.2.4,99.93719535836568,
153,0,153,0,,,,,,,,,,,,,,,,,,,,,,,,,,,,,,,,,,,,,,,,,,,,,,,,,,,,,,,,,,,407.11050758871716,407.11050758871716,407.11050758871716,407.11050758871716,407.11050758871716,407.11050758871716,l,1,0.8156033742707223,407.9410475472687,408.97171047749,,,,,,,,,,,,,,,,,,,,,,,,,,,,,,,,,,,,,,,997751,2023-05-16_15h06.53.556,eb_02psyexp,2022.2.4,99.93719535836568,
154,0,154,0,,,,,,,,,,,,,,,,,,,,,,,,,,,,,,,,,,,,,,,,,,,,,,,,,,,,,,,,,,,408.97171047749,408.97171047749,408.97171047749,408.97171047749,408.97171047749,408.97171047749,s,1,0.5704378755763173,409.55210660689045,410.57275069586467,,,,,,,,,,,,,,,,,,,,,,,,,,,,,,,,,,,,,,,997751,2023-05-16_15h06.53.556,eb_02psyexp,2022.2.4,99.93719535836568,
155,0,155,0,,,,,,,,,,,,,,,,,,,,,,,,,,,,,,,,,,,,,,,,,,,,,,,,,,,,,,,,,,,410.57275069586467,410.57275069586467,410.57275069586467,410.57275069586467,410.57275069586467,410.57275069586467,l,1,0.6243760782526806,411.2131617726991,412.23380978568457,,,,,,,,,,,,,,,,,,,,,,,,,,,,,,,,,,,,,,,997751,2023-05-16_15h06.53.556,eb_02psyexp,2022.2.4,99.93719535836568,
156,0,156,0,,,,,,,,,,,,,,,,,,,,,,,,,,,,,,,,,,,,,,,,,,,,,,,,,,,,,,,,,,,412.23380978568457,412.23380978568457,412.23380978568457,412.23380978568457,412.23380978568457,412.23380978568457,l,1,0.915300382184796,413.16440474044066,414.18513938295655,,,,,,,,,,,,,,,,,,,,,,,,,,,,,,,,,,,,,,,997751,2023-05-16_15h06.53.556,eb_02psyexp,2022.2.4,99.93719535836568,
157,0,157,0,,,,,,,,,,,,,,,,,,,,,,,,,,,,,,,,,,,,,,,,,,,,,,,,,,,,,,,,,,,414.18513938295655,414.18513938295655,414.18513938295655,414.18513938295655,414.18513938295655,414.18513938295655,s,1,1.2280046180821955,415.4258759090444,416.4465387124801,,,,,,,,,,,,,,,,,,,,,,,,,,,,,,,,,,,,,,,997751,2023-05-16_15h06.53.556,eb_02psyexp,2022.2.4,99.93719535836568,
158,0,158,0,,,,,,,,,,,,,,,,,,,,,,,,,,,,,,,,,,,,,,,,,,,,,,,,,,,,,,,,,,,416.4465387124801,416.4465387124801,416.4465387124801,416.4465387124801,416.4465387124801,416.4465387124801,l,1,0.7106334349373356,417.1670078522293,418.18771080102306,,,,,,,,,,,,,,,,,,,,,,,,,,,,,,,,,,,,,,,997751,2023-05-16_15h06.53.556,eb_02psyexp,2022.2.4,99.93719535836568,
159,0,159,0,,,,,,,,,,,,,,,,,,,,,,,,,,,,,,,,,,,,,,,,,,,,,,,,,,,,,,,,,,,418.18771080102306,418.18771080102306,418.18771080102306,418.18771080102306,418.18771080102306,418.18771080102306,s,1,0.6494491398334503,418.84808590996545,419.8787784209708,,,,,,,,,,,,,,,,,,,,,,,,,,,,,,,,,,,,,,,997751,2023-05-16_15h06.53.556,eb_02psyexp,2022.2.4,99.93719535836568,
160,0,160,0,,,,,,,,,,,,,,,,,,,,,,,,,,,,,,,,,,,,,,,,,,,,,,,,,,,,,,,,,,,419.8787784209708,419.8787784209708,419.8787784209708,419.8787784209708,419.8787784209708,419.8787784209708,s,1,0.7344034315319732,420.6292926140595,421.65991570067126,,,,,,,,,,,,,,,,,,,,,,,,,,,,,,,,,,,,,,,997751,2023-05-16_15h06.53.556,eb_02psyexp,2022.2.4,99.93719535836568,
161,0,161,0,,,,,,,,,,,,,,,,,,,,,,,,,,,,,,,,,,,,,,,,,,,,,,,,,,,,,,,,,,,421.65991570067126,421.65991570067126,421.65991570067126,421.65991570067126,421.65991570067126,421.65991570067126,s,1,0.5852587698027492,422.2603105744347,423.2909792397404,,,,,,,,,,,,,,,,,,,,,,,,,,,,,,,,,,,,,,,997751,2023-05-16_15h06.53.556,eb_02psyexp,2022.2.4,99.93719535836568,
162,0,162,0,,,,,,,,,,,,,,,,,,,,,,,,,,,,,,,,,,,,,,,,,,,,,,,,,,,,,,,,,,,423.2909792397404,423.2909792397404,423.2909792397404,423.2909792397404,423.2909792397404,423.2909792397404,s,1,0.586212600232102,423.8913400048623,424.9220376473386,,,,,,,,,,,,,,,,,,,,,,,,,,,,,,,,,,,,,,,997751,2023-05-16_15h06.53.556,eb_02psyexp,2022.2.4,99.93719535836568,
163,0,163,0,,,,,,,,,,,,,,,,,,,,,,,,,,,,,,,,,,,,,,,,,,,,,,,,,,,,,,,,,,,424.9220376473386,424.9220376473386,424.9220376473386,424.9220376473386,424.9220376473386,424.9220376473386,s,1,0.6901994301006198,425.6224814802408,426.64313220989425,,,,,,,,,,,,,,,,,,,,,,,,,,,,,,,,,,,,,,,997751,2023-05-16_15h06.53.556,eb_02psyexp,2022.2.4,99.93719535836568,
164,0,164,0,,,,,,,,,,,,,,,,,,,,,,,,,,,,,,,,,,,,,,,,,,,,,,,,,,,,,,,,,,,426.64313220989425,426.64313220989425,426.64313220989425,426.64313220989425,426.64313220989425,426.64313220989425,l,1,1.089093409362249,427.7438470394118,428.7745271747699,,,,,,,,,,,,,,,,,,,,,,,,,,,,,,,,,,,,,,,997751,2023-05-16_15h06.53.556,eb_02psyexp,2022.2.4,99.93719535836568,
165,0,165,0,,,,,,,,,,,,,,,,,,,,,,,,,,,,,,,,,,,,,,,,,,,,,,,,,,,,,,,,,,,428.7745271747699,428.7745271747699,428.7745271747699,428.7745271747699,428.7745271747699,428.7745271747699,s,1,1.0776942308293656,429.8652316147927,430.8859203768661,,,,,,,,,,,,,,,,,,,,,,,,,,,,,,,,,,,,,,,997751,2023-05-16_15h06.53.556,eb_02psyexp,2022.2.4,99.93719535836568,
166,0,166,0,,,,,,,,,,,,,,,,,,,,,,,,,,,,,,,,,,,,,,,,,,,,,,,,,,,,,,,,,,,430.8859203768661,430.8859203768661,430.8859203768661,430.8859203768661,430.8859203768661,430.8859203768661,l,1,0.7503982010530308,431.64632663619705,432.6770306173712,,,,,,,,,,,,,,,,,,,,,,,,,,,,,,,,,,,,,,,997751,2023-05-16_15h06.53.556,eb_02psyexp,2022.2.4,99.93719535836568,
167,0,167,0,,,,,,,,,,,,,,,,,,,,,,,,,,,,,,,,,,,,,,,,,,,,,,,,,,,,,,,,,,,432.6770306173712,432.6770306173712,432.6770306173712,432.6770306173712,432.6770306173712,432.6770306173712,s,1,0.8632197340484709,433.5575923388824,434.57825665164273,,,,,,,,,,,,,,,,,,,,,,,,,,,,,,,,,,,,,,,997751,2023-05-16_15h06.53.556,eb_02psyexp,2022.2.4,99.93719535836568,
168,0,168,0,,,,,,,,,,,,,,,,,,,,,,,,,,,,,,,,,,,,,,,,,,,,,,,,,,,,,,,,,,,434.57825665164273,434.57825665164273,434.57825665164273,434.57825665164273,434.57825665164273,434.57825665164273,l,1,0.8260010309750214,435.4187952276552,436.44946540216915,,,,,,,,,,,,,,,,,,,,,,,,,,,,,,,,,,,,,,,997751,2023-05-16_15h06.53.556,eb_02psyexp,2022.2.4,99.93719535836568,
169,0,169,0,,,,,,,,,,,,,,,,,,,,,,,,,,,,,,,,,,,,,,,,,,,,,,,,,,,,,,,,,,,436.44946540216915,436.44946540216915,436.44946540216915,436.44946540216915,436.44946540216915,436.44946540216915,s,1,0.5788004929199815,437.0398356997175,438.06052023603115,,,,,,,,,,,,,,,,,,,,,,,,,,,,,,,,,,,,,,,997751,2023-05-16_15h06.53.556,eb_02psyexp,2022.2.4,99.93719535836568,
170,0,170,0,,,,,,,,,,,,,,,,,,,,,,,,,,,,,,,,,,,,,,,,,,,,,,,,,,,,,,,,,,,438.06052023603115,438.06052023603115,438.06052023603115,438.06052023603115,438.06052023603115,438.06052023603115,l,1,0.4797702607465908,438.55081984132994,439.5714796263492,,,,,,,,,,,,,,,,,,,,,,,,,,,,,,,,,,,,,,,997751,2023-05-16_15h06.53.556,eb_02psyexp,2022.2.4,99.93719535836568,
171,0,171,0,,,,,,,,,,,,,,,,,,,,,,,,,,,,,,,,,,,,,,,,,,,,,,,,,,,,,,,,,,,439.5714796263492,439.5714796263492,439.5714796263492,439.5714796263492,439.5714796263492,439.5714796263492,s,1,0.5928082165773958,440.1818743250333,441.2025482967729,,,,,,,,,,,,,,,,,,,,,,,,,,,,,,,,,,,,,,,997751,2023-05-16_15h06.53.556,eb_02psyexp,2022.2.4,99.93719535836568,
172,0,172,0,,,,,,,,,,,,,,,,,,,,,,,,,,,,,,,,,,,,,,,,,,,,,,,,,,,,,,,,,,,441.2025482967729,441.2025482967729,441.2025482967729,441.2025482967729,441.2025482967729,441.2025482967729,l,1,0.5207451237365603,441.7428962275153,442.76358317851555,,,,,,,,,,,,,,,,,,,,,,,,,,,,,,,,,,,,,,,997751,2023-05-16_15h06.53.556,eb_02psyexp,2022.2.4,99.93719535836568,
173,0,173,0,,,,,,,,,,,,,,,,,,,,,,,,,,,,,,,,,,,,,,,,,,,,,,,,,,,,,,,,,,,442.76358317851555,442.76358317851555,442.76358317851555,442.76358317851555,442.76358317851555,442.76358317851555,l,1,0.5597027561161667,443.33390402176883,,,,,,,,,,,,,,,,,,,,,,,,,,,,,,,,,,,,,,,,997751,2023-05-16_15h06.53.556,eb_02psyexp,2022.2.4,99.93719535836568,
174,0,174,0,,,,,,,,,,,,,,,,,,,,,,,,,,,,,,,,,,,,,,,,,,,,,,,,,,,,,,,,,,,444.36491105530877,444.36491105530877,444.36491105530877,444.36491105530877,444.36491105530877,444.36491105530877,l,1,0.6863925602519885,445.06533496652264,446.0857073949883,,,,,,,,,,,,,,,,,,,,,,,,,,,,,,,,,,,,,,,997751,2023-05-16_15h06.53.556,eb_02psyexp,2022.2.4,99.93719535836568,
175,0,175,0,,,,,,,,,,,,,,,,,,,,,,,,,,,,,,,,,,,,,,,,,,,,,,,,,,,,,,,,,,,446.0857073949883,446.0857073949883,446.0857073949883,446.0857073949883,446.0857073949883,446.0857073949883,s,1,0.5416373293846846,446.646046825801,447.6667304566363,,,,,,,,,,,,,,,,,,,,,,,,,,,,,,,,,,,,,,,997751,2023-05-16_15h06.53.556,eb_02psyexp,2022.2.4,99.93719535836568,
176,0,176,0,,,,,,,,,,,,,,,,,,,,,,,,,,,,,,,,,,,,,,,,,,,,,,,,,,,,,,,,,,,447.6667304566363,447.6667304566363,447.6667304566363,447.6667304566363,447.6667304566363,447.6667304566363,l,1,0.9606399246258661,448.63733708672225,449.6579669889761,,,,,,,,,,,,,,,,,,,,,,,,,,,,,,,,,,,,,,,997751,2023-05-16_15h06.53.556,eb_02psyexp,2022.2.4,99.93719535836568,
177,0,177,0,,,,,,,,,,,,,,,,,,,,,,,,,,,,,,,,,,,,,,,,,,,,,,,,,,,,,,,,,,,449.6579669889761,449.6579669889761,449.6579669889761,449.6579669889761,449.6579669889761,449.6579669889761,l,1,0.8573521679500118,450.52854910923634,451.54925900057424,,,,,,,,,,,,,,,,,,,,,,,,,,,,,,,,,,,,,,,997751,2023-05-16_15h06.53.556,eb_02psyexp,2022.2.4,99.93719535836568,
178,0,178,0,,,,,,,,,,,,,,,,,,,,,,,,,,,,,,,,,,,,,,,,,,,,,,,,,,,,,,,,,,,451.54925900057424,451.54925900057424,451.54925900057424,451.54925900057424,451.54925900057424,451.54925900057424,l,1,1.4540889812633395,453.0201596277766,454.04082967550494,,,,,,,,,,,,,,,,,,,,,,,,,,,,,,,,,,,,,,,997751,2023-05-16_15h06.53.556,eb_02psyexp,2022.2.4,99.93719535836568,
179,0,179,0,,,,,,,,,,,,,,,,,,,,,,,,,,,,,,,,,,,,,,,,,,,,,,,,,,,,,,,,,,,454.04082967550494,454.04082967550494,454.04082967550494,454.04082967550494,454.04082967550494,454.04082967550494,s,1,0.634531655232422,454.6912372568622,455.72191407193895,,,,,,,,,,,,,,,,,,,,,,,,,,,,,,,,,,,,,,,997751,2023-05-16_15h06.53.556,eb_02psyexp,2022.2.4,99.93719535836568,
180,0,180,0,,,,,,,,,,,,,,,,,,,,,,,,,,,,,,,,,,,,,,,,,,,,,,,,,,,,,,,,,,,455.72191407193895,455.72191407193895,455.72191407193895,455.72191407193895,455.72191407193895,455.72191407193895,l,1,0.8484857712173834,456.5824513924308,457.6031905626878,,,,,,,,,,,,,,,,,,,,,,,,,,,,,,,,,,,,,,,997751,2023-05-16_15h06.53.556,eb_02psyexp,2022.2.4,99.93719535836568,
181,0,181,0,,,,,,,,,,,,,,,,,,,,,,,,,,,,,,,,,,,,,,,,,,,,,,,,,,,,,,,,,,,457.6031905626878,457.6031905626878,457.6031905626878,457.6031905626878,457.6031905626878,457.6031905626878,l,1,6.78321660682559,464.3975024736719,465.4281901551876,,,,,,,,,,,,,,,,,,,,,,,,,,,,,,,,,,,,,,,997751,2023-05-16_15h06.53.556,eb_02psyexp,2022.2.4,99.93719535836568,
182,0,182,0,,,,,,,,,,,,,,,,,,,,,,,,,,,,,,,,,,,,,,,,,,,,,,,,,,,,,,,,,,,465.4281901551876,465.4281901551876,465.4281901551876,465.4281901551876,465.4281901551876,465.4281901551876,l,1,1.6622368057724088,467.109269722132,468.12994731601793,,,,,,,,,,,,,,,,,,,,,,,,,,,,,,,,,,,,,,,997751,2023-05-16_15h06.53.556,eb_02psyexp,2022.2.4,99.93719535836568,
183,0,183,0,,,,,,,,,,,,,,,,,,,,,,,,,,,,,,,,,,,,,,,,,,,,,,,,,,,,,,,,,,,468.12994731601793,468.12994731601793,468.12994731601793,468.12994731601793,468.12994731601793,468.12994731601793,s,1,0.9845007765106857,469.1305564392824,470.15129772247747,,,,,,,,,,,,,,,,,,,,,,,,,,,,,,,,,,,,,,,997751,2023-05-16_15h06.53.556,eb_02psyexp,2022.2.4,99.93719535836568,
184,0,184,0,,,,,,,,,,,,,,,,,,,,,,,,,,,,,,,,,,,,,,,,,,,,,,,,,,,,,,,,,,,470.15129772247747,470.15129772247747,470.15129772247747,470.15129772247747,470.15129772247747,470.15129772247747,s,1,4.186161346966401,474.35393506346736,475.3846185191069,,,,,,,,,,,,,,,,,,,,,,,,,,,,,,,,,,,,,,,997751,2023-05-16_15h06.53.556,eb_02psyexp,2022.2.4,99.93719535836568,
185,0,185,0,,,,,,,,,,,,,,,,,,,,,,,,,,,,,,,,,,,,,,,,,,,,,,,,,,,,,,,,,,,475.3846185191069,475.3846185191069,475.3846185191069,475.3846185191069,475.3846185191069,475.3846185191069,s,1,1.8328806835925207,477.2358119239798,478.25647533114534,,,,,,,,,,,,,,,,,,,,,,,,,,,,,,,,,,,,,,,997751,2023-05-16_15h06.53.556,eb_02psyexp,2022.2.4,99.93719535836568,
186,0,186,0,,,,,,,,,,,,,,,,,,,,,,,,,,,,,,,,,,,,,,,,,,,,,,,,,,,,,,,,,,,478.25647533114534,478.25647533114534,478.25647533114534,478.25647533114534,478.25647533114534,478.25647533114534,l,1,0.8970176270231605,479.1670642972458,480.187772981124,,,,,,,,,,,,,,,,,,,,,,,,,,,,,,,,,,,,,,,997751,2023-05-16_15h06.53.556,eb_02psyexp,2022.2.4,99.93719535836568,
187,0,187,0,,,,,,,,,,,,,,,,,,,,,,,,,,,,,,,,,,,,,,,,,,,,,,,,,,,,,,,,,,,480.187772981124,480.187772981124,480.187772981124,480.187772981124,480.187772981124,480.187772981124,l,1,0.717728906776756,480.9181833877228,481.94886322133243,,,,,,,,,,,,,,,,,,,,,,,,,,,,,,,,,,,,,,,997751,2023-05-16_15h06.53.556,eb_02psyexp,2022.2.4,99.93719535836568,
188,0,188,0,,,,,,,,,,,,,,,,,,,,,,,,,,,,,,,,,,,,,,,,,,,,,,,,,,,,,,,,,,,481.94886322133243,481.94886322133243,481.94886322133243,481.94886322133243,481.94886322133243,481.94886322133243,l,1,1.308664861950092,483.26968920219224,484.29037434223574,,,,,,,,,,,,,,,,,,,,,,,,,,,,,,,,,,,,,,,997751,2023-05-16_15h06.53.556,eb_02psyexp,2022.2.4,99.93719535836568,
189,0,189,0,,,,,,,,,,,,,,,,,,,,,,,,,,,,,,,,,,,,,,,,,,,,,,,,,,,,,,,,,,,484.29037434223574,484.29037434223574,484.29037434223574,484.29037434223574,484.29037434223574,484.29037434223574,s,1,0.823169422452338,485.13091201276984,486.1615843002219,,,,,,,,,,,,,,,,,,,,,,,,,,,,,,,,,,,,,,,997751,2023-05-16_15h06.53.556,eb_02psyexp,2022.2.4,99.93719535836568,
190,0,190,0,,,,,,,,,,,,,,,,,,,,,,,,,,,,,,,,,,,,,,,,,,,,,,,,,,,,,,,,,,,486.1615843002219,486.1615843002219,486.1615843002219,486.1615843002219,486.1615843002219,486.1615843002219,l,1,0.959984619054012,487.1322171908105,488.1529059528839,,,,,,,,,,,,,,,,,,,,,,,,,,,,,,,,,,,,,,,997751,2023-05-16_15h06.53.556,eb_02psyexp,2022.2.4,99.93719535836568,
191,0,191,0,,,,,,,,,,,,,,,,,,,,,,,,,,,,,,,,,,,,,,,,,,,,,,,,,,,,,,,,,,,488.1529059528839,488.1529059528839,488.1529059528839,488.1529059528839,488.1529059528839,488.1529059528839,l,1,0.9196704948553815,489.0834788730135,490.1141261071898,,,,,,,,,,,,,,,,,,,,,,,,,,,,,,,,,,,,,,,997751,2023-05-16_15h06.53.556,eb_02psyexp,2022.2.4,99.93719535836568,
192,0,192,0,,,,,,,,,,,,,,,,,,,,,,,,,,,,,,,,,,,,,,,,,,,,,,,,,,,,,,,,,,,490.1141261071898,490.1141261071898,490.1141261071898,490.1141261071898,490.1141261071898,490.1141261071898,l,1,1.246455802815035,491.3749437814113,492.3956102069933,,,,,,,,,,,,,,,,,,,,,,,,,,,,,,,,,,,,,,,997751,2023-05-16_15h06.53.556,eb_02psyexp,2022.2.4,99.93719535836568,
193,0,193,0,,,,,,,,,,,,,,,,,,,,,,,,,,,,,,,,,,,,,,,,,,,,,,,,,,,,,,,,,,,492.3956102069933,492.3956102069933,492.3956102069933,492.3956102069933,492.3956102069933,492.3956102069933,s,1,0.6929625198245049,493.1060559777543,494.1367303781444,,,,,,,,,,,,,,,,,,,,,,,,,,,,,,,,,,,,,,,997751,2023-05-16_15h06.53.556,eb_02psyexp,2022.2.4,99.93719535836568,
194,0,194,0,,,,,,,,,,,,,,,,,,,,,,,,,,,,,,,,,,,,,,,,,,,,,,,,,,,,,,,,,,,494.1367303781444,494.1367303781444,494.1367303781444,494.1367303781444,494.1367303781444,494.1367303781444,l,1,0.9358735376736149,495.08735637459904,496.11801266425755,,,,,,,,,,,,,,,,,,,,,,,,,,,,,,,,,,,,,,,997751,2023-05-16_15h06.53.556,eb_02psyexp,2022.2.4,99.93719535836568,
195,0,195,0,,,,,,,,,,,,,,,,,,,,,,,,,,,,,,,,,,,,,,,,,,,,,,,,,,,,,,,,,,,496.11801266425755,496.11801266425755,496.11801266425755,496.11801266425755,496.11801266425755,496.11801266425755,s,1,0.8345879191765562,496.96857974049635,497.98922443331685,,,,,,,,,,,,,,,,,,,,,,,,,,,,,,,,,,,,,,,997751,2023-05-16_15h06.53.556,eb_02psyexp,2022.2.4,99.93719535836568,
196,0,196,0,,,,,,,,,,,,,,,,,,,,,,,,,,,,,,,,,,,,,,,,,,,,,,,,,,,,,,,,,,,497.98922443331685,497.98922443331685,497.98922443331685,497.98922443331685,497.98922443331685,497.98922443331685,l,1,0.5394054870121181,498.53959241253324,499.5602860042127,,,,,,,,,,,,,,,,,,,,,,,,,,,,,,,,,,,,,,,997751,2023-05-16_15h06.53.556,eb_02psyexp,2022.2.4,99.93719535836568,
197,0,197,0,,,,,,,,,,,,,,,,,,,,,,,,,,,,,,,,,,,,,,,,,,,,,,,,,,,,,,,,,,,499.5602860042127,499.5602860042127,499.5602860042127,499.5602860042127,499.5602860042127,499.5602860042127,l,1,1.2723200003383681,500.8510756852338,501.881787816179,,,,,,,,,,,,,,,,,,,,,,,,,,,,,,,,,,,,,,,997751,2023-05-16_15h06.53.556,eb_02psyexp,2022.2.4,99.93719535836568,
198,0,198,0,,,,,,,,,,,,,,,,,,,,,,,,,,,,,,,,,,,,,,,,,,,,,,,,,,,,,,,,,,,501.881787816179,501.881787816179,501.881787816179,501.881787816179,501.881787816179,501.881787816179,s,1,0.7348561991238967,502.63221688894555,503.6529207433341,,,,,,,,,,,,,,,,,,,,,,,,,,,,,,,,,,,,,,,997751,2023-05-16_15h06.53.556,eb_02psyexp,2022.2.4,99.93719535836568,
199,0,199,0,,,,,0,0,0,0,,,,,,,,,,,,,,,,,,,,,,,,,,,,,,,,,,,,,,,,,,,,,,,,,,,503.6529207433341,503.6529207433341,503.6529207433341,503.6529207433341,503.6529207433341,503.6529207433341,l,1,0.7147237374447286,504.3833477514563,505.3840099995723,505.3840099995723,505.3840099995723,space,85.69911774422508,,,,,,,,,,,,,,,,,,,,,,,,,,,,,,,,,,,997751,2023-05-16_15h06.53.556,eb_02psyexp,2022.2.4,99.93719535836568,
199,0,199,0,,,,,,,,,,,,,,,,,,,,,,,,,,,,,,,,,,,,,,,,,,,,,,,,,,,,,,,,,,,,,,,,,,,,,,,,,,,,,,,,,,,,,,,,,,,,,,,,,,,,,,,,,,,,997751,2023-05-16_15h06.53.556,eb_02psyexp,2022.2.4,99.93719535836568,
200,0,200,0,,,,,,,,,,,,,,,,,,,,,,,,,,,,,,,,,,,,,,,,,,,,,,,,,,,,,,,,,,,591.1297179136891,591.1297179136891,591.1297179136891,591.1297179136891,591.1297179136891,591.1297179136891,s,1,2.905443329946138,594.0512650627643,595.0819494239986,,,,,,,,,,,,,,,,,,,,,,,,,,,,,,,,,,,,,,,997751,2023-05-16_15h06.53.556,eb_02psyexp,2022.2.4,99.93719535836568,
201,0,201,0,,,,,,,,,,,,,,,,,,,,,,,,,,,,,,,,,,,,,,,,,,,,,,,,,,,,,,,,,,,595.0819494239986,595.0819494239986,595.0819494239986,595.0819494239986,595.0819494239986,595.0819494239986,s,1,2.968233742634766,598.0638746401528,599.0945423998637,,,,,,,,,,,,,,,,,,,,,,,,,,,,,,,,,,,,,,,997751,2023-05-16_15h06.53.556,eb_02psyexp,2022.2.4,99.93719535836568,
202,0,202,0,,,,,,,,,,,,,,,,,,,,,,,,,,,,,,,,,,,,,,,,,,,,,,,,,,,,,,,,,,,599.0945423998637,599.0945423998637,599.0945423998637,599.0945423998637,599.0945423998637,599.0945423998637,s,1,3.5956570302369073,602.7068634736352,603.7275302010821,,,,,,,,,,,,,,,,,,,,,,,,,,,,,,,,,,,,,,,997751,2023-05-16_15h06.53.556,eb_02psyexp,2022.2.4,99.93719535836568,
203,0,203,0,,,,,,,,,,,,,,,,,,,,,,,,,,,,,,,,,,,,,,,,,,,,,,,,,,,,,,,,,,,603.7275302010821,603.7275302010821,603.7275302010821,603.7275302010821,603.7275302010821,603.7275302010821,l,1,0.8746611709939316,604.618099293788,605.638773869141,,,,,,,,,,,,,,,,,,,,,,,,,,,,,,,,,,,,,,,997751,2023-05-16_15h06.53.556,eb_02psyexp,2022.2.4,99.93719535836568,
204,0,204,0,,,,,,,,,,,,,,,,,,,,,,,,,,,,,,,,,,,,,,,,,,,,,,,,,,,,,,,,,,,605.638773869141,605.638773869141,605.638773869141,605.638773869141,605.638773869141,605.638773869141,l,1,1.499448143877089,607.1497347687837,608.1704546209658,,,,,,,,,,,,,,,,,,,,,,,,,,,,,,,,,,,,,,,997751,2023-05-16_15h06.53.556,eb_02psyexp,2022.2.4,99.93719535836568,
205,0,205,0,,,,,,,,,,,,,,,,,,,,,,,,,,,,,,,,,,,,,,,,,,,,,,,,,,,,,,,,,,,608.1704546209658,608.1704546209658,608.1704546209658,608.1704546209658,608.1704546209658,608.1704546209658,l,1,1.295790868345648,609.481248177588,610.5019121884834,,,,,,,,,,,,,,,,,,,,,,,,,,,,,,,,,,,,,,,997751,2023-05-16_15h06.53.556,eb_02psyexp,2022.2.4,99.93719535836568,
206,0,206,0,,,,,,,,,,,,,,,,,,,,,,,,,,,,,,,,,,,,,,,,,,,,,,,,,,,,,,,,,,,610.5019121884834,610.5019121884834,610.5019121884834,610.5019121884834,610.5019121884834,610.5019121884834,s,1,1.636354497517459,612.1529756791424,613.1736433120677,,,,,,,,,,,,,,,,,,,,,,,,,,,,,,,,,,,,,,,997751,2023-05-16_15h06.53.556,eb_02psyexp,2022.2.4,99.93719535836568,
207,0,207,0,,,,,,,,,,,,,,,,,,,,,,,,,,,,,,,,,,,,,,,,,,,,,,,,,,,,,,,,,,,613.1736433120677,613.1736433120677,613.1736433120677,613.1736433120677,613.1736433120677,613.1736433120677,l,1,0.7956480955472216,613.9841606805567,615.004882041947,,,,,,,,,,,,,,,,,,,,,,,,,,,,,,,,,,,,,,,997751,2023-05-16_15h06.53.556,eb_02psyexp,2022.2.4,99.93719535836568,
208,0,208,0,,,,,,,,,,,,,,,,,,,,,,,,,,,,,,,,,,,,,,,,,,,,,,,,,,,,,,,,,,,615.004882041947,615.004882041947,615.004882041947,615.004882041947,615.004882041947,615.004882041947,l,1,0.8684027155395597,615.8853689059615,616.9160517579876,,,,,,,,,,,,,,,,,,,,,,,,,,,,,,,,,,,,,,,997751,2023-05-16_15h06.53.556,eb_02psyexp,2022.2.4,99.93719535836568,
209,0,209,0,,,,,,,,,,,,,,,,,,,,,,,,,,,,,,,,,,,,,,,,,,,,,,,,,,,,,,,,,,,616.9160517579876,616.9160517579876,616.9160517579876,616.9160517579876,616.9160517579876,616.9160517579876,l,1,0.6692399128805846,617.5964886967558,618.6171533113811,,,,,,,,,,,,,,,,,,,,,,,,,,,,,,,,,,,,,,,997751,2023-05-16_15h06.53.556,eb_02psyexp,2022.2.4,99.93719535836568,
210,0,210,0,,,,,,,,,,,,,,,,,,,,,,,,,,,,,,,,,,,,,,,,,,,,,,,,,,,,,,,,,,,618.6171533113811,618.6171533113811,618.6171533113811,618.6171533113811,618.6171533113811,618.6171533113811,l,1,0.9761671362211928,619.6077894739574,620.6384614595445,,,,,,,,,,,,,,,,,,,,,,,,,,,,,,,,,,,,,,,997751,2023-05-16_15h06.53.556,eb_02psyexp,2022.2.4,99.93719535836568,
211,0,211,0,,,,,,,,,,,,,,,,,,,,,,,,,,,,,,,,,,,,,,,,,,,,,,,,,,,,,,,,,,,620.6384614595445,620.6384614595445,620.6384614595445,620.6384614595445,620.6384614595445,620.6384614595445,l,1,0.6028587514301762,621.2588668494718,622.2795622522244,,,,,,,,,,,,,,,,,,,,,,,,,,,,,,,,,,,,,,,997751,2023-05-16_15h06.53.556,eb_02psyexp,2022.2.4,99.93719535836568,
212,0,212,0,,,,,,,,,,,,,,,,,,,,,,,,,,,,,,,,,,,,,,,,,,,,,,,,,,,,,,,,,,,622.2795622522244,622.2795622522244,622.2795622522244,622.2795622522244,622.2795622522244,622.2795622522244,l,1,0.7457654831232503,623.0400098642567,624.0606793083716,,,,,,,,,,,,,,,,,,,,,,,,,,,,,,,,,,,,,,,997751,2023-05-16_15h06.53.556,eb_02psyexp,2022.2.4,99.93719535836568,
213,0,213,0,,,,,,,,,,,,,,,,,,,,,,,,,,,,,,,,,,,,,,,,,,,,,,,,,,,,,,,,,,,624.0606793083716,624.0606793083716,624.0606793083716,624.0606793083716,624.0606793083716,624.0606793083716,l,1,0.6286514117382467,624.7010798205156,625.721794843208,,,,,,,,,,,,,,,,,,,,,,,,,,,,,,,,,,,,,,,997751,2023-05-16_15h06.53.556,eb_02psyexp,2022.2.4,99.93719535836568,
214,0,214,0,,,,,,,,,,,,,,,,,,,,,,,,,,,,,,,,,,,,,,,,,,,,,,,,,,,,,,,,,,,625.721794843208,625.721794843208,625.721794843208,625.721794843208,625.721794843208,625.721794843208,l,1,0.7595794221851975,626.4922308099922,627.5129014614504,,,,,,,,,,,,,,,,,,,,,,,,,,,,,,,,,,,,,,,997751,2023-05-16_15h06.53.556,eb_02psyexp,2022.2.4,99.93719535836568,
215,0,215,0,,,,,,,,,,,,,,,,,,,,,,,,,,,,,,,,,,,,,,,,,,,,,,,,,,,,,,,,,,,627.5129014614504,627.5129014614504,627.5129014614504,627.5129014614504,627.5129014614504,627.5129014614504,l,1,0.6874514325754717,628.2133682346903,629.2440175819211,,,,,,,,,,,,,,,,,,,,,,,,,,,,,,,,,,,,,,,997751,2023-05-16_15h06.53.556,eb_02psyexp,2022.2.4,99.93719535836568,
216,0,216,0,,,,,,,,,,,,,,,,,,,,,,,,,,,,,,,,,,,,,,,,,,,,,,,,,,,,,,,,,,,629.2440175819211,629.2440175819211,629.2440175819211,629.2440175819211,629.2440175819211,629.2440175819211,s,1,0.6443346772575751,629.9044563800562,630.9251046949066,,,,,,,,,,,,,,,,,,,,,,,,,,,,,,,,,,,,,,,997751,2023-05-16_15h06.53.556,eb_02psyexp,2022.2.4,99.93719535836568,
217,0,217,0,,,,,,,,,,,,,,,,,,,,,,,,,,,,,,,,,,,,,,,,,,,,,,,,,,,,,,,,,,,630.9251046949066,630.9251046949066,630.9251046949066,630.9251046949066,630.9251046949066,630.9251046949066,l,1,1.5712311244569719,632.5161230537342,633.5467920209048,,,,,,,,,,,,,,,,,,,,,,,,,,,,,,,,,,,,,,,997751,2023-05-16_15h06.53.556,eb_02psyexp,2022.2.4,99.93719535836568,
218,0,218,0,,,,,,,,,,,,,,,,,,,,,,,,,,,,,,,,,,,,,,,,,,,,,,,,,,,,,,,,,,,633.5467920209048,633.5467920209048,633.5467920209048,633.5467920209048,633.5467920209048,633.5467920209048,s,1,1.4135964668821543,634.9777196089271,635.9983821104979,,,,,,,,,,,,,,,,,,,,,,,,,,,,,,,,,,,,,,,997751,2023-05-16_15h06.53.556,eb_02psyexp,2022.2.4,99.93719535836568,
219,0,219,0,,,,,,,,,,,,,,,,,,,,,,,,,,,,,,,,,,,,,,,,,,,,,,,,,,,,,,,,,,,635.9983821104979,635.9983821104979,635.9983821104979,635.9983821104979,635.9983821104979,635.9983821104979,l,1,0.6740039335563779,636.688825816731,637.7094964680728,,,,,,,,,,,,,,,,,,,,,,,,,,,,,,,,,,,,,,,997751,2023-05-16_15h06.53.556,eb_02psyexp,2022.2.4,99.93719535836568,
220,0,220,0,,,,,,,,,,,,,,,,,,,,,,,,,,,,,,,,,,,,,,,,,,,,,,,,,,,,,,,,,,,637.7094964680728,637.7094964680728,637.7094964680728,637.7094964680728,637.7094964680728,637.7094964680728,l,1,1.618916908511892,639.3405243894085,640.3712093542563,,,,,,,,,,,,,,,,,,,,,,,,,,,,,,,,,,,,,,,997751,2023-05-16_15h06.53.556,eb_02psyexp,2022.2.4,99.93719535836568,
221,0,221,0,,,,,,,,,,,,,,,,,,,,,,,,,,,,,,,,,,,,,,,,,,,,,,,,,,,,,,,,,,,640.3712093542563,640.3712093542563,640.3712093542563,640.3712093542563,640.3712093542563,640.3712093542563,s,1,0.7331869958434254,641.1216987960506,642.1423531478504,,,,,,,,,,,,,,,,,,,,,,,,,,,,,,,,,,,,,,,997751,2023-05-16_15h06.53.556,eb_02psyexp,2022.2.4,99.93719535836568,
222,0,222,0,,,,,,,,,,,,,,,,,,,,,,,,,,,,,,,,,,,,,,,,,,,,,,,,,,,,,,,,,,,642.1423531478504,642.1423531478504,642.1423531478504,642.1423531478504,642.1423531478504,642.1423531478504,l,1,0.7060538417426869,642.862799045397,643.8835104459431,,,,,,,,,,,,,,,,,,,,,,,,,,,,,,,,,,,,,,,997751,2023-05-16_15h06.53.556,eb_02psyexp,2022.2.4,99.93719535836568,
223,0,223,0,,,,,,,,,,,,,,,,,,,,,,,,,,,,,,,,,,,,,,,,,,,,,,,,,,,,,,,,,,,643.8835104459431,643.8835104459431,643.8835104459431,643.8835104459431,643.8835104459431,643.8835104459431,l,1,0.587914100731723,644.4838627595454,645.5045294869924,,,,,,,,,,,,,,,,,,,,,,,,,,,,,,,,,,,,,,,997751,2023-05-16_15h06.53.556,eb_02psyexp,2022.2.4,99.93719535836568,
224,0,224,0,,,,,,,,,,,,,,,,,,,,,,,,,,,,,,,,,,,,,,,,,,,,,,,,,,,,,,,,,,,645.5045294869924,645.5045294869924,645.5045294869924,645.5045294869924,645.5045294869924,645.5045294869924,l,1,0.486916140653193,646.0048446131404,647.0355165987276,,,,,,,,,,,,,,,,,,,,,,,,,,,,,,,,,,,,,,,997751,2023-05-16_15h06.53.556,eb_02psyexp,2022.2.4,99.93719535836568,
225,0,225,0,,,,,,,,,,,,,,,,,,,,,,,,,,,,,,,,,,,,,,,,,,,,,,,,,,,,,,,,,,,647.0355165987276,647.0355165987276,647.0355165987276,647.0355165987276,647.0355165987276,647.0355165987276,s,1,0.8679740955121815,647.9160701704677,648.9367359924363,,,,,,,,,,,,,,,,,,,,,,,,,,,,,,,,,,,,,,,997751,2023-05-16_15h06.53.556,eb_02psyexp,2022.2.4,99.93719535836568,
226,0,226,0,,,,,,,,,,,,,,,,,,,,,,,,,,,,,,,,,,,,,,,,,,,,,,,,,,,,,,,,,,,648.9367359924363,648.9367359924363,648.9367359924363,648.9367359924363,648.9367359924363,648.9367359924363,l,1,0.5107208493864164,649.4670687041944,650.4977443119278,,,,,,,,,,,,,,,,,,,,,,,,,,,,,,,,,,,,,,,997751,2023-05-16_15h06.53.556,eb_02psyexp,2022.2.4,99.93719535836568,
227,0,227,0,,,,,,,,,,,,,,,,,,,,,,,,,,,,,,,,,,,,,,,,,,,,,,,,,,,,,,,,,,,650.4977443119278,650.4977443119278,650.4977443119278,650.4977443119278,650.4977443119278,650.4977443119278,s,1,1.229733586544171,651.7385553936474,652.7592106510419,,,,,,,,,,,,,,,,,,,,,,,,,,,,,,,,,,,,,,,997751,2023-05-16_15h06.53.556,eb_02psyexp,2022.2.4,99.93719535836568,
228,0,228,0,,,,,,,,,,,,,,,,,,,,,,,,,,,,,,,,,,,,,,,,,,,,,,,,,,,,,,,,,,,652.7592106510419,652.7592106510419,652.7592106510419,652.7592106510419,652.7592106510419,652.7592106510419,l,1,0.6962957946816459,653.4696666846285,654.4903309972724,,,,,,,,,,,,,,,,,,,,,,,,,,,,,,,,,,,,,,,997751,2023-05-16_15h06.53.556,eb_02psyexp,2022.2.4,99.93719535836568,
229,0,229,0,,,,,,,,,,,,,,,,,,,,,,,,,,,,,,,,,,,,,,,,,,,,,,,,,,,,,,,,,,,654.4903309972724,654.4903309972724,654.4903309972724,654.4903309972724,654.4903309972724,654.4903309972724,l,1,1.2771540489047766,655.7811529756291,656.8018254381604,,,,,,,,,,,,,,,,,,,,,,,,,,,,,,,,,,,,,,,997751,2023-05-16_15h06.53.556,eb_02psyexp,2022.2.4,99.93719535836568,
230,0,230,0,,,,,,,,,,,,,,,,,,,,,,,,,,,,,,,,,,,,,,,,,,,,,,,,,,,,,,,,,,,656.8018254381604,656.8018254381604,656.8018254381604,656.8018254381604,656.8018254381604,656.8018254381604,l,1,0.7177089849719778,657.5322947045788,658.5530009737704,,,,,,,,,,,,,,,,,,,,,,,,,,,,,,,,,,,,,,,997751,2023-05-16_15h06.53.556,eb_02psyexp,2022.2.4,99.93719535836568,
231,0,231,0,,,,,,,,,,,,,,,,,,,,,,,,,,,,,,,,,,,,,,,,,,,,,,,,,,,,,,,,,,,658.5530009737704,658.5530009737704,658.5530009737704,658.5530009737704,658.5530009737704,658.5530009737704,s,1,0.8615363441640511,659.433517418569,660.4541841460159,,,,,,,,,,,,,,,,,,,,,,,,,,,,,,,,,,,,,,,997751,2023-05-16_15h06.53.556,eb_02psyexp,2022.2.4,99.93719535836568,
232,0,232,0,,,,,,,,,,,,,,,,,,,,,,,,,,,,,,,,,,,,,,,,,,,,,,,,,,,,,,,,,,,660.4541841460159,660.4541841460159,660.4541841460159,660.4541841460159,660.4541841460159,660.4541841460159,l,1,0.6563713526120409,661.1246330318972,662.1453175682109,,,,,,,,,,,,,,,,,,,,,,,,,,,,,,,,,,,,,,,997751,2023-05-16_15h06.53.556,eb_02psyexp,2022.2.4,99.93719535836568,
233,0,233,0,,,,,,,,,,,,,,,,,,,,,,,,,,,,,,,,,,,,,,,,,,,,,,,,,,,,,,,,,,,662.1453175682109,662.1453175682109,662.1453175682109,662.1453175682109,662.1453175682109,662.1453175682109,s,1,1.4372285201679915,663.5962116030278,664.6168774249963,,,,,,,,,,,,,,,,,,,,,,,,,,,,,,,,,,,,,,,997751,2023-05-16_15h06.53.556,eb_02psyexp,2022.2.4,99.93719535836568,
234,0,234,0,,,,,,,,,,,,,,,,,,,,,,,,,,,,,,,,,,,,,,,,,,,,,,,,,,,,,,,,,,,664.6168774249963,664.6168774249963,664.6168774249963,664.6168774249963,664.6168774249963,664.6168774249963,l,1,0.7177328307880089,665.3473418618087,666.3680043634959,,,,,,,,,,,,,,,,,,,,,,,,,,,,,,,,,,,,,,,997751,2023-05-16_15h06.53.556,eb_02psyexp,2022.2.4,99.93719535836568,
235,0,235,0,,,,,,,,,,,,,,,,,,,,,,,,,,,,,,,,,,,,,,,,,,,,,,,,,,,,,,,,,,,666.3680043634959,666.3680043634959,666.3680043634959,666.3680043634959,666.3680043634959,666.3680043634959,l,1,0.6625615910161287,667.048433756223,668.079111476778,,,,,,,,,,,,,,,,,,,,,,,,,,,,,,,,,,,,,,,997751,2023-05-16_15h06.53.556,eb_02psyexp,2022.2.4,99.93719535836568,
236,0,236,0,,,,,,,,,,,,,,,,,,,,,,,,,,,,,,,,,,,,,,,,,,,,,,,,,,,,,,,,,,,668.079111476778,668.079111476778,668.079111476778,668.079111476778,668.079111476778,668.079111476778,s,1,0.5355047433404252,668.6294767395593,669.650222852244,,,,,,,,,,,,,,,,,,,,,,,,,,,,,,,,,,,,,,,997751,2023-05-16_15h06.53.556,eb_02psyexp,2022.2.4,99.93719535836568,
237,0,237,0,,,,,,,,,,,,,,,,,,,,,,,,,,,,,,,,,,,,,,,,,,,,,,,,,,,,,,,,,,,669.650222852244,669.650222852244,669.650222852244,669.650222852244,669.650222852244,669.650222852244,l,1,0.6763580231927335,670.3405880787177,671.3712380295619,,,,,,,,,,,,,,,,,,,,,,,,,,,,,,,,,,,,,,,997751,2023-05-16_15h06.53.556,eb_02psyexp,2022.2.4,99.93719535836568,
238,0,238,0,,,,,,,,,,,,,,,,,,,,,,,,,,,,,,,,,,,,,,,,,,,,,,,,,,,,,,,,,,,671.3712380295619,671.3712380295619,671.3712380295619,671.3712380295619,671.3712380295619,671.3712380295619,l,1,0.6833665635203943,672.0716987658525,673.0923482881626,,,,,,,,,,,,,,,,,,,,,,,,,,,,,,,,,,,,,,,997751,2023-05-16_15h06.53.556,eb_02psyexp,2022.2.4,99.93719535836568,
239,0,239,0,,,,,,,,,,,,,,,,,,,,,,,,,,,,,,,,,,,,,,,,,,,,,,,,,,,,,,,,,,,673.0923482881626,673.0923482881626,673.0923482881626,673.0923482881626,673.0923482881626,673.0923482881626,s,1,0.9302628417499363,674.0329527268186,675.0636464452837,,,,,,,,,,,,,,,,,,,,,,,,,,,,,,,,,,,,,,,997751,2023-05-16_15h06.53.556,eb_02psyexp,2022.2.4,99.93719535836568,
240,0,240,0,,,,,,,,,,,,,,,,,,,,,,,,,,,,,,,,,,,,,,,,,,,,,,,,,,,,,,,,,,,675.0636464452837,675.0636464452837,675.0636464452837,675.0636464452837,675.0636464452837,675.0636464452837,s,1,1.637996232835576,676.7146900141379,677.7453556610271,,,,,,,,,,,,,,,,,,,,,,,,,,,,,,,,,,,,,,,997751,2023-05-16_15h06.53.556,eb_02psyexp,2022.2.4,99.93719535836568,
241,0,241,0,,,,,,,,,,,,,,,,,,,,,,,,,,,,,,,,,,,,,,,,,,,,,,,,,,,,,,,,,,,677.7453556610271,677.7453556610271,677.7453556610271,677.7453556610271,677.7453556610271,677.7453556610271,s,1,0.9002832886762917,678.6559560972964,679.6866253662156,,,,,,,,,,,,,,,,,,,,,,,,,,,,,,,,,,,,,,,997751,2023-05-16_15h06.53.556,eb_02psyexp,2022.2.4,99.93719535836568,
242,0,242,0,,,,,,,,,,,,,,,,,,,,,,,,,,,,,,,,,,,,,,,,,,,,,,,,,,,,,,,,,,,679.6866253662156,679.6866253662156,679.6866253662156,679.6866253662156,679.6866253662156,679.6866253662156,s,1,0.7430310688214377,680.447098937002,681.467784378794,,,,,,,,,,,,,,,,,,,,,,,,,,,,,,,,,,,,,,,997751,2023-05-16_15h06.53.556,eb_02psyexp,2022.2.4,99.93719535836568,
243,0,243,0,,,,,,,,,,,,,,,,,,,,,,,,,,,,,,,,,,,,,,,,,,,,,,,,,,,,,,,,,,,681.467784378794,681.467784378794,681.467784378794,681.467784378794,681.467784378794,681.467784378794,l,1,1.1378709671553224,682.6184928996954,683.639156306861,,,,,,,,,,,,,,,,,,,,,,,,,,,,,,,,,,,,,,,997751,2023-05-16_15h06.53.556,eb_02psyexp,2022.2.4,99.93719535836568,
244,0,244,0,,,,,,,,,,,,,,,,,,,,,,,,,,,,,,,,,,,,,,,,,,,,,,,,,,,,,,,,,,,683.639156306861,683.639156306861,683.639156306861,683.639156306861,683.639156306861,683.639156306861,l,1,0.7105093767168,684.3596366147976,685.3902678512968,,,,,,,,,,,,,,,,,,,,,,,,,,,,,,,,,,,,,,,997751,2023-05-16_15h06.53.556,eb_02psyexp,2022.2.4,99.93719535836568,
245,0,245,0,,,,,,,,,,,,,,,,,,,,,,,,,,,,,,,,,,,,,,,,,,,,,,,,,,,,,,,,,,,685.3902678512968,685.3902678512968,685.3902678512968,685.3902678512968,685.3902678512968,685.3902678512968,s,1,0.6314274807227775,686.040748479194,687.0613669113955,,,,,,,,,,,,,,,,,,,,,,,,,,,,,,,,,,,,,,,997751,2023-05-16_15h06.53.556,eb_02psyexp,2022.2.4,99.93719535836568,
246,0,246,0,,,,,,,,,,,,,,,,,,,,,,,,,,,,,,,,,,,,,,,,,,,,,,,,,,,,,,,,,,,687.0613669113955,687.0613669113955,687.0613669113955,687.0613669113955,687.0613669113955,687.0613669113955,l,1,1.5683433727826923,688.6424053669907,689.6730613547843,,,,,,,,,,,,,,,,,,,,,,,,,,,,,,,,,,,,,,,997751,2023-05-16_15h06.53.556,eb_02psyexp,2022.2.4,99.93719535836568,
247,0,247,0,,,,,,,,,,,,,,,,,,,,,,,,,,,,,,,,,,,,,,,,,,,,,,,,,,,,,,,,,,,689.6730613547843,689.6730613547843,689.6730613547843,689.6730613547843,689.6730613547843,689.6730613547843,s,1,0.6356681018369272,690.3234791989671,691.3441398894647,,,,,,,,,,,,,,,,,,,,,,,,,,,,,,,,,,,,,,,997751,2023-05-16_15h06.53.556,eb_02psyexp,2022.2.4,99.93719535836568,
248,0,248,0,,,,,,,,,,,,,,,,,,,,,,,,,,,,,,,,,,,,,,,,,,,,,,,,,,,,,,,,,,,691.3441398894647,691.3441398894647,691.3441398894647,691.3441398894647,691.3441398894647,691.3441398894647,l,1,0.6445864159613848,692.0045669156825,693.0352337699151,,,,,,,,,,,,,,,,,,,,,,,,,,,,,,,,,,,,,,,997751,2023-05-16_15h06.53.556,eb_02psyexp,2022.2.4,99.93719535836568,
249,0,249,0,,,,,,,,,,,,,,,,,,,,,,,,,,,,,,,,,,,,,,,,,,,,,,,,,,,,,,,,,,,693.0352337699151,693.0352337699151,693.0352337699151,693.0352337699151,693.0352337699151,693.0352337699151,s,1,1.49750999675598,694.5462088562781,695.5768871805631,,,,,,,,,,,,,,,,,,,,,,,,,,,,,,,,,,,,,,,997751,2023-05-16_15h06.53.556,eb_02psyexp,2022.2.4,99.93719535836568,
250,0,250,0,,,,,,,,,,,,,,,,,,,,,,,,,,,,,,,,,,,,,,,,,,,,,,,,,,,,,,,,,,,695.5768871805631,695.5768871805631,695.5768871805631,695.5768871805631,695.5768871805631,695.5768871805631,s,1,1.35585924226325,696.94775846845,697.9684215737507,,,,,,,,,,,,,,,,,,,,,,,,,,,,,,,,,,,,,,,997751,2023-05-16_15h06.53.556,eb_02psyexp,2022.2.4,99.93719535836568,
251,0,251,0,,,,,,,,,,,,,,,,,,,,,,,,,,,,,,,,,,,,,,,,,,,,,,,,,,,,,,,,,,,697.9684215737507,697.9684215737507,697.9684215737507,697.9684215737507,697.9684215737507,697.9684215737507,s,1,0.6283420205581933,698.6088196710916,699.6394937696168,,,,,,,,,,,,,,,,,,,,,,,,,,,,,,,,,,,,,,,997751,2023-05-16_15h06.53.556,eb_02psyexp,2022.2.4,99.93719535836568,
252,0,252,0,,,,,,,,,,,,,,,,,,,,,,,,,,,,,,,,,,,,,,,,,,,,,,,,,,,,,,,,,,,699.6394937696168,699.6394937696168,699.6394937696168,699.6394937696168,699.6394937696168,699.6394937696168,l,1,0.9492639881791547,700.6001180817839,701.6207805833546,,,,,,,,,,,,,,,,,,,,,,,,,,,,,,,,,,,,,,,997751,2023-05-16_15h06.53.556,eb_02psyexp,2022.2.4,99.93719535836568,
253,0,253,0,,,,,,,,,,,,,,,,,,,,,,,,,,,,,,,,,,,,,,,,,,,,,,,,,,,,,,,,,,,701.6207805833546,701.6207805833546,701.6207805833546,701.6207805833546,701.6207805833546,701.6207805833546,s,1,1.4719817526638508,703.1117759415647,704.1424080836587,,,,,,,,,,,,,,,,,,,,,,,,,,,,,,,,,,,,,,,997751,2023-05-16_15h06.53.556,eb_02psyexp,2022.2.4,99.93719535836568,
254,0,254,0,,,,,,,,,,,,,,,,,,,,,,,,,,,,,,,,,,,,,,,,,,,,,,,,,,,,,,,,,,,704.1424080836587,704.1424080836587,704.1424080836587,704.1424080836587,704.1424080836587,704.1424080836587,l,0,0.8463810055982322,705.0029632129008,706.0236746134469,,,,,,,,,,,,,,,,,,,,,,,,,,,,,,,,,,,,,,,997751,2023-05-16_15h06.53.556,eb_02psyexp,2022.2.4,99.93719535836568,
255,0,255,0,,,,,,,,,,,,,,,,,,,,,,,,,,,,,,,,,,,,,,,,,,,,,,,,,,,,,,,,,,,706.0236746134469,706.0236746134469,706.0236746134469,706.0236746134469,706.0236746134469,706.0236746134469,l,1,1.0761339938035235,707.1143422282767,708.1450178360101,,,,,,,,,,,,,,,,,,,,,,,,,,,,,,,,,,,,,,,997751,2023-05-16_15h06.53.556,eb_02psyexp,2022.2.4,99.93719535836568,
256,0,256,0,,,,,,,,,,,,,,,,,,,,,,,,,,,,,,,,,,,,,,,,,,,,,,,,,,,,,,,,,,,708.1450178360101,708.1450178360101,708.1450178360101,708.1450178360101,708.1450178360101,708.1450178360101,l,1,1.2508186713093892,709.4058077404043,710.4264693364967,,,,,,,,,,,,,,,,,,,,,,,,,,,,,,,,,,,,,,,997751,2023-05-16_15h06.53.556,eb_02psyexp,2022.2.4,99.93719535836568,
257,0,257,0,,,,,,,,,,,,,,,,,,,,,,,,,,,,,,,,,,,,,,,,,,,,,,,,,,,,,,,,,,,710.4264693364967,710.4264693364967,710.4264693364967,710.4264693364967,710.4264693364967,710.4264693364967,s,1,0.7773502481868491,711.2169764904538,712.2476472686976,,,,,,,,,,,,,,,,,,,,,,,,,,,,,,,,,,,,,,,997751,2023-05-16_15h06.53.556,eb_02psyexp,2022.2.4,99.93719535836568,
258,0,258,0,,,,,,,,,,,,,,,,,,,,,,,,,,,,,,,,,,,,,,,,,,,,,,,,,,,,,,,,,,,712.2476472686976,712.2476472686976,712.2476472686976,712.2476472686976,712.2476472686976,712.2476472686976,s,1,1.4441893689800054,713.7085888200672,714.7292639991501,,,,,,,,,,,,,,,,,,,,,,,,,,,,,,,,,,,,,,,997751,2023-05-16_15h06.53.556,eb_02psyexp,2022.2.4,99.93719535836568,
259,0,259,0,,,,,,,,,,,,,,,,,,,,,,,,,,,,,,,,,,,,,,,,,,,,,,,,,,,,,,,,,,,714.7292639991501,714.7292639991501,714.7292639991501,714.7292639991501,714.7292639991501,714.7292639991501,s,1,0.7225858956808224,715.4697273554048,716.4903820090694,,,,,,,,,,,,,,,,,,,,,,,,,,,,,,,,,,,,,,,997751,2023-05-16_15h06.53.556,eb_02psyexp,2022.2.4,99.93719535836568,
260,0,260,0,,,,,,,,,,,,,,,,,,,,,,,,,,,,,,,,,,,,,,,,,,,,,,,,,,,,,,,,,,,716.4903820090694,716.4903820090694,716.4903820090694,716.4903820090694,716.4903820090694,716.4903820090694,l,1,0.7374747049761936,717.2408629991114,718.2615357635077,,,,,,,,,,,,,,,,,,,,,,,,,,,,,,,,,,,,,,,997751,2023-05-16_15h06.53.556,eb_02psyexp,2022.2.4,99.93719535836568,
261,0,261,0,,,,,,,,,,,,,,,,,,,,,,,,,,,,,,,,,,,,,,,,,,,,,,,,,,,,,,,,,,,718.2615357635077,718.2615357635077,718.2615357635077,718.2615357635077,718.2615357635077,718.2615357635077,s,1,0.8863377451198176,719.1621107179672,720.1827738232678,,,,,,,,,,,,,,,,,,,,,,,,,,,,,,,,,,,,,,,997751,2023-05-16_15h06.53.556,eb_02psyexp,2022.2.4,99.93719535836568,
262,0,262,0,,,,,,,,,,,,,,,,,,,,,,,,,,,,,,,,,,,,,,,,,,,,,,,,,,,,,,,,,,,720.1827738232678,720.1827738232678,720.1827738232678,720.1827738232678,720.1827738232678,720.1827738232678,l,1,0.6841398905962706,720.8832381817047,721.9038849873468,,,,,,,,,,,,,,,,,,,,,,,,,,,,,,,,,,,,,,,997751,2023-05-16_15h06.53.556,eb_02psyexp,2022.2.4,99.93719535836568,
263,0,263,0,,,,,,,,,,,,,,,,,,,,,,,,,,,,,,,,,,,,,,,,,,,,,,,,,,,,,,,,,,,721.9038849873468,721.9038849873468,721.9038849873468,721.9038849873468,721.9038849873468,721.9038849873468,s,1,1.0350033787544817,722.9545599430567,723.9752278779633,,,,,,,,,,,,,,,,,,,,,,,,,,,,,,,,,,,,,,,997751,2023-05-16_15h06.53.556,eb_02psyexp,2022.2.4,99.93719535836568,
264,0,264,0,,,,,,,,,,,,,,,,,,,,,,,,,,,,,,,,,,,,,,,,,,,,,,,,,,,,,,,,,,,723.9752278779633,723.9752278779633,723.9752278779633,723.9752278779633,723.9752278779633,723.9752278779633,l,1,0.6517054316354915,724.6456550309667,725.6663157214643,,,,,,,,,,,,,,,,,,,,,,,,,,,,,,,,,,,,,,,997751,2023-05-16_15h06.53.556,eb_02psyexp,2022.2.4,99.93719535836568,
265,0,265,0,,,,,,,,,,,,,,,,,,,,,,,,,,,,,,,,,,,,,,,,,,,,,,,,,,,,,,,,,,,725.6663157214643,725.6663157214643,725.6663157214643,725.6663157214643,725.6663157214643,725.6663157214643,s,1,1.1685840035788715,726.8470587312477,727.8777605994837,,,,,,,,,,,,,,,,,,,,,,,,,,,,,,,,,,,,,,,997751,2023-05-16_15h06.53.556,eb_02psyexp,2022.2.4,99.93719535836568,
266,0,266,0,,,,,,,,,,,,,,,,,,,,,,,,,,,,,,,,,,,,,,,,,,,,,,,,,,,,,,,,,,,727.8777605994837,727.8777605994837,727.8777605994837,727.8777605994837,727.8777605994837,727.8777605994837,l,1,0.7811513830674812,728.6782687858213,729.7690028065117,,,,,,,,,,,,,,,,,,,,,,,,,,,,,,,,,,,,,,,997751,2023-05-16_15h06.53.556,eb_02psyexp,2022.2.4,99.93719535836568,
267,0,267,0,,,,,,,,,,,,,,,,,,,,,,,,,,,,,,,,,,,,,,,,,,,,,,,,,,,,,,,,,,,729.7690028065117,729.7690028065117,729.7690028065117,729.7690028065117,729.7690028065117,729.7690028065117,s,1,0.5459340937668458,730.329328352469,,,,,,,,,,,,,,,,,,,,,,,,,,,,,,,,,,,,,,,,997751,2023-05-16_15h06.53.556,eb_02psyexp,2022.2.4,99.93719535836568,
268,0,268,0,,,,,,,,,,,,,,,,,,,,,,,,,,,,,,,,,,,,,,,,,,,,,,,,,,,,,,,,,,,731.3603215011535,731.3603215011535,731.3603215011535,731.3603215011535,731.3603215011535,731.3603215011535,l,1,0.4746114269364625,731.85062503058,732.8710053070681,,,,,,,,,,,,,,,,,,,,,,,,,,,,,,,,,,,,,,,997751,2023-05-16_15h06.53.556,eb_02psyexp,2022.2.4,99.93719535836568,
269,0,269,0,,,,,,,,,,,,,,,,,,,,,,,,,,,,,,,,,,,,,,,,,,,,,,,,,,,,,,,,,,,732.8710053070681,732.8710053070681,732.8710053070681,732.8710053070681,732.8710053070681,732.8710053070681,l,1,0.6519390597240999,733.5413941257866,734.5721150102327,,,,,,,,,,,,,,,,,,,,,,,,,,,,,,,,,,,,,,,997751,2023-05-16_15h06.53.556,eb_02psyexp,2022.2.4,99.93719535836568,
270,0,270,0,,,,,,,,,,,,,,,,,,,,,,,,,,,,,,,,,,,,,,,,,,,,,,,,,,,,,,,,,,,734.5721150102327,734.5721150102327,734.5721150102327,734.5721150102327,734.5721150102327,734.5721150102327,l,1,1.8948693957645446,736.483302233275,737.5039635275025,,,,,,,,,,,,,,,,,,,,,,,,,,,,,,,,,,,,,,,997751,2023-05-16_15h06.53.556,eb_02psyexp,2022.2.4,99.93719535836568,
271,0,271,0,,,,,,,,,,,,,,,,,,,,,,,,,,,,,,,,,,,,,,,,,,,,,,,,,,,,,,,,,,,737.5039635275025,737.5039635275025,737.5039635275025,737.5039635275025,737.5039635275025,737.5039635275025,s,1,0.7300269799306989,738.2444392594043,739.2751181874191,,,,,,,,,,,,,,,,,,,,,,,,,,,,,,,,,,,,,,,997751,2023-05-16_15h06.53.556,eb_02psyexp,2022.2.4,99.93719535836568,
